sender,sender_type,sender_id,timestamp,meta,,Blues,Classical,Country,Dance,Electronic,Folk,Gospel,Hip-Hop,Jazz,Latin,Musical/Film,New-age,Pop,Provo_ID,R&B,Rap,Reggae,Religious,Rock,Soul,Swing,Traditional,age,artist_name,correct,correctResponse,distraction,duration,education,ended_on,familiarity,gender,item,list,music_frequency,offensiveness,pleasantness,preference,response,response_action,snippet_file,song_name,song_rating,sound,text,time_commit,time_end,time_render,time_run,time_show,time_switch,url,word,word_ID
Instructions,html.Page,0_0,2021-11-12T12:50:59.100Z,"{""labjs_version"":""20.2.3"",""labjs_build"":{""flavor"":""production"",""commit"":""7ea907d66ca8aeef8054924ca5d82ffbe11e34e5""},""location"":""https://run.pavlovia.org/mvasilev/lab_music_e/"",""userAgent"":""Mozilla/5.0 (Windows NT 6.1; Win64; x64) AppleWebKit/537.36 (KHTML, like Gecko) Chrome/95.0.4638.69 Safari/537.36"",""platform"":""Win32"",""language"":""en-US"",""locale"":""en-US"",""timeZone"":""Europe/London"",""timezoneOffset"":0,""screen_width"":1920,""screen_height"":1080,""scroll_width"":1920,""scroll_height"":959,""window_innerWidth"":1920,""window_innerHeight"":1007,""devicePixelRatio"":1}",,,,,,,,,,,,,,,,,,,,,,,,,,,,,1675.5400000000009,,form submission,,,,,,,,,,,,,,,,16322.699999988079,16321.5,14629.291,14621.699999988079,14645.96,16330.159,{},,
Headphones,html.Page,0_1,2021-11-12T12:51:00.879Z,,,,,,,,,,,,,,,,,,,,,,,,,,,,,,1770.7410000357631,,form submission,,,,,,,,,,,,,,,,18101.5,18100.900000035763,16313.478,16323.300000011921,16330.159,18113.724,,,
Holding screen,html.Screen,0_2_0_0,2021-11-12T12:51:10.884Z,,,,,,,,,,,,,,,,,,,,,,,,,,,,,,10019.218,,timeout,,,,,,,,,,,,,,,,28106.600000023842,28099.598,18097.052,18102.19999998808,18113.724,28132.942,,,
screen,html.Screen,0_2_0_1_0,2021-11-12T12:51:12.575Z,,,,,,,,,,,,,,,,53,,,,,,,,,,,,,,1663.75799998808,,response,,,99,,,,,,Space,keypress(Space),,,,,When -- ----- -- ------ - ------- --- ----------<br>------------- ------ ------ ---- ---- ------- ----- -- ----<br>-------- ------- -- ---------- --- - --- ----- ----- ----<br>---- --- --- ----- --- ---- ---- ------- ----- ---- -------<br>--- --- -- ----- -- --- ---- -- --- ---- -- ------ ------<br>--- ----- -- ----,29798,29796.69999998808,28099.598,28107.19999998808,28132.942,29799.791,,0,When
screen,html.Screen,0_2_0_1_1,2021-11-12T12:51:13.158Z,,,,,,,,,,,,,,,,53,,,,,,,,,,,,,,580.408999988078,,response,,,99,,,,,,Space,keypress(Space),,,,,---- it ----- -- ------ - ------- --- ----------<br>------------- ------ ------ ---- ---- ------- ----- -- ----<br>-------- ------- -- ---------- --- - --- ----- ----- ----<br>---- --- --- ----- --- ---- ---- ------- ----- ---- -------<br>--- --- -- ----- -- --- ---- -- --- ---- -- ------ ------<br>--- ----- -- ----,30381.19999998808,30380.19999998808,29783.121,29798.5,29799.791,30383.37,,1,it
screen,html.Screen,0_2_0_1_2,2021-11-12T12:51:13.686Z,,,,,,,,,,,,,,,,53,,,,,,,,,,,,,,524.8299999880801,,response,,,99,,,,,,Space,keypress(Space),,,,,---- -- comes -- ------ - ------- --- ----------<br>------------- ------ ------ ---- ---- ------- ----- -- ----<br>-------- ------- -- ---------- --- - --- ----- ----- ----<br>---- --- --- ----- --- ---- ---- ------- ----- ---- -------<br>--- --- -- ----- -- --- ---- -- --- ---- -- ------ ------<br>--- ----- -- ----,30909.100000023842,30908.19999998808,30366.7,30381.5,30383.37,30916.849,,2,comes
screen,html.Screen,0_2_0_1_3,2021-11-12T12:51:14.510Z,,,,,,,,,,,,,,,,53,,,,,,,,,,,,,,815.3509999880807,,response,,,99,,,,,,Space,keypress(Space),,,,,---- -- ----- to ------ - ------- --- ----------<br>------------- ------ ------ ---- ---- ------- ----- -- ----<br>-------- ------- -- ---------- --- - --- ----- ----- ----<br>---- --- --- ----- --- ---- ---- ------- ----- ---- -------<br>--- --- -- ----- -- --- ---- -- --- ---- -- ------ ------<br>--- ----- -- ----,31733.100000023842,31732.19999998808,30900.179,30909.400000035763,30916.849,31750.447,,3,to
screen,html.Screen,0_2_0_1_4,2021-11-12T12:51:15.359Z,,,,,,,,,,,,,,,,53,,,,,,,,,,,,,,829.6530000238417,,response,,,99,,,,,,Space,keypress(Space),,,,,---- -- ----- -- having - ------- --- ----------<br>------------- ------ ------ ---- ---- ------- ----- -- ----<br>-------- ------- -- ---------- --- - --- ----- ----- ----<br>---- --- --- ----- --- ---- ---- ------- ----- ---- -------<br>--- --- -- ----- -- --- ---- -- --- ---- -- ------ ------<br>--- ----- -- ----,32581.30000001192,32580.100000023842,31733.776,31733.69999998808,31750.447,32583.915,,4,having
screen,html.Screen,0_2_0_1_5,2021-11-12T12:51:15.942Z,,,,,,,,,,,,,,,,53,,,,,,,,,,,,,,580.185000023841,,response,,,99,,,,,,Space,keypress(Space),,,,,---- -- ----- -- ------ a ------- --- ----------<br>------------- ------ ------ ---- ---- ------- ----- -- ----<br>-------- ------- -- ---------- --- - --- ----- ----- ----<br>---- --- --- ----- --- ---- ---- ------- ----- ---- -------<br>--- --- -- ----- -- --- ---- -- --- ---- -- ------ ------<br>--- ----- -- ----,33165,33164.10000002384,32567.245,32581.600000023842,32583.915,33167.493,,5,a
screen,html.Screen,0_2_0_1_6,2021-11-12T12:51:16.534Z,,,,,,,,,,,,,,,,53,,,,,,,,,,,,,,588.5069999999978,,response,,,99,,,,,,Space,keypress(Space),,,,,---- -- ----- -- ------ - lasting --- ----------<br>------------- ------ ------ ---- ---- ------- ----- -- ----<br>-------- ------- -- ---------- --- - --- ----- ----- ----<br>---- --- --- ----- --- ---- ---- ------- ----- ---- -------<br>--- --- -- ----- -- --- ---- -- --- ---- -- ------ ------<br>--- ----- -- ----,33757,33756,33150.822,33165.5,33167.493,33767.557,,6,lasting
screen,html.Screen,0_2_0_1_7,2021-11-12T12:51:17.398Z,,,,,,,,,,,,,,,,53,,,,,,,,,,,,,,852.4429999999993,,response,,,99,,,,,,Space,keypress(Space),,,,,---- -- ----- -- ------ - ------- and ----------<br>------------- ------ ------ ---- ---- ------- ----- -- ----<br>-------- ------- -- ---------- --- - --- ----- ----- ----<br>---- --- --- ----- --- ---- ---- ------- ----- ---- -------<br>--- --- -- ----- -- --- ---- -- --- ---- -- ------ ------<br>--- ----- -- ----,34620.90000003576,34620,33750.887,33757.40000003576,33767.557,34634.454,,7,and
screen,html.Screen,0_2_0_1_8,2021-11-12T12:51:17.974Z,,,,,,,,,,,,,,,,53,,,,,,,,,,,,,,561.5460000000021,,response,,,99,,,,,,Space,keypress(Space),,,,,---- -- ----- -- ------ - ------- --- fulfilling<br>------------- ------ ------ ---- ---- ------- ----- -- ----<br>-------- ------- -- ---------- --- - --- ----- ----- ----<br>---- --- --- ----- --- ---- ---- ------- ----- ---- -------<br>--- --- -- ----- -- --- ---- -- --- ---- -- ------ ------<br>--- ----- -- ----,35197.19999998808,35196,34617.784,34621.19999998808,34634.454,35201.286,,8,fulfilling
screen,html.Screen,0_2_0_1_9,2021-11-12T12:51:19.534Z,,,,,,,,,,,,,,,,53,,,,,,,,,,,,,,1554.6140000357627,,response,,,99,,,,,,Space,keypress(Space),,,,,"---- -- ----- -- ------ - ------- --- ----------<br>relationship, ------ ------ ---- ---- ------- ----- -- ----<br>-------- ------- -- ---------- --- - --- ----- ----- ----<br>---- --- --- ----- --- ---- ---- ------- ----- ---- -------<br>--- --- -- ----- -- --- ---- -- --- ---- -- ------ ------<br>--- ----- -- ----",36756.90000003576,36755.90000003576,35184.616,35197.5,35201.286,36768.285,,9,"relationship,"
screen,html.Screen,0_2_0_1_10,2021-11-12T12:51:20.206Z,,,,,,,,,,,,,,,,53,,,,,,,,,,,,,,659.6150000357593,,response,,,99,,,,,,Space,keypress(Space),,,,,---- -- ----- -- ------ - ------- --- ----------<br>------------- common ------ ---- ---- ------- ----- -- ----<br>-------- ------- -- ---------- --- - --- ----- ----- ----<br>---- --- --- ----- --- ---- ---- ------- ----- ---- -------<br>--- --- -- ----- -- --- ---- -- --- ---- -- ------ ------<br>--- ----- -- ----,37428.80000001192,37427.90000003576,36751.615,36757.19999998808,36768.285,37435.21,,10,common
screen,html.Screen,0_2_0_1_11,2021-11-12T12:51:20.750Z,,,,,,,,,,,,,,,,53,,,,,,,,,,,,,,536.5900000119218,,response,,,99,,,,,,Space,keypress(Space),,,,,---- -- ----- -- ------ - ------- --- ----------<br>------------- ------ wisdom ---- ---- ------- ----- -- ----<br>-------- ------- -- ---------- --- - --- ----- ----- ----<br>---- --- --- ----- --- ---- ---- ------- ----- ---- -------<br>--- --- -- ----- -- --- ---- -- --- ---- -- ------ ------<br>--- ----- -- ----,37972.90000003576,37971.80000001192,37418.539,37429.19999998808,37435.21,37985.205,,11,wisdom
screen,html.Screen,0_2_0_1_12,2021-11-12T12:51:21.230Z,,,,,,,,,,,,,,,,53,,,,,,,,,,,,,,466.5950000119192,,response,,,99,,,,,,Space,keypress(Space),,,,,---- -- ----- -- ------ - ------- --- ----------<br>------------- ------ ------ says ---- ------- ----- -- ----<br>-------- ------- -- ---------- --- - --- ----- ----- ----<br>---- --- --- ----- --- ---- ---- ------- ----- ---- -------<br>--- --- -- ----- -- --- ---- -- --- ---- -- ------ ------<br>--- ----- -- ----,38452.60000002384,38451.80000001192,37968.536,37973.19999998808,37985.205,38468.906,,12,says
screen,html.Screen,0_2_0_1_13,2021-11-12T12:51:21.710Z,,,,,,,,,,,,,,,,53,,,,,,,,,,,,,,462.7939999880764,,response,,,99,,,,,,Space,keypress(Space),,,,,---- -- ----- -- ------ - ------- --- ----------<br>------------- ------ ------ ---- that ------- ----- -- ----<br>-------- ------- -- ---------- --- - --- ----- ----- ----<br>---- --- --- ----- --- ---- ---- ------- ----- ---- -------<br>--- --- -- ----- -- --- ---- -- --- ---- -- ------ ------<br>--- ----- -- ----,38932.60000002384,38931.69999998808,38452.234,38453,38468.906,38935.472,,13,that
screen,html.Screen,0_2_0_1_14,2021-11-12T12:51:22.254Z,,,,,,,,,,,,,,,,53,,,,,,,,,,,,,,540.2279999880775,,response,,,99,,,,,,Space,keypress(Space),,,,,---- -- ----- -- ------ - ------- --- ----------<br>------------- ------ ------ ---- ---- feeling ----- -- ----<br>-------- ------- -- ---------- --- - --- ----- ----- ----<br>---- --- --- ----- --- ---- ---- ------- ----- ---- -------<br>--- --- -- ----- -- --- ---- -- --- ---- -- ------ ------<br>--- ----- -- ----,39476.5,39475.69999998808,38918.803,38933,38935.472,39485.842,,14,feeling
screen,html.Screen,0_2_0_1_15,2021-11-12T12:51:22.806Z,,,,,,,,,,,,,,,,53,,,,,,,,,,,,,,542.2580000238449,,response,,,99,,,,,,Space,keypress(Space),,,,,---- -- ----- -- ------ - ------- --- ----------<br>------------- ------ ------ ---- ---- ------- close -- ----<br>-------- ------- -- ---------- --- - --- ----- ----- ----<br>---- --- --- ----- --- ---- ---- ------- ----- ---- -------<br>--- --- -- ----- -- --- ---- -- --- ---- -- ------ ------<br>--- ----- -- ----,40029,40028.10000002384,39469.17,39476.90000003576,39485.842,40035.768,,15,close
screen,html.Screen,0_2_0_1_16,2021-11-12T12:51:23.230Z,,,,,,,,,,,,,,,,53,,,,,,,,,,,,,,415.83200002384547,,response,,,99,,,,,,Space,keypress(Space),,,,,---- -- ----- -- ------ - ------- --- ----------<br>------------- ------ ------ ---- ---- ------- ----- to ----<br>-------- ------- -- ---------- --- - --- ----- ----- ----<br>---- --- --- ----- --- ---- ---- ------- ----- ---- -------<br>--- --- -- ----- -- --- ---- -- --- ---- -- ------ ------<br>--- ----- -- ----,40452.5,40451.60000002384,40019.099,40029.30000001192,40035.768,40469.335,,16,to
screen,html.Screen,0_2_0_1_17,2021-11-12T12:51:23.798Z,,,,,,,,,,,,,,,,53,,,,,,,,,,,,,,550.36499998808,,response,,,99,,,,,,Space,keypress(Space),,,,,---- -- ----- -- ------ - ------- --- ----------<br>------------- ------ ------ ---- ---- ------- ----- -- your<br>-------- ------- -- ---------- --- - --- ----- ----- ----<br>---- --- --- ----- --- ---- ---- ------- ----- ---- -------<br>--- --- -- ----- -- --- ---- -- --- ---- -- ------ ------<br>--- ----- -- ----,41020.60000002384,41019.69999998808,40452.664,40452.90000003576,40469.335,41036.158,,17,your
screen,html.Screen,0_2_0_1_18,2021-11-12T12:51:24.382Z,,,,,,,,,,,,,,,,53,,,,,,,,,,,,,,567.541999988076,,response,,,99,,,,,,Space,keypress(Space),,,,,---- -- ----- -- ------ - ------- --- ----------<br>------------- ------ ------ ---- ---- ------- ----- -- ----<br>romantic ------- -- ---------- --- - --- ----- ----- ----<br>---- --- --- ----- --- ---- ---- ------- ----- ---- -------<br>--- --- -- ----- -- --- ---- -- --- ---- -- ------ ------<br>--- ----- -- ----,41604.40000003576,41603.69999998808,41019.487,41021,41036.158,41619.513,,18,romantic
screen,html.Screen,0_2_0_1_19,2021-11-12T12:51:24.902Z,,,,,,,,,,,,,,,,53,,,,,,,,,,,,,,504.08700002384285,,response,,,99,,,,,,Space,keypress(Space),,,,,---- -- ----- -- ------ - ------- --- ----------<br>------------- ------ ------ ---- ---- ------- ----- -- ----<br>-------- partner -- ---------- --- - --- ----- ----- ----<br>---- --- --- ----- --- ---- ---- ------- ----- ---- -------<br>--- --- -- ----- -- --- ---- -- --- ---- -- ------ ------<br>--- ----- -- ----,42124.40000003576,42123.60000002384,41602.844,41604.80000001192,41619.513,42136.452,,19,partner
screen,html.Screen,0_2_0_1_20,2021-11-12T12:51:25.406Z,,,,,,,,,,,,,,,,53,,,,,,,,,,,,,,491.0480000000025,,response,,,99,,,,,,Space,keypress(Space),,,,,---- -- ----- -- ------ - ------- --- ----------<br>------------- ------ ------ ---- ---- ------- ----- -- ----<br>-------- ------- is ---------- --- - --- ----- ----- ----<br>---- --- --- ----- --- ---- ---- ------- ----- ---- -------<br>--- --- -- ----- -- --- ---- -- --- ---- -- ------ ------<br>--- ----- -- ----,42628.40000003576,42627.5,42119.781,42124.69999998808,42136.452,42636.531,,20,is
screen,html.Screen,0_2_0_1_21,2021-11-12T12:51:44.392Z,,,,,,,,,,,,,,,,53,,,,,,,,,,,,,,18973.968999999997,,response,,,99,,,,,,Space,keypress(Space),,,,,---- -- ----- -- ------ - ------- --- ----------<br>------------- ------ ------ ---- ---- ------- ----- -- ----<br>-------- ------- -- paramount. --- - --- ----- ----- ----<br>---- --- --- ----- --- ---- ---- ------- ----- ---- -------<br>--- --- -- ----- -- --- ---- -- --- ---- -- ------ ------<br>--- ----- -- ----,61611.40000003576,61610.5,42619.861,42628.80000001192,42636.531,61623.674,,21,paramount.
screen,html.Screen,0_2_0_1_22,2021-11-12T12:51:44.920Z,,,,,,,,,,,,,,,,53,,,,,,,,,,,,,,514.8260000000009,,response,,,99,,,,,,Space,keypress(Space),,,,,---- -- ----- -- ------ - ------- --- ----------<br>------------- ------ ------ ---- ---- ------- ----- -- ----<br>-------- ------- -- ---------- But - --- ----- ----- ----<br>---- --- --- ----- --- ---- ---- ------- ----- ---- -------<br>--- --- -- ----- -- --- ---- -- --- ---- -- ------ ------<br>--- ----- -- ----,62139.30000001192,62138.5,61607.004,61612,61623.674,62141.558,,22,But
screen,html.Screen,0_2_0_1_23,2021-11-12T12:51:45.248Z,,,,,,,,,,,,,,,,53,,,,,,,,,,,,,,325.3420000357655,,response,,,99,,,,,,Space,keypress(Space),,,,,---- -- ----- -- ------ - ------- --- ----------<br>------------- ------ ------ ---- ---- ------- ----- -- ----<br>-------- ------- -- ---------- --- a --- ----- ----- ----<br>---- --- --- ----- --- ---- ---- ------- ----- ---- -------<br>--- --- -- ----- -- --- ---- -- --- ---- -- ------ ------<br>--- ----- -- ----,62467.69999998808,62466.90000003576,62124.887,62139.60000002384,62141.558,62474.929,,23,a
screen,html.Screen,0_2_0_1_24,2021-11-12T12:51:45.560Z,,,,,,,,,,,,,,,,53,,,,,,,,,,,,,,303.47100003576634,,response,,,99,,,,,,Space,keypress(Space),,,,,---- -- ----- -- ------ - ------- --- ----------<br>------------- ------ ------ ---- ---- ------- ----- -- ----<br>-------- ------- -- ---------- --- - new ----- ----- ----<br>---- --- --- ----- --- ---- ---- ------- ----- ---- -------<br>--- --- -- ----- -- --- ---- -- --- ---- -- ------ ------<br>--- ----- -- ----,62779.30000001192,62778.40000003576,62458.259,62468,62474.929,62791.828,,24,new
screen,html.Screen,0_2_0_1_25,2021-11-12T12:51:45.872Z,,,,,,,,,,,,,,,,53,,,,,,,,,,,,,,299.07200003576145,,response,,,99,,,,,,Space,keypress(Space),,,,,---- -- ----- -- ------ - ------- --- ----------<br>------------- ------ ------ ---- ---- ------- ----- -- ----<br>-------- ------- -- ---------- --- - --- study ----- ----<br>---- --- --- ----- --- ---- ---- ------- ----- ---- -------<br>--- --- -- ----- -- --- ---- -- --- ---- -- ------ ------<br>--- ----- -- ----,63091.69999998808,63090.90000003576,62775.155,62779.60000002384,62791.828,63108.447,,25,study
screen,html.Screen,0_2_0_1_26,2021-11-12T12:51:46.496Z,,,,,,,,,,,,,,,,53,,,,,,,,,,,,,,605.9530000357627,,response,,,99,,,,,,Space,keypress(Space),,,,,---- -- ----- -- ------ - ------- --- ----------<br>------------- ------ ------ ---- ---- ------- ----- -- ----<br>-------- ------- -- ---------- --- - --- ----- finds ----<br>---- --- --- ----- --- ---- ---- ------- ----- ---- -------<br>--- --- -- ----- -- --- ---- -- --- ---- -- ------ ------<br>--- ----- -- ----,63715.10000002384,63714.40000003576,63091.778,63092.10000002384,63108.447,63725.281,,26,finds
screen,html.Screen,0_2_0_1_27,2021-11-12T12:51:47.240Z,,,,,,,,,,,,,,,,53,,,,,,,,,,,,,,732.9189999880764,,response,,,99,,,,,,Space,keypress(Space),,,,,---- -- ----- -- ------ - ------- --- ----------<br>------------- ------ ------ ---- ---- ------- ----- -- ----<br>-------- ------- -- ---------- --- - --- ----- ----- that<br>---- --- --- ----- --- ---- ---- ------- ----- ---- -------<br>--- --- -- ----- -- --- ---- -- --- ---- -- ------ ------<br>--- ----- -- ----,64459,64458.19999998808,63708.611,63715.40000003576,63725.281,64475.471,,27,that
screen,html.Screen,0_2_0_1_28,2021-11-12T12:51:47.792Z,,,,,,,,,,,,,,,,53,,,,,,,,,,,,,,534.8290000119232,,response,,,99,,,,,,Space,keypress(Space),,,,,---- -- ----- -- ------ - ------- --- ----------<br>------------- ------ ------ ---- ---- ------- ----- -- ----<br>-------- ------- -- ---------- --- - --- ----- ----- ----<br>it's --- --- ----- --- ---- ---- ------- ----- ---- -------<br>--- --- -- ----- -- --- ---- -- --- ---- -- ------ ------<br>--- ----- -- ----,65011.10000002384,65010.30000001192,64458.801,64459.40000003576,64475.471,65025.521,,28,it's
screen,html.Screen,0_2_0_1_29,2021-11-12T12:51:48.176Z,,,,,,,,,,,,,,,,53,,,,,,,,,,,,,,368.67899998807843,,response,,,99,,,,,,Space,keypress(Space),,,,,---- -- ----- -- ------ - ------- --- ----------<br>------------- ------ ------ ---- ---- ------- ----- -- ----<br>-------- ------- -- ---------- --- - --- ----- ----- ----<br>---- not --- ----- --- ---- ---- ------- ----- ---- -------<br>--- --- -- ----- -- --- ---- -- --- ---- -- ------ ------<br>--- ----- -- ----,65395.19999998808,65394.19999998808,65008.852,65011.40000003576,65025.521,65409.123,,29,not
screen,html.Screen,0_2_0_1_30,2021-11-12T12:51:48.488Z,,,,,,,,,,,,,,,,53,,,,,,,,,,,,,,297.0769999880795,,response,,,99,,,,,,Space,keypress(Space),,,,,---- -- ----- -- ------ - ------- --- ----------<br>------------- ------ ------ ---- ---- ------- ----- -- ----<br>-------- ------- -- ---------- --- - --- ----- ----- ----<br>---- --- how ----- --- ---- ---- ------- ----- ---- -------<br>--- --- -- ----- -- --- ---- -- --- ---- -- ------ ------<br>--- ----- -- ----,65707.10000002384,65706.19999998808,65392.452,65395.5,65409.123,65709.141,,30,how
screen,html.Screen,0_2_0_1_31,2021-11-12T12:51:48.872Z,,,,,,,,,,,,,,,,53,,,,,,,,,,,,,,381.15900001191767,,response,,,99,,,,,,Space,keypress(Space),,,,,---- -- ----- -- ------ - ------- --- ----------<br>------------- ------ ------ ---- ---- ------- ----- -- ----<br>-------- ------- -- ---------- --- - --- ----- ----- ----<br>---- --- --- close --- ---- ---- ------- ----- ---- -------<br>--- --- -- ----- -- --- ---- -- --- ---- -- ------ ------<br>--- ----- -- ----,66091.10000002384,66090.30000001192,65692.471,65707.40000003576,65709.141,66092.576,,31,close
screen,html.Screen,0_2_0_1_32,2021-11-12T12:51:49.328Z,,,,,,,,,,,,,,,,53,,,,,,,,,,,,,,453.62399998807814,,response,,,99,,,,,,Space,keypress(Space),,,,,---- -- ----- -- ------ - ------- --- ----------<br>------------- ------ ------ ---- ---- ------- ----- -- ----<br>-------- ------- -- ---------- --- - --- ----- ----- ----<br>---- --- --- ----- you ---- ---- ------- ----- ---- -------<br>--- --- -- ----- -- --- ---- -- --- ---- -- ------ ------<br>--- ----- -- ----,66547.10000002384,66546.19999998808,66075.906,66091.40000003576,66092.576,66559.358,,32,you
screen,html.Screen,0_2_0_1_33,2021-11-12T12:51:49.744Z,,,,,,,,,,,,,,,,53,,,,,,,,,,,,,,402.8419999880862,,response,,,99,,,,,,Space,keypress(Space),,,,,---- -- ----- -- ------ - ------- --- ----------<br>------------- ------ ------ ---- ---- ------- ----- -- ----<br>-------- ------- -- ---------- --- - --- ----- ----- ----<br>---- --- --- ----- --- feel ---- ------- ----- ---- -------<br>--- --- -- ----- -- --- ---- -- --- ---- -- ------ ------<br>--- ----- -- ----,66963,66962.19999998808,66542.688,66547.40000003576,66559.358,66976.186,,33,feel
screen,html.Screen,0_2_0_1_34,2021-11-12T12:51:50.240Z,,,,,,,,,,,,,,,,53,,,,,,,,,,,,,,482.01399998807756,,response,,,99,,,,,,Space,keypress(Space),,,,,---- -- ----- -- ------ - ------- --- ----------<br>------------- ------ ------ ---- ---- ------- ----- -- ----<br>-------- ------- -- ---------- --- - --- ----- ----- ----<br>---- --- --- ----- --- ---- that ------- ----- ---- -------<br>--- --- -- ----- -- --- ---- -- --- ---- -- ------ ------<br>--- ----- -- ----,67459.30000001192,67458.19999998808,66959.515,66965.80000001192,66976.186,67476.108,,34,that
screen,html.Screen,0_2_0_1_35,2021-11-12T12:51:50.688Z,,,,,,,,,,,,,,,,53,,,,,,,,,,,,,,429.99200002384896,,response,,,99,,,,,,Space,keypress(Space),,,,,---- -- ----- -- ------ - ------- --- ----------<br>------------- ------ ------ ---- ---- ------- ----- -- ----<br>-------- ------- -- ---------- --- - --- ----- ----- ----<br>---- --- --- ----- --- ---- ---- matters ----- ---- -------<br>--- --- -- ----- -- --- ---- -- --- ---- -- ------ ------<br>--- ----- -- ----,67907,67906.10000002384,67459.44,67459.60000002384,67476.108,67909.8,,35,matters
screen,html.Screen,0_2_0_1_36,2021-11-12T12:51:52.063Z,,,,,,,,,,,,,,,,53,,,,,,,,,,,,,,1372.1000000357599,,response,,,99,,,,,,Space,keypress(Space),,,,,"---- -- ----- -- ------ - ------- --- ----------<br>------------- ------ ------ ---- ---- ------- ----- -- ----<br>-------- ------- -- ---------- --- - --- ----- ----- ----<br>---- --- --- ----- --- ---- ---- ------- most, ---- -------<br>--- --- -- ----- -- --- ---- -- --- ---- -- ------ ------<br>--- ----- -- ----",69282.90000003576,69281.90000003576,67893.128,67907.19999998808,67909.8,69293.438,,36,"most,"
screen,html.Screen,0_2_0_1_37,2021-11-12T12:51:52.751Z,,,,,,,,,,,,,,,,53,,,,,,,,,,,,,,676.5620000000054,,response,,,99,,,,,,Space,keypress(Space),,,,,---- -- ----- -- ------ - ------- --- ----------<br>------------- ------ ------ ---- ---- ------- ----- -- ----<br>-------- ------- -- ---------- --- - --- ----- ----- ----<br>---- --- --- ----- --- ---- ---- ------- ----- it's -------<br>--- --- -- ----- -- --- ---- -- --- ---- -- ------ ------<br>--- ----- -- ----,69970.80000001192,69970,69276.767,69283.10000002384,69293.438,69976.759,,37,it's
screen,html.Screen,0_2_0_1_38,2021-11-12T12:51:53.239Z,,,,,,,,,,,,,,,,53,,,,,,,,,,,,,,481.24099999999453,,response,,,99,,,,,,Space,keypress(Space),,,,,---- -- ----- -- ------ - ------- --- ----------<br>------------- ------ ------ ---- ---- ------- ----- -- ----<br>-------- ------- -- ---------- --- - --- ----- ----- ----<br>---- --- --- ----- --- ---- ---- ------- ----- ---- whether<br>--- --- -- ----- -- --- ---- -- --- ---- -- ------ ------<br>--- ----- -- ----,70458.80000001192,70458,69960.09,69971.10000002384,69976.759,70460.302,,38,whether
screen,html.Screen,0_2_0_1_39,2021-11-12T12:51:53.703Z,,,,,,,,,,,,,,,,53,,,,,,,,,,,,,,461.59800003576674,,response,,,99,,,,,,Space,keypress(Space),,,,,---- -- ----- -- ------ - ------- --- ----------<br>------------- ------ ------ ---- ---- ------- ----- -- ----<br>-------- ------- -- ---------- --- - --- ----- ----- ----<br>---- --- --- ----- --- ---- ---- ------- ----- ---- -------<br>you --- -- ----- -- --- ---- -- --- ---- -- ------ ------<br>--- ----- -- ----,70922.69999998808,70921.90000003576,70443.632,70459,70460.302,70927.235,,39,you
screen,html.Screen,0_2_0_1_40,2021-11-12T12:51:54.087Z,,,,,,,,,,,,,,,,53,,,,,,,,,,,,,,378.6650000357622,,response,,,99,,,,,,Space,keypress(Space),,,,,---- -- ----- -- ------ - ------- --- ----------<br>------------- ------ ------ ---- ---- ------- ----- -- ----<br>-------- ------- -- ---------- --- - --- ----- ----- ----<br>---- --- --- ----- --- ---- ---- ------- ----- ---- -------<br>--- are -- ----- -- --- ---- -- --- ---- -- ------ ------<br>--- ----- -- ----,71306.80000001192,71305.90000003576,70910.563,70923.10000002384,70927.235,71310.624,,40,are
screen,html.Screen,0_2_0_1_41,2021-11-12T12:51:54.503Z,,,,,,,,,,,,,,,,53,,,,,,,,,,,,,,411.27600003576663,,response,,,99,,,,,,Space,keypress(Space),,,,,---- -- ----- -- ------ - ------- --- ----------<br>------------- ------ ------ ---- ---- ------- ----- -- ----<br>-------- ------- -- ---------- --- - --- ----- ----- ----<br>---- --- --- ----- --- ---- ---- ------- ----- ---- -------<br>--- --- as ----- -- --- ---- -- --- ---- -- ------ ------<br>--- ----- -- ----,71722.69999998808,71721.90000003576,71293.953,71306.90000003576,71310.624,71727.355,,41,as
screen,html.Screen,0_2_0_1_42,2021-11-12T12:51:54.991Z,,,,,,,,,,,,,,,,53,,,,,,,,,,,,,,482.54500003576686,,response,,,99,,,,,,Space,keypress(Space),,,,,---- -- ----- -- ------ - ------- --- ----------<br>------------- ------ ------ ---- ---- ------- ----- -- ----<br>-------- ------- -- ---------- --- - --- ----- ----- ----<br>---- --- --- ----- --- ---- ---- ------- ----- ---- -------<br>--- --- -- close -- --- ---- -- --- ---- -- ------ ------<br>--- ----- -- ----,72210.69999998808,72209.90000003576,71710.685,71723,71727.355,72227.474,,42,close
screen,html.Screen,0_2_0_1_43,2021-11-12T12:51:55.560Z,,,,,,,,,,,,,,,,53,,,,,,,,,,,,,,550.826000011919,,response,,,99,,,,,,Space,keypress(Space),,,,,---- -- ----- -- ------ - ------- --- ----------<br>------------- ------ ------ ---- ---- ------- ----- -- ----<br>-------- ------- -- ---------- --- - --- ----- ----- ----<br>---- --- --- ----- --- ---- ---- ------- ----- ---- -------<br>--- --- -- ----- as --- ---- -- --- ---- -- ------ ------<br>--- ----- -- ----,72779.19999998808,72778.30000001192,72210.804,72211,72227.474,72794.273,,43,as
screen,html.Screen,0_2_0_1_44,2021-11-12T12:51:55.983Z,,,,,,,,,,,,,,,,53,,,,,,,,,,,,,,407.5270000119199,,response,,,99,,,,,,Space,keypress(Space),,,,,---- -- ----- -- ------ - ------- --- ----------<br>------------- ------ ------ ---- ---- ------- ----- -- ----<br>-------- ------- -- ---------- --- - --- ----- ----- ----<br>---- --- --- ----- --- ---- ---- ------- ----- ---- -------<br>--- --- -- ----- -- you ---- -- --- ---- -- ------ ------<br>--- ----- -- ----,73202.60000002384,73201.80000001192,72777.603,72779.40000003576,72794.273,73210.93,,44,you
screen,html.Screen,0_2_0_1_45,2021-11-12T12:51:56.503Z,,,,,,,,,,,,,,,,53,,,,,,,,,,,,,,510.8700000119279,,response,,,99,,,,,,Space,keypress(Space),,,,,---- -- ----- -- ------ - ------- --- ----------<br>------------- ------ ------ ---- ---- ------- ----- -- ----<br>-------- ------- -- ---------- --- - --- ----- ----- ----<br>---- --- --- ----- --- ---- ---- ------- ----- ---- -------<br>--- --- -- ----- -- --- want -- --- ---- -- ------ ------<br>--- ----- -- ----,73722.60000002384,73721.80000001192,73194.261,73202.90000003576,73210.93,73727.971,,45,want
screen,html.Screen,0_2_0_1_46,2021-11-12T12:51:57.079Z,,,,,,,,,,,,,,,,53,,,,,,,,,,,,,,569.7289999880741,,response,,,99,,,,,,Space,keypress(Space),,,,,---- -- ----- -- ------ - ------- --- ----------<br>------------- ------ ------ ---- ---- ------- ----- -- ----<br>-------- ------- -- ---------- --- - --- ----- ----- ----<br>---- --- --- ----- --- ---- ---- ------- ----- ---- -------<br>--- --- -- ----- -- --- ---- to --- ---- -- ------ ------<br>--- ----- -- ----,74298.60000002384,74297.69999998808,73711.299,73722.90000003576,73727.971,74311.347,,46,to
screen,html.Screen,0_2_0_1_47,2021-11-12T12:51:58.207Z,,,,,,,,,,,,,,,,53,,,,,,,,,,,,,,1114.3529999880848,,response,,,99,,,,,,Space,keypress(Space),,,,,"---- -- ----- -- ------ - ------- --- ----------<br>------------- ------ ------ ---- ---- ------- ----- -- ----<br>-------- ------- -- ---------- --- - --- ----- ----- ----<br>---- --- --- ----- --- ---- ---- ------- ----- ---- -------<br>--- --- -- ----- -- --- ---- -- be, ---- -- ------ ------<br>--- ----- -- ----",75426.5,75425.69999998808,74294.677,74298.80000001192,74311.347,75428.354,,47,"be,"
screen,html.Screen,0_2_0_1_48,2021-11-12T12:51:58.879Z,,,,,,,,,,,,,,,,53,,,,,,,,,,,,,,669.3459999880724,,response,,,99,,,,,,Space,keypress(Space),,,,,---- -- ----- -- ------ - ------- --- ----------<br>------------- ------ ------ ---- ---- ------- ----- -- ----<br>-------- ------- -- ---------- --- - --- ----- ----- ----<br>---- --- --- ----- --- ---- ---- ------- ----- ---- -------<br>--- --- -- ----- -- --- ---- -- --- even -- ------ ------<br>--- ----- -- ----,76098.5,76097.69999998808,75411.683,75426.69999998808,75428.354,76111.808,,48,even
screen,html.Screen,0_2_0_1_49,2021-11-12T12:51:59.383Z,,,,,,,,,,,,,,,,53,,,,,,,,,,,,,,489.7920000238373,,response,,,99,,,,,,Space,keypress(Space),,,,,---- -- ----- -- ------ - ------- --- ----------<br>------------- ------ ------ ---- ---- ------- ----- -- ----<br>-------- ------- -- ---------- --- - --- ----- ----- ----<br>---- --- --- ----- --- ---- ---- ------- ----- ---- -------<br>--- --- -- ----- -- --- ---- -- --- ---- if ------ ------<br>--- ----- -- ----,76602.40000003576,76601.60000002384,76095.138,76098.69999998808,76111.808,76611.918,,49,if
screen,html.Screen,0_2_0_1_50,2021-11-12T12:51:59.863Z,,,,,,,,,,,,,,,,53,,,,,,,,,,,,,,469.68200002383674,,response,,,99,,,,,,Space,keypress(Space),,,,,---- -- ----- -- ------ - ------- --- ----------<br>------------- ------ ------ ---- ---- ------- ----- -- ----<br>-------- ------- -- ---------- --- - --- ----- ----- ----<br>---- --- --- ----- --- ---- ---- ------- ----- ---- -------<br>--- --- -- ----- -- --- ---- -- --- ---- -- that's ------<br>--- ----- -- ----,77082.5,77081.60000002384,76595.248,76602.69999998808,76611.918,77095.456,,50,that's
screen,html.Screen,0_2_0_1_51,2021-11-12T12:52:00.415Z,,,,,,,,,,,,,,,,53,,,,,,,,,,,,,,538.1440000238363,,response,,,99,,,,,,Space,keypress(Space),,,,,---- -- ----- -- ------ - ------- --- ----------<br>------------- ------ ------ ---- ---- ------- ----- -- ----<br>-------- ------- -- ---------- --- - --- ----- ----- ----<br>---- --- --- ----- --- ---- ---- ------- ----- ---- -------<br>--- --- -- ----- -- --- ---- -- --- ---- -- ------ really<br>--- ----- -- ----,77634.40000003576,77633.60000002384,77078.785,77082.69999998808,77095.456,77645.429,,51,really
screen,html.Screen,0_2_0_1_52,2021-11-12T12:52:00.863Z,,,,,,,,,,,,,,,,53,,,,,,,,,,,,,,436.17100002383813,,response,,,99,,,,,,Space,keypress(Space),,,,,---- -- ----- -- ------ - ------- --- ----------<br>------------- ------ ------ ---- ---- ------- ----- -- ----<br>-------- ------- -- ---------- --- - --- ----- ----- ----<br>---- --- --- ----- --- ---- ---- ------- ----- ---- -------<br>--- --- -- ----- -- --- ---- -- --- ---- -- ------ ------<br>not ----- -- ----,78082.30000001192,78081.60000002384,77628.76,77634.60000002384,77645.429,78095.768,,52,not
screen,html.Screen,0_2_0_1_53,2021-11-12T12:52:01.311Z,,,,,,,,,,,,,,,,53,,,,,,,,,,,,,,433.83200002384547,,response,,,99,,,,,,Space,keypress(Space),,,,,---- -- ----- -- ------ - ------- --- ----------<br>------------- ------ ------ ---- ---- ------- ----- -- ----<br>-------- ------- -- ---------- --- - --- ----- ----- ----<br>---- --- --- ----- --- ---- ---- ------- ----- ---- -------<br>--- --- -- ----- -- --- ---- -- --- ---- -- ------ ------<br>--- close -- ----,78530.40000003576,78529.60000002384,78079.096,78082.60000002384,78095.768,78545.769,,53,close
screen,html.Screen,0_2_0_1_54,2021-11-12T12:52:01.751Z,,,,,,,,,,,,,,,,53,,,,,,,,,,,,,,423.73099999999977,,response,,,99,,,,,,Space,keypress(Space),,,,,---- -- ----- -- ------ - ------- --- ----------<br>------------- ------ ------ ---- ---- ------- ----- -- ----<br>-------- ------- -- ---------- --- - --- ----- ----- ----<br>---- --- --- ----- --- ---- ---- ------- ----- ---- -------<br>--- --- -- ----- -- --- ---- -- --- ---- -- ------ ------<br>--- ----- at ----,78970.40000003576,78969.5,78529.099,78530.69999998808,78545.769,78979.227,,54,at
screen,html.Screen,0_2_0_1_55,2021-11-12T12:52:04.007Z,,,,,,,,,,,,,,,,53,,,,,,,,,,,,,,2246.073000011922,,response,,,99,,,,,,Space,keypress(Space),,,,,---- -- ----- -- ------ - ------- --- ----------<br>------------- ------ ------ ---- ---- ------- ----- -- ----<br>-------- ------- -- ---------- --- - --- ----- ----- ----<br>---- --- --- ----- --- ---- ---- ------- ----- ---- -------<br>--- --- -- ----- -- --- ---- -- --- ---- -- ------ ------<br>--- ----- -- all.,81226.10000002384,81225.30000001192,78962.557,78970.60000002384,78979.227,81246.522,,55,all.
Item 99,flow.Loop,0_2_0_1,2021-11-12T12:52:04.012Z,,,,,,,,,,,,,,,,,,,,,,,,,,,,,,53092.358000011925,,completion,,,,E,,,,,,,,,,silence,,81231.60000002384,81225.30000001192,28099.598,28107,28132.942,81246.522,,,
Question 1,html.Screen,0_2_0_2,2021-11-12T12:52:11.472Z,,,,,,,,,,,,,,,,,,,,,,,,,,,true,FALSE,,7443.778000011924,,response,,,99,E,,,,,FALSE,click #choice-2,,,,silence,,88691.90000003576,88690.30000001192,81229.851,81232,81246.522,88698.875,,,
Question 2,html.Screen,0_2_0_3,2021-11-12T12:52:20.833Z,,,,,,,,,,,,,,,,,,,,,,,,,,,true,TRUE,,9351.824999988079,,response,,,99,E,,,,,TRUE,click #choice-1,,,,silence,,98052.10000002384,98050.69999998808,88682.189,88692.30000001192,88698.875,98067.471,,,
Item 99,flow.Sequence,0_2_0,2021-11-12T12:52:20.833Z,,,,,,,,,,,,,,,,,,,,,,,,,,,,,,79936.97599998808,,completion,,,,,,,,,,,,,,,,98052.5,98050.69999998808,18097.052,18102.100000023842,18113.724,98067.471,,,
Holding screen,html.Screen,0_2_1_0,2021-11-12T12:52:30.835Z,,,,,,,,,,,,,,,,,,,,,,,,,,,,,,10002.475999999995,,timeout,,,,,,,,,,,,,,,,108054.40000003576,108053.277,98050.801,98052.90000003576,98067.471,108069.947,,,
screen,html.Screen,0_2_1_1_0,2021-11-12T12:52:32.614Z,,,,,,,,,,,,,,,,54,,,,,,,,,,,,,,1762.4530000357627,,response,,,100,,,,,,Space,keypress(Space),,,,,At --- ---- --- ------ ----- ------- ---- -- --- ------- --<br>------- ---------- ------ -- ----- -- ----- -- ---- ------<br>--- ----- --- --- ------ -------- ----- --- ------ ----- --<br>----- ----- ---------- --- --- ------ ------ ---- -- ------<br>------- --- ------ ----- --- ---- ------- -- ---- --- --<br>------- ------,109833.19999998808,109832.40000003576,108053.277,108054.80000001192,108069.947,109837.213,,0,At
screen,html.Screen,0_2_1_1_1,2021-11-12T12:52:33.005Z,,,,,,,,,,,,,,,,54,,,,,,,,,,,,,,386.58700001191755,,response,,,100,,,,,,Space,keypress(Space),,,,,-- the ---- --- ------ ----- ------- ---- -- --- ------- --<br>------- ---------- ------ -- ----- -- ----- -- ---- ------<br>--- ----- --- --- ------ -------- ----- --- ------ ----- --<br>----- ----- ---------- --- --- ------ ------ ---- -- ------<br>------- --- ------ ----- --- ---- ------- -- ---- --- --<br>------- ------,110224.60000002384,110223.80000001192,109820.542,109833.5,109837.213,110237.091,,1,the
screen,html.Screen,0_2_1_1_2,2021-11-12T12:52:33.317Z,,,,,,,,,,,,,,,,54,,,,,,,,,,,,,,298.7090000119206,,response,,,100,,,,,,Space,keypress(Space),,,,,-- --- time --- ------ ----- ------- ---- -- --- ------- --<br>------- ---------- ------ -- ----- -- ----- -- ---- ------<br>--- ----- --- --- ------ -------- ----- --- ------ ----- --<br>----- ----- ---------- --- --- ------ ------ ---- -- ------<br>------- --- ------ ----- --- ---- ------- -- ---- --- --<br>------- ------,110536.60000002384,110535.80000001192,110220.422,110224.80000001192,110237.091,110554.053,,2,time
screen,html.Screen,0_2_1_1_3,2021-11-12T12:52:33.733Z,,,,,,,,,,,,,,,,54,,,,,,,,,,,,,,397.6469999880792,,response,,,100,,,,,,Space,keypress(Space),,,,,-- --- ---- the ------ ----- ------- ---- -- --- ------- --<br>------- ---------- ------ -- ----- -- ----- -- ---- ------<br>--- ----- --- --- ------ -------- ----- --- ------ ----- --<br>----- ----- ---------- --- --- ------ ------ ---- -- ------<br>------- --- ------ ----- --- ---- ------- -- ---- --- --<br>------- ------,110952.5,110951.69999998808,110537.382,110536.80000001192,110554.053,110954.155,,3,the
screen,html.Screen,0_2_1_1_4,2021-11-12T12:52:34.093Z,,,,,,,,,,,,,,,,54,,,,,,,,,,,,,,357.54499998808024,,response,,,100,,,,,,Space,keypress(Space),,,,,-- --- ---- --- French ----- ------- ---- -- --- ------- --<br>------- ---------- ------ -- ----- -- ----- -- ---- ------<br>--- ----- --- --- ------ -------- ----- --- ------ ----- --<br>----- ----- ---------- --- --- ------ ------ ---- -- ------<br>------- --- ------ ----- --- ---- ------- -- ---- --- --<br>------- ------,111312.60000002384,111311.69999998808,110937.484,110952.80000001192,110954.155,111320.818,,4,French
screen,html.Screen,0_2_1_1_5,2021-11-12T12:52:34.493Z,,,,,,,,,,,,,,,,54,,,,,,,,,,,,,,390.9820000119216,,response,,,100,,,,,,Space,keypress(Space),,,,,-- --- ---- --- ------ crown ------- ---- -- --- ------- --<br>------- ---------- ------ -- ----- -- ----- -- ---- ------<br>--- ----- --- --- ------ -------- ----- --- ------ ----- --<br>----- ----- ---------- --- --- ------ ------ ---- -- ------<br>------- --- ------ ----- --- ---- ------- -- ---- --- --<br>------- ------,111712.5,111711.80000001192,111304.149,111314.69999998808,111320.818,111721.036,,5,crown
screen,html.Screen,0_2_1_1_6,2021-11-12T12:52:34.973Z,,,,,,,,,,,,,,,,54,,,,,,,,,,,,,,470.6639999880863,,response,,,100,,,,,,Space,keypress(Space),,,,,-- --- ---- --- ------ ----- secured ---- -- --- ------- --<br>------- ---------- ------ -- ----- -- ----- -- ---- ------<br>--- ----- --- --- ------ -------- ----- --- ------ ----- --<br>----- ----- ---------- --- --- ------ ------ ---- -- ------<br>------- --- ------ ----- --- ---- ------- -- ---- --- --<br>------- ------,112192.5,112191.69999998808,111704.365,111712.80000001192,111721.036,112204.434,,6,secured
screen,html.Screen,0_2_1_1_7,2021-11-12T12:52:35.565Z,,,,,,,,,,,,,,,,54,,,,,,,,,,,,,,579.2659999880852,,response,,,100,,,,,,Space,keypress(Space),,,,,-- --- ---- --- ------ ----- ------- much -- --- ------- --<br>------- ---------- ------ -- ----- -- ----- -- ---- ------<br>--- ----- --- --- ------ -------- ----- --- ------ ----- --<br>----- ----- ---------- --- --- ------ ------ ---- -- ------<br>------- --- ------ ----- --- ---- ------- -- ---- --- --<br>------- ------,112784.5,112783.69999998808,112187.764,112192.69999998808,112204.434,112787.904,,7,much
screen,html.Screen,0_2_1_1_8,2021-11-12T12:52:35.965Z,,,,,,,,,,,,,,,,54,,,,,,,,,,,,,,395.69600002384686,,response,,,100,,,,,,Space,keypress(Space),,,,,-- --- ---- --- ------ ----- ------- ---- of --- ------- --<br>------- ---------- ------ -- ----- -- ----- -- ---- ------<br>--- ----- --- --- ------ -------- ----- --- ------ ----- --<br>----- ----- ---------- --- --- ------ ------ ---- -- ------<br>------- --- ------ ----- --- ---- ------- -- ---- --- --<br>------- ------,113184.40000003576,113183.60000002384,112771.234,112784.69999998808,112787.904,113187.909,,8,of
screen,html.Screen,0_2_1_1_9,2021-11-12T12:52:36.397Z,,,,,,,,,,,,,,,,54,,,,,,,,,,,,,,427.6910000238422,,response,,,100,,,,,,Space,keypress(Space),,,,,-- --- ---- --- ------ ----- ------- ---- -- its ------- --<br>------- ---------- ------ -- ----- -- ----- -- ---- ------<br>--- ----- --- --- ------ -------- ----- --- ------ ----- --<br>----- ----- ---------- --- --- ------ ------ ---- -- ------<br>------- --- ------ ----- --- ---- ------- -- ---- --- --<br>------- ------,113616.40000003576,113615.60000002384,113171.24,113184.69999998808,113187.909,113621.553,,9,its
screen,html.Screen,0_2_1_1_10,2021-11-12T12:52:36.781Z,,,,,,,,,,,,,,,,54,,,,,,,,,,,,,,377.9470000000001,,response,,,100,,,,,,Space,keypress(Space),,,,,-- --- ---- --- ------ ----- ------- ---- -- --- revenue --<br>------- ---------- ------ -- ----- -- ----- -- ---- ------<br>--- ----- --- --- ------ -------- ----- --- ------ ----- --<br>----- ----- ---------- --- --- ------ ------ ---- -- ------<br>------- --- ------ ----- --- ---- ------- -- ---- --- --<br>------- ------,114000.30000001192,113999.5,113604.881,113616.69999998808,113621.553,114004.896,,10,revenue
screen,html.Screen,0_2_1_1_11,2021-11-12T12:52:37.389Z,,,,,,,,,,,,,,,,54,,,,,,,,,,,,,,602.6040000000066,,response,,,100,,,,,,Space,keypress(Space),,,,,-- --- ---- --- ------ ----- ------- ---- -- --- ------- by<br>------- ---------- ------ -- ----- -- ----- -- ---- ------<br>--- ----- --- --- ------ -------- ----- --- ------ ----- --<br>----- ----- ---------- --- --- ------ ------ ---- -- ------<br>------- --- ------ ----- --- ---- ------- -- ---- --- --<br>------- ------,114608.19999998808,114607.5,113988.226,114000.60000002384,114004.896,114621.767,,11,by
screen,html.Screen,0_2_1_1_12,2021-11-12T12:52:37.789Z,,,,,,,,,,,,,,,,54,,,,,,,,,,,,,,385.6330000357557,,response,,,100,,,,,,Space,keypress(Space),,,,,-- --- ---- --- ------ ----- ------- ---- -- --- ------- --<br>issuing ---------- ------ -- ----- -- ----- -- ---- ------<br>--- ----- --- --- ------ -------- ----- --- ------ ----- --<br>----- ----- ---------- --- --- ------ ------ ---- -- ------<br>------- --- ------ ----- --- ---- ------- -- ---- --- --<br>------- ------,115008.19999998808,115007.40000003576,114605.096,114608.5,114621.767,115021.836,,12,issuing
screen,html.Screen,0_2_1_1_13,2021-11-12T12:52:38.357Z,,,,,,,,,,,,,,,,54,,,,,,,,,,,,,,553.6640000000043,,response,,,100,,,,,,Space,keypress(Space),,,,,-- --- ---- --- ------ ----- ------- ---- -- --- ------- --<br>------- government ------ -- ----- -- ----- -- ---- ------<br>--- ----- --- --- ------ -------- ----- --- ------ ----- --<br>----- ----- ---------- --- --- ------ ------ ---- -- ------<br>------- --- ------ ----- --- ---- ------- -- ---- --- --<br>------- ------,115576.30000001192,115575.5,115005.166,115008.5,115021.836,115588.647,,13,government
screen,html.Screen,0_2_1_1_14,2021-11-12T12:52:38.949Z,,,,,,,,,,,,,,,,54,,,,,,,,,,,,,,578.7530000357656,,response,,,100,,,,,,Space,keypress(Space),,,,,-- --- ---- --- ------ ----- ------- ---- -- --- ------- --<br>------- ---------- bonds. -- ----- -- ----- -- ---- ------<br>--- ----- --- --- ------ -------- ----- --- ------ ----- --<br>----- ----- ---------- --- --- ------ ------ ---- -- ------<br>------- --- ------ ----- --- ---- ------- -- ---- --- --<br>------- ------,116168.19999998808,116167.40000003576,115571.977,115576.5,115588.647,116172.115,,14,bonds.
screen,html.Screen,0_2_1_1_15,2021-11-12T12:52:41.261Z,,,,,,,,,,,,,,,,54,,,,,,,,,,,,,,2307.1850000119157,,response,,,100,,,,,,Space,keypress(Space),,,,,-- --- ---- --- ------ ----- ------- ---- -- --- ------- --<br>------- ---------- ------ In ----- -- ----- -- ---- ------<br>--- ----- --- --- ------ -------- ----- --- ------ ----- --<br>----- ----- ---------- --- --- ------ ------ ---- -- ------<br>------- --- ------ ----- --- ---- ------- -- ---- --- --<br>------- ------,118480.10000002384,118479.30000001192,116155.445,116168.40000003576,116172.115,118489.27,,15,In
screen,html.Screen,0_2_1_1_16,2021-11-12T12:52:48.593Z,,,,,,,,,,,,,,,,54,,,,,,,,,,,,,,7318.330000023838,,response,,,100,,,,,,Space,keypress(Space),,,,,"-- --- ---- --- ------ ----- ------- ---- -- --- ------- --<br>------- ---------- ------ -- 1727, -- ----- -- ---- ------<br>--- ----- --- --- ------ -------- ----- --- ------ ----- --<br>----- ----- ---------- --- --- ------ ------ ---- -- ------<br>------- --- ------ ----- --- ---- ------- -- ---- --- --<br>------- ------",125808.40000003576,125807.60000002384,118472.6,118480.40000003576,118489.27,125824.212,,16,"1727,"
screen,html.Screen,0_2_1_1_17,2021-11-12T12:52:50.256Z,,,,,,,,,,,,,,,,54,,,,,,,,,,,,,,1646.5880000119214,,response,,,100,,,,,,Space,keypress(Space),,,,,-- --- ---- --- ------ ----- ------- ---- -- --- ------- --<br>------- ---------- ------ -- ----- in ----- -- ---- ------<br>--- ----- --- --- ------ -------- ----- --- ------ ----- --<br>----- ----- ---------- --- --- ------ ------ ---- -- ------<br>------- --- ------ ----- --- ---- ------- -- ---- --- --<br>------- ------,127471.69999998808,127470.80000001192,125807.542,125808.69999998808,125824.212,127474.616,,17,in
screen,html.Screen,0_2_1_1_18,2021-11-12T12:52:50.808Z,,,,,,,,,,,,,,,,54,,,,,,,,,,,,,,548.1840000119264,,response,,,100,,,,,,Space,keypress(Space),,,,,-- --- ---- --- ------ ----- ------- ---- -- --- ------- --<br>------- ---------- ------ -- ----- -- order -- ---- ------<br>--- ----- --- --- ------ -------- ----- --- ------ ----- --<br>----- ----- ---------- --- --- ------ ------ ---- -- ------<br>------- --- ------ ----- --- ---- ------- -- ---- --- --<br>------- ------,128023.69999998808,128022.80000001192,127457.946,127472,127474.616,128025.109,,18,order
screen,html.Screen,0_2_1_1_19,2021-11-12T12:52:51.208Z,,,,,,,,,,,,,,,,54,,,,,,,,,,,,,,397.6910000119242,,response,,,100,,,,,,Space,keypress(Space),,,,,-- --- ---- --- ------ ----- ------- ---- -- --- ------- --<br>------- ---------- ------ -- ----- -- ----- to ---- ------<br>--- ----- --- --- ------ -------- ----- --- ------ ----- --<br>----- ----- ---------- --- --- ------ ------ ---- -- ------<br>------- --- ------ ----- --- ---- ------- -- ---- --- --<br>------- ------,128423.80000001192,128422.80000001192,128008.439,128024,128025.109,128425.333,,19,to
screen,html.Screen,0_2_1_1_20,2021-11-12T12:52:51.552Z,,,,,,,,,,,,,,,,54,,,,,,,,,,,,,,341.4670000119222,,response,,,100,,,,,,Space,keypress(Space),,,,,-- --- ---- --- ------ ----- ------- ---- -- --- ------- --<br>------- ---------- ------ -- ----- -- ----- -- save ------<br>--- ----- --- --- ------ -------- ----- --- ------ ----- --<br>----- ----- ---------- --- --- ------ ------ ---- -- ------<br>------- --- ------ ----- --- ---- ------- -- ---- --- --<br>------- ------,128767.60000002384,128766.80000001192,128408.662,128424.10000002384,128425.333,128775.371,,20,save
screen,html.Screen,0_2_1_1_21,2021-11-12T12:52:51.992Z,,,,,,,,,,,,,,,,54,,,,,,,,,,,,,,431.42900001192174,,response,,,100,,,,,,Space,keypress(Space),,,,,"-- --- ---- --- ------ ----- ------- ---- -- --- ------- --<br>------- ---------- ------ -- ----- -- ----- -- ---- money,<br>--- ----- --- --- ------ -------- ----- --- ------ ----- --<br>----- ----- ---------- --- --- ------ ------ ---- -- ------<br>------- --- ------ ----- --- ---- ------- -- ---- --- --<br>------- ------",129207.60000002384,129206.80000001192,128758.701,128767.80000001192,128775.371,129208.819,,21,"money,"
screen,html.Screen,0_2_1_1_22,2021-11-12T12:52:52.520Z,,,,,,,,,,,,,,,,54,,,,,,,,,,,,,,525.8809999880759,,response,,,100,,,,,,Space,keypress(Space),,,,,-- --- ---- --- ------ ----- ------- ---- -- --- ------- --<br>------- ---------- ------ -- ----- -- ----- -- ---- ------<br>the ----- --- --- ------ -------- ----- --- ------ ----- --<br>----- ----- ---------- --- --- ------ ------ ---- -- ------<br>------- --- ------ ----- --- ---- ------- -- ---- --- --<br>------- ------,129735.60000002384,129734.69999998808,129192.149,129207.90000003576,129208.819,129742.117,,22,the
screen,html.Screen,0_2_1_1_23,2021-11-12T12:52:54.368Z,,,,,,,,,,,,,,,,54,,,,,,,,,,,,,,1840.4830000238435,,response,,,100,,,,,,Space,keypress(Space),,,,,-- --- ---- --- ------ ----- ------- ---- -- --- ------- --<br>------- ---------- ------ -- ----- -- ----- -- ---- ------<br>--- state --- --- ------ -------- ----- --- ------ ----- --<br>----- ----- ---------- --- --- ------ ------ ---- -- ------<br>------- --- ------ ----- --- ---- ------- -- ---- --- --<br>------- ------,131583.5,131582.60000002384,129725.449,129735.90000003576,129742.117,131592.608,,23,state
screen,html.Screen,0_2_1_1_24,2021-11-12T12:52:54.832Z,,,,,,,,,,,,,,,,54,,,,,,,,,,,,,,453.9920000238344,,response,,,100,,,,,,Space,keypress(Space),,,,,-- --- ---- --- ------ ----- ------- ---- -- --- ------- --<br>------- ---------- ------ -- ----- -- ----- -- ---- ------<br>--- ----- cut --- ------ -------- ----- --- ------ ----- --<br>----- ----- ---------- --- --- ------ ------ ---- -- ------<br>------- --- ------ ----- --- ---- ------- -- ---- --- --<br>------- ------,132047.40000003576,132046.60000002384,131575.938,131583.90000003576,131592.608,132059.657,,24,cut
screen,html.Screen,0_2_1_1_25,2021-11-12T12:52:55.288Z,,,,,,,,,,,,,,,,54,,,,,,,,,,,,,,442.8429999999935,,response,,,100,,,,,,Space,keypress(Space),,,,,-- --- ---- --- ------ ----- ------- ---- -- --- ------- --<br>------- ---------- ------ -- ----- -- ----- -- ---- ------<br>--- ----- --- the ------ -------- ----- --- ------ ----- --<br>----- ----- ---------- --- --- ------ ------ ---- -- ------<br>------- --- ------ ----- --- ---- ------- -- ---- --- --<br>------- ------,132503.30000001192,132502.5,132042.985,132047.80000001192,132059.657,132509.672,,25,the
screen,html.Screen,0_2_1_1_26,2021-11-12T12:52:55.736Z,,,,,,,,,,,,,,,,54,,,,,,,,,,,,,,440.8280000000086,,response,,,100,,,,,,Space,keypress(Space),,,,,-- --- ---- --- ------ ----- ------- ---- -- --- ------- --<br>------- ---------- ------ -- ----- -- ----- -- ---- ------<br>--- ----- --- --- bonds' -------- ----- --- ------ ----- --<br>----- ----- ---------- --- --- ------ ------ ---- -- ------<br>------- --- ------ ----- --- ---- ------- -- ---- --- --<br>------- ------,132951.40000003576,132950.5,132493.002,132503.60000002384,132509.672,132959.849,,26,bonds'
screen,html.Screen,0_2_1_1_27,2021-11-12T12:53:01.840Z,,,,,,,,,,,,,,,,54,,,,,,,,,,,,,,6094.850999988092,,response,,,100,,,,,,Space,keypress(Space),,,,,-- --- ---- --- ------ ----- ------- ---- -- --- ------- --<br>------- ---------- ------ -- ----- -- ----- -- ---- ------<br>--- ----- --- --- ------ interest ----- --- ------ ----- --<br>----- ----- ---------- --- --- ------ ------ ---- -- ------<br>------- --- ------ ----- --- ---- ------- -- ---- --- --<br>------- ------,139056,139054.69999998808,132943.178,132951.69999998808,132959.849,139060.624,,27,interest
screen,html.Screen,0_2_1_1_28,2021-11-12T12:53:02.335Z,,,,,,,,,,,,,,,,54,,,,,,,,,,,,,,489.57599998806836,,response,,,100,,,,,,Space,keypress(Space),,,,,-- --- ---- --- ------ ----- ------- ---- -- --- ------- --<br>------- ---------- ------ -- ----- -- ----- -- ---- ------<br>--- ----- --- --- ------ -------- rate. --- ------ ----- --<br>----- ----- ---------- --- --- ------ ------ ---- -- ------<br>------- --- ------ ----- --- ---- ------- -- ---- --- --<br>------- ------,139551,139550.19999998808,139043.955,139056.30000001192,139060.624,139561.482,,28,rate.
screen,html.Screen,0_2_1_1_29,2021-11-12T12:53:26.879Z,,,,,,,,,,,,,,,,54,,,,,,,,,,,,,,24532.01800000001,,response,,,100,,,,,,Space,keypress(Space),,,,,-- --- ---- --- ------ ----- ------- ---- -- --- ------- --<br>------- ---------- ------ -- ----- -- ----- -- ---- ------<br>--- ----- --- --- ------ -------- ----- The ------ ----- --<br>----- ----- ---------- --- --- ------ ------ ---- -- ------<br>------- --- ------ ----- --- ---- ------- -- ---- --- --<br>------- ------,164094.90000003576,164093.5,139544.811,139551.30000001192,139561.482,164099.667,,29,The
screen,html.Screen,0_2_1_1_30,2021-11-12T12:53:27.190Z,,,,,,,,,,,,,,,,54,,,,,,,,,,,,,,305.1330000119342,,response,,,100,,,,,,Space,keypress(Space),,,,,-- --- ---- --- ------ ----- ------- ---- -- --- ------- --<br>------- ---------- ------ -- ----- -- ----- -- ---- ------<br>--- ----- --- --- ------ -------- ----- --- market ----- --<br>----- ----- ---------- --- --- ------ ------ ---- -- ------<br>------- --- ------ ----- --- ---- ------- -- ---- --- --<br>------- ------,164405.60000002384,164404.80000001192,164082.997,164095.19999998808,164099.667,164417.906,,30,market
screen,html.Screen,0_2_1_1_31,2021-11-12T12:53:27.606Z,,,,,,,,,,,,,,,,54,,,,,,,,,,,,,,402.79399998809095,,response,,,100,,,,,,Space,keypress(Space),,,,,-- --- ---- --- ------ ----- ------- ---- -- --- ------- --<br>------- ---------- ------ -- ----- -- ----- -- ---- ------<br>--- ----- --- --- ------ -------- ----- --- ------ value --<br>----- ----- ---------- --- --- ------ ------ ---- -- ------<br>------- --- ------ ----- --- ---- ------- -- ---- --- --<br>------- ------,164821.60000002384,164820.69999998808,164401.233,164405.90000003576,164417.906,164834.596,,31,value
screen,html.Screen,0_2_1_1_32,2021-11-12T12:53:27.958Z,,,,,,,,,,,,,,,,54,,,,,,,,,,,,,,338.1039999880886,,response,,,100,,,,,,Space,keypress(Space),,,,,-- --- ---- --- ------ ----- ------- ---- -- --- ------- --<br>------- ---------- ------ -- ----- -- ----- -- ---- ------<br>--- ----- --- --- ------ -------- ----- --- ------ ----- of<br>----- ----- ---------- --- --- ------ ------ ---- -- ------<br>------- --- ------ ----- --- ---- ------- -- ---- --- --<br>------- ------,165173.60000002384,165172.69999998808,164817.926,164821.80000001192,164834.596,165184.913,,32,of
screen,html.Screen,0_2_1_1_33,2021-11-12T12:53:28.334Z,,,,,,,,,,,,,,,,54,,,,,,,,,,,,,,363.7869999880786,,response,,,100,,,,,,Space,keypress(Space),,,,,-- --- ---- --- ------ ----- ------- ---- -- --- ------- --<br>------- ---------- ------ -- ----- -- ----- -- ---- ------<br>--- ----- --- --- ------ -------- ----- --- ------ ----- --<br>these ----- ---------- --- --- ------ ------ ---- -- ------<br>------- --- ------ ----- --- ---- ------- -- ---- --- --<br>------- ------,165549.5,165548.69999998808,165168.238,165173.80000001192,165184.913,165551.494,,33,these
screen,html.Screen,0_2_1_1_34,2021-11-12T12:53:28.782Z,,,,,,,,,,,,,,,,54,,,,,,,,,,,,,,445.1060000238358,,response,,,100,,,,,,Space,keypress(Space),,,,,-- --- ---- --- ------ ----- ------- ---- -- --- ------- --<br>------- ---------- ------ -- ----- -- ----- -- ---- ------<br>--- ----- --- --- ------ -------- ----- --- ------ ----- --<br>----- bonds ---------- --- --- ------ ------ ---- -- ------<br>------- --- ------ ----- --- ---- ------- -- ---- --- --<br>------- ------,165997.40000003576,165996.60000002384,165534.824,165549.69999998808,165551.494,166001.648,,34,bonds
screen,html.Screen,0_2_1_1_35,2021-11-12T12:53:29.134Z,,,,,,,,,,,,,,,,54,,,,,,,,,,,,,,347.0519999880926,,response,,,100,,,,,,Space,keypress(Space),,,,,"-- --- ---- --- ------ ----- ------- ---- -- --- ------- --<br>------- ---------- ------ -- ----- -- ----- -- ---- ------<br>--- ----- --- --- ------ -------- ----- --- ------ ----- --<br>----- ----- plummeted, --- --- ------ ------ ---- -- ------<br>------- --- ------ ----- --- ---- ------- -- ---- --- --<br>------- ------",166349.5,166348.69999998808,165984.977,165997.69999998808,166001.648,166351.749,,35,"plummeted,"
screen,html.Screen,0_2_1_1_36,2021-11-12T12:53:29.678Z,,,,,,,,,,,,,,,,54,,,,,,,,,,,,,,540.8510000238311,,response,,,100,,,,,,Space,keypress(Space),,,,,-- --- ---- --- ------ ----- ------- ---- -- --- ------- --<br>------- ---------- ------ -- ----- -- ----- -- ---- ------<br>--- ----- --- --- ------ -------- ----- --- ------ ----- --<br>----- ----- ---------- and --- ------ ------ ---- -- ------<br>------- --- ------ ----- --- ---- ------- -- ---- --- --<br>------- ------,166893.5,166892.60000002384,166335.078,166349.69999998808,166351.749,166901.693,,36,and
screen,html.Screen,0_2_1_1_37,2021-11-12T12:53:30.318Z,,,,,,,,,,,,,,,,54,,,,,,,,,,,,,,631.0069999880798,,response,,,100,,,,,,Space,keypress(Space),,,,,-- --- ---- --- ------ ----- ------- ---- -- --- ------- --<br>------- ---------- ------ -- ----- -- ----- -- ---- ------<br>--- ----- --- --- ------ -------- ----- --- ------ ----- --<br>----- ----- ---------- --- the ------ ------ ---- -- ------<br>------- --- ------ ----- --- ---- ------- -- ---- --- --<br>------- ------,167533.5,167532.69999998808,166885.025,166893.69999998808,166901.693,167535.456,,37,the
screen,html.Screen,0_2_1_1_38,2021-11-12T12:53:30.670Z,,,,,,,,,,,,,,,,54,,,,,,,,,,,,,,349.0439999999944,,response,,,100,,,,,,Space,keypress(Space),,,,,-- --- ---- --- ------ ----- ------- ---- -- --- ------- --<br>------- ---------- ------ -- ----- -- ----- -- ---- ------<br>--- ----- --- --- ------ -------- ----- --- ------ ----- --<br>----- ----- ---------- --- --- market ------ ---- -- ------<br>------- --- ------ ----- --- ---- ------- -- ---- --- --<br>------- ------,167885.30000001192,167884.5,167518.784,167533.60000002384,167535.456,167902.105,,38,market
screen,html.Screen,0_2_1_1_39,2021-11-12T12:53:31.142Z,,,,,,,,,,,,,,,,54,,,,,,,,,,,,,,454.5949999880686,,response,,,100,,,,,,Space,keypress(Space),,,,,-- --- ---- --- ------ ----- ------- ---- -- --- ------- --<br>------- ---------- ------ -- ----- -- ----- -- ---- ------<br>--- ----- --- --- ------ -------- ----- --- ------ ----- --<br>----- ----- ---------- --- --- ------ became ---- -- ------<br>------- --- ------ ----- --- ---- ------- -- ---- --- --<br>------- ------,168357.60000002384,168356.69999998808,167885.435,167885.69999998808,167902.105,168368.892,,39,became
screen,html.Screen,0_2_1_1_40,2021-11-12T12:53:31.774Z,,,,,,,,,,,,,,,,54,,,,,,,,,,,,,,619.7080000238493,,response,,,100,,,,,,Space,keypress(Space),,,,,-- --- ---- --- ------ ----- ------- ---- -- --- ------- --<br>------- ---------- ------ -- ----- -- ----- -- ---- ------<br>--- ----- --- --- ------ -------- ----- --- ------ ----- --<br>----- ----- ---------- --- --- ------ ------ wary -- ------<br>------- --- ------ ----- --- ---- ------- -- ---- --- --<br>------- ------,168989.40000003576,168988.60000002384,168352.222,168357.90000003576,168368.892,169002.426,,40,wary
screen,html.Screen,0_2_1_1_41,2021-11-12T12:53:32.246Z,,,,,,,,,,,,,,,,54,,,,,,,,,,,,,,458.07399999999325,,response,,,100,,,,,,Space,keypress(Space),,,,,-- --- ---- --- ------ ----- ------- ---- -- --- ------- --<br>------- ---------- ------ -- ----- -- ----- -- ---- ------<br>--- ----- --- --- ------ -------- ----- --- ------ ----- --<br>----- ----- ---------- --- --- ------ ------ ---- of ------<br>------- --- ------ ----- --- ---- ------- -- ---- --- --<br>------- ------,169461.40000003576,169460.5,168985.755,168989.60000002384,169002.426,169469.166,,41,of
screen,html.Screen,0_2_1_1_42,2021-11-12T12:53:32.944Z,,,,,,,,,,,,,,,,54,,,,,,,,,,,,,,687.3340000000026,,response,,,100,,,,,,Space,keypress(Space),,,,,-- --- ---- --- ------ ----- ------- ---- -- --- ------- --<br>------- ---------- ------ -- ----- -- ----- -- ---- ------<br>--- ----- --- --- ------ -------- ----- --- ------ ----- --<br>----- ----- ---------- --- --- ------ ------ ---- -- French<br>------- --- ------ ----- --- ---- ------- -- ---- --- --<br>------- ------,170159.30000001192,170156.5,169452.496,169461.60000002384,169469.166,170169.314,,42,French
screen,html.Screen,0_2_1_1_43,2021-11-12T12:53:33.366Z,,,,,,,,,,,,,,,,54,,,,,,,,,,,,,,411.08600003574975,,response,,,100,,,,,,Space,keypress(Space),,,,,-- --- ---- --- ------ ----- ------- ---- -- --- ------- --<br>------- ---------- ------ -- ----- -- ----- -- ---- ------<br>--- ----- --- --- ------ -------- ----- --- ------ ----- --<br>----- ----- ---------- --- --- ------ ------ ---- -- ------<br>credit. --- ------ ----- --- ---- ------- -- ---- --- --<br>------- ------,170581.30000001192,170580.40000003576,170152.644,170159.60000002384,170169.314,170586.184,,43,credit.
screen,html.Screen,0_2_1_1_44,2021-11-12T12:53:34.006Z,,,,,,,,,,,,,,,,54,,,,,,,,,,,,,,634.2160000357544,,response,,,100,,,,,,Space,keypress(Space),,,,,-- --- ---- --- ------ ----- ------- ---- -- --- ------- --<br>------- ---------- ------ -- ----- -- ----- -- ---- ------<br>--- ----- --- --- ------ -------- ----- --- ------ ----- --<br>----- ----- ---------- --- --- ------ ------ ---- -- ------<br>------- The ------ ----- --- ---- ------- -- ---- --- --<br>------- ------,171221.30000001192,171220.40000003576,170569.513,170581.60000002384,170586.184,171236.172,,44,The
screen,html.Screen,0_2_1_1_45,2021-11-12T12:53:34.477Z,,,,,,,,,,,,,,,,54,,,,,,,,,,,,,,456.2280000357714,,response,,,100,,,,,,Space,keypress(Space),,,,,-- --- ---- --- ------ ----- ------- ---- -- --- ------- --<br>------- ---------- ------ -- ----- -- ----- -- ---- ------<br>--- ----- --- --- ------ -------- ----- --- ------ ----- --<br>----- ----- ---------- --- --- ------ ------ ---- -- ------<br>------- --- French ----- --- ---- ------- -- ---- --- --<br>------- ------,171693.19999998808,171692.40000003576,171219.503,171221.5,171236.172,171703.2,,45,French
screen,html.Screen,0_2_1_1_46,2021-11-12T12:53:35.141Z,,,,,,,,,,,,,,,,54,,,,,,,,,,,,,,653.2000000357511,,response,,,100,,,,,,Space,keypress(Space),,,,,-- --- ---- --- ------ ----- ------- ---- -- --- ------- --<br>------- ---------- ------ -- ----- -- ----- -- ---- ------<br>--- ----- --- --- ------ -------- ----- --- ------ ----- --<br>----- ----- ---------- --- --- ------ ------ ---- -- ------<br>------- --- ------ state --- ---- ------- -- ---- --- --<br>------- ------,172357.19999998808,172356.40000003576,171686.528,171693.5,171703.2,172369.792,,46,state
screen,html.Screen,0_2_1_1_47,2021-11-12T12:53:35.429Z,,,,,,,,,,,,,,,,54,,,,,,,,,,,,,,274.60800003577606,,response,,,100,,,,,,Space,keypress(Space),,,,,-- --- ---- --- ------ ----- ------- ---- -- --- ------- --<br>------- ---------- ------ -- ----- -- ----- -- ---- ------<br>--- ----- --- --- ------ -------- ----- --- ------ ----- --<br>----- ----- ---------- --- --- ------ ------ ---- -- ------<br>------- --- ------ ----- was ---- ------- -- ---- --- --<br>------- ------,172645.19999998808,172644.40000003576,172353.123,172357.40000003576,172369.792,172653.428,,47,was
screen,html.Screen,0_2_1_1_48,2021-11-12T12:53:35.717Z,,,,,,,,,,,,,,,,54,,,,,,,,,,,,,,278.97200003574835,,response,,,100,,,,,,Space,keypress(Space),,,,,-- --- ---- --- ------ ----- ------- ---- -- --- ------- --<br>------- ---------- ------ -- ----- -- ----- -- ---- ------<br>--- ----- --- --- ------ -------- ----- --- ------ ----- --<br>----- ----- ---------- --- --- ------ ------ ---- -- ------<br>------- --- ------ ----- --- left ------- -- ---- --- --<br>------- ------,172933.19999998808,172932.40000003576,172636.756,172645.5,172653.428,172936.735,,48,left
screen,html.Screen,0_2_1_1_49,2021-11-12T12:53:36.301Z,,,,,,,,,,,,,,,,54,,,,,,,,,,,,,,579.5650000119349,,response,,,100,,,,,,Space,keypress(Space),,,,,-- --- ---- --- ------ ----- ------- ---- -- --- ------- --<br>------- ---------- ------ -- ----- -- ----- -- ---- ------<br>--- ----- --- --- ------ -------- ----- --- ------ ----- --<br>----- ----- ---------- --- --- ------ ------ ---- -- ------<br>------- --- ------ ----- --- ---- without -- ---- --- --<br>------- ------,173517.10000002384,173516.30000001192,172920.065,172933.5,172936.735,173520.262,,49,without
screen,html.Screen,0_2_1_1_50,2021-11-12T12:53:36.662Z,,,,,,,,,,,,,,,,54,,,,,,,,,,,,,,355.9379999880912,,response,,,100,,,,,,Space,keypress(Space),,,,,-- --- ---- --- ------ ----- ------- ---- -- --- ------- --<br>------- ---------- ------ -- ----- -- ----- -- ---- ------<br>--- ----- --- --- ------ -------- ----- --- ------ ----- --<br>----- ----- ---------- --- --- ------ ------ ---- -- ------<br>------- --- ------ ----- --- ---- ------- an ---- --- --<br>------- ------,173877.19999998808,173876.19999998808,173503.591,173517.30000001192,173520.262,173886.963,,50,an
screen,html.Screen,0_2_1_1_51,2021-11-12T12:53:37.174Z,,,,,,,,,,,,,,,,54,,,,,,,,,,,,,,501.73699998809025,,response,,,100,,,,,,Space,keypress(Space),,,,,-- --- ---- --- ------ ----- ------- ---- -- --- ------- --<br>------- ---------- ------ -- ----- -- ----- -- ---- ------<br>--- ----- --- --- ------ -------- ----- --- ------ ----- --<br>----- ----- ---------- --- --- ------ ------ ---- -- ------<br>------- --- ------ ----- --- ---- ------- -- easy --- --<br>------- ------,174389.5,174388.69999998808,173870.293,173877.5,173886.963,174403.775,,51,easy
screen,html.Screen,0_2_1_1_52,2021-11-12T12:53:37.637Z,,,,,,,,,,,,,,,,54,,,,,,,,,,,,,,448.52500001192675,,response,,,100,,,,,,Space,keypress(Space),,,,,-- --- ---- --- ------ ----- ------- ---- -- --- ------- --<br>------- ---------- ------ -- ----- -- ----- -- ---- ------<br>--- ----- --- --- ------ -------- ----- --- ------ ----- --<br>----- ----- ---------- --- --- ------ ------ ---- -- ------<br>------- --- ------ ----- --- ---- ------- -- ---- way --<br>------- ------,174853.10000002384,174852.30000001192,174387.105,174389.80000001192,174403.775,174870.565,,52,way
screen,html.Screen,0_2_1_1_53,2021-11-12T12:53:38.173Z,,,,,,,,,,,,,,,,54,,,,,,,,,,,,,,517.5350000238395,,response,,,100,,,,,,Space,keypress(Space),,,,,-- --- ---- --- ------ ----- ------- ---- -- --- ------- --<br>------- ---------- ------ -- ----- -- ----- -- ---- ------<br>--- ----- --- --- ------ -------- ----- --- ------ ----- --<br>----- ----- ---------- --- --- ------ ------ ---- -- ------<br>------- --- ------ ----- --- ---- ------- -- ---- --- of<br>------- ------,175389,175388.10000002384,174853.895,174853.30000001192,174870.565,175404.029,,53,of
screen,html.Screen,0_2_1_1_54,2021-11-12T12:53:38.613Z,,,,,,,,,,,,,,,,54,,,,,,,,,,,,,,424.1709999880695,,response,,,100,,,,,,Space,keypress(Space),,,,,-- --- ---- --- ------ ----- ------- ---- -- --- ------- --<br>------- ---------- ------ -- ----- -- ----- -- ---- ------<br>--- ----- --- --- ------ -------- ----- --- ------ ----- --<br>----- ----- ---------- --- --- ------ ------ ---- -- ------<br>------- --- ------ ----- --- ---- ------- -- ---- --- --<br>raising ------,175829,175828.19999998808,175387.359,175389.30000001192,175404.029,175837.484,,54,raising
screen,html.Screen,0_2_1_1_55,2021-11-12T12:53:39.357Z,,,,,,,,,,,,,,,,54,,,,,,,,,,,,,,734.6160000238451,,response,,,100,,,,,,Space,keypress(Space),,,,,-- --- ---- --- ------ ----- ------- ---- -- --- ------- --<br>------- ---------- ------ -- ----- -- ----- -- ---- ------<br>--- ----- --- --- ------ -------- ----- --- ------ ----- --<br>----- ----- ---------- --- --- ------ ------ ---- -- ------<br>------- --- ------ ----- --- ---- ------- -- ---- --- --<br>------- money.,176572.90000003576,176572.10000002384,175820.814,175829.30000001192,175837.484,176587.656,,55,money.
Item 100,flow.Loop,0_2_1_1,2021-11-12T12:53:39.358Z,,,,,,,,,,,,,,,,,,,,,,,,,,,,,,68502.15300002384,,completion,,,,E,,,,,,,,,,silence,,176573.60000002384,176572.10000002384,108053.277,108054.69999998808,108069.947,176587.656,,,
Question 1,html.Screen,0_2_1_2,2021-11-12T12:53:49.353Z,,,,,,,,,,,,,,,,,,,,,,,,,,,true,TRUE,,9977.244000035775,,response,,,100,E,,,,,TRUE,click #choice-1,,,,silence,,186566.30000001192,186564.90000003576,176570.986,176573.80000001192,176587.656,186590.803,,,
Question 2,html.Screen,0_2_1_3,2021-11-12T12:53:55.142Z,,,,,,,,,,,,,,,,,,,,,,,,,,,true,FALSE,,5762.396999988065,,response,,,100,E,,,,,FALSE,click #choice-2,,,,silence,,192354.5,192353.19999998808,186557.443,186566.69999998808,186590.803,192356.936,,,
Item 100,flow.Sequence,0_2_1,2021-11-12T12:53:55.142Z,,,,,,,,,,,,,,,,,,,,,,,,,,,,,,94285.72899998807,,completion,,,,,,,,,,,,,,,,192354.90000003576,192353.19999998808,98050.801,98052.80000001192,98067.471,192356.936,,,
End of Practice,html.Page,0_2_2,2021-11-12T12:53:57.144Z,,,,,,,,,,,,,,,,,,,,,,,,,,,,,,1998.9640000357758,,form submission,,,,,,,,,,,,,,,,194356.5,194355.90000003576,192340.301,192355.10000002384,192356.936,194359.019,,,
Practice,flow.Sequence,0_2,2021-11-12T12:53:57.144Z,,,,,,,,,,,,,,,,,,,,,,,,,,,,,,176242.17600003578,,completion,,,,,,,,,,,,,,,,194356.90000003576,194355.90000003576,18097.052,18101.900000035763,18113.724,194359.019,,,
Trap_instruction,html.Page,0_3_0,2021-11-12T12:53:58.563Z,,,,,,,,,,,,,,,,,,,,,,,,,,,,,,1415.8810000357626,,form submission,,,,,,,,,,,,,,,,195775.40000003576,195774.90000003576,194342.347,194357.19999998808,194359.019,195792.567,,,
trap_trial,html.Screen,0_3_1,2021-11-12T12:54:05.108Z,,,,,,,,,,,,,,,,,,,,,,,,,,,true,1,,6527.533000023832,,response,,,,,,,,,1,click #choice-1,,,,,,202321.30000001192,202320.10000002384,195759.227,195775.69999998808,195792.567,202325.67,,,
end of trap trial,html.Page,0_3_2,2021-11-12T12:54:08.294Z,,,,,,,,,,,,,,,,,,,,,,,,,,,,,,3180.430000023829,,form submission,,,,,,,,,,,,,,,,205506.60000002384,205506.10000002384,202309.004,202321.69999998808,202325.67,205512.189,,,
Trap 1,flow.Sequence,0_3,2021-11-12T12:54:08.294Z,,,,,,,,,,,,,,,,,,,,,,,,,,,,,,11147.081000023842,,completion,,,,,,,,,,,,,,,,205507.19999998808,205506.10000002384,194342.347,194357.19999998808,194359.019,205512.189,,,
Standby,html.Page,0_4_0,2021-11-12T12:54:16.286Z,,,,,,,,,,,,,,,,,,,,,,,,,,,,,,8001.170999999973,,timeout,,,,,,,,,,,,,,,,213498.80000001192,213496.69,205495.503,205507.5,205512.189,213513.36,,,
Holding screen,html.Screen,0_4_1_0_0,2021-11-12T12:54:23.287Z,,,,,,,,,,,,,,,,,,,,,,,,,,,,,,7002.1750000000175,,timeout,,,,,,,,,,,,,,,,220500.40000003576,220498.865,213496.69,213499.19999998808,213513.36,220515.535,,,
screen,html.Screen,0_4_1_0_1_0,2021-11-12T12:54:28.086Z,,,,,,,,,,,,,,,,2,,,,,,,,,,,,,,4782.365000035759,,response,,,1,E,,,,,Space,keypress(Space),,,,lyrical,Two ---- ------ --- ------- ---------- ------- ----------<br>--- --------- --- ----------- ------- ----- ------- ---<br>--------- ---- -- --- ---- -- --------- -- ---- -------<br>-- --------- ------ --- ----- ------ ---- --- --------- --<br>------ - ---- -- --- ----------- ------- ---- ----- -----<br>--- -------- - ------ ---- -- ----- ---- --- --- -----------<br>-- -------,225298.90000003576,225297.90000003576,220498.865,220500.80000001192,220515.535,225299.879,,0,Two
screen,html.Screen,0_4_1_0_1_1,2021-11-12T12:54:28.605Z,,,,,,,,,,,,,,,,2,,,,,,,,,,,,,,517.4210000119347,,response,,,1,E,,,,,Space,keypress(Space),,,,lyrical,--- days ------ --- ------- ---------- ------- ----------<br>--- --------- --- ----------- ------- ----- ------- ---<br>--------- ---- -- --- ---- -- --------- -- ---- -------<br>-- --------- ------ --- ----- ------ ---- --- --------- --<br>------ - ---- -- --- ----------- ------- ---- ----- -----<br>--- -------- - ------ ---- -- ----- ---- --- --- -----------<br>-- -------,225818.19999998808,225817.30000001192,225283.209,225299.30000001192,225299.879,225833.703,,1,days
screen,html.Screen,0_4_1_0_1_2,2021-11-12T12:54:29.085Z,,,,,,,,,,,,,,,,2,,,,,,,,,,,,,,463.5970000119123,,response,,,1,E,,,,,Space,keypress(Space),,,,lyrical,"--- ---- later, --- ------- ---------- ------- ----------<br>--- --------- --- ----------- ------- ----- ------- ---<br>--------- ---- -- --- ---- -- --------- -- ---- -------<br>-- --------- ------ --- ----- ------ ---- --- --------- --<br>------ - ---- -- --- ----------- ------- ---- ----- -----<br>--- -------- - ------ ---- -- ----- ---- --- --- -----------<br>-- -------",226298.10000002384,226297.30000001192,225817.032,225818.40000003576,225833.703,226300.401,,2,"later,"
screen,html.Screen,0_4_1_0_1_3,2021-11-12T12:54:29.509Z,,,,,,,,,,,,,,,,2,,,,,,,,,,,,,,420.9990000357502,,response,,,1,E,,,,,Space,keypress(Space),,,,lyrical,--- ---- ------ the ------- ---------- ------- ----------<br>--- --------- --- ----------- ------- ----- ------- ---<br>--------- ---- -- --- ---- -- --------- -- ---- -------<br>-- --------- ------ --- ----- ------ ---- --- --------- --<br>------ - ---- -- --- ----------- ------- ---- ----- -----<br>--- -------- - ------ ---- -- ----- ---- --- --- -----------<br>-- -------,226722.19999998808,226721.40000003576,226283.731,226298.40000003576,226300.401,226734.004,,3,the
screen,html.Screen,0_4_1_0_1_4,2021-11-12T12:54:30.837Z,,,,,,,,,,,,,,,,2,,,,,,,,,,,,,,1315.2960000119347,,response,,,1,E,,,,,Space,keypress(Space),,,,lyrical,--- ---- ------ --- British ---------- ------- ----------<br>--- --------- --- ----------- ------- ----- ------- ---<br>--------- ---- -- --- ---- -- --------- -- ---- -------<br>-- --------- ------ --- ----- ------ ---- --- --------- --<br>------ - ---- -- --- ----------- ------- ---- ----- -----<br>--- -------- - ------ ---- -- ----- ---- --- --- -----------<br>-- -------,228050.10000002384,228049.30000001192,226717.332,226722.40000003576,226734.004,228067.533,,4,British
screen,html.Screen,0_4_1_0_1_5,2021-11-12T12:54:31.645Z,,,,,,,,,,,,,,,,2,,,,,,,,,,,,,,789.567000023846,,response,,,1,E,,,,,Space,keypress(Space),,,,lyrical,--- ---- ------ --- ------- astronomer ------- ----------<br>--- --------- --- ----------- ------- ----- ------- ---<br>--------- ---- -- --- ---- -- --------- -- ---- -------<br>-- --------- ------ --- ----- ------ ---- --- --------- --<br>------ - ---- -- --- ----------- ------- ---- ----- -----<br>--- -------- - ------ ---- -- ----- ---- --- --- -----------<br>-- -------,228858,228857.10000002384,228050.863,228050.30000001192,228067.533,228867.762,,5,astronomer
screen,html.Screen,0_4_1_0_1_6,2021-11-12T12:54:32.645Z,,,,,,,,,,,,,,,,2,,,,,,,,,,,,,,989.338000023854,,response,,,1,E,,,,,Space,keypress(Space),,,,lyrical,--- ---- ------ --- ------- ---------- Richard ----------<br>--- --------- --- ----------- ------- ----- ------- ---<br>--------- ---- -- --- ---- -- --------- -- ---- -------<br>-- --------- ------ --- ----- ------ ---- --- --------- --<br>------ - ---- -- --- ----------- ------- ---- ----- -----<br>--- -------- - ------ ---- -- ----- ---- --- --- -----------<br>-- -------,229858,229857.10000002384,228851.092,228858.19999998808,228867.762,229868.012,,6,Richard
screen,html.Screen,0_4_1_0_1_7,2021-11-12T12:54:33.301Z,,,,,,,,,,,,,,,,2,,,,,,,,,,,,,,645.1879999880912,,response,,,1,E,,,,,Space,keypress(Space),,,,lyrical,--- ---- ------ --- ------- ---------- ------- Carrington<br>--- --------- --- ----------- ------- ----- ------- ---<br>--------- ---- -- --- ---- -- --------- -- ---- -------<br>-- --------- ------ --- ----- ------ ---- --- --------- --<br>------ - ---- -- --- ----------- ------- ---- ----- -----<br>--- -------- - ------ ---- -- ----- ---- --- --- -----------<br>-- -------,230514,230513.19999998808,229851.342,229858.19999998808,229868.012,230518.196,,7,Carrington
screen,html.Screen,0_4_1_0_1_8,2021-11-12T12:54:33.925Z,,,,,,,,,,,,,,,,2,,,,,,,,,,,,,,618.9040000238456,,response,,,1,E,,,,,Space,keypress(Space),,,,lyrical,--- ---- ------ --- ------- ---------- ------- ----------<br>was --------- --- ----------- ------- ----- ------- ---<br>--------- ---- -- --- ---- -- --------- -- ---- -------<br>-- --------- ------ --- ----- ------ ---- --- --------- --<br>------ - ---- -- --- ----------- ------- ---- ----- -----<br>--- -------- - ------ ---- -- ----- ---- --- --- -----------<br>-- -------,231137.90000003576,231137.10000002384,230501.526,230514.19999998808,230518.196,231151.697,,8,was
screen,html.Screen,0_4_1_0_1_9,2021-11-12T12:54:34.429Z,,,,,,,,,,,,,,,,2,,,,,,,,,,,,,,489.4030000238563,,response,,,1,E,,,,,Space,keypress(Space),,,,lyrical,--- ---- ------ --- ------- ---------- ------- ----------<br>--- observing --- ----------- ------- ----- ------- ---<br>--------- ---- -- --- ---- -- --------- -- ---- -------<br>-- --------- ------ --- ----- ------ ---- --- --------- --<br>------ - ---- -- --- ----------- ------- ---- ----- -----<br>--- -------- - ------ ---- -- ----- ---- --- --- -----------<br>-- -------,231641.90000003576,231641.10000002384,231135.027,231138.19999998808,231151.697,231651.884,,9,observing
screen,html.Screen,0_4_1_0_1_10,2021-11-12T12:54:35.013Z,,,,,,,,,,,,,,,,2,,,,,,,,,,,,,,573.2160000238509,,response,,,1,E,,,,,Space,keypress(Space),,,,lyrical,--- ---- ------ --- ------- ---------- ------- ----------<br>--- --------- the ----------- ------- ----- ------- ---<br>--------- ---- -- --- ---- -- --------- -- ---- -------<br>-- --------- ------ --- ----- ------ ---- --- --------- --<br>------ - ---- -- --- ----------- ------- ---- ----- -----<br>--- -------- - ------ ---- -- ----- ---- --- --- -----------<br>-- -------,232226,232225.10000002384,231635.213,231642.10000002384,231651.884,232235.31,,10,the
screen,html.Screen,0_4_1_0_1_11,2021-11-12T12:54:35.493Z,,,,,,,,,,,,,,,,2,,,,,,,,,,,,,,469.7900000238442,,response,,,1,E,,,,,Space,keypress(Space),,,,lyrical,--- ---- ------ --- ------- ---------- ------- ----------<br>--- --------- --- interesting ------- ----- ------- ---<br>--------- ---- -- --- ---- -- --------- -- ---- -------<br>-- --------- ------ --- ----- ------ ---- --- --------- --<br>------ - ---- -- --- ----------- ------- ---- ----- -----<br>--- -------- - ------ ---- -- ----- ---- --- --- -----------<br>-- -------,232705.90000003576,232705.10000002384,232218.64,232226.19999998808,232235.31,232718.787,,11,interesting
screen,html.Screen,0_4_1_0_1_12,2021-11-12T12:54:36.005Z,,,,,,,,,,,,,,,,2,,,,,,,,,,,,,,498.1130000357516,,response,,,1,E,,,,,Space,keypress(Space),,,,lyrical,--- ---- ------ --- ------- ---------- ------- ----------<br>--- --------- --- ----------- sunspot ----- ------- ---<br>--------- ---- -- --- ---- -- --------- -- ---- -------<br>-- --------- ------ --- ----- ------ ---- --- --------- --<br>------ - ---- -- --- ----------- ------- ---- ----- -----<br>--- -------- - ------ ---- -- ----- ---- --- --- -----------<br>-- -------,233217.69999998808,233216.90000003576,232702.117,232706.10000002384,232718.787,233218.921,,12,sunspot
screen,html.Screen,0_4_1_0_1_13,2021-11-12T12:54:38.061Z,,,,,,,,,,,,,,,,2,,,,,,,,,,,,,,2053.9790000357607,,response,,,1,E,,,,,Space,keypress(Space),,,,lyrical,--- ---- ------ --- ------- ---------- ------- ----------<br>--- --------- --- ----------- ------- group ------- ---<br>--------- ---- -- --- ---- -- --------- -- ---- -------<br>-- --------- ------ --- ----- ------ ---- --- --------- --<br>------ - ---- -- --- ----------- ------- ---- ----- -----<br>--- -------- - ------ ---- -- ----- ---- --- --- -----------<br>-- -------,235273.60000002384,235272.90000003576,233202.251,233218,233218.921,235285.665,,13,group
screen,html.Screen,0_4_1_0_1_14,2021-11-12T12:54:38.925Z,,,,,,,,,,,,,,,,2,,,,,,,,,,,,,,851.6350000119128,,response,,,1,E,,,,,Space,keypress(Space),,,,lyrical,--- ---- ------ --- ------- ---------- ------- ----------<br>--- --------- --- ----------- ------- ----- through ---<br>--------- ---- -- --- ---- -- --------- -- ---- -------<br>-- --------- ------ --- ----- ------ ---- --- --------- --<br>------ - ---- -- --- ----------- ------- ---- ----- -----<br>--- -------- - ------ ---- -- ----- ---- --- --- -----------<br>-- -------,236138.19999998808,236137.30000001192,235268.997,235273.90000003576,235285.665,236153.118,,14,through
screen,html.Screen,0_4_1_0_1_15,2021-11-12T12:54:39.717Z,,,,,,,,,,,,,,,,2,,,,,,,,,,,,,,775.6820000119333,,response,,,1,E,,,,,Space,keypress(Space),,,,lyrical,--- ---- ------ --- ------- ---------- ------- ----------<br>--- --------- --- ----------- ------- ----- ------- his<br>--------- ---- -- --- ---- -- --------- -- ---- -------<br>-- --------- ------ --- ----- ------ ---- --- --------- --<br>------ - ---- -- --- ----------- ------- ---- ----- -----<br>--- -------- - ------ ---- -- ----- ---- --- --- -----------<br>-- -------,236929.69999998808,236928.80000001192,236136.446,236138.40000003576,236153.118,236936.461,,15,his
screen,html.Screen,0_4_1_0_1_16,2021-11-12T12:54:44.700Z,,,,,,,,,,,,,,,,2,,,,,,,,,,,,,,4976.139000023832,,response,,,1,E,,,,,Space,keypress(Space),,,,lyrical,--- ---- ------ --- ------- ---------- ------- ----------<br>--- --------- --- ----------- ------- ----- ------- ---<br>telescope ---- -- --- ---- -- --------- -- ---- -------<br>-- --------- ------ --- ----- ------ ---- --- --------- --<br>------ - ---- -- --- ----------- ------- ---- ----- -----<br>--- -------- - ------ ---- -- ----- ---- --- --- -----------<br>-- -------,241913.40000003576,241912.60000002384,236919.791,236929.90000003576,236936.461,241921.234,,16,telescope
screen,html.Screen,0_4_1_0_1_17,2021-11-12T12:54:45.215Z,,,,,,,,,,,,,,,,2,,,,,,,,,,,,,,503.26600000000326,,response,,,1,E,,,,,Space,keypress(Space),,,,lyrical,--- ---- ------ --- ------- ---------- ------- ----------<br>--- --------- --- ----------- ------- ----- ------- ---<br>--------- when -- --- ---- -- --------- -- ---- -------<br>-- --------- ------ --- ----- ------ ---- --- --------- --<br>------ - ---- -- --- ----------- ------- ---- ----- -----<br>--- -------- - ------ ---- -- ----- ---- --- --- -----------<br>-- -------,242425.30000001192,242424.5,241904.563,241913.60000002384,241921.234,242437.832,,17,when
screen,html.Screen,0_4_1_0_1_18,2021-11-12T12:54:45.631Z,,,,,,,,,,,,,,,,2,,,,,,,,,,,,,,402.6680000000051,,response,,,1,E,,,,,Space,keypress(Space),,,,lyrical,--- ---- ------ --- ------- ---------- ------- ----------<br>--- --------- --- ----------- ------- ----- ------- ---<br>--------- ---- he --- ---- -- --------- -- ---- -------<br>-- --------- ------ --- ----- ------ ---- --- --------- --<br>------ - ---- -- --- ----------- ------- ---- ----- -----<br>--- -------- - ------ ---- -- ----- ---- --- --- -----------<br>-- -------,242841.40000003576,242840.5,242421.162,242425.69999998808,242437.832,242854.663,,18,he
screen,html.Screen,0_4_1_0_1_19,2021-11-12T12:54:46.095Z,,,,,,,,,,,,,,,,2,,,,,,,,,,,,,,449.83699999999953,,response,,,1,E,,,,,Space,keypress(Space),,,,lyrical,--- ---- ------ --- ------- ---------- ------- ----------<br>--- --------- --- ----------- ------- ----- ------- ---<br>--------- ---- -- saw ---- -- --------- -- ---- -------<br>-- --------- ------ --- ----- ------ ---- --- --------- --<br>------ - ---- -- --- ----------- ------- ---- ----- -----<br>--- -------- - ------ ---- -- ----- ---- --- --- -----------<br>-- -------,243305.5,243304.5,242837.993,242841.80000001192,242854.663,243321.501,,19,saw
screen,html.Screen,0_4_1_0_1_20,2021-11-12T12:54:46.639Z,,,,,,,,,,,,,,,,2,,,,,,,,,,,,,,526.8990000357735,,response,,,1,E,,,,,Space,keypress(Space),,,,lyrical,--- ---- ------ --- ------- ---------- ------- ----------<br>--- --------- --- ----------- ------- ----- ------- ---<br>--------- ---- -- --- what -- --------- -- ---- -------<br>-- --------- ------ --- ----- ------ ---- --- --------- --<br>------ - ---- -- --- ----------- ------- ---- ----- -----<br>--- -------- - ------ ---- -- ----- ---- --- --- -----------<br>-- -------,243849.30000001192,243848.40000003576,243304.83,243305.80000001192,243321.501,243854.922,,20,what
screen,html.Screen,0_4_1_0_1_21,2021-11-12T12:54:47.199Z,,,,,,,,,,,,,,,,2,,,,,,,,,,,,,,553.4780000357714,,response,,,1,E,,,,,Space,keypress(Space),,,,lyrical,--- ---- ------ --- ------- ---------- ------- ----------<br>--- --------- --- ----------- ------- ----- ------- ---<br>--------- ---- -- --- ---- he --------- -- ---- -------<br>-- --------- ------ --- ----- ------ ---- --- --------- --<br>------ - ---- -- --- ----------- ------- ---- ----- -----<br>--- -------- - ------ ---- -- ----- ---- --- --- -----------<br>-- -------,244409.30000001192,244408.40000003576,243838.252,243849.60000002384,243854.922,244421.743,,21,he
screen,html.Screen,0_4_1_0_1_22,2021-11-12T12:54:47.799Z,,,,,,,,,,,,,,,,2,,,,,,,,,,,,,,586.6570000357751,,response,,,1,E,,,,,Space,keypress(Space),,,,lyrical,--- ---- ------ --- ------- ---------- ------- ----------<br>--- --------- --- ----------- ------- ----- ------- ---<br>--------- ---- -- --- ---- -- described -- ---- -------<br>-- --------- ------ --- ----- ------ ---- --- --------- --<br>------ - ---- -- --- ----------- ------- ---- ----- -----<br>--- -------- - ------ ---- -- ----- ---- --- --- -----------<br>-- -------,245009.19999998808,245008.40000003576,244405.073,244409.60000002384,244421.743,245022.041,,22,described
screen,html.Screen,0_4_1_0_1_23,2021-11-12T12:54:48.543Z,,,,,,,,,,,,,,,,2,,,,,,,,,,,,,,730.2590000119235,,response,,,1,E,,,,,Space,keypress(Space),,,,lyrical,--- ---- ------ --- ------- ---------- ------- ----------<br>--- --------- --- ----------- ------- ----- ------- ---<br>--------- ---- -- --- ---- -- --------- as ---- -------<br>-- --------- ------ --- ----- ------ ---- --- --------- --<br>------ - ---- -- --- ----------- ------- ---- ----- -----<br>--- -------- - ------ ---- -- ----- ---- --- --- -----------<br>-- -------,245753.19999998808,245752.30000001192,245005.369,245009.60000002384,245022.041,245755.449,,23,as
screen,html.Screen,0_4_1_0_1_24,2021-11-12T12:54:48.976Z,,,,,,,,,,,,,,,,2,,,,,,,,,,,,,,429.3510000119277,,response,,,1,E,,,,,Space,keypress(Space),,,,lyrical,"--- ---- ------ --- ------- ---------- ------- ----------<br>--- --------- --- ----------- ------- ----- ------- ---<br>--------- ---- -- --- ---- -- --------- -- ""two -------<br>-- --------- ------ --- ----- ------ ---- --- --------- --<br>------ - ---- -- --- ----------- ------- ---- ----- -----<br>--- -------- - ------ ---- -- ----- ---- --- --- -----------<br>-- -------",246185.69999998808,246184.80000001192,245738.779,245753.5,245755.449,246188.914,,24,"""two"
screen,html.Screen,0_4_1_0_1_25,2021-11-12T12:54:49.647Z,,,,,,,,,,,,,,,,2,,,,,,,,,,,,,,667.2859999880893,,response,,,1,E,,,,,Space,keypress(Space),,,,lyrical,--- ---- ------ --- ------- ---------- ------- ----------<br>--- --------- --- ----------- ------- ----- ------- ---<br>--------- ---- -- --- ---- -- --------- -- ---- patches<br>-- --------- ------ --- ----- ------ ---- --- --------- --<br>------ - ---- -- --- ----------- ------- ---- ----- -----<br>--- -------- - ------ ---- -- ----- ---- --- --- -----------<br>-- -------,246857.19999998808,246856.19999998808,246172.244,246186.10000002384,246188.914,246872.409,,25,patches
screen,html.Screen,0_4_1_0_1_26,2021-11-12T12:54:50.151Z,,,,,,,,,,,,,,,,2,,,,,,,,,,,,,,487.8910000119067,,response,,,1,E,,,,,Space,keypress(Space),,,,lyrical,--- ---- ------ --- ------- ---------- ------- ----------<br>--- --------- --- ----------- ------- ----- ------- ---<br>--------- ---- -- --- ---- -- --------- -- ---- -------<br>of --------- ------ --- ----- ------ ---- --- --------- --<br>------ - ---- -- --- ----------- ------- ---- ----- -----<br>--- -------- - ------ ---- -- ----- ---- --- --- -----------<br>-- -------,247361.10000002384,247360.30000001192,246855.739,246857.5,246872.409,247372.549,,26,of
screen,html.Screen,0_4_1_0_1_27,2021-11-12T12:54:50.655Z,,,,,,,,,,,,,,,,2,,,,,,,,,,,,,,491.75100001192186,,response,,,1,E,,,,,Space,keypress(Space),,,,lyrical,--- ---- ------ --- ------- ---------- ------- ----------<br>--- --------- --- ----------- ------- ----- ------- ---<br>--------- ---- -- --- ---- -- --------- -- ---- -------<br>-- intensely ------ --- ----- ------ ---- --- --------- --<br>------ - ---- -- --- ----------- ------- ---- ----- -----<br>--- -------- - ------ ---- -- ----- ---- --- --- -----------<br>-- -------,247865.10000002384,247864.30000001192,247355.879,247361.40000003576,247372.549,247872.645,,27,intensely
screen,html.Screen,0_4_1_0_1_28,2021-11-12T12:54:51.215Z,,,,,,,,,,,,,,,,2,,,,,,,,,,,,,,551.5549999880895,,response,,,1,E,,,,,Space,keypress(Space),,,,lyrical,--- ---- ------ --- ------- ---------- ------- ----------<br>--- --------- --- ----------- ------- ----- ------- ---<br>--------- ---- -- --- ---- -- --------- -- ---- -------<br>-- --------- bright --- ----- ------ ---- --- --------- --<br>------ - ---- -- --- ----------- ------- ---- ----- -----<br>--- -------- - ------ ---- -- ----- ---- --- --- -----------<br>-- -------,248425,248424.19999998808,247855.975,247865.40000003576,247872.645,248439.537,,28,bright
screen,html.Screen,0_4_1_0_1_29,2021-11-12T12:54:51.847Z,,,,,,,,,,,,,,,,2,,,,,,,,,,,,,,616.4629999999888,,response,,,1,E,,,,,Space,keypress(Space),,,,lyrical,--- ---- ------ --- ------- ---------- ------- ----------<br>--- --------- --- ----------- ------- ----- ------- ---<br>--------- ---- -- --- ---- -- --------- -- ---- -------<br>-- --------- ------ and ----- ------ ---- --- --------- --<br>------ - ---- -- --- ----------- ------- ---- ----- -----<br>--- -------- - ------ ---- -- ----- ---- --- --- -----------<br>-- -------,249057,249056,248422.866,248425.30000001192,248439.537,249072.849,,29,and
screen,html.Screen,0_4_1_0_1_30,2021-11-12T12:54:52.631Z,,,,,,,,,,,,,,,,2,,,,,,,,,,,,,,767.2510000238544,,response,,,1,E,,,,,Space,keypress(Space),,,,lyrical,--- ---- ------ --- ------- ---------- ------- ----------<br>--- --------- --- ----------- ------- ----- ------- ---<br>--------- ---- -- --- ---- -- --------- -- ---- -------<br>-- --------- ------ --- white ------ ---- --- --------- --<br>------ - ---- -- --- ----------- ------- ---- ----- -----<br>--- -------- - ------ ---- -- ----- ---- --- --- -----------<br>-- -------,249841,249840.10000002384,249056.18,249057.30000001192,249072.849,249856.46,,30,white
screen,html.Screen,0_4_1_0_1_31,2021-11-12T12:54:53.175Z,,,,,,,,,,,,,,,,2,,,,,,,,,,,,,,527.64000002385,,response,,,1,E,,,,,Space,keypress(Space),,,,lyrical,"--- ---- ------ --- ------- ---------- ------- ----------<br>--- --------- --- ----------- ------- ----- ------- ---<br>--------- ---- -- --- ---- -- --------- -- ---- -------<br>-- --------- ------ --- ----- light"" ---- --- --------- --<br>------ - ---- -- --- ----------- ------- ---- ----- -----<br>--- -------- - ------ ---- -- ----- ---- --- --- -----------<br>-- -------",250384.90000003576,250384.10000002384,249839.79,249841.40000003576,249856.46,250390.113,,31,"light"""
screen,html.Screen,0_4_1_0_1_32,2021-11-12T12:54:54.111Z,,,,,,,,,,,,,,,,2,,,,,,,,,,,,,,929.8869999999879,,response,,,1,E,,,,,Space,keypress(Space),,,,lyrical,--- ---- ------ --- ------- ---------- ------- ----------<br>--- --------- --- ----------- ------- ----- ------- ---<br>--------- ---- -- --- ---- -- --------- -- ---- -------<br>-- --------- ------ --- ----- ------ over --- --------- --<br>------ - ---- -- --- ----------- ------- ---- ----- -----<br>--- -------- - ------ ---- -- ----- ---- --- --- -----------<br>-- -------,251320.80000001192,251320,250373.441,250385.30000001192,250390.113,251323.405,,32,over
screen,html.Screen,0_4_1_0_1_33,2021-11-12T12:54:54.648Z,,,,,,,,,,,,,,,,2,,,,,,,,,,,,,,532.495000035764,,response,,,1,E,,,,,Space,keypress(Space),,,,lyrical,--- ---- ------ --- ------- ---------- ------- ----------<br>--- --------- --- ----------- ------- ----- ------- ---<br>--------- ---- -- --- ---- -- --------- -- ---- -------<br>-- --------- ------ --- ----- ------ ---- the --------- --<br>------ - ---- -- --- ----------- ------- ---- ----- -----<br>--- -------- - ------ ---- -- ----- ---- --- --- -----------<br>-- -------,251858.40000003576,251855.90000003576,251306.736,251321.19999998808,251323.405,251873.837,,33,the
screen,html.Screen,0_4_1_0_1_34,2021-11-12T12:54:55.343Z,,,,,,,,,,,,,,,,2,,,,,,,,,,,,,,678.1630000000005,,response,,,1,E,,,,,Space,keypress(Space),,,,lyrical,--- ---- ------ --- ------- ---------- ------- ----------<br>--- --------- --- ----------- ------- ----- ------- ---<br>--------- ---- -- --- ---- -- --------- -- ---- -------<br>-- --------- ------ --- ----- ------ ---- --- sunspots. --<br>------ - ---- -- --- ----------- ------- ---- ----- -----<br>--- -------- - ------ ---- -- ----- ---- --- --- -----------<br>-- -------,252552.80000001192,252552,251857.165,251858.69999998808,251873.837,252557.167,,34,sunspots.
screen,html.Screen,0_4_1_0_1_35,2021-11-12T12:54:56.287Z,,,,,,,,,,,,,,,,2,,,,,,,,,,,,,,938.6330000119342,,response,,,1,E,,,,,Space,keypress(Space),,,,lyrical,--- ---- ------ --- ------- ---------- ------- ----------<br>--- --------- --- ----------- ------- ----- ------- ---<br>--------- ---- -- --- ---- -- --------- -- ---- -------<br>-- --------- ------ --- ----- ------ ---- --- --------- He<br>------ - ---- -- --- ----------- ------- ---- ----- -----<br>--- -------- - ------ ---- -- ----- ---- --- --- -----------<br>-- -------,253496.69999998808,253495.80000001192,252540.497,252553,252557.167,253507.534,,35,He
screen,html.Screen,0_4_1_0_1_36,2021-11-12T12:54:56.783Z,,,,,,,,,,,,,,,,2,,,,,,,,,,,,,,484.2660000119067,,response,,,1,E,,,,,Space,keypress(Space),,,,lyrical,--- ---- ------ --- ------- ---------- ------- ----------<br>--- --------- --- ----------- ------- ----- ------- ---<br>--------- ---- -- --- ---- -- --------- -- ---- -------<br>-- --------- ------ --- ----- ------ ---- --- --------- --<br>jotted - ---- -- --- ----------- ------- ---- ----- -----<br>--- -------- - ------ ---- -- ----- ---- --- --- -----------<br>-- -------,253992.60000002384,253991.80000001192,253490.863,253496.90000003576,253507.534,254007.572,,36,jotted
screen,html.Screen,0_4_1_0_1_37,2021-11-12T12:54:57.271Z,,,,,,,,,,,,,,,,2,,,,,,,,,,,,,,472.3280000357772,,response,,,1,E,,,,,Space,keypress(Space),,,,lyrical,--- ---- ------ --- ------- ---------- ------- ----------<br>--- --------- --- ----------- ------- ----- ------- ---<br>--------- ---- -- --- ---- -- --------- -- ---- -------<br>-- --------- ------ --- ----- ------ ---- --- --------- --<br>------ a ---- -- --- ----------- ------- ---- ----- -----<br>--- -------- - ------ ---- -- ----- ---- --- --- -----------<br>-- -------,254480.60000002384,254479.90000003576,253990.902,253992.90000003576,254007.572,254490.95,,37,a
screen,html.Screen,0_4_1_0_1_38,2021-11-12T12:54:57.855Z,,,,,,,,,,,,,,,,2,,,,,,,,,,,,,,572.8500000119093,,response,,,1,E,,,,,Space,keypress(Space),,,,lyrical,--- ---- ------ --- ------- ---------- ------- ----------<br>--- --------- --- ----------- ------- ----- ------- ---<br>--------- ---- -- --- ---- -- --------- -- ---- -------<br>-- --------- ------ --- ----- ------ ---- --- --------- --<br>------ - note -- --- ----------- ------- ---- ----- -----<br>--- -------- - ------ ---- -- ----- ---- --- --- -----------<br>-- -------,255064.69999998808,255063.80000001192,254474.281,254480.90000003576,254490.95,255074.482,,38,note
screen,html.Screen,0_4_1_0_1_39,2021-11-12T12:54:58.327Z,,,,,,,,,,,,,,,,2,,,,,,,,,,,,,,461.21799998809,,response,,,1,E,,,,,Space,keypress(Space),,,,lyrical,--- ---- ------ --- ------- ---------- ------- ----------<br>--- --------- --- ----------- ------- ----- ------- ---<br>--------- ---- -- --- ---- -- --------- -- ---- -------<br>-- --------- ------ --- ----- ------ ---- --- --------- --<br>------ - ---- in --- ----------- ------- ---- ----- -----<br>--- -------- - ------ ---- -- ----- ---- --- --- -----------<br>-- -------,255536.5,255535.69999998808,255057.812,255065,255074.482,255541.324,,39,in
screen,html.Screen,0_4_1_0_1_40,2021-11-12T12:54:58.791Z,,,,,,,,,,,,,,,,2,,,,,,,,,,,,,,458.3759999880858,,response,,,1,E,,,,,Space,keypress(Space),,,,lyrical,--- ---- ------ --- ------- ---------- ------- ----------<br>--- --------- --- ----------- ------- ----- ------- ---<br>--------- ---- -- --- ---- -- --------- -- ---- -------<br>-- --------- ------ --- ----- ------ ---- --- --------- --<br>------ - ---- -- his ----------- ------- ---- ----- -----<br>--- -------- - ------ ---- -- ----- ---- --- --- -----------<br>-- -------,256000.60000002384,255999.69999998808,255524.653,255536.69999998808,255541.324,256008.155,,40,his
screen,html.Screen,0_4_1_0_1_41,2021-11-12T12:54:59.359Z,,,,,,,,,,,,,,,,2,,,,,,,,,,,,,,560.1450000119221,,response,,,1,E,,,,,Space,keypress(Space),,,,lyrical,--- ---- ------ --- ------- ---------- ------- ----------<br>--- --------- --- ----------- ------- ----- ------- ---<br>--------- ---- -- --- ---- -- --------- -- ---- -------<br>-- --------- ------ --- ----- ------ ---- --- --------- --<br>------ - ---- -- --- painstaking ------- ---- ----- -----<br>--- -------- - ------ ---- -- ----- ---- --- --- -----------<br>-- -------,256569,256568.30000001192,255991.484,256000.80000001192,256008.155,256574.81,,41,painstaking
screen,html.Screen,0_4_1_0_1_42,2021-11-12T12:55:00.574Z,,,,,,,,,,,,,,,,2,,,,,,,,,,,,,,1208.7900000238442,,response,,,1,E,,,,,Space,keypress(Space),,,,lyrical,--- ---- ------ --- ------- ---------- ------- ----------<br>--- --------- --- ----------- ------- ----- ------- ---<br>--------- ---- -- --- ---- -- --------- -- ---- -------<br>-- --------- ------ --- ----- ------ ---- --- --------- --<br>------ - ---- -- --- ----------- record. ---- ----- -----<br>--- -------- - ------ ---- -- ----- ---- --- --- -----------<br>-- -------,257784.5,257783.60000002384,256558.141,256569.30000001192,256574.81,257792.051,,42,record.
screen,html.Screen,0_4_1_0_1_43,2021-11-12T12:55:01.078Z,,,,,,,,,,,,,,,,2,,,,,,,,,,,,,,495.5490000238351,,response,,,1,E,,,,,Space,keypress(Space),,,,lyrical,--- ---- ------ --- ------- ---------- ------- ----------<br>--- --------- --- ----------- ------- ----- ------- ---<br>--------- ---- -- --- ---- -- --------- -- ---- -------<br>-- --------- ------ --- ----- ------ ---- --- --------- --<br>------ - ---- -- --- ----------- ------- That ----- -----<br>--- -------- - ------ ---- -- ----- ---- --- --- -----------<br>-- -------,258288.10000002384,258287.60000002384,257775.379,257784.80000001192,257792.051,258291.998,,43,That
screen,html.Screen,0_4_1_0_1_44,2021-11-12T12:55:01.637Z,,,,,,,,,,,,,,,,2,,,,,,,,,,,,,,555.1020000238495,,response,,,1,E,,,,,Space,keypress(Space),,,,lyrical,--- ---- ------ --- ------- ---------- ------- ----------<br>--- --------- --- ----------- ------- ----- ------- ---<br>--------- ---- -- --- ---- -- --------- -- ---- -------<br>-- --------- ------ --- ----- ------ ---- --- --------- --<br>------ - ---- -- --- ----------- ------- ---- night -----<br>--- -------- - ------ ---- -- ----- ---- --- --- -----------<br>-- -------,258847.40000003576,258847.10000002384,258275.328,258288.19999998808,258291.998,258858.773,,44,night
screen,html.Screen,0_4_1_0_1_45,2021-11-12T12:55:02.238Z,,,,,,,,,,,,,,,,2,,,,,,,,,,,,,,588.8270000238554,,response,,,1,E,,,,,Space,keypress(Space),,,,lyrical,--- ---- ------ --- ------- ---------- ------- ----------<br>--- --------- --- ----------- ------- ----- ------- ---<br>--------- ---- -- --- ---- -- --------- -- ---- -------<br>-- --------- ------ --- ----- ------ ---- --- --------- --<br>------ - ---- -- --- ----------- ------- ---- ----- there<br>--- -------- - ------ ---- -- ----- ---- --- --- -----------<br>-- -------,259448.40000003576,259447.60000002384,258842.103,258847.40000003576,258858.773,259458.909,,45,there
screen,html.Screen,0_4_1_0_1_46,2021-11-12T12:55:02.758Z,,,,,,,,,,,,,,,,2,,,,,,,,,,,,,,508.69100002382766,,response,,,1,E,,,,,Space,keypress(Space),,,,lyrical,--- ---- ------ --- ------- ---------- ------- ----------<br>--- --------- --- ----------- ------- ----- ------- ---<br>--------- ---- -- --- ---- -- --------- -- ---- -------<br>-- --------- ------ --- ----- ------ ---- --- --------- --<br>------ - ---- -- --- ----------- ------- ---- ----- -----<br>was -------- - ------ ---- -- ----- ---- --- --- -----------<br>-- -------,259968.40000003576,259967.60000002384,259442.239,259448.60000002384,259458.909,259975.73,,46,was
screen,html.Screen,0_4_1_0_1_47,2021-11-12T12:55:03.838Z,,,,,,,,,,,,,,,,2,,,,,,,,,,,,,,1071.7699999999895,,response,,,1,E,,,,,Space,keypress(Space),,,,lyrical,--- ---- ------ --- ------- ---------- ------- ----------<br>--- --------- --- ----------- ------- ----- ------- ---<br>--------- ---- -- --- ---- -- --------- -- ---- -------<br>-- --------- ------ --- ----- ------ ---- --- --------- --<br>------ - ---- -- --- ----------- ------- ---- ----- -----<br>--- scarcely - ------ ---- -- ----- ---- --- --- -----------<br>-- -------,261048.40000003576,261047.5,259959.06,259968.60000002384,259975.73,261059.4,,47,scarcely
screen,html.Screen,0_4_1_0_1_48,2021-11-12T12:55:04.326Z,,,,,,,,,,,,,,,,2,,,,,,,,,,,,,,476.0000000357686,,response,,,1,E,,,,,Space,keypress(Space),,,,lyrical,--- ---- ------ --- ------- ---------- ------- ----------<br>--- --------- --- ----------- ------- ----- ------- ---<br>--------- ---- -- --- ---- -- --------- -- ---- -------<br>-- --------- ------ --- ----- ------ ---- --- --------- --<br>------ - ---- -- --- ----------- ------- ---- ----- -----<br>--- -------- a ------ ---- -- ----- ---- --- --- -----------<br>-- -------,261536.19999998808,261535.40000003576,261042.729,261048.60000002384,261059.4,261542.989,,48,a
