sender,sender_type,sender_id,timestamp,meta,,Blues,Classical,Country,Dance,Electronic,Folk,Gospel,Hip-Hop,Jazz,Latin,Musical/Film,New-age,Pop,Provo_ID,R&B,Rap,Reggae,Religious,Rock,Soul,Swing,Traditional,age,artist_name,correct,correctResponse,distraction,duration,education,ended_on,familiarity,gender,item,list,music_frequency,offensiveness,pleasantness,preference,response,response_action,snippet_file,song_name,song_rating,sound,text,time_commit,time_end,time_render,time_run,time_show,time_switch,url,word,word_ID
Instructions,html.Page,0_0,2021-12-10T11:51:22.583Z,"{""labjs_version"":""20.2.3"",""labjs_build"":{""flavor"":""production"",""commit"":""7ea907d66ca8aeef8054924ca5d82ffbe11e34e5""},""location"":""https://run.pavlovia.org/mvasilev/lab_music_d/"",""userAgent"":""Mozilla/5.0 (Windows NT 6.1; Win64; x64) AppleWebKit/537.36 (KHTML, like Gecko) Chrome/96.0.4664.93 Safari/537.36"",""platform"":""Win32"",""language"":""en-US"",""locale"":""en-US"",""timeZone"":""Europe/London"",""timezoneOffset"":0,""screen_width"":1920,""screen_height"":1080,""scroll_width"":1920,""scroll_height"":959,""window_innerWidth"":1920,""window_innerHeight"":1007,""devicePixelRatio"":1}",,,,,,,,,,,,,,,,,,,,,,,,,,,,,36552.868999976155,,form submission,,,,,,,,,,,,,,,,50300.199999928474,50298.89999997616,13712.697,13727.799999952316,13746.031,50306.743,{},,
Headphones,html.Page,0_1,2021-12-10T11:51:26.937Z,,,,,,,,,,,,,,,,,,,,,,,,,,,,,,4346.256999999998,,form submission,,,,,,,,,,,,,,,,54653.59999990463,54653,50290.025,50300.89999997616,50306.743,54673.44,,,
Holding screen,html.Screen,0_2_0_0,2021-12-10T11:51:36.951Z,,,,,,,,,,,,,,,,,,,,,,,,,,,,,,10002.487999999998,,timeout,,,,,,,,,,,,,,,,64665,64659.258,54640.098,54654.299999952316,54673.44,64675.928,,,
screen,html.Screen,0_2_0_1_0,2021-12-10T11:51:38.811Z,,,,,,,,,,,,,,,,53,,,,,,,,,,,,,,1847.6719999046327,,response,,,99,,,,,,Space,keypress(Space),,,,,When -- ----- -- ------ - ------- --- ----------<br>------------- ------ ------ ---- ---- ------- ----- -- ----<br>-------- ------- -- ---------- --- - --- ----- ----- ----<br>---- --- --- ----- --- ---- ---- ------- ----- ---- -------<br>--- --- -- ----- -- --- ---- -- --- ---- -- ------ ------<br>--- ----- -- ----,66525.19999992847,66523.59999990463,64659.258,64665.39999997616,64675.928,66526.589,,0,When
screen,html.Screen,0_2_0_1_1,2021-12-10T11:51:39.954Z,,,,,,,,,,,,,,,,53,,,,,,,,,,,,,,1140.4109999999928,,response,,,99,,,,,,Space,keypress(Space),,,,,---- it ----- -- ------ - ------- --- ----------<br>------------- ------ ------ ---- ---- ------- ----- -- ----<br>-------- ------- -- ---------- --- - --- ----- ----- ----<br>---- --- --- ----- --- ---- ---- ------- ----- ---- -------<br>--- --- -- ----- -- --- ---- -- --- ---- -- ------ ------<br>--- ----- -- ----,67668,67667,66509.918,66525.59999990463,66526.589,67676.617,,1,it
screen,html.Screen,0_2_0_1_2,2021-12-10T11:51:40.786Z,,,,,,,,,,,,,,,,53,,,,,,,,,,,,,,822.4829999046342,,response,,,99,,,,,,Space,keypress(Space),,,,,---- -- comes -- ------ - ------- --- ----------<br>------------- ------ ------ ---- ---- ------- ----- -- ----<br>-------- ------- -- ---------- --- - --- ----- ----- ----<br>---- --- --- ----- --- ---- ---- ------- ----- ---- -------<br>--- --- -- ----- -- --- ---- -- --- ---- -- ------ ------<br>--- ----- -- ----,68499.89999997616,68499.09999990463,67659.947,67668.29999995232,67676.617,68510.403,,2,comes
screen,html.Screen,0_2_0_1_3,2021-12-10T11:51:41.370Z,,,,,,,,,,,,,,,,53,,,,,,,,,,,,,,572.5969999999943,,response,,,99,,,,,,Space,keypress(Space),,,,,---- -- ----- to ------ - ------- --- ----------<br>------------- ------ ------ ---- ---- ------- ----- -- ----<br>-------- ------- -- ---------- --- - --- ----- ----- ----<br>---- --- --- ----- --- ---- ---- ------- ----- ---- -------<br>--- --- -- ----- -- --- ---- -- --- ---- -- ------ ------<br>--- ----- -- ----,69083.89999997616,69083,68493.732,68500.19999992847,68510.403,69093.832,,3,to
screen,html.Screen,0_2_0_1_4,2021-12-10T11:51:41.994Z,,,,,,,,,,,,,,,,53,,,,,,,,,,,,,,613.1680000000051,,response,,,99,,,,,,Space,keypress(Space),,,,,---- -- ----- -- having - ------- --- ----------<br>------------- ------ ------ ---- ---- ------- ----- -- ----<br>-------- ------- -- ---------- --- - --- ----- ----- ----<br>---- --- --- ----- --- ---- ---- ------- ----- ---- -------<br>--- --- -- ----- -- --- ---- -- --- ---- -- ------ ------<br>--- ----- -- ----,69708.09999990463,69707,69077.162,69084.39999997616,69093.832,69710.661,,4,having
screen,html.Screen,0_2_0_1_5,2021-12-10T11:51:42.594Z,,,,,,,,,,,,,,,,53,,,,,,,,,,,,,,596.2389999761654,,response,,,99,,,,,,Space,keypress(Space),,,,,---- -- ----- -- ------ a ------- --- ----------<br>------------- ------ ------ ---- ---- ------- ----- -- ----<br>-------- ------- -- ---------- --- - --- ----- ----- ----<br>---- --- --- ----- --- ---- ---- ------- ----- ---- -------<br>--- --- -- ----- -- --- ---- -- --- ---- -- ------ ------<br>--- ----- -- ----,70307.79999995232,70306.89999997616,69693.991,69708.5,69710.661,70310.871,,5,a
screen,html.Screen,0_2_0_1_6,2021-12-10T11:51:43.362Z,,,,,,,,,,,,,,,,53,,,,,,,,,,,,,,764.028999976159,,response,,,99,,,,,,Space,keypress(Space),,,,,---- -- ----- -- ------ - lasting --- ----------<br>------------- ------ ------ ---- ---- ------- ----- -- ----<br>-------- ------- -- ---------- --- - --- ----- ----- ----<br>---- --- --- ----- --- ---- ---- ------- ----- ---- -------<br>--- --- -- ----- -- --- ---- -- --- ---- -- ------ ------<br>--- ----- -- ----,71075.79999995232,71074.89999997616,70294.2,70308.29999995232,70310.871,71077.663,,6,lasting
screen,html.Screen,0_2_0_1_7,2021-12-10T11:51:44.314Z,,,,,,,,,,,,,,,,53,,,,,,,,,,,,,,949.2369999761577,,response,,,99,,,,,,Space,keypress(Space),,,,,---- -- ----- -- ------ - ------- and ----------<br>------------- ------ ------ ---- ---- ------- ----- -- ----<br>-------- ------- -- ---------- --- - --- ----- ----- ----<br>---- --- --- ----- --- ---- ---- ------- ----- ---- -------<br>--- --- -- ----- -- --- ---- -- --- ---- -- ------ ------<br>--- ----- -- ----,72027.79999995232,72026.89999997616,71060.993,71076.09999990463,71077.663,72044.661,,7,and
screen,html.Screen,0_2_0_1_8,2021-12-10T11:51:45.202Z,,,,,,,,,,,,,,,,53,,,,,,,,,,,,,,870.1389999523235,,response,,,99,,,,,,Space,keypress(Space),,,,,---- -- ----- -- ------ - ------- --- fulfilling<br>------------- ------ ------ ---- ---- ------- ----- -- ----<br>-------- ------- -- ---------- --- - --- ----- ----- ----<br>---- --- --- ----- --- ---- ---- ------- ----- ---- -------<br>--- --- -- ----- -- --- ---- -- --- ---- -- ------ ------<br>--- ----- -- ----,72915.89999997616,72914.79999995232,72027.99,72028.09999990463,72044.661,72928.128,,8,fulfilling
screen,html.Screen,0_2_0_1_9,2021-12-10T11:51:45.938Z,,,,,,,,,,,,,,,,53,,,,,,,,,,,,,,722.5719999284775,,response,,,99,,,,,,Space,keypress(Space),,,,,"---- -- ----- -- ------ - ------- --- ----------<br>relationship, ------ ------ ---- ---- ------- ----- -- ----<br>-------- ------- -- ---------- --- - --- ----- ----- ----<br>---- --- --- ----- --- ---- ---- ------- ----- ---- -------<br>--- --- -- ----- -- --- ---- -- --- ---- -- ------ ------<br>--- ----- -- ----",73651.69999992847,73650.69999992847,72911.458,72916.19999992847,72928.128,73661.682,,9,"relationship,"
screen,html.Screen,0_2_0_1_10,2021-12-10T11:51:46.714Z,,,,,,,,,,,,,,,,53,,,,,,,,,,,,,,765.0179999284737,,response,,,99,,,,,,Space,keypress(Space),,,,,---- -- ----- -- ------ - ------- --- ----------<br>------------- common ------ ---- ---- ------- ----- -- ----<br>-------- ------- -- ---------- --- - --- ----- ----- ----<br>---- --- --- ----- --- ---- ---- ------- ----- ---- -------<br>--- --- -- ----- -- --- ---- -- --- ---- -- ------ ------<br>--- ----- -- ----,74427.59999990463,74426.69999992847,73645.012,73652,73661.682,74445.22,,10,common
screen,html.Screen,0_2_0_1_11,2021-12-10T11:51:47.561Z,,,,,,,,,,,,,,,,53,,,,,,,,,,,,,,829.4799999284733,,response,,,99,,,,,,Space,keypress(Space),,,,,---- -- ----- -- ------ - ------- --- ----------<br>------------- ------ wisdom ---- ---- ------- ----- -- ----<br>-------- ------- -- ---------- --- - --- ----- ----- ----<br>---- --- --- ----- --- ---- ---- ------- ----- ---- -------<br>--- --- -- ----- -- --- ---- -- --- ---- -- ------ ------<br>--- ----- -- ----,75275.59999990463,75274.69999992847,74428.55,74428,74445.22,75278.77,,11,wisdom
screen,html.Screen,0_2_0_1_12,2021-12-10T11:51:48.065Z,,,,,,,,,,,,,,,,53,,,,,,,,,,,,,,499.92999992847035,,response,,,99,,,,,,Space,keypress(Space),,,,,---- -- ----- -- ------ - ------- --- ----------<br>------------- ------ ------ says ---- ------- ----- -- ----<br>-------- ------- -- ---------- --- - --- ----- ----- ----<br>---- --- --- ----- --- ---- ---- ------- ----- ---- -------<br>--- --- -- ----- -- --- ---- -- --- ---- -- ------ ------<br>--- ----- -- ----,75779.5,75778.69999992847,75262.1,75275.79999995232,75278.77,75795.565,,12,says
screen,html.Screen,0_2_0_1_13,2021-12-10T11:51:49.002Z,,,,,,,,,,,,,,,,53,,,,,,,,,,,,,,919.5349999046302,,response,,,99,,,,,,Space,keypress(Space),,,,,---- -- ----- -- ------ - ------- --- ----------<br>------------- ------ ------ ---- that ------- ----- -- ----<br>-------- ------- -- ---------- --- - --- ----- ----- ----<br>---- --- --- ----- --- ---- ---- ------- ----- ---- -------<br>--- --- -- ----- -- --- ---- -- --- ---- -- ------ ------<br>--- ----- -- ----,76716,76715.09999990463,75778.895,75779.79999995232,75795.565,76729.133,,13,that
screen,html.Screen,0_2_0_1_14,2021-12-10T11:51:49.697Z,,,,,,,,,,,,,,,,53,,,,,,,,,,,,,,681.4669999046309,,response,,,99,,,,,,Space,keypress(Space),,,,,---- -- ----- -- ------ - ------- --- ----------<br>------------- ------ ------ ---- ---- feeling ----- -- ----<br>-------- ------- -- ---------- --- - --- ----- ----- ----<br>---- --- --- ----- --- ---- ---- ------- ----- ---- -------<br>--- --- -- ----- -- --- ---- -- --- ---- -- ------ ------<br>--- ----- -- ----,77411.39999997616,77410.59999990463,76712.463,76716.19999992847,76729.133,77412.658,,14,feeling
screen,html.Screen,0_2_0_1_15,2021-12-10T11:51:50.361Z,,,,,,,,,,,,,,,,53,,,,,,,,,,,,,,661.8420000000042,,response,,,99,,,,,,Space,keypress(Space),,,,,---- -- ----- -- ------ - ------- --- ----------<br>------------- ------ ------ ---- ---- ------- close -- ----<br>-------- ------- -- ---------- --- - --- ----- ----- ----<br>---- --- --- ----- --- ---- ---- ------- ----- ---- -------<br>--- --- -- ----- -- --- ---- -- --- ---- -- ------ ------<br>--- ----- -- ----,78075.29999995232,78074.5,77395.988,77411.59999990463,77412.658,78079.508,,15,close
screen,html.Screen,0_2_0_1_16,2021-12-10T11:51:50.969Z,,,,,,,,,,,,,,,,53,,,,,,,,,,,,,,602.8919999761565,,response,,,99,,,,,,Space,keypress(Space),,,,,---- -- ----- -- ------ - ------- --- ----------<br>------------- ------ ------ ---- ---- ------- ----- to ----<br>-------- ------- -- ---------- --- - --- ----- ----- ----<br>---- --- --- ----- --- ---- ---- ------- ----- ---- -------<br>--- --- -- ----- -- --- ---- -- --- ---- -- ------ ------<br>--- ----- -- ----,78683.29999995232,78682.39999997616,78062.838,78075.59999990463,78079.508,78696.321,,16,to
screen,html.Screen,0_2_0_1_17,2021-12-10T11:51:51.569Z,,,,,,,,,,,,,,,,53,,,,,,,,,,,,,,586.0789999761619,,response,,,99,,,,,,Space,keypress(Space),,,,,---- -- ----- -- ------ - ------- --- ----------<br>------------- ------ ------ ---- ---- ------- ----- -- your<br>-------- ------- -- ---------- --- - --- ----- ----- ----<br>---- --- --- ----- --- ---- ---- ------- ----- ---- -------<br>--- --- -- ----- -- --- ---- -- --- ---- -- ------ ------<br>--- ----- -- ----,79283.19999992847,79282.39999997616,78679.651,78683.5,78696.321,79296.491,,17,your
screen,html.Screen,0_2_0_1_18,2021-12-10T11:51:52.513Z,,,,,,,,,,,,,,,,53,,,,,,,,,,,,,,929.9089999761636,,response,,,99,,,,,,Space,keypress(Space),,,,,---- -- ----- -- ------ - ------- --- ----------<br>------------- ------ ------ ---- ---- ------- ----- -- ----<br>romantic ------- -- ---------- --- - --- ----- ----- ----<br>---- --- --- ----- --- ---- ---- ------- ----- ---- -------<br>--- --- -- ----- -- --- ---- -- --- ---- -- ------ ------<br>--- ----- -- ----,80227.29999995232,80226.39999997616,79279.821,79283.39999997616,79296.491,80229.908,,18,romantic
screen,html.Screen,0_2_0_1_19,2021-12-10T11:51:53.313Z,,,,,,,,,,,,,,,,53,,,,,,,,,,,,,,796.4919999761623,,response,,,99,,,,,,Space,keypress(Space),,,,,---- -- ----- -- ------ - ------- --- ----------<br>------------- ------ ------ ---- ---- ------- ----- -- ----<br>-------- partner -- ---------- --- - --- ----- ----- ----<br>---- --- --- ----- --- ---- ---- ------- ----- ---- -------<br>--- --- -- ----- -- --- ---- -- --- ---- -- ------ ------<br>--- ----- -- ----,81027.19999992847,81026.39999997616,80213.239,80227.5,80229.908,81030.426,,19,partner
screen,html.Screen,0_2_0_1_20,2021-12-10T11:51:54.529Z,,,,,,,,,,,,,,,,53,,,,,,,,,,,,,,1211.9739999761514,,response,,,99,,,,,,Space,keypress(Space),,,,,---- -- ----- -- ------ - ------- --- ----------<br>------------- ------ ------ ---- ---- ------- ----- -- ----<br>-------- ------- is ---------- --- - --- ----- ----- ----<br>---- --- --- ----- --- ---- ---- ------- ----- ---- -------<br>--- --- -- ----- -- --- ---- -- --- ---- -- ------ ------<br>--- ----- -- ----,82243.29999995232,82242.39999997616,81013.754,81027.39999997616,81030.426,82247.205,,20,is
screen,html.Screen,0_2_0_1_21,2021-12-10T11:51:55.689Z,,,,,,,,,,,,,,,,53,,,,,,,,,,,,,,1155.0949999523145,,response,,,99,,,,,,Space,keypress(Space),,,,,---- -- ----- -- ------ - ------- --- ----------<br>------------- ------ ------ ---- ---- ------- ----- -- ----<br>-------- ------- -- paramount. --- - --- ----- ----- ----<br>---- --- --- ----- --- ---- ---- ------- ----- ---- -------<br>--- --- -- ----- -- --- ---- -- --- ---- -- ------ ------<br>--- ----- -- ----,83403.19999992847,83402.29999995232,82230.535,82243.39999997616,82247.205,83414.087,,21,paramount.
screen,html.Screen,0_2_0_1_22,2021-12-10T11:51:56.433Z,,,,,,,,,,,,,,,,53,,,,,,,,,,,,,,732.1129999284749,,response,,,99,,,,,,Space,keypress(Space),,,,,---- -- ----- -- ------ - ------- --- ----------<br>------------- ------ ------ ---- ---- ------- ----- -- ----<br>-------- ------- -- ---------- But - --- ----- ----- ----<br>---- --- --- ----- --- ---- ---- ------- ----- ---- -------<br>--- --- -- ----- -- --- ---- -- --- ---- -- ------ ------<br>--- ----- -- ----,84147.09999990463,84146.19999992847,83397.417,83403.69999992847,83414.087,84164.342,,22,But
screen,html.Screen,0_2_0_1_23,2021-12-10T11:51:57.217Z,,,,,,,,,,,,,,,,53,,,,,,,,,,,,,,765.8579999284702,,response,,,99,,,,,,Space,keypress(Space),,,,,---- -- ----- -- ------ - ------- --- ----------<br>------------- ------ ------ ---- ---- ------- ----- -- ----<br>-------- ------- -- ---------- --- a --- ----- ----- ----<br>---- --- --- ----- --- ---- ---- ------- ----- ---- -------<br>--- --- -- ----- -- --- ---- -- --- ---- -- ------ ------<br>--- ----- -- ----,84931,84930.19999992847,84147.672,84147.39999997616,84164.342,84948.037,,23,a
screen,html.Screen,0_2_0_1_24,2021-12-10T11:51:57.937Z,,,,,,,,,,,,,,,,53,,,,,,,,,,,,,,702.1629999284778,,response,,,99,,,,,,Space,keypress(Space),,,,,---- -- ----- -- ------ - ------- --- ----------<br>------------- ------ ------ ---- ---- ------- ----- -- ----<br>-------- ------- -- ---------- --- - new ----- ----- ----<br>---- --- --- ----- --- ---- ---- ------- ----- ---- -------<br>--- --- -- ----- -- --- ---- -- --- ---- -- ------ ------<br>--- ----- -- ----,85651,85650.19999992847,84931.366,84931.39999997616,84948.037,85664.79,,24,new
screen,html.Screen,0_2_0_1_25,2021-12-10T11:51:58.681Z,,,,,,,,,,,,,,,,53,,,,,,,,,,,,,,729.309999904639,,response,,,99,,,,,,Space,keypress(Space),,,,,---- -- ----- -- ------ - ------- --- ----------<br>------------- ------ ------ ---- ---- ------- ----- -- ----<br>-------- ------- -- ---------- --- - --- study ----- ----<br>---- --- --- ----- --- ---- ---- ------- ----- ---- -------<br>--- --- -- ----- -- --- ---- -- --- ---- -- ------ ------<br>--- ----- -- ----,86395,86394.09999990463,85648.12,85651.39999997616,85664.79,86398.282,,25,study
screen,html.Screen,0_2_0_1_26,2021-12-10T11:51:59.409Z,,,,,,,,,,,,,,,,53,,,,,,,,,,,,,,724.4179999284679,,response,,,99,,,,,,Space,keypress(Space),,,,,---- -- ----- -- ------ - ------- --- ----------<br>------------- ------ ------ ---- ---- ------- ----- -- ----<br>-------- ------- -- ---------- --- - --- ----- finds ----<br>---- --- --- ----- --- ---- ---- ------- ----- ---- -------<br>--- --- -- ----- -- --- ---- -- --- ---- -- ------ ------<br>--- ----- -- ----,87123.59999990463,87122.69999992847,86381.612,86395.39999997616,86398.282,87131.948,,26,finds
screen,html.Screen,0_2_0_1_27,2021-12-10T11:52:00.553Z,,,,,,,,,,,,,,,,53,,,,,,,,,,,,,,1134.051999999996,,response,,,99,,,,,,Space,keypress(Space),,,,,---- -- ----- -- ------ - ------- --- ----------<br>------------- ------ ------ ---- ---- ------- ----- -- ----<br>-------- ------- -- ---------- --- - --- ----- ----- that<br>---- --- --- ----- --- ---- ---- ------- ----- ---- -------<br>--- --- -- ----- -- --- ---- -- --- ---- -- ------ ------<br>--- ----- -- ----,88267.09999990463,88266,87115.277,87123.79999995232,87131.948,88282.059,,27,that
screen,html.Screen,0_2_0_1_28,2021-12-10T11:52:01.297Z,,,,,,,,,,,,,,,,53,,,,,,,,,,,,,,727.9410000000062,,response,,,99,,,,,,Space,keypress(Space),,,,,---- -- ----- -- ------ - ------- --- ----------<br>------------- ------ ------ ---- ---- ------- ----- -- ----<br>-------- ------- -- ---------- --- - --- ----- ----- ----<br>it's --- --- ----- --- ---- ---- ------- ----- ---- -------<br>--- --- -- ----- -- --- ---- -- --- ---- -- ------ ------<br>--- ----- -- ----,89010.79999995232,89010,88265.389,88267.39999997616,88282.059,89015.757,,28,it's
screen,html.Screen,0_2_0_1_29,2021-12-10T11:52:02.089Z,,,,,,,,,,,,,,,,53,,,,,,,,,,,,,,786.1429999761604,,response,,,99,,,,,,Space,keypress(Space),,,,,---- -- ----- -- ------ - ------- --- ----------<br>------------- ------ ------ ---- ---- ------- ----- -- ----<br>-------- ------- -- ---------- --- - --- ----- ----- ----<br>---- not --- ----- --- ---- ---- ------- ----- ---- -------<br>--- --- -- ----- -- --- ---- -- --- ---- -- ------ ------<br>--- ----- -- ----,89802.69999992847,89801.89999997616,88999.086,89011.19999992847,89015.757,89815.881,,29,not
screen,html.Screen,0_2_0_1_30,2021-12-10T11:52:02.569Z,,,,,,,,,,,,,,,,53,,,,,,,,,,,,,,465.91899995232234,,response,,,99,,,,,,Space,keypress(Space),,,,,---- -- ----- -- ------ - ------- --- ----------<br>------------- ------ ------ ---- ---- ------- ----- -- ----<br>-------- ------- -- ---------- --- - --- ----- ----- ----<br>---- --- how ----- --- ---- ---- ------- ----- ---- -------<br>--- --- -- ----- -- --- ---- -- --- ---- -- ------ ------<br>--- ----- -- ----,90282.69999992847,90281.79999995232,89799.211,89802.89999997616,89815.881,90299.357,,30,how
screen,html.Screen,0_2_0_1_31,2021-12-10T11:52:03.384Z,,,,,,,,,,,,,,,,53,,,,,,,,,,,,,,798.4429999523127,,response,,,99,,,,,,Space,keypress(Space),,,,,---- -- ----- -- ------ - ------- --- ----------<br>------------- ------ ------ ---- ---- ------- ----- -- ----<br>-------- ------- -- ---------- --- - --- ----- ----- ----<br>---- --- --- close --- ---- ---- ------- ----- ---- -------<br>--- --- -- ----- -- --- ---- -- --- ---- -- ------ ------<br>--- ----- -- ----,91098.59999990463,91097.79999995232,90282.687,90283,90299.357,91116.22,,31,close
screen,html.Screen,0_2_0_1_32,2021-12-10T11:52:04.152Z,,,,,,,,,,,,,,,,53,,,,,,,,,,,,,,749.4799999284733,,response,,,99,,,,,,Space,keypress(Space),,,,,---- -- ----- -- ------ - ------- --- ----------<br>------------- ------ ------ ---- ---- ------- ----- -- ----<br>-------- ------- -- ---------- --- - --- ----- ----- ----<br>---- --- --- ----- you ---- ---- ------- ----- ---- -------<br>--- --- -- ----- -- --- ---- -- --- ---- -- ------ ------<br>--- ----- -- ----,91866.59999990463,91865.69999992847,91099.55,91098.79999995232,91116.22,91883.047,,32,you
screen,html.Screen,0_2_0_1_33,2021-12-10T11:52:04.665Z,,,,,,,,,,,,,,,,53,,,,,,,,,,,,,,494.6529999284685,,response,,,99,,,,,,Space,keypress(Space),,,,,---- -- ----- -- ------ - ------- --- ----------<br>------------- ------ ------ ---- ---- ------- ----- -- ----<br>-------- ------- -- ---------- --- - --- ----- ----- ----<br>---- --- --- ----- --- feel ---- ------- ----- ---- -------<br>--- --- -- ----- -- --- ---- -- --- ---- -- ------ ------<br>--- ----- -- ----,92378.69999992847,92377.69999992847,91866.377,91866.79999995232,91883.047,92383.277,,33,feel
screen,html.Screen,0_2_0_1_34,2021-12-10T11:52:05.912Z,,,,,,,,,,,,,,,,53,,,,,,,,,,,,,,1242.4229999284726,,response,,,99,,,,,,Space,keypress(Space),,,,,---- -- ----- -- ------ - ------- --- ----------<br>------------- ------ ------ ---- ---- ------- ----- -- ----<br>-------- ------- -- ---------- --- - --- ----- ----- ----<br>---- --- --- ----- --- ---- that ------- ----- ---- -------<br>--- --- -- ----- -- --- ---- -- --- ---- -- ------ ------<br>--- ----- -- ----,93626.5,93625.69999992847,92366.606,92379.09999990463,92383.277,93633.518,,34,that
screen,html.Screen,0_2_0_1_35,2021-12-10T11:52:06.736Z,,,,,,,,,,,,,,,,53,,,,,,,,,,,,,,816.181999928478,,response,,,99,,,,,,Space,keypress(Space),,,,,---- -- ----- -- ------ - ------- --- ----------<br>------------- ------ ------ ---- ---- ------- ----- -- ----<br>-------- ------- -- ---------- --- - --- ----- ----- ----<br>---- --- --- ----- --- ---- ---- matters ----- ---- -------<br>--- --- -- ----- -- --- ---- -- --- ---- -- ------ ------<br>--- ----- -- ----,94450.59999990463,94449.69999992847,93616.848,93626.79999995232,93633.518,94467.063,,35,matters
screen,html.Screen,0_2_0_1_36,2021-12-10T11:52:07.705Z,,,,,,,,,,,,,,,,53,,,,,,,,,,,,,,950.6369999284798,,response,,,99,,,,,,Space,keypress(Space),,,,,"---- -- ----- -- ------ - ------- --- ----------<br>------------- ------ ------ ---- ---- ------- ----- -- ----<br>-------- ------- -- ---------- --- - --- ----- ----- ----<br>---- --- --- ----- --- ---- ---- ------- most, ---- -------<br>--- --- -- ----- -- --- ---- -- --- ---- -- ------ ------<br>--- ----- -- ----",95418.59999990463,95417.69999992847,94450.393,94450.79999995232,94467.063,95434.084,,36,"most,"
screen,html.Screen,0_2_0_1_37,2021-12-10T11:52:08.264Z,,,,,,,,,,,,,,,,53,,,,,,,,,,,,,,543.51599990463,,response,,,99,,,,,,Space,keypress(Space),,,,,---- -- ----- -- ------ - ------- --- ----------<br>------------- ------ ------ ---- ---- ------- ----- -- ----<br>-------- ------- -- ---------- --- - --- ----- ----- ----<br>---- --- --- ----- --- ---- ---- ------- ----- it's -------<br>--- --- -- ----- -- --- ---- -- --- ---- -- ------ ------<br>--- ----- -- ----,95978.39999997616,95977.59999990463,95417.413,95418.89999997616,95434.084,95984.157,,37,it's
screen,html.Screen,0_2_0_1_38,2021-12-10T11:52:08.816Z,,,,,,,,,,,,,,,,53,,,,,,,,,,,,,,545.442999904626,,response,,,99,,,,,,Space,keypress(Space),,,,,---- -- ----- -- ------ - ------- --- ----------<br>------------- ------ ------ ---- ---- ------- ----- -- ----<br>-------- ------- -- ---------- --- - --- ----- ----- ----<br>---- --- --- ----- --- ---- ---- ------- ----- ---- whether<br>--- --- -- ----- -- --- ---- -- --- ---- -- ------ ------<br>--- ----- -- ----,96530.39999997616,96529.59999990463,95967.487,95978.59999990463,95984.157,96534.319,,38,whether
screen,html.Screen,0_2_0_1_39,2021-12-10T11:52:09.288Z,,,,,,,,,,,,,,,,53,,,,,,,,,,,,,,467.18099999999686,,response,,,99,,,,,,Space,keypress(Space),,,,,---- -- ----- -- ------ - ------- --- ----------<br>------------- ------ ------ ---- ---- ------- ----- -- ----<br>-------- ------- -- ---------- --- - --- ----- ----- ----<br>---- --- --- ----- --- ---- ---- ------- ----- ---- -------<br>you --- -- ----- -- --- ---- -- --- ---- -- ------ ------<br>--- ----- -- ----,97002.5,97001.5,96517.649,96530.5,96534.319,97017.768,,39,you
screen,html.Screen,0_2_0_1_40,2021-12-10T11:52:09.705Z,,,,,,,,,,,,,,,,53,,,,,,,,,,,,,,400.0319999523199,,response,,,99,,,,,,Space,keypress(Space),,,,,---- -- ----- -- ------ - ------- --- ----------<br>------------- ------ ------ ---- ---- ------- ----- -- ----<br>-------- ------- -- ---------- --- - --- ----- ----- ----<br>---- --- --- ----- --- ---- ---- ------- ----- ---- -------<br>--- are -- ----- -- --- ---- -- --- ---- -- ------ ------<br>--- ----- -- ----,97418.69999992847,97417.79999995232,97001.098,97002.69999992847,97017.768,97434.503,,40,are
screen,html.Screen,0_2_0_1_41,2021-12-10T11:52:10.240Z,,,,,,,,,,,,,,,,53,,,,,,,,,,,,,,518.997000000003,,response,,,99,,,,,,Space,keypress(Space),,,,,---- -- ----- -- ------ - ------- --- ----------<br>------------- ------ ------ ---- ---- ------- ----- -- ----<br>-------- ------- -- ---------- --- - --- ----- ----- ----<br>---- --- --- ----- --- ---- ---- ------- ----- ---- -------<br>--- --- as ----- -- --- ---- -- --- ---- -- ------ ------<br>--- ----- -- ----,97954.29999995232,97953.5,97417.833,97418.89999997616,97434.503,97968.116,,41,as
screen,html.Screen,0_2_0_1_42,2021-12-10T11:52:10.744Z,,,,,,,,,,,,,,,,53,,,,,,,,,,,,,,489.38400000000547,,response,,,99,,,,,,Space,keypress(Space),,,,,---- -- ----- -- ------ - ------- --- ----------<br>------------- ------ ------ ---- ---- ------- ----- -- ----<br>-------- ------- -- ---------- --- - --- ----- ----- ----<br>---- --- --- ----- --- ---- ---- ------- ----- ---- -------<br>--- --- -- close -- --- ---- -- --- ---- -- ------ ------<br>--- ----- -- ----,98458.29999995232,98457.5,97951.444,97954.5,97968.116,98468.156,,42,close
screen,html.Screen,0_2_0_1_43,2021-12-10T11:52:11.200Z,,,,,,,,,,,,,,,,53,,,,,,,,,,,,,,445.3439999999973,,response,,,99,,,,,,Space,keypress(Space),,,,,---- -- ----- -- ------ - ------- --- ----------<br>------------- ------ ------ ---- ---- ------- ----- -- ----<br>-------- ------- -- ---------- --- - --- ----- ----- ----<br>---- --- --- ----- --- ---- ---- ------- ----- ---- -------<br>--- --- -- ----- as --- ---- -- --- ---- -- ------ ------<br>--- ----- -- ----,98914.19999992847,98913.5,98451.486,98458.5,98468.156,98918.276,,43,as
screen,html.Screen,0_2_0_1_44,2021-12-10T11:52:11.968Z,,,,,,,,,,,,,,,,53,,,,,,,,,,,,,,763.1239999761601,,response,,,99,,,,,,Space,keypress(Space),,,,,---- -- ----- -- ------ - ------- --- ----------<br>------------- ------ ------ ---- ---- ------- ----- -- ----<br>-------- ------- -- ---------- --- - --- ----- ----- ----<br>---- --- --- ----- --- ---- ---- ------- ----- ---- -------<br>--- --- -- ----- -- you ---- -- --- ---- -- ------ ------<br>--- ----- -- ----,99682.19999992847,99681.39999997616,98901.606,98914.5,98918.276,99685.185,,44,you
screen,html.Screen,0_2_0_1_45,2021-12-10T11:52:12.496Z,,,,,,,,,,,,,,,,53,,,,,,,,,,,,,,524.1149999523186,,response,,,99,,,,,,Space,keypress(Space),,,,,---- -- ----- -- ------ - ------- --- ----------<br>------------- ------ ------ ---- ---- ------- ----- -- ----<br>-------- ------- -- ---------- --- - --- ----- ----- ----<br>---- --- --- ----- --- ---- ---- ------- ----- ---- -------<br>--- --- -- ----- -- --- want -- --- ---- -- ------ ------<br>--- ----- -- ----,100210.19999992847,100209.29999995232,99668.514,99682.39999997616,99685.185,100218.598,,45,want
screen,html.Screen,0_2_0_1_46,2021-12-10T11:52:12.904Z,,,,,,,,,,,,,,,,53,,,,,,,,,,,,,,398.70199995231815,,response,,,99,,,,,,Space,keypress(Space),,,,,---- -- ----- -- ------ - ------- --- ----------<br>------------- ------ ------ ---- ---- ------- ----- -- ----<br>-------- ------- -- ---------- --- - --- ----- ----- ----<br>---- --- --- ----- --- ---- ---- ------- ----- ---- -------<br>--- --- -- ----- -- --- ---- to --- ---- -- ------ ------<br>--- ----- -- ----,100618.19999992847,100617.29999995232,100201.928,100210.39999997616,100218.598,100635.38,,46,to
screen,html.Screen,0_2_0_1_47,2021-12-10T11:52:13.336Z,,,,,,,,,,,,,,,,53,,,,,,,,,,,,,,413.9199999523116,,response,,,99,,,,,,Space,keypress(Space),,,,,"---- -- ----- -- ------ - ------- --- ----------<br>------------- ------ ------ ---- ---- ------- ----- -- ----<br>-------- ------- -- ---------- --- - --- ----- ----- ----<br>---- --- --- ----- --- ---- ---- ------- ----- ---- -------<br>--- --- -- ----- -- --- ---- -- be, ---- -- ------ ------<br>--- ----- -- ----",101050.09999990463,101049.29999995232,100618.71,100618.39999997616,100635.38,101052.165,,47,"be,"
screen,html.Screen,0_2_0_1_48,2021-12-10T11:52:13.824Z,,,,,,,,,,,,,,,,53,,,,,,,,,,,,,,485.1349999523227,,response,,,99,,,,,,Space,keypress(Space),,,,,---- -- ----- -- ------ - ------- --- ----------<br>------------- ------ ------ ---- ---- ------- ----- -- ----<br>-------- ------- -- ---------- --- - --- ----- ----- ----<br>---- --- --- ----- --- ---- ---- ------- ----- ---- -------<br>--- --- -- ----- -- --- ---- -- --- even -- ------ ------<br>--- ----- -- ----,101538.09999990463,101537.29999995232,101035.495,101050.29999995232,101052.165,101552.295,,48,even
screen,html.Screen,0_2_0_1_49,2021-12-10T11:52:14.272Z,,,,,,,,,,,,,,,,53,,,,,,,,,,,,,,433.00499995231803,,response,,,99,,,,,,Space,keypress(Space),,,,,---- -- ----- -- ------ - ------- --- ----------<br>------------- ------ ------ ---- ---- ------- ----- -- ----<br>-------- ------- -- ---------- --- - --- ----- ----- ----<br>---- --- --- ----- --- ---- ---- ------- ----- ---- -------<br>--- --- -- ----- -- --- ---- -- --- ---- if ------ ------<br>--- ----- -- ----,101986.19999992847,101985.29999995232,101535.625,101538.39999997616,101552.295,102002.398,,49,if
screen,html.Screen,0_2_0_1_50,2021-12-10T11:52:14.752Z,,,,,,,,,,,,,,,,53,,,,,,,,,,,,,,462.90199995231524,,response,,,99,,,,,,Space,keypress(Space),,,,,---- -- ----- -- ------ - ------- --- ----------<br>------------- ------ ------ ---- ---- ------- ----- -- ----<br>-------- ------- -- ---------- --- - --- ----- ----- ----<br>---- --- --- ----- --- ---- ---- ------- ----- ---- -------<br>--- --- -- ----- -- --- ---- -- --- ---- -- that's ------<br>--- ----- -- ----,102466,102465.29999995232,101985.728,101986.39999997616,102002.398,102469.197,,50,that's
screen,html.Screen,0_2_0_1_51,2021-12-10T11:52:15.304Z,,,,,,,,,,,,,,,,53,,,,,,,,,,,,,,548.0029999284743,,response,,,99,,,,,,Space,keypress(Space),,,,,---- -- ----- -- ------ - ------- --- ----------<br>------------- ------ ------ ---- ---- ------- ----- -- ----<br>-------- ------- -- ---------- --- - --- ----- ----- ----<br>---- --- --- ----- --- ---- ---- ------- ----- ---- -------<br>--- --- -- ----- -- --- ---- -- --- ---- -- ------ really<br>--- ----- -- ----,103018,103017.19999992847,102452.527,102466.29999995232,102469.197,103019.301,,51,really
screen,html.Screen,0_2_0_1_52,2021-12-10T11:52:15.808Z,,,,,,,,,,,,,,,,53,,,,,,,,,,,,,,501.8989999284677,,response,,,99,,,,,,Space,keypress(Space),,,,,---- -- ----- -- ------ - ------- --- ----------<br>------------- ------ ------ ---- ---- ------- ----- -- ----<br>-------- ------- -- ---------- --- - --- ----- ----- ----<br>---- --- --- ----- --- ---- ---- ------- ----- ---- -------<br>--- --- -- ----- -- --- ---- -- --- ---- -- ------ ------<br>not ----- -- ----,103522,103521.19999992847,103002.631,103018.19999992847,103019.301,103536.202,,52,not
screen,html.Screen,0_2_0_1_53,2021-12-10T11:52:16.304Z,,,,,,,,,,,,,,,,53,,,,,,,,,,,,,,480.99799992846965,,response,,,99,,,,,,Space,keypress(Space),,,,,---- -- ----- -- ------ - ------- --- ----------<br>------------- ------ ------ ---- ---- ------- ----- -- ----<br>-------- ------- -- ---------- --- - --- ----- ----- ----<br>---- --- --- ----- --- ---- ---- ------- ----- ---- -------<br>--- --- -- ----- -- --- ---- -- --- ---- -- ------ ------<br>--- close -- ----,104018,104017.19999992847,103519.531,103522.29999995232,103536.202,104019.587,,53,close
screen,html.Screen,0_2_0_1_54,2021-12-10T11:52:16.824Z,,,,,,,,,,,,,,,,53,,,,,,,,,,,,,,517.6129999284749,,response,,,99,,,,,,Space,keypress(Space),,,,,---- -- ----- -- ------ - ------- --- ----------<br>------------- ------ ------ ---- ---- ------- ----- -- ----<br>-------- ------- -- ---------- --- - --- ----- ----- ----<br>---- --- --- ----- --- ---- ---- ------- ----- ---- -------<br>--- --- -- ----- -- --- ---- -- --- ---- -- ------ ------<br>--- ----- at ----,104537.79999995232,104537.19999992847,104002.917,104018.19999992847,104019.587,104553.114,,54,at
screen,html.Screen,0_2_0_1_55,2021-12-10T11:52:17.296Z,,,,,,,,,,,,,,,,53,,,,,,,,,,,,,,456.08599992847303,,response,,,99,,,,,,Space,keypress(Space),,,,,---- -- ----- -- ------ - ------- --- ----------<br>------------- ------ ------ ---- ---- ------- ----- -- ----<br>-------- ------- -- ---------- --- - --- ----- ----- ----<br>---- --- --- ----- --- ---- ---- ------- ----- ---- -------<br>--- --- -- ----- -- --- ---- -- --- ---- -- ------ ------<br>--- ----- -- all.,105009.89999997616,105009.19999992847,104536.443,104538.19999992847,104553.114,105019.848,,55,all.
Item 99,flow.Loop,0_2_0_1,2021-12-10T11:52:17.300Z,,,,,,,,,,,,,,,,,,,,,,,,,,,,,,40333.271999928475,,completion,,,,D,,,,,,,,,,silence,,105014.5,105009.19999992847,64659.258,64665.39999997616,64675.928,105019.848,,,
Question 1,html.Screen,0_2_0_2,2021-12-10T11:52:23.792Z,,,,,,,,,,,,,,,,,,,,,,,,,,,false,FALSE,,6484.751999904634,,response,,,99,D,,,,,TRUE,click #choice-1,,,,silence,,111506,111504.59999990463,105003.178,105014.79999995232,105019.848,111521.339,,,
Question 2,html.Screen,0_2_0_3,2021-12-10T11:52:34.483Z,,,,,,,,,,,,,,,,,,,,,,,,,,,true,TRUE,,10670.660999999993,,response,,,99,D,,,,,TRUE,click #choice-1,,,,silence,,122193.19999992847,122192,111504.673,111506.39999997616,111521.339,122207.702,,,
Item 99,flow.Sequence,0_2_0,2021-12-10T11:52:34.483Z,,,,,,,,,,,,,,,,,,,,,,,,,,,,,,67518.56,,completion,,,,,,,,,,,,,,,,122193.79999995232,122192,54640.098,54654.09999990463,54673.44,122207.702,,,
Holding screen,html.Screen,0_2_1_0,2021-12-10T11:52:44.484Z,,,,,,,,,,,,,,,,,,,,,,,,,,,,,,10002.476999999999,,timeout,,,,,,,,,,,,,,,,132195.09999990463,132193.509,122191.031,122194.19999992847,122207.702,132210.179,,,
screen,html.Screen,0_2_1_1_0,2021-12-10T11:52:46.090Z,,,,,,,,,,,,,,,,54,,,,,,,,,,,,,,1589.7209999761544,,response,,,100,,,,,,Space,keypress(Space),,,,,At --- ---- --- ------ ----- ------- ---- -- --- ------- --<br>------- ---------- ------ -- ----- -- ----- -- ---- ------<br>--- ----- --- --- ------ -------- ----- --- ------ ----- --<br>----- ----- ---------- --- --- ------ ------ ---- -- ------<br>------- --- ------ ----- --- ---- ------- -- ---- --- --<br>------- ------,133801.19999992847,133799.89999997616,132193.509,132195.59999990463,132210.179,133810.772,,0,At
screen,html.Screen,0_2_1_1_1,2021-12-10T11:52:46.610Z,,,,,,,,,,,,,,,,54,,,,,,,,,,,,,,508.82799990463536,,response,,,100,,,,,,Space,keypress(Space),,,,,-- the ---- --- ------ ----- ------- ---- -- --- ------- --<br>------- ---------- ------ -- ----- -- ----- -- ---- ------<br>--- ----- --- --- ------ -------- ----- --- ------ ----- --<br>----- ----- ---------- --- --- ------ ------ ---- -- ------<br>------- --- ------ ----- --- ---- ------- -- ---- --- --<br>------- ------,134320.5,134319.59999990463,133794.101,133801.5,133810.772,134327.286,,1,the
screen,html.Screen,0_2_1_1_2,2021-12-10T11:52:47.146Z,,,,,,,,,,,,,,,,54,,,,,,,,,,,,,,528.3139999046398,,response,,,100,,,,,,Space,keypress(Space),,,,,-- --- time --- ------ ----- ------- ---- -- --- ------- --<br>------- ---------- ------ -- ----- -- ----- -- ---- ------<br>--- ----- --- --- ------ -------- ----- --- ------ ----- --<br>----- ----- ---------- --- --- ------ ------ ---- -- ------<br>------- --- ------ ----- --- ---- ------- -- ---- --- --<br>------- ------,134856.5,134855.59999990463,134310.617,134320.79999995232,134327.286,134860.984,,2,time
screen,html.Screen,0_2_1_1_3,2021-12-10T11:52:48.002Z,,,,,,,,,,,,,,,,54,,,,,,,,,,,,,,850.5160000000033,,response,,,100,,,,,,Space,keypress(Space),,,,,-- --- ---- the ------ ----- ------- ---- -- --- ------- --<br>------- ---------- ------ -- ----- -- ----- -- ---- ------<br>--- ----- --- --- ------ -------- ----- --- ------ ----- --<br>----- ----- ---------- --- --- ------ ------ ---- -- ------<br>------- --- ------ ----- --- ---- ------- -- ---- --- --<br>------- ------,135712.39999997616,135711.5,134844.313,134856.79999995232,134860.984,135727.905,,3,the
screen,html.Screen,0_2_1_1_4,2021-12-10T11:52:48.770Z,,,,,,,,,,,,,,,,54,,,,,,,,,,,,,,751.5950000000012,,response,,,100,,,,,,Space,keypress(Space),,,,,-- --- ---- --- French ----- ------- ---- -- --- ------- --<br>------- ---------- ------ -- ----- -- ----- -- ---- ------<br>--- ----- --- --- ------ -------- ----- --- ------ ----- --<br>----- ----- ---------- --- --- ------ ------ ---- -- ------<br>------- --- ------ ----- --- ---- ------- -- ---- --- --<br>------- ------,136480.39999997616,136479.5,135711.234,135712.79999995232,135727.905,136494.536,,4,French
screen,html.Screen,0_2_1_1_5,2021-12-10T11:52:49.354Z,,,,,,,,,,,,,,,,54,,,,,,,,,,,,,,568.8639999761654,,response,,,100,,,,,,Space,keypress(Space),,,,,-- --- ---- --- ------ crown ------- ---- -- --- ------- --<br>------- ---------- ------ -- ----- -- ----- -- ---- ------<br>--- ----- --- --- ------ -------- ----- --- ------ ----- --<br>----- ----- ---------- --- --- ------ ------ ---- -- ------<br>------- --- ------ ----- --- ---- ------- -- ---- --- --<br>------- ------,137064.29999995232,137063.39999997616,136477.867,136480.69999992847,136494.536,137078.276,,5,crown
screen,html.Screen,0_2_1_1_6,2021-12-10T11:52:50.042Z,,,,,,,,,,,,,,,,54,,,,,,,,,,,,,,673.1239999761456,,response,,,100,,,,,,Space,keypress(Space),,,,,-- --- ---- --- ------ ----- secured ---- -- --- ------- --<br>------- ---------- ------ -- ----- -- ----- -- ---- ------<br>--- ----- --- --- ------ -------- ----- --- ------ ----- --<br>----- ----- ---------- --- --- ------ ------ ---- -- ------<br>------- --- ------ ----- --- ---- ------- -- ---- --- --<br>------- ------,137752.29999995232,137751.39999997616,137061.605,137064.69999992847,137078.276,137761.57,,6,secured
screen,html.Screen,0_2_1_1_7,2021-12-10T11:52:51.001Z,,,,,,,,,,,,,,,,54,,,,,,,,,,,,,,949.7299999523093,,response,,,100,,,,,,Space,keypress(Space),,,,,-- --- ---- --- ------ ----- ------- much -- --- ------- --<br>------- ---------- ------ -- ----- -- ----- -- ---- ------<br>--- ----- --- --- ------ -------- ----- --- ------ ----- --<br>----- ----- ---------- --- --- ------ ------ ---- -- ------<br>------- --- ------ ----- --- ---- ------- -- ---- --- --<br>------- ------,138712.09999990463,138711.29999995232,137744.901,137752.5,137761.57,138728.797,,7,much
screen,html.Screen,0_2_1_1_8,2021-12-10T11:52:51.498Z,,,,,,,,,,,,,,,,54,,,,,,,,,,,,,,478.5029999523249,,response,,,100,,,,,,Space,keypress(Space),,,,,-- --- ---- --- ------ ----- ------- ---- of --- ------- --<br>------- ---------- ------ -- ----- -- ----- -- ---- ------<br>--- ----- --- --- ------ -------- ----- --- ------ ----- --<br>----- ----- ---------- --- --- ------ ------ ---- -- ------<br>------- --- ------ ----- --- ---- ------- -- ---- --- --<br>------- ------,139208.19999992847,139207.29999995232,138712.125,138712.39999997616,138728.797,139211.96,,8,of
screen,html.Screen,0_2_1_1_9,2021-12-10T11:52:52.169Z,,,,,,,,,,,,,,,,54,,,,,,,,,,,,,,667.4399999761663,,response,,,100,,,,,,Space,keypress(Space),,,,,-- --- ---- --- ------ ----- ------- ---- -- its ------- --<br>------- ---------- ------ -- ----- -- ----- -- ---- ------<br>--- ----- --- --- ------ -------- ----- --- ------ ----- --<br>----- ----- ---------- --- --- ------ ------ ---- -- ------<br>------- --- ------ ----- --- ---- ------- -- ---- --- --<br>------- ------,139880.19999992847,139879.39999997616,139195.291,139208.5,139211.96,139895.559,,9,its
screen,html.Screen,0_2_1_1_10,2021-12-10T11:52:53.617Z,,,,,,,,,,,,,,,,54,,,,,,,,,,,,,,1431.640999928466,,response,,,100,,,,,,Space,keypress(Space),,,,,-- --- ---- --- ------ ----- ------- ---- -- --- revenue --<br>------- ---------- ------ -- ----- -- ----- -- ---- ------<br>--- ----- --- --- ------ -------- ----- --- ------ ----- --<br>----- ----- ---------- --- --- ------ ------ ---- -- ------<br>------- --- ------ ----- --- ---- ------- -- ---- --- --<br>------- ------,141328.19999992847,141327.19999992847,139878.889,139880.39999997616,139895.559,141329.368,,10,revenue
screen,html.Screen,0_2_1_1_11,2021-12-10T11:52:54.329Z,,,,,,,,,,,,,,,,54,,,,,,,,,,,,,,709.7319999046449,,response,,,100,,,,,,Space,keypress(Space),,,,,-- --- ---- --- ------ ----- ------- ---- -- --- ------- by<br>------- ---------- ------ -- ----- -- ----- -- ---- ------<br>--- ----- --- --- ------ -------- ----- --- ------ ----- --<br>----- ----- ---------- --- --- ------ ------ ---- -- ------<br>------- --- ------ ----- --- ---- ------- -- ---- --- --<br>------- ------,142040.09999990463,142039.09999990463,141312.697,141328.5,141329.368,142046.07,,11,by
screen,html.Screen,0_2_1_1_12,2021-12-10T11:52:55.305Z,,,,,,,,,,,,,,,,54,,,,,,,,,,,,,,969.0299999046256,,response,,,100,,,,,,Space,keypress(Space),,,,,-- --- ---- --- ------ ----- ------- ---- -- --- ------- --<br>issuing ---------- ------ -- ----- -- ----- -- ---- ------<br>--- ----- --- --- ------ -------- ----- --- ------ ----- --<br>----- ----- ---------- --- --- ------ ------ ---- -- ------<br>------- --- ------ ----- --- ---- ------- -- ---- --- --<br>------- ------,143015.89999997616,143015.09999990463,142029.4,142040.29999995232,142046.07,143029.788,,12,issuing
screen,html.Screen,0_2_1_1_13,2021-12-10T11:52:56.098Z,,,,,,,,,,,,,,,,54,,,,,,,,,,,,,,777.7119999999995,,response,,,100,,,,,,Space,keypress(Space),,,,,-- --- ---- --- ------ ----- ------- ---- -- --- ------- --<br>------- government ------ -- ----- -- ----- -- ---- ------<br>--- ----- --- --- ------ -------- ----- --- ------ ----- --<br>----- ----- ---------- --- --- ------ ------ ---- -- ------<br>------- --- ------ ----- --- ---- ------- -- ---- --- --<br>------- ------,143808.39999997616,143807.5,143013.117,143016.29999995232,143029.788,143813.264,,13,government
screen,html.Screen,0_2_1_1_14,2021-12-10T11:52:57.265Z,,,,,,,,,,,,,,,,54,,,,,,,,,,,,,,1161.7360000000044,,response,,,100,,,,,,Space,keypress(Space),,,,,-- --- ---- --- ------ ----- ------- ---- -- --- ------- --<br>------- ---------- bonds. -- ----- -- ----- -- ---- ------<br>--- ----- --- --- ------ -------- ----- --- ------ ----- --<br>----- ----- ---------- --- --- ------ ------ ---- -- ------<br>------- --- ------ ----- --- ---- ------- -- ---- --- --<br>------- ------,144975.89999997616,144975,143796.594,143808.5,143813.264,144980.222,,14,bonds.
screen,html.Screen,0_2_1_1_15,2021-12-10T11:52:58.073Z,,,,,,,,,,,,,,,,54,,,,,,,,,,,,,,802.6779999761493,,response,,,100,,,,,,Space,keypress(Space),,,,,-- --- ---- --- ------ ----- ------- ---- -- --- ------- --<br>------- ---------- ------ In ----- -- ----- -- ---- ------<br>--- ----- --- --- ------ -------- ----- --- ------ ----- --<br>----- ----- ---------- --- --- ------ ------ ---- -- ------<br>------- --- ------ ----- --- ---- ------- -- ---- --- --<br>------- ------,145783.79999995232,145782.89999997616,144963.552,144976.19999992847,144980.222,145797.092,,15,In
screen,html.Screen,0_2_1_1_16,2021-12-10T11:53:01.745Z,,,,,,,,,,,,,,,,54,,,,,,,,,,,,,,3657.707999952312,,response,,,100,,,,,,Space,keypress(Space),,,,,"-- --- ---- --- ------ ----- ------- ---- -- --- ------- --<br>------- ---------- ------ -- 1727, -- ----- -- ---- ------<br>--- ----- --- --- ------ -------- ----- --- ------ ----- --<br>----- ----- ---------- --- --- ------ ------ ---- -- ------<br>------- --- ------ ----- --- ---- ------- -- ---- --- --<br>------- ------",149455.69999992847,149454.79999995232,145780.422,145784.09999990463,145797.092,149464.571,,16,"1727,"
screen,html.Screen,0_2_1_1_17,2021-12-10T11:53:02.681Z,,,,,,,,,,,,,,,,54,,,,,,,,,,,,,,926.1289999284782,,response,,,100,,,,,,Space,keypress(Space),,,,,-- --- ---- --- ------ ----- ------- ---- -- --- ------- --<br>------- ---------- ------ -- ----- in ----- -- ---- ------<br>--- ----- --- --- ------ -------- ----- --- ------ ----- --<br>----- ----- ---------- --- --- ------ ------ ---- -- ------<br>------- --- ------ ----- --- ---- ------- -- ---- --- --<br>------- ------,150391.59999990463,150390.69999992847,149447.901,149456,149464.571,150397.938,,17,in
screen,html.Screen,0_2_1_1_18,2021-12-10T11:53:03.297Z,,,,,,,,,,,,,,,,54,,,,,,,,,,,,,,608.7619999284798,,response,,,100,,,,,,Space,keypress(Space),,,,,-- --- ---- --- ------ ----- ------- ---- -- --- ------- --<br>------- ---------- ------ -- ----- -- order -- ---- ------<br>--- ----- --- --- ------ -------- ----- --- ------ ----- --<br>----- ----- ---------- --- --- ------ ------ ---- -- ------<br>------- --- ------ ----- --- ---- ------- -- ---- --- --<br>------- ------,151007.59999990463,151006.69999992847,150381.269,150391.89999997616,150397.938,151015.147,,18,order
screen,html.Screen,0_2_1_1_19,2021-12-10T11:53:03.937Z,,,,,,,,,,,,,,,,54,,,,,,,,,,,,,,631.5529999284772,,response,,,100,,,,,,Space,keypress(Space),,,,,-- --- ---- --- ------ ----- ------- ---- -- --- ------- --<br>------- ---------- ------ -- ----- -- ----- to ---- ------<br>--- ----- --- --- ------ -------- ----- --- ------ ----- --<br>----- ----- ---------- --- --- ------ ------ ---- -- ------<br>------- --- ------ ----- --- ---- ------- -- ---- --- --<br>------- ------,151647.59999990463,151646.69999992847,150998.477,151007.89999997616,151015.147,151648.624,,19,to
screen,html.Screen,0_2_1_1_20,2021-12-10T11:53:04.577Z,,,,,,,,,,,,,,,,54,,,,,,,,,,,,,,638.0759999284637,,response,,,100,,,,,,Space,keypress(Space),,,,,-- --- ---- --- ------ ----- ------- ---- -- --- ------- --<br>------- ---------- ------ -- ----- -- ----- -- save ------<br>--- ----- --- --- ------ -------- ----- --- ------ ----- --<br>----- ----- ---------- --- --- ------ ------ ---- -- ------<br>------- --- ------ ----- --- ---- ------- -- ---- --- --<br>------- ------,152287.5,152286.69999992847,151631.954,151647.79999995232,151648.624,152298.885,,20,save
screen,html.Screen,0_2_1_1_21,2021-12-10T11:53:05.249Z,,,,,,,,,,,,,,,,54,,,,,,,,,,,,,,659.7149999046233,,response,,,100,,,,,,Space,keypress(Space),,,,,"-- --- ---- --- ------ ----- ------- ---- -- --- ------- --<br>------- ---------- ------ -- ----- -- ----- -- ---- money,<br>--- ----- --- --- ------ -------- ----- --- ------ ----- --<br>----- ----- ---------- --- --- ------ ------ ---- -- ------<br>------- --- ------ ----- --- ---- ------- -- ---- --- --<br>------- ------",152959.5,152958.59999990463,152282.214,152287.69999992847,152298.885,152965.661,,21,"money,"
screen,html.Screen,0_2_1_1_22,2021-12-10T11:53:06.017Z,,,,,,,,,,,,,,,,54,,,,,,,,,,,,,,760.8390000000072,,response,,,100,,,,,,Space,keypress(Space),,,,,-- --- ---- --- ------ ----- ------- ---- -- --- ------- --<br>------- ---------- ------ -- ----- -- ----- -- ---- ------<br>the ----- --- --- ------ -------- ----- --- ------ ----- --<br>----- ----- ---------- --- --- ------ ------ ---- -- ------<br>------- --- ------ ----- --- ---- ------- -- ---- --- --<br>------- ------,153727.39999997616,153726.5,152948.991,152959.79999995232,152965.661,153732.522,,22,the
screen,html.Screen,0_2_1_1_23,2021-12-10T11:53:06.689Z,,,,,,,,,,,,,,,,54,,,,,,,,,,,,,,666.3779999761609,,response,,,100,,,,,,Space,keypress(Space),,,,,-- --- ---- --- ------ ----- ------- ---- -- --- ------- --<br>------- ---------- ------ -- ----- -- ----- -- ---- ------<br>--- state --- --- ------ -------- ----- --- ------ ----- --<br>----- ----- ---------- --- --- ------ ------ ---- -- ------<br>------- --- ------ ----- --- ---- ------- -- ---- --- --<br>------- ------,154399.79999995232,154398.89999997616,153715.852,153727.69999992847,153732.522,154416.044,,23,state
screen,html.Screen,0_2_1_1_24,2021-12-10T11:53:07.409Z,,,,,,,,,,,,,,,,54,,,,,,,,,,,,,,702.4560000000056,,response,,,100,,,,,,Space,keypress(Space),,,,,-- --- ---- --- ------ ----- ------- ---- -- --- ------- --<br>------- ---------- ------ -- ----- -- ----- -- ---- ------<br>--- ----- cut --- ------ -------- ----- --- ------ ----- --<br>----- ----- ---------- --- --- ------ ------ ---- -- ------<br>------- --- ------ ----- --- ---- ------- -- ---- --- --<br>------- ------,155119.29999995232,155118.5,154399.374,154400,154416.044,155132.891,,24,cut
screen,html.Screen,0_2_1_1_25,2021-12-10T11:53:07.873Z,,,,,,,,,,,,,,,,54,,,,,,,,,,,,,,449.60899999999674,,response,,,100,,,,,,Space,keypress(Space),,,,,-- --- ---- --- ------ ----- ------- ---- -- --- ------- --<br>------- ---------- ------ -- ----- -- ----- -- ---- ------<br>--- ----- --- the ------ -------- ----- --- ------ ----- --<br>----- ----- ---------- --- --- ------ ------ ---- -- ------<br>------- --- ------ ----- --- ---- ------- -- ---- --- --<br>------- ------,155583.29999995232,155582.5,155116.221,155119.5,155132.891,155599.692,,25,the
screen,html.Screen,0_2_1_1_26,2021-12-10T11:53:08.384Z,,,,,,,,,,,,,,,,54,,,,,,,,,,,,,,494.80799999999,,response,,,100,,,,,,Space,keypress(Space),,,,,-- --- ---- --- ------ ----- ------- ---- -- --- ------- --<br>------- ---------- ------ -- ----- -- ----- -- ---- ------<br>--- ----- --- --- bonds' -------- ----- --- ------ ----- --<br>----- ----- ---------- --- --- ------ ------ ---- -- ------<br>------- --- ------ ----- --- ---- ------- -- ---- --- --<br>------- ------,156095.19999992847,156094.5,155583.022,155583.59999990463,155599.692,156099.817,,26,bonds'
screen,html.Screen,0_2_1_1_27,2021-12-10T11:53:08.864Z,,,,,,,,,,,,,,,,54,,,,,,,,,,,,,,474.58299997614813,,response,,,100,,,,,,Space,keypress(Space),,,,,-- --- ---- --- ------ ----- ------- ---- -- --- ------- --<br>------- ---------- ------ -- ----- -- ----- -- ---- ------<br>--- ----- --- --- ------ interest ----- --- ------ ----- --<br>----- ----- ---------- --- --- ------ ------ ---- -- ------<br>------- --- ------ ----- --- ---- ------- -- ---- --- --<br>------- ------,156575.19999992847,156574.39999997616,156083.147,156095.39999997616,156099.817,156583.164,,27,interest
screen,html.Screen,0_2_1_1_28,2021-12-10T11:53:09.368Z,,,,,,,,,,,,,,,,54,,,,,,,,,,,,,,495.2359999761684,,response,,,100,,,,,,Space,keypress(Space),,,,,-- --- ---- --- ------ ----- ------- ---- -- --- ------- --<br>------- ---------- ------ -- ----- -- ----- -- ---- ------<br>--- ----- --- --- ------ -------- rate. --- ------ ----- --<br>----- ----- ---------- --- --- ------ ------ ---- -- ------<br>------- --- ------ ----- --- ---- ------- -- ---- --- --<br>------- ------,157079.19999992847,157078.39999997616,156566.495,156575.5,156583.164,157083.525,,28,rate.
screen,html.Screen,0_2_1_1_29,2021-12-10T11:53:09.936Z,,,,,,,,,,,,,,,,54,,,,,,,,,,,,,,562.874999976164,,response,,,100,,,,,,Space,keypress(Space),,,,,-- --- ---- --- ------ ----- ------- ---- -- --- ------- --<br>------- ---------- ------ -- ----- -- ----- -- ---- ------<br>--- ----- --- --- ------ -------- ----- The ------ ----- --<br>----- ----- ---------- --- --- ------ ------ ---- -- ------<br>------- --- ------ ----- --- ---- ------- -- ---- --- --<br>------- ------,157647.19999992847,157646.39999997616,157066.853,157079.39999997616,157083.525,157650.2,,29,The
screen,html.Screen,0_2_1_1_30,2021-12-10T11:53:10.712Z,,,,,,,,,,,,,,,,54,,,,,,,,,,,,,,772.1999999761465,,response,,,100,,,,,,Space,keypress(Space),,,,,-- --- ---- --- ------ ----- ------- ---- -- --- ------- --<br>------- ---------- ------ -- ----- -- ----- -- ---- ------<br>--- ----- --- --- ------ -------- ----- --- market ----- --<br>----- ----- ---------- --- --- ------ ------ ---- -- ------<br>------- --- ------ ----- --- ---- ------- -- ---- --- --<br>------- ------,158423.19999992847,158422.39999997616,157633.53,157647.39999997616,157650.2,158433.745,,30,market
screen,html.Screen,0_2_1_1_31,2021-12-10T11:53:11.425Z,,,,,,,,,,,,,,,,54,,,,,,,,,,,,,,700.7550000000047,,response,,,100,,,,,,Space,keypress(Space),,,,,-- --- ---- --- ------ ----- ------- ---- -- --- ------- --<br>------- ---------- ------ -- ----- -- ----- -- ---- ------<br>--- ----- --- --- ------ -------- ----- --- ------ value --<br>----- ----- ---------- --- --- ------ ------ ---- -- ------<br>------- --- ------ ----- --- ---- ------- -- ---- --- --<br>------- ------,159135.29999995232,159134.5,158417.075,158423.39999997616,158433.745,159150.602,,31,value
screen,html.Screen,0_2_1_1_32,2021-12-10T11:53:11.912Z,,,,,,,,,,,,,,,,54,,,,,,,,,,,,,,471.49799990461906,,response,,,100,,,,,,Space,keypress(Space),,,,,-- --- ---- --- ------ ----- ------- ---- -- --- ------- --<br>------- ---------- ------ -- ----- -- ----- -- ---- ------<br>--- ----- --- --- ------ -------- ----- --- ------ ----- of<br>----- ----- ---------- --- --- ------ ------ ---- -- ------<br>------- --- ------ ----- --- ---- ------- -- ---- --- --<br>------- ------,159623,159622.09999990463,159133.932,159135.5,159150.602,159634.051,,32,of
screen,html.Screen,0_2_1_1_33,2021-12-10T11:53:12.352Z,,,,,,,,,,,,,,,,54,,,,,,,,,,,,,,428.1489999284677,,response,,,100,,,,,,Space,keypress(Space),,,,,-- --- ---- --- ------ ----- ------- ---- -- --- ------- --<br>------- ---------- ------ -- ----- -- ----- -- ---- ------<br>--- ----- --- --- ------ -------- ----- --- ------ ----- --<br>these ----- ---------- --- --- ------ ------ ---- -- ------<br>------- --- ------ ----- --- ---- ------- -- ---- --- --<br>------- ------,160063,160062.19999992847,159617.381,159623.19999992847,159634.051,160067.562,,33,these
screen,html.Screen,0_2_1_1_34,2021-12-10T11:53:12.744Z,,,,,,,,,,,,,,,,54,,,,,,,,,,,,,,386.63799992846907,,response,,,100,,,,,,Space,keypress(Space),,,,,-- --- ---- --- ------ ----- ------- ---- -- --- ------- --<br>------- ---------- ------ -- ----- -- ----- -- ---- ------<br>--- ----- --- --- ------ -------- ----- --- ------ ----- --<br>----- bonds ---------- --- --- ------ ------ ---- -- ------<br>------- --- ------ ----- --- ---- ------- -- ---- --- --<br>------- ------,160455,160454.19999992847,160050.891,160063.29999995232,160067.562,160467.638,,34,bonds
screen,html.Screen,0_2_1_1_35,2021-12-10T11:53:13.168Z,,,,,,,,,,,,,,,,54,,,,,,,,,,,,,,410.56199992846814,,response,,,100,,,,,,Space,keypress(Space),,,,,"-- --- ---- --- ------ ----- ------- ---- -- --- ------- --<br>------- ---------- ------ -- ----- -- ----- -- ---- ------<br>--- ----- --- --- ------ -------- ----- --- ------ ----- --<br>----- ----- plummeted, --- --- ------ ------ ---- -- ------<br>------- --- ------ ----- --- ---- ------- -- ---- --- --<br>------- ------",160879,160878.19999992847,160450.968,160455.19999992847,160467.638,160884.397,,35,"plummeted,"
screen,html.Screen,0_2_1_1_36,2021-12-10T11:53:13.680Z,,,,,,,,,,,,,,,,54,,,,,,,,,,,,,,505.70299990463536,,response,,,100,,,,,,Space,keypress(Space),,,,,-- --- ---- --- ------ ----- ------- ---- -- --- ------- --<br>------- ---------- ------ -- ----- -- ----- -- ---- ------<br>--- ----- --- --- ------ -------- ----- --- ------ ----- --<br>----- ----- ---------- and --- ------ ------ ---- -- ------<br>------- --- ------ ----- --- ---- ------- -- ---- --- --<br>------- ------,161391,161390.09999990463,160867.727,160879.19999992847,160884.397,161401.246,,36,and
screen,html.Screen,0_2_1_1_37,2021-12-10T11:53:14.096Z,,,,,,,,,,,,,,,,54,,,,,,,,,,,,,,404.85399990461883,,response,,,100,,,,,,Space,keypress(Space),,,,,-- --- ---- --- ------ ----- ------- ---- -- --- ------- --<br>------- ---------- ------ -- ----- -- ----- -- ---- ------<br>--- ----- --- --- ------ -------- ----- --- ------ ----- --<br>----- ----- ---------- --- the ------ ------ ---- -- ------<br>------- --- ------ ----- --- ---- ------- -- ---- --- --<br>------- ------,161806.89999997616,161806.09999990463,161384.575,161391.19999992847,161401.246,161817.972,,37,the
screen,html.Screen,0_2_1_1_38,2021-12-10T11:53:15.528Z,,,,,,,,,,,,,,,,54,,,,,,,,,,,,,,1420.1279999046237,,response,,,100,,,,,,Space,keypress(Space),,,,,-- --- ---- --- ------ ----- ------- ---- -- --- ------- --<br>------- ---------- ------ -- ----- -- ----- -- ---- ------<br>--- ----- --- --- ------ -------- ----- --- ------ ----- --<br>----- ----- ---------- --- --- market ------ ---- -- ------<br>------- --- ------ ----- --- ---- ------- -- ---- --- --<br>------- ------,163239,163238.09999990463,161801.302,161807.19999992847,161817.972,163251.628,,38,market
screen,html.Screen,0_2_1_1_39,2021-12-10T11:53:16.248Z,,,,,,,,,,,,,,,,54,,,,,,,,,,,,,,706.372000000003,,response,,,100,,,,,,Space,keypress(Space),,,,,-- --- ---- --- ------ ----- ------- ---- -- --- ------- --<br>------- ---------- ------ -- ----- -- ----- -- ---- ------<br>--- ----- --- --- ------ -------- ----- --- ------ ----- --<br>----- ----- ---------- --- --- ------ became ---- -- ------<br>------- --- ------ ----- --- ---- ------- -- ---- --- --<br>------- ------,163958.69999992847,163958,163234.958,163239.19999992847,163251.628,163968.518,,39,became
screen,html.Screen,0_2_1_1_40,2021-12-10T11:53:17.096Z,,,,,,,,,,,,,,,,54,,,,,,,,,,,,,,837.7819999523053,,response,,,100,,,,,,Space,keypress(Space),,,,,-- --- ---- --- ------ ----- ------- ---- -- --- ------- --<br>------- ---------- ------ -- ----- -- ----- -- ---- ------<br>--- ----- --- --- ------ -------- ----- --- ------ ----- --<br>----- ----- ---------- --- --- ------ ------ wary -- ------<br>------- --- ------ ----- --- ---- ------- -- ---- --- --<br>------- ------,164807.09999990463,164806.29999995232,163951.848,163959,163968.518,164818.698,,40,wary
screen,html.Screen,0_2_1_1_41,2021-12-10T11:53:17.744Z,,,,,,,,,,,,,,,,54,,,,,,,,,,,,,,635.2019999761542,,response,,,100,,,,,,Space,keypress(Space),,,,,-- --- ---- --- ------ ----- ------- ---- -- --- ------- --<br>------- ---------- ------ -- ----- -- ----- -- ---- ------<br>--- ----- --- --- ------ -------- ----- --- ------ ----- --<br>----- ----- ---------- --- --- ------ ------ ---- of ------<br>------- --- ------ ----- --- ---- ------- -- ---- --- --<br>------- ------,165454.69999992847,165453.89999997616,164802.028,164807.39999997616,164818.698,165468.991,,41,of
screen,html.Screen,0_2_1_1_42,2021-12-10T11:53:18.584Z,,,,,,,,,,,,,,,,54,,,,,,,,,,,,,,824.9089999761491,,response,,,100,,,,,,Space,keypress(Space),,,,,-- --- ---- --- ------ ----- ------- ---- -- --- ------- --<br>------- ---------- ------ -- ----- -- ----- -- ---- ------<br>--- ----- --- --- ------ -------- ----- --- ------ ----- --<br>----- ----- ---------- --- --- ------ ------ ---- -- French<br>------- --- ------ ----- --- ---- ------- -- ---- --- --<br>------- ------,166294.69999992847,166293.89999997616,165452.32,165455,165468.991,166302.417,,42,French
screen,html.Screen,0_2_1_1_43,2021-12-10T11:53:20.016Z,,,,,,,,,,,,,,,,54,,,,,,,,,,,,,,1423.4829999761714,,response,,,100,,,,,,Space,keypress(Space),,,,,-- --- ---- --- ------ ----- ------- ---- -- --- ------- --<br>------- ---------- ------ -- ----- -- ----- -- ---- ------<br>--- ----- --- --- ------ -------- ----- --- ------ ----- --<br>----- ----- ---------- --- --- ------ ------ ---- -- ------<br>credit. --- ------ ----- --- ---- ------- -- ---- --- --<br>------- ------,167726.59999990463,167725.89999997616,166285.747,166295,166302.417,167736.221,,43,credit.
screen,html.Screen,0_2_1_1_44,2021-12-10T11:53:20.768Z,,,,,,,,,,,,,,,,54,,,,,,,,,,,,,,741.5789999523258,,response,,,100,,,,,,Space,keypress(Space),,,,,-- --- ---- --- ------ ----- ------- ---- -- --- ------- --<br>------- ---------- ------ -- ----- -- ----- -- ---- ------<br>--- ----- --- --- ------ -------- ----- --- ------ ----- --<br>----- ----- ---------- --- --- ------ ------ ---- -- ------<br>------- The ------ ----- --- ---- ------- -- ---- --- --<br>------- ------,168478.59999990463,168477.79999995232,167719.55,167726.89999997616,167736.221,168486.361,,44,The
screen,html.Screen,0_2_1_1_45,2021-12-10T11:53:21.440Z,,,,,,,,,,,,,,,,54,,,,,,,,,,,,,,663.33899992847,,response,,,100,,,,,,Space,keypress(Space),,,,,-- --- ---- --- ------ ----- ------- ---- -- --- ------- --<br>------- ---------- ------ -- ----- -- ----- -- ---- ------<br>--- ----- --- --- ------ -------- ----- --- ------ ----- --<br>----- ----- ---------- --- --- ------ ------ ---- -- ------<br>------- --- French ----- --- ---- ------- -- ---- --- --<br>------- ------,169150.59999990463,169149.69999992847,168469.691,168478.79999995232,168486.361,169153.186,,45,French
screen,html.Screen,0_2_1_1_46,2021-12-10T11:53:22.112Z,,,,,,,,,,,,,,,,54,,,,,,,,,,,,,,668.5139999284875,,response,,,100,,,,,,Space,keypress(Space),,,,,-- --- ---- --- ------ ----- ------- ---- -- --- ------- --<br>------- ---------- ------ -- ----- -- ----- -- ---- ------<br>--- ----- --- --- ------ -------- ----- --- ------ ----- --<br>----- ----- ---------- --- --- ------ ------ ---- -- ------<br>------- --- ------ state --- ---- ------- -- ---- --- --<br>------- ------,169822.5,169821.69999992847,169136.516,169150.89999997616,169153.186,169836.772,,46,state
screen,html.Screen,0_2_1_1_47,2021-12-10T11:53:22.824Z,,,,,,,,,,,,,,,,54,,,,,,,,,,,,,,696.9279999284772,,response,,,100,,,,,,Space,keypress(Space),,,,,-- --- ---- --- ------ ----- ------- ---- -- --- ------- --<br>------- ---------- ------ -- ----- -- ----- -- ---- ------<br>--- ----- --- --- ------ -------- ----- --- ------ ----- --<br>----- ----- ---------- --- --- ------ ------ ---- -- ------<br>------- --- ------ ----- was ---- ------- -- ---- --- --<br>------- ------,170534.5,170533.69999992847,169820.101,169822.79999995232,169836.772,170536.901,,47,was
screen,html.Screen,0_2_1_1_48,2021-12-10T11:53:23.408Z,,,,,,,,,,,,,,,,54,,,,,,,,,,,,,,580.7989999284619,,response,,,100,,,,,,Space,keypress(Space),,,,,-- --- ---- --- ------ ----- ------- ---- -- --- ------- --<br>------- ---------- ------ -- ----- -- ----- -- ---- ------<br>--- ----- --- --- ------ -------- ----- --- ------ ----- --<br>----- ----- ---------- --- --- ------ ------ ---- -- ------<br>------- --- ------ ----- --- left ------- -- ---- --- --<br>------- ------,171118.59999990463,171117.69999992847,170520.231,170534.79999995232,170536.901,171120.262,,48,left
screen,html.Screen,0_2_1_1_49,2021-12-10T11:53:24.008Z,,,,,,,,,,,,,,,,54,,,,,,,,,,,,,,597.3379999046447,,response,,,100,,,,,,Space,keypress(Space),,,,,-- --- ---- --- ------ ----- ------- ---- -- --- ------- --<br>------- ---------- ------ -- ----- -- ----- -- ---- ------<br>--- ----- --- --- ------ -------- ----- --- ------ ----- --<br>----- ----- ---------- --- --- ------ ------ ---- -- ------<br>------- --- ------ ----- --- ---- without -- ---- --- --<br>------- ------,171718.39999997616,171717.59999990463,171103.593,171118.79999995232,171120.262,171720.609,,49,without
screen,html.Screen,0_2_1_1_50,2021-12-10T11:53:24.544Z,,,,,,,,,,,,,,,,54,,,,,,,,,,,,,,532.9909999046358,,response,,,100,,,,,,Space,keypress(Space),,,,,-- --- ---- --- ------ ----- ------- ---- -- --- ------- --<br>------- ---------- ------ -- ----- -- ----- -- ---- ------<br>--- ----- --- --- ------ -------- ----- --- ------ ----- --<br>----- ----- ---------- --- --- ------ ------ ---- -- ------<br>------- --- ------ ----- --- ---- ------- an ---- --- --<br>------- ------,172254.39999997616,172253.59999990463,171703.938,171718.69999992847,171720.609,172270.553,,50,an
screen,html.Screen,0_2_1_1_51,2021-12-10T11:53:25.024Z,,,,,,,,,,,,,,,,54,,,,,,,,,,,,,,463.04699990461813,,response,,,100,,,,,,Space,keypress(Space),,,,,-- --- ---- --- ------ ----- ------- ---- -- --- ------- --<br>------- ---------- ------ -- ----- -- ----- -- ---- ------<br>--- ----- --- --- ------ -------- ----- --- ------ ----- --<br>----- ----- ---------- --- --- ------ ------ ---- -- ------<br>------- --- ------ ----- --- ---- ------- -- easy --- --<br>------- ------,172734.39999997616,172733.59999990463,172253.884,172254.69999992847,172270.553,172737.585,,51,easy
screen,html.Screen,0_2_1_1_52,2021-12-10T11:53:25.448Z,,,,,,,,,,,,,,,,54,,,,,,,,,,,,,,420.0149999046407,,response,,,100,,,,,,Space,keypress(Space),,,,,-- --- ---- --- ------ ----- ------- ---- -- --- ------- --<br>------- ---------- ------ -- ----- -- ----- -- ---- ------<br>--- ----- --- --- ------ -------- ----- --- ------ ----- --<br>----- ----- ---------- --- --- ------ ------ ---- -- ------<br>------- --- ------ ----- --- ---- ------- -- ---- way --<br>------- ------,173158.29999995232,173157.59999990463,172720.913,172734.5,172737.585,173170.918,,52,way
screen,html.Screen,0_2_1_1_53,2021-12-10T11:53:25.920Z,,,,,,,,,,,,,,,,54,,,,,,,,,,,,,,458.68199990462745,,response,,,100,,,,,,Space,keypress(Space),,,,,-- --- ---- --- ------ ----- ------- ---- -- --- ------- --<br>------- ---------- ------ -- ----- -- ----- -- ---- ------<br>--- ----- --- --- ------ -------- ----- --- ------ ----- --<br>----- ----- ---------- --- --- ------ ------ ---- -- ------<br>------- --- ------ ----- --- ---- ------- -- ---- --- of<br>------- ------,173630.29999995232,173629.59999990463,173154.248,173158.59999990463,173170.918,173637.757,,53,of
screen,html.Screen,0_2_1_1_54,2021-12-10T11:53:26.336Z,,,,,,,,,,,,,,,,54,,,,,,,,,,,,,,407.74299999998766,,response,,,100,,,,,,Space,keypress(Space),,,,,-- --- ---- --- ------ ----- ------- ---- -- --- ------- --<br>------- ---------- ------ -- ----- -- ----- -- ---- ------<br>--- ----- --- --- ------ -------- ----- --- ------ ----- --<br>----- ----- ---------- --- --- ------ ------ ---- -- ------<br>------- --- ------ ----- --- ---- ------- -- ---- --- --<br>raising ------,174046.39999997616,174045.5,173621.086,173630.59999990463,173637.757,174054.484,,54,raising
screen,html.Screen,0_2_1_1_55,2021-12-10T11:53:26.719Z,,,,,,,,,,,,,,,,54,,,,,,,,,,,,,,374.9159999761614,,response,,,100,,,,,,Space,keypress(Space),,,,,-- --- ---- --- ------ ----- ------- ---- -- --- ------- --<br>------- ---------- ------ -- ----- -- ----- -- ---- ------<br>--- ----- --- --- ------ -------- ----- --- ------ ----- --<br>----- ----- ---------- --- --- ------ ------ ---- -- ------<br>------- --- ------ ----- --- ---- ------- -- ---- --- --<br>------- money.,174430.19999992847,174429.39999997616,174037.814,174046.5,174054.484,174437.963,,55,money.
Item 100,flow.Loop,0_2_1_1,2021-12-10T11:53:26.720Z,,,,,,,,,,,,,,,,,,,,,,,,,,,,,,42219.220999976154,,completion,,,,D,,,,,,,,,,silence,,174430.69999992847,174429.39999997616,132193.509,132195.39999997616,132210.179,174437.963,,,
Question 1,html.Screen,0_2_1_2,2021-12-10T11:53:33.355Z,,,,,,,,,,,,,,,,,,,,,,,,,,,true,TRUE,,6622.936999976169,,response,,,100,D,,,,,TRUE,click #choice-1,,,,silence,,181062.09999990463,181060.89999997616,174421.292,174430.89999997616,174437.963,181072.975,,,
Question 2,html.Screen,0_2_1_3,2021-12-10T11:53:38.922Z,,,,,,,,,,,,,,,,,,,,,,,,,,,true,FALSE,,5555.524999999994,,response,,,100,D,,,,,FALSE,click #choice-2,,,,silence,,186629.69999992847,186628.5,181056.305,181062.39999997616,181072.975,186641.071,,,
Item 100,flow.Sequence,0_2_1,2021-12-10T11:53:38.923Z,,,,,,,,,,,,,,,,,,,,,,,,,,,,,,64420.797999999995,,completion,,,,,,,,,,,,,,,,186630.09999990463,186628.5,122191.031,122194.09999990463,122207.702,186641.071,,,
End of Practice,html.Page,0_2_2,2021-12-10T11:53:49.243Z,,,,,,,,,,,,,,,,,,,,,,,,,,,,,,10308.628999928478,,form submission,,,,,,,,,,,,,,,,196950.29999995232,196949.69999992847,186624.401,186630.39999997616,186641.071,196960.505,,,
Practice,flow.Sequence,0_2,2021-12-10T11:53:49.243Z,,,,,,,,,,,,,,,,,,,,,,,,,,,,,,142276.25999992847,,completion,,,,,,,,,,,,,,,,196950.89999997616,196949.69999992847,54640.098,54654,54673.44,196960.505,,,
Trap_instruction,html.Page,0_3_0,2021-12-10T11:53:57.938Z,,,,,,,,,,,,,,,,,,,,,,,,,,,,,,8684.69499992847,,form submission,,,,,,,,,,,,,,,,205645.69999992847,205645.19999992847,196943.831,196951.19999992847,196960.505,205679.351,,,
trap_trial,html.Screen,0_3_1,2021-12-10T11:54:05.169Z,,,,,,,,,,,,,,,,,,,,,,,,,,,true,1,,7195.7489999046375,,response,,,,,,,,,1,click #choice-1,,,,,,212876.59999990463,212875.09999990463,205629.341,205646.09999990463,205679.351,212886.805,,,
end of trap trial,html.Page,0_3_2,2021-12-10T11:54:07.818Z,,,,,,,,,,,,,,,,,,,,,,,,,,,,,,2638.094999976165,,form submission,,,,,,,,,,,,,,,,215525.59999990463,215524.89999997616,212870.16,212876.79999995232,212886.805,215531.877,,,
Trap 1,flow.Sequence,0_3,2021-12-10T11:54:07.819Z,,,,,,,,,,,,,,,,,,,,,,,,,,,,,,18564.394999976153,,completion,,,,,,,,,,,,,,,,215526,215524.89999997616,196943.831,196951.19999992847,196960.505,215531.877,,,
Standby,html.Page,0_4_0,2021-12-10T11:54:15.811Z,,,,,,,,,,,,,,,,,,,,,,,,,,,,,,8001.6630000000005,,timeout,,,,,,,,,,,,,,,,223518.5,223516.87,215515.207,215526.39999997616,215531.877,223533.54,,,
Holding screen,html.Screen,0_4_1_0_0,2021-12-10T11:54:22.813Z,,,,,,,,,,,,,,,,,,,,,,,,,,,,,,7002.279999999999,,timeout,,,,,,,,,,,,,,,,230520.59999990463,230519.15,223516.87,223518.89999997616,223533.54,230535.82,,,
screen,html.Screen,0_4_1_0_1_0,2021-12-10T11:54:24.192Z,,,,,,,,,,,,,,,,51,,,,,,,,,,,,,,1363.0799999761512,,response,,,13,D,,,,,Space,keypress(Space),,,,silence,American -------- --- --- ---- --- --- ------ -- --------<br>---- --------- --- ------- ------------ ---------- ---------<br>--- ---------- ------- ---------- ------- -- -------- ----<br>---- --- ------ ----- ------ -- ---- --- ----- -- - -------<br>-------- -- --- --- -- ----- ----------- ----- -----------<br>---- --- ---------- --- ---- --- -- ----------,231899.89999997616,231898.89999997616,230519.15,230521,230535.82,231902.819,,0,American
screen,html.Screen,0_4_1_0_1_1,2021-12-10T11:54:25.048Z,,,,,,,,,,,,,,,,51,,,,,,,,,,,,,,851.5809999761696,,response,,,13,D,,,,,Space,keypress(Space),,,,silence,-------- industry --- --- ---- --- --- ------ -- --------<br>---- --------- --- ------- ------------ ---------- ---------<br>--- ---------- ------- ---------- ------- -- -------- ----<br>---- --- ------ ----- ------ -- ---- --- ----- -- - -------<br>-------- -- --- --- -- ----- ----------- ----- -----------<br>---- --- ---------- --- ---- --- -- ----------,232755.29999995232,232754.39999997616,231886.149,231900.19999992847,231902.819,232769.536,,1,industry
screen,html.Screen,0_4_1_0_1_2,2021-12-10T11:54:25.792Z,,,,,,,,,,,,,,,,51,,,,,,,,,,,,,,728.7639999523235,,response,,,13,D,,,,,Space,keypress(Space),,,,silence,-------- -------- may --- ---- --- --- ------ -- --------<br>---- --------- --- ------- ------------ ---------- ---------<br>--- ---------- ------- ---------- ------- -- -------- ----<br>---- --- ------ ----- ------ -- ---- --- ----- -- - -------<br>-------- -- --- --- -- ----- ----------- ----- -----------<br>---- --- ---------- --- ---- --- -- ----------,233499.19999992847,233498.29999995232,232752.867,232755.5,232769.536,233503.368,,2,may
screen,html.Screen,0_4_1_0_1_3,2021-12-10T11:54:26.568Z,,,,,,,,,,,,,,,,51,,,,,,,,,,,,,,770.9319999523286,,response,,,13,D,,,,,Space,keypress(Space),,,,silence,-------- -------- --- not ---- --- --- ------ -- --------<br>---- --------- --- ------- ------------ ---------- ---------<br>--- ---------- ------- ---------- ------- -- -------- ----<br>---- --- ------ ----- ------ -- ---- --- ----- -- - -------<br>-------- -- --- --- -- ----- ----------- ----- -----------<br>---- --- ---------- --- ---- --- -- ----------,234275.09999990463,234274.29999995232,233486.697,233499.39999997616,233503.368,234286.799,,3,not
screen,html.Screen,0_4_1_0_1_4,2021-12-10T11:54:27.232Z,,,,,,,,,,,,,,,,51,,,,,,,,,,,,,,651.7010000000009,,response,,,13,D,,,,,Space,keypress(Space),,,,silence,-------- -------- --- --- know --- --- ------ -- --------<br>---- --------- --- ------- ------------ ---------- ---------<br>--- ---------- ------- ---------- ------- -- -------- ----<br>---- --- ------ ----- ------ -- ---- --- ----- -- - -------<br>-------- -- --- --- -- ----- ----------- ----- -----------<br>---- --- ---------- --- ---- --- -- ----------,234939.29999995232,234938.5,234270.129,234275.29999995232,234286.799,234953.61,,4,know
screen,html.Screen,0_4_1_0_1_5,2021-12-10T11:54:27.904Z,,,,,,,,,,,,,,,,51,,,,,,,,,,,,,,656.6899999523303,,response,,,13,D,,,,,Space,keypress(Space),,,,silence,"-------- -------- --- --- ---- it, --- ------ -- --------<br>---- --------- --- ------- ------------ ---------- ---------<br>--- ---------- ------- ---------- ------- -- -------- ----<br>---- --- ------ ----- ------ -- ---- --- ----- -- - -------<br>-------- -- --- --- -- ----- ----------- ----- -----------<br>---- --- ---------- --- ---- --- -- ----------",235611.09999990463,235610.29999995232,234936.94,234939.5,234953.61,235620.575,,5,"it,"
screen,html.Screen,0_4_1_0_1_6,2021-12-10T11:54:28.592Z,,,,,,,,,,,,,,,,51,,,,,,,,,,,,,,677.7249999523046,,response,,,13,D,,,,,Space,keypress(Space),,,,silence,-------- -------- --- --- ---- --- but ------ -- --------<br>---- --------- --- ------- ------------ ---------- ---------<br>--- ---------- ------- ---------- ------- -- -------- ----<br>---- --- ------ ----- ------ -- ---- --- ----- -- - -------<br>-------- -- --- --- -- ----- ----------- ----- -----------<br>---- --- ---------- --- ---- --- -- ----------,236299.09999990463,236298.29999995232,235603.904,235611.29999995232,235620.575,236304.004,,6,but
screen,html.Screen,0_4_1_0_1_7,2021-12-10T11:54:29.264Z,,,,,,,,,,,,,,,,51,,,,,,,,,,,,,,666.1959999284882,,response,,,13,D,,,,,Space,keypress(Space),,,,silence,-------- -------- --- --- ---- --- --- debate -- --------<br>---- --------- --- ------- ------------ ---------- ---------<br>--- ---------- ------- ---------- ------- -- -------- ----<br>---- --- ------ ----- ------ -- ---- --- ----- -- - -------<br>-------- -- --- --- -- ----- ----------- ----- -----------<br>---- --- ---------- --- ---- --- -- ----------,236971.09999990463,236970.19999992847,236287.334,236299.29999995232,236304.004,236987.531,,7,debate
screen,html.Screen,0_4_1_0_1_8,2021-12-10T11:54:29.936Z,,,,,,,,,,,,,,,,51,,,,,,,,,,,,,,654.6689999284863,,response,,,13,D,,,,,Space,keypress(Space),,,,silence,-------- -------- --- --- ---- --- --- ------ in --------<br>---- --------- --- ------- ------------ ---------- ---------<br>--- ---------- ------- ---------- ------- -- -------- ----<br>---- --- ------ ----- ------ -- ---- --- ----- -- - -------<br>-------- -- --- --- -- ----- ----------- ----- -----------<br>---- --- ---------- --- ---- --- -- ----------,237643,237642.19999992847,236970.861,236971.29999995232,236987.531,237654.35,,8,in
screen,html.Screen,0_4_1_0_1_9,2021-12-10T11:54:31.088Z,,,,,,,,,,,,,,,,51,,,,,,,,,,,,,,1139.7499999046267,,response,,,13,D,,,,,Space,keypress(Space),,,,silence,-------- -------- --- --- ---- --- --- ------ -- Congress<br>---- --------- --- ------- ------------ ---------- ---------<br>--- ---------- ------- ---------- ------- -- -------- ----<br>---- --- ------ ----- ------ -- ---- --- ----- -- - -------<br>-------- -- --- --- -- ----- ----------- ----- -----------<br>---- --- ---------- --- ---- --- -- ----------,238795,238794.09999990463,237637.68,237643.19999992847,237654.35,238804.633,,9,Congress
screen,html.Screen,0_4_1_0_1_10,2021-12-10T11:54:31.839Z,,,,,,,,,,,,,,,,51,,,,,,,,,,,,,,741.4669999046309,,response,,,13,D,,,,,Space,keypress(Space),,,,silence,-------- -------- --- --- ---- --- --- ------ -- --------<br>over --------- --- ------- ------------ ---------- ---------<br>--- ---------- ------- ---------- ------- -- -------- ----<br>---- --- ------ ----- ------ -- ---- --- ----- -- - -------<br>-------- -- --- --- -- ----- ----------- ----- -----------<br>---- --- ---------- --- ---- --- -- ----------,239546.89999997616,239546.09999990463,238787.963,238795.19999992847,238804.633,239554.853,,10,over
screen,html.Screen,0_4_1_0_1_11,2021-12-10T11:54:32.603Z,,,,,,,,,,,,,,,,51,,,,,,,,,,,,,,751.1469999999972,,response,,,13,D,,,,,Space,keypress(Space),,,,silence,-------- -------- --- --- ---- --- --- ------ -- --------<br>---- reforming --- ------- ------------ ---------- ---------<br>--- ---------- ------- ---------- ------- -- -------- ----<br>---- --- ------ ----- ------ -- ---- --- ----- -- - -------<br>-------- -- --- --- -- ----- ----------- ----- -----------<br>---- --- ---------- --- ---- --- -- ----------,240306.79999995232,240306,239538.183,239547.09999990463,239554.853,240321.715,,11,reforming
screen,html.Screen,0_4_1_0_1_12,2021-12-10T11:54:33.339Z,,,,,,,,,,,,,,,,51,,,,,,,,,,,,,,720.2850000000035,,response,,,13,D,,,,,Space,keypress(Space),,,,silence,-------- -------- --- --- ---- --- --- ------ -- --------<br>---- --------- the ------- ------------ ---------- ---------<br>--- ---------- ------- ---------- ------- -- -------- ----<br>---- --- ------ ----- ------ -- ---- --- ----- -- - -------<br>-------- -- --- --- -- ----- ----------- ----- -----------<br>---- --- ---------- --- ---- --- -- ----------,241042.89999997616,241042,240305.045,240307,240321.715,241055.308,,12,the
screen,html.Screen,0_4_1_0_1_13,2021-12-10T11:54:34.227Z,,,,,,,,,,,,,,,,51,,,,,,,,,,,,,,874.9919999523263,,response,,,13,D,,,,,Space,keypress(Space),,,,silence,-------- -------- --- --- ---- --- --- ------ -- --------<br>---- --------- --- federal ------------ ---------- ---------<br>--- ---------- ------- ---------- ------- -- -------- ----<br>---- --- ------ ----- ------ -- ---- --- ----- -- - -------<br>-------- -- --- --- -- ----- ----------- ----- -----------<br>---- --- ---------- --- ---- --- -- ----------,241931.09999990463,241930.29999995232,241038.637,241043.09999990463,241055.308,241938.783,,13,federal
screen,html.Screen,0_4_1_0_1_14,2021-12-10T11:54:34.899Z,,,,,,,,,,,,,,,,51,,,,,,,,,,,,,,663.1169999761623,,response,,,13,D,,,,,Space,keypress(Space),,,,silence,-------- -------- --- --- ---- --- --- ------ -- --------<br>---- --------- --- ------- government's ---------- ---------<br>--- ---------- ------- ---------- ------- -- -------- ----<br>---- --- ------ ----- ------ -- ---- --- ----- -- - -------<br>-------- -- --- --- -- ----- ----------- ----- -----------<br>---- --- ---------- --- ---- --- -- ----------,242602.69999992847,242601.89999997616,241922.113,241931.39999997616,241938.783,242605.62,,14,government's
screen,html.Screen,0_4_1_0_1_15,2021-12-10T11:54:35.739Z,,,,,,,,,,,,,,,,51,,,,,,,,,,,,,,836.2799999761628,,response,,,13,D,,,,,Space,keypress(Space),,,,silence,-------- -------- --- --- ---- --- --- ------ -- --------<br>---- --------- --- ------- ------------ regulatory ---------<br>--- ---------- ------- ---------- ------- -- -------- ----<br>---- --- ------ ----- ------ -- ---- --- ----- -- - -------<br>-------- -- --- --- -- ----- ----------- ----- -----------<br>---- --- ---------- --- ---- --- -- ----------,243442.59999990463,243441.89999997616,242588.95,242603,242605.62,243455.921,,15,regulatory
screen,html.Screen,0_4_1_0_1_16,2021-12-10T11:54:36.658Z,,,,,,,,,,,,,,,,51,,,,,,,,,,,,,,905.978999976156,,response,,,13,D,,,,,Space,keypress(Space),,,,silence,-------- -------- --- --- ---- --- --- ------ -- --------<br>---- --------- --- ------- ------------ ---------- apparatus<br>--- ---------- ------- ---------- ------- -- -------- ----<br>---- --- ------ ----- ------ -- ---- --- ----- -- - -------<br>-------- -- --- --- -- ----- ----------- ----- -----------<br>---- --- ---------- --- ---- --- -- ----------,244362.59999990463,244361.89999997616,243439.25,243442.89999997616,243455.921,244372.763,,16,apparatus
screen,html.Screen,0_4_1_0_1_17,2021-12-10T11:54:37.595Z,,,,,,,,,,,,,,,,51,,,,,,,,,,,,,,925.03699995231,,response,,,13,D,,,,,Space,keypress(Space),,,,silence,-------- -------- --- --- ---- --- --- ------ -- --------<br>---- --------- --- ------- ------------ ---------- ---------<br>may ---------- ------- ---------- ------- -- -------- ----<br>---- --- ------ ----- ------ -- ---- --- ----- -- - -------<br>-------- -- --- --- -- ----- ----------- ----- -----------<br>---- --- ---------- --- ---- --- -- ----------,245298.69999992847,245297.79999995232,244356.093,244362.79999995232,244372.763,245306.343,,17,may
screen,html.Screen,0_4_1_0_1_18,2021-12-10T11:54:38.339Z,,,,,,,,,,,,,,,,51,,,,,,,,,,,,,,735.356999928481,,response,,,13,D,,,,,Space,keypress(Space),,,,silence,-------- -------- --- --- ---- --- --- ------ -- --------<br>---- --------- --- ------- ------------ ---------- ---------<br>--- profoundly ------- ---------- ------- -- -------- ----<br>---- --- ------ ----- ------ -- ---- --- ----- -- - -------<br>-------- -- --- --- -- ----- ----------- ----- -----------<br>---- --- ---------- --- ---- --- -- ----------,246042.79999995232,246041.69999992847,245289.673,245298.89999997616,245306.343,246056.552,,18,profoundly
screen,html.Screen,0_4_1_0_1_19,2021-12-10T11:54:39.130Z,,,,,,,,,,,,,,,,51,,,,,,,,,,,,,,777.1479999284784,,response,,,13,D,,,,,Space,keypress(Space),,,,silence,-------- -------- --- --- ---- --- --- ------ -- --------<br>---- --------- --- ------- ------------ ---------- ---------<br>--- ---------- improve ---------- ------- -- -------- ----<br>---- --- ------ ----- ------ -- ---- --- ----- -- - -------<br>-------- -- --- --- -- ----- ----------- ----- -----------<br>---- --- ---------- --- ---- --- -- ----------,246834.5,246833.69999992847,246039.882,246043,246056.552,246840.009,,19,improve
screen,html.Screen,0_4_1_0_1_20,2021-12-10T11:54:39.954Z,,,,,,,,,,,,,,,,51,,,,,,,,,,,,,,817.6909999284835,,response,,,13,D,,,,,Space,keypress(Space),,,,silence,-------- -------- --- --- ---- --- --- ------ -- --------<br>---- --------- --- ------- ------------ ---------- ---------<br>--- ---------- ------- companies' ------- -- -------- ----<br>---- --- ------ ----- ------ -- ---- --- ----- -- - -------<br>-------- -- --- --- -- ----- ----------- ----- -----------<br>---- --- ---------- --- ---- --- -- ----------,247658.5,247657.69999992847,246823.339,246834.69999992847,246840.009,247673.72,,20,companies'
screen,html.Screen,0_4_1_0_1_21,2021-12-10T11:54:40.746Z,,,,,,,,,,,,,,,,51,,,,,,,,,,,,,,775.8799999046314,,response,,,13,D,,,,,Space,keypress(Space),,,,silence,-------- -------- --- --- ---- --- --- ------ -- --------<br>---- --------- --- ------- ------------ ---------- ---------<br>--- ---------- ------- ---------- ability -- -------- ----<br>---- --- ------ ----- ------ -- ---- --- ----- -- - -------<br>-------- -- --- --- -- ----- ----------- ----- -----------<br>---- --- ---------- --- ---- --- -- ----------,248450.39999997616,248449.59999990463,247657.049,247658.69999992847,247673.72,248457.165,,21,ability
screen,html.Screen,0_4_1_0_1_22,2021-12-10T11:54:41.450Z,,,,,,,,,,,,,,,,51,,,,,,,,,,,,,,696.4349999046244,,response,,,13,D,,,,,Space,keypress(Space),,,,silence,-------- -------- --- --- ---- --- --- ------ -- --------<br>---- --------- --- ------- ------------ ---------- ---------<br>--- ---------- ------- ---------- ------- to -------- ----<br>---- --- ------ ----- ------ -- ---- --- ----- -- - -------<br>-------- -- --- --- -- ----- ----------- ----- -----------<br>---- --- ---------- --- ---- --- -- ----------,249154.29999995232,249153.59999990463,248440.495,248450.59999990463,248457.165,249157.42,,22,to
screen,html.Screen,0_4_1_0_1_23,2021-12-10T11:54:42.298Z,,,,,,,,,,,,,,,,51,,,,,,,,,,,,,,844.0799999999872,,response,,,13,D,,,,,Space,keypress(Space),,,,silence,-------- -------- --- --- ---- --- --- ------ -- --------<br>---- --------- --- ------- ------------ ---------- ---------<br>--- ---------- ------- ---------- ------- -- survive. ----<br>---- --- ------ ----- ------ -- ---- --- ----- -- - -------<br>-------- -- --- --- -- ----- ----------- ----- -----------<br>---- --- ---------- --- ---- --- -- ----------,250002.29999995232,250001.5,249140.749,249154.59999990463,249157.42,250007.558,,23,survive.
screen,html.Screen,0_4_1_0_1_24,2021-12-10T11:54:42.938Z,,,,,,,,,,,,,,,,51,,,,,,,,,,,,,,633.94200000001,,response,,,13,D,,,,,Space,keypress(Space),,,,silence,-------- -------- --- --- ---- --- --- ------ -- --------<br>---- --------- --- ------- ------------ ---------- ---------<br>--- ---------- ------- ---------- ------- -- -------- This<br>---- --- ------ ----- ------ -- ---- --- ----- -- - -------<br>-------- -- --- --- -- ----- ----------- ----- -----------<br>---- --- ---------- --- ---- --- -- ----------,250642.29999995232,250641.5,249990.888,250002.5,250007.558,250657.692,,24,This
screen,html.Screen,0_4_1_0_1_25,2021-12-10T11:54:43.442Z,,,,,,,,,,,,,,,,51,,,,,,,,,,,,,,487.70799997614813,,response,,,13,D,,,,,Space,keypress(Space),,,,silence,-------- -------- --- --- ---- --- --- ------ -- --------<br>---- --------- --- ------- ------------ ---------- ---------<br>--- ---------- ------- ---------- ------- -- -------- ----<br>week --- ------ ----- ------ -- ---- --- ----- -- - -------<br>-------- -- --- --- -- ----- ----------- ----- -----------<br>---- --- ---------- --- ---- --- -- ----------,251146.19999992847,251145.39999997616,250641.022,250642.59999990463,250657.692,251157.926,,25,week
screen,html.Screen,0_4_1_0_1_26,2021-12-10T11:54:44.162Z,,,,,,,,,,,,,,,,51,,,,,,,,,,,,,,707.4739999761514,,response,,,13,D,,,,,Space,keypress(Space),,,,silence,-------- -------- --- --- ---- --- --- ------ -- --------<br>---- --------- --- ------- ------------ ---------- ---------<br>--- ---------- ------- ---------- ------- -- -------- ----<br>---- the ------ ----- ------ -- ---- --- ----- -- - -------<br>-------- -- --- --- -- ----- ----------- ----- -----------<br>---- --- ---------- --- ---- --- -- ----------,251866.19999992847,251865.39999997616,251141.255,251146.39999997616,251157.926,251874.785,,26,the
screen,html.Screen,0_4_1_0_1_27,2021-12-10T11:54:44.906Z,,,,,,,,,,,,,,,,51,,,,,,,,,,,,,,734.9149999284709,,response,,,13,D,,,,,Space,keypress(Space),,,,silence,-------- -------- --- --- ---- --- --- ------ -- --------<br>---- --------- --- ------- ------------ ---------- ---------<br>--- ---------- ------- ---------- ------- -- -------- ----<br>---- --- Senate ----- ------ -- ---- --- ----- -- - -------<br>-------- -- --- --- -- ----- ----------- ----- -----------<br>---- --- ---------- --- ---- --- -- ----------,252610.5,252609.69999992847,251858.114,251866.39999997616,251874.785,252624.906,,27,Senate
screen,html.Screen,0_4_1_0_1_28,2021-12-10T11:54:45.450Z,,,,,,,,,,,,,,,,51,,,,,,,,,,,,,,528.49399997617,,response,,,13,D,,,,,Space,keypress(Space),,,,silence,-------- -------- --- --- ---- --- --- ------ -- --------<br>---- --------- --- ------- ------------ ---------- ---------<br>--- ---------- ------- ---------- ------- -- -------- ----<br>---- --- ------ seems ------ -- ---- --- ----- -- - -------<br>-------- -- --- --- -- ----- ----------- ----- -----------<br>---- --- ---------- --- ---- --- -- ----------,253154.29999995232,253153.39999997616,252608.236,252610.79999995232,252624.906,253158.41,,28,seems
screen,html.Screen,0_4_1_0_1_29,2021-12-10T11:54:46.026Z,,,,,,,,,,,,,,,,51,,,,,,,,,,,,,,570.9899999761546,,response,,,13,D,,,,,Space,keypress(Space),,,,silence,-------- -------- --- --- ---- --- --- ------ -- --------<br>---- --------- --- ------- ------------ ---------- ---------<br>--- ---------- ------- ---------- ------- -- -------- ----<br>---- --- ------ ----- poised -- ---- --- ----- -- - -------<br>-------- -- --- --- -- ----- ----------- ----- -----------<br>---- --- ---------- --- ---- --- -- ----------,253730.19999992847,253729.39999997616,253141.74,253154.5,253158.41,253741.948,,29,poised
screen,html.Screen,0_4_1_0_1_30,2021-12-10T11:54:46.498Z,,,,,,,,,,,,,,,,51,,,,,,,,,,,,,,459.4519999761542,,response,,,13,D,,,,,Space,keypress(Space),,,,silence,-------- -------- --- --- ---- --- --- ------ -- --------<br>---- --------- --- ------- ------------ ---------- ---------<br>--- ---------- ------- ---------- ------- -- -------- ----<br>---- --- ------ ----- ------ to ---- --- ----- -- - -------<br>-------- -- --- --- -- ----- ----------- ----- -----------<br>---- --- ---------- --- ---- --- -- ----------,254202.09999990463,254201.39999997616,253725.277,253730.39999997616,253741.948,254208.639,,30,to
screen,html.Screen,0_4_1_0_1_31,2021-12-10T11:54:47.058Z,,,,,,,,,,,,,,,,51,,,,,,,,,,,,,,552.6609999523207,,response,,,13,D,,,,,Space,keypress(Space),,,,silence,-------- -------- --- --- ---- --- --- ------ -- --------<br>---- --------- --- ------- ------------ ---------- ---------<br>--- ---------- ------- ---------- ------- -- -------- ----<br>---- --- ------ ----- ------ -- join --- ----- -- - -------<br>-------- -- --- --- -- ----- ----------- ----- -----------<br>---- --- ---------- --- ---- --- -- ----------,254762.09999990463,254761.29999995232,254191.969,254202.29999995232,254208.639,254775.535,,31,join
screen,html.Screen,0_4_1_0_1_32,2021-12-10T11:54:47.538Z,,,,,,,,,,,,,,,,51,,,,,,,,,,,,,,465.7649999523128,,response,,,13,D,,,,,Space,keypress(Space),,,,silence,-------- -------- --- --- ---- --- --- ------ -- --------<br>---- --------- --- ------- ------------ ---------- ---------<br>--- ---------- ------- ---------- ------- -- -------- ----<br>---- --- ------ ----- ------ -- ---- the ----- -- - -------<br>-------- -- --- --- -- ----- ----------- ----- -----------<br>---- --- ---------- --- ---- --- -- ----------,255242.09999990463,255241.29999995232,254758.864,254762.39999997616,254775.535,255258.94,,32,the
screen,html.Screen,0_4_1_0_1_33,2021-12-10T11:54:48.170Z,,,,,,,,,,,,,,,,51,,,,,,,,,,,,,,614.2599999284721,,response,,,13,D,,,,,Space,keypress(Space),,,,silence,-------- -------- --- --- ---- --- --- ------ -- --------<br>---- --------- --- ------- ------------ ---------- ---------<br>--- ---------- ------- ---------- ------- -- -------- ----<br>---- --- ------ ----- ------ -- ---- --- House -- - -------<br>-------- -- --- --- -- ----- ----------- ----- -----------<br>---- --- ---------- --- ---- --- -- ----------,255874,255873.19999992847,255242.27,255242.39999997616,255258.94,255875.774,,33,House
screen,html.Screen,0_4_1_0_1_34,2021-12-10T11:54:48.610Z,,,,,,,,,,,,,,,,51,,,,,,,,,,,,,,437.42599992846954,,response,,,13,D,,,,,Space,keypress(Space),,,,silence,-------- -------- --- --- ---- --- --- ------ -- --------<br>---- --------- --- ------- ------------ ---------- ---------<br>--- ---------- ------- ---------- ------- -- -------- ----<br>---- --- ------ ----- ------ -- ---- --- ----- in - -------<br>-------- -- --- --- -- ----- ----------- ----- -----------<br>---- --- ---------- --- ---- --- -- ----------,256314.09999990463,256313.19999992847,255859.104,255874.39999997616,255875.774,256325.946,,34,in
screen,html.Screen,0_4_1_0_1_35,2021-12-10T11:54:49.098Z,,,,,,,,,,,,,,,,51,,,,,,,,,,,,,,475.25399992847815,,response,,,13,D,,,,,Space,keypress(Space),,,,silence,-------- -------- --- --- ---- --- --- ------ -- --------<br>---- --------- --- ------- ------------ ---------- ---------<br>--- ---------- ------- ---------- ------- -- -------- ----<br>---- --- ------ ----- ------ -- ---- --- ----- -- a -------<br>-------- -- --- --- -- ----- ----------- ----- -----------<br>---- --- ---------- --- ---- --- -- ----------,256802,256801.19999992847,256309.275,256314.39999997616,256325.946,256809.364,,35,a
screen,html.Screen,0_4_1_0_1_36,2021-12-10T11:54:49.754Z,,,,,,,,,,,,,,,,51,,,,,,,,,,,,,,647.7359999046312,,response,,,13,D,,,,,Space,keypress(Space),,,,silence,-------- -------- --- --- ---- --- --- ------ -- --------<br>---- --------- --- ------- ------------ ---------- ---------<br>--- ---------- ------- ---------- ------- -- -------- ----<br>---- --- ------ ----- ------ -- ---- --- ----- -- - massive<br>-------- -- --- --- -- ----- ----------- ----- -----------<br>---- --- ---------- --- ---- --- -- ----------,257458,257457.09999990463,256792.694,256802.29999995232,256809.364,257459.525,,36,massive
screen,html.Screen,0_4_1_0_1_37,2021-12-10T11:54:50.698Z,,,,,,,,,,,,,,,,51,,,,,,,,,,,,,,941.5749999046384,,response,,,13,D,,,,,Space,keypress(Space),,,,silence,-------- -------- --- --- ---- --- --- ------ -- --------<br>---- --------- --- ------- ------------ ---------- ---------<br>--- ---------- ------- ---------- ------- -- -------- ----<br>---- --- ------ ----- ------ -- ---- --- ----- -- - -------<br>overhaul -- --- --- -- ----- ----------- ----- -----------<br>---- --- ---------- --- ---- --- -- ----------,258401.89999997616,258401.09999990463,257442.855,257458.29999995232,257459.525,258409.759,,37,overhaul
screen,html.Screen,0_4_1_0_1_38,2021-12-10T11:54:51.482Z,,,,,,,,,,,,,,,,51,,,,,,,,,,,,,,775.3409999046416,,response,,,13,D,,,,,Space,keypress(Space),,,,silence,-------- -------- --- --- ---- --- --- ------ -- --------<br>---- --------- --- ------- ------------ ---------- ---------<br>--- ---------- ------- ---------- ------- -- -------- ----<br>---- --- ------ ----- ------ -- ---- --- ----- -- - -------<br>-------- of --- --- -- ----- ----------- ----- -----------<br>---- --- ---------- --- ---- --- -- ----------,259185.79999995232,259185.09999990463,258393.089,258402.19999992847,258409.759,259193.123,,38,of
screen,html.Screen,0_4_1_0_1_39,2021-12-10T11:54:52.018Z,,,,,,,,,,,,,,,,51,,,,,,,,,,,,,,527.8770000000077,,response,,,13,D,,,,,Space,keypress(Space),,,,silence,-------- -------- --- --- ---- --- --- ------ -- --------<br>---- --------- --- ------- ------------ ---------- ---------<br>--- ---------- ------- ---------- ------- -- -------- ----<br>---- --- ------ ----- ------ -- ---- --- ----- -- - -------<br>-------- -- the --- -- ----- ----------- ----- -----------<br>---- --- ---------- --- ---- --- -- ----------,259721.89999997616,259721,259176.454,259186.09999990463,259193.123,259726.858,,39,the
screen,html.Screen,0_4_1_0_1_40,2021-12-10T11:54:52.642Z,,,,,,,,,,,,,,,,51,,,,,,,,,,,,,,618.1419999999925,,response,,,13,D,,,,,Space,keypress(Space),,,,silence,-------- -------- --- --- ---- --- --- ------ -- --------<br>---- --------- --- ------- ------------ ---------- ---------<br>--- ---------- ------- ---------- ------- -- -------- ----<br>---- --- ------ ----- ------ -- ---- --- ----- -- - -------<br>-------- -- --- way -- ----- ----------- ----- -----------<br>---- --- ---------- --- ---- --- -- ----------,260345.79999995232,260345,259710.187,259722.19999992847,259726.858,260360.342,,40,way
screen,html.Screen,0_4_1_0_1_41,2021-12-10T11:54:53.258Z,,,,,,,,,,,,,,,,51,,,,,,,,,,,,,,600.557999976154,,response,,,13,D,,,,,Space,keypress(Space),,,,silence,-------- -------- --- --- ---- --- --- ------ -- --------<br>---- --------- --- ------- ------------ ---------- ---------<br>--- ---------- ------- ---------- ------- -- -------- ----<br>---- --- ------ ----- ------ -- ---- --- ----- -- - -------<br>-------- -- --- --- in ----- ----------- ----- -----------<br>---- --- ---------- --- ---- --- -- ----------,260961.79999995232,260960.89999997616,260343.671,260346.09999990463,260360.342,260977.081,,41,in
screen,html.Screen,0_4_1_0_1_42,2021-12-10T11:54:53.810Z,,,,,,,,,,,,,,,,51,,,,,,,,,,,,,,535.8189999761526,,response,,,13,D,,,,,Space,keypress(Space),,,,silence,-------- -------- --- --- ---- --- --- ------ -- --------<br>---- --------- --- ------- ------------ ---------- ---------<br>--- ---------- ------- ---------- ------- -- -------- ----<br>---- --- ------ ----- ------ -- ---- --- ----- -- - -------<br>-------- -- --- --- -- which ----------- ----- -----------<br>---- --- ---------- --- ---- --- -- ----------,261513.89999997616,261512.89999997616,260960.411,260962.09999990463,260977.081,261527.247,,42,which
screen,html.Screen,0_4_1_0_1_43,2021-12-10T11:54:55.242Z,,,,,,,,,,,,,,,,51,,,,,,,,,,,,,,1418.0529999523133,,response,,,13,D,,,,,Space,keypress(Space),,,,silence,-------- -------- --- --- ---- --- --- ------ -- --------<br>---- --------- --- ------- ------------ ---------- ---------<br>--- ---------- ------- ---------- ------- -- -------- ----<br>---- --- ------ ----- ------ -- ---- --- ----- -- - -------<br>-------- -- --- --- -- ----- bureaucrats ----- -----------<br>---- --- ---------- --- ---- --- -- ----------,262946.1999999285,262945.2999999523,261510.577,261514.09999990463,261527.247,262960.88,,43,bureaucrats
screen,html.Screen,0_4_1_0_1_44,2021-12-10T11:54:56.034Z,,,,,,,,,,,,,,,,51,,,,,,,,,,,,,,776.0199999761535,,response,,,13,D,,,,,Space,keypress(Space),,,,silence,-------- -------- --- --- ---- --- --- ------ -- --------<br>---- --------- --- ------- ------------ ---------- ---------<br>--- ---------- ------- ---------- ------- -- -------- ----<br>---- --- ------ ----- ------ -- ---- --- ----- -- - -------<br>-------- -- --- --- -- ----- ----------- enact -----------<br>---- --- ---------- --- ---- --- -- ----------,263737.7999999523,263736.89999997616,262944.21,262946.39999997616,262960.88,263744.47,,44,enact
screen,html.Screen,0_4_1_0_1_45,2021-12-10T11:54:56.770Z,,,,,,,,,,,,,,,,51,,,,,,,,,,,,,,728.2299999285024,,response,,,13,D,,,,,Space,keypress(Space),,,,silence,-------- -------- --- --- ---- --- --- ------ -- --------<br>---- --------- --- ------- ------------ ---------- ---------<br>--- ---------- ------- ---------- ------- -- -------- ----<br>---- --- ------ ----- ------ -- ---- --- ----- -- - -------<br>-------- -- --- --- -- ----- ----------- ----- regulations<br>---- --- ---------- --- ---- --- -- ----------,264473.6999999285,264472.6999999285,263727.8,263738.09999990463,263744.47,264477.915,,45,regulations
screen,html.Screen,0_4_1_0_1_46,2021-12-10T11:54:57.625Z,,,,,,,,,,,,,,,,51,,,,,,,,,,,,,,850.8849999523372,,response,,,13,D,,,,,Space,keypress(Space),,,,silence,-------- -------- --- --- ---- --- --- ------ -- --------<br>---- --------- --- ------- ------------ ---------- ---------<br>--- ---------- ------- ---------- ------- -- -------- ----<br>---- --- ------ ----- ------ -- ---- --- ----- -- - -------<br>-------- -- --- --- -- ----- ----------- ----- -----------<br>that --- ---------- --- ---- --- -- ----------,265329.59999990463,265328.7999999523,264461.245,264474,264477.915,265345.034,,46,that
screen,html.Screen,0_4_1_0_1_47,2021-12-10T11:54:58.322Z,,,,,,,,,,,,,,,,51,,,,,,,,,,,,,,679.6659999284893,,response,,,13,D,,,,,Space,keypress(Space),,,,silence,-------- -------- --- --- ---- --- --- ------ -- --------<br>---- --------- --- ------- ------------ ---------- ---------<br>--- ---------- ------- ---------- ------- -- -------- ----<br>---- --- ------ ----- ------ -- ---- --- ----- -- - -------<br>-------- -- --- --- -- ----- ----------- ----- -----------<br>---- are ---------- --- ---- --- -- ----------,266025.6999999285,266024.6999999285,265328.362,265330,265345.034,266028.473,,47,are
screen,html.Screen,0_4_1_0_1_48,2021-12-10T11:54:59.049Z,,,,,,,,,,,,,,,,51,,,,,,,,,,,,,,724.1269999046344,,response,,,13,D,,,,,Space,keypress(Space),,,,silence,-------- -------- --- --- ---- --- --- ------ -- --------<br>---- --------- --- ------- ------------ ---------- ---------<br>--- ---------- ------- ---------- ------- -- -------- ----<br>---- --- ------ ----- ------ -- ---- --- ----- -- - -------<br>-------- -- --- --- -- ----- ----------- ----- -----------<br>---- --- strangling --- ---- --- -- ----------,266753.5,266752.59999990463,266011.802,266026,266028.473,266761.939,,48,strangling
screen,html.Screen,0_4_1_0_1_49,2021-12-10T11:54:59.801Z,,,,,,,,,,,,,,,,51,,,,,,,,,,,,,,742.6609999046195,,response,,,13,D,,,,,Space,keypress(Space),,,,silence,-------- -------- --- --- ---- --- --- ------ -- --------<br>---- --------- --- ------- ------------ ---------- ---------<br>--- ---------- ------- ---------- ------- -- -------- ----<br>---- --- ------ ----- ------ -- ---- --- ----- -- - -------<br>-------- -- --- --- -- ----- ----------- ----- -----------<br>---- --- ---------- the ---- --- -- ----------,267505.5,267504.59999990463,266745.269,266753.7999999523,266761.939,267512.113,,49,the
screen,html.Screen,0_4_1_0_1_50,2021-12-10T11:55:00.345Z,,,,,,,,,,,,,,,,51,,,,,,,,,,,,,,536.4869999046205,,response,,,13,D,,,,,Space,keypress(Space),,,,silence,-------- -------- --- --- ---- --- --- ------ -- --------<br>---- --------- --- ------- ------------ ---------- ---------<br>--- ---------- ------- ---------- ------- -- -------- ----<br>---- --- ------ ----- ------ -- ---- --- ----- -- - -------<br>-------- -- --- --- -- ----- ----------- ----- -----------<br>---- --- ---------- --- life --- -- ----------,268049.59999990463,268048.59999990463,267495.443,267505.7999999523,267512.113,268062.338,,50,life
