sender,sender_type,sender_id,timestamp,meta,,Blues,Classical,Country,Dance,Electronic,Folk,Gospel,Hip-Hop,Jazz,Latin,Musical/Film,New-age,Pop,Provo_ID,R&B,Rap,Reggae,Religious,Rock,Soul,Swing,Traditional,age,artist_name,correct,correctResponse,distraction,duration,education,ended_on,familiarity,gender,item,list,music_frequency,offensiveness,pleasantness,preference,response,response_action,snippet_file,song_name,song_rating,sound,text,time_commit,time_end,time_render,time_run,time_show,time_switch,url,word,word_ID
Instructions,html.Page,0_0,2021-12-03T12:05:59.918Z,"{""labjs_version"":""20.2.3"",""labjs_build"":{""flavor"":""production"",""commit"":""7ea907d66ca8aeef8054924ca5d82ffbe11e34e5""},""location"":""https://run.pavlovia.org/mvasilev/lab_music_d/"",""userAgent"":""Mozilla/5.0 (Windows NT 6.1; Win64; x64) AppleWebKit/537.36 (KHTML, like Gecko) Chrome/96.0.4664.45 Safari/537.36"",""platform"":""Win32"",""language"":""en-US"",""locale"":""en-US"",""timeZone"":""Europe/London"",""timezoneOffset"":0,""screen_width"":1920,""screen_height"":1080,""scroll_width"":1920,""scroll_height"":959,""window_innerWidth"":1920,""window_innerHeight"":1007,""devicePixelRatio"":1}",,,,,,,,,,,,,,,,,,,,,,,,,,,,,55543.017,,form submission,,,,,,,,,,,,,,,,65991.90000000596,65990.5,10414.143,10428.29999999702,10447.483,65995.7,{},,
Headphones,html.Page,0_1,2021-12-03T12:06:03.679Z,,,,,,,,,,,,,,,,,,,,,,,,,,,,,,3756.8999999940424,,form submission,,,,,,,,,,,,,,,,69753.20000000298,69752.59999999404,65979.03,65992.59999999404,65995.7,69763.315,,,
Holding screen,html.Screen,0_2_0_0,2021-12-03T12:06:13.681Z,,,,,,,,,,,,,,,,,,,,,,,,,,,,,,10002.885999999999,,timeout,,,,,,,,,,,,,,,,79755.29999999702,79749.531,69746.646,69753.90000000596,69763.315,79766.201,,,
screen,html.Screen,0_2_0_1_0,2021-12-03T12:06:14.694Z,,,,,,,,,,,,,,,,53,,,,,,,,,,,,,,1000.4990000029793,,response,,,99,,,,,,Space,keypress(Space),,,,,When -- ----- -- ------ - ------- --- ----------<br>------------- ------ ------ ---- ---- ------- ----- -- ----<br>-------- ------- -- ---------- --- - --- ----- ----- ----<br>---- --- --- ----- --- ---- ---- ------- ----- ---- -------<br>--- --- -- ----- -- --- ---- -- --- ---- -- ------ ------<br>--- ----- -- ----,80768.09999999404,80766.70000000298,79749.531,79755.79999999702,79766.201,80783.296,,0,When
screen,html.Screen,0_2_0_1_1,2021-12-03T12:06:15.085Z,,,,,,,,,,,,,,,,53,,,,,,,,,,,,,,375.30399999403744,,response,,,99,,,,,,Space,keypress(Space),,,,,---- it ----- -- ------ - ------- --- ----------<br>------------- ------ ------ ---- ---- ------- ----- -- ----<br>-------- ------- -- ---------- --- - --- ----- ----- ----<br>---- --- --- ----- --- ---- ---- ------- ----- ---- -------<br>--- --- -- ----- -- --- ---- -- --- ---- -- ------ ------<br>--- ----- -- ----,81159.5,81158.59999999404,80766.625,80768.40000000596,80783.296,81166.58,,1,it
screen,html.Screen,0_2_0_1_2,2021-12-03T12:06:15.845Z,,,,,,,,,,,,,,,,53,,,,,,,,,,,,,,752.0199999940378,,response,,,99,,,,,,Space,keypress(Space),,,,,---- -- comes -- ------ - ------- --- ----------<br>------------- ------ ------ ---- ---- ------- ----- -- ----<br>-------- ------- -- ---------- --- - --- ----- ----- ----<br>---- --- --- ----- --- ---- ---- ------- ----- ---- -------<br>--- --- -- ----- -- --- ---- -- --- ---- -- ------ ------<br>--- ----- -- ----,81919.5,81918.59999999404,81149.911,81159.79999999702,81166.58,81933.587,,2,comes
screen,html.Screen,0_2_0_1_3,2021-12-03T12:06:16.453Z,,,,,,,,,,,,,,,,53,,,,,,,,,,,,,,592.9130000000005,,response,,,99,,,,,,Space,keypress(Space),,,,,---- -- ----- to ------ - ------- --- ----------<br>------------- ------ ------ ---- ---- ------- ----- -- ----<br>-------- ------- -- ---------- --- - --- ----- ----- ----<br>---- --- --- ----- --- ---- ---- ------- ----- ---- -------<br>--- --- -- ----- -- --- ---- -- --- ---- -- ------ ------<br>--- ----- -- ----,82527.40000000596,82526.5,81916.916,81919.70000000298,81933.587,82533.704,,3,to
screen,html.Screen,0_2_0_1_4,2021-12-03T12:06:17.065Z,,,,,,,,,,,,,,,,53,,,,,,,,,,,,,,604.6960000059626,,response,,,99,,,,,,Space,keypress(Space),,,,,---- -- ----- -- having - ------- --- ----------<br>------------- ------ ------ ---- ---- ------- ----- -- ----<br>-------- ------- -- ---------- --- - --- ----- ----- ----<br>---- --- --- ----- --- ---- ---- ------- ----- ---- -------<br>--- --- -- ----- -- --- ---- -- --- ---- -- ------ ------<br>--- ----- -- ----,83139.5,83138.40000000596,82517.034,82528,82533.704,83150.649,,4,having
screen,html.Screen,0_2_0_1_5,2021-12-03T12:06:18.053Z,,,,,,,,,,,,,,,,53,,,,,,,,,,,,,,975.8509999999951,,response,,,99,,,,,,Space,keypress(Space),,,,,---- -- ----- -- ------ a ------- --- ----------<br>------------- ------ ------ ---- ---- ------- ----- -- ----<br>-------- ------- -- ---------- --- - --- ----- ----- ----<br>---- --- --- ----- --- ---- ---- ------- ----- ---- -------<br>--- --- -- ----- -- --- ---- -- --- ---- -- ------ ------<br>--- ----- -- ----,84127.5,84126.5,83133.978,83139.79999999702,83150.649,84134.004,,5,a
screen,html.Screen,0_2_0_1_6,2021-12-03T12:06:18.733Z,,,,,,,,,,,,,,,,53,,,,,,,,,,,,,,672.4959999999992,,response,,,99,,,,,,Space,keypress(Space),,,,,---- -- ----- -- ------ - lasting --- ----------<br>------------- ------ ------ ---- ---- ------- ----- -- ----<br>-------- ------- -- ---------- --- - --- ----- ----- ----<br>---- --- --- ----- --- ---- ---- ------- ----- ---- -------<br>--- --- -- ----- -- --- ---- -- --- ---- -- ------ ------<br>--- ----- -- ----,84807.40000000596,84806.5,84117.335,84127.90000000596,84134.004,84817.767,,6,lasting
screen,html.Screen,0_2_0_1_7,2021-12-03T12:06:19.357Z,,,,,,,,,,,,,,,,53,,,,,,,,,,,,,,612.7329999999929,,response,,,99,,,,,,Space,keypress(Space),,,,,---- -- ----- -- ------ - ------- and ----------<br>------------- ------ ------ ---- ---- ------- ----- -- ----<br>-------- ------- -- ---------- --- - --- ----- ----- ----<br>---- --- --- ----- --- ---- ---- ------- ----- ---- -------<br>--- --- -- ----- -- --- ---- -- --- ---- -- ------ ------<br>--- ----- -- ----,85431.40000000596,85430.5,84801.096,84807.79999999702,84817.767,85434.518,,7,and
screen,html.Screen,0_2_0_1_8,2021-12-03T12:06:19.989Z,,,,,,,,,,,,,,,,53,,,,,,,,,,,,,,627.8820000059641,,response,,,99,,,,,,Space,keypress(Space),,,,,---- -- ----- -- ------ - ------- --- fulfilling<br>------------- ------ ------ ---- ---- ------- ----- -- ----<br>-------- ------- -- ---------- --- - --- ----- ----- ----<br>---- --- --- ----- --- ---- ---- ------- ----- ---- -------<br>--- --- -- ----- -- --- ---- -- --- ---- -- ------ ------<br>--- ----- -- ----,86063.5,86062.40000000596,85417.848,85431.70000000298,85434.518,86068.025,,8,fulfilling
screen,html.Screen,0_2_0_1_9,2021-12-03T12:06:20.886Z,,,,,,,,,,,,,,,,53,,,,,,,,,,,,,,890.7749999970256,,response,,,99,,,,,,Space,keypress(Space),,,,,"---- -- ----- -- ------ - ------- --- ----------<br>relationship, ------ ------ ---- ---- ------- ----- -- ----<br>-------- ------- -- ---------- --- - --- ----- ----- ----<br>---- --- --- ----- --- ---- ---- ------- ----- ---- -------<br>--- --- -- ----- -- --- ---- -- --- ---- -- ------ ------<br>--- ----- -- ----",86959.70000000298,86958.79999999702,86051.355,86063.79999999702,86068.025,86968.243,,9,"relationship,"
screen,html.Screen,0_2_0_1_10,2021-12-03T12:06:21.477Z,,,,,,,,,,,,,,,,53,,,,,,,,,,,,,,582.0569999970176,,response,,,99,,,,,,Space,keypress(Space),,,,,---- -- ----- -- ------ - ------- --- ----------<br>------------- common ------ ---- ---- ------- ----- -- ----<br>-------- ------- -- ---------- --- - --- ----- ----- ----<br>---- --- --- ----- --- ---- ---- ------- ----- ---- -------<br>--- --- -- ----- -- --- ---- -- --- ---- -- ------ ------<br>--- ----- -- ----,87551.29999999702,87550.29999999702,86951.573,86960,86968.243,87568.373,,10,common
screen,html.Screen,0_2_0_1_11,2021-12-03T12:06:22.109Z,,,,,,,,,,,,,,,,53,,,,,,,,,,,,,,613.9269999970129,,response,,,99,,,,,,Space,keypress(Space),,,,,---- -- ----- -- ------ - ------- --- ----------<br>------------- ------ wisdom ---- ---- ------- ----- -- ----<br>-------- ------- -- ---------- --- - --- ----- ----- ----<br>---- --- --- ----- --- ---- ---- ------- ----- ---- -------<br>--- --- -- ----- -- --- ---- -- --- ---- -- ------ ------<br>--- ----- -- ----,88183.29999999702,88182.29999999702,87551.703,87551.59999999404,87568.373,88185.237,,11,wisdom
screen,html.Screen,0_2_0_1_12,2021-12-03T12:06:22.893Z,,,,,,,,,,,,,,,,53,,,,,,,,,,,,,,781.062999997026,,response,,,99,,,,,,Space,keypress(Space),,,,,---- -- ----- -- ------ - ------- --- ----------<br>------------- ------ ------ says ---- ------- ----- -- ----<br>-------- ------- -- ---------- --- - --- ----- ----- ----<br>---- --- --- ----- --- ---- ---- ------- ----- ---- -------<br>--- --- -- ----- -- --- ---- -- --- ---- -- ------ ------<br>--- ----- -- ----,88967.20000000298,88966.29999999702,88168.567,88183.5,88185.237,88968.734,,12,says
screen,html.Screen,0_2_0_1_13,2021-12-03T12:06:23.413Z,,,,,,,,,,,,,,,,53,,,,,,,,,,,,,,517.565999997023,,response,,,99,,,,,,Space,keypress(Space),,,,,---- -- ----- -- ------ - ------- --- ----------<br>------------- ------ ------ ---- that ------- ----- -- ----<br>-------- ------- -- ---------- --- - --- ----- ----- ----<br>---- --- --- ----- --- ---- ---- ------- ----- ---- -------<br>--- --- -- ----- -- --- ---- -- --- ---- -- ------ ------<br>--- ----- -- ----,89487.09999999404,89486.29999999702,88952.064,88967.59999999404,88968.734,89502.319,,13,that
screen,html.Screen,0_2_0_1_14,2021-12-03T12:06:24.093Z,,,,,,,,,,,,,,,,53,,,,,,,,,,,,,,663.8810000029771,,response,,,99,,,,,,Space,keypress(Space),,,,,---- -- ----- -- ------ - ------- --- ----------<br>------------- ------ ------ ---- ---- feeling ----- -- ----<br>-------- ------- -- ---------- --- - --- ----- ----- ----<br>---- --- --- ----- --- ---- ---- ------- ----- ---- -------<br>--- --- -- ----- -- --- ---- -- --- ---- -- ------ ------<br>--- ----- -- ----,90167,90166.20000000298,89485.648,89487.40000000596,89502.319,90169.087,,14,feeling
screen,html.Screen,0_2_0_1_15,2021-12-03T12:06:24.653Z,,,,,,,,,,,,,,,,53,,,,,,,,,,,,,,557.1130000029807,,response,,,99,,,,,,Space,keypress(Space),,,,,---- -- ----- -- ------ - ------- --- ----------<br>------------- ------ ------ ---- ---- ------- close -- ----<br>-------- ------- -- ---------- --- - --- ----- ----- ----<br>---- --- --- ----- --- ---- ---- ------- ----- ---- -------<br>--- --- -- ----- -- --- ---- -- --- ---- -- ------ ------<br>--- ----- -- ----,90727,90726.20000000298,90152.417,90167.29999999702,90169.087,90736.012,,15,close
screen,html.Screen,0_2_0_1_16,2021-12-03T12:06:25.069Z,,,,,,,,,,,,,,,,53,,,,,,,,,,,,,,405.98799999999756,,response,,,99,,,,,,Space,keypress(Space),,,,,---- -- ----- -- ------ - ------- --- ----------<br>------------- ------ ------ ---- ---- ------- ----- to ----<br>-------- ------- -- ---------- --- - --- ----- ----- ----<br>---- --- --- ----- --- ---- ---- ------- ----- ---- -------<br>--- --- -- ----- -- --- ---- -- --- ---- -- ------ ------<br>--- ----- -- ----,91142.59999999404,91142,90719.341,90727.20000000298,90736.012,91152.714,,16,to
screen,html.Screen,0_2_0_1_17,2021-12-03T12:06:25.485Z,,,,,,,,,,,,,,,,53,,,,,,,,,,,,,,405.486000002973,,response,,,99,,,,,,Space,keypress(Space),,,,,---- -- ----- -- ------ - ------- --- ----------<br>------------- ------ ------ ---- ---- ------- ----- -- your<br>-------- ------- -- ---------- --- - --- ----- ----- ----<br>---- --- --- ----- --- ---- ---- ------- ----- ---- -------<br>--- --- -- ----- -- --- ---- -- --- ---- -- ------ ------<br>--- ----- -- ----,91559,91558.20000000298,91136.044,91142.70000000298,91152.714,91569.486,,17,your
screen,html.Screen,0_2_0_1_18,2021-12-03T12:06:25.869Z,,,,,,,,,,,,,,,,53,,,,,,,,,,,,,,372.7140000029758,,response,,,99,,,,,,Space,keypress(Space),,,,,---- -- ----- -- ------ - ------- --- ----------<br>------------- ------ ------ ---- ---- ------- ----- -- ----<br>romantic ------- -- ---------- --- - --- ----- ----- ----<br>---- --- --- ----- --- ---- ---- ------- ----- ---- -------<br>--- --- -- ----- -- --- ---- -- --- ---- -- ------ ------<br>--- ----- -- ----,91943,91942.20000000298,91552.816,91559.20000000298,91569.486,91952.969,,18,romantic
screen,html.Screen,0_2_0_1_19,2021-12-03T12:06:27.437Z,,,,,,,,,,,,,,,,53,,,,,,,,,,,,,,1557.1309999940422,,response,,,99,,,,,,Space,keypress(Space),,,,,---- -- ----- -- ------ - ------- --- ----------<br>------------- ------ ------ ---- ---- ------- ----- -- ----<br>-------- partner -- ---------- --- - --- ----- ----- ----<br>---- --- --- ----- --- ---- ---- ------- ----- ---- -------<br>--- --- -- ----- -- --- ---- -- --- ---- -- ------ ------<br>--- ----- -- ----,93510.90000000596,93510.09999999404,91936.298,91943.29999999702,91952.969,93519.91,,19,partner
screen,html.Screen,0_2_0_1_20,2021-12-03T12:06:28.885Z,,,,,,,,,,,,,,,,53,,,,,,,,,,,,,,1438.0899999999965,,response,,,99,,,,,,Space,keypress(Space),,,,,---- -- ----- -- ------ - ------- --- ----------<br>------------- ------ ------ ---- ---- ------- ----- -- ----<br>-------- ------- is ---------- --- - --- ----- ----- ----<br>---- --- --- ----- --- ---- ---- ------- ----- ---- -------<br>--- --- -- ----- -- --- ---- -- --- ---- -- ------ ------<br>--- ----- -- ----,94958.70000000298,94958,93503.24,93511.09999999404,93519.91,94970.23,,20,is
screen,html.Screen,0_2_0_1_21,2021-12-03T12:06:29.965Z,,,,,,,,,,,,,,,,53,,,,,,,,,,,,,,1067.6700000059645,,response,,,99,,,,,,Space,keypress(Space),,,,,---- -- ----- -- ------ - ------- --- ----------<br>------------- ------ ------ ---- ---- ------- ----- -- ----<br>-------- ------- -- paramount. --- - --- ----- ----- ----<br>---- --- --- ----- --- ---- ---- ------- ----- ---- -------<br>--- --- -- ----- -- --- ---- -- --- ---- -- ------ ------<br>--- ----- -- ----,96038.90000000596,96037.90000000596,94953.56,94959,94970.23,96053.96,,21,paramount.
screen,html.Screen,0_2_0_1_22,2021-12-03T12:06:30.485Z,,,,,,,,,,,,,,,,53,,,,,,,,,,,,,,503.83999999701336,,response,,,99,,,,,,Space,keypress(Space),,,,,---- -- ----- -- ------ - ------- --- ----------<br>------------- ------ ------ ---- ---- ------- ----- -- ----<br>-------- ------- -- ---------- But - --- ----- ----- ----<br>---- --- --- ----- --- ---- ---- ------- ----- ---- -------<br>--- --- -- ----- -- --- ---- -- --- ---- -- ------ ------<br>--- ----- -- ----,96558.70000000298,96557.79999999702,96037.29,96039.40000000596,96053.96,96570.704,,22,But
screen,html.Screen,0_2_0_1_23,2021-12-03T12:06:30.589Z,,,,,,,,,,,,,,,,53,,,,,,,,,,,,,,91.2960000000021,,response,,,99,,,,,,Space,keypress(Space),,,,,---- -- ----- -- ------ - ------- --- ----------<br>------------- ------ ------ ---- ---- ------- ----- -- ----<br>-------- ------- -- ---------- --- a --- ----- ----- ----<br>---- --- --- ----- --- ---- ---- ------- ----- ---- -------<br>--- --- -- ----- -- --- ---- -- --- ---- -- ------ ------<br>--- ----- -- ----,96662.70000000298,96662,96554.034,96559,96570.704,96670.912,,23,a
screen,html.Screen,0_2_0_1_24,2021-12-03T12:06:31.205Z,,,,,,,,,,,,,,,,53,,,,,,,,,,,,,,607.2880000029836,,response,,,99,,,,,,Space,keypress(Space),,,,,---- -- ----- -- ------ - ------- --- ----------<br>------------- ------ ------ ---- ---- ------- ----- -- ----<br>-------- ------- -- ---------- --- - new ----- ----- ----<br>---- --- --- ----- --- ---- ---- ------- ----- ---- -------<br>--- --- -- ----- -- --- ---- -- --- ---- -- ------ ------<br>--- ----- -- ----,97279,97278.20000000298,96654.241,96663,96670.912,97287.668,,24,new
screen,html.Screen,0_2_0_1_25,2021-12-03T12:06:31.677Z,,,,,,,,,,,,,,,,53,,,,,,,,,,,,,,462.23200000595534,,response,,,99,,,,,,Space,keypress(Space),,,,,---- -- ----- -- ------ - ------- --- ----------<br>------------- ------ ------ ---- ---- ------- ----- -- ----<br>-------- ------- -- ---------- --- - --- study ----- ----<br>---- --- --- ----- --- ---- ---- ------- ----- ---- -------<br>--- --- -- ----- -- --- ---- -- --- ---- -- ------ ------<br>--- ----- -- ----,97750.59999999404,97749.90000000596,97270.998,97279.29999999702,97287.668,97754.365,,25,study
screen,html.Screen,0_2_0_1_26,2021-12-03T12:06:32.093Z,,,,,,,,,,,,,,,,53,,,,,,,,,,,,,,411.43499999701453,,response,,,99,,,,,,Space,keypress(Space),,,,,---- -- ----- -- ------ - ------- --- ----------<br>------------- ------ ------ ---- ---- ------- ----- -- ----<br>-------- ------- -- ---------- --- - --- ----- finds ----<br>---- --- --- ----- --- ---- ---- ------- ----- ---- -------<br>--- --- -- ----- -- --- ---- -- --- ---- -- ------ ------<br>--- ----- -- ----,98166.70000000298,98165.79999999702,97737.696,97750.90000000596,97754.365,98171.305,,26,finds
screen,html.Screen,0_2_0_1_27,2021-12-03T12:06:32.653Z,,,,,,,,,,,,,,,,53,,,,,,,,,,,,,,554.5950000059674,,response,,,99,,,,,,Space,keypress(Space),,,,,---- -- ----- -- ------ - ------- --- ----------<br>------------- ------ ------ ---- ---- ------- ----- -- ----<br>-------- ------- -- ---------- --- - --- ----- ----- that<br>---- --- --- ----- --- ---- ---- ------- ----- ---- -------<br>--- --- -- ----- -- --- ---- -- --- ---- -- ------ ------<br>--- ----- -- ----,98726.59999999404,98725.90000000596,98154.634,98166.79999999702,98171.305,98738.044,,27,that
screen,html.Screen,0_2_0_1_28,2021-12-03T12:06:33.116Z,,,,,,,,,,,,,,,,53,,,,,,,,,,,,,,451.75599999702536,,response,,,99,,,,,,Space,keypress(Space),,,,,---- -- ----- -- ------ - ------- --- ----------<br>------------- ------ ------ ---- ---- ------- ----- -- ----<br>-------- ------- -- ---------- --- - --- ----- ----- ----<br>it's --- --- ----- --- ---- ---- ------- ----- ---- -------<br>--- --- -- ----- -- --- ---- -- --- ---- -- ------ ------<br>--- ----- -- ----,99190.5,99189.79999999702,98721.374,98726.90000000596,98738.044,99204.852,,28,it's
screen,html.Screen,0_2_0_1_29,2021-12-03T12:06:33.493Z,,,,,,,,,,,,,,,,53,,,,,,,,,,,,,,360.8480000029813,,response,,,99,,,,,,Space,keypress(Space),,,,,---- -- ----- -- ------ - ------- --- ----------<br>------------- ------ ------ ---- ---- ------- ----- -- ----<br>-------- ------- -- ---------- --- - --- ----- ----- ----<br>---- not --- ----- --- ---- ---- ------- ----- ---- -------<br>--- --- -- ----- -- --- ---- -- --- ---- -- ------ ------<br>--- ----- -- ----,99566.59999999404,99565.70000000298,99188.182,99190.70000000298,99204.852,99571.629,,29,not
screen,html.Screen,0_2_0_1_30,2021-12-03T12:06:33.781Z,,,,,,,,,,,,,,,,53,,,,,,,,,,,,,,282.0710000029794,,response,,,99,,,,,,Space,keypress(Space),,,,,---- -- ----- -- ------ - ------- --- ----------<br>------------- ------ ------ ---- ---- ------- ----- -- ----<br>-------- ------- -- ---------- --- - --- ----- ----- ----<br>---- --- how ----- --- ---- ---- ------- ----- ---- -------<br>--- --- -- ----- -- --- ---- -- --- ---- -- ------ ------<br>--- ----- -- ----,99854.70000000298,99853.70000000298,99554.959,99566.90000000596,99571.629,99871.703,,30,how
screen,html.Screen,0_2_0_1_31,2021-12-03T12:06:34.132Z,,,,,,,,,,,,,,,,53,,,,,,,,,,,,,,333.99700000298617,,response,,,99,,,,,,Space,keypress(Space),,,,,---- -- ----- -- ------ - ------- --- ----------<br>------------- ------ ------ ---- ---- ------- ----- -- ----<br>-------- ------- -- ---------- --- - --- ----- ----- ----<br>---- --- --- close --- ---- ---- ------- ----- ---- -------<br>--- --- -- ----- -- --- ---- -- --- ---- -- ------ ------<br>--- ----- -- ----,100206.5,100205.70000000298,99855.033,99854.90000000596,99871.703,100221.83,,31,close
screen,html.Screen,0_2_0_1_32,2021-12-03T12:06:34.484Z,,,,,,,,,,,,,,,,53,,,,,,,,,,,,,,335.969999997018,,response,,,99,,,,,,Space,keypress(Space),,,,,---- -- ----- -- ------ - ------- --- ----------<br>------------- ------ ------ ---- ---- ------- ----- -- ----<br>-------- ------- -- ---------- --- - --- ----- ----- ----<br>---- --- --- ----- you ---- ---- ------- ----- ---- -------<br>--- --- -- ----- -- --- ---- -- --- ---- -- ------ ------<br>--- ----- -- ----,100558.59999999404,100557.79999999702,100205.159,100206.70000000298,100221.83,100571.899,,32,you
screen,html.Screen,0_2_0_1_33,2021-12-03T12:06:34.820Z,,,,,,,,,,,,,,,,53,,,,,,,,,,,,,,321.80100000297534,,response,,,99,,,,,,Space,keypress(Space),,,,,---- -- ----- -- ------ - ------- --- ----------<br>------------- ------ ------ ---- ---- ------- ----- -- ----<br>-------- ------- -- ---------- --- - --- ----- ----- ----<br>---- --- --- ----- --- feel ---- ------- ----- ---- -------<br>--- --- -- ----- -- --- ---- -- --- ---- -- ------ ------<br>--- ----- -- ----,100894.40000000596,100893.70000000298,100555.229,100558.79999999702,100571.899,100905.308,,33,feel
screen,html.Screen,0_2_0_1_34,2021-12-03T12:06:35.236Z,,,,,,,,,,,,,,,,53,,,,,,,,,,,,,,404.3920000029757,,response,,,99,,,,,,Space,keypress(Space),,,,,---- -- ----- -- ------ - ------- --- ----------<br>------------- ------ ------ ---- ---- ------- ----- -- ----<br>-------- ------- -- ---------- --- - --- ----- ----- ----<br>---- --- --- ----- --- ---- that ------- ----- ---- -------<br>--- --- -- ----- -- --- ---- -- --- ---- -- ------ ------<br>--- ----- -- ----,101310.5,101309.70000000298,100888.638,100894.70000000298,100905.308,101322.087,,34,that
screen,html.Screen,0_2_0_1_35,2021-12-03T12:06:35.676Z,,,,,,,,,,,,,,,,53,,,,,,,,,,,,,,427.6130000029807,,response,,,99,,,,,,Space,keypress(Space),,,,,---- -- ----- -- ------ - ------- --- ----------<br>------------- ------ ------ ---- ---- ------- ----- -- ----<br>-------- ------- -- ---------- --- - --- ----- ----- ----<br>---- --- --- ----- --- ---- ---- matters ----- ---- -------<br>--- --- -- ----- -- --- ---- -- --- ---- -- ------ ------<br>--- ----- -- ----,101750.5,101749.70000000298,101305.417,101310.70000000298,101322.087,101755.508,,35,matters
screen,html.Screen,0_2_0_1_36,2021-12-03T12:06:36.277Z,,,,,,,,,,,,,,,,53,,,,,,,,,,,,,,594.0919999940379,,response,,,99,,,,,,Space,keypress(Space),,,,,"---- -- ----- -- ------ - ------- --- ----------<br>------------- ------ ------ ---- ---- ------- ----- -- ----<br>-------- ------- -- ---------- --- - --- ----- ----- ----<br>---- --- --- ----- --- ---- ---- ------- most, ---- -------<br>--- --- -- ----- -- --- ---- -- --- ---- -- ------ ------<br>--- ----- -- ----",102350.59999999404,102349.59999999404,101738.838,101750.70000000298,101755.508,102355.734,,36,"most,"
screen,html.Screen,0_2_0_1_37,2021-12-03T12:06:36.820Z,,,,,,,,,,,,,,,,53,,,,,,,,,,,,,,537.8659999940428,,response,,,99,,,,,,Space,keypress(Space),,,,,---- -- ----- -- ------ - ------- --- ----------<br>------------- ------ ------ ---- ---- ------- ----- -- ----<br>-------- ------- -- ---------- --- - --- ----- ----- ----<br>---- --- --- ----- --- ---- ---- ------- ----- it's -------<br>--- --- -- ----- -- --- ---- -- --- ---- -- ------ ------<br>--- ----- -- ----,102894.40000000596,102893.59999999404,102339.063,102350.79999999702,102355.734,102905.844,,37,it's
screen,html.Screen,0_2_0_1_38,2021-12-03T12:06:37.373Z,,,,,,,,,,,,,,,,53,,,,,,,,,,,,,,539.8560000029829,,response,,,99,,,,,,Space,keypress(Space),,,,,---- -- ----- -- ------ - ------- --- ----------<br>------------- ------ ------ ---- ---- ------- ----- -- ----<br>-------- ------- -- ---------- --- - --- ----- ----- ----<br>---- --- --- ----- --- ---- ---- ------- ----- ---- whether<br>--- --- -- ----- -- --- ---- -- --- ---- -- ------ ------<br>--- ----- -- ----,103446.59999999404,103445.70000000298,102889.174,102894.59999999404,102905.844,103455.975,,38,whether
screen,html.Screen,0_2_0_1_39,2021-12-03T12:06:37.868Z,,,,,,,,,,,,,,,,53,,,,,,,,,,,,,,485.6249999940337,,response,,,99,,,,,,Space,keypress(Space),,,,,---- -- ----- -- ------ - ------- --- ----------<br>------------- ------ ------ ---- ---- ------- ----- -- ----<br>-------- ------- -- ---------- --- - --- ----- ----- ----<br>---- --- --- ----- --- ---- ---- ------- ----- ---- -------<br>you --- -- ----- -- --- ---- -- --- ---- -- ------ ------<br>--- ----- -- ----,103942.29999999702,103941.59999999404,103439.305,103446.70000000298,103455.975,103956.104,,39,you
screen,html.Screen,0_2_0_1_40,2021-12-03T12:06:38.268Z,,,,,,,,,,,,,,,,53,,,,,,,,,,,,,,385.0960000029736,,response,,,99,,,,,,Space,keypress(Space),,,,,---- -- ----- -- ------ - ------- --- ----------<br>------------- ------ ------ ---- ---- ------- ----- -- ----<br>-------- ------- -- ---------- --- - --- ----- ----- ----<br>---- --- --- ----- --- ---- ---- ------- ----- ---- -------<br>--- are -- ----- -- --- ---- -- --- ---- -- ------ ------<br>--- ----- -- ----,104341.59999999404,104341.20000000298,103939.434,103942.59999999404,103956.104,104356.225,,40,are
screen,html.Screen,0_2_0_1_41,2021-12-03T12:06:38.812Z,,,,,,,,,,,,,,,,53,,,,,,,,,,,,,,529.2749999999942,,response,,,99,,,,,,Space,keypress(Space),,,,,---- -- ----- -- ------ - ------- --- ----------<br>------------- ------ ------ ---- ---- ------- ----- -- ----<br>-------- ------- -- ---------- --- - --- ----- ----- ----<br>---- --- --- ----- --- ---- ---- ------- ----- ---- -------<br>--- --- as ----- -- --- ---- -- --- ---- -- ------ ------<br>--- ----- -- ----,104886.29999999702,104885.5,104339.555,104341.70000000298,104356.225,104889.688,,41,as
screen,html.Screen,0_2_0_1_42,2021-12-03T12:06:39.268Z,,,,,,,,,,,,,,,,53,,,,,,,,,,,,,,451.5120000029856,,response,,,99,,,,,,Space,keypress(Space),,,,,---- -- ----- -- ------ - ------- --- ----------<br>------------- ------ ------ ---- ---- ------- ----- -- ----<br>-------- ------- -- ---------- --- - --- ----- ----- ----<br>---- --- --- ----- --- ---- ---- ------- ----- ---- -------<br>--- --- -- close -- --- ---- -- --- ---- -- ------ ------<br>--- ----- -- ----,105341.59999999404,105341.20000000298,104873.018,104886.59999999404,104889.688,105356.305,,42,close
screen,html.Screen,0_2_0_1_43,2021-12-03T12:06:39.804Z,,,,,,,,,,,,,,,,53,,,,,,,,,,,,,,521.195000000007,,response,,,99,,,,,,Space,keypress(Space),,,,,---- -- ----- -- ------ - ------- --- ----------<br>------------- ------ ------ ---- ---- ------- ----- -- ----<br>-------- ------- -- ---------- --- - --- ----- ----- ----<br>---- --- --- ----- --- ---- ---- ------- ----- ---- -------<br>--- --- -- ----- as --- ---- -- --- ---- -- ------ ------<br>--- ----- -- ----,105878.20000000298,105877.5,105339.637,105341.59999999404,105356.305,105890.07,,43,as
screen,html.Screen,0_2_0_1_44,2021-12-03T12:06:40.276Z,,,,,,,,,,,,,,,,53,,,,,,,,,,,,,,459.429999999993,,response,,,99,,,,,,Space,keypress(Space),,,,,---- -- ----- -- ------ - ------- --- ----------<br>------------- ------ ------ ---- ---- ------- ----- -- ----<br>-------- ------- -- ---------- --- - --- ----- ----- ----<br>---- --- --- ----- --- ---- ---- ------- ----- ---- -------<br>--- --- -- ----- -- you ---- -- --- ---- -- ------ ------<br>--- ----- -- ----,106350.20000000298,106349.5,105873.398,105878.5,105890.07,106356.581,,44,you
screen,html.Screen,0_2_0_1_45,2021-12-03T12:06:40.740Z,,,,,,,,,,,,,,,,53,,,,,,,,,,,,,,456.8190000059549,,response,,,99,,,,,,Space,keypress(Space),,,,,---- -- ----- -- ------ - ------- --- ----------<br>------------- ------ ------ ---- ---- ------- ----- -- ----<br>-------- ------- -- ---------- --- - --- ----- ----- ----<br>---- --- --- ----- --- ---- ---- ------- ----- ---- -------<br>--- --- -- ----- -- --- want -- --- ---- -- ------ ------<br>--- ----- -- ----,106814.20000000298,106813.40000000596,106339.913,106350.5,106356.581,106823.639,,45,want
screen,html.Screen,0_2_0_1_46,2021-12-03T12:06:41.092Z,,,,,,,,,,,,,,,,53,,,,,,,,,,,,,,341.8610000000044,,response,,,99,,,,,,Space,keypress(Space),,,,,---- -- ----- -- ------ - ------- --- ----------<br>------------- ------ ------ ---- ---- ------- ----- -- ----<br>-------- ------- -- ---------- --- - --- ----- ----- ----<br>---- --- --- ----- --- ---- ---- ------- ----- ---- -------<br>--- --- -- ----- -- --- ---- to --- ---- -- ------ ------<br>--- ----- -- ----,107166.20000000298,107165.5,106806.967,106814.40000000596,106823.639,107173.686,,46,to
screen,html.Screen,0_2_0_1_47,2021-12-03T12:06:41.453Z,,,,,,,,,,,,,,,,53,,,,,,,,,,,,,,352.21400000595895,,response,,,99,,,,,,Space,keypress(Space),,,,,"---- -- ----- -- ------ - ------- --- ----------<br>------------- ------ ------ ---- ---- ------- ----- -- ----<br>-------- ------- -- ---------- --- - --- ----- ----- ----<br>---- --- --- ----- --- ---- ---- ------- ----- ---- -------<br>--- --- -- ----- -- --- ---- -- be, ---- -- ------ ------<br>--- ----- -- ----",107526.70000000298,107525.90000000596,107157.015,107166.5,107173.686,107540.329,,47,"be,"
screen,html.Screen,0_2_0_1_48,2021-12-03T12:06:41.852Z,,,,,,,,,,,,,,,,53,,,,,,,,,,,,,,385.1710000000021,,response,,,99,,,,,,Space,keypress(Space),,,,,---- -- ----- -- ------ - ------- --- ----------<br>------------- ------ ------ ---- ---- ------- ----- -- ----<br>-------- ------- -- ---------- --- - --- ----- ----- ----<br>---- --- --- ----- --- ---- ---- ------- ----- ---- -------<br>--- --- -- ----- -- --- ---- -- --- even -- ------ ------<br>--- ----- -- ----,107926.20000000298,107925.5,107523.66,107526.79999999702,107540.329,107940.596,,48,even
screen,html.Screen,0_2_0_1_49,2021-12-03T12:06:42.188Z,,,,,,,,,,,,,,,,53,,,,,,,,,,,,,,320.80400000595546,,response,,,99,,,,,,Space,keypress(Space),,,,,---- -- ----- -- ------ - ------- --- ----------<br>------------- ------ ------ ---- ---- ------- ----- -- ----<br>-------- ------- -- ---------- --- - --- ----- ----- ----<br>---- --- --- ----- --- ---- ---- ------- ----- ---- -------<br>--- --- -- ----- -- --- ---- -- --- ---- if ------ ------<br>--- ----- -- ----,108262.20000000298,108261.40000000596,107923.924,107926.40000000596,107940.596,108273.989,,49,if
screen,html.Screen,0_2_0_1_50,2021-12-03T12:06:42.476Z,,,,,,,,,,,,,,,,53,,,,,,,,,,,,,,275.41100000595907,,response,,,99,,,,,,Space,keypress(Space),,,,,---- -- ----- -- ------ - ------- --- ----------<br>------------- ------ ------ ---- ---- ------- ----- -- ----<br>-------- ------- -- ---------- --- - --- ----- ----- ----<br>---- --- --- ----- --- ---- ---- ------- ----- ---- -------<br>--- --- -- ----- -- --- ---- -- --- ---- -- that's ------<br>--- ----- -- ----,108550.09999999404,108549.40000000596,108257.318,108262.40000000596,108273.989,108557.304,,50,that's
screen,html.Screen,0_2_0_1_51,2021-12-03T12:06:42.923Z,,,,,,,,,,,,,,,,53,,,,,,,,,,,,,,439.59600000595674,,response,,,99,,,,,,Space,keypress(Space),,,,,---- -- ----- -- ------ - ------- --- ----------<br>------------- ------ ------ ---- ---- ------- ----- -- ----<br>-------- ------- -- ---------- --- - --- ----- ----- ----<br>---- --- --- ----- --- ---- ---- ------- ----- ---- -------<br>--- --- -- ----- -- --- ---- -- --- ---- -- ------ really<br>--- ----- -- ----,108997.20000000298,108996.90000000596,108540.635,108550.40000000596,108557.304,109007.495,,51,really
screen,html.Screen,0_2_0_1_52,2021-12-03T12:06:43.323Z,,,,,,,,,,,,,,,,53,,,,,,,,,,,,,,389.6049999940442,,response,,,99,,,,,,Space,keypress(Space),,,,,---- -- ----- -- ------ - ------- --- ----------<br>------------- ------ ------ ---- ---- ------- ----- -- ----<br>-------- ------- -- ---------- --- - --- ----- ----- ----<br>---- --- --- ----- --- ---- ---- ------- ----- ---- -------<br>--- --- -- ----- -- --- ---- -- --- ---- -- ------ ------<br>not ----- -- ----,109397.29999999702,109397.09999999404,108990.824,108997.20000000298,109007.495,109407.53,,52,not
screen,html.Screen,0_2_0_1_53,2021-12-03T12:06:43.660Z,,,,,,,,,,,,,,,,53,,,,,,,,,,,,,,325.76999999702093,,response,,,99,,,,,,Space,keypress(Space),,,,,---- -- ----- -- ------ - ------- --- ----------<br>------------- ------ ------ ---- ---- ------- ----- -- ----<br>-------- ------- -- ---------- --- - --- ----- ----- ----<br>---- --- --- ----- --- ---- ---- ------- ----- ---- -------<br>--- --- -- ----- -- --- ---- -- --- ---- -- ------ ------<br>--- close -- ----,109734.09999999404,109733.29999999702,109390.86,109397.40000000596,109407.53,109740.83,,53,close
screen,html.Screen,0_2_0_1_54,2021-12-03T12:06:43.972Z,,,,,,,,,,,,,,,,53,,,,,,,,,,,,,,304.469999997018,,response,,,99,,,,,,Space,keypress(Space),,,,,---- -- ----- -- ------ - ------- --- ----------<br>------------- ------ ------ ---- ---- ------- ----- -- ----<br>-------- ------- -- ---------- --- - --- ----- ----- ----<br>---- --- --- ----- --- ---- ---- ------- ----- ---- -------<br>--- --- -- ----- -- --- ---- -- --- ---- -- ------ ------<br>--- ----- at ----,110046.09999999404,110045.29999999702,109724.162,109734.29999999702,109740.83,110057.74,,54,at
screen,html.Screen,0_2_0_1_55,2021-12-03T12:06:44.364Z,,,,,,,,,,,,,,,,53,,,,,,,,,,,,,,379.55999999701453,,response,,,99,,,,,,Space,keypress(Space),,,,,---- -- ----- -- ------ - ------- --- ----------<br>------------- ------ ------ ---- ---- ------- ----- -- ----<br>-------- ------- -- ---------- --- - --- ----- ----- ----<br>---- --- --- ----- --- ---- ---- ------- ----- ---- -------<br>--- --- -- ----- -- --- ---- -- --- ---- -- ------ ------<br>--- ----- -- all.,110438.09999999404,110437.29999999702,110041.069,110046.29999999702,110057.74,110457.808,,55,all.
Item 99,flow.Loop,0_2_0_1,2021-12-03T12:06:44.368Z,,,,,,,,,,,,,,,,,,,,,,,,,,,,,,30671.09899999702,,completion,,,,D,,,,,,,,,,silence,,110442.5,110437.29999999702,79749.531,79755.70000000298,79766.201,110457.808,,,
Question 1,html.Screen,0_2_0_2,2021-12-03T12:06:55.510Z,,,,,,,,,,,,,,,,,,,,,,,,,,,false,FALSE,,11122.791999994035,,response,,,99,D,,,,,TRUE,click #choice-1,,,,silence,,121581.90000000596,121580.59999999404,110441.138,110442.79999999702,110457.808,121594.429,,,
Question 2,html.Screen,0_2_0_3,2021-12-03T12:06:57.438Z,,,,,,,,,,,,,,,,,,,,,,,,,,,true,TRUE,,1914.0709999999963,,response,,,99,D,,,,,TRUE,click #choice-1,,,,silence,,123509.79999999702,123508.5,121577.754,121582.29999999702,121594.429,123511.26,,,
Item 99,flow.Sequence,0_2_0,2021-12-03T12:06:57.438Z,,,,,,,,,,,,,,,,,,,,,,,,,,,,,,53745.185,,completion,,,,,,,,,,,,,,,,123510.09999999404,123508.5,69746.646,69753.79999999702,69763.315,123511.26,,,
Holding screen,html.Screen,0_2_1_0,2021-12-03T12:07:07.427Z,,,,,,,,,,,,,,,,,,,,,,,,,,,,,,10002.732999999993,,timeout,,,,,,,,,,,,,,,,133498.40000000596,133497.322,123494.59,123510.5,123511.26,133513.993,,,
screen,html.Screen,0_2_1_1_0,2021-12-03T12:07:08.366Z,,,,,,,,,,,,,,,,54,,,,,,,,,,,,,,922.6069999940519,,response,,,100,,,,,,Space,keypress(Space),,,,,At --- ---- --- ------ ----- ------- ---- -- --- ------- --<br>------- ---------- ------ -- ----- -- ----- -- ---- ------<br>--- ----- --- --- ------ -------- ----- --- ------ ----- --<br>----- ----- ---------- --- --- ------ ------ ---- -- ------<br>------- --- ------ ----- --- ---- ------- -- ---- --- --<br>------- ------,134437.59999999404,134436.59999999404,133497.322,133498.79999999702,133513.993,134447.526,,0,At
screen,html.Screen,0_2_1_1_1,2021-12-03T12:07:09.133Z,,,,,,,,,,,,,,,,54,,,,,,,,,,,,,,756.573999994027,,response,,,100,,,,,,Space,keypress(Space),,,,,-- the ---- --- ------ ----- ------- ---- -- --- ------- --<br>------- ---------- ------ -- ----- -- ----- -- ---- ------<br>--- ----- --- --- ------ -------- ----- --- ------ ----- --<br>----- ----- ---------- --- --- ------ ------ ---- -- ------<br>------- --- ------ ----- --- ---- ------- -- ---- --- --<br>------- ------,135205,135204.09999999404,134430.856,134437.79999999702,134447.526,135214.406,,1,the
screen,html.Screen,0_2_1_1_2,2021-12-03T12:07:09.541Z,,,,,,,,,,,,,,,,54,,,,,,,,,,,,,,397.6939999940514,,response,,,100,,,,,,Space,keypress(Space),,,,,-- --- time --- ------ ----- ------- ---- -- --- ------- --<br>------- ---------- ------ -- ----- -- ----- -- ---- ------<br>--- ----- --- --- ------ -------- ----- --- ------ ----- --<br>----- ----- ---------- --- --- ------ ------ ---- -- ------<br>------- --- ------ ----- --- ---- ------- -- ---- --- --<br>------- ------,135612.90000000596,135612.09999999404,135197.736,135205.20000000298,135214.406,135614.544,,2,time
screen,html.Screen,0_2_1_1_3,2021-12-03T12:07:09.877Z,,,,,,,,,,,,,,,,54,,,,,,,,,,,,,,333.5559999940451,,response,,,100,,,,,,Space,keypress(Space),,,,,-- --- ---- the ------ ----- ------- ---- -- --- ------- --<br>------- ---------- ------ -- ----- -- ----- -- ---- ------<br>--- ----- --- --- ------ -------- ----- --- ------ ----- --<br>----- ----- ---------- --- --- ------ ------ ---- -- ------<br>------- --- ------ ----- --- ---- ------- -- ---- --- --<br>------- ------,135948.90000000596,135948.09999999404,135597.874,135613.09999999404,135614.544,135964.64,,3,the
screen,html.Screen,0_2_1_1_4,2021-12-03T12:07:10.213Z,,,,,,,,,,,,,,,,54,,,,,,,,,,,,,,319.35999999998603,,response,,,100,,,,,,Space,keypress(Space),,,,,-- --- ---- --- French ----- ------- ---- -- --- ------- --<br>------- ---------- ------ -- ----- -- ----- -- ---- ------<br>--- ----- --- --- ------ -------- ----- --- ------ ----- --<br>----- ----- ---------- --- --- ------ ------ ---- -- ------<br>------- --- ------ ----- --- ---- ------- -- ---- --- --<br>------- ------,136284.90000000596,136284,135947.97,135949.09999999404,135964.64,136298.061,,4,French
screen,html.Screen,0_2_1_1_5,2021-12-03T12:07:10.613Z,,,,,,,,,,,,,,,,54,,,,,,,,,,,,,,385.93900000001304,,response,,,100,,,,,,Space,keypress(Space),,,,,-- --- ---- --- ------ crown ------- ---- -- --- ------- --<br>------- ---------- ------ -- ----- -- ----- -- ---- ------<br>--- ----- --- --- ------ -------- ----- --- ------ ----- --<br>----- ----- ---------- --- --- ------ ------ ---- -- ------<br>------- --- ------ ----- --- ---- ------- -- ---- --- --<br>------- ------,136684.79999999702,136684,136281.391,136285.09999999404,136298.061,136698.162,,5,crown
screen,html.Screen,0_2_1_1_6,2021-12-03T12:07:11.085Z,,,,,,,,,,,,,,,,54,,,,,,,,,,,,,,457.93799999402836,,response,,,100,,,,,,Space,keypress(Space),,,,,-- --- ---- --- ------ ----- secured ---- -- --- ------- --<br>------- ---------- ------ -- ----- -- ----- -- ---- ------<br>--- ----- --- --- ------ -------- ----- --- ------ ----- --<br>----- ----- ---------- --- --- ------ ------ ---- -- ------<br>------- --- ------ ----- --- ---- ------- -- ---- --- --<br>------- ------,137156.90000000596,137156.09999999404,136681.492,136685.09999999404,136698.162,137164.949,,6,secured
screen,html.Screen,0_2_1_1_7,2021-12-03T12:07:11.885Z,,,,,,,,,,,,,,,,54,,,,,,,,,,,,,,790.9510000059672,,response,,,100,,,,,,Space,keypress(Space),,,,,-- --- ---- --- ------ ----- ------- much -- --- ------- --<br>------- ---------- ------ -- ----- -- ----- -- ---- ------<br>--- ----- --- --- ------ -------- ----- --- ------ ----- --<br>----- ----- ---------- --- --- ------ ------ ---- -- ------<br>------- --- ------ ----- --- ---- ------- -- ---- --- --<br>------- ------,137956.70000000298,137955.90000000596,137148.279,137157.09999999404,137164.949,137965.108,,7,much
screen,html.Screen,0_2_1_1_8,2021-12-03T12:07:12.277Z,,,,,,,,,,,,,,,,54,,,,,,,,,,,,,,382.89199999999255,,response,,,100,,,,,,Space,keypress(Space),,,,,-- --- ---- --- ------ ----- ------- ---- of --- ------- --<br>------- ---------- ------ -- ----- -- ----- -- ---- ------<br>--- ----- --- --- ------ -------- ----- --- ------ ----- --<br>----- ----- ---------- --- --- ------ ------ ---- -- ------<br>------- --- ------ ----- --- ---- ------- -- ---- --- --<br>------- ------,138348.90000000596,138348,137948.438,137957,137965.108,138365.269,,8,of
screen,html.Screen,0_2_1_1_9,2021-12-03T12:07:12.621Z,,,,,,,,,,,,,,,,54,,,,,,,,,,,,,,326.73099999999977,,response,,,100,,,,,,Space,keypress(Space),,,,,-- --- ---- --- ------ ----- ------- ---- -- its ------- --<br>------- ---------- ------ -- ----- -- ----- -- ---- ------<br>--- ----- --- --- ------ -------- ----- --- ------ ----- --<br>----- ----- ---------- --- --- ------ ------ ---- -- ------<br>------- --- ------ ----- --- ---- ------- -- ---- --- --<br>------- ------,138692.59999999404,138692,138348.599,138349.09999999404,138365.269,138698.632,,9,its
screen,html.Screen,0_2_1_1_10,2021-12-03T12:07:12.917Z,,,,,,,,,,,,,,,,54,,,,,,,,,,,,,,289.36799999998766,,response,,,100,,,,,,Space,keypress(Space),,,,,-- --- ---- --- ------ ----- ------- ---- -- --- revenue --<br>------- ---------- ------ -- ----- -- ----- -- ---- ------<br>--- ----- --- --- ------ -------- ----- --- ------ ----- --<br>----- ----- ---------- --- --- ------ ------ ---- -- ------<br>------- --- ------ ----- --- ---- ------- -- ---- --- --<br>------- ------,138988.70000000298,138988,138681.962,138692.90000000596,138698.632,138998.871,,10,revenue
screen,html.Screen,0_2_1_1_11,2021-12-03T12:07:13.389Z,,,,,,,,,,,,,,,,54,,,,,,,,,,,,,,461.0290000059467,,response,,,100,,,,,,Space,keypress(Space),,,,,-- --- ---- --- ------ ----- ------- ---- -- --- ------- by<br>------- ---------- ------ -- ----- -- ----- -- ---- ------<br>--- ----- --- --- ------ -------- ----- --- ------ ----- --<br>----- ----- ---------- --- --- ------ ------ ---- -- ------<br>------- --- ------ ----- --- ---- ------- -- ---- --- --<br>------- ------,139460.79999999702,139459.90000000596,138982.198,138989,138998.871,139465.56,,11,by
screen,html.Screen,0_2_1_1_12,2021-12-03T12:07:13.765Z,,,,,,,,,,,,,,,,54,,,,,,,,,,,,,,370.3400000059628,,response,,,100,,,,,,Space,keypress(Space),,,,,-- --- ---- --- ------ ----- ------- ---- -- --- ------- --<br>issuing ---------- ------ -- ----- -- ----- -- ---- ------<br>--- ----- --- --- ------ -------- ----- --- ------ ----- --<br>----- ----- ---------- --- --- ------ ------ ---- -- ------<br>------- --- ------ ----- --- ---- ------- -- ---- --- --<br>------- ------,139836.70000000298,139835.90000000596,139448.89,139461,139465.56,139849.061,,12,issuing
screen,html.Screen,0_2_1_1_13,2021-12-03T12:07:14.269Z,,,,,,,,,,,,,,,,54,,,,,,,,,,,,,,490.8390000059735,,response,,,100,,,,,,Space,keypress(Space),,,,,-- --- ---- --- ------ ----- ------- ---- -- --- ------- --<br>------- government ------ -- ----- -- ----- -- ---- ------<br>--- ----- --- --- ------ -------- ----- --- ------ ----- --<br>----- ----- ---------- --- --- ------ ------ ---- -- ------<br>------- --- ------ ----- --- ---- ------- -- ---- --- --<br>------- ------,140340.70000000298,140339.90000000596,139832.39,139836.90000000596,139849.061,140348.974,,13,government
screen,html.Screen,0_2_1_1_14,2021-12-03T12:07:14.645Z,,,,,,,,,,,,,,,,54,,,,,,,,,,,,,,366.82599999703234,,response,,,100,,,,,,Space,keypress(Space),,,,,-- --- ---- --- ------ ----- ------- ---- -- --- ------- --<br>------- ---------- bonds. -- ----- -- ----- -- ---- ------<br>--- ----- --- --- ------ -------- ----- --- ------ ----- --<br>----- ----- ---------- --- --- ------ ------ ---- -- ------<br>------- --- ------ ----- --- ---- ------- -- ---- --- --<br>------- ------,140716.40000000596,140715.79999999702,140332.306,140341,140348.974,140732.637,,14,bonds.
screen,html.Screen,0_2_1_1_15,2021-12-03T12:07:15.125Z,,,,,,,,,,,,,,,,54,,,,,,,,,,,,,,463.1629999970319,,response,,,100,,,,,,Space,keypress(Space),,,,,-- --- ---- --- ------ ----- ------- ---- -- --- ------- --<br>------- ---------- ------ In ----- -- ----- -- ---- ------<br>--- ----- --- --- ------ -------- ----- --- ------ ----- --<br>----- ----- ---------- --- --- ------ ------ ---- -- ------<br>------- --- ------ ----- --- ---- ------- -- ---- --- --<br>------- ------,141196.59999999404,141195.79999999702,140715.965,140716.5,140732.637,141199.389,,15,In
screen,html.Screen,0_2_1_1_16,2021-12-03T12:07:15.581Z,,,,,,,,,,,,,,,,54,,,,,,,,,,,,,,452.5110000059649,,response,,,100,,,,,,Space,keypress(Space),,,,,"-- --- ---- --- ------ ----- ------- ---- -- --- ------- --<br>------- ---------- ------ -- 1727, -- ----- -- ---- ------<br>--- ----- --- --- ------ -------- ----- --- ------ ----- --<br>----- ----- ---------- --- --- ------ ------ ---- -- ------<br>------- --- ------ ----- --- ---- ------- -- ---- --- --<br>------- ------",141652.59999999404,141651.90000000596,141182.718,141196.90000000596,141199.389,141665.978,,16,"1727,"
screen,html.Screen,0_2_1_1_17,2021-12-03T12:07:16.805Z,,,,,,,,,,,,,,,,54,,,,,,,,,,,,,,1209.7220000029774,,response,,,100,,,,,,Space,keypress(Space),,,,,-- --- ---- --- ------ ----- ------- ---- -- --- ------- --<br>------- ---------- ------ -- ----- in ----- -- ---- ------<br>--- ----- --- --- ------ -------- ----- --- ------ ----- --<br>----- ----- ---------- --- --- ------ ------ ---- -- ------<br>------- --- ------ ----- --- ---- ------- -- ---- --- --<br>------- ------,142876.59999999404,142875.70000000298,141649.31,141652.79999999702,141665.978,142883.265,,17,in
screen,html.Screen,0_2_1_1_18,2021-12-03T12:07:17.493Z,,,,,,,,,,,,,,,,54,,,,,,,,,,,,,,680.5349999970058,,response,,,100,,,,,,Space,keypress(Space),,,,,-- --- ---- --- ------ ----- ------- ---- -- --- ------- --<br>------- ---------- ------ -- ----- -- order -- ---- ------<br>--- ----- --- --- ------ -------- ----- --- ------ ----- --<br>----- ----- ---------- --- --- ------ ------ ---- -- ------<br>------- --- ------ ----- --- ---- ------- -- ---- --- --<br>------- ------,143564.5,143563.79999999702,142866.593,142876.79999999702,142883.265,143566.695,,18,order
screen,html.Screen,0_2_1_1_19,2021-12-03T12:07:17.869Z,,,,,,,,,,,,,,,,54,,,,,,,,,,,,,,373.1049999970128,,response,,,100,,,,,,Space,keypress(Space),,,,,-- --- ---- --- ------ ----- ------- ---- -- --- ------- --<br>------- ---------- ------ -- ----- -- ----- to ---- ------<br>--- ----- --- --- ------ -------- ----- --- ------ ----- --<br>----- ----- ---------- --- --- ------ ------ ---- -- ------<br>------- --- ------ ----- --- ---- ------- -- ---- --- --<br>------- ------,143940.5,143939.79999999702,143550.024,143564.79999999702,143566.695,143950.09,,19,to
screen,html.Screen,0_2_1_1_20,2021-12-03T12:07:18.173Z,,,,,,,,,,,,,,,,54,,,,,,,,,,,,,,293.70999999702326,,response,,,100,,,,,,Space,keypress(Space),,,,,-- --- ---- --- ------ ----- ------- ---- -- --- ------- --<br>------- ---------- ------ -- ----- -- ----- -- save ------<br>--- ----- --- --- ------ -------- ----- --- ------ ----- --<br>----- ----- ---------- --- --- ------ ------ ---- -- ------<br>------- --- ------ ----- --- ---- ------- -- ---- --- --<br>------- ------,144244.59999999404,144243.79999999702,143933.42,143940.79999999702,143950.09,144250.175,,20,save
screen,html.Screen,0_2_1_1_21,2021-12-03T12:07:18.461Z,,,,,,,,,,,,,,,,54,,,,,,,,,,,,,,281.9249999940512,,response,,,100,,,,,,Space,keypress(Space),,,,,"-- --- ---- --- ------ ----- ------- ---- -- --- ------- --<br>------- ---------- ------ -- ----- -- ----- -- ---- money,<br>--- ----- --- --- ------ -------- ----- --- ------ ----- --<br>----- ----- ---------- --- --- ------ ------ ---- -- ------<br>------- --- ------ ----- --- ---- ------- -- ---- --- --<br>------- ------",144532.90000000596,144532.09999999404,144233.505,144244.79999999702,144250.175,144550.14,,21,"money,"
screen,html.Screen,0_2_1_1_22,2021-12-03T12:07:18.781Z,,,,,,,,,,,,,,,,54,,,,,,,,,,,,,,301.56000000296626,,response,,,100,,,,,,Space,keypress(Space),,,,,-- --- ---- --- ------ ----- ------- ---- -- --- ------- --<br>------- ---------- ------ -- ----- -- ----- -- ---- ------<br>the ----- --- --- ------ -------- ----- --- ------ ----- --<br>----- ----- ---------- --- --- ------ ------ ---- -- ------<br>------- --- ------ ----- --- ---- ------- -- ---- --- --<br>------- ------,144852.5,144851.70000000298,144533.472,144533.09999999404,144550.14,144867.111,,22,the
screen,html.Screen,0_2_1_1_23,2021-12-03T12:07:19.069Z,,,,,,,,,,,,,,,,54,,,,,,,,,,,,,,272.5890000029758,,response,,,100,,,,,,Space,keypress(Space),,,,,-- --- ---- --- ------ ----- ------- ---- -- --- ------- --<br>------- ---------- ------ -- ----- -- ----- -- ---- ------<br>--- state --- --- ------ -------- ----- --- ------ ----- --<br>----- ----- ---------- --- --- ------ ------ ---- -- ------<br>------- --- ------ ----- --- ---- ------- -- ---- --- --<br>------- ------,145140.5,145139.70000000298,144850.438,144852.70000000298,144867.111,145150.404,,23,state
screen,html.Screen,0_2_1_1_24,2021-12-03T12:07:19.325Z,,,,,,,,,,,,,,,,54,,,,,,,,,,,,,,245.2960000029707,,response,,,100,,,,,,Space,keypress(Space),,,,,-- --- ---- --- ------ ----- ------- ---- -- --- ------- --<br>------- ---------- ------ -- ----- -- ----- -- ---- ------<br>--- ----- cut --- ------ -------- ----- --- ------ ----- --<br>----- ----- ---------- --- --- ------ ------ ---- -- ------<br>------- --- ------ ----- --- ---- ------- -- ---- --- --<br>------- ------,145396.5,145395.70000000298,145133.734,145140.70000000298,145150.404,145400.473,,24,cut
screen,html.Screen,0_2_1_1_25,2021-12-03T12:07:19.797Z,,,,,,,,,,,,,,,,54,,,,,,,,,,,,,,467.2270000029821,,response,,,100,,,,,,Space,keypress(Space),,,,,-- --- ---- --- ------ ----- ------- ---- -- --- ------- --<br>------- ---------- ------ -- ----- -- ----- -- ---- ------<br>--- ----- --- the ------ -------- ----- --- ------ ----- --<br>----- ----- ---------- --- --- ------ ------ ---- -- ------<br>------- --- ------ ----- --- ---- ------- -- ---- --- --<br>------- ------,145868.5,145867.70000000298,145383.803,145396.70000000298,145400.473,145883.912,,25,the
screen,html.Screen,0_2_1_1_26,2021-12-03T12:07:20.269Z,,,,,,,,,,,,,,,,54,,,,,,,,,,,,,,455.78800000296906,,response,,,100,,,,,,Space,keypress(Space),,,,,-- --- ---- --- ------ ----- ------- ---- -- --- ------- --<br>------- ---------- ------ -- ----- -- ----- -- ---- ------<br>--- ----- --- --- bonds' -------- ----- --- ------ ----- --<br>----- ----- ---------- --- --- ------ ------ ---- -- ------<br>------- --- ------ ----- --- ---- ------- -- ---- --- --<br>------- ------,146340.5,146339.70000000298,145867.242,145868.70000000298,145883.912,146350.77,,26,bonds'
screen,html.Screen,0_2_1_1_27,2021-12-03T12:07:20.693Z,,,,,,,,,,,,,,,,54,,,,,,,,,,,,,,412.82999999405,,response,,,100,,,,,,Space,keypress(Space),,,,,-- --- ---- --- ------ ----- ------- ---- -- --- ------- --<br>------- ---------- ------ -- ----- -- ----- -- ---- ------<br>--- ----- --- --- ------ interest ----- --- ------ ----- --<br>----- ----- ---------- --- --- ------ ------ ---- -- ------<br>------- --- ------ ----- --- ---- ------- -- ---- --- --<br>------- ------,146764.40000000596,146763.59999999404,146334.099,146340.70000000298,146350.77,146767.493,,27,interest
screen,html.Screen,0_2_1_1_28,2021-12-03T12:07:21.069Z,,,,,,,,,,,,,,,,54,,,,,,,,,,,,,,372.1069999940519,,response,,,100,,,,,,Space,keypress(Space),,,,,-- --- ---- --- ------ ----- ------- ---- -- --- ------- --<br>------- ---------- ------ -- ----- -- ----- -- ---- ------<br>--- ----- --- --- ------ -------- rate. --- ------ ----- --<br>----- ----- ---------- --- --- ------ ------ ---- -- ------<br>------- --- ------ ----- --- ---- ------- -- ---- --- --<br>------- ------,147140.40000000596,147139.59999999404,146750.823,146764.59999999404,146767.493,147150.975,,28,rate.
screen,html.Screen,0_2_1_1_29,2021-12-03T12:07:21.461Z,,,,,,,,,,,,,,,,54,,,,,,,,,,,,,,380.6249999940337,,response,,,100,,,,,,Space,keypress(Space),,,,,-- --- ---- --- ------ ----- ------- ---- -- --- ------- --<br>------- ---------- ------ -- ----- -- ----- -- ---- ------<br>--- ----- --- --- ------ -------- ----- The ------ ----- --<br>----- ----- ---------- --- --- ------ ------ ---- -- ------<br>------- --- ------ ----- --- ---- ------- -- ---- --- --<br>------- ------,147532.40000000596,147531.59999999404,147134.304,147140.59999999404,147150.975,147534.365,,29,The
screen,html.Screen,0_2_1_1_30,2021-12-03T12:07:21.829Z,,,,,,,,,,,,,,,,54,,,,,,,,,,,,,,365.23499999404885,,response,,,100,,,,,,Space,keypress(Space),,,,,-- --- ---- --- ------ ----- ------- ---- -- --- ------- --<br>------- ---------- ------ -- ----- -- ----- -- ---- ------<br>--- ----- --- --- ------ -------- ----- --- market ----- --<br>----- ----- ---------- --- --- ------ ------ ---- -- ------<br>------- --- ------ ----- --- ---- ------- -- ---- --- --<br>------- ------,147900.40000000596,147899.59999999404,147517.695,147532.59999999404,147534.365,147917.807,,30,market
screen,html.Screen,0_2_1_1_31,2021-12-03T12:07:22.229Z,,,,,,,,,,,,,,,,54,,,,,,,,,,,,,,381.6929999999993,,response,,,100,,,,,,Space,keypress(Space),,,,,-- --- ---- --- ------ ----- ------- ---- -- --- ------- --<br>------- ---------- ------ -- ----- -- ----- -- ---- ------<br>--- ----- --- --- ------ -------- ----- --- ------ value --<br>----- ----- ---------- --- --- ------ ------ ---- -- ------<br>------- --- ------ ----- --- ---- ------- -- ---- --- --<br>------- ------,148300.29999999702,148299.5,147901.137,147900.5,147917.807,148301.279,,31,value
screen,html.Screen,0_2_1_1_32,2021-12-03T12:07:22.565Z,,,,,,,,,,,,,,,,54,,,,,,,,,,,,,,334.22099999999045,,response,,,100,,,,,,Space,keypress(Space),,,,,-- --- ---- --- ------ ----- ------- ---- -- --- ------- --<br>------- ---------- ------ -- ----- -- ----- -- ---- ------<br>--- ----- --- --- ------ -------- ----- --- ------ ----- of<br>----- ----- ---------- --- --- ------ ------ ---- -- ------<br>------- --- ------ ----- --- ---- ------- -- ---- --- --<br>------- ------,148636.20000000298,148635.5,148284.608,148300.5,148301.279,148651.347,,32,of
screen,html.Screen,0_2_1_1_33,2021-12-03T12:07:22.917Z,,,,,,,,,,,,,,,,54,,,,,,,,,,,,,,336.2529999940307,,response,,,100,,,,,,Space,keypress(Space),,,,,-- --- ---- --- ------ ----- ------- ---- -- --- ------- --<br>------- ---------- ------ -- ----- -- ----- -- ---- ------<br>--- ----- --- --- ------ -------- ----- --- ------ ----- --<br>these ----- ---------- --- --- ------ ------ ---- -- ------<br>------- --- ------ ----- --- ---- ------- -- ---- --- --<br>------- ------,148988.29999999702,148987.59999999404,148634.677,148636.5,148651.347,149001.415,,33,these
screen,html.Screen,0_2_1_1_34,2021-12-03T12:07:23.245Z,,,,,,,,,,,,,,,,54,,,,,,,,,,,,,,314.08499999999185,,response,,,100,,,,,,Space,keypress(Space),,,,,-- --- ---- --- ------ ----- ------- ---- -- --- ------- --<br>------- ---------- ------ -- ----- -- ----- -- ---- ------<br>--- ----- --- --- ------ -------- ----- --- ------ ----- --<br>----- bonds ---------- --- --- ------ ------ ---- -- ------<br>------- --- ------ ----- --- ---- ------- -- ---- --- --<br>------- ------,149316.29999999702,149315.5,148984.745,148988.59999999404,149001.415,149318.154,,34,bonds
screen,html.Screen,0_2_1_1_35,2021-12-03T12:07:23.565Z,,,,,,,,,,,,,,,,54,,,,,,,,,,,,,,317.34599999999045,,response,,,100,,,,,,Space,keypress(Space),,,,,"-- --- ---- --- ------ ----- ------- ---- -- --- ------- --<br>------- ---------- ------ -- ----- -- ----- -- ---- ------<br>--- ----- --- --- ------ -------- ----- --- ------ ----- --<br>----- ----- plummeted, --- --- ------ ------ ---- -- ------<br>------- --- ------ ----- --- ---- ------- -- ---- --- --<br>------- ------",149636.29999999702,149635.5,149301.484,149316.5,149318.154,149651.689,,35,"plummeted,"
screen,html.Screen,0_2_1_1_36,2021-12-03T12:07:23.884Z,,,,,,,,,,,,,,,,54,,,,,,,,,,,,,,303.7110000059474,,response,,,100,,,,,,Space,keypress(Space),,,,,-- --- ---- --- ------ ----- ------- ---- -- --- ------- --<br>------- ---------- ------ -- ----- -- ----- -- ---- ------<br>--- ----- --- --- ------ -------- ----- --- ------ ----- --<br>----- ----- ---------- and --- ------ ------ ---- -- ------<br>------- --- ------ ----- --- ---- ------- -- ---- --- --<br>------- ------,149956.20000000298,149955.40000000596,149635.017,149636.5,149651.689,149968.34,,36,and
screen,html.Screen,0_2_1_1_37,2021-12-03T12:07:24.205Z,,,,,,,,,,,,,,,,54,,,,,,,,,,,,,,307.06000000596396,,response,,,100,,,,,,Space,keypress(Space),,,,,-- --- ---- --- ------ ----- ------- ---- -- --- ------- --<br>------- ---------- ------ -- ----- -- ----- -- ---- ------<br>--- ----- --- --- ------ -------- ----- --- ------ ----- --<br>----- ----- ---------- --- the ------ ------ ---- -- ------<br>------- --- ------ ----- --- ---- ------- -- ---- --- --<br>------- ------,150276.20000000298,150275.40000000596,149951.67,149956.40000000596,149968.34,150285.084,,37,the
screen,html.Screen,0_2_1_1_38,2021-12-03T12:07:24.500Z,,,,,,,,,,,,,,,,54,,,,,,,,,,,,,,286.41599999999744,,response,,,100,,,,,,Space,keypress(Space),,,,,-- --- ---- --- ------ ----- ------- ---- -- --- ------- --<br>------- ---------- ------ -- ----- -- ----- -- ---- ------<br>--- ----- --- --- ------ -------- ----- --- ------ ----- --<br>----- ----- ---------- --- --- market ------ ---- -- ------<br>------- --- ------ ----- --- ---- ------- -- ---- --- --<br>------- ------,150572.20000000298,150571.5,150268.414,150276.5,150285.084,150585.209,,38,market
screen,html.Screen,0_2_1_1_39,2021-12-03T12:07:24.780Z,,,,,,,,,,,,,,,,54,,,,,,,,,,,,,,266.1910000059579,,response,,,100,,,,,,Space,keypress(Space),,,,,-- --- ---- --- ------ ----- ------- ---- -- --- ------- --<br>------- ---------- ------ -- ----- -- ----- -- ---- ------<br>--- ----- --- --- ------ -------- ----- --- ------ ----- --<br>----- ----- ---------- --- --- ------ became ---- -- ------<br>------- --- ------ ----- --- ---- ------- -- ---- --- --<br>------- ------,150852.29999999702,150851.40000000596,150568.538,150572.40000000596,150585.209,150868.584,,39,became
screen,html.Screen,0_2_1_1_40,2021-12-03T12:07:25.092Z,,,,,,,,,,,,,,,,54,,,,,,,,,,,,,,294.7159999970172,,response,,,100,,,,,,Space,keypress(Space),,,,,-- --- ---- --- ------ ----- ------- ---- -- --- ------- --<br>------- ---------- ------ -- ----- -- ----- -- ---- ------<br>--- ----- --- --- ------ -------- ----- --- ------ ----- --<br>----- ----- ---------- --- --- ------ ------ wary -- ------<br>------- --- ------ ----- --- ---- ------- -- ---- --- --<br>------- ------,151164,151163.29999999702,150851.914,150852.40000000596,150868.584,151168.706,,40,wary
screen,html.Screen,0_2_1_1_41,2021-12-03T12:07:25.461Z,,,,,,,,,,,,,,,,54,,,,,,,,,,,,,,362.6940000059549,,response,,,100,,,,,,Space,keypress(Space),,,,,-- --- ---- --- ------ ----- ------- ---- -- --- ------- --<br>------- ---------- ------ -- ----- -- ----- -- ---- ------<br>--- ----- --- --- ------ -------- ----- --- ------ ----- --<br>----- ----- ---------- --- --- ------ ------ ---- of ------<br>------- --- ------ ----- --- ---- ------- -- ---- --- --<br>------- ------,151532.20000000298,151531.40000000596,151152.035,151164.29999999702,151168.706,151535.301,,41,of
screen,html.Screen,0_2_1_1_42,2021-12-03T12:07:25.884Z,,,,,,,,,,,,,,,,54,,,,,,,,,,,,,,419.998999997013,,response,,,100,,,,,,Space,keypress(Space),,,,,-- --- ---- --- ------ ----- ------- ---- -- --- ------- --<br>------- ---------- ------ -- ----- -- ----- -- ---- ------<br>--- ----- --- --- ------ -------- ----- --- ------ ----- --<br>----- ----- ---------- --- --- ------ ------ ---- -- French<br>------- --- ------ ----- --- ---- ------- -- ---- --- --<br>------- ------,151956.20000000298,151955.29999999702,151518.633,151532.40000000596,151535.301,151969.031,,42,French
screen,html.Screen,0_2_1_1_43,2021-12-03T12:07:26.244Z,,,,,,,,,,,,,,,,54,,,,,,,,,,,,,,346.0689999940514,,response,,,100,,,,,,Space,keypress(Space),,,,,-- --- ---- --- ------ ----- ------- ---- -- --- ------- --<br>------- ---------- ------ -- ----- -- ----- -- ---- ------<br>--- ----- --- --- ------ -------- ----- --- ------ ----- --<br>----- ----- ---------- --- --- ------ ------ ---- -- ------<br>credit. --- ------ ----- --- ---- ------- -- ---- --- --<br>------- ------,152315.59999999404,152315.09999999404,151952.358,151956.40000000596,151969.031,152318.963,,43,credit.
screen,html.Screen,0_2_1_1_44,2021-12-03T12:07:26.612Z,,,,,,,,,,,,,,,,54,,,,,,,,,,,,,,364.33699999703094,,response,,,100,,,,,,Space,keypress(Space),,,,,-- --- ---- --- ------ ----- ------- ---- -- --- ------- --<br>------- ---------- ------ -- ----- -- ----- -- ---- ------<br>--- ----- --- --- ------ -------- ----- --- ------ ----- --<br>----- ----- ---------- --- --- ------ ------ ---- -- ------<br>------- The ------ ----- --- ---- ------- -- ---- --- --<br>------- ------,152684,152683.29999999702,152302.293,152315.90000000596,152318.963,152685.742,,44,The
screen,html.Screen,0_2_1_1_45,2021-12-03T12:07:26.908Z,,,,,,,,,,,,,,,,54,,,,,,,,,,,,,,293.6580000059621,,response,,,100,,,,,,Space,keypress(Space),,,,,-- --- ---- --- ------ ----- ------- ---- -- --- ------- --<br>------- ---------- ------ -- ----- -- ----- -- ---- ------<br>--- ----- --- --- ------ -------- ----- --- ------ ----- --<br>----- ----- ---------- --- --- ------ ------ ---- -- ------<br>------- --- French ----- --- ---- ------- -- ---- --- --<br>------- ------,152980.09999999404,152979.40000000596,152669.072,152684.20000000298,152685.742,152985.816,,45,French
screen,html.Screen,0_2_1_1_46,2021-12-03T12:07:27.172Z,,,,,,,,,,,,,,,,54,,,,,,,,,,,,,,257.48399999702815,,response,,,100,,,,,,Space,keypress(Space),,,,,-- --- ---- --- ------ ----- ------- ---- -- --- ------- --<br>------- ---------- ------ -- ----- -- ----- -- ---- ------<br>--- ----- --- --- ------ -------- ----- --- ------ ----- --<br>----- ----- ---------- --- --- ------ ------ ---- -- ------<br>------- --- ------ state --- ---- ------- -- ---- --- --<br>------- ------,153244.09999999404,153243.29999999702,152969.146,152981.90000000596,152985.816,153252.566,,46,state
screen,html.Screen,0_2_1_1_47,2021-12-03T12:07:27.444Z,,,,,,,,,,,,,,,,54,,,,,,,,,,,,,,262.73399999702815,,response,,,100,,,,,,Space,keypress(Space),,,,,-- --- ---- --- ------ ----- ------- ---- -- --- ------- --<br>------- ---------- ------ -- ----- -- ----- -- ---- ------<br>--- ----- --- --- ------ -------- ----- --- ------ ----- --<br>----- ----- ---------- --- --- ------ ------ ---- -- ------<br>------- --- ------ ----- was ---- ------- -- ---- --- --<br>------- ------,153516,153515.29999999702,153235.896,153244.29999999702,153252.566,153519.337,,47,was
screen,html.Screen,0_2_1_1_48,2021-12-03T12:07:27.716Z,,,,,,,,,,,,,,,,54,,,,,,,,,,,,,,267.8630000029807,,response,,,100,,,,,,Space,keypress(Space),,,,,-- --- ---- --- ------ ----- ------- ---- -- --- ------- --<br>------- ---------- ------ -- ----- -- ----- -- ---- ------<br>--- ----- --- --- ------ -------- ----- --- ------ ----- --<br>----- ----- ---------- --- --- ------ ------ ---- -- ------<br>------- --- ------ ----- --- left ------- -- ---- --- --<br>------- ------,153788,153787.20000000298,153502.666,153516.29999999702,153519.337,153802.704,,48,left
screen,html.Screen,0_2_1_1_49,2021-12-03T12:07:27.988Z,,,,,,,,,,,,,,,,54,,,,,,,,,,,,,,256.59599999702186,,response,,,100,,,,,,Space,keypress(Space),,,,,-- --- ---- --- ------ ----- ------- ---- -- --- ------- --<br>------- ---------- ------ -- ----- -- ----- -- ---- ------<br>--- ----- --- --- ------ -------- ----- --- ------ ----- --<br>----- ----- ---------- --- --- ------ ------ ---- -- ------<br>------- --- ------ ----- --- ---- without -- ---- --- --<br>------- ------,154060.09999999404,154059.29999999702,153786.034,153788.20000000298,153802.704,154069.456,,49,without
screen,html.Screen,0_2_1_1_50,2021-12-03T12:07:28.276Z,,,,,,,,,,,,,,,,54,,,,,,,,,,,,,,277.8439999970142,,response,,,100,,,,,,Space,keypress(Space),,,,,-- --- ---- --- ------ ----- ------- ---- -- --- ------- --<br>------- ---------- ------ -- ----- -- ----- -- ---- ------<br>--- ----- --- --- ------ -------- ----- --- ------ ----- --<br>----- ----- ---------- --- --- ------ ------ ---- -- ------<br>------- --- ------ ----- --- ---- ------- an ---- --- --<br>------- ------,154348,154347.29999999702,154052.786,154060.29999999702,154069.456,154352.837,,50,an
screen,html.Screen,0_2_1_1_51,2021-12-03T12:07:28.549Z,,,,,,,,,,,,,,,,54,,,,,,,,,,,,,,266.8630000029807,,response,,,100,,,,,,Space,keypress(Space),,,,,-- --- ---- --- ------ ----- ------- ---- -- --- ------- --<br>------- ---------- ------ -- ----- -- ----- -- ---- ------<br>--- ----- --- --- ------ -------- ----- --- ------ ----- --<br>----- ----- ---------- --- --- ------ ------ ---- -- ------<br>------- --- ------ ----- --- ---- ------- -- easy --- --<br>------- ------,154620.5,154619.70000000298,154336.167,154348.20000000298,154352.837,154636.305,,51,easy
screen,html.Screen,0_2_1_1_52,2021-12-03T12:07:28.812Z,,,,,,,,,,,,,,,,54,,,,,,,,,,,,,,246.89500000298722,,response,,,100,,,,,,Space,keypress(Space),,,,,-- --- ---- --- ------ ----- ------- ---- -- --- ------- --<br>------- ---------- ------ -- ----- -- ----- -- ---- ------<br>--- ----- --- --- ------ -------- ----- --- ------ ----- --<br>----- ----- ---------- --- --- ------ ------ ---- -- ------<br>------- --- ------ ----- --- ---- ------- -- ---- way --<br>------- ------,154883.90000000596,154883.20000000298,154619.634,154620.79999999702,154636.305,154886.365,,52,way
screen,html.Screen,0_2_1_1_53,2021-12-03T12:07:29.076Z,,,,,,,,,,,,,,,,54,,,,,,,,,,,,,,260.73499999404885,,response,,,100,,,,,,Space,keypress(Space),,,,,-- --- ---- --- ------ ----- ------- ---- -- --- ------- --<br>------- ---------- ------ -- ----- -- ----- -- ---- ------<br>--- ----- --- --- ------ -------- ----- --- ------ ----- --<br>----- ----- ---------- --- --- ------ ------ ---- -- ------<br>------- --- ------ ----- --- ---- ------- -- ---- --- of<br>------- ------,155147.90000000596,155147.09999999404,154869.694,154884.20000000298,154886.365,155153.066,,53,of
screen,html.Screen,0_2_1_1_54,2021-12-03T12:07:29.340Z,,,,,,,,,,,,,,,,54,,,,,,,,,,,,,,258.1340000029886,,response,,,100,,,,,,Space,keypress(Space),,,,,-- --- ---- --- ------ ----- ------- ---- -- --- ------- --<br>------- ---------- ------ -- ----- -- ----- -- ---- ------<br>--- ----- --- --- ------ -------- ----- --- ------ ----- --<br>----- ----- ---------- --- --- ------ ------ ---- -- ------<br>------- --- ------ ----- --- ---- ------- -- ---- --- --<br>raising ------,155412,155411.20000000298,155136.396,155148.09999999404,155153.066,155419.844,,54,raising
screen,html.Screen,0_2_1_1_55,2021-12-03T12:07:29.828Z,,,,,,,,,,,,,,,,54,,,,,,,,,,,,,,479.25599999402766,,response,,,100,,,,,,Space,keypress(Space),,,,,-- --- ---- --- ------ ----- ------- ---- -- --- ------- --<br>------- ---------- ------ -- ----- -- ----- -- ---- ------<br>--- ----- --- --- ------ -------- ----- --- ------ ----- --<br>----- ----- ---------- --- --- ------ ------ ---- -- ------<br>------- --- ------ ----- --- ---- ------- -- ---- --- --<br>------- money.,155899.90000000596,155899.09999999404,155403.173,155412.29999999702,155419.844,155903.072,,55,money.
Item 100,flow.Loop,0_2_1_1,2021-12-03T12:07:29.829Z,,,,,,,,,,,,,,,,,,,,,,,,,,,,,,22385.106999994052,,completion,,,,D,,,,,,,,,,silence,,155900.29999999702,155899.09999999404,133497.322,133498.70000000298,133513.993,155903.072,,,
Question 1,html.Screen,0_2_1_2,2021-12-03T12:07:34.597Z,,,,,,,,,,,,,,,,,,,,,,,,,,,true,TRUE,,4764.328000005975,,response,,,100,D,,,,,TRUE,click #choice-1,,,,silence,,160668.59999999404,160667.40000000596,155886.405,155900.59999999404,155903.072,160671.228,,,
Question 2,html.Screen,0_2_1_3,2021-12-03T12:07:38.724Z,,,,,,,,,,,,,,,,,,,,,,,,,,,true,FALSE,,4123.371999994037,,response,,,100,D,,,,,FALSE,click #choice-2,,,,silence,,164795.70000000298,164794.59999999404,160654.557,160668.90000000596,160671.228,164805.556,,,
Item 100,flow.Sequence,0_2_1,2021-12-03T12:07:38.724Z,,,,,,,,,,,,,,,,,,,,,,,,,,,,,,41283.339999994045,,completion,,,,,,,,,,,,,,,,164796.09999999404,164794.59999999404,123494.59,123510.40000000596,123511.26,164805.556,,,
End of Practice,html.Page,0_2_2,2021-12-03T12:07:43.621Z,,,,,,,,,,,,,,,,,,,,,,,,,,,,,,4886.543999994028,,form submission,,,,,,,,,,,,,,,,169692.70000000298,169692.09999999404,164788.886,164796.29999999702,164805.556,169706.95,,,
Practice,flow.Sequence,0_2,2021-12-03T12:07:43.621Z,,,,,,,,,,,,,,,,,,,,,,,,,,,,,,99928.78499999404,,completion,,,,,,,,,,,,,,,,169693.09999999404,169692.09999999404,69746.646,69753.59999999404,69763.315,169706.95,,,
Trap_instruction,html.Page,0_3_0,2021-12-03T12:07:46.300Z,,,,,,,,,,,,,,,,,,,,,,,,,,,,,,2664.649999994028,,form submission,,,,,,,,,,,,,,,,172372.09999999404,172371.59999999404,169690.278,169693.59999999404,169706.95,172391.688,,,
trap_trial,html.Screen,0_3_1,2021-12-03T12:07:50.795Z,,,,,,,,,,,,,,,,,,,,,,,,,,,true,1,,4474.212000005966,,response,,,,,,,,,1,click #choice-1,,,,,,176867,176865.90000000596,172358.338,172372.40000000596,172391.688,176875.183,,,
end of trap trial,html.Page,0_3_2,2021-12-03T12:07:53.060Z,,,,,,,,,,,,,,,,,,,,,,,,,,,,,,2256.0170000029902,,form submission,,,,,,,,,,,,,,,,179131.70000000298,179131.20000000298,176858.513,176867.29999999702,176875.183,179141.604,,,
Trap 1,flow.Sequence,0_3,2021-12-03T12:07:53.060Z,,,,,,,,,,,,,,,,,,,,,,,,,,,,,,9424.250000002969,,completion,,,,,,,,,,,,,,,,179132.09999999404,179131.20000000298,169690.278,169693.40000000596,169706.95,179141.604,,,
Standby,html.Page,0_4_0,2021-12-03T12:08:01.061Z,,,,,,,,,,,,,,,,,,,,,,,,,,,,,,8003.777000000002,,timeout,,,,,,,,,,,,,,,,187130.20000000298,187128.709,179124.959,179132.40000000596,179141.604,187145.381,,,
Holding screen,html.Screen,0_4_1_0_0,2021-12-03T12:08:08.063Z,,,,,,,,,,,,,,,,,,,,,,,,,,,,,,7001.402000000002,,timeout,,,,,,,,,,,,,,,,194131.40000000596,194130.112,187128.709,187130.59999999404,187145.381,194146.783,,,
screen,html.Screen,0_4_1_0_1_0,2021-12-03T12:08:09.566Z,,,,,,,,,,,,,,,,15,,,,,,,,,,,,,,1487.016999997024,,response,,,7,D,,,,,Space,keypress(Space),,,,silence,Greg --------- ---------- - --- ------- -- --- ------------<br>----- -- -------- ------- ---- ------ - -------- ---- -----<br>--- ------- ---- -- --- -------- --- - ----- ------ ---- --<br>-------- --- -------- -------- --- -------- ---- -- ----- -<br>-------- ---- --- ---------- --------- -- ------- ------ -<br>--------- ----- -----,195634.70000000298,195633.79999999702,194130.112,194131.90000000596,194146.783,195646.863,,0,Greg
screen,html.Screen,0_4_1_0_1_1,2021-12-03T12:08:10.445Z,,,,,,,,,,,,,,,,15,,,,,,,,,,,,,,866.3370000029681,,response,,,7,D,,,,,Space,keypress(Space),,,,silence,"---- Anderson, ---------- - --- ------- -- --- ------------<br>----- -- -------- ------- ---- ------ - -------- ---- -----<br>--- ------- ---- -- --- -------- --- - ----- ------ ---- --<br>-------- --- -------- -------- --- -------- ---- -- ----- -<br>-------- ---- --- ---------- --------- -- ------- ------ -<br>--------- ----- -----",196514.09999999404,196513.20000000298,195630.194,195634.90000000596,195646.863,196530.634,,1,"Anderson,"
screen,html.Screen,0_4_1_0_1_2,2021-12-03T12:08:11.173Z,,,,,,,,,,,,,,,,15,,,,,,,,,,,,,,710.5660000029893,,response,,,7,D,,,,,Space,keypress(Space),,,,silence,---- --------- considered - --- ------- -- --- ------------<br>----- -- -------- ------- ---- ------ - -------- ---- -----<br>--- ------- ---- -- --- -------- --- - ----- ------ ---- --<br>-------- --- -------- -------- --- -------- ---- -- ----- -<br>-------- ---- --- ---------- --------- -- ------- ------ -<br>--------- ----- -----,197242.09999999404,197241.20000000298,196513.964,196514.29999999702,196530.634,197247.469,,2,considered
screen,html.Screen,0_4_1_0_1_3,2021-12-03T12:08:11.757Z,,,,,,,,,,,,,,,,15,,,,,,,,,,,,,,577.8309999970079,,response,,,7,D,,,,,Space,keypress(Space),,,,silence,---- --------- ---------- a --- ------- -- --- ------------<br>----- -- -------- ------- ---- ------ - -------- ---- -----<br>--- ------- ---- -- --- -------- --- - ----- ------ ---- --<br>-------- --- -------- -------- --- -------- ---- -- ----- -<br>-------- ---- --- ---------- --------- -- ------- ------ -<br>--------- ----- -----,197826,197825.29999999702,197230.799,197242.29999999702,197247.469,197831.118,,3,a
screen,html.Screen,0_4_1_0_1_4,2021-12-03T12:08:12.229Z,,,,,,,,,,,,,,,,15,,,,,,,,,,,,,,465.9819999940519,,response,,,7,D,,,,,Space,keypress(Space),,,,silence,---- --------- ---------- - key ------- -- --- ------------<br>----- -- -------- ------- ---- ------ - -------- ---- -----<br>--- ------- ---- -- --- -------- --- - ----- ------ ---- --<br>-------- --- -------- -------- --- -------- ---- -- ----- -<br>-------- ---- --- ---------- --------- -- ------- ------ -<br>--------- ----- -----,198298,198297.09999999404,197814.447,197826.20000000298,197831.118,198314.529,,4,key
screen,html.Screen,0_4_1_0_1_5,2021-12-03T12:08:12.757Z,,,,,,,,,,,,,,,,15,,,,,,,,,,,,,,510.6710000029707,,response,,,7,D,,,,,Space,keypress(Space),,,,silence,---- --------- ---------- - --- witness -- --- ------------<br>----- -- -------- ------- ---- ------ - -------- ---- -----<br>--- ------- ---- -- --- -------- --- - ----- ------ ---- --<br>-------- --- -------- -------- --- -------- ---- -- ----- -<br>-------- ---- --- ---------- --------- -- ------- ------ -<br>--------- ----- -----,198825.90000000596,198825.20000000298,198297.859,198298.20000000298,198314.529,198831.378,,5,witness
screen,html.Screen,0_4_1_0_1_6,2021-12-03T12:08:13.325Z,,,,,,,,,,,,,,,,15,,,,,,,,,,,,,,561.8220000029833,,response,,,7,D,,,,,Space,keypress(Space),,,,silence,---- --------- ---------- - --- ------- by --- ------------<br>----- -- -------- ------- ---- ------ - -------- ---- -----<br>--- ------- ---- -- --- -------- --- - ----- ------ ---- --<br>-------- --- -------- -------- --- -------- ---- -- ----- -<br>-------- ---- --- ---------- --------- -- ------- ------ -<br>--------- ----- -----,199394,199393.20000000298,198814.707,198826.20000000298,198831.378,199398.141,,6,by
screen,html.Screen,0_4_1_0_1_7,2021-12-03T12:08:13.797Z,,,,,,,,,,,,,,,,15,,,,,,,,,,,,,,466.9589999940363,,response,,,7,D,,,,,Space,keypress(Space),,,,silence,---- --------- ---------- - --- ------- -- the ------------<br>----- -- -------- ------- ---- ------ - -------- ---- -----<br>--- ------- ---- -- --- -------- --- - ----- ------ ---- --<br>-------- --- -------- -------- --- -------- ---- -- ----- -<br>-------- ---- --- ---------- --------- -- ------- ------ -<br>--------- ----- -----,199865.90000000596,199865.09999999404,199381.471,199394.20000000298,199398.141,199881.559,,7,the
screen,html.Screen,0_4_1_0_1_8,2021-12-03T12:08:16.261Z,,,,,,,,,,,,,,,,15,,,,,,,,,,,,,,2447.540999994031,,response,,,7,D,,,,,Space,keypress(Space),,,,silence,"---- --------- ---------- - --- ------- -- --- prosecution,<br>----- -- -------- ------- ---- ------ - -------- ---- -----<br>--- ------- ---- -- --- -------- --- - ----- ------ ---- --<br>-------- --- -------- -------- --- -------- ---- -- ----- -<br>-------- ---- --- ---------- --------- -- ------- ------ -<br>--------- ----- -----",202329.90000000596,202329.09999999404,199864.889,199866.09999999404,199881.559,202332.285,,8,"prosecution,"
screen,html.Screen,0_4_1_0_1_9,2021-12-03T12:08:17.717Z,,,,,,,,,,,,,,,,15,,,,,,,,,,,,,,1452.7149999999965,,response,,,7,D,,,,,Space,keypress(Space),,,,silence,---- --------- ---------- - --- ------- -- --- ------------<br>vowed -- -------- ------- ---- ------ - -------- ---- -----<br>--- ------- ---- -- --- -------- --- - ----- ------ ---- --<br>-------- --- -------- -------- --- -------- ---- -- ----- -<br>-------- ---- --- ---------- --------- -- ------- ------ -<br>--------- ----- -----,203785.70000000298,203785,202315.614,202330.09999999404,202332.285,203799.202,,9,vowed
screen,html.Screen,0_4_1_0_1_10,2021-12-03T12:08:18.245Z,,,,,,,,,,,,,,,,15,,,,,,,,,,,,,,513.7980000000098,,response,,,7,D,,,,,Space,keypress(Space),,,,silence,---- --------- ---------- - --- ------- -- --- ------------<br>----- he -------- ------- ---- ------ - -------- ---- -----<br>--- ------- ---- -- --- -------- --- - ----- ------ ---- --<br>-------- --- -------- -------- --- -------- ---- -- ----- -<br>-------- ---- --- ---------- --------- -- ------- ------ -<br>--------- ----- -----,204313.70000000298,204313,203782.532,203786,203799.202,204315.985,,10,he
screen,html.Screen,0_4_1_0_1_11,2021-12-03T12:08:18.645Z,,,,,,,,,,,,,,,,15,,,,,,,,,,,,,,396.91500000597443,,response,,,7,D,,,,,Space,keypress(Space),,,,silence,---- --------- ---------- - --- ------- -- --- ------------<br>----- -- wouldn't ------- ---- ------ - -------- ---- -----<br>--- ------- ---- -- --- -------- --- - ----- ------ ---- --<br>-------- --- -------- -------- --- -------- ---- -- ----- -<br>-------- ---- --- ---------- --------- -- ------- ------ -<br>--------- ----- -----,204713.70000000298,204712.90000000596,204299.315,204314,204315.985,204716.185,,11,wouldn't
screen,html.Screen,0_4_1_0_1_12,2021-12-03T12:08:19.093Z,,,,,,,,,,,,,,,,15,,,,,,,,,,,,,,444.7150000059628,,response,,,7,D,,,,,Space,keypress(Space),,,,silence,---- --------- ---------- - --- ------- -- --- ------------<br>----- -- -------- testify ---- ------ - -------- ---- -----<br>--- ------- ---- -- --- -------- --- - ----- ------ ---- --<br>-------- --- -------- -------- --- -------- ---- -- ----- -<br>-------- ---- --- ---------- --------- -- ------- ------ -<br>--------- ----- -----,205161.70000000298,205160.90000000596,204699.515,204713.90000000596,204716.185,205166.482,,12,testify
screen,html.Screen,0_4_1_0_1_13,2021-12-03T12:08:19.517Z,,,,,,,,,,,,,,,,15,,,,,,,,,,,,,,418.3179999970307,,response,,,7,D,,,,,Space,keypress(Space),,,,silence,---- --------- ---------- - --- ------- -- --- ------------<br>----- -- -------- ------- when ------ - -------- ---- -----<br>--- ------- ---- -- --- -------- --- - ----- ------ ---- --<br>-------- --- -------- -------- --- -------- ---- -- ----- -<br>-------- ---- --- ---------- --------- -- ------- ------ -<br>--------- ----- -----,205585.70000000298,205584.79999999702,205149.809,205161.90000000596,205166.482,205599.808,,13,when
screen,html.Screen,0_4_1_0_1_14,2021-12-03T12:08:20.013Z,,,,,,,,,,,,,,,,15,,,,,,,,,,,,,,481.4919999970298,,response,,,7,D,,,,,Space,keypress(Space),,,,silence,---- --------- ---------- - --- ------- -- --- ------------<br>----- -- -------- ------- ---- served - -------- ---- -----<br>--- ------- ---- -- --- -------- --- - ----- ------ ---- --<br>-------- --- -------- -------- --- -------- ---- -- ----- -<br>-------- ---- --- ---------- --------- -- ------- ------ -<br>--------- ----- -----,206082.09999999404,206081.29999999702,205583.138,205585.90000000596,205599.808,206083.269,,14,served
screen,html.Screen,0_4_1_0_1_15,2021-12-03T12:08:20.445Z,,,,,,,,,,,,,,,,15,,,,,,,,,,,,,,429.53099999701953,,response,,,7,D,,,,,Space,keypress(Space),,,,silence,---- --------- ---------- - --- ------- -- --- ------------<br>----- -- -------- ------- ---- ------ a -------- ---- -----<br>--- ------- ---- -- --- -------- --- - ----- ------ ---- --<br>-------- --- -------- -------- --- -------- ---- -- ----- -<br>-------- ---- --- ---------- --------- -- ------- ------ -<br>--------- ----- -----,206513.59999999404,206512.79999999702,206066.599,206082.40000000596,206083.269,206516.71,,15,a
screen,html.Screen,0_4_1_0_1_16,2021-12-03T12:08:21.357Z,,,,,,,,,,,,,,,,15,,,,,,,,,,,,,,908.0899999970279,,response,,,7,D,,,,,Space,keypress(Space),,,,silence,---- --------- ---------- - --- ------- -- --- ------------<br>----- -- -------- ------- ---- ------ - subpoena ---- -----<br>--- ------- ---- -- --- -------- --- - ----- ------ ---- --<br>-------- --- -------- -------- --- -------- ---- -- ----- -<br>-------- ---- --- ---------- --------- -- ------- ------ -<br>--------- ----- -----,207425.5,207424.79999999702,206500.04,206513.90000000596,206516.71,207433.597,,16,subpoena
screen,html.Screen,0_4_1_0_1_17,2021-12-03T12:08:21.813Z,,,,,,,,,,,,,,,,15,,,,,,,,,,,,,,447.2029999970109,,response,,,7,D,,,,,Space,keypress(Space),,,,silence,---- --------- ---------- - --- ------- -- --- ------------<br>----- -- -------- ------- ---- ------ - -------- last -----<br>--- ------- ---- -- --- -------- --- - ----- ------ ---- --<br>-------- --- -------- -------- --- -------- ---- -- ----- -<br>-------- ---- --- ---------- --------- -- ------- ------ -<br>--------- ----- -----,207881.5,207880.79999999702,207416.927,207425.79999999702,207433.597,207883.688,,17,last
screen,html.Screen,0_4_1_0_1_18,2021-12-03T12:08:22.277Z,,,,,,,,,,,,,,,,15,,,,,,,,,,,,,,461.0120000029856,,response,,,7,D,,,,,Space,keypress(Space),,,,silence,---- --------- ---------- - --- ------- -- --- ------------<br>----- -- -------- ------- ---- ------ - -------- ---- week.<br>--- ------- ---- -- --- -------- --- - ----- ------ ---- --<br>-------- --- -------- -------- --- -------- ---- -- ----- -<br>-------- ---- --- ---------- --------- -- ------- ------ -<br>--------- ----- -----,208345.5,208344.70000000298,207867.018,207881.79999999702,207883.688,208350.467,,18,week.
screen,html.Screen,0_4_1_0_1_19,2021-12-03T12:08:22.685Z,,,,,,,,,,,,,,,,15,,,,,,,,,,,,,,402.23300000297604,,response,,,7,D,,,,,Space,keypress(Space),,,,silence,---- --------- ---------- - --- ------- -- --- ------------<br>----- -- -------- ------- ---- ------ - -------- ---- -----<br>His ------- ---- -- --- -------- --- - ----- ------ ---- --<br>-------- --- -------- -------- --- -------- ---- -- ----- -<br>-------- ---- --- ---------- --------- -- ------- ------ -<br>--------- ----- -----,208753.59999999404,208752.70000000298,208333.797,208345.70000000298,208350.467,208767.397,,19,His
screen,html.Screen,0_4_1_0_1_20,2021-12-03T12:08:23.029Z,,,,,,,,,,,,,,,,15,,,,,,,,,,,,,,329.303000002983,,response,,,7,D,,,,,Space,keypress(Space),,,,silence,---- --------- ---------- - --- ------- -- --- ------------<br>----- -- -------- ------- ---- ------ - -------- ---- -----<br>--- lawyers ---- -- --- -------- --- - ----- ------ ---- --<br>-------- --- -------- -------- --- -------- ---- -- ----- -<br>-------- ---- --- ---------- --------- -- ------- ------ -<br>--------- ----- -----,209097.5,209096.70000000298,208750.725,208753.79999999702,208767.397,209100.695,,20,lawyers
screen,html.Screen,0_4_1_0_1_21,2021-12-03T12:08:23.333Z,,,,,,,,,,,,,,,,15,,,,,,,,,,,,,,300.00500000297325,,response,,,7,D,,,,,Space,keypress(Space),,,,silence,---- --------- ---------- - --- ------- -- --- ------------<br>----- -- -------- ------- ---- ------ - -------- ---- -----<br>--- ------- said -- --- -------- --- - ----- ------ ---- --<br>-------- --- -------- -------- --- -------- ---- -- ----- -<br>-------- ---- --- ---------- --------- -- ------- ------ -<br>--------- ----- -----,209401.40000000596,209400.70000000298,209084.025,209097.70000000298,209100.695,209417.561,,21,said
screen,html.Screen,0_4_1_0_1_22,2021-12-03T12:08:23.621Z,,,,,,,,,,,,,,,,15,,,,,,,,,,,,,,271.13900000299327,,response,,,7,D,,,,,Space,keypress(Space),,,,silence,---- --------- ---------- - --- ------- -- --- ------------<br>----- -- -------- ------- ---- ------ - -------- ---- -----<br>--- ------- ---- he --- -------- --- - ----- ------ ---- --<br>-------- --- -------- -------- --- -------- ---- -- ----- -<br>-------- ---- --- ---------- --------- -- ------- ------ -<br>--------- ----- -----,209689.5,209688.70000000298,209400.889,209401.70000000298,209417.561,209700.901,,22,he
screen,html.Screen,0_4_1_0_1_23,2021-12-03T12:08:23.861Z,,,,,,,,,,,,,,,,15,,,,,,,,,,,,,,227.69899999402696,,response,,,7,D,,,,,Space,keypress(Space),,,,silence,---- --------- ---------- - --- ------- -- --- ------------<br>----- -- -------- ------- ---- ------ - -------- ---- -----<br>--- ------- ---- -- was -------- --- - ----- ------ ---- --<br>-------- --- -------- -------- --- -------- ---- -- ----- -<br>-------- ---- --- ---------- --------- -- ------- ------ -<br>--------- ----- -----,209929.40000000596,209928.59999999404,209684.231,209689.79999999702,209700.901,209934.297,,23,was
screen,html.Screen,0_4_1_0_1_24,2021-12-03T12:08:24.093Z,,,,,,,,,,,,,,,,15,,,,,,,,,,,,,,226.40300000298885,,response,,,7,D,,,,,Space,keypress(Space),,,,silence,---- --------- ---------- - --- ------- -- --- ------------<br>----- -- -------- ------- ---- ------ - -------- ---- -----<br>--- ------- ---- -- --- prepared --- - ----- ------ ---- --<br>-------- --- -------- -------- --- -------- ---- -- ----- -<br>-------- ---- --- ---------- --------- -- ------- ------ -<br>--------- ----- -----,210161.40000000596,210160.70000000298,209917.627,209929.70000000298,209934.297,210167.697,,24,prepared
screen,html.Screen,0_4_1_0_1_25,2021-12-03T12:08:24.525Z,,,,,,,,,,,,,,,,15,,,,,,,,,,,,,,425.00300000299467,,response,,,7,D,,,,,Space,keypress(Space),,,,silence,---- --------- ---------- - --- ------- -- --- ------------<br>----- -- -------- ------- ---- ------ - -------- ---- -----<br>--- ------- ---- -- --- -------- for - ----- ------ ---- --<br>-------- --- -------- -------- --- -------- ---- -- ----- -<br>-------- ---- --- ---------- --------- -- ------- ------ -<br>--------- ----- -----,210593.40000000596,210592.70000000298,210151.027,210161.59999999404,210167.697,210601.134,,25,for
screen,html.Screen,0_4_1_0_1_26,2021-12-03T12:08:24.821Z,,,,,,,,,,,,,,,,15,,,,,,,,,,,,,,287.4659999940486,,response,,,7,D,,,,,Space,keypress(Space),,,,silence,---- --------- ---------- - --- ------- -- --- ------------<br>----- -- -------- ------- ---- ------ - -------- ---- -----<br>--- ------- ---- -- --- -------- --- a ----- ------ ---- --<br>-------- --- -------- -------- --- -------- ---- -- ----- -<br>-------- ---- --- ---------- --------- -- ------- ------ -<br>--------- ----- -----,210889.29999999702,210888.59999999404,210584.464,210593.59999999404,210601.134,210901.241,,26,a
screen,html.Screen,0_4_1_0_1_27,2021-12-03T12:08:25.197Z,,,,,,,,,,,,,,,,15,,,,,,,,,,,,,,363.35899999403046,,response,,,7,D,,,,,Space,keypress(Space),,,,silence,---- --------- ---------- - --- ------- -- --- ------------<br>----- -- -------- ------- ---- ------ - -------- ---- -----<br>--- ------- ---- -- --- -------- --- - third ------ ---- --<br>-------- --- -------- -------- --- -------- ---- -- ----- -<br>-------- ---- --- ---------- --------- -- ------- ------ -<br>--------- ----- -----,211265.40000000596,211264.59999999404,210884.57,210889.59999999404,210901.241,211267.982,,27,third
screen,html.Screen,0_4_1_0_1_28,2021-12-03T12:08:25.517Z,,,,,,,,,,,,,,,,15,,,,,,,,,,,,,,316.6179999940505,,response,,,7,D,,,,,Space,keypress(Space),,,,silence,---- --------- ---------- - --- ------- -- --- ------------<br>----- -- -------- ------- ---- ------ - -------- ---- -----<br>--- ------- ---- -- --- -------- --- - ----- prison ---- --<br>-------- --- -------- -------- --- -------- ---- -- ----- -<br>-------- ---- --- ---------- --------- -- ------- ------ -<br>--------- ----- -----,211585.29999999702,211584.59999999404,211251.312,211265.59999999404,211267.982,211601.372,,28,prison
screen,html.Screen,0_4_1_0_1_29,2021-12-03T12:08:25.852Z,,,,,,,,,,,,,,,,15,,,,,,,,,,,,,,319.127999999997,,response,,,7,D,,,,,Space,keypress(Space),,,,silence,---- --------- ---------- - --- ------- -- --- ------------<br>----- -- -------- ------- ---- ------ - -------- ---- -----<br>--- ------- ---- -- --- -------- --- - ----- ------ stay --<br>-------- --- -------- -------- --- -------- ---- -- ----- -<br>-------- ---- --- ---------- --------- -- ------- ------ -<br>--------- ----- -----,211921.29999999702,211920.5,211584.702,211585.59999999404,211601.372,211934.857,,29,stay
screen,html.Screen,0_4_1_0_1_30,2021-12-03T12:08:26.204Z,,,,,,,,,,,,,,,,15,,,,,,,,,,,,,,337.64300000001094,,response,,,7,D,,,,,Space,keypress(Space),,,,silence,---- --------- ---------- - --- ------- -- --- ------------<br>----- -- -------- ------- ---- ------ - -------- ---- -----<br>--- ------- ---- -- --- -------- --- - ----- ------ ---- to<br>-------- --- -------- -------- --- -------- ---- -- ----- -<br>-------- ---- --- ---------- --------- -- ------- ------ -<br>--------- ----- -----,212273.20000000298,212272.5,211918.186,211921.5,211934.857,212284.953,,30,to
screen,html.Screen,0_4_1_0_1_31,2021-12-03T12:08:26.852Z,,,,,,,,,,,,,,,,15,,,,,,,,,,,,,,635.4470000059518,,response,,,7,D,,,,,Space,keypress(Space),,,,silence,---- --------- ---------- - --- ------- -- --- ------------<br>----- -- -------- ------- ---- ------ - -------- ---- -----<br>--- ------- ---- -- --- -------- --- - ----- ------ ---- --<br>maintain --- -------- -------- --- -------- ---- -- ----- -<br>-------- ---- --- ---------- --------- -- ------- ------ -<br>--------- ----- -----,212921.20000000298,212920.40000000596,212268.282,212273.5,212284.953,212935.082,,31,maintain
screen,html.Screen,0_4_1_0_1_32,2021-12-03T12:08:27.245Z,,,,,,,,,,,,,,,,15,,,,,,,,,,,,,,377.3180000059656,,response,,,7,D,,,,,Space,keypress(Space),,,,silence,---- --------- ---------- - --- ------- -- --- ------------<br>----- -- -------- ------- ---- ------ - -------- ---- -----<br>--- ------- ---- -- --- -------- --- - ----- ------ ---- --<br>-------- his -------- -------- --- -------- ---- -- ----- -<br>-------- ---- --- ---------- --------- -- ------- ------ -<br>--------- ----- -----,213313.40000000596,213312.40000000596,212918.412,212921.40000000596,212935.082,213318.533,,32,his
screen,html.Screen,0_4_1_0_1_33,2021-12-03T12:08:27.510Z,,,,,,,,,,,,,,,,15,,,,,,,,,,,,,,257.86700000596466,,response,,,7,D,,,,,Space,keypress(Space),,,,silence,---- --------- ---------- - --- ------- -- --- ------------<br>----- -- -------- ------- ---- ------ - -------- ---- -----<br>--- ------- ---- -- --- -------- --- - ----- ------ ---- --<br>-------- --- silence. -------- --- -------- ---- -- ----- -<br>-------- ---- --- ---------- --------- -- ------- ------ -<br>--------- ----- -----,213578.40000000596,213576.40000000596,213301.863,213313.59999999404,213318.533,213585.286,,33,silence.
screen,html.Screen,0_4_1_0_1_34,2021-12-03T12:08:28.316Z,,,,,,,,,,,,,,,,15,,,,,,,,,,,,,,799.1140000059677,,response,,,7,D,,,,,Space,keypress(Space),,,,silence,---- --------- ---------- - --- ------- -- --- ------------<br>----- -- -------- ------- ---- ------ - -------- ---- -----<br>--- ------- ---- -- --- -------- --- - ----- ------ ---- --<br>-------- --- -------- Anderson --- -------- ---- -- ----- -<br>-------- ---- --- ---------- --------- -- ------- ------ -<br>--------- ----- -----,214385.20000000298,214384.40000000596,213568.616,213578.59999999404,213585.286,214402.024,,34,Anderson
screen,html.Screen,0_4_1_0_1_35,2021-12-03T12:08:28.796Z,,,,,,,,,,,,,,,,15,,,,,,,,,,,,,,462.3760000059556,,response,,,7,D,,,,,Space,keypress(Space),,,,silence,---- --------- ---------- - --- ------- -- --- ------------<br>----- -- -------- ------- ---- ------ - -------- ---- -----<br>--- ------- ---- -- --- -------- --- - ----- ------ ---- --<br>-------- --- -------- -------- was -------- ---- -- ----- -<br>-------- ---- --- ---------- --------- -- ------- ------ -<br>--------- ----- -----,214865.20000000298,214864.40000000596,214385.355,214385.40000000596,214402.024,214869.063,,35,was
screen,html.Screen,0_4_1_0_1_36,2021-12-03T12:08:29.108Z,,,,,,,,,,,,,,,,15,,,,,,,,,,,,,,307.3370000059658,,response,,,7,D,,,,,Space,keypress(Space),,,,silence,---- --------- ---------- - --- ------- -- --- ------------<br>----- -- -------- ------- ---- ------ - -------- ---- -----<br>--- ------- ---- -- --- -------- --- - ----- ------ ---- --<br>-------- --- -------- -------- --- released ---- -- ----- -<br>-------- ---- --- ---------- --------- -- ------- ------ -<br>--------- ----- -----,215177.20000000298,215176.40000000596,214852.391,214865.40000000596,214869.063,215185.68,,36,released
screen,html.Screen,0_4_1_0_1_37,2021-12-03T12:08:29.340Z,,,,,,,,,,,,,,,,15,,,,,,,,,,,,,,222.72000000596745,,response,,,7,D,,,,,Space,keypress(Space),,,,silence,---- --------- ---------- - --- ------- -- --- ------------<br>----- -- -------- ------- ---- ------ - -------- ---- -----<br>--- ------- ---- -- --- -------- --- - ----- ------ ---- --<br>-------- --- -------- -------- --- -------- July -- ----- -<br>-------- ---- --- ---------- --------- -- ------- ------ -<br>--------- ----- -----,215409.20000000298,215408.40000000596,215169.01,215177.40000000596,215185.68,215419.075,,37,July
screen,html.Screen,0_4_1_0_1_38,2021-12-03T12:08:30.149Z,,,,,,,,,,,,,,,,15,,,,,,,,,,,,,,797.6250000029686,,response,,,7,D,,,,,Space,keypress(Space),,,,silence,---- --------- ---------- - --- ------- -- --- ------------<br>----- -- -------- ------- ---- ------ - -------- ---- -----<br>--- ------- ---- -- --- -------- --- - ----- ------ ---- --<br>-------- --- -------- -------- --- -------- ---- 20 ----- -<br>-------- ---- --- ---------- --------- -- ------- ------ -<br>--------- ----- -----,216217.70000000298,216216.70000000298,215402.405,215409.40000000596,215419.075,216219.325,,38,20
screen,html.Screen,0_4_1_0_1_39,2021-12-03T12:08:30.604Z,,,,,,,,,,,,,,,,15,,,,,,,,,,,,,,453.0750000059488,,response,,,7,D,,,,,Space,keypress(Space),,,,silence,---- --------- ---------- - --- ------- -- --- ------------<br>----- -- -------- ------- ---- ------ - -------- ---- -----<br>--- ------- ---- -- --- -------- --- - ----- ------ ---- --<br>-------- --- -------- -------- --- -------- ---- -- after -<br>-------- ---- --- ---------- --------- -- ------- ------ -<br>--------- ----- -----,216673.20000000298,216672.40000000596,216202.654,216217.90000000596,216219.325,216686.164,,39,after
screen,html.Screen,0_4_1_0_1_40,2021-12-03T12:08:31.140Z,,,,,,,,,,,,,,,,15,,,,,,,,,,,,,,522.2360000059707,,response,,,7,D,,,,,Space,keypress(Space),,,,silence,---- --------- ---------- - --- ------- -- --- ------------<br>----- -- -------- ------- ---- ------ - -------- ---- -----<br>--- ------- ---- -- --- -------- --- - ----- ------ ---- --<br>-------- --- -------- -------- --- -------- ---- -- ----- a<br>-------- ---- --- ---------- --------- -- ------- ------ -<br>--------- ----- -----,217209.09999999404,217208.40000000596,216669.493,216673.40000000596,216686.164,217219.553,,40,a
screen,html.Screen,0_4_1_0_1_41,2021-12-03T12:08:31.604Z,,,,,,,,,,,,,,,,15,,,,,,,,,,,,,,452.74699999700533,,response,,,7,D,,,,,Space,keypress(Space),,,,silence,---- --------- ---------- - --- ------- -- --- ------------<br>----- -- -------- ------- ---- ------ - -------- ---- -----<br>--- ------- ---- -- --- -------- --- - ----- ------ ---- --<br>-------- --- -------- -------- --- -------- ---- -- ----- -<br>two-week ---- --- ---------- --------- -- ------- ------ -<br>--------- ----- -----,217673.09999999404,217672.29999999702,217202.883,217209.40000000596,217219.553,217686.341,,41,two-week
screen,html.Screen,0_4_1_0_1_42,2021-12-03T12:08:31.988Z,,,,,,,,,,,,,,,,15,,,,,,,,,,,,,,369.95899999703397,,response,,,7,D,,,,,Space,keypress(Space),,,,silence,---- --------- ---------- - --- ------- -- --- ------------<br>----- -- -------- ------- ---- ------ - -------- ---- -----<br>--- ------- ---- -- --- -------- --- - ----- ------ ---- --<br>-------- --- -------- -------- --- -------- ---- -- ----- -<br>-------- stay --- ---------- --------- -- ------- ------ -<br>--------- ----- -----,218057.09999999404,218056.29999999702,217669.671,217673.40000000596,217686.341,218069.797,,42,stay
screen,html.Screen,0_4_1_0_1_43,2021-12-03T12:08:32.220Z,,,,,,,,,,,,,,,,15,,,,,,,,,,,,,,218.50299999702838,,response,,,7,D,,,,,Space,keypress(Space),,,,silence,---- --------- ---------- - --- ------- -- --- ------------<br>----- -- -------- ------- ---- ------ - -------- ---- -----<br>--- ------- ---- -- --- -------- --- - ----- ------ ---- --<br>-------- --- -------- -------- --- -------- ---- -- ----- -<br>-------- ---- for ---------- --------- -- ------- ------ -<br>--------- ----- -----,218289,218288.29999999702,218053.127,218057.29999999702,218069.797,218303.178,,43,for
screen,html.Screen,0_4_1_0_1_44,2021-12-03T12:08:32.404Z,,,,,,,,,,,,,,,,15,,,,,,,,,,,,,,169.12199999700533,,response,,,7,D,,,,,Space,keypress(Space),,,,silence,---- --------- ---------- - --- ------- -- --- ------------<br>----- -- -------- ------- ---- ------ - -------- ---- -----<br>--- ------- ---- -- --- -------- --- - ----- ------ ---- --<br>-------- --- -------- -------- --- -------- ---- -- ----- -<br>-------- ---- --- previously --------- -- ------- ------ -<br>--------- ----- -----,218473,218472.29999999702,218286.508,218289.29999999702,218303.178,218486.58,,44,previously
screen,html.Screen,0_4_1_0_1_45,2021-12-03T12:08:32.908Z,,,,,,,,,,,,,,,,15,,,,,,,,,,,,,,489.62000000299304,,response,,,7,D,,,,,Space,keypress(Space),,,,silence,---- --------- ---------- - --- ------- -- --- ------------<br>----- -- -------- ------- ---- ------ - -------- ---- -----<br>--- ------- ---- -- --- -------- --- - ----- ------ ---- --<br>-------- --- -------- -------- --- -------- ---- -- ----- -<br>-------- ---- --- ---------- declining -- ------- ------ -<br>--------- ----- -----,218977.09999999404,218976.20000000298,218469.91,218473.20000000298,218486.58,218986.685,,45,declining
screen,html.Screen,0_4_1_0_1_46,2021-12-03T12:08:33.052Z,,,,,,,,,,,,,,,,15,,,,,,,,,,,,,,133.6149999970221,,response,,,7,D,,,,,Space,keypress(Space),,,,silence,---- --------- ---------- - --- ------- -- --- ------------<br>----- -- -------- ------- ---- ------ - -------- ---- -----<br>--- ------- ---- -- --- -------- --- - ----- ------ ---- --<br>-------- --- -------- -------- --- -------- ---- -- ----- -<br>-------- ---- --- ---------- --------- to ------- ------ -<br>--------- ----- -----,219121.09999999404,219120.29999999702,218970.015,218977.29999999702,218986.685,219136.769,,46,to
screen,html.Screen,0_4_1_0_1_47,2021-12-03T12:08:33.572Z,,,,,,,,,,,,,,,,15,,,,,,,,,,,,,,503.43100000298,,response,,,7,D,,,,,Space,keypress(Space),,,,silence,---- --------- ---------- - --- ------- -- --- ------------<br>----- -- -------- ------- ---- ------ - -------- ---- -----<br>--- ------- ---- -- --- -------- --- - ----- ------ ---- --<br>-------- --- -------- -------- --- -------- ---- -- ----- -<br>-------- ---- --- ---------- --------- -- testify ------ -<br>--------- ----- -----,219641.09999999404,219640.20000000298,219120.098,219121.40000000596,219136.769,219653.573,,47,testify
screen,html.Screen,0_4_1_0_1_48,2021-12-03T12:08:33.716Z,,,,,,,,,,,,,,,,15,,,,,,,,,,,,,,130.7269999970158,,response,,,7,D,,,,,Space,keypress(Space),,,,silence,---- --------- ---------- - --- ------- -- --- ------------<br>----- -- -------- ------- ---- ------ - -------- ---- -----<br>--- ------- ---- -- --- -------- --- - ----- ------ ---- --<br>-------- --- -------- -------- --- -------- ---- -- ----- -<br>-------- ---- --- ---------- --------- -- ------- before -<br>--------- ----- -----,219785,219784.29999999702,219636.902,219641.20000000298,219653.573,219786.899,,48,before
screen,html.Screen,0_4_1_0_1_49,2021-12-03T12:08:34.316Z,,,,,,,,,,,,,,,,15,,,,,,,,,,,,,,597.3010000029753,,response,,,7,D,,,,,Space,keypress(Space),,,,silence,---- --------- ---------- - --- ------- -- --- ------------<br>----- -- -------- ------- ---- ------ - -------- ---- -----<br>--- ------- ---- -- --- -------- --- - ----- ------ ---- --<br>-------- --- -------- -------- --- -------- ---- -- ----- -<br>-------- ---- --- ---------- --------- -- ------- ------ a<br>--------- ----- -----,220384.90000000596,220384.20000000298,219770.229,219785.20000000298,219786.899,220387.105,,49,a
screen,html.Screen,0_4_1_0_1_50,2021-12-03T12:08:34.660Z,,,,,,,,,,,,,,,,15,,,,,,,,,,,,,,340.99499999402906,,response,,,7,D,,,,,Space,keypress(Space),,,,silence,---- --------- ---------- - --- ------- -- --- ------------<br>----- -- -------- ------- ---- ------ - -------- ---- -----<br>--- ------- ---- -- --- -------- --- - ----- ------ ---- --<br>-------- --- -------- -------- --- -------- ---- -- ----- -<br>-------- ---- --- ---------- --------- -- ------- ------ -<br>different ----- -----,220728.90000000596,220728.09999999404,220370.434,220385.20000000298,220387.105,220737.102,,50,different
screen,html.Screen,0_4_1_0_1_51,2021-12-03T12:08:34.812Z,,,,,,,,,,,,,,,,15,,,,,,,,,,,,,,142.99799999402603,,response,,,7,D,,,,,Space,keypress(Space),,,,silence,---- --------- ---------- - --- ------- -- --- ------------<br>----- -- -------- ------- ---- ------ - -------- ---- -----<br>--- ------- ---- -- --- -------- --- - ----- ------ ---- --<br>-------- --- -------- -------- --- -------- ---- -- ----- -<br>-------- ---- --- ---------- --------- -- ------- ------ -<br>--------- grand -----,220880.90000000596,220880.09999999404,220720.433,220729.09999999404,220737.102,220887.237,,51,grand
