sender,sender_type,sender_id,timestamp,meta,,Blues,Classical,Country,Dance,Electronic,Folk,Gospel,Hip-Hop,Jazz,Latin,Musical/Film,New-age,Pop,Provo_ID,R&B,Rap,Reggae,Religious,Rock,Soul,Swing,Traditional,age,artist_name,correct,correctResponse,distraction,duration,education,ended_on,familiarity,gender,headphone_check_performance,item,list,music_frequency,offensiveness,pleasantness,position_correct,preference,response,response_action,snippet_file,song_name,song_rating,sound,stimulus_1,stimulus_2,stimulus_3,text,time_commit,time_end,time_render,time_run,time_show,time_switch,url,word,word_ID
Introduction,html.Screen,0_0,2021-04-12T18:44:47.189Z,"{""labjs_version"":""20.2.2"",""labjs_build"":{""flavor"":""production"",""commit"":""a25486e0c714a0ae2ce03ff94b7bb6896854dcfa""},""location"":""https://run.pavlovia.org/mvasilev/music_b/"",""userAgent"":""Mozilla/5.0 (Windows NT 10.0; Win64; x64) AppleWebKit/537.36 (KHTML, like Gecko) Chrome/89.0.4389.114 Safari/537.36 Edg/89.0.774.75"",""platform"":""Win32"",""language"":""en-GB"",""locale"":""en-GB"",""timeZone"":""Europe/London"",""timezoneOffset"":-60,""screen_width"":1536,""screen_height"":864,""scroll_width"":1536,""scroll_height"":706,""window_innerWidth"":1536,""window_innerHeight"":754,""devicePixelRatio"":1.25}",,,,,,,,,,,,,,,,,,,,,,,,,,,,,21353.271000016335,,response,,,,,,,,,,,continue,click button,,,,,,,,,29308.024999976624,29306.165000016335,7936.403,7944.484999985434,7952.894,29329.509,{},,
Volume calibration,html.Screen,0_1,2021-04-12T18:45:08.959Z,,,,,,,,,,,,,,,,,,,,,,,,,,,,,,21744.896000021217,,response,,,,,,,,,,,continue,click button,,,,,,,,,51077.570000023115,51074.405000021216,29296.296,29308.33500000881,29329.509,51088.868,,,
Task instructions,html.Screen,0_2,2021-04-12T18:45:11.217Z,,,,,,,,,,,,,,,,,,,,,,,,,,,,,,2245.5270000125893,,response,,,,,,,,,,,continue,click button,,,,,,,,,53335.5149999843,53334.39500001259,51072.459,51077.66499998979,51088.868,53353.108,,,
Sounds,html.Screen,0_3_0_0,2021-04-12T18:45:15.486Z,,,,,,,,,,,,,,,,,,,,,,,,,,,,,,4245.284999999996,,timeout,,,,,,,,,3,,,,,,,,I,O,S,,57605.14499997953,57581.831,53319.77,53335.68499999819,53353.108,57598.393,,,
Judgement,html.Screen,0_3_0_1,2021-04-12T18:45:24.481Z,,,,,,,,,,,,,,,,,,,,,,,,,,,true,3,,8999.986999981265,,response,,,,,,,,,3,,3,click #choice-3,,,,,I,O,S,,66599.59499997785,66598.37999998126,57581.831,57605.340000009164,57598.393,66605.251,,,
Trial,flow.Sequence,0_3_0,2021-04-12T18:45:24.482Z,,,,,,,,,,,,,,,,,,,,,,,,,,,,,,13245.271999981262,,completion,,,,,,,,,3,,,,,,,,I,O,S,,66600.89000000153,66598.37999998126,53319.77,53335.659999982454,53353.108,66605.251,,,
Sounds,html.Screen,0_3_1_0,2021-04-12T18:45:28.716Z,,,,,,,,,,,,,,,,,,,,,,,,,,,,,,4245.303999999989,,timeout,,,,,,,,,2,,,,,,,,I,S,O,,70834.64499999536,70833.948,66588.547,66600.99000000628,66605.251,70850.555,,,
Judgement,html.Screen,0_3_1_1,2021-04-12T18:45:32.528Z,,,,,,,,,,,,,,,,,,,,,,,,,,,true,2,,3795.4949999811943,,response,,,,,,,,,2,,2,click #choice-2,,,,,I,S,O,,74647.05999998841,74646.04999998119,70833.948,70834.76499997778,70850.555,74663.201,,,
Trial,flow.Sequence,0_3_1,2021-04-12T18:45:32.528Z,,,,,,,,,,,,,,,,,,,,,,,,,,,,,,8040.798999981183,,completion,,,,,,,,,2,,,,,,,,I,S,O,,74647.27499999572,74646.04999998119,66588.547,66600.9699999704,66605.251,74663.201,,,
Sounds,html.Screen,0_3_2_0,2021-04-12T18:45:36.774Z,,,,,,,,,,,,,,,,,,,,,,,,,,,,,,4245.130999999994,,timeout,,,,,,,,,1,,,,,,,,S,I,O,,78892.83500000602,78891.773,74646.422,74647.41999999387,74663.201,78908.332,,,
Judgement,html.Screen,0_3_2_1,2021-04-12T18:45:41.377Z,,,,,,,,,,,,,,,,,,,,,,,,,,,true,1,,4586.052999969048,,response,,,,,,,,,1,,1,click #choice-1,,,,,S,I,O,,83495.745000022,83494.38499996904,78891.773,78892.92000001296,78908.332,83503.408,,,
Trial,flow.Sequence,0_3_2,2021-04-12T18:45:41.377Z,,,,,,,,,,,,,,,,,,,,,,,,,,,,,,8831.183999969042,,completion,,,,,,,,,1,,,,,,,,S,I,O,,83495.93500001356,83494.38499996904,74646.422,74647.3700000206,74663.201,83503.408,,,
Sounds,html.Screen,0_3_3_0,2021-04-12T18:45:45.614Z,,,,,,,,,,,,,,,,,,,,,,,,,,,,,,4245.952000000005,,timeout,,,,,,,,,3,,,,,,,,O,I,S,,87733.42499998398,87732.114,83486.858,83496.08000001172,83503.408,87749.36,,,
Judgement,html.Screen,0_3_3_1,2021-04-12T18:45:46.305Z,,,,,,,,,,,,,,,,,,,,,,,,,,,true,3,,673.1399999860296,,response,,,,,,,,,3,,3,click #choice-3,,,,,O,I,S,,88423.99999999907,88422.49999998603,87732.114,87733.68499998469,87749.36,88431.247,,,
Trial,flow.Sequence,0_3_3,2021-04-12T18:45:46.305Z,,,,,,,,,,,,,,,,,,,,,,,,,,,,,,4919.091999986034,,completion,,,,,,,,,3,,,,,,,,O,I,S,,88424.12999999942,88422.49999998603,83486.858,83496.02500000037,83503.408,88431.247,,,
Sounds,html.Screen,0_3_4_0,2021-04-12T18:45:50.542Z,,,,,,,,,,,,,,,,,,,,,,,,,,,,,,4245.300999999992,,timeout,,,,,,,,,2,,,,,,,,O,S,I,,92661.03999997722,92659.997,88414.719,88424.2099999683,88431.247,92676.548,,,
Judgement,html.Screen,0_3_4_1,2021-04-12T18:45:52.692Z,,,,,,,,,,,,,,,,,,,,,,,,,,,true,2,,2133.622000011572,,response,,,,,,,,,2,,2,click #choice-2,,,,,O,S,I,,94811.38999998802,94810.17000001157,92659.997,92661.14500002004,92676.548,94824.336,,,
Trial,flow.Sequence,0_3_4,2021-04-12T18:45:52.693Z,,,,,,,,,,,,,,,,,,,,,,,,,,,,,,6378.923000011564,,completion,,,,,,,,,2,,,,,,,,O,S,I,,94811.74500001362,94810.17000001157,88414.719,88424.18999999063,88431.247,94824.336,,,
Sounds,html.Screen,0_3_5_0,2021-04-12T18:45:56.935Z,,,,,,,,,,,,,,,,,,,,,,,,,,,,,,4245.273000000001,,timeout,,,,,,,,,1,,,,,,,,S,O,I,,99053.90499997884,99052.96,94807.621,94811.87500001397,94824.336,99069.609,,,
Judgement,html.Screen,0_3_5_1,2021-04-12T18:46:00.216Z,,,,,,,,,,,,,,,,,,,,,,,,,,,true,1,,3264.5309999917517,,response,,,,,,,,,1,,1,click #choice-1,,,,,S,O,I,,102335.44499997515,102334.13999999175,99052.96,99053.98500000592,99069.609,102349.448,,,
Trial,flow.Sequence,0_3_5,2021-04-12T18:46:00.216Z,,,,,,,,,,,,,,,,,,,,,,,,,,,,,,7509.803999991753,,completion,,,,,,,,,1,,,,,,,,S,O,I,,102335.60499997111,102334.13999999175,94807.621,94811.81500002276,94824.336,102349.448,,,
Task,flow.Loop,0_3,2021-04-12T18:46:00.219Z,,,,,,,,,,,,,,,,,,,,,,,,,,,,,,48981.03199999175,,completion,,,1,,,,,,,,,,,,,,,,,,102338.22500001406,102334.13999999175,53319.77,53335.62999998685,53353.108,102349.448,,,
Trap,html.Screen,0_4,2021-04-12T18:46:00.220Z,,,,,,,,,,,,,,,,,,,,,,,,,,,,,,NaN,,skipped,,,,,,,,,,,,,,,,,,,,,102339.44999997038,102334.13999999175,,102339.38000001945,,102349.448,,,
Thanks,html.Screen,0_5,2021-04-12T18:46:03.389Z,,,,,,,,,,,,,,,,,,,,,,,,,,,,,,3157.106999970827,,response,,,,,,,,,,,continue,click button,,,,,,,,,105507.70000001648,105506.55499997083,102333.011,102339.58999998868,102349.448,110007.577,,,
Headphone screening,flow.Sequence,0,2021-04-12T18:46:03.389Z,,,,,,,,,,,,,,,,,,,,,,,,,,,,,,97553.66099997083,,completion,,,,,,,,,,,,,,,,,,,,,105507.80000002123,105506.55499997083,7936.403,7944.459999969695,7952.894,110007.577,,,
Instructions,html.Page,1_0,2021-04-12T18:46:09.258Z,,,,,,,,,,,,,,,,,,,,,,,,,,,,,,1368.9129999950965,,form submission,,,,,,,,,,,,,,,,,,,,,111376.68500002474,111376.4899999951,109974.257,110004.58999996772,110007.577,111402.192,,,
Holding screen,html.Screen,1_1_0_0,2021-04-12T18:46:19.261Z,,,,,,,,,,,,,,,,,,,,,,,,,,,,,,9992.809999999998,,timeout,,,,,,,,,,,,,,,,,,,,,121379.68000001274,121378.608,111356.123,111376.79999996908,111402.192,121395.002,,,
screen,html.Screen,1_1_0_1_0,2021-04-12T18:46:20.348Z,,,,,,,,,,,,,,,,53,,,,,,,,,,,,,,1069.973000009879,,response,,,,99,,,,,,,Space,keypress(Space),,,,,,,,When -- ----- -- ------ - ------- --- ----------<br>------------- ------ ------ ---- ---- ------- ----- -- ----<br>-------- ------- -- ---------- --- - --- ----- ----- ----<br>---- --- --- ----- --- ---- ---- ------- ----- ---- -------<br>--- --- -- ----- -- --- ---- -- --- ---- -- ------ ------<br>--- ----- -- ----,122466.84999996796,122464.97500000987,121378.608,121379.81499999296,121395.002,122477.249,,0,When
screen,html.Screen,1_1_0_1_1,2021-04-12T18:46:20.738Z,,,,,,,,,,,,,,,,53,,,,,,,,,,,,,,378.6759999816568,,response,,,,99,,,,,,,Space,keypress(Space),,,,,,,,---- it ----- -- ------ - ------- --- ----------<br>------------- ------ ------ ---- ---- ------- ----- -- ----<br>-------- ------- -- ---------- --- - --- ----- ----- ----<br>---- --- --- ----- --- ---- ---- ------- ----- ---- -------<br>--- --- -- ----- -- --- ---- -- --- ---- -- ------ ------<br>--- ----- -- ----,122856.70499998378,122855.92499998165,122460.877,122466.97000000859,122477.249,122876.76,,1,it
screen,html.Screen,1_1_0_1_2,2021-04-12T18:46:21.140Z,,,,,,,,,,,,,,,,53,,,,,,,,,,,,,,381.2399999725312,,response,,,,99,,,,,,,Space,keypress(Space),,,,,,,,---- -- comes -- ------ - ------- --- ----------<br>------------- ------ ------ ---- ---- ------- ----- -- ----<br>-------- ------- -- ---------- --- - --- ----- ----- ----<br>---- --- --- ----- --- ---- ---- ------- ----- ---- -------<br>--- --- -- ----- -- --- ---- -- --- ---- -- ------ ------<br>--- ----- -- ----,123258.8649999816,123257.99999997253,122860.228,122856.79499997059,122876.76,123293.019,,2,comes
screen,html.Screen,1_1_0_1_3,2021-04-12T18:46:21.538Z,,,,,,,,,,,,,,,,53,,,,,,,,,,,,,,363.18600000659353,,response,,,,99,,,,,,,Space,keypress(Space),,,,,,,,---- -- ----- to ------ - ------- --- ----------<br>------------- ------ ------ ---- ---- ------- ----- -- ----<br>-------- ------- -- ---------- --- - --- ----- ----- ----<br>---- --- --- ----- --- ---- ---- ------- ----- ---- -------<br>--- --- -- ----- -- --- ---- -- --- ---- -- ------ ------<br>--- ----- -- ----,123657.42000000319,123656.2050000066,123276.507,123258.93999997061,123293.019,123659.644,,3,to
screen,html.Screen,1_1_0_1_4,2021-04-12T18:46:21.916Z,,,,,,,,,,,,,,,,53,,,,,,,,,,,,,,374.79099997956655,,response,,,,99,,,,,,,Space,keypress(Space),,,,,,,,---- -- ----- -- having - ------- --- ----------<br>------------- ------ ------ ---- ---- ------- ----- -- ----<br>-------- ------- -- ---------- --- - --- ----- ----- ----<br>---- --- --- ----- --- ---- ---- ------- ----- ---- -------<br>--- --- -- ----- -- --- ---- -- --- ---- -- ------ ------<br>--- ----- -- ----,124035.13500001281,124034.43499997957,123642.932,123657.53500000574,123659.644,124042.237,,4,having
screen,html.Screen,1_1_0_1_5,2021-04-12T18:46:22.355Z,,,,,,,,,,,,,,,,53,,,,,,,,,,,,,,431.1780000149447,,response,,,,99,,,,,,,Space,keypress(Space),,,,,,,,---- -- ----- -- ------ a ------- --- ----------<br>------------- ------ ------ ---- ---- ------- ----- -- ----<br>-------- ------- -- ---------- --- - --- ----- ----- ----<br>---- --- --- ----- --- ---- ---- ------- ----- ---- -------<br>--- --- -- ----- -- --- ---- -- --- ---- -- ------ ------<br>--- ----- -- ----,124474.33499997715,124473.41500001494,124025.537,124035.23999999743,124042.237,124475.005,,5,a
screen,html.Screen,1_1_0_1_6,2021-04-12T18:46:22.802Z,,,,,,,,,,,,,,,,53,,,,,,,,,,,,,,446.02499996859115,,response,,,,99,,,,,,,Space,keypress(Space),,,,,,,,---- -- ----- -- ------ - lasting --- ----------<br>------------- ------ ------ ---- ---- ------- ----- -- ----<br>-------- ------- -- ---------- --- - --- ----- ----- ----<br>---- --- --- ----- --- ---- ---- ------- ----- ---- -------<br>--- --- -- ----- -- --- ---- -- --- ---- -- ------ ------<br>--- ----- -- ----,124921.48499999894,124921.0299999686,124458.453,124474.4199999841,124475.005,124924.424,,6,lasting
screen,html.Screen,1_1_0_1_7,2021-04-12T18:46:23.291Z,,,,,,,,,,,,,,,,53,,,,,,,,,,,,,,484.90599999495316,,response,,,,99,,,,,,,Space,keypress(Space),,,,,,,,---- -- ----- -- ------ - ------- and ----------<br>------------- ------ ------ ---- ---- ------- ----- -- ----<br>-------- ------- -- ---------- --- - --- ----- ----- ----<br>---- --- --- ----- --- ---- ---- ------- ----- ---- -------<br>--- --- -- ----- -- --- ---- -- --- ---- -- ------ ------<br>--- ----- -- ----,125410.02999997,125409.32999999495,124907.954,124921.56499996781,124924.424,125424.109,,7,and
screen,html.Screen,1_1_0_1_8,2021-04-12T18:46:23.792Z,,,,,,,,,,,,,,,,53,,,,,,,,,,,,,,486.09600002196385,,response,,,,99,,,,,,,Space,keypress(Space),,,,,,,,---- -- ----- -- ------ - ------- --- fulfilling<br>------------- ------ ------ ---- ---- ------- ----- -- ----<br>-------- ------- -- ---------- --- - --- ----- ----- ----<br>---- --- --- ----- --- ---- ---- ------- ----- ---- -------<br>--- --- -- ----- -- --- ---- -- --- ---- -- ------ ------<br>--- ----- -- ----,125911.0750000109,125910.20500002196,125407.393,125410.16999998828,125424.109,125923.426,,8,fulfilling
screen,html.Screen,1_1_0_1_9,2021-04-12T18:46:24.222Z,,,,,,,,,,,,,,,,53,,,,,,,,,,,,,,417.3789999852597,,response,,,,99,,,,,,,Space,keypress(Space),,,,,,,,"---- -- ----- -- ------ - ------- --- ----------<br>relationship, ------ ------ ---- ---- ------- ----- -- ----<br>-------- ------- -- ---------- --- - --- ----- ----- ----<br>---- --- --- ----- --- ---- ---- ------- ----- ---- -------<br>--- --- -- ----- -- --- ---- -- --- ---- -- ------ ------<br>--- ----- -- ----",126341.46999998484,126340.80499998527,125906.757,125911.17999999551,125923.426,126356.443,,9,"relationship,"
screen,html.Screen,1_1_0_1_10,2021-04-12T18:46:25.375Z,,,,,,,,,,,,,,,,53,,,,,,,,,,,,,,1136.6420000237122,,response,,,,99,,,,,,,Space,keypress(Space),,,,,,,,---- -- ----- -- ------ - ------- --- ----------<br>------------- common ------ ---- ---- ------- ----- -- ----<br>-------- ------- -- ---------- --- - --- ----- ----- ----<br>---- --- --- ----- --- ---- ---- ------- ----- ---- -------<br>--- --- -- ----- -- --- ---- -- --- ---- -- ------ ------<br>--- ----- -- ----,127493.78999997862,127493.08500002371,126339.775,126341.53999999398,126356.443,127504.997,,10,common
screen,html.Screen,1_1_0_1_11,2021-04-12T18:46:25.875Z,,,,,,,,,,,,,,,,53,,,,,,,,,,,,,,487.57799998202245,,response,,,,99,,,,,,,Space,keypress(Space),,,,,,,,---- -- ----- -- ------ - ------- --- ----------<br>------------- ------ wisdom ---- ---- ------- ----- -- ----<br>-------- ------- -- ---------- --- - --- ----- ----- ----<br>---- --- --- ----- --- ---- ---- ------- ----- ---- -------<br>--- --- -- ----- -- --- ---- -- --- ---- -- ------ ------<br>--- ----- -- ----,127993.73499996727,127992.57499998203,127488.58,127493.8850000035,127504.997,128004.432,,11,wisdom
screen,html.Screen,1_1_0_1_12,2021-04-12T18:46:26.321Z,,,,,,,,,,,,,,,,53,,,,,,,,,,,,,,434.68300001558964,,response,,,,99,,,,,,,Space,keypress(Space),,,,,,,,---- -- ----- -- ------ - ------- --- ----------<br>------------- ------ ------ says ---- ------- ----- -- ----<br>-------- ------- -- ---------- --- - --- ----- ----- ----<br>---- --- --- ----- --- ---- ---- ------- ----- ---- -------<br>--- --- -- ----- -- --- ---- -- --- ---- -- ------ ------<br>--- ----- -- ----,128440.04499999573,128439.11500001559,127987.844,127993.81999997422,128004.432,128454.136,,12,says
screen,html.Screen,1_1_0_1_13,2021-04-12T18:46:26.769Z,,,,,,,,,,,,,,,,53,,,,,,,,,,,,,,433.50399997172644,,response,,,,99,,,,,,,Space,keypress(Space),,,,,,,,---- -- ----- -- ------ - ------- --- ----------<br>------------- ------ ------ ---- that ------- ----- -- ----<br>-------- ------- -- ---------- --- - --- ----- ----- ----<br>---- --- --- ----- --- ---- ---- ------- ----- ---- -------<br>--- --- -- ----- -- --- ---- -- --- ---- -- ------ ------<br>--- ----- -- ----,128888.57499998994,128887.63999997173,128437.457,128440.16499997815,128454.136,128903.578,,13,that
screen,html.Screen,1_1_0_1_14,2021-04-12T18:46:27.250Z,,,,,,,,,,,,,,,,53,,,,,,,,,,,,,,464.57699997465534,,response,,,,99,,,,,,,Space,keypress(Space),,,,,,,,---- -- ----- -- ------ - ------- --- ----------<br>------------- ------ ------ ---- ---- feeling ----- -- ----<br>-------- ------- -- ---------- --- - --- ----- ----- ----<br>---- --- --- ----- --- ---- ---- ------- ----- ---- -------<br>--- --- -- ----- -- --- ---- -- --- ---- -- ------ ------<br>--- ----- -- ----,129369.23000001116,129368.15499997465,128886.896,128888.79499997711,128903.578,129403.041,,14,feeling
screen,html.Screen,1_1_0_1_15,2021-04-12T18:46:27.749Z,,,,,,,,,,,,,,,,53,,,,,,,,,,,,,,463.8389999868523,,response,,,,99,,,,,,,Space,keypress(Space),,,,,,,,---- -- ----- -- ------ - ------- --- ----------<br>------------- ------ ------ ---- ---- ------- close -- ----<br>-------- ------- -- ---------- --- - --- ----- ----- ----<br>---- --- --- ----- --- ---- ---- ------- ----- ---- -------<br>--- --- -- ----- -- --- ---- -- --- ---- -- ------ ------<br>--- ----- -- ----,129867.71000002045,129866.87999998685,129386.365,129369.34999999357,129403.041,129891.524,,15,close
screen,html.Screen,1_1_0_1_16,2021-04-12T18:46:28.139Z,,,,,,,,,,,,,,,,53,,,,,,,,,,,,,,365.9310000135738,,response,,,,99,,,,,,,Space,keypress(Space),,,,,,,,---- -- ----- -- ------ - ------- --- ----------<br>------------- ------ ------ ---- ---- ------- ----- to ----<br>-------- ------- -- ---------- --- - --- ----- ----- ----<br>---- --- --- ----- --- ---- ---- ------- ----- ---- -------<br>--- --- -- ----- -- --- ---- -- --- ---- -- ------ ------<br>--- ----- -- ----,130258.34499998018,130257.45500001358,129852.565,129867.94999998529,129891.524,130268.759,,16,to
screen,html.Screen,1_1_0_1_17,2021-04-12T18:46:28.603Z,,,,,,,,,,,,,,,,53,,,,,,,,,,,,,,451.9810000188445,,response,,,,99,,,,,,,Space,keypress(Space),,,,,,,,---- -- ----- -- ------ - ------- --- ----------<br>------------- ------ ------ ---- ---- ------- ----- -- your<br>-------- ------- -- ---------- --- - --- ----- ----- ----<br>---- --- --- ----- --- ---- ---- ------- ----- ---- -------<br>--- --- -- ----- -- --- ---- -- --- ---- -- ------ ------<br>--- ----- -- ----,130721.71000001254,130720.74000001885,130252.13,130258.45999998273,130268.759,130735.448,,17,your
screen,html.Screen,1_1_0_1_18,2021-04-12T18:46:29.587Z,,,,,,,,,,,,,,,,53,,,,,,,,,,,,,,970.1620000045223,,response,,,,99,,,,,,,Space,keypress(Space),,,,,,,,---- -- ----- -- ------ - ------- --- ----------<br>------------- ------ ------ ---- ---- ------- ----- -- ----<br>romantic ------- -- ---------- --- - --- ----- ----- ----<br>---- --- --- ----- --- ---- ---- ------- ----- ---- -------<br>--- --- -- ----- -- --- ---- -- --- ---- -- ------ ------<br>--- ----- -- ----,131706.46499999566,131705.61000000453,130718.224,130721.9599999953,130735.448,131717.044,,18,romantic
screen,html.Screen,1_1_0_1_19,2021-04-12T18:46:30.070Z,,,,,,,,,,,,,,,,53,,,,,,,,,,,,,,471.6810000145342,,response,,,,99,,,,,,,Space,keypress(Space),,,,,,,,---- -- ----- -- ------ - ------- --- ----------<br>------------- ------ ------ ---- ---- ------- ----- -- ----<br>-------- partner -- ---------- --- - --- ----- ----- ----<br>---- --- --- ----- --- ---- ---- ------- ----- ---- -------<br>--- --- -- ----- -- --- ---- -- --- ---- -- ------ ------<br>--- ----- -- ----,132189.59999998333,132188.72500001453,131700.61,131706.57500001835,131717.044,132200.05,,19,partner
screen,html.Screen,1_1_0_1_20,2021-04-12T18:46:30.595Z,,,,,,,,,,,,,,,,53,,,,,,,,,,,,,,512.8850000177626,,response,,,,99,,,,,,,Space,keypress(Space),,,,,,,,---- -- ----- -- ------ - ------- --- ----------<br>------------- ------ ------ ---- ---- ------- ----- -- ----<br>-------- ------- is ---------- --- - --- ----- ----- ----<br>---- --- --- ----- --- ---- ---- ------- ----- ---- -------<br>--- --- -- ----- -- --- ---- -- --- ---- -- ------ ------<br>--- ----- -- ----,132713.88499997556,132712.93500001775,132183.343,132189.6800000104,132200.05,132716.104,,20,is
screen,html.Screen,1_1_0_1_21,2021-04-12T18:46:31.816Z,,,,,,,,,,,,,,,,53,,,,,,,,,,,,,,1217.7759999677655,,response,,,,99,,,,,,,Space,keypress(Space),,,,,,,,---- -- ----- -- ------ - ------- --- ----------<br>------------- ------ ------ ---- ---- ------- ----- -- ----<br>-------- ------- -- paramount. --- - --- ----- ----- ----<br>---- --- --- ----- --- ---- ---- ------- ----- ---- -------<br>--- --- -- ----- -- --- ---- -- --- ---- -- ------ ------<br>--- ----- -- ----,133934.88999997498,133933.87999996776,132699.367,132713.96500000264,132716.104,133947.988,,21,paramount.
screen,html.Screen,1_1_0_1_22,2021-04-12T18:46:32.488Z,,,,,,,,,,,,,,,,53,,,,,,,,,,,,,,658.1920000024838,,response,,,,99,,,,,,,Space,keypress(Space),,,,,,,,---- -- ----- -- ------ - ------- --- ----------<br>------------- ------ ------ ---- ---- ------- ----- -- ----<br>-------- ------- -- ---------- But - --- ----- ----- ----<br>---- --- --- ----- --- ---- ---- ------- ----- ---- -------<br>--- --- -- ----- -- --- ---- -- --- ---- -- ------ ------<br>--- ----- -- ----,134607.3299999698,134606.1800000025,133931.551,133935.03499997314,133947.988,134613.83,,22,But
screen,html.Screen,1_1_0_1_23,2021-04-12T18:46:33.294Z,,,,,,,,,,,,,,,,53,,,,,,,,,,,,,,798.0149999950954,,response,,,,99,,,,,,,Space,keypress(Space),,,,,,,,---- -- ----- -- ------ - ------- --- ----------<br>------------- ------ ------ ---- ---- ------- ----- -- ----<br>-------- ------- -- ---------- --- a --- ----- ----- ----<br>---- --- --- ----- --- ---- ---- ------- ----- ---- -------<br>--- --- -- ----- -- --- ---- -- --- ---- -- ------ ------<br>--- ----- -- ----,135413.040000014,135411.84499999508,134597.371,134607.40500001702,134613.83,135429.742,,23,a
screen,html.Screen,1_1_0_1_24,2021-04-12T18:46:33.784Z,,,,,,,,,,,,,,,,53,,,,,,,,,,,,,,472.3179999930726,,response,,,,99,,,,,,,Space,keypress(Space),,,,,,,,---- -- ----- -- ------ - ------- --- ----------<br>------------- ------ ------ ---- ---- ------- ----- -- ----<br>-------- ------- -- ---------- --- - new ----- ----- ----<br>---- --- --- ----- --- ---- ---- ------- ----- ---- -------<br>--- --- -- ----- -- --- ---- -- --- ---- -- ------ ------<br>--- ----- -- ----,135902.93999999994,135902.05999999307,135413.241,135413.11500000302,135429.742,135912.673,,24,new
screen,html.Screen,1_1_0_1_25,2021-04-12T18:46:34.397Z,,,,,,,,,,,,,,,,53,,,,,,,,,,,,,,602.1270000044606,,response,,,,99,,,,,,,Space,keypress(Space),,,,,,,,---- -- ----- -- ------ - ------- --- ----------<br>------------- ------ ------ ---- ---- ------- ----- -- ----<br>-------- ------- -- ---------- --- - --- study ----- ----<br>---- --- --- ----- --- ---- ---- ------- ----- ---- -------<br>--- --- -- ----- -- --- ---- -- --- ---- -- ------ ------<br>--- ----- -- ----,136515.72500000475,136514.80000000447,135895.927,135903.01999996882,135912.673,136528.558,,25,study
screen,html.Screen,1_1_0_1_26,2021-04-12T18:46:34.863Z,,,,,,,,,,,,,,,,53,,,,,,,,,,,,,,452.47700000435,,response,,,,99,,,,,,,Space,keypress(Space),,,,,,,,---- -- ----- -- ------ - ------- --- ----------<br>------------- ------ ------ ---- ---- ------- ----- -- ----<br>-------- ------- -- ---------- --- - --- ----- finds ----<br>---- --- --- ----- --- ---- ---- ------- ----- ---- -------<br>--- --- -- ----- -- --- ---- -- --- ---- -- ------ ------<br>--- ----- -- ----,136982.09499998484,136981.03500000434,136511.997,136515.8100000117,136528.558,136994.689,,26,finds
screen,html.Screen,1_1_0_1_27,2021-04-12T18:46:35.254Z,,,,,,,,,,,,,,,,53,,,,,,,,,,,,,,377.93600001814775,,response,,,,99,,,,,,,Space,keypress(Space),,,,,,,,---- -- ----- -- ------ - ------- --- ----------<br>------------- ------ ------ ---- ---- ------- ----- -- ----<br>-------- ------- -- ---------- --- - --- ----- ----- that<br>---- --- --- ----- --- ---- ---- ------- ----- ---- -------<br>--- --- -- ----- -- --- ---- -- --- ---- -- ------ ------<br>--- ----- -- ----,137373.17999999505,137372.62500001816,136978.085,136982.1799999918,136994.689,137377.682,,27,that
screen,html.Screen,1_1_0_1_28,2021-04-12T18:46:37.586Z,,,,,,,,,,,,,,,,53,,,,,,,,,,,,,,2326.7580000013404,,response,,,,99,,,,,,,Space,keypress(Space),,,,,,,,---- -- ----- -- ------ - ------- --- ----------<br>------------- ------ ------ ---- ---- ------- ----- -- ----<br>-------- ------- -- ---------- --- - --- ----- ----- ----<br>it's --- --- ----- --- ---- ---- ------- ----- ---- -------<br>--- --- -- ----- -- --- ---- -- --- ---- -- ------ ------<br>--- ----- -- ----,139705.29999997234,139704.44000000134,137360.957,137373.265000002,137377.682,139708.263,,28,it's
screen,html.Screen,1_1_0_1_29,2021-04-12T18:46:38.121Z,,,,,,,,,,,,,,,,53,,,,,,,,,,,,,,530.8869999794115,,response,,,,99,,,,,,,Space,keypress(Space),,,,,,,,---- -- ----- -- ------ - ------- --- ----------<br>------------- ------ ------ ---- ---- ------- ----- -- ----<br>-------- ------- -- ---------- --- - --- ----- ----- ----<br>---- not --- ----- --- ---- ---- ------- ----- ---- -------<br>--- --- -- ----- -- --- ---- -- --- ---- -- ------ ------<br>--- ----- -- ----,140240.29499996686,140239.14999997942,139692.074,139705.37999999942,139708.263,140257.747,,29,not
screen,html.Screen,1_1_0_1_30,2021-04-12T18:46:38.631Z,,,,,,,,,,,,,,,,53,,,,,,,,,,,,,,491.0429999832704,,response,,,,99,,,,,,,Space,keypress(Space),,,,,,,,---- -- ----- -- ------ - ------- --- ----------<br>------------- ------ ------ ---- ---- ------- ----- -- ----<br>-------- ------- -- ---------- --- - --- ----- ----- ----<br>---- --- how ----- --- ---- ---- ------- ----- ---- -------<br>--- --- -- ----- -- --- ---- -- --- ---- -- ------ ------<br>--- ----- -- ----,140749.6449999744,140748.78999998327,140224.575,140240.37000001408,140257.747,140757.044,,30,how
screen,html.Screen,1_1_0_1_31,2021-04-12T18:46:39.082Z,,,,,,,,,,,,,,,,53,,,,,,,,,,,,,,443.74099999363534,,response,,,,99,,,,,,,Space,keypress(Space),,,,,,,,---- -- ----- -- ------ - ------- --- ----------<br>------------- ------ ------ ---- ---- ------- ----- -- ----<br>-------- ------- -- ---------- --- - --- ----- ----- ----<br>---- --- --- close --- ---- ---- ------- ----- ---- -------<br>--- --- -- ----- -- --- ---- -- --- ---- -- ------ ------<br>--- ----- -- ----,141201.6050000093,141200.78499999363,140740.651,140749.73500001943,140757.044,141206.605,,31,close
screen,html.Screen,1_1_0_1_32,2021-04-12T18:46:39.513Z,,,,,,,,,,,,,,,,53,,,,,,,,,,,,,,424.4999999785505,,response,,,,99,,,,,,,Space,keypress(Space),,,,,,,,---- -- ----- -- ------ - ------- --- ----------<br>------------- ------ ------ ---- ---- ------- ----- -- ----<br>-------- ------- -- ---------- --- - --- ----- ----- ----<br>---- --- --- ----- you ---- ---- ------- ----- ---- -------<br>--- --- -- ----- -- --- ---- -- --- ---- -- ------ ------<br>--- ----- -- ----,141632.19999999274,141631.10499997856,141190.114,141201.72999997158,141206.605,141639.513,,32,you
screen,html.Screen,1_1_0_1_33,2021-04-12T18:46:39.940Z,,,,,,,,,,,,,,,,53,,,,,,,,,,,,,,417.93700002206606,,response,,,,99,,,,,,,Space,keypress(Space),,,,,,,,---- -- ----- -- ------ - ------- --- ----------<br>------------- ------ ------ ---- ---- ------- ----- -- ----<br>-------- ------- -- ---------- --- - --- ----- ----- ----<br>---- --- --- ----- --- feel ---- ------- ----- ---- -------<br>--- --- -- ----- -- --- ---- -- --- ---- -- ------ ------<br>--- ----- -- ----,142058.63500002306,142057.45000002207,141623.062,141632.39500002237,141639.513,142072.395,,33,feel
screen,html.Screen,1_1_0_1_34,2021-04-12T18:46:40.332Z,,,,,,,,,,,,,,,,53,,,,,,,,,,,,,,377.91499998563086,,response,,,,99,,,,,,,Space,keypress(Space),,,,,,,,---- -- ----- -- ------ - ------- --- ----------<br>------------- ------ ------ ---- ---- ------- ----- -- ----<br>-------- ------- -- ---------- --- - --- ----- ----- ----<br>---- --- --- ----- --- ---- that ------- ----- ---- -------<br>--- --- -- ----- -- --- ---- -- --- ---- -- ------ ------<br>--- ----- -- ----,142451.2799999793,142450.30999998562,142055.83,142058.7199999718,142072.395,142455.247,,34,that
screen,html.Screen,1_1_0_1_35,2021-04-12T18:46:40.784Z,,,,,,,,,,,,,,,,53,,,,,,,,,,,,,,447.2830000212125,,response,,,,99,,,,,,,Space,keypress(Space),,,,,,,,---- -- ----- -- ------ - ------- --- ----------<br>------------- ------ ------ ---- ---- ------- ----- -- ----<br>-------- ------- -- ---------- --- - --- ----- ----- ----<br>---- --- --- ----- --- ---- ---- matters ----- ---- -------<br>--- --- -- ----- -- --- ---- -- --- ---- -- ------ ------<br>--- ----- -- ----,142903.3449999988,142902.53000002122,142438.765,142451.40000001993,142455.247,142923.677,,35,matters
screen,html.Screen,1_1_0_1_36,2021-04-12T18:46:41.236Z,,,,,,,,,,,,,,,,53,,,,,,,,,,,,,,430.6630000198784,,response,,,,99,,,,,,,Space,keypress(Space),,,,,,,,"---- -- ----- -- ------ - ------- --- ----------<br>------------- ------ ------ ---- ---- ------- ----- -- ----<br>-------- ------- -- ---------- --- - --- ----- ----- ----<br>---- --- --- ----- --- ---- ---- ------- most, ---- -------<br>--- --- -- ----- -- --- ---- -- --- ---- -- ------ ------<br>--- ----- -- ----",143355.35999998683,143354.34000001987,142888.301,142903.43499998562,142923.677,143371.115,,36,"most,"
screen,html.Screen,1_1_0_1_37,2021-04-12T18:46:41.886Z,,,,,,,,,,,,,,,,53,,,,,,,,,,,,,,632.9850000201259,,response,,,,99,,,,,,,Space,keypress(Space),,,,,,,,---- -- ----- -- ------ - ------- --- ----------<br>------------- ------ ------ ---- ---- ------- ----- -- ----<br>-------- ------- -- ---------- --- - --- ----- ----- ----<br>---- --- --- ----- --- ---- ---- ------- ----- it's -------<br>--- --- -- ----- -- --- ---- -- --- ---- -- ------ ------<br>--- ----- -- ----,144005.03000000026,144004.10000002012,143354.614,143355.43499997584,143371.115,144020.326,,37,it's
screen,html.Screen,1_1_0_1_38,2021-04-12T18:46:42.537Z,,,,,,,,,,,,,,,,53,,,,,,,,,,,,,,634.864000019501,,response,,,,99,,,,,,,Space,keypress(Space),,,,,,,,---- -- ----- -- ------ - ------- --- ----------<br>------------- ------ ------ ---- ---- ------- ----- -- ----<br>-------- ------- -- ---------- --- - --- ----- ----- ----<br>---- --- --- ----- --- ---- ---- ------- ----- ---- whether<br>--- --- -- ----- -- --- ---- -- --- ---- -- ------ ------<br>--- ----- -- ----,144656.19999996852,144655.1900000195,144003.772,144005.13499998488,144020.326,144670.264,,38,whether
screen,html.Screen,1_1_0_1_39,2021-04-12T18:46:42.970Z,,,,,,,,,,,,,,,,53,,,,,,,,,,,,,,418.19100001917104,,response,,,,99,,,,,,,Space,keypress(Space),,,,,,,,---- -- ----- -- ------ - ------- --- ----------<br>------------- ------ ------ ---- ---- ------- ----- -- ----<br>-------- ------- -- ---------- --- - --- ----- ----- ----<br>---- --- --- ----- --- ---- ---- ------- ----- ---- -------<br>you --- -- ----- -- --- ---- -- --- ---- -- ------ ------<br>--- ----- -- ----,145089.2800000147,145088.45500001917,144653.132,144656.29999997327,144670.264,145102.523,,39,you
screen,html.Screen,1_1_0_1_40,2021-04-12T18:46:43.318Z,,,,,,,,,,,,,,,,53,,,,,,,,,,,,,,333.6020000074641,,response,,,,99,,,,,,,Space,keypress(Space),,,,,,,,---- -- ----- -- ------ - ------- --- ----------<br>------------- ------ ------ ---- ---- ------- ----- -- ----<br>-------- ------- -- ---------- --- - --- ----- ----- ----<br>---- --- --- ----- --- ---- ---- ------- ----- ---- -------<br>--- are -- ----- -- --- ---- -- --- ---- -- ------ ------<br>--- ----- -- ----,145436.95000000298,145436.12500000745,145085.846,145089.36500002164,145102.523,145452.224,,40,are
screen,html.Screen,1_1_0_1_41,2021-04-12T18:46:43.645Z,,,,,,,,,,,,,,,,53,,,,,,,,,,,,,,311.3509999899543,,response,,,,99,,,,,,,Space,keypress(Space),,,,,,,,---- -- ----- -- ------ - ------- --- ----------<br>------------- ------ ------ ---- ---- ------- ----- -- ----<br>-------- ------- -- ---------- --- - --- ----- ----- ----<br>---- --- --- ----- --- ---- ---- ------- ----- ---- -------<br>--- --- as ----- -- --- ---- -- --- ---- -- ------ ------<br>--- ----- -- ----,145764.42000002135,145763.57499998994,145435.394,145437.07500002347,145452.224,145768.212,,41,as
screen,html.Screen,1_1_0_1_42,2021-04-12T18:46:44.360Z,,,,,,,,,,,,,,,,53,,,,,,,,,,,,,,709.4830000086804,,response,,,,99,,,,,,,Space,keypress(Space),,,,,,,,---- -- ----- -- ------ - ------- --- ----------<br>------------- ------ ------ ---- ---- ------- ----- -- ----<br>-------- ------- -- ---------- --- - --- ----- ----- ----<br>---- --- --- ----- --- ---- ---- ------- ----- ---- -------<br>--- --- -- close -- --- ---- -- --- ---- -- ------ ------<br>--- ----- -- ----,146478.88499998953,146477.69500000868,145751.762,145765.41499997256,145768.212,146484.283,,42,close
screen,html.Screen,1_1_0_1_43,2021-04-12T18:46:44.745Z,,,,,,,,,,,,,,,,53,,,,,,,,,,,,,,379.4270000050892,,response,,,,99,,,,,,,Space,keypress(Space),,,,,,,,---- -- ----- -- ------ - ------- --- ----------<br>------------- ------ ------ ---- ---- ------- ----- -- ----<br>-------- ------- -- ---------- --- - --- ----- ----- ----<br>---- --- --- ----- --- ---- ---- ------- ----- ---- -------<br>--- --- -- ----- as --- ---- -- --- ---- -- ------ ------<br>--- ----- -- ----,146864.60500000976,146863.71000000509,146467.689,146478.95499999868,146484.283,146867.068,,43,as
screen,html.Screen,1_1_0_1_44,2021-04-12T18:46:45.127Z,,,,,,,,,,,,,,,,53,,,,,,,,,,,,,,378.09699997116695,,response,,,,99,,,,,,,Space,keypress(Space),,,,,,,,---- -- ----- -- ------ - ------- --- ----------<br>------------- ------ ------ ---- ---- ------- ----- -- ----<br>-------- ------- -- ---------- --- - --- ----- ----- ----<br>---- --- --- ----- --- ---- ---- ------- ----- ---- -------<br>--- --- -- ----- -- you ---- -- --- ---- -- ------ ------<br>--- ----- -- ----,147246.03999999817,147245.16499997117,146850.631,146864.7350000101,146867.068,147250.182,,44,you
screen,html.Screen,1_1_0_1_45,2021-04-12T18:46:45.585Z,,,,,,,,,,,,,,,,53,,,,,,,,,,,,,,452.9980000113428,,response,,,,99,,,,,,,Space,keypress(Space),,,,,,,,---- -- ----- -- ------ - ------- --- ----------<br>------------- ------ ------ ---- ---- ------- ----- -- ----<br>-------- ------- -- ---------- --- - --- ----- ----- ----<br>---- --- --- ----- --- ---- ---- ------- ----- ---- -------<br>--- --- -- ----- -- --- want -- --- ---- -- ------ ------<br>--- ----- -- ----,147704.09999997355,147703.18000001134,147233.519,147246.13500002306,147250.182,147716.301,,45,want
screen,html.Screen,1_1_0_1_46,2021-04-12T18:46:45.915Z,,,,,,,,,,,,,,,,53,,,,,,,,,,,,,,317.2039999994158,,response,,,,99,,,,,,,Space,keypress(Space),,,,,,,,---- -- ----- -- ------ - ------- --- ----------<br>------------- ------ ------ ---- ---- ------- ----- -- ----<br>-------- ------- -- ---------- --- - --- ----- ----- ----<br>---- --- --- ----- --- ---- ---- ------- ----- ---- -------<br>--- --- -- ----- -- --- ---- to --- ---- -- ------ ------<br>--- ----- -- ----,148034.45500001544,148033.50499999942,147699.647,147704.20500001637,147716.301,148049.338,,46,to
screen,html.Screen,1_1_0_1_47,2021-04-12T18:46:46.344Z,,,,,,,,,,,,,,,,53,,,,,,,,,,,,,,412.90700000245124,,response,,,,99,,,,,,,Space,keypress(Space),,,,,,,,"---- -- ----- -- ------ - ------- --- ----------<br>------------- ------ ------ ---- ---- ------- ----- -- ----<br>-------- ------- -- ---------- --- - --- ----- ----- ----<br>---- --- --- ----- --- ---- ---- ------- ----- ---- -------<br>--- --- -- ----- -- --- ---- -- be, ---- -- ------ ------<br>--- ----- -- ----",148463.14999996684,148462.24500000244,148032.564,148034.56000000006,148049.338,148465.362,,47,"be,"
screen,html.Screen,1_1_0_1_48,2021-04-12T18:46:46.938Z,,,,,,,,,,,,,,,,53,,,,,,,,,,,,,,590.5679999731656,,response,,,,99,,,,,,,Space,keypress(Space),,,,,,,,---- -- ----- -- ------ - ------- --- ----------<br>------------- ------ ------ ---- ---- ------- ----- -- ----<br>-------- ------- -- ---------- --- - --- ----- ----- ----<br>---- --- --- ----- --- ---- ---- ------- ----- ---- -------<br>--- --- -- ----- -- --- ---- -- --- even -- ------ ------<br>--- ----- -- ----,149057.00999998953,149055.92999997316,148448.831,148463.40000000782,148465.362,149064.789,,48,even
screen,html.Screen,1_1_0_1_49,2021-04-12T18:46:47.392Z,,,,,,,,,,,,,,,,53,,,,,,,,,,,,,,445.36099998734426,,response,,,,99,,,,,,,Space,keypress(Space),,,,,,,,---- -- ----- -- ------ - ------- --- ----------<br>------------- ------ ------ ---- ---- ------- ----- -- ----<br>-------- ------- -- ---------- --- - --- ----- ----- ----<br>---- --- --- ----- --- ---- ---- ------- ----- ---- -------<br>--- --- -- ----- -- --- ---- -- --- ---- if ------ ------<br>--- ----- -- ----,149511.26499997918,149510.14999998733,149048.361,149057.07999999868,149064.789,149514.206,,49,if
screen,html.Screen,1_1_0_1_50,2021-04-12T18:46:47.860Z,,,,,,,,,,,,,,,,53,,,,,,,,,,,,,,463.35900000832044,,response,,,,99,,,,,,,Space,keypress(Space),,,,,,,,---- -- ----- -- ------ - ------- --- ----------<br>------------- ------ ------ ---- ---- ------- ----- -- ----<br>-------- ------- -- ---------- --- - --- ----- ----- ----<br>---- --- --- ----- --- ---- ---- ------- ----- ---- -------<br>--- --- -- ----- -- --- ---- -- --- ---- -- that's ------<br>--- ----- -- ----,149978.66999998223,149977.56500000833,149497.547,149511.3399999682,149514.206,150013.027,,50,that's
screen,html.Screen,1_1_0_1_51,2021-04-12T18:46:48.295Z,,,,,,,,,,,,,,,,53,,,,,,,,,,,,,,400.6230000022333,,response,,,,99,,,,,,,Space,keypress(Space),,,,,,,,---- -- ----- -- ------ - ------- --- ----------<br>------------- ------ ------ ---- ---- ------- ----- -- ----<br>-------- ------- -- ---------- --- - --- ----- ----- ----<br>---- --- --- ----- --- ---- ---- ------- ----- ---- -------<br>--- --- -- ----- -- --- ---- -- --- ---- -- ------ really<br>--- ----- -- ----,150414.47499999776,150413.65000000224,149963.913,149978.7500000093,150013.027,150429.909,,51,really
screen,html.Screen,1_1_0_1_52,2021-04-12T18:46:48.696Z,,,,,,,,,,,,,,,,53,,,,,,,,,,,,,,383.94600001486833,,response,,,,99,,,,,,,Space,keypress(Space),,,,,,,,---- -- ----- -- ------ - ------- --- ----------<br>------------- ------ ------ ---- ---- ------- ----- -- ----<br>-------- ------- -- ---------- --- - --- ----- ----- ----<br>---- --- --- ----- --- ---- ---- ------- ----- ---- -------<br>--- --- -- ----- -- --- ---- -- --- ---- -- ------ ------<br>not ----- -- ----,150814.68999997014,150813.85500001488,150413.395,150414.57999998238,150429.909,150829.559,,52,not
screen,html.Screen,1_1_0_1_53,2021-04-12T18:46:49.511Z,,,,,,,,,,,,,,,,53,,,,,,,,,,,,,,799.3359999725362,,response,,,,99,,,,,,,Space,keypress(Space),,,,,,,,---- -- ----- -- ------ - ------- --- ----------<br>------------- ------ ------ ---- ---- ------- ----- -- ----<br>-------- ------- -- ---------- --- - --- ----- ----- ----<br>---- --- --- ----- --- ---- ---- ------- ----- ---- -------<br>--- --- -- ----- -- --- ---- -- --- ---- -- ------ ------<br>--- close -- ----,151629.65000001714,151628.89499997254,150812.818,150814.8049999727,150829.559,151645.223,,53,close
screen,html.Screen,1_1_0_1_54,2021-04-12T18:46:49.980Z,,,,,,,,,,,,,,,,53,,,,,,,,,,,,,,453.37699996843,,response,,,,99,,,,,,,Space,keypress(Space),,,,,,,,---- -- ----- -- ------ - ------- --- ----------<br>------------- ------ ------ ---- ---- ------- ----- -- ----<br>-------- ------- -- ---------- --- - --- ----- ----- ----<br>---- --- --- ----- --- ---- ---- ------- ----- ---- -------<br>--- --- -- ----- -- --- ---- -- --- ---- -- ------ ------<br>--- ----- at ----,152099.4949999731,152098.59999996843,151628.647,151630.07499999367,151645.223,152111.309,,54,at
screen,html.Screen,1_1_0_1_55,2021-04-12T18:46:50.878Z,,,,,,,,,,,,,,,,53,,,,,,,,,,,,,,885.0760000058217,,response,,,,99,,,,,,,Space,keypress(Space),,,,,,,,---- -- ----- -- ------ - ------- --- ----------<br>------------- ------ ------ ---- ---- ------- ----- -- ----<br>-------- ------- -- ---------- --- - --- ----- ----- ----<br>---- --- --- ----- --- ---- ---- ------- ----- ---- -------<br>--- --- -- ----- -- --- ---- -- --- ---- -- ------ ------<br>--- ----- -- all.,152997.08499998087,152996.38500000583,152094.891,152099.57000002032,152111.309,153010.565,,55,all.
Item 99,flow.Loop,1_1_0_1,2021-04-12T18:46:50.878Z,,,,,,,,,,,,,,,,,,,,,,,,,,,,,,31601.383000005837,,completion,,,,,B,,,,,,,,,,,silence,,,,,152997.32000002405,152996.38500000583,121378.608,121379.78499999736,121395.002,153010.565,,,
Question 1,html.Screen,1_1_0_2,2021-04-12T18:46:57.256Z,,,,,,,,,,,,,,,,,,,,,,,,,,,true,FALSE,,6363.889999982843,,response,,,,99,B,,,,,,FALSE,click #choice-2,,,,silence,,,,,159375.69499999518,159374.45499998285,152993.844,152997.36999999732,153010.565,159386.835,,,
Question 2,html.Screen,1_1_0_3,2021-04-12T18:47:02.992Z,,,,,,,,,,,,,,,,,,,,,,,,,,,false,TRUE,,5723.65499999185,,response,,,,99,B,,,,,,FALSE,click #choice-2,,,,silence,,,,,165111.8649999844,165110.48999999184,159370.075,159375.8449999732,159386.835,165113.778,,,
Item 99,flow.Sequence,1_1_0,2021-04-12T18:47:02.993Z,,,,,,,,,,,,,,,,,,,,,,,,,,,,,,53708.297999991846,,completion,,,,,,,,,,,,,,,,,,,,,165112.05499997595,165110.48999999184,111356.123,111376.77999999141,111402.192,165113.778,,,
Holding screen,html.Screen,1_1_1_0,2021-04-12T18:47:12.985Z,,,,,,,,,,,,,,,,,,,,,,,,,,,,,,10005.664000000019,,timeout,,,,,,,,,,,,,,,,,,,,,175103.95999997854,175102.911,165097.37,165112.13500000304,165113.778,175119.442,,,
screen,html.Screen,1_1_1_1_0,2021-04-12T18:47:14.649Z,,,,,,,,,,,,,,,,54,,,,,,,,,,,,,,1648.1630000009027,,response,,,,100,,,,,,,Space,keypress(Space),,,,,,,,At --- ---- --- ------ ----- ------- ---- -- --- ------- --<br>------- ---------- ------ -- ----- -- ----- -- ---- ------<br>--- ----- --- --- ------ -------- ----- --- ------ ----- --<br>----- ----- ---------- --- --- ------ ------ ---- -- ------<br>------- --- ------ ----- --- ---- ------- -- ---- --- --<br>------- ------,176768.1899999734,176767.6050000009,175102.911,175104.0599999833,175119.442,176784.448,,0,At
screen,html.Screen,1_1_1_1_1,2021-04-12T18:47:15.074Z,,,,,,,,,,,,,,,,54,,,,,,,,,,,,,,407.6269999699143,,response,,,,100,,,,,,,Space,keypress(Space),,,,,,,,-- the ---- --- ------ ----- ------- ---- -- --- ------- --<br>------- ---------- ------ -- ----- -- ----- -- ---- ------<br>--- ----- --- --- ------ -------- ----- --- ------ ----- --<br>----- ----- ---------- --- --- ------ ------ ---- -- ------<br>------- --- ------ ----- --- ---- ------- -- ---- --- --<br>------- ------,177193.02499998594,177192.07499996992,176767.931,176768.27000000048,176784.448,177200.507,,1,the
screen,html.Screen,1_1_1_1_2,2021-04-12T18:47:15.401Z,,,,,,,,,,,,,,,,54,,,,,,,,,,,,,,319.4479999670002,,response,,,,100,,,,,,,Space,keypress(Space),,,,,,,,-- --- time --- ------ ----- ------- ---- -- --- ------- --<br>------- ---------- ------ -- ----- -- ----- -- ---- ------<br>--- ----- --- --- ------ -------- ----- --- ------ ----- --<br>----- ----- ---------- --- --- ------ ------ ---- -- ------<br>------- --- ------ ----- --- ---- ------- -- ---- --- --<br>------- ------,177520.81000001635,177519.954999967,177183.986,177193.09499999508,177200.507,177533.499,,2,time
screen,html.Screen,1_1_1_1_3,2021-04-12T18:47:15.759Z,,,,,,,,,,,,,,,,54,,,,,,,,,,,,,,344.6009999726084,,response,,,,100,,,,,,,Space,keypress(Space),,,,,,,,-- --- ---- the ------ ----- ------- ---- -- --- ------- --<br>------- ---------- ------ -- ----- -- ----- -- ---- ------<br>--- ----- --- --- ------ -------- ----- --- ------ ----- --<br>----- ----- ---------- --- --- ------ ------ ---- -- ------<br>------- --- ------ ----- --- ---- ------- -- ---- --- --<br>------- ------,177878.74499999452,177878.09999997262,177516.862,177520.9100000211,177533.499,177883.077,,3,the
screen,html.Screen,1_1_1_1_4,2021-04-12T18:47:16.118Z,,,,,,,,,,,,,,,,54,,,,,,,,,,,,,,353.7329999730573,,response,,,,100,,,,,,,Space,keypress(Space),,,,,,,,-- --- ---- --- French ----- ------- ---- -- --- ------- --<br>------- ---------- ------ -- ----- -- ----- -- ---- ------<br>--- ----- --- --- ------ -------- ----- --- ------ ----- --<br>----- ----- ---------- --- --- ------ ------ ---- -- ------<br>------- --- ------ ----- --- ---- ------- -- ---- --- --<br>------- ------,178237.84999997588,178236.80999997305,177866.461,177878.81999998353,177883.077,178249.446,,4,French
screen,html.Screen,1_1_1_1_5,2021-04-12T18:47:16.603Z,,,,,,,,,,,,,,,,54,,,,,,,,,,,,,,472.0340000074357,,response,,,,100,,,,,,,Space,keypress(Space),,,,,,,,-- --- ---- --- ------ crown ------- ---- -- --- ------- --<br>------- ---------- ------ -- ----- -- ----- -- ---- ------<br>--- ----- --- --- ------ -------- ----- --- ------ ----- --<br>----- ----- ---------- --- --- ------ ------ ---- -- ------<br>------- --- ------ ----- --- ---- ------- -- ---- --- --<br>------- ------,178722.38499997184,178721.48000000743,178232.816,178237.93000000296,178249.446,178732.282,,5,crown
screen,html.Screen,1_1_1_1_6,2021-04-12T18:47:17.171Z,,,,,,,,,,,,,,,,54,,,,,,,,,,,,,,557.4330000207992,,response,,,,100,,,,,,,Space,keypress(Space),,,,,,,,-- --- ---- --- ------ ----- secured ---- -- --- ------- --<br>------- ---------- ------ -- ----- -- ----- -- ---- ------<br>--- ----- --- --- ------ -------- ----- --- ------ ----- --<br>----- ----- ---------- --- --- ------ ------ ---- -- ------<br>------- --- ------ ----- --- ---- ------- -- ---- --- --<br>------- ------,179290.73499998776,179289.7150000208,178715.599,178722.44500002125,178732.282,179298.199,,6,secured
screen,html.Screen,1_1_1_1_7,2021-04-12T18:47:17.571Z,,,,,,,,,,,,,,,,54,,,,,,,,,,,,,,390.7260000240349,,response,,,,100,,,,,,,Space,keypress(Space),,,,,,,,-- --- ---- --- ------ ----- ------- much -- --- ------- --<br>------- ---------- ------ -- ----- -- ----- -- ---- ------<br>--- ----- --- --- ------ -------- ----- --- ------ ----- --<br>----- ----- ---------- --- --- ------ ------ ---- -- ------<br>------- --- ------ ----- --- ---- ------- -- ---- --- --<br>------- ------,179690.01500000013,179688.92500002403,179281.752,179290.9000000218,179298.199,179697.714,,7,much
screen,html.Screen,1_1_1_1_8,2021-04-12T18:47:18.039Z,,,,,,,,,,,,,,,,54,,,,,,,,,,,,,,459.86100001927116,,response,,,,100,,,,,,,Space,keypress(Space),,,,,,,,-- --- ---- --- ------ ----- ------- ---- of --- ------- --<br>------- ---------- ------ -- ----- -- ----- -- ---- ------<br>--- ----- --- --- ------ -------- ----- --- ------ ----- --<br>----- ----- ---------- --- --- ------ ------ ---- -- ------<br>------- --- ------ ----- --- ---- ------- -- ---- --- --<br>------- ------,180158.68499997305,180157.57500001928,179681.122,179690.08999998914,179697.714,180163.911,,8,of
screen,html.Screen,1_1_1_1_9,2021-04-12T18:47:18.453Z,,,,,,,,,,,,,,,,54,,,,,,,,,,,,,,407.53400000868714,,response,,,,100,,,,,,,Space,keypress(Space),,,,,,,,-- --- ---- --- ------ ----- ------- ---- -- its ------- --<br>------- ---------- ------ -- ----- -- ----- -- ---- ------<br>--- ----- --- --- ------ -------- ----- --- ------ ----- --<br>----- ----- ---------- --- --- ------ ------ ---- -- ------<br>------- --- ------ ----- --- ---- ------- -- ---- --- --<br>------- ------,180572.57000001846,180571.44500000868,180147.289,180158.77999999793,180163.911,180580.138,,9,its
screen,html.Screen,1_1_1_1_10,2021-04-12T18:47:19.735Z,,,,,,,,,,,,,,,,54,,,,,,,,,,,,,,1273.6820000184525,,response,,,,100,,,,,,,Space,keypress(Space),,,,,,,,-- --- ---- --- ------ ----- ------- ---- -- --- revenue --<br>------- ---------- ------ -- ----- -- ----- -- ---- ------<br>--- ----- --- --- ------ -------- ----- --- ------ ----- --<br>----- ----- ---------- --- --- ------ ------ ---- -- ------<br>------- --- ------ ----- --- ---- ------- -- ---- --- --<br>------- ------,181854.79000001214,181853.82000001846,180563.646,180572.63499998953,180580.138,181862.005,,10,revenue
screen,html.Screen,1_1_1_1_11,2021-04-12T18:47:20.735Z,,,,,,,,,,,,,,,,54,,,,,,,,,,,,,,991.2149999899557,,response,,,,100,,,,,,,Space,keypress(Space),,,,,,,,-- --- ---- --- ------ ----- ------- ---- -- --- ------- by<br>------- ---------- ------ -- ----- -- ----- -- ---- ------<br>--- ----- --- --- ------ -------- ----- --- ------ ----- --<br>----- ----- ---------- --- --- ------ ------ ---- -- ------<br>------- --- ------ ----- --- ---- ------- -- ---- --- --<br>------- ------,182854.11499999464,182853.21999998996,181845.599,181854.89499999676,181862.005,182861.032,,11,by
screen,html.Screen,1_1_1_1_12,2021-04-12T18:47:21.355Z,,,,,,,,,,,,,,,,54,,,,,,,,,,,,,,612.157999989693,,response,,,,100,,,,,,,Space,keypress(Space),,,,,,,,-- --- ---- --- ------ ----- ------- ---- -- --- ------- --<br>issuing ---------- ------ -- ----- -- ----- -- ---- ------<br>--- ----- --- --- ------ -------- ----- --- ------ ----- --<br>----- ----- ---------- --- --- ------ ------ ---- -- ------<br>------- --- ------ ----- --- ---- ------- -- ---- --- --<br>------- ------,183474.05499999877,183473.1899999897,182844.566,182854.21000001952,182861.032,183476.873,,12,issuing
screen,html.Screen,1_1_1_1_13,2021-04-12T18:47:21.892Z,,,,,,,,,,,,,,,,54,,,,,,,,,,,,,,533.78699997082,,response,,,,100,,,,,,,Space,keypress(Space),,,,,,,,-- --- ---- --- ------ ----- ------- ---- -- --- ------- --<br>------- government ------ -- ----- -- ----- -- ---- ------<br>--- ----- --- --- ------ -------- ----- --- ------ ----- --<br>----- ----- ---------- --- --- ------ ------ ---- -- ------<br>------- --- ------ ----- --- ---- ------- -- ---- --- --<br>------- ------,184011.3550000242,184010.6599999708,183460.509,183474.16500002146,183476.873,184026.363,,13,government
screen,html.Screen,1_1_1_1_14,2021-04-12T18:47:22.417Z,,,,,,,,,,,,,,,,54,,,,,,,,,,,,,,509.2269999849377,,response,,,,100,,,,,,,Space,keypress(Space),,,,,,,,-- --- ---- --- ------ ----- ------- ---- -- --- ------- --<br>------- ---------- bonds. -- ----- -- ----- -- ---- ------<br>--- ----- --- --- ------ -------- ----- --- ------ ----- --<br>----- ----- ---------- --- --- ------ ------ ---- -- ------<br>------- --- ------ ----- --- ---- ------- -- ---- --- --<br>------- ------,184536.43500001635,184535.58999998495,184009.846,184011.4600000088,184026.363,184542.587,,14,bonds.
screen,html.Screen,1_1_1_1_15,2021-04-12T18:47:22.954Z,,,,,,,,,,,,,,,,54,,,,,,,,,,,,,,530.2030000056257,,response,,,,100,,,,,,,Space,keypress(Space),,,,,,,,-- --- ---- --- ------ ----- ------- ---- -- --- ------- --<br>------- ---------- ------ In ----- -- ----- -- ---- ------<br>--- ----- --- --- ------ -------- ----- --- ------ ----- --<br>----- ----- ---------- --- --- ------ ------ ---- -- ------<br>------- --- ------ ----- --- ---- ------- -- ---- --- --<br>------- ------,185073.72500002384,185072.79000000563,184525.869,184536.51000000536,184542.587,185094.537,,15,In
screen,html.Screen,1_1_1_1_16,2021-04-12T18:47:23.564Z,,,,,,,,,,,,,,,,54,,,,,,,,,,,,,,588.112999973353,,response,,,,100,,,,,,,Space,keypress(Space),,,,,,,,"-- --- ---- --- ------ ----- ------- ---- -- --- ------- --<br>------- ---------- ------ -- 1727, -- ----- -- ---- ------<br>--- ----- --- --- ------ -------- ----- --- ------ ----- --<br>----- ----- ---------- --- --- ------ ------ ---- -- ------<br>------- --- ------ ----- --- ---- ------- -- ---- --- --<br>------- ------",185683.5500000161,185682.64999997336,185058.671,185073.83499998832,185094.537,185691.18,,16,"1727,"
screen,html.Screen,1_1_1_1_17,2021-04-12T18:47:24.985Z,,,,,,,,,,,,,,,,54,,,,,,,,,,,,,,1412.9000000191736,,response,,,,100,,,,,,,Space,keypress(Space),,,,,,,,-- --- ---- --- ------ ----- ------- ---- -- --- ------- --<br>------- ---------- ------ -- ----- in ----- -- ---- ------<br>--- ----- --- --- ------ -------- ----- --- ------ ----- --<br>----- ----- ---------- --- --- ------ ------ ---- -- ------<br>------- --- ------ ----- --- ---- ------- -- ---- --- --<br>------- ------,187104.68499996932,187104.08000001917,185674.651,185683.63500002306,185691.18,187132.234,,17,in
screen,html.Screen,1_1_1_1_18,2021-04-12T18:47:25.503Z,,,,,,,,,,,,,,,,54,,,,,,,,,,,,,,488.9659999941359,,response,,,,100,,,,,,,Space,keypress(Space),,,,,,,,-- --- ---- --- ------ ----- ------- ---- -- --- ------- --<br>------- ---------- ------ -- ----- -- order -- ---- ------<br>--- ----- --- --- ------ -------- ----- --- ------ ----- --<br>----- ----- ---------- --- --- ------ ------ ---- -- ------<br>------- --- ------ ----- --- ---- ------- -- ---- --- --<br>------- ------,187622.1099999966,187621.19999999413,187089.89,187104.81499996968,187132.234,187639.097,,18,order
screen,html.Screen,1_1_1_1_19,2021-04-12T18:47:25.877Z,,,,,,,,,,,,,,,,54,,,,,,,,,,,,,,355.82800000632415,,response,,,,100,,,,,,,Space,keypress(Space),,,,,,,,-- --- ---- --- ------ ----- ------- ---- -- --- ------- --<br>------- ---------- ------ -- ----- -- ----- to ---- ------<br>--- ----- --- --- ------ -------- ----- --- ------ ----- --<br>----- ----- ---------- --- --- ------ ------ ---- -- ------<br>------- --- ------ ----- --- ---- ------- -- ---- --- --<br>------- ------,187995.9299999755,187994.92500000633,187622.49,187622.21000000136,187639.097,188005.35,,19,to
screen,html.Screen,1_1_1_1_20,2021-04-12T18:47:26.277Z,,,,,,,,,,,,,,,,54,,,,,,,,,,,,,,390.4450000185461,,response,,,,100,,,,,,,Space,keypress(Space),,,,,,,,-- --- ---- --- ------ ----- ------- ---- -- --- ------- --<br>------- ---------- ------ -- ----- -- ----- -- save ------<br>--- ----- --- --- ------ -------- ----- --- ------ ----- --<br>----- ----- ---------- --- --- ------ ------ ---- -- ------<br>------- --- ------ ----- --- ---- ------- -- ---- --- --<br>------- ------,188396.77499997197,188395.79500001855,187988.677,187996.05499999598,188005.35,188404.872,,20,save
screen,html.Screen,1_1_1_1_21,2021-04-12T18:47:26.660Z,,,,,,,,,,,,,,,,54,,,,,,,,,,,,,,373.2929999669723,,response,,,,100,,,,,,,Space,keypress(Space),,,,,,,,"-- --- ---- --- ------ ----- ------- ---- -- --- ------- --<br>------- ---------- ------ -- ----- -- ----- -- ---- money,<br>--- ----- --- --- ------ -------- ----- --- ------ ----- --<br>----- ----- ---------- --- --- ------ ------ ---- -- ------<br>------- --- ------ ----- --- ---- ------- -- ---- --- --<br>------- ------",188779.13999999873,188778.16499996698,188388.282,188396.88999997452,188404.872,188787.732,,21,"money,"
screen,html.Screen,1_1_1_1_22,2021-04-12T18:47:27.196Z,,,,,,,,,,,,,,,,54,,,,,,,,,,,,,,527.0180000195687,,response,,,,100,,,,,,,Space,keypress(Space),,,,,,,,-- --- ---- --- ------ ----- ------- ---- -- --- ------- --<br>------- ---------- ------ -- ----- -- ----- -- ---- ------<br>the ----- --- --- ------ -------- ----- --- ------ ----- --<br>----- ----- ---------- --- --- ------ ------ ---- -- ------<br>------- --- ------ ----- --- ---- ------- -- ---- --- --<br>------- ------,189315.56499999715,189314.75000001956,188771.193,188779.21000000788,188787.732,189320.484,,22,the
screen,html.Screen,1_1_1_1_23,2021-04-12T18:47:27.748Z,,,,,,,,,,,,,,,,54,,,,,,,,,,,,,,545.5859999891254,,response,,,,100,,,,,,,Space,keypress(Space),,,,,,,,-- --- ---- --- ------ ----- ------- ---- -- --- ------- --<br>------- ---------- ------ -- ----- -- ----- -- ---- ------<br>--- state --- --- ------ -------- ----- --- ------ ----- --<br>----- ----- ---------- --- --- ------ ------ ---- -- ------<br>------- --- ------ ----- --- ---- ------- -- ---- --- --<br>------- ------,189866.93999997806,189866.06999998912,189304.556,189315.66000002204,189320.484,189869.886,,23,state
screen,html.Screen,1_1_1_1_24,2021-04-12T18:47:28.200Z,,,,,,,,,,,,,,,,54,,,,,,,,,,,,,,448.2790000042296,,response,,,,100,,,,,,,Space,keypress(Space),,,,,,,,-- --- ---- --- ------ ----- ------- ---- -- --- ------- --<br>------- ---------- ------ -- ----- -- ----- -- ---- ------<br>--- ----- cut --- ------ -------- ----- --- ------ ----- --<br>----- ----- ---------- --- --- ------ ------ ---- -- ------<br>------- --- ------ ----- --- ---- ------- -- ---- --- --<br>------- ------,190319.18499997118,190318.16500000423,189853.442,189867.01499996707,189869.886,190336.146,,24,cut
screen,html.Screen,1_1_1_1_25,2021-04-12T18:47:28.691Z,,,,,,,,,,,,,,,,54,,,,,,,,,,,,,,473.42399998306064,,response,,,,100,,,,,,,Space,keypress(Space),,,,,,,,-- --- ---- --- ------ ----- ------- ---- -- --- ------- --<br>------- ---------- ------ -- ----- -- ----- -- ---- ------<br>--- ----- --- the ------ -------- ----- --- ------ ----- --<br>----- ----- ---------- --- --- ------ ------ ---- -- ------<br>------- --- ------ ----- --- ---- ------- -- ---- --- --<br>------- ------,190810.62000000384,190809.56999998307,190303.135,190319.25000000047,190336.146,190818.944,,25,the
screen,html.Screen,1_1_1_1_26,2021-04-12T18:47:29.235Z,,,,,,,,,,,,,,,,54,,,,,,,,,,,,,,534.1609999874199,,response,,,,100,,,,,,,Space,keypress(Space),,,,,,,,-- --- ---- --- ------ ----- ------- ---- -- --- ------- --<br>------- ---------- ------ -- ----- -- ----- -- ---- ------<br>--- ----- --- --- bonds' -------- ----- --- ------ ----- --<br>----- ----- ---------- --- --- ------ ------ ---- -- ------<br>------- --- ------ ----- --- ---- ------- -- ---- --- --<br>------- ------,191354.0149999899,191353.1049999874,190802.326,190810.81499997526,190818.944,191368.215,,26,bonds'
screen,html.Screen,1_1_1_1_27,2021-04-12T18:47:29.873Z,,,,,,,,,,,,,,,,54,,,,,,,,,,,,,,622.5649999928137,,response,,,,100,,,,,,,Space,keypress(Space),,,,,,,,-- --- ---- --- ------ ----- ------- ---- -- --- ------- --<br>------- ---------- ------ -- ----- -- ----- -- ---- ------<br>--- ----- --- --- ------ interest ----- --- ------ ----- --<br>----- ----- ---------- --- --- ------ ------ ---- -- ------<br>------- --- ------ ----- --- ---- ------- -- ---- --- --<br>------- ------,191992.25999996997,191990.7799999928,191351.705,191354.08499999903,191368.215,192000.901,,27,interest
screen,html.Screen,1_1_1_1_28,2021-04-12T18:47:30.358Z,,,,,,,,,,,,,,,,54,,,,,,,,,,,,,,476.06900001788745,,response,,,,100,,,,,,,Space,keypress(Space),,,,,,,,-- --- ---- --- ------ ----- ------- ---- -- --- ------- --<br>------- ---------- ------ -- ----- -- ----- -- ---- ------<br>--- ----- --- --- ------ -------- rate. --- ------ ----- --<br>----- ----- ---------- --- --- ------ ------ ---- -- ------<br>------- --- ------ ----- --- ---- ------- -- ---- --- --<br>------- ------,192477.8599999845,192476.9700000179,191984.405,191992.35499999486,192000.901,192483.788,,28,rate.
screen,html.Screen,1_1_1_1_29,2021-04-12T18:47:31.031Z,,,,,,,,,,,,,,,,54,,,,,,,,,,,,,,665.3719999717432,,response,,,,100,,,,,,,Space,keypress(Space),,,,,,,,-- --- ---- --- ------ ----- ------- ---- -- --- ------- --<br>------- ---------- ------ -- ----- -- ----- -- ---- ------<br>--- ----- --- --- ------ -------- ----- The ------ ----- --<br>----- ----- ---------- --- --- ------ ------ ---- -- ------<br>------- --- ------ ----- --- ---- ------- -- ---- --- --<br>------- ------,193150.13000002364,193149.15999997174,192467.208,192477.94499999145,192483.788,193166.37,,29,The
screen,html.Screen,1_1_1_1_30,2021-04-12T18:47:31.505Z,,,,,,,,,,,,,,,,54,,,,,,,,,,,,,,457.05499999795575,,response,,,,100,,,,,,,Space,keypress(Space),,,,,,,,-- --- ---- --- ------ ----- ------- ---- -- --- ------- --<br>------- ---------- ------ -- ----- -- ----- -- ---- ------<br>--- ----- --- --- ------ -------- ----- --- market ----- --<br>----- ----- ---------- --- --- ------ ------ ---- -- ------<br>------- --- ------ ----- --- ---- ------- -- ---- --- --<br>------- ------,193624.37999999383,193623.42499999795,193149.994,193150.22000001045,193166.37,193632.359,,30,market
screen,html.Screen,1_1_1_1_31,2021-04-12T18:47:32.015Z,,,,,,,,,,,,,,,,54,,,,,,,,,,,,,,501.7409999665688,,response,,,,100,,,,,,,Space,keypress(Space),,,,,,,,-- --- ---- --- ------ ----- ------- ---- -- --- ------- --<br>------- ---------- ------ -- ----- -- ----- -- ---- ------<br>--- ----- --- --- ------ -------- ----- --- ------ value --<br>----- ----- ---------- --- --- ------ ------ ---- -- ------<br>------- --- ------ ----- --- ---- ------- -- ---- --- --<br>------- ------,194134.81000001775,194134.09999996657,193615.904,193624.5099999942,193632.359,194148.667,,31,value
screen,html.Screen,1_1_1_1_32,2021-04-12T18:47:32.447Z,,,,,,,,,,,,,,,,54,,,,,,,,,,,,,,416.5379999917059,,response,,,,100,,,,,,,Space,keypress(Space),,,,,,,,-- --- ---- --- ------ ----- ------- ---- -- --- ------- --<br>------- ---------- ------ -- ----- -- ----- -- ---- ------<br>--- ----- --- --- ------ -------- ----- --- ------ ----- of<br>----- ----- ---------- --- --- ------ ------ ---- -- ------<br>------- --- ------ ----- --- ---- ------- -- ---- --- --<br>------- ------,194566.1400000099,194565.2049999917,194132.075,194134.90000000456,194148.667,194581.495,,32,of
screen,html.Screen,1_1_1_1_33,2021-04-12T18:47:32.859Z,,,,,,,,,,,,,,,,54,,,,,,,,,,,,,,396.9899999705376,,response,,,,100,,,,,,,Space,keypress(Space),,,,,,,,-- --- ---- --- ------ ----- ------- ---- -- --- ------- --<br>------- ---------- ------ -- ----- -- ----- -- ---- ------<br>--- ----- --- --- ------ -------- ----- --- ------ ----- --<br>these ----- ---------- --- --- ------ ------ ---- -- ------<br>------- --- ------ ----- --- ---- ------- -- ---- --- --<br>------- ------,194978.88000000967,194978.48499997053,194564.856,194566.20499998098,194581.495,194980.867,,33,these
screen,html.Screen,1_1_1_1_34,2021-04-12T18:47:33.302Z,,,,,,,,,,,,,,,,54,,,,,,,,,,,,,,439.73799999206676,,response,,,,100,,,,,,,Space,keypress(Space),,,,,,,,-- --- ---- --- ------ ----- ------- ---- -- --- ------- --<br>------- ---------- ------ -- ----- -- ----- -- ---- ------<br>--- ----- --- --- ------ -------- ----- --- ------ ----- --<br>----- bonds ---------- --- --- ------ ------ ---- -- ------<br>------- --- ------ ----- --- ---- ------- -- ---- --- --<br>------- ------,195421.11499997554,195420.60499999207,194964.361,194978.95999997854,194980.867,195430.465,,34,bonds
screen,html.Screen,1_1_1_1_35,2021-04-12T18:47:33.980Z,,,,,,,,,,,,,,,,54,,,,,,,,,,,,,,667.869999987859,,response,,,,100,,,,,,,Space,keypress(Space),,,,,,,,"-- --- ---- --- ------ ----- ------- ---- -- --- ------- --<br>------- ---------- ------ -- ----- -- ----- -- ---- ------<br>--- ----- --- --- ------ -------- ----- --- ------ ----- --<br>----- ----- plummeted, --- --- ------ ------ ---- -- ------<br>------- --- ------ ----- --- ---- ------- -- ---- --- --<br>------- ------",196099.34499999508,196098.33499998786,195413.949,195421.21000000043,195430.465,196113.044,,35,"plummeted,"
screen,html.Screen,1_1_1_1_36,2021-04-12T18:47:34.756Z,,,,,,,,,,,,,,,,54,,,,,,,,,,,,,,761.5159999674652,,response,,,,100,,,,,,,Space,keypress(Space),,,,,,,,-- --- ---- --- ------ ----- ------- ---- -- --- ------- --<br>------- ---------- ------ -- ----- -- ----- -- ---- ------<br>--- ----- --- --- ------ -------- ----- --- ------ ----- --<br>----- ----- ---------- and --- ------ ------ ---- -- ------<br>------- --- ------ ----- --- ---- ------- -- ---- --- --<br>------- ------,196875.54500001715,196874.55999996746,196096.396,196099.41500000423,196113.044,196878.835,,36,and
screen,html.Screen,1_1_1_1_37,2021-04-12T18:47:35.289Z,,,,,,,,,,,,,,,,54,,,,,,,,,,,,,,528.5449999896518,,response,,,,100,,,,,,,Space,keypress(Space),,,,,,,,-- --- ---- --- ------ ----- ------- ---- -- --- ------- --<br>------- ---------- ------ -- ----- -- ----- -- ---- ------<br>--- ----- --- --- ------ -------- ----- --- ------ ----- --<br>----- ----- ---------- --- the ------ ------ ---- -- ------<br>------- --- ------ ----- --- ---- ------- -- ---- --- --<br>------- ------,197408.19499996724,197407.37999998964,196862.391,196875.65499998163,196878.835,197411.622,,37,the
screen,html.Screen,1_1_1_1_38,2021-04-12T18:47:35.745Z,,,,,,,,,,,,,,,,54,,,,,,,,,,,,,,451.52300001026015,,response,,,,100,,,,,,,Space,keypress(Space),,,,,,,,-- --- ---- --- ------ ----- ------- ---- -- --- ------- --<br>------- ---------- ------ -- ----- -- ----- -- ---- ------<br>--- ----- --- --- ------ -------- ----- --- ------ ----- --<br>----- ----- ---------- --- --- market ------ ---- -- ------<br>------- --- ------ ----- --- ---- ------- -- ---- --- --<br>------- ------,197864.17499999516,197863.14500001026,197395.229,197408.294999972,197411.622,197877.919,,38,market
screen,html.Screen,1_1_1_1_39,2021-04-12T18:47:36.234Z,,,,,,,,,,,,,,,,54,,,,,,,,,,,,,,474.1960000160616,,response,,,,100,,,,,,,Space,keypress(Space),,,,,,,,-- --- ---- --- ------ ----- ------- ---- -- --- ------- --<br>------- ---------- ------ -- ----- -- ----- -- ---- ------<br>--- ----- --- --- ------ -------- ----- --- ------ ----- --<br>----- ----- ---------- --- --- ------ became ---- -- ------<br>------- --- ------ ----- --- ---- ------- -- ---- --- --<br>------- ------,198353.14999998081,198352.11500001606,197861.513,197864.26499998197,197877.919,198360.559,,39,became
screen,html.Screen,1_1_1_1_40,2021-04-12T18:47:36.794Z,,,,,,,,,,,,,,,,54,,,,,,,,,,,,,,552.381000009249,,response,,,,100,,,,,,,Space,keypress(Space),,,,,,,,-- --- ---- --- ------ ----- ------- ---- -- --- ------- --<br>------- ---------- ------ -- ----- -- ----- -- ---- ------<br>--- ----- --- --- ------ -------- ----- --- ------ ----- --<br>----- ----- ---------- --- --- ------ ------ wary -- ------<br>------- --- ------ ----- --- ---- ------- -- ---- --- --<br>------- ------,198913.78499998245,198912.94000000926,198344.13,198353.23499998776,198360.559,198926.851,,40,wary
screen,html.Screen,1_1_1_1_41,2021-04-12T18:47:37.180Z,,,,,,,,,,,,,,,,54,,,,,,,,,,,,,,371.17399996731547,,response,,,,100,,,,,,,Space,keypress(Space),,,,,,,,-- --- ---- --- ------ ----- ------- ---- -- --- ------- --<br>------- ---------- ------ -- ----- -- ----- -- ---- ------<br>--- ----- --- --- ------ -------- ----- --- ------ ----- --<br>----- ----- ---------- --- --- ------ ------ ---- of ------<br>------- --- ------ ----- --- ---- ------- -- ---- --- --<br>------- ------,199299.0400000126,199298.0249999673,198910.042,198913.85000001173,198926.851,199309.638,,41,of
screen,html.Screen,1_1_1_1_42,2021-04-12T18:47:37.613Z,,,,,,,,,,,,,,,,54,,,,,,,,,,,,,,421.74699999185395,,response,,,,100,,,,,,,Space,keypress(Space),,,,,,,,-- --- ---- --- ------ ----- ------- ---- -- --- ------- --<br>------- ---------- ------ -- ----- -- ----- -- ---- ------<br>--- ----- --- --- ------ -------- ----- --- ------ ----- --<br>----- ----- ---------- --- --- ------ ------ ---- -- French<br>------- --- ------ ----- --- ---- ------- -- ---- --- --<br>------- ------,199732.33500000788,199731.38499999186,199292.984,199299.11500000162,199309.638,199742.459,,42,French
screen,html.Screen,1_1_1_1_43,2021-04-12T18:47:38.714Z,,,,,,,,,,,,,,,,54,,,,,,,,,,,,,,1090.1109999695618,,response,,,,100,,,,,,,Space,keypress(Space),,,,,,,,-- --- ---- --- ------ ----- ------- ---- -- --- ------- --<br>------- ---------- ------ -- ----- -- ----- -- ---- ------<br>--- ----- --- --- ------ -------- ----- --- ------ ----- --<br>----- ----- ---------- --- --- ------ ------ ---- -- ------<br>credit. --- ------ ----- --- ---- ------- -- ---- --- --<br>------- ------,200833.48999998998,200832.56999996956,199725.782,199732.4099999969,199742.459,200841.227,,43,credit.
screen,html.Screen,1_1_1_1_44,2021-04-12T18:47:39.192Z,,,,,,,,,,,,,,,,54,,,,,,,,,,,,,,468.73299998411676,,response,,,,100,,,,,,,Space,keypress(Space),,,,,,,,-- --- ---- --- ------ ----- ------- ---- -- --- ------- --<br>------- ---------- ------ -- ----- -- ----- -- ---- ------<br>--- ----- --- --- ------ -------- ----- --- ------ ----- --<br>----- ----- ---------- --- --- ------ ------ ---- -- ------<br>------- The ------ ----- --- ---- ------- -- ---- --- --<br>------- ------,201311.07499997597,201309.95999998413,200824.752,200833.71999999508,200841.227,201324.752,,44,The
screen,html.Screen,1_1_1_1_45,2021-04-12T18:47:39.651Z,,,,,,,,,,,,,,,,54,,,,,,,,,,,,,,445.00300001571304,,response,,,,100,,,,,,,Space,keypress(Space),,,,,,,,-- --- ---- --- ------ ----- ------- ---- -- --- ------- --<br>------- ---------- ------ -- ----- -- ----- -- ---- ------<br>--- ----- --- --- ------ -------- ----- --- ------ ----- --<br>----- ----- ---------- --- --- ------ ------ ---- -- ------<br>------- --- French ----- --- ---- ------- -- ---- --- --<br>------- ------,201770.6500000204,201769.75500001572,201307.571,201311.15999998292,201324.752,201773.48,,45,French
screen,html.Screen,1_1_1_1_46,2021-04-12T18:47:40.196Z,,,,,,,,,,,,,,,,54,,,,,,,,,,,,,,541.5450000180572,,response,,,,100,,,,,,,Space,keypress(Space),,,,,,,,-- --- ---- --- ------ ----- ------- ---- -- --- ------- --<br>------- ---------- ------ -- ----- -- ----- -- ---- ------<br>--- ----- --- --- ------ -------- ----- --- ------ ----- --<br>----- ----- ---------- --- --- ------ ------ ---- -- ------<br>------- --- ------ state --- ---- ------- -- ---- --- --<br>------- ------,202315.820000018,202315.02500001807,201756.938,201770.755000005,201773.48,202322.927,,46,state
screen,html.Screen,1_1_1_1_47,2021-04-12T18:47:40.754Z,,,,,,,,,,,,,,,,54,,,,,,,,,,,,,,549.8430000163207,,response,,,,100,,,,,,,Space,keypress(Space),,,,,,,,-- --- ---- --- ------ ----- ------- ---- -- --- ------- --<br>------- ---------- ------ -- ----- -- ----- -- ---- ------<br>--- ----- --- --- ------ -------- ----- --- ------ ----- --<br>----- ----- ---------- --- --- ------ ------ ---- -- ------<br>------- --- ------ ----- was ---- ------- -- ---- --- --<br>------- ------,202873.7700000056,202872.77000001632,202306.45,202315.895000007,202322.927,202889.703,,47,was
screen,html.Screen,1_1_1_1_48,2021-04-12T18:47:41.215Z,,,,,,,,,,,,,,,,54,,,,,,,,,,,,,,444.06199998848024,,response,,,,100,,,,,,,Space,keypress(Space),,,,,,,,-- --- ---- --- ------ ----- ------- ---- -- --- ------- --<br>------- ---------- ------ -- ----- -- ----- -- ---- ------<br>--- ----- --- --- ------ -------- ----- --- ------ ----- --<br>----- ----- ---------- --- --- ------ ------ ---- -- ------<br>------- --- ------ ----- --- left ------- -- ---- --- --<br>------- ------,203334.67999997083,203333.7649999885,202872.547,202873.87000001036,202889.703,203338.592,,48,left
screen,html.Screen,1_1_1_1_49,2021-04-12T18:47:41.624Z,,,,,,,,,,,,,,,,54,,,,,,,,,,,,,,403.86799997946946,,response,,,,100,,,,,,,Space,keypress(Space),,,,,,,,-- --- ---- --- ------ ----- ------- ---- -- --- ------- --<br>------- ---------- ------ -- ----- -- ----- -- ---- ------<br>--- ----- --- --- ------ -------- ----- --- ------ ----- --<br>----- ----- ---------- --- --- ------ ------ ---- -- ------<br>------- --- ------ ----- --- ---- without -- ---- --- --<br>------- ------,203743.4849999845,203742.45999997947,203321.853,203334.80000001146,203338.592,203754.749,,49,without
screen,html.Screen,1_1_1_1_50,2021-04-12T18:47:42.124Z,,,,,,,,,,,,,,,,54,,,,,,,,,,,,,,487.5460000036401,,response,,,,100,,,,,,,Space,keypress(Space),,,,,,,,-- --- ---- --- ------ ----- ------- ---- -- --- ------- --<br>------- ---------- ------ -- ----- -- ----- -- ---- ------<br>--- ----- --- --- ------ -------- ----- --- ------ ----- --<br>----- ----- ---------- --- --- ------ ------ ---- -- ------<br>------- --- ------ ----- --- ---- ------- an ---- --- --<br>------- ------,204243.39999997756,204242.29500000365,203738.299,203743.58499998925,203754.749,204254.237,,50,an
screen,html.Screen,1_1_1_1_51,2021-04-12T18:47:42.641Z,,,,,,,,,,,,,,,,54,,,,,,,,,,,,,,505.4280000196013,,response,,,,100,,,,,,,Space,keypress(Space),,,,,,,,-- --- ---- --- ------ ----- ------- ---- -- --- ------- --<br>------- ---------- ------ -- ----- -- ----- -- ---- ------<br>--- ----- --- --- ------ -------- ----- --- ------ ----- --<br>----- ----- ---------- --- --- ------ ------ ---- -- ------<br>------- --- ------ ----- --- ---- ------- -- easy --- --<br>------- ------,204760.74499997776,204759.6650000196,204237.571,204243.49500000244,204254.237,204770.352,,51,easy
screen,html.Screen,1_1_1_1_52,2021-04-12T18:47:43.273Z,,,,,,,,,,,,,,,,54,,,,,,,,,,,,,,620.8780000083498,,response,,,,100,,,,,,,Space,keypress(Space),,,,,,,,-- --- ---- --- ------ ----- ------- ---- -- --- ------- --<br>------- ---------- ------ -- ----- -- ----- -- ---- ------<br>--- ----- --- --- ------ -------- ----- --- ------ ----- --<br>----- ----- ---------- --- --- ------ ------ ---- -- ------<br>------- --- ------ ----- --- ---- ------- -- ---- way --<br>------- ------,205392.41999998922,205391.23000000836,204753.665,204760.8299999847,204770.352,205402.92,,52,way
screen,html.Screen,1_1_1_1_53,2021-04-12T18:47:43.584Z,,,,,,,,,,,,,,,,54,,,,,,,,,,,,,,299.359999968583,,response,,,,100,,,,,,,Space,keypress(Space),,,,,,,,-- --- ---- --- ------ ----- ------- ---- -- --- ------- --<br>------- ---------- ------ -- ----- -- ----- -- ---- ------<br>--- ----- --- --- ------ -------- ----- --- ------ ----- --<br>----- ----- ---------- --- --- ------ ------ ---- -- ------<br>------- --- ------ ----- --- ---- ------- -- ---- --- of<br>------- ------,205703.33499996923,205702.2799999686,205386.267,205392.5000000163,205402.92,205719.212,,53,of
screen,html.Screen,1_1_1_1_54,2021-04-12T18:47:45.027Z,,,,,,,,,,,,,,,,54,,,,,,,,,,,,,,1426.413000004657,,response,,,,100,,,,,,,Space,keypress(Space),,,,,,,,-- --- ---- --- ------ ----- ------- ---- -- --- ------- --<br>------- ---------- ------ -- ----- -- ----- -- ---- ------<br>--- ----- --- --- ------ -------- ----- --- ------ ----- --<br>----- ----- ---------- --- --- ------ ------ ---- -- ------<br>------- --- ------ ----- --- ---- ------- -- ---- --- --<br>raising ------,207146.43999998225,207145.62500000466,205702.548,205703.41999997618,205719.212,207151.022,,54,raising
screen,html.Screen,1_1_1_1_55,2021-04-12T18:47:45.495Z,,,,,,,,,,,,,,,,54,,,,,,,,,,,,,,462.53299998899456,,response,,,,100,,,,,,,Space,keypress(Space),,,,,,,,-- --- ---- --- ------ ----- ------- ---- -- --- ------- --<br>------- ---------- ------ -- ----- -- ----- -- ---- ------<br>--- ----- --- --- ------ -------- ----- --- ------ ----- --<br>----- ----- ---------- --- --- ------ ------ ---- -- ------<br>------- --- ------ ----- --- ---- ------- -- ---- --- --<br>------- money.,207614.2749999999,207613.554999989,207134.482,207146.52000000933,207151.022,207617.055,,55,money.
Item 100,flow.Loop,1_1_1_1,2021-04-12T18:47:45.495Z,,,,,,,,,,,,,,,,,,,,,,,,,,,,,,32494.11299998898,,completion,,,,,B,,,,,,,,,,,silence,,,,,207614.46499999147,207613.554999989,175102.911,175104.03499996755,175119.442,207617.055,,,
Question 1,html.Screen,1_1_1_2,2021-04-12T18:47:49.809Z,,,,,,,,,,,,,,,,,,,,,,,,,,,true,TRUE,,4309.824999984528,,response,,,,100,B,,,,,,TRUE,click #choice-1,,,,silence,,,,,211928.190000006,211926.87999998452,207600.703,207614.52499998268,207617.055,211929.003,,,
Question 2,html.Screen,1_1_1_3,2021-04-12T18:47:52.212Z,,,,,,,,,,,,,,,,,,,,,,,,,,,true,FALSE,,2401.2669999767386,,response,,,,100,B,,,,,,FALSE,click #choice-2,,,,silence,,,,,214331.27000002423,214330.26999997674,211912.631,211928.264999995,211929.003,214343.165,,,
Item 100,flow.Sequence,1_1_1,2021-04-12T18:47:52.212Z,,,,,,,,,,,,,,,,,,,,,,,,,,,,,,49216.491999976744,,completion,,,,,,,,,,,,,,,,,,,,,214331.37500000885,214330.26999997674,165097.37,165112.1099999873,165113.778,214343.165,,,
End of Practice,html.Page,1_1_2,2021-04-12T18:47:54.473Z,,,,,,,,,,,,,,,,,,,,,,,,,,,,,,2248.8050000085786,,form submission,,,,,,,,,,,,,,,,,,,,,216592.20499999356,216591.9700000086,214326.492,214331.42000000225,214343.165,216607.377,,,
Practice,flow.Sequence,1_1,2021-04-12T18:47:54.473Z,,,,,,,,,,,,,,,,,,,,,,,,,,,,,,105189.77800000859,,completion,,,,,,,,,,,,,,,,,,,,,216592.31500001624,216591.9700000086,111356.123,111376.76000001375,111402.192,216607.377,,,
Trap_instruction,html.Page,1_2_0,2021-04-12T18:47:55.457Z,,,,,,,,,,,,,,,,,,,,,,,,,,,,,,968.5429999738408,,form submission,,,,,,,,,,,,,,,,,,,,,217576.08999998774,217575.91999997385,216590.718,216592.37500000745,216607.377,217606.124,,,
trap_trial,html.Screen,1_2_1,2021-04-12T18:48:00.577Z,,,,,,,,,,,,,,,,,,,,,,,,,,,true,1,,5088.366000023496,,response,,,,,,,,,,,1,click #choice-1,,,,,,,,,222696.18999998784,222694.4900000235,217572.955,217576.21500000823,217606.124,222700.536,,,
end of trap trial,html.Page,1_2_2,2021-04-12T18:48:02.284Z,,,,,,,,,,,,,,,,,,,,,,,,,,,,,,1703.1139999929292,,form submission,,,,,,,,,,,,,,,,,,,,,224403.78499997314,224403.64999999292,222683.915,222696.26499997685,222700.536,224415.959,,,
Trap 1,flow.Sequence,1_2,2021-04-12T18:48:02.284Z,,,,,,,,,,,,,,,,,,,,,,,,,,,,,,7796.272999992914,,completion,,,,,,,,,,,,,,,,,,,,,224403.8699999801,224403.64999999292,216590.718,216592.35499997158,216607.377,224415.959,,,
Standby,html.Page,1_3_0,2021-04-12T18:48:10.288Z,,,,,,,,,,,,,,,,,,,,,,,,,,,,,,8007.2300000000105,,timeout,,,,,,,,,,,,,,,,,,,,,232407.72999997716,232406.622,224398.783,224403.93999998923,224415.959,232423.189,,,
Holding screen,html.Screen,1_3_1_0_0,2021-04-12T18:48:17.280Z,,,,,,,,,,,,,,,,,,,,,,,,,,,,,,6992.3399999999965,,timeout,,,,,,,,,,,,,,,,,,,,,239400.08499997202,239398.933,232406.622,232407.91999996873,232423.189,239415.529,,,
screen,html.Screen,1_3_1_0_1_0,2021-04-12T18:48:19.983Z,,,,,,,,,,,,,,,,51,,,,,,,,,,,,,,2686.691000000661,,response,,,,13,B,,,,,,Space,keypress(Space),,,,lyrical,,,,American -------- --- --- ---- --- --- ------ -- --------<br>---- --------- --- ------- ------------ ---------- ---------<br>--- ---------- ------- ---------- ------- -- -------- ----<br>---- --- ------ ----- ------ -- ---- --- ----- -- - -------<br>-------- -- --- --- -- ----- ----------- ----- -----------<br>---- --- ---------- --- ---- --- -- ----------,242102.9049999779,242102.22000000067,239398.933,239400.2099999925,239415.529,242112.592,,0,American
screen,html.Screen,1_3_1_0_1_1,2021-04-12T18:48:20.668Z,,,,,,,,,,,,,,,,51,,,,,,,,,,,,,,673.8130000207457,,response,,,,13,B,,,,,,Space,keypress(Space),,,,lyrical,,,,-------- industry --- --- ---- --- --- ------ -- --------<br>---- --------- --- ------- ------------ ---------- ---------<br>--- ---------- ------- ---------- ------- -- -------- ----<br>---- --- ------ ----- ------ -- ---- --- ----- -- - -------<br>-------- -- --- --- -- ----- ----------- ----- -----------<br>---- --- ---------- --- ---- --- -- ----------,242787.49499999685,242786.40500002075,242096.385,242103.01000002073,242112.592,242795.169,,1,industry
screen,html.Screen,1_3_1_0_1_2,2021-04-12T18:48:21.269Z,,,,,,,,,,,,,,,,51,,,,,,,,,,,,,,593.0209999687504,,response,,,,13,B,,,,,,Space,keypress(Space),,,,lyrical,,,,-------- -------- may --- ---- --- --- ------ -- --------<br>---- --------- --- ------- ------------ ---------- ---------<br>--- ---------- ------- ---------- ------- -- -------- ----<br>---- --- ------ ----- ------ -- ---- --- ----- -- - -------<br>-------- -- --- --- -- ----- ----------- ----- -----------<br>---- --- ---------- --- ---- --- -- ----------,243388.97500000894,243388.18999996874,242778.601,242787.565000006,242795.169,243394.604,,2,may
screen,html.Screen,1_3_1_0_1_3,2021-04-12T18:48:21.830Z,,,,,,,,,,,,,,,,51,,,,,,,,,,,,,,553.8709999828716,,response,,,,13,B,,,,,,Space,keypress(Space),,,,lyrical,,,,-------- -------- --- not ---- --- --- ------ -- --------<br>---- --------- --- ------- ------------ ---------- ---------<br>--- ---------- ------- ---------- ------- -- -------- ----<br>---- --- ------ ----- ------ -- ---- --- ----- -- - -------<br>-------- -- --- --- -- ----- ----------- ----- -----------<br>---- --- ---------- --- ---- --- -- ----------,243949.36999998754,243948.47499998286,243378.001,243389.04999999795,243394.604,243960.542,,3,not
screen,html.Screen,1_3_1_0_1_4,2021-04-12T18:48:22.263Z,,,,,,,,,,,,,,,,51,,,,,,,,,,,,,,420.9229999840318,,response,,,,13,B,,,,,,Space,keypress(Space),,,,lyrical,,,,-------- -------- --- --- know --- --- ------ -- --------<br>---- --------- --- ------- ------------ ---------- ---------<br>--- ---------- ------- ---------- ------- -- -------- ----<br>---- --- ------ ----- ------ -- ---- --- ----- -- - -------<br>-------- -- --- --- -- ----- ----------- ----- -----------<br>---- --- ---------- --- ---- --- -- ----------,244382.68500001868,244381.46499998402,243944.21,243949.4999999879,243960.542,244393.368,,4,know
screen,html.Screen,1_3_1_0_1_5,2021-04-12T18:48:22.716Z,,,,,,,,,,,,,,,,51,,,,,,,,,,,,,,441.14200001515565,,response,,,,13,B,,,,,,Space,keypress(Space),,,,lyrical,,,,"-------- -------- --- --- ---- it, --- ------ -- --------<br>---- --------- --- ------- ------------ ---------- ---------<br>--- ---------- ------- ---------- ------- -- -------- ----<br>---- --- ------ ----- ------ -- ---- --- ----- -- - -------<br>-------- -- --- --- -- ----- ----------- ----- -----------<br>---- --- ---------- --- ---- --- -- ----------",244835.61499998905,244834.51000001514,244376.847,244382.7750000055,244393.368,244842.901,,5,"it,"
screen,html.Screen,1_3_1_0_1_6,2021-04-12T18:48:23.398Z,,,,,,,,,,,,,,,,51,,,,,,,,,,,,,,673.2489999812678,,response,,,,13,B,,,,,,Space,keypress(Space),,,,lyrical,,,,-------- -------- --- --- ---- --- but ------ -- --------<br>---- --------- --- ------- ------------ ---------- ---------<br>--- ---------- ------- ---------- ------- -- -------- ----<br>---- --- ------ ----- ------ -- ---- --- ----- -- - -------<br>-------- -- --- --- -- ----- ----------- ----- -----------<br>---- --- ---------- --- ---- --- -- ----------,245517.2550000134,245516.14999998128,244826.326,244835.6849999982,244842.901,245525.586,,6,but
screen,html.Screen,1_3_1_0_1_7,2021-04-12T18:48:26.187Z,,,,,,,,,,,,,,,,51,,,,,,,,,,,,,,2779.5840000069,,response,,,,13,B,,,,,,Space,keypress(Space),,,,lyrical,,,,-------- -------- --- --- ---- --- --- debate -- --------<br>---- --------- --- ------- ------------ ---------- ---------<br>--- ---------- ------- ---------- ------- -- -------- ----<br>---- --- ------ ----- ------ -- ---- --- ----- -- - -------<br>-------- -- --- --- -- ----- ----------- ----- -----------<br>---- --- ---------- --- ---- --- -- ----------,248306.33499997202,248305.1700000069,245509.128,245517.32500002254,245525.586,248322.431,,7,debate
screen,html.Screen,1_3_1_0_1_8,2021-04-12T18:48:31.354Z,,,,,,,,,,,,,,,,51,,,,,,,,,,,,,,5150.193999994866,,response,,,,13,B,,,,,,Space,keypress(Space),,,,lyrical,,,,-------- -------- --- --- ---- --- --- ------ in --------<br>---- --------- --- ------- ------------ ---------- ---------<br>--- ---------- ------- ---------- ------- -- -------- ----<br>---- --- ------ ----- ------ -- ---- --- ----- -- - -------<br>-------- -- --- --- -- ----- ----------- ----- -----------<br>---- --- ---------- --- ---- --- -- ----------,253473.2199999853,253472.62499999488,248306.189,248306.40499998117,248322.431,253483.392,,8,in
screen,html.Screen,1_3_1_0_1_9,2021-04-12T18:48:31.938Z,,,,,,,,,,,,,,,,51,,,,,,,,,,,,,,573.543000000529,,response,,,,13,B,,,,,,Space,keypress(Space),,,,lyrical,,,,-------- -------- --- --- ---- --- --- ------ -- Congress<br>---- --------- --- ------- ------------ ---------- ---------<br>--- ---------- ------- ---------- ------- -- -------- ----<br>---- --- ------ ----- ------ -- ---- --- ----- -- - -------<br>-------- -- --- --- -- ----- ----------- ----- -----------<br>---- --- ---------- --- ---- --- -- ----------,254057.9499999876,254056.93500000052,253467.58,253473.30999997212,253483.392,254066.146,,9,Congress
screen,html.Screen,1_3_1_0_1_10,2021-04-12T18:48:32.548Z,,,,,,,,,,,,,,,,51,,,,,,,,,,,,,,601.123999976262,,response,,,,13,B,,,,,,Space,keypress(Space),,,,lyrical,,,,-------- -------- --- --- ---- --- --- ------ -- --------<br>over --------- --- ------- ------------ ---------- ---------<br>--- ---------- ------- ---------- ------- -- -------- ----<br>---- --- ------ ----- ------ -- ---- --- ----- -- - -------<br>-------- -- --- --- -- ----- ----------- ----- -----------<br>---- --- ---------- --- ---- --- -- ----------,254668.10000000987,254667.26999997627,254049.503,254058.04999999236,254066.146,254682.113,,10,over
screen,html.Screen,1_3_1_0_1_11,2021-04-12T18:48:33.043Z,,,,,,,,,,,,,,,,51,,,,,,,,,,,,,,479.51200000790413,,response,,,,13,B,,,,,,Space,keypress(Space),,,,lyrical,,,,-------- -------- --- --- ---- --- --- ------ -- --------<br>---- reforming --- ------- ------------ ---------- ---------<br>--- ---------- ------- ---------- ------- -- -------- ----<br>---- --- ------ ----- ------ -- ---- --- ----- -- - -------<br>-------- -- --- --- -- ----- ----------- ----- -----------<br>---- --- ---------- --- ---- --- -- ----------,255162.56999998586,255161.62500000792,254665.632,254668.24500000803,254682.113,255164.829,,11,reforming
screen,html.Screen,1_3_1_0_1_12,2021-04-12T18:48:33.465Z,,,,,,,,,,,,,,,,51,,,,,,,,,,,,,,418.81099996800185,,response,,,,13,B,,,,,,Space,keypress(Space),,,,lyrical,,,,-------- -------- --- --- ---- --- --- ------ -- --------<br>---- --------- the ------- ------------ ---------- ---------<br>--- ---------- ------- ---------- ------- -- -------- ----<br>---- --- ------ ----- ------ -- ---- --- ----- -- - -------<br>-------- -- --- --- -- ----- ----------- ----- -----------<br>---- --- ---------- --- ---- --- -- ----------,255584.42999998806,255583.639999968,255148.297,255162.65999997267,255164.829,255597.822,,12,the
screen,html.Screen,1_3_1_0_1_13,2021-04-12T18:48:34.071Z,,,,,,,,,,,,,,,,51,,,,,,,,,,,,,,591.9180000016349,,response,,,,13,B,,,,,,Space,keypress(Space),,,,lyrical,,,,-------- -------- --- --- ---- --- --- ------ -- --------<br>---- --------- --- federal ------------ ---------- ---------<br>--- ---------- ------- ---------- ------- -- -------- ----<br>---- --- ------ ----- ------ -- ---- --- ----- -- - -------<br>-------- -- --- --- -- ----- ----------- ----- -----------<br>---- --- ---------- --- ---- --- -- ----------,256190.64500002423,256189.74000000162,255581.3,255584.52500001295,255597.822,256197.04,,13,federal
screen,html.Screen,1_3_1_0_1_14,2021-04-12T18:48:34.629Z,,,,,,,,,,,,,,,,51,,,,,,,,,,,,,,550.1950000170909,,response,,,,13,B,,,,,,Space,keypress(Space),,,,lyrical,,,,-------- -------- --- --- ---- --- --- ------ -- --------<br>---- --------- --- ------- government's ---------- ---------<br>--- ---------- ------- ---------- ------- -- -------- ----<br>---- --- ------ ----- ------ -- ---- --- ----- -- - -------<br>-------- -- --- --- -- ----- ----------- ----- -----------<br>---- --- ---------- --- ---- --- -- ----------,256748.30500001553,256747.2350000171,256180.662,256190.90499996673,256197.04,256763.136,,14,government's
screen,html.Screen,1_3_1_0_1_15,2021-04-12T18:48:35.282Z,,,,,,,,,,,,,,,,51,,,,,,,,,,,,,,637.3290000133566,,response,,,,13,B,,,,,,Space,keypress(Space),,,,lyrical,,,,-------- -------- --- --- ---- --- --- ------ -- --------<br>---- --------- --- ------- ------------ regulatory ---------<br>--- ---------- ------- ---------- ------- -- -------- ----<br>---- --- ------ ----- ------ -- ---- --- ----- -- - -------<br>-------- -- --- --- -- ----- ----------- ----- -----------<br>---- --- ---------- --- ---- --- -- ----------,257401.55999996932,257400.46500001336,256746.753,256748.3849999844,256763.136,257412.443,,15,regulatory
screen,html.Screen,1_3_1_0_1_16,2021-04-12T18:48:36.004Z,,,,,,,,,,,,,,,,51,,,,,,,,,,,,,,709.8619999680377,,response,,,,13,B,,,,,,Space,keypress(Space),,,,lyrical,,,,-------- -------- --- --- ---- --- --- ------ -- --------<br>---- --------- --- ------- ------------ ---------- apparatus<br>--- ---------- ------- ---------- ------- -- -------- ----<br>---- --- ------ ----- ------ -- ---- --- ----- -- - -------<br>-------- -- --- --- -- ----- ----------- ----- -----------<br>---- --- ---------- --- ---- --- -- ----------,258123.65999998292,258122.30499996804,257395.934,257401.64499997627,257412.443,258128.267,,16,apparatus
screen,html.Screen,1_3_1_0_1_17,2021-04-12T18:48:36.676Z,,,,,,,,,,,,,,,,51,,,,,,,,,,,,,,666.7380000217818,,response,,,,13,B,,,,,,Space,keypress(Space),,,,lyrical,,,,-------- -------- --- --- ---- --- --- ------ -- --------<br>---- --------- --- ------- ------------ ---------- ---------<br>may ---------- ------- ---------- ------- -- -------- ----<br>---- --- ------ ----- ------ -- ---- --- ----- -- - -------<br>-------- -- --- --- -- ----- ----------- ----- -----------<br>---- --- ---------- --- ---- --- -- ----------,258796.08499997994,258795.00500002177,258111.753,258123.74499998987,258128.267,258810.902,,17,may
screen,html.Screen,1_3_1_0_1_18,2021-04-12T18:48:37.327Z,,,,,,,,,,,,,,,,51,,,,,,,,,,,,,,634.5979999725241,,response,,,,13,B,,,,,,Space,keypress(Space),,,,lyrical,,,,-------- -------- --- --- ---- --- --- ------ -- --------<br>---- --------- --- ------- ------------ ---------- ---------<br>--- profoundly ------- ---------- ------- -- -------- ----<br>---- --- ------ ----- ------ -- ---- --- ----- -- - -------<br>-------- -- --- --- -- ----- ----------- ----- -----------<br>---- --- ---------- --- ---- --- -- ----------,259446.5949999867,259445.49999997253,258794.517,258796.15999996895,258810.902,259460.21,,18,profoundly
screen,html.Screen,1_3_1_0_1_19,2021-04-12T18:48:37.779Z,,,,,,,,,,,,,,,,51,,,,,,,,,,,,,,437.28499998289044,,response,,,,13,B,,,,,,Space,keypress(Space),,,,lyrical,,,,-------- -------- --- --- ---- --- --- ------ -- --------<br>---- --------- --- ------- ------------ ---------- ---------<br>--- ---------- improve ---------- ------- -- -------- ----<br>---- --- ------ ----- ------ -- ---- --- ----- -- - -------<br>-------- -- --- --- -- ----- ----------- ----- -----------<br>---- --- ---------- --- ---- --- -- ----------,259898.4000000055,259897.49499998288,259443.664,259446.6699999757,259460.21,259909.726,,19,improve
screen,html.Screen,1_3_1_0_1_20,2021-04-12T18:48:38.243Z,,,,,,,,,,,,,,,,51,,,,,,,,,,,,,,452.10899998879177,,response,,,,13,B,,,,,,Space,keypress(Space),,,,lyrical,,,,-------- -------- --- --- ---- --- --- ------ -- --------<br>---- --------- --- ------- ------------ ---------- ---------<br>--- ---------- ------- companies' ------- -- -------- ----<br>---- --- ------ ----- ------ -- ---- --- ----- -- - -------<br>-------- -- --- --- -- ----- ----------- ----- -----------<br>---- --- ---------- --- ---- --- -- ----------,260362.83499997808,260361.8349999888,259893.148,259898.49499997217,259909.726,260375.893,,20,companies'
screen,html.Screen,1_3_1_0_1_21,2021-04-12T18:48:38.653Z,,,,,,,,,,,,,,,,51,,,,,,,,,,,,,,395.5670000181126,,response,,,,13,B,,,,,,Space,keypress(Space),,,,lyrical,,,,-------- -------- --- --- ---- --- --- ------ -- --------<br>---- --------- --- ------- ------------ ---------- ---------<br>--- ---------- ------- ---------- ability -- -------- ----<br>---- --- ------ ----- ------ -- ---- --- ----- -- - -------<br>-------- -- --- --- -- ----- ----------- ----- -----------<br>---- --- ---------- --- ---- --- -- ----------,260772.3550000228,260771.46000001812,260359.294,260362.91500000516,260375.893,260775.401,,21,ability
screen,html.Screen,1_3_1_0_1_22,2021-04-12T18:48:39.080Z,,,,,,,,,,,,,,,,51,,,,,,,,,,,,,,423.41400001064176,,response,,,,13,B,,,,,,Space,keypress(Space),,,,lyrical,,,,-------- -------- --- --- ---- --- --- ------ -- --------<br>---- --------- --- ------- ------------ ---------- ---------<br>--- ---------- ------- ---------- ------- to -------- ----<br>---- --- ------ ----- ------ -- ---- --- ----- -- - -------<br>-------- -- --- --- -- ----- ----------- ----- -----------<br>---- --- ---------- --- ---- --- -- ----------,261199.73499997286,261198.81500001065,260758.899,260772.45499996934,260775.401,261208.351,,22,to
screen,html.Screen,1_3_1_0_1_23,2021-04-12T18:48:39.773Z,,,,,,,,,,,,,,,,51,,,,,,,,,,,,,,683.5189999922004,,response,,,,13,B,,,,,,Space,keypress(Space),,,,lyrical,,,,-------- -------- --- --- ---- --- --- ------ -- --------<br>---- --------- --- ------- ------------ ---------- ---------<br>--- ---------- ------- ---------- ------- -- survive. ----<br>---- --- ------ ----- ------ -- ---- --- ----- -- - -------<br>-------- -- --- --- -- ----- ----------- ----- -----------<br>---- --- ---------- --- ---- --- -- ----------,261892.72000000346,261891.8699999922,261191.982,261199.9000000069,261208.351,261907.593,,23,survive.
screen,html.Screen,1_3_1_0_1_24,2021-04-12T18:48:40.212Z,,,,,,,,,,,,,,,,51,,,,,,,,,,,,,,423.1969999781577,,response,,,,13,B,,,,,,Space,keypress(Space),,,,lyrical,,,,-------- -------- --- --- ---- --- --- ------ -- --------<br>---- --------- --- ------- ------------ ---------- ---------<br>--- ---------- ------- ---------- ------- -- -------- This<br>---- --- ------ ----- ------ -- ---- --- ----- -- - -------<br>-------- -- --- --- -- ----- ----------- ----- -----------<br>---- --- ---------- --- ---- --- -- ----------,262331.594999996,262330.78999997815,261890.94,261892.8050000104,261907.593,262340.445,,24,This
screen,html.Screen,1_3_1_0_1_25,2021-04-12T18:48:40.556Z,,,,,,,,,,,,,,,,51,,,,,,,,,,,,,,334.4600000216742,,response,,,,13,B,,,,,,Space,keypress(Space),,,,lyrical,,,,-------- -------- --- --- ---- --- --- ------ -- --------<br>---- --------- --- ------- ------------ ---------- ---------<br>--- ---------- ------- ---------- ------- -- -------- ----<br>week --- ------ ----- ------ -- ---- --- ----- -- - -------<br>-------- -- --- --- -- ----- ----------- ----- -----------<br>---- --- ---------- --- ---- --- -- ----------,262675.69000000367,262674.9050000217,262323.804,262331.669999985,262340.445,262689.996,,25,week
screen,html.Screen,1_3_1_0_1_26,2021-04-12T18:48:40.971Z,,,,,,,,,,,,,,,,51,,,,,,,,,,,,,,399.62399998429464,,response,,,,13,B,,,,,,Space,keypress(Space),,,,lyrical,,,,-------- -------- --- --- ---- --- --- ------ -- --------<br>---- --------- --- ------- ------------ ---------- ---------<br>--- ---------- ------- ---------- ------- -- -------- ----<br>---- the ------ ----- ------ -- ---- --- ----- -- - -------<br>-------- -- --- --- -- ----- ----------- ----- -----------<br>---- --- ---------- --- ---- --- -- ----------,263090.5349999666,263089.6199999843,262673.406,262675.83000002196,262689.996,263106.218,,26,the
screen,html.Screen,1_3_1_0_1_27,2021-04-12T18:48:41.458Z,,,,,,,,,,,,,,,,51,,,,,,,,,,,,,,470.23199999320786,,response,,,,13,B,,,,,,Space,keypress(Space),,,,lyrical,,,,-------- -------- --- --- ---- --- --- ------ -- --------<br>---- --------- --- ------- ------------ ---------- ---------<br>--- ---------- ------- ---------- ------- -- -------- ----<br>---- --- Senate ----- ------ -- ---- --- ----- -- - -------<br>-------- -- --- --- -- ----- ----------- ----- -----------<br>---- --- ---------- --- ---- --- -- ----------,263577.2199999774,263576.4499999932,263089.738,263090.7499999739,263106.218,263589.035,,27,Senate
screen,html.Screen,1_3_1_0_1_28,2021-04-12T18:48:41.924Z,,,,,,,,,,,,,,,,51,,,,,,,,,,,,,,453.8299999667215,,response,,,,13,B,,,,,,Space,keypress(Space),,,,lyrical,,,,-------- -------- --- --- ---- --- --- ------ -- --------<br>---- --------- --- ------- ------------ ---------- ---------<br>--- ---------- ------- ---------- ------- -- -------- ----<br>---- --- ------ seems ------ -- ---- --- ----- -- - -------<br>-------- -- --- --- -- ----- ----------- ----- -----------<br>---- --- ---------- --- ---- --- -- ----------,264043.66999998456,264042.8649999667,263572.377,263577.2950000246,263589.035,264055.333,,28,seems
screen,html.Screen,1_3_1_0_1_29,2021-04-12T18:48:42.381Z,,,,,,,,,,,,,,,,51,,,,,,,,,,,,,,443.85700000228826,,response,,,,13,B,,,,,,Space,keypress(Space),,,,lyrical,,,,-------- -------- --- --- ---- --- --- ------ -- --------<br>---- --------- --- ------- ------------ ---------- ---------<br>--- ---------- ------- ---------- ------- -- -------- ----<br>---- --- ------ ----- poised -- ---- --- ----- -- - -------<br>-------- -- --- --- -- ----- ----------- ----- -----------<br>---- --- ---------- --- ---- --- -- ----------,264500.1850000117,264499.1900000023,264038.578,264043.7849999871,264055.333,264504.629,,29,poised
screen,html.Screen,1_3_1_0_1_30,2021-04-12T18:48:42.877Z,,,,,,,,,,,,,,,,51,,,,,,,,,,,,,,490.9710000238265,,response,,,,13,B,,,,,,Space,keypress(Space),,,,lyrical,,,,-------- -------- --- --- ---- --- --- ------ -- --------<br>---- --------- --- ------- ------------ ---------- ---------<br>--- ---------- ------- ---------- ------- -- -------- ----<br>---- --- ------ ----- ------ to ---- --- ----- -- - -------<br>-------- -- --- --- -- ----- ----------- ----- -----------<br>---- --- ---------- --- ---- --- -- ----------,264996.5150000062,264995.60000002384,264488.027,264500.2799999784,264504.629,265004.032,,30,to
screen,html.Screen,1_3_1_0_1_31,2021-04-12T18:48:43.334Z,,,,,,,,,,,,,,,,51,,,,,,,,,,,,,,448.1579999817768,,response,,,,13,B,,,,,,Space,keypress(Space),,,,lyrical,,,,-------- -------- --- --- ---- --- --- ------ -- --------<br>---- --------- --- ------- ------------ ---------- ---------<br>--- ---------- ------- ---------- ------- -- -------- ----<br>---- --- ------ ----- ------ -- join --- ----- -- - -------<br>-------- -- --- --- -- ----- ----------- ----- -----------<br>---- --- ---------- --- ---- --- -- ----------,265453.2800000161,265452.1899999818,264987.616,264996.7750000069,265004.032,265470.355,,31,join
screen,html.Screen,1_3_1_0_1_32,2021-04-12T18:48:43.910Z,,,,,,,,,,,,,,,,51,,,,,,,,,,,,,,557.8150000050664,,response,,,,13,B,,,,,,Space,keypress(Space),,,,lyrical,,,,-------- -------- --- --- ---- --- --- ------ -- --------<br>---- --------- --- ------- ------------ ---------- ---------<br>--- ---------- ------- ---------- ------- -- -------- ----<br>---- --- ------ ----- ------ -- ---- the ----- -- - -------<br>-------- -- --- --- -- ----- ----------- ----- -----------<br>---- --- ---------- --- ---- --- -- ----------,266029.114999983,266028.17000000505,265453.719,265453.38000002084,265470.355,266036.366,,32,the
screen,html.Screen,1_3_1_0_1_33,2021-04-12T18:48:44.359Z,,,,,,,,,,,,,,,,51,,,,,,,,,,,,,,441.5040000024601,,response,,,,13,B,,,,,,Space,keypress(Space),,,,lyrical,,,,-------- -------- --- --- ---- --- --- ------ -- --------<br>---- --------- --- ------- ------------ ---------- ---------<br>--- ---------- ------- ---------- ------- -- -------- ----<br>---- --- ------ ----- ------ -- ---- --- House -- - -------<br>-------- -- --- --- -- ----- ----------- ----- -----------<br>---- --- ---------- --- ---- --- -- ----------,266478.9049999672,266477.87000000244,266019.71,266029.2100000079,266036.366,266485.765,,33,House
screen,html.Screen,1_3_1_0_1_34,2021-04-12T18:48:44.794Z,,,,,,,,,,,,,,,,51,,,,,,,,,,,,,,427.1600000114413,,response,,,,13,B,,,,,,Space,keypress(Space),,,,lyrical,,,,-------- -------- --- --- ---- --- --- ------ -- --------<br>---- --------- --- ------- ------------ ---------- ---------<br>--- ---------- ------- ---------- ------- -- -------- ----<br>---- --- ------ ----- ------ -- ---- --- ----- in - -------<br>-------- -- --- --- -- ----- ----------- ----- -----------<br>---- --- ---------- --- ---- --- -- ----------,266913.8050000183,266912.92500001146,266469.319,266479.0899999789,266485.765,266918.725,,34,in
screen,html.Screen,1_3_1_0_1_35,2021-04-12T18:48:45.249Z,,,,,,,,,,,,,,,,51,,,,,,,,,,,,,,448.43500002345536,,response,,,,13,B,,,,,,Space,keypress(Space),,,,lyrical,,,,-------- -------- --- --- ---- --- --- ------ -- --------<br>---- --------- --- ------- ------------ ---------- ---------<br>--- ---------- ------- ---------- ------- -- -------- ----<br>---- --- ------ ----- ------ -- ---- --- ----- -- a -------<br>-------- -- --- --- -- ----- ----------- ----- -----------<br>---- --- ---------- --- ---- --- -- ----------,267368.3350000065,267367.16000002343,266902.025,266913.9149999828,266918.725,267384.927,,35,a
screen,html.Screen,1_3_1_0_1_36,2021-04-12T18:48:45.777Z,,,,,,,,,,,,,,,,51,,,,,,,,,,,,,,510.6179999775486,,response,,,,13,B,,,,,,Space,keypress(Space),,,,lyrical,,,,-------- -------- --- --- ---- --- --- ------ -- --------<br>---- --------- --- ------- ------------ ---------- ---------<br>--- ---------- ------- ---------- ------- -- -------- ----<br>---- --- ------ ----- ------ -- ---- --- ----- -- - massive<br>-------- -- --- --- -- ----- ----------- ----- -----------<br>---- --- ---------- --- ---- --- -- ----------,267896.6900000232,267895.5449999776,267368.472,267368.41499997536,267384.927,267900.9,,36,massive
screen,html.Screen,1_3_1_0_1_37,2021-04-12T18:48:46.222Z,,,,,,,,,,,,,,,,51,,,,,,,,,,,,,,439.34499997028615,,response,,,,13,B,,,,,,Space,keypress(Space),,,,lyrical,,,,-------- -------- --- --- ---- --- --- ------ -- --------<br>---- --------- --- ------- ------------ ---------- ---------<br>--- ---------- ------- ---------- ------- -- -------- ----<br>---- --- ------ ----- ------ -- ---- --- ----- -- - -------<br>overhaul -- --- --- -- ----- ----------- ----- -----------<br>---- --- ---------- --- ---- --- -- ----------,268341.23000002,268340.2449999703,267884.398,267896.76500001224,267900.9,268350.445,,37,overhaul
