sender,sender_type,sender_id,timestamp,meta,,Blues,Classical,Country,Dance,Electronic,Folk,Gospel,Hip-Hop,Jazz,Latin,Musical/Film,New-age,Pop,Provo_ID,R&B,Rap,Reggae,Religious,Rock,Soul,Swing,Traditional,age,artist_name,correct,correctResponse,distraction,duration,education,ended_on,familiarity,gender,headphone_check_performance,item,list,music_frequency,offensiveness,pleasantness,position_correct,preference,response,response_action,snippet_file,song_name,song_rating,sound,stimulus_1,stimulus_2,stimulus_3,text,time_commit,time_end,time_render,time_run,time_show,time_switch,url,word,word_ID
Introduction,html.Screen,0_0,2021-04-18T16:39:25.140Z,"{""labjs_version"":""20.2.2"",""labjs_build"":{""flavor"":""production"",""commit"":""a25486e0c714a0ae2ce03ff94b7bb6896854dcfa""},""location"":""https://run.pavlovia.org/mvasilev/music_d/"",""userAgent"":""Mozilla/5.0 (Windows NT 10.0; Win64; x64) AppleWebKit/537.36 (KHTML, like Gecko) Chrome/89.0.4389.128 Safari/537.36 Edg/89.0.774.77"",""platform"":""Win32"",""language"":""en-GB"",""locale"":""en-GB"",""timeZone"":""Europe/London"",""timezoneOffset"":-60,""screen_width"":1536,""screen_height"":864,""scroll_width"":1536,""scroll_height"":706,""window_innerWidth"":1536,""window_innerHeight"":754,""devicePixelRatio"":1.25}",,,,,,,,,,,,,,,,,,,,,,,,,,,,,5368.120000081808,,response,,,,,,,,,,,continue,click button,,,,,,,,,20820.635000010952,20783.340000081807,15347.882,15355.880000046454,15415.22,20833.889,{},,
Volume calibration,html.Screen,0_1,2021-04-18T16:39:39.113Z,,,,,,,,,,,,,,,,,,,,,,,,,,,,,,13952.29100005372,,response,,,,,,,,,,,continue,click button,,,,,,,,,34793.07500005234,34786.18000005372,20783.902,20825.935000088066,20833.889,34789.079,,,
Task instructions,html.Screen,0_2,2021-04-18T16:39:47.276Z,,,,,,,,,,,,,,,,,,,,,,,,,,,,,,8165.8460000854975,,response,,,,,,,,,,,continue,click button,,,,,,,,,42956.235000048764,42954.925000085495,34772.668,34793.42500003986,34789.079,42958.835,,,
Sounds,html.Screen,0_3_0_0,2021-04-18T16:39:51.518Z,,,,,,,,,,,,,,,,,,,,,,,,,,,,,,4251.480000000003,,timeout,,,,,,,,,3,,,,,,,,O,I,S,,47197.96000001952,47194,42942.366,42956.6750000231,42958.835,47210.315,,,
Judgement,html.Screen,0_3_0_1,2021-04-18T16:39:58.215Z,,,,,,,,,,,,,,,,,,,,,,,,,,,false,3,,6683.095000018773,,response,,,,,,,,,3,,2,click #choice-2,,,,,O,I,S,,53894.85500007868,53893.410000018775,47194,47198.45000002533,47210.315,53896.116,,,
Trial,flow.Sequence,0_3_0,2021-04-18T16:39:58.218Z,,,,,,,,,,,,,,,,,,,,,,,,,,,,,,10934.575000018776,,completion,,,,,,,,,3,,,,,,,,O,I,S,,53898.31499999855,53893.410000018775,42942.366,42956.575000076555,42958.835,53896.116,,,
Sounds,html.Screen,0_3_1_0,2021-04-18T16:40:02.460Z,,,,,,,,,,,,,,,,,,,,,,,,,,,,,,4251.693999999996,,timeout,,,,,,,,,1,,,,,,,,S,I,O,,58139.87000007182,58131.029,53879.914,53898.700000019744,53896.116,58147.81,,,
Judgement,html.Screen,0_3_1_1,2021-04-18T16:40:04.292Z,,,,,,,,,,,,,,,,,,,,,,,,,,,true,1,,1823.285000044445,,response,,,,,,,,,1,,1,click #choice-1,,,,,S,I,O,,59972.55499998573,59971.09500004444,58131.029,58140.11999999639,58147.81,59981.706,,,
Trial,flow.Sequence,0_3_1,2021-04-18T16:40:04.293Z,,,,,,,,,,,,,,,,,,,,,,,,,,,,,,6074.979000044441,,completion,,,,,,,,,1,,,,,,,,S,I,O,,59972.92000008747,59971.09500004444,53879.914,53898.61000003293,53896.116,59981.706,,,
Sounds,html.Screen,0_3_2_0,2021-04-18T16:40:08.546Z,,,,,,,,,,,,,,,,,,,,,,,,,,,,,,4251.623,,timeout,,,,,,,,,2,,,,,,,,I,S,O,,64221.39000007883,64216.682,59965.085,59973.19000004791,59981.706,64233.329,,,
Judgement,html.Screen,0_3_2_1,2021-04-18T16:40:09.290Z,,,,,,,,,,,,,,,,,,,,,,,,,,,true,2,,730.5010000224283,,response,,,,,,,,,2,,2,click #choice-2,,,,,I,S,O,,64965.21500009112,64963.830000022426,64216.682,64221.79500001948,64233.329,64966.924,,,
Trial,flow.Sequence,0_3_2,2021-04-18T16:40:09.290Z,,,,,,,,,,,,,,,,,,,,,,,,,,,,,,4982.124000022428,,completion,,,,,,,,,2,,,,,,,,I,S,O,,64965.545000042766,64963.830000022426,59965.085,59973.110000020824,59981.706,64966.924,,,
Sounds,html.Screen,0_3_3_0,2021-04-18T16:40:13.530Z,,,,,,,,,,,,,,,,,,,,,,,,,,,,,,4253.016000000003,,timeout,,,,,,,,,1,,,,,,,,S,O,I,,69205.31500002835,69201.888,64950.499,64965.8000000054,64966.924,69219.94,,,
Judgement,html.Screen,0_3_3_1,2021-04-18T16:40:14.109Z,,,,,,,,,,,,,,,,,,,,,,,,,,,true,1,,563.7150000356487,,response,,,,,,,,,1,,1,click #choice-1,,,,,S,O,I,,69784.95500003919,69783.65500003565,69201.888,69205.53000003565,69219.94,69809.991,,,
Trial,flow.Sequence,0_3_3,2021-04-18T16:40:14.110Z,,,,,,,,,,,,,,,,,,,,,,,,,,,,,,4816.731000035652,,completion,,,,,,,,,1,,,,,,,,S,O,I,,69785.34500009846,69783.65500003565,64950.499,64965.71500005666,64966.924,69809.991,,,
Sounds,html.Screen,0_3_4_0,2021-04-18T16:40:18.362Z,,,,,,,,,,,,,,,,,,,,,,,,,,,,,,4243.619000000006,,timeout,,,,,,,,,3,,,,,,,,I,O,S,,74037.94499998912,74036.97,69769.123,69785.58000002522,69809.991,74053.61,,,
Judgement,html.Screen,0_3_4_1,2021-04-18T16:40:18.937Z,,,,,,,,,,,,,,,,,,,,,,,,,,,true,3,,557.5050000942865,,response,,,,,,,,,3,,3,click #choice-3,,,,,I,O,S,,74613.0000000121,74611.11500009429,74036.97,74038.14499999862,74053.61,74620.476,,,
Trial,flow.Sequence,0_3_4,2021-04-18T16:40:18.938Z,,,,,,,,,,,,,,,,,,,,,,,,,,,,,,4801.124000094293,,completion,,,,,,,,,3,,,,,,,,I,O,S,,74613.31500008237,74611.11500009429,69769.123,69785.51000007428,69809.991,74620.476,,,
Sounds,html.Screen,0_3_5_0,2021-04-18T16:40:23.182Z,,,,,,,,,,,,,,,,,,,,,,,,,,,,,,4251.690000000002,,timeout,,,,,,,,,2,,,,,,,,O,S,I,,78857.19000000972,78856.054,74603.831,74613.5400000494,74620.476,78872.166,,,
Judgement,html.Screen,0_3_5_1,2021-04-18T16:40:23.556Z,,,,,,,,,,,,,,,,,,,,,,,,,,,true,2,,358.3990000926133,,response,,,,,,,,,2,,2,click #choice-2,,,,,O,S,I,,79231.84500006028,79230.56500009261,78856.054,78857.40500001702,78872.166,79238.903,,,
Trial,flow.Sequence,0_3_5,2021-04-18T16:40:23.557Z,,,,,,,,,,,,,,,,,,,,,,,,,,,,,,4610.089000092616,,completion,,,,,,,,,2,,,,,,,,O,S,I,,79232.16000001412,79230.56500009261,74603.831,74613.47500002012,74620.476,79238.903,,,
Task,flow.Loop,0_3,2021-04-18T16:40:23.570Z,,,,,,,,,,,,,,,,,,,,,,,,,,,,,,36271.73000009261,,completion,,,0.8333333333333334,,,,,,,,,,,,,,,,,,79245.2550000744,79230.56500009261,42942.366,42956.4750000136,42958.835,79238.903,,,
Trap,html.Screen,0_4,2021-04-18T16:40:23.573Z,,,,,,,,,,,,,,,,,,,,,,,,,,,,,,NaN,,skipped,,,,,,,,,,,,,,,,,,,,,79248.87500004843,79230.56500009261,,79248.6500000814,,79238.903,,,
Thanks,html.Screen,0_5,2021-04-18T16:40:26.554Z,,,,,,,,,,,,,,,,,,,,,,,,,,,,,,2988.941999986695,,response,,,,,,,,,,,continue,click button,,,,,,,,,82229.30000000633,82227.8449999867,79222.519,79249.080000096,79238.903,85624.596,,,
Headphone screening,flow.Sequence,0,2021-04-18T16:40:26.554Z,,,,,,,,,,,,,,,,,,,,,,,,,,,,,,66812.6249999867,,completion,,,,,,,,,,,,,,,,,,,,,82229.77000009269,82227.8449999867,15347.882,15355.77500006184,15415.22,85624.596,,,
Instructions,html.Page,1_0,2021-04-18T16:40:38.740Z,,,,,,,,,,,,,,,,,,,,,,,,,,,,,,8790.109000002863,,form submission,,,,,,,,,,,,,,,,,,,,,94415.22000008263,94414.70500000287,85591.253,85617.00500000734,85624.596,94411.145,,,
Holding screen,html.Screen,1_1_0_0,2021-04-18T16:40:48.724Z,,,,,,,,,,,,,,,,,,,,,,,,,,,,,,10020.391999999993,,timeout,,,,,,,,,,,,,,,,,,,,,104399.48500005994,104398.639,94394.426,94415.64000002109,94411.145,104431.537,,,
screen,html.Screen,1_1_0_1_0,2021-04-18T16:40:51.167Z,,,,,,,,,,,,,,,,53,,,,,,,,,,,,,,2406.0730000459735,,response,,,,99,,,,,,,Space,keypress(Space),,,,,,,,When -- ----- -- ------ - ------- --- ----------<br>------------- ------ ------ ---- ---- ------- ----- -- ----<br>-------- ------- -- ---------- --- - --- ----- ----- ----<br>---- --- --- ----- --- ---- ---- ------- ----- ---- -------<br>--- --- -- ----- -- --- ---- -- --- ---- -- ------ ------<br>--- ----- -- ----,106842.14000008069,106837.61000004597,104398.639,104399.80000001378,104431.537,106849.208,,0,When
screen,html.Screen,1_1_0_1_1,2021-04-18T16:40:51.728Z,,,,,,,,,,,,,,,,53,,,,,,,,,,,,,,553.3270000010816,,response,,,,99,,,,,,,Space,keypress(Space),,,,,,,,---- it ----- -- ------ - ------- --- ----------<br>------------- ------ ------ ---- ---- ------- ----- -- ----<br>-------- ------- -- ---------- --- - --- ----- ----- ----<br>---- --- --- ----- --- ---- ---- ------- ----- ---- -------<br>--- --- -- ----- -- --- ---- -- --- ---- -- ------ ------<br>--- ----- -- ----,107403.40499999002,107402.53500000108,106831.74,106842.4150000792,106849.208,107415.955,,1,it
screen,html.Screen,1_1_0_1_2,2021-04-18T16:40:52.191Z,,,,,,,,,,,,,,,,53,,,,,,,,,,,,,,448.875000093205,,response,,,,99,,,,,,,Space,keypress(Space),,,,,,,,---- -- comes -- ------ - ------- --- ----------<br>------------- ------ ------ ---- ---- ------- ----- -- ----<br>-------- ------- -- ---------- --- - --- ----- ----- ----<br>---- --- --- ----- --- ---- ---- ------- ----- ---- -------<br>--- --- -- ----- -- --- ---- -- --- ---- -- ------ ------<br>--- ----- -- ----,107866.11000006087,107864.8300000932,107399.067,107403.61999999732,107415.955,107882.821,,2,comes
screen,html.Screen,1_1_0_1_3,2021-04-18T16:40:52.650Z,,,,,,,,,,,,,,,,53,,,,,,,,,,,,,,442.2940000141971,,response,,,,99,,,,,,,Space,keypress(Space),,,,,,,,---- -- ----- to ------ - ------- --- ----------<br>------------- ------ ------ ---- ---- ------- ----- -- ----<br>-------- ------- -- ---------- --- - --- ----- ----- ----<br>---- --- --- ----- --- ---- ---- ------- ----- ---- -------<br>--- --- -- ----- -- --- ---- -- --- ---- -- ------ ------<br>--- ----- -- ----,108326.07499998994,108325.1150000142,107865.99,107866.3500000257,107882.821,108332.999,,3,to
screen,html.Screen,1_1_0_1_4,2021-04-18T16:40:53.061Z,,,,,,,,,,,,,,,,53,,,,,,,,,,,,,,402.2110000716784,,response,,,,99,,,,,,,Space,keypress(Space),,,,,,,,---- -- ----- -- having - ------- --- ----------<br>------------- ------ ------ ---- ---- ------- ----- -- ----<br>-------- ------- -- ---------- --- - --- ----- ----- ----<br>---- --- --- ----- --- ---- ---- ------- ----- ---- -------<br>--- --- -- ----- -- --- ---- -- --- ---- -- ------ ------<br>--- ----- -- ----,108736.31499998737,108735.21000007167,108316.14,108326.30000007339,108332.999,108749.766,,4,having
screen,html.Screen,1_1_0_1_5,2021-04-18T16:40:53.447Z,,,,,,,,,,,,,,,,53,,,,,,,,,,,,,,371.4440000120667,,response,,,,99,,,,,,,Space,keypress(Space),,,,,,,,---- -- ----- -- ------ a ------- --- ----------<br>------------- ------ ------ ---- ---- ------- ----- -- ----<br>-------- ------- -- ---------- --- - --- ----- ----- ----<br>---- --- --- ----- --- ---- ---- ------- ----- ---- -------<br>--- --- -- ----- -- --- ---- -- --- ---- -- ------ ------<br>--- ----- -- ----,109122.27500008885,109121.21000001207,108732.973,108743.20000002626,108749.766,109133.273,,5,a
screen,html.Screen,1_1_0_1_6,2021-04-18T16:40:53.882Z,,,,,,,,,,,,,,,,53,,,,,,,,,,,,,,423.7020000722696,,response,,,,99,,,,,,,Space,keypress(Space),,,,,,,,---- -- ----- -- ------ - lasting --- ----------<br>------------- ------ ------ ---- ---- ------- ----- -- ----<br>-------- ------- -- ---------- --- - --- ----- ----- ----<br>---- --- --- ----- --- ---- ---- ------- ----- ---- -------<br>--- --- -- ----- -- --- ---- -- --- ---- -- ------ ------<br>--- ----- -- ----,109558.05500003044,109556.97500007227,109116.522,109122.48500005808,109133.273,109566.908,,6,lasting
screen,html.Screen,1_1_0_1_7,2021-04-18T16:40:54.286Z,,,,,,,,,,,,,,,,53,,,,,,,,,,,,,,393.62200004031183,,response,,,,99,,,,,,,Space,keypress(Space),,,,,,,,---- -- ----- -- ------ - ------- and ----------<br>------------- ------ ------ ---- ---- ------- ----- -- ----<br>-------- ------- -- ---------- --- - --- ----- ----- ----<br>---- --- --- ----- --- ---- ---- ------- ----- ---- -------<br>--- --- -- ----- -- --- ---- -- --- ---- -- ------ ------<br>--- ----- -- ----,109961.64500003215,109960.53000004031,109550.404,109558.26499999966,109566.908,109967.042,,7,and
screen,html.Screen,1_1_0_1_8,2021-04-18T16:40:54.801Z,,,,,,,,,,,,,,,,53,,,,,,,,,,,,,,508.3879999913188,,response,,,,99,,,,,,,Space,keypress(Space),,,,,,,,---- -- ----- -- ------ - ------- --- fulfilling<br>------------- ------ ------ ---- ---- ------- ----- -- ----<br>-------- ------- -- ---------- --- - --- ----- ----- ----<br>---- --- --- ----- --- ---- ---- ------- ----- ---- -------<br>--- --- -- ----- -- --- ---- -- --- ---- -- ------ ------<br>--- ----- -- ----,110476.51499998756,110475.42999999132,109950.203,109961.85500000138,109967.042,110483.778,,8,fulfilling
screen,html.Screen,1_1_0_1_9,2021-04-18T16:40:55.270Z,,,,,,,,,,,,,,,,53,,,,,,,,,,,,,,460.4270000652614,,response,,,,99,,,,,,,Space,keypress(Space),,,,,,,,"---- -- ----- -- ------ - ------- --- ----------<br>relationship, ------ ------ ---- ---- ------- ----- -- ----<br>-------- ------- -- ---------- --- - --- ----- ----- ----<br>---- --- --- ----- --- ---- ---- ------- ----- ---- -------<br>--- --- -- ----- -- --- ---- -- --- ---- -- ------ ------<br>--- ----- -- ----",110945.3050000593,110944.20500006527,110466.91,110476.7250000732,110483.778,110950.603,,9,"relationship,"
screen,html.Screen,1_1_0_1_10,2021-04-18T16:40:55.669Z,,,,,,,,,,,,,,,,53,,,,,,,,,,,,,,393.15700007614214,,response,,,,99,,,,,,,Space,keypress(Space),,,,,,,,---- -- ----- -- ------ - ------- --- ----------<br>------------- common ------ ---- ---- ------- ----- -- ----<br>-------- ------- -- ---------- --- - --- ----- ----- ----<br>---- --- --- ----- --- ---- ---- ------- ----- ---- -------<br>--- --- -- ----- -- --- ---- -- --- ---- -- ------ ------<br>--- ----- -- ----,111344.86000007018,111343.76000007614,110933.688,110945.50999999046,110950.603,111350.767,,10,common
screen,html.Screen,1_1_0_1_11,2021-04-18T16:40:56.084Z,,,,,,,,,,,,,,,,53,,,,,,,,,,,,,,408.1730000870157,,response,,,,99,,,,,,,Space,keypress(Space),,,,,,,,---- -- ----- -- ------ - ------- --- ----------<br>------------- ------ wisdom ---- ---- ------- ----- -- ----<br>-------- ------- -- ---------- --- - --- ----- ----- ----<br>---- --- --- ----- --- ---- ---- ------- ----- ---- -------<br>--- --- -- ----- -- --- ---- -- --- ---- -- ------ ------<br>--- ----- -- ----,111759.77500004228,111758.94000008702,111334.248,111345.06500000134,111350.767,111767.585,,11,wisdom
screen,html.Screen,1_1_0_1_12,2021-04-18T16:40:56.506Z,,,,,,,,,,,,,,,,53,,,,,,,,,,,,,,412.70000000945583,,response,,,,99,,,,,,,Space,keypress(Space),,,,,,,,---- -- ----- -- ------ - ------- --- ----------<br>------------- ------ ------ says ---- ------- ----- -- ----<br>-------- ------- -- ---------- --- - --- ----- ----- ----<br>---- --- --- ----- --- ---- ---- ------- ----- ---- -------<br>--- --- -- ----- -- --- ---- -- --- ---- -- ------ ------<br>--- ----- -- ----,112181.3850000035,112180.28500000946,111750.769,111759.98000008985,111767.585,112184.377,,12,says
screen,html.Screen,1_1_0_1_13,2021-04-18T16:40:56.884Z,,,,,,,,,,,,,,,,53,,,,,,,,,,,,,,373.82300008680613,,response,,,,99,,,,,,,Space,keypress(Space),,,,,,,,---- -- ----- -- ------ - ------- --- ----------<br>------------- ------ ------ ---- that ------- ----- -- ----<br>-------- ------- -- ---------- --- - --- ----- ----- ----<br>---- --- --- ----- --- ---- ---- ------- ----- ---- -------<br>--- --- -- ----- -- --- ---- -- --- ---- -- ------ ------<br>--- ----- -- ----,112559.31500007864,112558.2000000868,112167.862,112181.65000004228,112184.377,112567.894,,13,that
screen,html.Screen,1_1_0_1_14,2021-04-18T16:40:57.329Z,,,,,,,,,,,,,,,,53,,,,,,,,,,,,,,436.08099999962724,,response,,,,99,,,,,,,Space,keypress(Space),,,,,,,,---- -- ----- -- ------ - ------- --- ----------<br>------------- ------ ------ ---- ---- feeling ----- -- ----<br>-------- ------- -- ---------- --- - --- ----- ----- ----<br>---- --- --- ----- --- ---- ---- ------- ----- ---- -------<br>--- --- -- ----- -- --- ---- -- --- ---- -- ------ ------<br>--- ----- -- ----,113005.06500003394,113003.97499999963,112551.345,112559.53000008594,112567.894,113018.36,,14,feeling
screen,html.Screen,1_1_0_1_15,2021-04-18T16:40:57.709Z,,,,,,,,,,,,,,,,53,,,,,,,,,,,,,,364.86499999776424,,response,,,,99,,,,,,,Space,keypress(Space),,,,,,,,---- -- ----- -- ------ - ------- --- ----------<br>------------- ------ ------ ---- ---- ------- close -- ----<br>-------- ------- -- ---------- --- - --- ----- ----- ----<br>---- --- --- ----- --- ---- ---- ------- ----- ---- -------<br>--- --- -- ----- -- --- ---- -- --- ---- -- ------ ------<br>--- ----- -- ----,113384.4500000123,113383.22499999776,113004.295,113005.28500007931,113018.36,113401.55,,15,close
screen,html.Screen,1_1_0_1_16,2021-04-18T16:40:58.079Z,,,,,,,,,,,,,,,,53,,,,,,,,,,,,,,351.68500006925024,,response,,,,99,,,,,,,Space,keypress(Space),,,,,,,,---- -- ----- -- ------ - ------- --- ----------<br>------------- ------ ------ ---- ---- ------- ----- to ----<br>-------- ------- -- ---------- --- - --- ----- ----- ----<br>---- --- --- ----- --- ---- ---- ------- ----- ---- -------<br>--- --- -- ----- -- --- ---- -- --- ---- -- ------ ------<br>--- ----- -- ----,113754.3500000611,113753.23500006925,113384.762,113384.66000009794,113401.55,113768.349,,16,to
screen,html.Screen,1_1_0_1_17,2021-04-18T16:40:58.430Z,,,,,,,,,,,,,,,,53,,,,,,,,,,,,,,335.70100008176814,,response,,,,99,,,,,,,Space,keypress(Space),,,,,,,,---- -- ----- -- ------ - ------- --- ----------<br>------------- ------ ------ ---- ---- ------- ----- -- your<br>-------- ------- -- ---------- --- - --- ----- ----- ----<br>---- --- --- ----- --- ---- ---- ------- ----- ---- -------<br>--- --- -- ----- -- --- ---- -- --- ---- -- ------ ------<br>--- ----- -- ----,114105.13000003994,114104.05000008177,113751.969,113754.56999999005,113768.349,114118.763,,17,your
screen,html.Screen,1_1_0_1_18,2021-04-18T16:40:58.769Z,,,,,,,,,,,,,,,,53,,,,,,,,,,,,,,324.2770000419405,,response,,,,99,,,,,,,Space,keypress(Space),,,,,,,,---- -- ----- -- ------ - ------- --- ----------<br>------------- ------ ------ ---- ---- ------- ----- -- ----<br>romantic ------- -- ---------- --- - --- ----- ----- ----<br>---- --- --- ----- --- ---- ---- ------- ----- ---- -------<br>--- --- -- ----- -- --- ---- -- --- ---- -- ------ ------<br>--- ----- -- ----,114444.13499999791,114443.04000004195,114103.548,114105.34500004724,114118.763,114452.248,,18,romantic
screen,html.Screen,1_1_0_1_19,2021-04-18T16:40:59.156Z,,,,,,,,,,,,,,,,53,,,,,,,,,,,,,,377.99700007740466,,response,,,,99,,,,,,,Space,keypress(Space),,,,,,,,---- -- ----- -- ------ - ------- --- ----------<br>------------- ------ ------ ---- ---- ------- ----- -- ----<br>-------- partner -- ---------- --- - --- ----- ----- ----<br>---- --- --- ----- --- ---- ---- ------- ----- ---- -------<br>--- --- -- ----- -- --- ---- -- --- ---- -- ------ ------<br>--- ----- -- ----,114831.34000003338,114830.24500007741,114435.49,114444.35000000522,114452.248,114835.794,,19,partner
screen,html.Screen,1_1_0_1_20,2021-04-18T16:40:59.476Z,,,,,,,,,,,,,,,,53,,,,,,,,,,,,,,314.6609999954235,,response,,,,99,,,,,,,Space,keypress(Space),,,,,,,,---- -- ----- -- ------ - ------- --- ----------<br>------------- ------ ------ ---- ---- ------- ----- -- ----<br>-------- ------- is ---------- --- - --- ----- ----- ----<br>---- --- --- ----- --- ---- ---- ------- ----- ---- -------<br>--- --- -- ----- -- --- ---- -- --- ---- -- ------ ------<br>--- ----- -- ----,115151.3200000627,115150.45499999542,114818.649,114831.55500004068,114835.794,115168.845,,20,is
screen,html.Screen,1_1_0_1_21,2021-04-18T16:40:59.829Z,,,,,,,,,,,,,,,,53,,,,,,,,,,,,,,334.1750000619504,,response,,,,99,,,,,,,Space,keypress(Space),,,,,,,,---- -- ----- -- ------ - ------- --- ----------<br>------------- ------ ------ ---- ---- ------- ----- -- ----<br>-------- ------- -- paramount. --- - --- ----- ----- ----<br>---- --- --- ----- --- ---- ---- ------- ----- ---- -------<br>--- --- -- ----- -- --- ---- -- --- ---- -- ------ ------<br>--- ----- -- ----,115504.17000008747,115503.02000006195,115135.421,115151.53000003193,115168.845,115519.032,,21,paramount.
screen,html.Screen,1_1_0_1_22,2021-04-18T16:41:00.218Z,,,,,,,,,,,,,,,,53,,,,,,,,,,,,,,373.18800003791694,,response,,,,99,,,,,,,Space,keypress(Space),,,,,,,,---- -- ----- -- ------ - ------- --- ----------<br>------------- ------ ------ ---- ---- ------- ----- -- ----<br>-------- ------- -- ---------- But - --- ----- ----- ----<br>---- --- --- ----- --- ---- ---- ------- ----- ---- -------<br>--- --- -- ----- -- --- ---- -- --- ---- -- ------ ------<br>--- ----- -- ----,115893.3599999873,115892.22000003792,115502.209,115504.38500009477,115519.032,115902.731,,22,But
screen,html.Screen,1_1_0_1_23,2021-04-18T16:41:00.608Z,,,,,,,,,,,,,,,,53,,,,,,,,,,,,,,379.5040000496956,,response,,,,99,,,,,,,Space,keypress(Space),,,,,,,,---- -- ----- -- ------ - ------- --- ----------<br>------------- ------ ------ ---- ---- ------- ----- -- ----<br>-------- ------- -- ---------- --- a --- ----- ----- ----<br>---- --- --- ----- --- ---- ---- ------- ----- ---- -------<br>--- --- -- ----- -- --- ---- -- --- ---- -- ------ ------<br>--- ----- -- ----,116283.33000000566,116282.2350000497,115885.613,115893.56500003487,115902.731,116285.888,,23,a
screen,html.Screen,1_1_0_1_24,2021-04-18T16:41:00.959Z,,,,,,,,,,,,,,,,53,,,,,,,,,,,,,,347.4070000651118,,response,,,,99,,,,,,,Space,keypress(Space),,,,,,,,---- -- ----- -- ------ - ------- --- ----------<br>------------- ------ ------ ---- ---- ------- ----- -- ----<br>-------- ------- -- ---------- --- - new ----- ----- ----<br>---- --- --- ----- --- ---- ---- ------- ----- ---- -------<br>--- --- -- ----- -- --- ---- -- --- ---- -- ------ ------<br>--- ----- -- ----,116634.40000009723,116633.29500006512,116269.172,116283.5400000913,116285.888,116661.355,,24,new
screen,html.Screen,1_1_0_1_25,2021-04-18T16:41:01.300Z,,,,,,,,,,,,,,,,53,,,,,,,,,,,,,,312.5050000273477,,response,,,,99,,,,,,,Space,keypress(Space),,,,,,,,---- -- ----- -- ------ - ------- --- ----------<br>------------- ------ ------ ---- ---- ------- ----- -- ----<br>-------- ------- -- ---------- --- - --- study ----- ----<br>---- --- --- ----- --- ---- ---- ------- ----- ---- -------<br>--- --- -- ----- -- --- ---- -- --- ---- -- ------ ------<br>--- ----- -- ----,116975.3100000089,116973.86000002734,116619.531,116634.68500005547,116661.355,116986.475,,25,study
screen,html.Screen,1_1_0_1_26,2021-04-18T16:41:01.651Z,,,,,,,,,,,,,,,,53,,,,,,,,,,,,,,338.64500005226,,response,,,,99,,,,,,,Space,keypress(Space),,,,,,,,---- -- ----- -- ------ - ------- --- ----------<br>------------- ------ ------ ---- ---- ------- ----- -- ----<br>-------- ------- -- ---------- --- - --- ----- finds ----<br>---- --- --- ----- --- ---- ---- ------- ----- ---- -------<br>--- --- -- ----- -- --- ---- -- --- ---- -- ------ ------<br>--- ----- -- ----,117326.47000008728,117325.12000005227,116969.666,116975.53000005428,116986.475,117336.311,,26,finds
screen,html.Screen,1_1_0_1_27,2021-04-18T16:41:02.103Z,,,,,,,,,,,,,,,,53,,,,,,,,,,,,,,441.6240000200778,,response,,,,99,,,,,,,Space,keypress(Space),,,,,,,,---- -- ----- -- ------ - ------- --- ----------<br>------------- ------ ------ ---- ---- ------- ----- -- ----<br>-------- ------- -- ---------- --- - --- ----- ----- that<br>---- --- --- ----- --- ---- ---- ------- ----- ---- -------<br>--- --- -- ----- -- --- ---- -- --- ---- -- ------ ------<br>--- ----- -- ----,117779.02500005439,117777.93500002008,117319.974,117326.68000005651,117336.311,117786.427,,27,that
screen,html.Screen,1_1_0_1_28,2021-04-18T16:41:02.591Z,,,,,,,,,,,,,,,,53,,,,,,,,,,,,,,478.8580000886286,,response,,,,99,,,,,,,Space,keypress(Space),,,,,,,,---- -- ----- -- ------ - ------- --- ----------<br>------------- ------ ------ ---- ---- ------- ----- -- ----<br>-------- ------- -- ---------- --- - --- ----- ----- ----<br>it's --- --- ----- --- ---- ---- ------- ----- ---- -------<br>--- --- -- ----- -- --- ---- -- --- ---- -- ------ ------<br>--- ----- -- ----,118266.37500000652,118265.28500008862,117769.686,117779.23500002362,117786.427,118269.983,,28,it's
screen,html.Screen,1_1_0_1_29,2021-04-18T16:41:03.009Z,,,,,,,,,,,,,,,,53,,,,,,,,,,,,,,412.852000101484,,response,,,,99,,,,,,,Space,keypress(Space),,,,,,,,---- -- ----- -- ------ - ------- --- ----------<br>------------- ------ ------ ---- ---- ------- ----- -- ----<br>-------- ------- -- ---------- --- - --- ----- ----- ----<br>---- not --- ----- --- ---- ---- ------- ----- ---- -------<br>--- --- -- ----- -- --- ---- -- --- ---- -- ------ ------<br>--- ----- -- ----,118684.19000005815,118682.83500010148,118253.6,118266.58500009216,118269.983,118686.78,,29,not
screen,html.Screen,1_1_0_1_30,2021-04-18T16:41:03.422Z,,,,,,,,,,,,,,,,53,,,,,,,,,,,,,,409.1050000752148,,response,,,,99,,,,,,,Space,keypress(Space),,,,,,,,---- -- ----- -- ------ - ------- --- ----------<br>------------- ------ ------ ---- ---- ------- ----- -- ----<br>-------- ------- -- ---------- --- - --- ----- ----- ----<br>---- --- how ----- --- ---- ---- ------- ----- ---- -------<br>--- --- -- ----- -- --- ---- -- --- ---- -- ------ ------<br>--- ----- -- ----,119097.21500007436,119095.88500007521,118670.018,118684.40000002738,118686.78,119103.575,,30,how
screen,html.Screen,1_1_0_1_31,2021-04-18T16:41:04.164Z,,,,,,,,,,,,,,,,53,,,,,,,,,,,,,,735.3850000809907,,response,,,,99,,,,,,,Space,keypress(Space),,,,,,,,---- -- ----- -- ------ - ------- --- ----------<br>------------- ------ ------ ---- ---- ------- ----- -- ----<br>-------- ------- -- ---------- --- - --- ----- ----- ----<br>---- --- --- close --- ---- ---- ------- ----- ---- -------<br>--- --- -- ----- -- --- ---- -- --- ---- -- ------ ------<br>--- ----- -- ----,119840.06499999668,119838.96000008099,119087.298,119097.41500008386,119103.575,119854.204,,31,close
screen,html.Screen,1_1_0_1_32,2021-04-18T16:41:04.769Z,,,,,,,,,,,,,,,,53,,,,,,,,,,,,,,589.3810000008962,,response,,,,99,,,,,,,Space,keypress(Space),,,,,,,,---- -- ----- -- ------ - ------- --- ----------<br>------------- ------ ------ ---- ---- ------- ----- -- ----<br>-------- ------- -- ---------- --- - --- ----- ----- ----<br>---- --- --- ----- you ---- ---- ------- ----- ---- -------<br>--- --- -- ----- -- --- ---- -- --- ---- -- ------ ------<br>--- ----- -- ----,120444.32500004768,120443.5850000009,119837.402,119840.26000008453,119854.204,120454.077,,32,you
screen,html.Screen,1_1_0_1_33,2021-04-18T16:41:05.381Z,,,,,,,,,,,,,,,,53,,,,,,,,,,,,,,601.7730000042793,,response,,,,99,,,,,,,Space,keypress(Space),,,,,,,,---- -- ----- -- ------ - ------- --- ----------<br>------------- ------ ------ ---- ---- ------- ----- -- ----<br>-------- ------- -- ---------- --- - --- ----- ----- ----<br>---- --- --- ----- --- feel ---- ------- ----- ---- -------<br>--- --- -- ----- -- --- ---- -- --- ---- -- ------ ------<br>--- ----- -- ----,121056.9400000386,121055.85000000428,120437.931,120444.52500005718,120454.077,121071.358,,33,feel
screen,html.Screen,1_1_0_1_34,2021-04-18T16:41:06.782Z,,,,,,,,,,,,,,,,53,,,,,,,,,,,,,,1381.4820000417676,,response,,,,99,,,,,,,Space,keypress(Space),,,,,,,,---- -- ----- -- ------ - ------- --- ----------<br>------------- ------ ------ ---- ---- ------- ----- -- ----<br>-------- ------- -- ---------- --- - --- ----- ----- ----<br>---- --- --- ----- --- ---- that ------- ----- ---- -------<br>--- --- -- ----- -- --- ---- -- --- ---- -- ------ ------<br>--- ----- -- ----,122458.83000001777,122452.84000004176,121054.404,121057.1400000481,121071.358,122471.664,,34,that
screen,html.Screen,1_1_0_1_35,2021-04-18T16:41:07.307Z,,,,,,,,,,,,,,,,53,,,,,,,,,,,,,,511.4460000301333,,response,,,,99,,,,,,,Space,keypress(Space),,,,,,,,---- -- ----- -- ------ - ------- --- ----------<br>------------- ------ ------ ---- ---- ------- ----- -- ----<br>-------- ------- -- ---------- --- - --- ----- ----- ----<br>---- --- --- ----- --- ---- ---- matters ----- ---- -------<br>--- --- -- ----- -- --- ---- -- --- ---- -- ------ ------<br>--- ----- -- ----,122984.1749999905,122983.11000003014,122454.649,122459.03500006534,122471.664,122988.535,,35,matters
screen,html.Screen,1_1_0_1_36,2021-04-18T16:41:07.673Z,,,,,,,,,,,,,,,,53,,,,,,,,,,,,,,361.05499999798485,,response,,,,99,,,,,,,Space,keypress(Space),,,,,,,,"---- -- ----- -- ------ - ------- --- ----------<br>------------- ------ ------ ---- ---- ------- ----- -- ----<br>-------- ------- -- ---------- --- - --- ----- ----- ----<br>---- --- --- ----- --- ---- ---- ------- most, ---- -------<br>--- --- -- ----- -- --- ---- -- --- ---- -- ------ ------<br>--- ----- -- ----",123350.42999999132,123349.58999999799,122971.567,122984.37000007834,122988.535,123355.2,,36,"most,"
screen,html.Screen,1_1_0_1_37,2021-04-18T16:41:08.103Z,,,,,,,,,,,,,,,,53,,,,,,,,,,,,,,424.22500007339113,,response,,,,99,,,,,,,Space,keypress(Space),,,,,,,,---- -- ----- -- ------ - ------- --- ----------<br>------------- ------ ------ ---- ---- ------- ----- -- ----<br>-------- ------- -- ---------- --- - --- ----- ----- ----<br>---- --- --- ----- --- ---- ---- ------- ----- it's -------<br>--- --- -- ----- -- --- ---- -- --- ---- -- ------ ------<br>--- ----- -- ----,123780.26500006672,123779.42500007339,123338.469,123350.63500003889,123355.2,123788.649,,37,it's
screen,html.Screen,1_1_0_1_38,2021-04-18T16:41:08.442Z,,,,,,,,,,,,,,,,53,,,,,,,,,,,,,,329.1410000475298,,response,,,,99,,,,,,,Space,keypress(Space),,,,,,,,---- -- ----- -- ------ - ------- --- ----------<br>------------- ------ ------ ---- ---- ------- ----- -- ----<br>-------- ------- -- ---------- --- - --- ----- ----- ----<br>---- --- --- ----- --- ---- ---- ------- ----- ---- whether<br>--- --- -- ----- -- --- ---- -- --- ---- -- ------ ------<br>--- ----- -- ----,124118.98999998812,124117.79000004753,123772.176,123780.46000003815,123788.649,124122.155,,38,whether
screen,html.Screen,1_1_0_1_39,2021-04-18T16:41:08.820Z,,,,,,,,,,,,,,,,53,,,,,,,,,,,,,,373.7250000604254,,response,,,,99,,,,,,,Space,keypress(Space),,,,,,,,---- -- ----- -- ------ - ------- --- ----------<br>------------- ------ ------ ---- ---- ------- ----- -- ----<br>-------- ------- -- ---------- --- - --- ----- ----- ----<br>---- --- --- ----- --- ---- ---- ------- ----- ---- -------<br>you --- -- ----- -- --- ---- -- --- ---- -- ------ ------<br>--- ----- -- ----,124497.0200000098,124495.88000006042,124105.841,124119.2400000291,124122.155,124505.582,,39,you
screen,html.Screen,1_1_0_1_40,2021-04-18T16:41:09.177Z,,,,,,,,,,,,,,,,53,,,,,,,,,,,,,,347.49800002988195,,response,,,,99,,,,,,,Space,keypress(Space),,,,,,,,---- -- ----- -- ------ - ------- --- ----------<br>------------- ------ ------ ---- ---- ------- ----- -- ----<br>-------- ------- -- ---------- --- - --- ----- ----- ----<br>---- --- --- ----- --- ---- ---- ------- ----- ---- -------<br>--- are -- ----- -- --- ---- -- --- ---- -- ------ ------<br>--- ----- -- ----,124854.25000009127,124853.08000002988,124489.141,124497.2200000193,124505.582,124880.506,,40,are
screen,html.Screen,1_1_0_1_41,2021-04-18T16:41:09.543Z,,,,,,,,,,,,,,,,53,,,,,,,,,,,,,,338.449000047578,,response,,,,99,,,,,,,Space,keypress(Space),,,,,,,,---- -- ----- -- ------ - ------- --- ----------<br>------------- ------ ------ ---- ---- ------- ----- -- ----<br>-------- ------- -- ---------- --- - --- ----- ----- ----<br>---- --- --- ----- --- ---- ---- ------- ----- ---- -------<br>--- --- as ----- -- --- ---- -- --- ---- -- ------ ------<br>--- ----- -- ----,125220.05000000354,125218.95500004757,124838.981,124854.4600000605,124880.506,125222.532,,41,as
screen,html.Screen,1_1_0_1_42,2021-04-18T16:41:09.912Z,,,,,,,,,,,,,,,,53,,,,,,,,,,,,,,365.4229999954114,,response,,,,99,,,,,,,Space,keypress(Space),,,,,,,,---- -- ----- -- ------ - ------- --- ----------<br>------------- ------ ------ ---- ---- ------- ----- -- ----<br>-------- ------- -- ---------- --- - --- ----- ----- ----<br>---- --- --- ----- --- ---- ---- ------- ----- ---- -------<br>--- --- -- close -- --- ---- -- --- ---- -- ------ ------<br>--- ----- -- ----,125588.76000007149,125587.95499999542,125206.048,125220.25000001304,125222.532,125605.964,,42,close
screen,html.Screen,1_1_0_1_43,2021-04-18T16:41:10.252Z,,,,,,,,,,,,,,,,53,,,,,,,,,,,,,,322.10600002357387,,response,,,,99,,,,,,,Space,keypress(Space),,,,,,,,---- -- ----- -- ------ - ------- --- ----------<br>------------- ------ ------ ---- ---- ------- ----- -- ----<br>-------- ------- -- ---------- --- - --- ----- ----- ----<br>---- --- --- ----- --- ---- ---- ------- ----- ---- -------<br>--- --- -- ----- as --- ---- -- --- ---- -- ------ ------<br>--- ----- -- ----,125929.27000008058,125928.07000002358,125589.516,125590.46500001568,125605.964,125939.511,,43,as
screen,html.Screen,1_1_0_1_44,2021-04-18T16:41:10.671Z,,,,,,,,,,,,,,,,53,,,,,,,,,,,,,,407.939000001119,,response,,,,99,,,,,,,Space,keypress(Space),,,,,,,,---- -- ----- -- ------ - ------- --- ----------<br>------------- ------ ------ ---- ---- ------- ----- -- ----<br>-------- ------- -- ---------- --- - --- ----- ----- ----<br>---- --- --- ----- --- ---- ---- ------- ----- ---- -------<br>--- --- -- ----- -- you ---- -- --- ---- -- ------ ------<br>--- ----- -- ----,126348.51999999955,126347.45000000112,125923.172,125929.45500009228,125939.511,126356.368,,44,you
screen,html.Screen,1_1_0_1_45,2021-04-18T16:41:11.013Z,,,,,,,,,,,,,,,,53,,,,,,,,,,,,,,332.3520000928693,,response,,,,99,,,,,,,Space,keypress(Space),,,,,,,,---- -- ----- -- ------ - ------- --- ----------<br>------------- ------ ------ ---- ---- ------- ----- -- ----<br>-------- ------- -- ---------- --- - --- ----- ----- ----<br>---- --- --- ----- --- ---- ---- ------- ----- ---- -------<br>--- --- -- ----- -- --- want -- --- ---- -- ------ ------<br>--- ----- -- ----,126689.80000005104,126688.72000009287,126339.954,126348.71000004932,126356.368,126706.763,,45,want
screen,html.Screen,1_1_0_1_46,2021-04-18T16:41:11.336Z,,,,,,,,,,,,,,,,53,,,,,,,,,,,,,,304.9820000252512,,response,,,,99,,,,,,,Space,keypress(Space),,,,,,,,---- -- ----- -- ------ - ------- --- ----------<br>------------- ------ ------ ---- ---- ------- ----- -- ----<br>-------- ------- -- ---------- --- - --- ----- ----- ----<br>---- --- --- ----- --- ---- ---- ------- ----- ---- -------<br>--- --- -- ----- -- --- ---- to --- ---- -- ------ ------<br>--- ----- -- ----,127013.22000008076,127011.74500002526,126690.136,126689.99500002246,126706.763,127023.158,,46,to
screen,html.Screen,1_1_0_1_47,2021-04-18T16:41:11.747Z,,,,,,,,,,,,,,,,53,,,,,,,,,,,,,,399.2969999926281,,response,,,,99,,,,,,,Space,keypress(Space),,,,,,,,"---- -- ----- -- ------ - ------- --- ----------<br>------------- ------ ------ ---- ---- ------- ----- -- ----<br>-------- ------- -- ---------- --- - --- ----- ----- ----<br>---- --- --- ----- --- ---- ---- ------- ----- ---- -------<br>--- --- -- ----- -- --- ---- -- be, ---- -- ------ ------<br>--- ----- -- ----",127424.07499998808,127422.45499999262,127006.911,127013.50000000093,127023.158,127440.359,,47,"be,"
screen,html.Screen,1_1_0_1_48,2021-04-18T16:41:12.163Z,,,,,,,,,,,,,,,,53,,,,,,,,,,,,,,398.81600008829264,,response,,,,99,,,,,,,Space,keypress(Space),,,,,,,,---- -- ----- -- ------ - ------- --- ----------<br>------------- ------ ------ ---- ---- ------- ----- -- ----<br>-------- ------- -- ---------- --- - --- ----- ----- ----<br>---- --- --- ----- --- ---- ---- ------- ----- ---- -------<br>--- --- -- ----- -- --- ---- -- --- even -- ------ ------<br>--- ----- -- ----,127840.24000004865,127839.17500008829,127423.588,127424.28500007372,127440.359,127857.178,,48,even
screen,html.Screen,1_1_0_1_49,2021-04-18T16:41:12.482Z,,,,,,,,,,,,,,,,53,,,,,,,,,,,,,,300.7369999888615,,response,,,,99,,,,,,,Space,keypress(Space),,,,,,,,---- -- ----- -- ------ - ------- --- ----------<br>------------- ------ ------ ---- ---- ------- ----- -- ----<br>-------- ------- -- ---------- --- - --- ----- ----- ----<br>---- --- --- ----- --- ---- ---- ------- ----- ---- -------<br>--- --- -- ----- -- --- ---- -- --- ---- if ------ ------<br>--- ----- -- ----,128158.97500002757,128157.91499998886,127840.041,127840.43000009842,127857.178,128173.959,,49,if
screen,html.Screen,1_1_0_1_50,2021-04-18T16:41:12.798Z,,,,,,,,,,,,,,,,53,,,,,,,,,,,,,,300.70100006533903,,response,,,,99,,,,,,,Space,keypress(Space),,,,,,,,---- -- ----- -- ------ - ------- --- ----------<br>------------- ------ ------ ---- ---- ------- ----- -- ----<br>-------- ------- -- ---------- --- - --- ----- ----- ----<br>---- --- --- ----- --- ---- ---- ------- ----- ---- -------<br>--- --- -- ----- -- --- ---- -- --- ---- -- that's ------<br>--- ----- -- ----,128475.53000005428,128474.66000006534,128157.34,128159.16500007734,128173.959,128490.421,,50,that's
screen,html.Screen,1_1_0_1_51,2021-04-18T16:41:13.153Z,,,,,,,,,,,,,,,,53,,,,,,,,,,,,,,338.5490000314021,,response,,,,99,,,,,,,Space,keypress(Space),,,,,,,,---- -- ----- -- ------ - ------- --- ----------<br>------------- ------ ------ ---- ---- ------- ----- -- ----<br>-------- ------- -- ---------- --- - --- ----- ----- ----<br>---- --- --- ----- --- ---- ---- ------- ----- ---- -------<br>--- --- -- ----- -- --- ---- -- --- ---- -- ------ really<br>--- ----- -- ----,128829.86500009429,128828.9700000314,128474.646,128475.6950000301,128490.421,128840.571,,51,really
screen,html.Screen,1_1_0_1_52,2021-04-18T16:41:13.491Z,,,,,,,,,,,,,,,,53,,,,,,,,,,,,,,326.07399999024346,,response,,,,99,,,,,,,Space,keypress(Space),,,,,,,,---- -- ----- -- ------ - ------- --- ----------<br>------------- ------ ------ ---- ---- ------- ----- -- ----<br>-------- ------- -- ---------- --- - --- ----- ----- ----<br>---- --- --- ----- --- ---- ---- ------- ----- ---- -------<br>--- --- -- ----- -- --- ---- -- --- ---- -- ------ ------<br>not ----- -- ----,129167.72000002675,129166.64499999024,128823.71,128830.1400000928,128840.571,129173.981,,52,not
screen,html.Screen,1_1_0_1_53,2021-04-18T16:41:13.821Z,,,,,,,,,,,,,,,,53,,,,,,,,,,,,,,322.709000058152,,response,,,,99,,,,,,,Space,keypress(Space),,,,,,,,---- -- ----- -- ------ - ------- --- ----------<br>------------- ------ ------ ---- ---- ------- ----- -- ----<br>-------- ------- -- ---------- --- - --- ----- ----- ----<br>---- --- --- ----- --- ---- ---- ------- ----- ---- -------<br>--- --- -- ----- -- --- ---- -- --- ---- -- ------ ------<br>--- close -- ----,129497.71500006318,129496.69000005815,129157.722,129167.91000007652,129173.981,129507.493,,53,close
screen,html.Screen,1_1_0_1_54,2021-04-18T16:41:14.173Z,,,,,,,,,,,,,,,,53,,,,,,,,,,,,,,341.69200005733,,response,,,,99,,,,,,,Space,keypress(Space),,,,,,,,---- -- ----- -- ------ - ------- --- ----------<br>------------- ------ ------ ---- ---- ------- ----- -- ----<br>-------- ------- -- ---------- --- - --- ----- ----- ----<br>---- --- --- ----- --- ---- ---- ------- ----- ---- -------<br>--- --- -- ----- -- --- ---- -- --- ---- -- ------ ------<br>--- ----- at ----,129850.41499999352,129849.18500005733,129491.057,129497.90499999654,129507.493,129857.577,,54,at
screen,html.Screen,1_1_0_1_55,2021-04-18T16:41:14.603Z,,,,,,,,,,,,,,,,53,,,,,,,,,,,,,,421.38800006317615,,response,,,,99,,,,,,,Space,keypress(Space),,,,,,,,---- -- ----- -- ------ - ------- --- ----------<br>------------- ------ ------ ---- ---- ------- ----- -- ----<br>-------- ------- -- ---------- --- - --- ----- ----- ----<br>---- --- --- ----- --- ---- ---- ------- ----- ---- -------<br>--- --- -- ----- -- --- ---- -- --- ---- -- ------ ------<br>--- ----- -- all.,130279.77500006091,130278.96500006318,129841.297,129850.70000006817,129857.577,130291.126,,55,all.
Item 99,flow.Loop,1_1_0_1,2021-04-18T16:41:14.603Z,,,,,,,,,,,,,,,,,,,,,,,,,,,,,,25847.428000063184,,completion,,,,,D,,,,,,,,,,,silence,,,,,130280.18500003964,130278.96500006318,104398.639,104399.7049999889,104431.537,130291.126,,,
Question 1,html.Screen,1_1_0_2,2021-04-18T16:41:20.018Z,,,,,,,,,,,,,,,,,,,,,,,,,,,true,FALSE,,5401.254000022236,,response,,,,99,D,,,,,,FALSE,click #choice-2,,,,silence,,,,,135694.85500000883,135692.38000002224,130274.75,130280.3600000916,130291.126,135709.777,,,
Question 2,html.Screen,1_1_0_3,2021-04-18T16:41:26.061Z,,,,,,,,,,,,,,,,,,,,,,,,,,,true,TRUE,,6027.223000081023,,response,,,,99,D,,,,,,TRUE,click #choice-1,,,,silence,,,,,141738.16000006627,141737.00000008103,135693.138,135695.1550000813,135709.777,141762.02,,,
Item 99,flow.Sequence,1_1_0,2021-04-18T16:41:26.061Z,,,,,,,,,,,,,,,,,,,,,,,,,,,,,,47325.85500008102,,completion,,,,,,,,,,,,,,,,,,,,,141738.45000006258,141737.00000008103,94394.426,94415.57000007015,94411.145,141762.02,,,
Holding screen,html.Screen,1_1_1_0,2021-04-18T16:41:36.078Z,,,,,,,,,,,,,,,,,,,,,,,,,,,,,,10003.626000000018,,timeout,,,,,,,,,,,,,,,,,,,,,151754.66000009328,151749.353,141745.395,141738.65499999374,141762.02,151765.646,,,
screen,html.Screen,1_1_1_1_0,2021-04-18T16:41:39.886Z,,,,,,,,,,,,,,,,54,,,,,,,,,,,,,,3795.66400001914,,response,,,,100,,,,,,,Space,keypress(Space),,,,,,,,At --- ---- --- ------ ----- ------- ---- -- --- ------- --<br>------- ---------- ------ -- ----- -- ----- -- ---- ------<br>--- ----- --- --- ------ -------- ----- --- ------ ----- --<br>----- ----- ---------- --- --- ------ ------ ---- -- ------<br>------- --- ------ ----- --- ---- ------- -- ---- --- --<br>------- ------,155563.4850000497,155561.31000001915,151749.353,151754.98500000685,151765.646,155567.134,,0,At
screen,html.Screen,1_1_1_1_1,2021-04-18T16:41:40.593Z,,,,,,,,,,,,,,,,54,,,,,,,,,,,,,,701.7609999865235,,response,,,,100,,,,,,,Space,keypress(Space),,,,,,,,-- the ---- --- ------ ----- ------- ---- -- --- ------- --<br>------- ---------- ------ -- ----- -- ----- -- ---- ------<br>--- ----- --- --- ------ -------- ----- --- ------ ----- --<br>----- ----- ---------- --- --- ------ ------ ---- -- ------<br>------- --- ------ ----- --- ---- ------- -- ---- --- --<br>------- ------,156269.6500000311,156268.8949999865,155549.23,155563.69500001892,155567.134,156284.055,,1,the
screen,html.Screen,1_1_1_1_2,2021-04-18T16:41:41.941Z,,,,,,,,,,,,,,,,54,,,,,,,,,,,,,,1333.0300000344287,,response,,,,100,,,,,,,Space,keypress(Space),,,,,,,,-- --- time --- ------ ----- ------- ---- -- --- ------- --<br>------- ---------- ------ -- ----- -- ----- -- ---- ------<br>--- ----- --- --- ------ -------- ----- --- ------ ----- --<br>----- ----- ---------- --- --- ------ ------ ---- -- ------<br>------- --- ------ ----- --- ---- ------- -- ---- --- --<br>------- ------,157617.85000003874,157617.08500003442,156267.134,156269.81000008527,156284.055,157634.645,,2,time
screen,html.Screen,1_1_1_1_3,2021-04-18T16:41:42.510Z,,,,,,,,,,,,,,,,54,,,,,,,,,,,,,,551.780000079918,,response,,,,100,,,,,,,Space,keypress(Space),,,,,,,,-- --- ---- the ------ ----- ------- ---- -- --- ------- --<br>------- ---------- ------ -- ----- -- ----- -- ---- ------<br>--- ----- --- --- ------ -------- ----- --- ------ ----- --<br>----- ----- ---------- --- --- ------ ------ ---- -- ------<br>------- --- ------ ----- --- ---- ------- -- ---- --- --<br>------- ------,158187.3149999883,158186.4250000799,157617.663,157618.04500001017,157634.645,158201.402,,3,the
screen,html.Screen,1_1_1_1_4,2021-04-18T16:41:44.543Z,,,,,,,,,,,,,,,,54,,,,,,,,,,,,,,2017.8930000753608,,response,,,,100,,,,,,,Space,keypress(Space),,,,,,,,-- --- ---- --- French ----- ------- ---- -- --- ------- --<br>------- ---------- ------ -- ----- -- ----- -- ---- ------<br>--- ----- --- --- ------ -------- ----- --- ------ ----- --<br>----- ----- ---------- --- --- ------ ------ ---- -- ------<br>------- --- ------ ----- --- ---- ------- -- ---- --- --<br>------- ------,160220.39999999106,160219.29500007536,158184.621,158187.54000007175,158201.402,160235.842,,4,French
screen,html.Screen,1_1_1_1_5,2021-04-18T16:41:45.803Z,,,,,,,,,,,,,,,,54,,,,,,,,,,,,,,1243.1080000188085,,response,,,,100,,,,,,,Space,keypress(Space),,,,,,,,-- --- ---- --- ------ crown ------- ---- -- --- ------- --<br>------- ---------- ------ -- ----- -- ----- -- ---- ------<br>--- ----- --- --- ------ -------- ----- --- ------ ----- --<br>----- ----- ---------- --- --- ------ ------ ---- -- ------<br>------- --- ------ ----- --- ---- ------- -- ---- --- --<br>------- ------,161480.58500001207,161478.9500000188,160218.053,160220.60500003863,160235.842,161486.001,,5,crown
screen,html.Screen,1_1_1_1_6,2021-04-18T16:41:46.406Z,,,,,,,,,,,,,,,,54,,,,,,,,,,,,,,595.6740000231075,,response,,,,100,,,,,,,Space,keypress(Space),,,,,,,,-- --- ---- --- ------ ----- secured ---- -- --- ------- --<br>------- ---------- ------ -- ----- -- ----- -- ---- ------<br>--- ----- --- --- ------ -------- ----- --- ------ ----- --<br>----- ----- ---------- --- --- ------ ------ ---- -- ------<br>------- --- ------ ----- --- ---- ------- -- ---- --- --<br>------- ------,162083.34000001196,162081.6750000231,161468.959,161480.7800000999,161486.001,162086.202,,6,secured
screen,html.Screen,1_1_1_1_7,2021-04-18T16:41:46.776Z,,,,,,,,,,,,,,,,54,,,,,,,,,,,,,,365.7830000506365,,response,,,,100,,,,,,,Space,keypress(Space),,,,,,,,-- --- ---- --- ------ ----- ------- much -- --- ------- --<br>------- ---------- ------ -- ----- -- ----- -- ---- ------<br>--- ----- --- --- ------ -------- ----- --- ------ ----- --<br>----- ----- ---------- --- --- ------ ------ ---- -- ------<br>------- --- ------ ----- --- ---- ------- -- ---- --- --<br>------- ------,162453.45999998972,162451.98500005063,162069.256,162083.520000102,162086.202,162470.01,,7,much
screen,html.Screen,1_1_1_1_8,2021-04-18T16:41:47.154Z,,,,,,,,,,,,,,,,54,,,,,,,,,,,,,,360.13000009278767,,response,,,,100,,,,,,,Space,keypress(Space),,,,,,,,-- --- ---- --- ------ ----- ------- ---- of --- ------- --<br>------- ---------- ------ -- ----- -- ----- -- ---- ------<br>--- ----- --- --- ------ -------- ----- --- ------ ----- --<br>----- ----- ---------- --- --- ------ ------ ---- -- ------<br>------- --- ------ ----- --- ---- ------- -- ---- --- --<br>------- ------,162831.18000009563,162830.1400000928,162453.39,162453.65500007756,162470.01,162836.498,,8,of
screen,html.Screen,1_1_1_1_9,2021-04-18T16:41:47.568Z,,,,,,,,,,,,,,,,54,,,,,,,,,,,,,,407.83700005398714,,response,,,,100,,,,,,,Space,keypress(Space),,,,,,,,-- --- ---- --- ------ ----- ------- ---- -- its ------- --<br>------- ---------- ------ -- ----- -- ----- -- ---- ------<br>--- ----- --- --- ------ -------- ----- --- ------ ----- --<br>----- ----- ---------- --- --- ------ ------ ---- -- ------<br>------- --- ------ ----- --- ---- ------- -- ---- --- --<br>------- ------,163245.54000003263,163244.33500005398,162820.169,162831.37500006706,162836.498,163253.547,,9,its
screen,html.Screen,1_1_1_1_10,2021-04-18T16:41:48.032Z,,,,,,,,,,,,,,,,54,,,,,,,,,,,,,,454.7780000141647,,response,,,,100,,,,,,,Space,keypress(Space),,,,,,,,-- --- ---- --- ------ ----- ------- ---- -- --- revenue --<br>------- ---------- ------ -- ----- -- ----- -- ---- ------<br>--- ----- --- --- ------ -------- ----- --- ------ ----- --<br>----- ----- ---------- --- --- ------ ------ ---- -- ------<br>------- --- ------ ----- --- ---- ------- -- ---- --- --<br>------- ------,163709.05000006314,163708.32500001416,163237.138,163245.7300000824,163253.547,163720.472,,10,revenue
screen,html.Screen,1_1_1_1_11,2021-04-18T16:41:48.421Z,,,,,,,,,,,,,,,,54,,,,,,,,,,,,,,376.4729999974952,,response,,,,100,,,,,,,Space,keypress(Space),,,,,,,,-- --- ---- --- ------ ----- ------- ---- -- --- ------- by<br>------- ---------- ------ -- ----- -- ----- -- ---- ------<br>--- ----- --- --- ------ -------- ----- --- ------ ----- --<br>----- ----- ---------- --- --- ------ ------ ---- -- ------<br>------- --- ------ ----- --- ---- ------- -- ---- --- --<br>------- ------,164097.97000000253,164096.9449999975,163703.792,163709.23500007484,163720.472,164103.609,,11,by
screen,html.Screen,1_1_1_1_12,2021-04-18T16:41:48.976Z,,,,,,,,,,,,,,,,54,,,,,,,,,,,,,,548.4010000780108,,response,,,,100,,,,,,,Space,keypress(Space),,,,,,,,-- --- ---- --- ------ ----- ------- ---- -- --- ------- --<br>issuing ---------- ------ -- ----- -- ----- -- ---- ------<br>--- ----- --- --- ------ -------- ----- --- ------ ----- --<br>----- ----- ---------- --- --- ------ ------ ---- -- ------<br>------- --- ------ ----- --- ---- ------- -- ---- --- --<br>------- ------,164653.0849999981,164652.010000078,164087.33,164098.1750000501,164103.609,164671,,12,issuing
screen,html.Screen,1_1_1_1_13,2021-04-18T16:41:49.520Z,,,,,,,,,,,,,,,,54,,,,,,,,,,,,,,524.575000019744,,response,,,,100,,,,,,,Space,keypress(Space),,,,,,,,-- --- ---- --- ------ ----- ------- ---- -- --- ------- --<br>------- government ------ -- ----- -- ----- -- ---- ------<br>--- ----- --- --- ------ -------- ----- --- ------ ----- --<br>----- ----- ---------- --- --- ------ ------ ---- -- ------<br>------- --- ------ ----- --- ---- ------- -- ---- --- --<br>------- ------,165196.64500001818,165195.57500001974,164637.436,164653.27500004787,164671,165204.057,,13,government
screen,html.Screen,1_1_1_1_14,2021-04-18T16:41:50.321Z,,,,,,,,,,,,,,,,54,,,,,,,,,,,,,,793.0730000324838,,response,,,,100,,,,,,,Space,keypress(Space),,,,,,,,-- --- ---- --- ------ ----- ------- ---- -- --- ------- --<br>------- ---------- bonds. -- ----- -- ----- -- ---- ------<br>--- ----- --- --- ------ -------- ----- --- ------ ----- --<br>----- ----- ---------- --- --- ------ ------ ---- -- ------<br>------- --- ------ ----- --- ---- ------- -- ---- --- --<br>------- ------,165998.1550000375,165997.13000003248,165187.458,165196.83500006795,165204.057,166004.35,,14,bonds.
screen,html.Screen,1_1_1_1_15,2021-04-18T16:41:51.220Z,,,,,,,,,,,,,,,,54,,,,,,,,,,,,,,892.3650000389607,,response,,,,100,,,,,,,Space,keypress(Space),,,,,,,,-- --- ---- --- ------ ----- ------- ---- -- --- ------- --<br>------- ---------- ------ In ----- -- ----- -- ---- ------<br>--- ----- --- --- ------ -------- ----- --- ------ ----- --<br>----- ----- ---------- --- --- ------ ------ ---- -- ------<br>------- --- ------ ----- --- ---- ------- -- ---- --- --<br>------- ------,166897.51500007696,166896.71500003897,165987.835,165998.3600000851,166004.35,166904.627,,15,In
screen,html.Screen,1_1_1_1_16,2021-04-18T16:41:51.698Z,,,,,,,,,,,,,,,,54,,,,,,,,,,,,,,468.92800005650497,,response,,,,100,,,,,,,Space,keypress(Space),,,,,,,,"-- --- ---- --- ------ ----- ------- ---- -- --- ------- --<br>------- ---------- ------ -- 1727, -- ----- -- ---- ------<br>--- ----- --- --- ------ -------- ----- --- ------ ----- --<br>----- ----- ---------- --- --- ------ ------ ---- -- ------<br>------- --- ------ ----- --- ---- ------- -- ---- --- --<br>------- ------",167375.12000009883,167373.5550000565,166887.682,166897.70000008866,166904.627,167388.496,,16,"1727,"
screen,html.Screen,1_1_1_1_17,2021-04-18T16:41:52.110Z,,,,,,,,,,,,,,,,54,,,,,,,,,,,,,,397.0840000252065,,response,,,,100,,,,,,,Space,keypress(Space),,,,,,,,-- --- ---- --- ------ ----- ------- ---- -- --- ------- --<br>------- ---------- ------ -- ----- in ----- -- ---- ------<br>--- ----- --- --- ------ -------- ----- --- ------ ----- --<br>----- ----- ---------- --- --- ------ ------ ---- -- ------<br>------- --- ------ ----- --- ---- ------- -- ---- --- --<br>------- ------,167787.31000004336,167785.58000002522,167371.818,167375.31500007026,167388.496,167805.47,,17,in
screen,html.Screen,1_1_1_1_18,2021-04-18T16:41:53.600Z,,,,,,,,,,,,,,,,54,,,,,,,,,,,,,,1470.9200000136334,,response,,,,100,,,,,,,Space,keypress(Space),,,,,,,,-- --- ---- --- ------ ----- ------- ---- -- --- ------- --<br>------- ---------- ------ -- ----- -- order -- ---- ------<br>--- ----- --- --- ------ -------- ----- --- ------ ----- --<br>----- ----- ---------- --- --- ------ ------ ---- -- ------<br>------- --- ------ ----- --- ---- ------- -- ---- --- --<br>------- ------,169277.56499999668,169276.39000001363,167771.894,167787.54500008654,167805.47,169288.897,,18,order
screen,html.Screen,1_1_1_1_19,2021-04-18T16:41:54.269Z,,,,,,,,,,,,,,,,54,,,,,,,,,,,,,,656.01800000004,,response,,,,100,,,,,,,Space,keypress(Space),,,,,,,,-- --- ---- --- ------ ----- ------- ---- -- --- ------- --<br>------- ---------- ------ -- ----- -- ----- to ---- ------<br>--- ----- --- --- ------ -------- ----- --- ------ ----- --<br>----- ----- ---------- --- --- ------ ------ ---- -- ------<br>------- --- ------ ----- --- ---- ------- -- ---- --- --<br>------- ------,169945.99500007462,169944.91500000004,169271.907,169277.76000008453,169288.897,169956.535,,19,to
screen,html.Screen,1_1_1_1_20,2021-04-18T16:41:54.851Z,,,,,,,,,,,,,,,,54,,,,,,,,,,,,,,570.6200000179524,,response,,,,100,,,,,,,Space,keypress(Space),,,,,,,,-- --- ---- --- ------ ----- ------- ---- -- --- ------- --<br>------- ---------- ------ -- ----- -- ----- -- save ------<br>--- ----- --- --- ------ -------- ----- --- ------ ----- --<br>----- ----- ---------- --- --- ------ ------ ---- -- ------<br>------- --- ------ ----- --- ---- ------- -- ---- --- --<br>------- ------,170528.29000004567,170527.15500001796,169938.884,169946.18500000797,169956.535,170539.285,,20,save
screen,html.Screen,1_1_1_1_21,2021-04-18T16:41:55.487Z,,,,,,,,,,,,,,,,54,,,,,,,,,,,,,,623.8500000388885,,response,,,,100,,,,,,,Space,keypress(Space),,,,,,,,"-- --- ---- --- ------ ----- ------- ---- -- --- ------- --<br>------- ---------- ------ -- ----- -- ----- -- ---- money,<br>--- ----- --- --- ------ -------- ----- --- ------ ----- --<br>----- ----- ---------- --- --- ------ ------ ---- -- ------<br>------- --- ------ ----- --- ---- ------- -- ---- --- --<br>------- ------",171164.1800000798,171163.1350000389,170522.945,170528.48000009544,170539.285,171172.87,,21,"money,"
screen,html.Screen,1_1_1_1_22,2021-04-18T16:41:56.004Z,,,,,,,,,,,,,,,,54,,,,,,,,,,,,,,507.49500003654975,,response,,,,100,,,,,,,Space,keypress(Space),,,,,,,,-- --- ---- --- ------ ----- ------- ---- -- --- ------- --<br>------- ---------- ------ -- ----- -- ----- -- ---- ------<br>the ----- --- --- ------ -------- ----- --- ------ ----- --<br>----- ----- ---------- --- --- ------ ------ ---- -- ------<br>------- --- ------ ----- --- ---- ------- -- ---- --- --<br>------- ------,171681.4449999947,171680.36500003655,171156.448,171164.37500005122,171172.87,171689.695,,22,the
screen,html.Screen,1_1_1_1_23,2021-04-18T16:41:56.440Z,,,,,,,,,,,,,,,,54,,,,,,,,,,,,,,426.2850000023027,,response,,,,100,,,,,,,Space,keypress(Space),,,,,,,,-- --- ---- --- ------ ----- ------- ---- -- --- ------- --<br>------- ---------- ------ -- ----- -- ----- -- ---- ------<br>--- state --- --- ------ -------- ----- --- ------ ----- --<br>----- ----- ---------- --- --- ------ ------ ---- -- ------<br>------- --- ------ ----- --- ---- ------- -- ---- --- --<br>------- ------,172117.13000002783,172115.9800000023,171673.217,171681.63500004448,171689.695,172123.247,,23,state
screen,html.Screen,1_1_1_1_24,2021-04-18T16:41:57.142Z,,,,,,,,,,,,,,,,54,,,,,,,,,,,,,,695.1730000250682,,response,,,,100,,,,,,,Space,keypress(Space),,,,,,,,-- --- ---- --- ------ ----- ------- ---- -- --- ------- --<br>------- ---------- ------ -- ----- -- ----- -- ---- ------<br>--- ----- cut --- ------ -------- ----- --- ------ ----- --<br>----- ----- ---------- --- --- ------ ------ ---- -- ------<br>------- --- ------ ----- --- ---- ------- -- ---- --- --<br>------- ------,172819.19499998912,172818.42000002507,172106.743,172117.33999999706,172123.247,172823.55,,24,cut
screen,html.Screen,1_1_1_1_25,2021-04-18T16:41:57.566Z,,,,,,,,,,,,,,,,54,,,,,,,,,,,,,,418.83000006881775,,response,,,,100,,,,,,,Space,keypress(Space),,,,,,,,-- --- ---- --- ------ ----- ------- ---- -- --- ------- --<br>------- ---------- ------ -- ----- -- ----- -- ---- ------<br>--- ----- --- the ------ -------- ----- --- ------ ----- --<br>----- ----- ---------- --- --- ------ ------ ---- -- ------<br>------- --- ------ ----- --- ---- ------- -- ---- --- --<br>------- ------,173243.43500006944,173242.3800000688,172806.627,172819.3850000389,172823.55,173257.348,,25,the
screen,html.Screen,1_1_1_1_26,2021-04-18T16:41:58.043Z,,,,,,,,,,,,,,,,54,,,,,,,,,,,,,,461.8670000482816,,response,,,,100,,,,,,,Space,keypress(Space),,,,,,,,-- --- ---- --- ------ ----- ------- ---- -- --- ------- --<br>------- ---------- ------ -- ----- -- ----- -- ---- ------<br>--- ----- --- --- bonds' -------- ----- --- ------ ----- --<br>----- ----- ---------- --- --- ------ ------ ---- -- ------<br>------- --- ------ ----- --- ---- ------- -- ---- --- --<br>------- ------,173720.31000000425,173719.21500004828,173240.468,173243.6250000028,173257.348,173723.86,,26,bonds'
screen,html.Screen,1_1_1_1_27,2021-04-18T16:41:58.514Z,,,,,,,,,,,,,,,,54,,,,,,,,,,,,,,465.86500006204005,,response,,,,100,,,,,,,Space,keypress(Space),,,,,,,,-- --- ---- --- ------ ----- ------- ---- -- --- ------- --<br>------- ---------- ------ -- ----- -- ----- -- ---- ------<br>--- ----- --- --- ------ interest ----- --- ------ ----- --<br>----- ----- ---------- --- --- ------ ------ ---- -- ------<br>------- --- ------ ----- --- ---- ------- -- ---- --- --<br>------- ------,174190.82500005607,174189.72500006203,173707.418,173720.50000005402,173723.86,174207.409,,27,interest
screen,html.Screen,1_1_1_1_28,2021-04-18T16:41:58.925Z,,,,,,,,,,,,,,,,54,,,,,,,,,,,,,,393.31099998761783,,response,,,,100,,,,,,,Space,keypress(Space),,,,,,,,-- --- ---- --- ------ ----- ------- ---- -- --- ------- --<br>------- ---------- ------ -- ----- -- ----- -- ---- ------<br>--- ----- --- --- ------ -------- rate. --- ------ ----- --<br>----- ----- ---------- --- --- ------ ------ ---- -- ------<br>------- --- ------ ----- --- ---- ------- -- ---- --- --<br>------- ------,174601.78999998607,174600.71999998763,174190.835,174191.01499998942,174207.409,174607.506,,28,rate.
screen,html.Screen,1_1_1_1_29,2021-04-18T16:41:59.303Z,,,,,,,,,,,,,,,,54,,,,,,,,,,,,,,371.43400005908916,,response,,,,100,,,,,,,Space,keypress(Space),,,,,,,,-- --- ---- --- ------ ----- ------- ---- -- --- ------- --<br>------- ---------- ------ -- ----- -- ----- -- ---- ------<br>--- ----- --- --- ------ -------- ----- The ------ ----- --<br>----- ----- ---------- --- --- ------ ------ ---- -- ------<br>------- --- ------ ----- --- ---- ------- -- ---- --- --<br>------- ------,174979.9650000641,174978.94000005908,174591.193,174601.9850000739,174607.506,174991.316,,29,The
screen,html.Screen,1_1_1_1_30,2021-04-18T16:41:59.713Z,,,,,,,,,,,,,,,,54,,,,,,,,,,,,,,397.81400002504233,,response,,,,100,,,,,,,Space,keypress(Space),,,,,,,,-- --- ---- --- ------ ----- ------- ---- -- --- ------- --<br>------- ---------- ------ -- ----- -- ----- -- ---- ------<br>--- ----- --- --- ------ -------- ----- --- market ----- --<br>----- ----- ---------- --- --- ------ ------ ---- -- ------<br>------- --- ------ ----- --- ---- ------- -- ---- --- --<br>------- ------,175389.92500002496,175389.13000002503,174974.814,174980.15499999747,174991.316,175415.895,,30,market
screen,html.Screen,1_1_1_1_31,2021-04-18T16:42:00.057Z,,,,,,,,,,,,,,,,54,,,,,,,,,,,,,,317.6100000110746,,response,,,,100,,,,,,,Space,keypress(Space),,,,,,,,-- --- ---- --- ------ ----- ------- ---- -- --- ------- --<br>------- ---------- ------ -- ----- -- ----- -- ---- ------<br>--- ----- --- --- ------ -------- ----- --- ------ value --<br>----- ----- ---------- --- --- ------ ------ ---- -- ------<br>------- --- ------ ----- --- ---- ------- -- ---- --- --<br>------- ------,175734.375,175733.50500001106,175374.828,175390.11500007473,175415.895,175741.586,,31,value
screen,html.Screen,1_1_1_1_32,2021-04-18T16:42:00.523Z,,,,,,,,,,,,,,,,54,,,,,,,,,,,,,,457.14900009997655,,response,,,,100,,,,,,,Space,keypress(Space),,,,,,,,-- --- ---- --- ------ ----- ------- ---- -- --- ------- --<br>------- ---------- ------ -- ----- -- ----- -- ---- ------<br>--- ----- --- --- ------ -------- ----- --- ------ ----- of<br>----- ----- ---------- --- --- ------ ------ ---- -- ------<br>------- --- ------ ----- --- ---- ------- -- ---- --- --<br>------- ------,176200.41500008665,176198.7350001,175724.872,175734.5750000095,175741.586,176208.087,,32,of
screen,html.Screen,1_1_1_1_33,2021-04-18T16:42:01.005Z,,,,,,,,,,,,,,,,54,,,,,,,,,,,,,,473.5879999998142,,response,,,,100,,,,,,,Space,keypress(Space),,,,,,,,-- --- ---- --- ------ ----- ------- ---- -- --- ------- --<br>------- ---------- ------ -- ----- -- ----- -- ---- ------<br>--- ----- --- --- ------ -------- ----- --- ------ ----- --<br>these ----- ---------- --- --- ------ ------ ---- -- ------<br>------- --- ------ ----- --- ---- ------- -- ---- --- --<br>------- ------,176682.48499999754,176681.6749999998,176191.759,176200.61500009615,176208.087,176691.608,,33,these
screen,html.Screen,1_1_1_1_34,2021-04-18T16:42:01.887Z,,,,,,,,,,,,,,,,54,,,,,,,,,,,,,,871.6320000467822,,response,,,,100,,,,,,,Space,keypress(Space),,,,,,,,-- --- ---- --- ------ ----- ------- ---- -- --- ------- --<br>------- ---------- ------ -- ----- -- ----- -- ---- ------<br>--- ----- --- --- ------ -------- ----- --- ------ ----- --<br>----- bonds ---------- --- --- ------ ------ ---- -- ------<br>------- --- ------ ----- --- ---- ------- -- ---- --- --<br>------- ------,177564.30500000715,177563.2400000468,176675.253,176682.66500008758,176691.608,177575.267,,34,bonds
screen,html.Screen,1_1_1_1_35,2021-04-18T16:42:02.564Z,,,,,,,,,,,,,,,,54,,,,,,,,,,,,,,665.4380000038072,,response,,,,100,,,,,,,Space,keypress(Space),,,,,,,,"-- --- ---- --- ------ ----- ------- ---- -- --- ------- --<br>------- ---------- ------ -- ----- -- ----- -- ---- ------<br>--- ----- --- --- ------ -------- ----- --- ------ ----- --<br>----- ----- plummeted, --- --- ------ ------ ---- -- ------<br>------- --- ------ ----- --- ---- ------- -- ---- --- --<br>------- ------",178241.52999999933,178240.7050000038,177558.271,177564.47500002105,177575.267,178258.921,,35,"plummeted,"
screen,html.Screen,1_1_1_1_36,2021-04-18T16:42:02.939Z,,,,,,,,,,,,,,,,54,,,,,,,,,,,,,,355.8690000214556,,response,,,,100,,,,,,,Space,keypress(Space),,,,,,,,-- --- ---- --- ------ ----- ------- ---- -- --- ------- --<br>------- ---------- ------ -- ----- -- ----- -- ---- ------<br>--- ----- --- --- ------ -------- ----- --- ------ ----- --<br>----- ----- ---------- and --- ------ ------ ---- -- ------<br>------- --- ------ ----- --- ---- ------- -- ---- --- --<br>------- ------,178615.88500009384,178614.79000002146,178241.984,178241.71500001103,178258.921,178625.67,,36,and
screen,html.Screen,1_1_1_1_37,2021-04-18T16:42:03.367Z,,,,,,,,,,,,,,,,54,,,,,,,,,,,,,,417.38000009479583,,response,,,,100,,,,,,,Space,keypress(Space),,,,,,,,-- --- ---- --- ------ ----- ------- ---- -- --- ------- --<br>------- ---------- ------ -- ----- -- ----- -- ---- ------<br>--- ----- --- --- ------ -------- ----- --- ------ ----- --<br>----- ----- ---------- --- the ------ ------ ---- -- ------<br>------- --- ------ ----- --- ---- ------- -- ---- --- --<br>------- ------,179044.0800000215,179043.0500000948,178609.352,178616.08000006527,178625.67,179059.259,,37,the
screen,html.Screen,1_1_1_1_38,2021-04-18T16:42:03.761Z,,,,,,,,,,,,,,,,54,,,,,,,,,,,,,,377.7060000007914,,response,,,,100,,,,,,,Space,keypress(Space),,,,,,,,-- --- ---- --- ------ ----- ------- ---- -- --- ------- --<br>------- ---------- ------ -- ----- -- ----- -- ---- ------<br>--- ----- --- --- ------ -------- ----- --- ------ ----- --<br>----- ----- ---------- --- --- market ------ ---- -- ------<br>------- --- ------ ----- --- ---- ------- -- ---- --- --<br>------- ------,179438.07500007097,179436.96500000078,179042.815,179045.47000001185,179059.259,179442.653,,38,market
screen,html.Screen,1_1_1_1_39,2021-04-18T16:42:04.460Z,,,,,,,,,,,,,,,,54,,,,,,,,,,,,,,693.8020000289544,,response,,,,100,,,,,,,Space,keypress(Space),,,,,,,,-- --- ---- --- ------ ----- ------- ---- -- --- ------- --<br>------- ---------- ------ -- ----- -- ----- -- ---- ------<br>--- ----- --- --- ------ -------- ----- --- ------ ----- --<br>----- ----- ---------- --- --- ------ became ---- -- ------<br>------- --- ------ ----- --- ---- ------- -- ---- --- --<br>------- ------,180137.55500002299,180136.45500002895,179425.891,179438.2700000424,179442.653,180142.914,,39,became
screen,html.Screen,1_1_1_1_40,2021-04-18T16:42:04.903Z,,,,,,,,,,,,,,,,54,,,,,,,,,,,,,,436.5360000774963,,response,,,,100,,,,,,,Space,keypress(Space),,,,,,,,-- --- ---- --- ------ ----- ------- ---- -- --- ------- --<br>------- ---------- ------ -- ----- -- ----- -- ---- ------<br>--- ----- --- --- ------ -------- ----- --- ------ ----- --<br>----- ----- ---------- --- --- ------ ------ wary -- ------<br>------- --- ------ ----- --- ---- ------- -- ---- --- --<br>------- ------,180580.53500007372,180579.4500000775,180126.258,180137.7499999944,180142.914,180593.03,,40,wary
screen,html.Screen,1_1_1_1_41,2021-04-18T16:42:05.470Z,,,,,,,,,,,,,,,,54,,,,,,,,,,,,,,553.0750000507396,,response,,,,100,,,,,,,Space,keypress(Space),,,,,,,,-- --- ---- --- ------ ----- ------- ---- -- --- ------- --<br>------- ---------- ------ -- ----- -- ----- -- ---- ------<br>--- ----- --- --- ------ -------- ----- --- ------ ----- --<br>----- ----- ---------- --- --- ------ ------ ---- of ------<br>------- --- ------ ----- --- ---- ------- -- ---- --- --<br>------- ------,181147.14500005357,181146.10500005074,180577.202,180580.72000008542,180593.03,181160.004,,41,of
screen,html.Screen,1_1_1_1_42,2021-04-18T16:42:05.984Z,,,,,,,,,,,,,,,,54,,,,,,,,,,,,,,499.92100004359963,,response,,,,100,,,,,,,Space,keypress(Space),,,,,,,,-- --- ---- --- ------ ----- ------- ---- -- --- ------- --<br>------- ---------- ------ -- ----- -- ----- -- ---- ------<br>--- ----- --- --- ------ -------- ----- --- ------ ----- --<br>----- ----- ---------- --- --- ------ ------ ---- -- French<br>------- --- ------ ----- --- ---- ------- -- ---- --- --<br>------- ------,181661.11500002444,181659.9250000436,181143.118,181147.340000025,181160.004,181680.098,,42,French
screen,html.Screen,1_1_1_1_43,2021-04-18T16:42:06.571Z,,,,,,,,,,,,,,,,54,,,,,,,,,,,,,,566.582000098424,,response,,,,100,,,,,,,Space,keypress(Space),,,,,,,,-- --- ---- --- ------ ----- ------- ---- -- --- ------- --<br>------- ---------- ------ -- ----- -- ----- -- ---- ------<br>--- ----- --- --- ------ -------- ----- --- ------ ----- --<br>----- ----- ---------- --- --- ------ ------ ---- -- ------<br>credit. --- ------ ----- --- ---- ------- -- ---- --- --<br>------- ------,182247.86000000313,182246.68000009842,181660.409,181661.30999999586,181680.098,182260.678,,43,credit.
screen,html.Screen,1_1_1_1_44,2021-04-18T16:42:06.911Z,,,,,,,,,,,,,,,,54,,,,,,,,,,,,,,325.027000092261,,response,,,,100,,,,,,,Space,keypress(Space),,,,,,,,-- --- ---- --- ------ ----- ------- ---- -- --- ------- --<br>------- ---------- ------ -- ----- -- ----- -- ---- ------<br>--- ----- --- --- ------ -------- ----- --- ------ ----- --<br>----- ----- ---------- --- --- ------ ------ ---- -- ------<br>------- The ------ ----- --- ---- ------- -- ---- --- --<br>------- ------,182586.81000000797,182585.70500009228,182243.855,182248.05500009097,182260.678,182593.83,,44,The
screen,html.Screen,1_1_1_1_45,2021-04-18T16:42:07.335Z,,,,,,,,,,,,,,,,54,,,,,,,,,,,,,,415.69500000131666,,response,,,,100,,,,,,,Space,keypress(Space),,,,,,,,-- --- ---- --- ------ ----- ------- ---- -- --- ------- --<br>------- ---------- ------ -- ----- -- ----- -- ---- ------<br>--- ----- --- --- ------ -------- ----- --- ------ ----- --<br>----- ----- ---------- --- --- ------ ------ ---- -- ------<br>------- --- French ----- --- ---- ------- -- ---- --- --<br>------- ------,183010.57500008028,183009.5250000013,182577.029,182587.00000005774,182593.83,183027.641,,45,French
screen,html.Screen,1_1_1_1_46,2021-04-18T16:42:07.661Z,,,,,,,,,,,,,,,,54,,,,,,,,,,,,,,307.49400005937787,,response,,,,100,,,,,,,Space,keypress(Space),,,,,,,,-- --- ---- --- ------ ----- ------- ---- -- --- ------- --<br>------- ---------- ------ -- ----- -- ----- -- ---- ------<br>--- ----- --- --- ------ -------- ----- --- ------ ----- --<br>----- ----- ---------- --- --- ------ ------ ---- -- ------<br>------- --- ------ state --- ---- ------- -- ---- --- --<br>------- ------,183336.85500000138,183335.13500005938,183010.52,183010.76000009198,183027.641,183344.064,,46,state
screen,html.Screen,1_1_1_1_47,2021-04-18T16:42:08.032Z,,,,,,,,,,,,,,,,54,,,,,,,,,,,,,,362.255999997491,,response,,,,100,,,,,,,Space,keypress(Space),,,,,,,,-- --- ---- --- ------ ----- ------- ---- -- --- ------- --<br>------- ---------- ------ -- ----- -- ----- -- ---- ------<br>--- ----- --- --- ------ -------- ----- --- ------ ----- --<br>----- ----- ---------- --- --- ------ ------ ---- -- ------<br>------- --- ------ ----- was ---- ------- -- ---- --- --<br>------- ------,183707.80500001274,183706.3199999975,183327.789,183337.05000008922,183344.064,183710.891,,47,was
screen,html.Screen,1_1_1_1_48,2021-04-18T16:42:08.343Z,,,,,,,,,,,,,,,,54,,,,,,,,,,,,,,306.61900003423216,,response,,,,100,,,,,,,Space,keypress(Space),,,,,,,,-- --- ---- --- ------ ----- ------- ---- -- --- ------- --<br>------- ---------- ------ -- ----- -- ----- -- ---- ------<br>--- ----- --- --- ------ -------- ----- --- ------ ----- --<br>----- ----- ---------- --- --- ------ ------ ---- -- ------<br>------- --- ------ ----- --- left ------- -- ---- --- --<br>------- ------,184018.61500006635,184017.51000003424,183694.57,183708.00500002224,183710.891,184027.687,,48,left
screen,html.Screen,1_1_1_1_49,2021-04-18T16:42:08.680Z,,,,,,,,,,,,,,,,54,,,,,,,,,,,,,,326.59800000852556,,response,,,,100,,,,,,,Space,keypress(Space),,,,,,,,-- --- ---- --- ------ ----- ------- ---- -- --- ------- --<br>------- ---------- ------ -- ----- -- ----- -- ---- ------<br>--- ----- --- --- ------ -------- ----- --- ------ ----- --<br>----- ----- ---------- --- --- ------ ------ ---- -- ------<br>------- --- ------ ----- --- ---- without -- ---- --- --<br>------- ------,184355.32500001136,184354.28500000853,184010.913,184018.8049999997,184027.687,184361.095,,49,without
screen,html.Screen,1_1_1_1_50,2021-04-18T16:42:09.015Z,,,,,,,,,,,,,,,,54,,,,,,,,,,,,,,328.52500007741037,,response,,,,100,,,,,,,Space,keypress(Space),,,,,,,,-- --- ---- --- ------ ----- ------- ---- -- --- ------- --<br>------- ---------- ------ -- ----- -- ----- -- ---- ------<br>--- ----- --- --- ------ -------- ----- --- ------ ----- --<br>----- ----- ---------- --- --- ------ ------ ---- -- ------<br>------- --- ------ ----- --- ---- ------- an ---- --- --<br>------- ------,184690.6500000041,184689.6200000774,184344.857,184355.51500006113,184361.095,184695.12,,50,an
screen,html.Screen,1_1_1_1_51,2021-04-18T16:42:09.376Z,,,,,,,,,,,,,,,,54,,,,,,,,,,,,,,355.1400000472786,,response,,,,100,,,,,,,Space,keypress(Space),,,,,,,,-- --- ---- --- ------ ----- ------- ---- -- --- ------- --<br>------- ---------- ------ -- ----- -- ----- -- ---- ------<br>--- ----- --- --- ------ -------- ----- --- ------ ----- --<br>----- ----- ---------- --- --- ------ ------ ---- -- ------<br>------- --- ------ ----- --- ---- ------- -- easy --- --<br>------- ------,185051.29500001203,185050.26000004727,184678.321,184690.84000005387,184695.12,185061.411,,51,easy
screen,html.Screen,1_1_1_1_52,2021-04-18T16:42:09.754Z,,,,,,,,,,,,,,,,54,,,,,,,,,,,,,,366.7990000418795,,response,,,,100,,,,,,,Space,keypress(Space),,,,,,,,-- --- ---- --- ------ ----- ------- ---- -- --- ------- --<br>------- ---------- ------ -- ----- -- ----- -- ---- ------<br>--- ----- --- --- ------ -------- ----- --- ------ ----- --<br>----- ----- ---------- --- --- ------ ------ ---- -- ------<br>------- --- ------ ----- --- ---- ------- -- ---- way --<br>------- ------,185429.28500007838,185428.21000004187,185047.756,185051.48000002373,185061.411,185445.188,,52,way
screen,html.Screen,1_1_1_1_53,2021-04-18T16:42:10.053Z,,,,,,,,,,,,,,,,54,,,,,,,,,,,,,,282.73700001378893,,response,,,,100,,,,,,,Space,keypress(Space),,,,,,,,-- --- ---- --- ------ ----- ------- ---- -- --- ------- --<br>------- ---------- ------ -- ----- -- ----- -- ---- ------<br>--- ----- --- --- ------ -------- ----- --- ------ ----- --<br>----- ----- ---------- --- --- ------ ------ ---- -- ------<br>------- --- ------ ----- --- ---- ------- -- ---- --- of<br>------- ------,185728.99500001222,185727.92500001378,185428.544,185429.4800000498,185445.188,185745.307,,53,of
screen,html.Screen,1_1_1_1_54,2021-04-18T16:42:10.479Z,,,,,,,,,,,,,,,,54,,,,,,,,,,,,,,408.613000069774,,response,,,,100,,,,,,,Space,keypress(Space),,,,,,,,-- --- ---- --- ------ ----- ------- ---- -- --- ------- --<br>------- ---------- ------ -- ----- -- ----- -- ---- ------<br>--- ----- --- --- ------ -------- ----- --- ------ ----- --<br>----- ----- ---------- --- --- ------ ------ ---- -- ------<br>------- --- ------ ----- --- ---- ------- -- ---- --- --<br>raising ------,186154.97000003234,186153.92000006977,185728.695,185729.19000010006,185745.307,186161.78,,54,raising
screen,html.Screen,1_1_1_1_55,2021-04-18T16:42:10.832Z,,,,,,,,,,,,,,,,54,,,,,,,,,,,,,,344.88499999351916,,response,,,,100,,,,,,,Space,keypress(Space),,,,,,,,-- --- ---- --- ------ ----- ------- ---- -- --- ------- --<br>------- ---------- ------ -- ----- -- ----- -- ---- ------<br>--- ----- --- --- ------ -------- ----- --- ------ ----- --<br>----- ----- ---------- --- --- ------ ------ ---- -- ------<br>------- --- ------ ----- --- ---- ------- -- ---- --- --<br>------- money.,186508.1150000915,186506.66499999352,186145.497,186155.1600000821,186161.78,186511.908,,55,money.
Item 100,flow.Loop,1_1_1_1,2021-04-18T16:42:10.833Z,,,,,,,,,,,,,,,,,,,,,,,,,,,,,,34741.01899999351,,completion,,,,,D,,,,,,,,,,,silence,,,,,186508.48000007682,186506.66499999352,151749.353,151754.91000001784,151765.646,186511.908,,,
Question 1,html.Screen,1_1_1_2,2021-04-18T16:42:13.106Z,,,,,,,,,,,,,,,,,,,,,,,,,,,true,TRUE,,2267.9670000074548,,response,,,,100,D,,,,,,TRUE,click #choice-1,,,,silence,,,,,188781.41500009224,188779.87500000745,186495.131,186508.6350000929,186511.908,188796.091,,,
Question 2,html.Screen,1_1_1_3,2021-04-18T16:42:15.203Z,,,,,,,,,,,,,,,,,,,,,,,,,,,false,FALSE,,2081.4290000964247,,response,,,,100,D,,,,,,TRUE,click #choice-1,,,,silence,,,,,190879.00000007357,190877.5200000964,188779.425,188781.6200000234,188796.091,190880.205,,,
Item 100,flow.Sequence,1_1_1,2021-04-18T16:42:15.204Z,,,,,,,,,,,,,,,,,,,,,,,,,,,,,,49115.50000009642,,completion,,,,,,,,,,,,,,,,,,,,,190879.30000002962,190877.5200000964,141745.395,141738.59500000253,141762.02,190880.205,,,
End of Practice,html.Page,1_1_2,2021-04-18T16:42:18.125Z,,,,,,,,,,,,,,,,,,,,,,,,,,,,,,2920.045000087557,,form submission,,,,,,,,,,,,,,,,,,,,,193800.58500007726,193800.25000008754,190863.668,190879.4400000479,190880.205,193814.984,,,
Practice,flow.Sequence,1_1,2021-04-18T16:42:18.125Z,,,,,,,,,,,,,,,,,,,,,,,,,,,,,,99389.10500008754,,completion,,,,,,,,,,,,,,,,,,,,,193800.87500007357,193800.25000008754,94394.426,94415.49000004306,94411.145,193814.984,,,
Trap_instruction,html.Page,1_2_0,2021-04-18T16:42:22.138Z,,,,,,,,,,,,,,,,,,,,,,,,,,,,,,3998.080999994825,,form submission,,,,,,,,,,,,,,,,,,,,,197813.3900000248,197813.06499999482,193798.066,193801.07500008307,193814.984,197849.448,,,
trap_trial,html.Screen,1_2_1,2021-04-18T16:42:26.310Z,,,,,,,,,,,,,,,,,,,,,,,,,,,true,1,,4135.122000087838,,response,,,,,,,,,,,1,click #choice-1,,,,,,,,,201985.92500004452,201984.57000008784,197799.461,197813.59500007238,197849.448,202000.975,,,
end of trap trial,html.Page,1_2_2,2021-04-18T16:42:28.335Z,,,,,,,,,,,,,,,,,,,,,,,,,,,,,,2009.075000040786,,form submission,,,,,,,,,,,,,,,,,,,,,204010.39000006858,204010.0500000408,201984.3,201986.13500001375,202000.975,204018.365,,,
Trap 1,flow.Sequence,1_2,2021-04-18T16:42:28.335Z,,,,,,,,,,,,,,,,,,,,,,,,,,,,,,10195.066000040795,,completion,,,,,,,,,,,,,,,,,,,,,204010.6650000671,204010.0500000408,193798.066,193801.02000001352,193814.984,204018.365,,,
Standby,html.Page,1_3_0,2021-04-18T16:42:36.333Z,,,,,,,,,,,,,,,,,,,,,,,,,,,,,,8003.350999999995,,timeout,,,,,,,,,,,,,,,,,,,,,212008.55500006583,212004.768,204001.79,204010.85500000045,204018.365,212021.716,,,
Holding screen,html.Screen,1_3_1_0_0,2021-04-18T16:42:43.333Z,,,,,,,,,,,,,,,,,,,,,,,,,,,,,,7002.255000000005,,timeout,,,,,,,,,,,,,,,,,,,,,219008.5900000995,219007.771,212004.768,212008.87000001967,212021.716,219023.971,,,
screen,html.Screen,1_3_1_0_1_0,2021-04-18T16:42:44.268Z,,,,,,,,,,,,,,,,2,,,,,,,,,,,,,,918.0090000032505,,response,,,,1,D,,,,,,Space,keypress(Space),,,,silence,,,,Two ---- ------ --- ------- ---------- ------- ----------<br>--- --------- --- ----------- ------- ----- ------- ---<br>--------- ---- -- --- ---- -- --------- -- ---- -------<br>-- --------- ------ --- ----- ------ ---- --- --------- --<br>------ - ---- -- --- ----------- ------- ---- ----- -----<br>--- -------- - ------ ---- -- ----- ---- --- --- -----------<br>-- -------,219943.25000001118,219941.98000000324,219007.771,219008.87000001967,219023.971,219957.697,,0,Two
screen,html.Screen,1_3_1_0_1_1,2021-04-18T16:42:44.818Z,,,,,,,,,,,,,,,,2,,,,,,,,,,,,,,534.5430000505294,,response,,,,1,D,,,,,,Space,keypress(Space),,,,silence,,,,--- days ------ --- ------- ---------- ------- ----------<br>--- --------- --- ----------- ------- ----- ------- ---<br>--------- ---- -- --- ---- -- --------- -- ---- -------<br>-- --------- ------ --- ----- ------ ---- --- --------- --<br>------ - ---- -- --- ----------- ------- ---- ----- -----<br>--- -------- - ------ ---- -- ----- ---- --- --- -----------<br>-- -------,220493.30000008922,220492.24000005051,219940.926,219943.46500001848,219957.697,220508.298,,1,days
screen,html.Screen,1_3_1_0_1_2,2021-04-18T16:42:45.230Z,,,,,,,,,,,,,,,,2,,,,,,,,,,,,,,396.4420000272221,,response,,,,1,D,,,,,,Space,keypress(Space),,,,silence,,,,"--- ---- later, --- ------- ---------- ------- ----------<br>--- --------- --- ----------- ------- ----- ------- ---<br>--------- ---- -- --- ---- -- --------- -- ---- -------<br>-- --------- ------ --- ----- ------ ---- --- --------- --<br>------ - ---- -- --- ----------- ------- ---- ----- -----<br>--- -------- - ------ ---- -- ----- ---- --- --- -----------<br>-- -------",220905.82500002347,220904.74000002723,220491.053,220493.48500010092,220508.298,220907.992,,2,"later,"
screen,html.Screen,1_3_1_0_1_3,2021-04-18T16:42:45.592Z,,,,,,,,,,,,,,,,2,,,,,,,,,,,,,,358.23800006657257,,response,,,,1,D,,,,,,Space,keypress(Space),,,,silence,,,,--- ---- ------ the ------- ---------- ------- ----------<br>--- --------- --- ----------- ------- ----- ------- ---<br>--------- ---- -- --- ---- -- --------- -- ---- -------<br>-- --------- ------ --- ----- ------ ---- --- --------- --<br>------ - ---- -- --- ----------- ------- ---- ----- -----<br>--- -------- - ------ ---- -- ----- ---- --- --- -----------<br>-- -------,221267.31000002474,221266.23000006657,220891.691,220906.01500007324,220907.992,221275.087,,3,the
screen,html.Screen,1_3_1_0_1_4,2021-04-18T16:42:45.950Z,,,,,,,,,,,,,,,,2,,,,,,,,,,,,,,349.53300001687603,,response,,,,1,D,,,,,,Space,keypress(Space),,,,silence,,,,--- ---- ------ --- British ---------- ------- ----------<br>--- --------- --- ----------- ------- ----- ------- ---<br>--------- ---- -- --- ---- -- --------- -- ---- -------<br>-- --------- ------ --- ----- ------ ---- --- --------- --<br>------ - ---- -- --- ----------- ------- ---- ----- -----<br>--- -------- - ------ ---- -- ----- ---- --- --- -----------<br>-- -------,221625.65000005998,221624.62000001688,221257.926,221267.5000000745,221275.087,221641.695,,4,British
screen,html.Screen,1_3_1_0_1_5,2021-04-18T16:42:46.312Z,,,,,,,,,,,,,,,,2,,,,,,,,,,,,,,344.4850000071456,,response,,,,1,D,,,,,,Space,keypress(Space),,,,silence,,,,--- ---- ------ --- ------- astronomer ------- ----------<br>--- --------- --- ----------- ------- ----- ------- ---<br>--------- ---- -- --- ---- -- --------- -- ---- -------<br>-- --------- ------ --- ----- ------ ---- --- --------- --<br>------ - ---- -- --- ----------- ------- ---- ----- -----<br>--- -------- - ------ ---- -- ----- ---- --- --- -----------<br>-- -------,221987.24500008393,221986.18000000715,221625.321,221625.8450000314,221641.695,221991.746,,5,astronomer
screen,html.Screen,1_3_1_0_1_6,2021-04-18T16:42:46.725Z,,,,,,,,,,,,,,,,2,,,,,,,,,,,,,,408.3590000078839,,response,,,,1,D,,,,,,Space,keypress(Space),,,,silence,,,,--- ---- ------ --- ------- ---------- Richard ----------<br>--- --------- --- ----------- ------- ----- ------- ---<br>--------- ---- -- --- ---- -- --------- -- ---- -------<br>-- --------- ------ --- ----- ------ ---- --- --------- --<br>------ - ---- -- --- ----------- ------- ---- ----- -----<br>--- -------- - ------ ---- -- ----- ---- --- --- -----------<br>-- -------,222401.14000008907,222400.1050000079,221975.424,221987.43500001729,221991.746,222408.528,,6,Richard
screen,html.Screen,1_3_1_0_1_7,2021-04-18T16:42:47.119Z,,,,,,,,,,,,,,,,2,,,,,,,,,,,,,,384.0870000421419,,response,,,,1,D,,,,,,Space,keypress(Space),,,,silence,,,,--- ---- ------ --- ------- ---------- ------- Carrington<br>--- --------- --- ----------- ------- ----- ------- ---<br>--------- ---- -- --- ---- -- --------- -- ---- -------<br>-- --------- ------ --- ----- ------ ---- --- --------- --<br>------ - ---- -- --- ----------- ------- ---- ----- -----<br>--- -------- - ------ ---- -- ----- ---- --- --- -----------<br>-- -------,222794.3700000178,222792.61500004213,222392.043,222401.3350000605,222408.528,222809.042,,7,Carrington
screen,html.Screen,1_3_1_0_1_8,2021-04-18T16:42:47.540Z,,,,,,,,,,,,,,,,2,,,,,,,,,,,,,,405.7830000318645,,response,,,,1,D,,,,,,Space,keypress(Space),,,,silence,,,,--- ---- ------ --- ------- ---------- ------- ----------<br>was --------- --- ----------- ------- ----- ------- ---<br>--------- ---- -- --- ---- -- --------- -- ---- -------<br>-- --------- ------ --- ----- ------ ---- --- --------- --<br>------ - ---- -- --- ----------- ------- ---- ----- -----<br>--- -------- - ------ ---- -- ----- ---- --- --- -----------<br>-- -------,223216.02000005078,223214.82500003185,222792.373,222794.6650000522,222809.042,223225.776,,8,was
screen,html.Screen,1_3_1_0_1_9,2021-04-18T16:42:48.076Z,,,,,,,,,,,,,,,,2,,,,,,,,,,,,,,524.5139999962994,,response,,,,1,D,,,,,,Space,keypress(Space),,,,silence,,,,--- ---- ------ --- ------- ---------- ------- ----------<br>--- observing --- ----------- ------- ----- ------- ---<br>--------- ---- -- --- ---- -- --------- -- ---- -------<br>-- --------- ------ --- ----- ------ ---- --- --------- --<br>------ - ---- -- --- ----------- ------- ---- ----- -----<br>--- -------- - ------ ---- -- ----- ---- --- --- -----------<br>-- -------,223751.44000002183,223750.2899999963,223208.883,223216.22000006028,223225.776,223759.349,,9,observing
screen,html.Screen,1_3_1_0_1_10,2021-04-18T16:42:48.445Z,,,,,,,,,,,,,,,,2,,,,,,,,,,,,,,359.681000059878,,response,,,,1,D,,,,,,Space,keypress(Space),,,,silence,,,,--- ---- ------ --- ------- ---------- ------- ----------<br>--- --------- the ----------- ------- ----- ------- ---<br>--------- ---- -- --- ---- -- --------- -- ---- -------<br>-- --------- ------ --- ----- ------ ---- --- --------- --<br>------ - ---- -- --- ----------- ------- ---- ----- -----<br>--- -------- - ------ ---- -- ----- ---- --- --- -----------<br>-- -------,224120.75500003994,224119.03000005987,223742.555,223751.6300000716,223759.349,224125.878,,10,the
screen,html.Screen,1_3_1_0_1_11,2021-04-18T16:42:49.004Z,,,,,,,,,,,,,,,,2,,,,,,,,,,,,,,552.797000090155,,response,,,,1,D,,,,,,Space,keypress(Space),,,,silence,,,,--- ---- ------ --- ------- ---------- ------- ----------<br>--- --------- --- interesting ------- ----- ------- ---<br>--------- ---- -- --- ---- -- --------- -- ---- -------<br>-- --------- ------ --- ----- ------ ---- --- --------- --<br>------ - ---- -- --- ----------- ------- ---- ----- -----<br>--- -------- - ------ ---- -- ----- ---- --- --- -----------<br>-- -------,224679.75500004832,224678.67500009015,224109.541,224121.06500007212,224125.878,224693.216,,11,interesting
screen,html.Screen,1_3_1_0_1_12,2021-04-18T16:42:49.464Z,,,,,,,,,,,,,,,,2,,,,,,,,,,,,,,445.24400004561176,,response,,,,1,D,,,,,,Space,keypress(Space),,,,silence,,,,--- ---- ------ --- ------- ---------- ------- ----------<br>--- --------- --- ----------- sunspot ----- ------- ---<br>--------- ---- -- --- ---- -- --------- -- ---- -------<br>-- --------- ------ --- ----- ------ ---- --- --------- --<br>------ - ---- -- --- ----------- ------- ---- ----- -----<br>--- -------- - ------ ---- -- ----- ---- --- --- -----------<br>-- -------,225139.51500004623,225138.4600000456,224676.119,224679.94000006,224693.216,225142.92,,12,sunspot
screen,html.Screen,1_3_1_0_1_13,2021-04-18T16:42:49.855Z,,,,,,,,,,,,,,,,2,,,,,,,,,,,,,,386.67500008727075,,response,,,,1,D,,,,,,Space,keypress(Space),,,,silence,,,,--- ---- ------ --- ------- ---------- ------- ----------<br>--- --------- --- ----------- ------- group ------- ---<br>--------- ---- -- --- ---- -- --------- -- ---- -------<br>-- --------- ------ --- ----- ------ ---- --- --------- --<br>------ - ---- -- --- ----------- ------- ---- ----- -----<br>--- -------- - ------ ---- -- ----- ---- --- --- -----------<br>-- -------,225530.71500000078,225529.59500008728,225126.135,225139.705000096,225142.92,225543.392,,13,group
screen,html.Screen,1_3_1_0_1_14,2021-04-18T16:42:50.232Z,,,,,,,,,,,,,,,,2,,,,,,,,,,,,,,363.278000054881,,response,,,,1,D,,,,,,Space,keypress(Space),,,,silence,,,,--- ---- ------ --- ------- ---------- ------- ----------<br>--- --------- --- ----------- ------- ----- through ---<br>--------- ---- -- --- ---- -- --------- -- ---- -------<br>-- --------- ------ --- ----- ------ ---- --- --------- --<br>------ - ---- -- --- ----------- ------- ---- ----- -----<br>--- -------- - ------ ---- -- ----- ---- --- --- -----------<br>-- -------,225907.87500003353,225906.67000005487,225526.556,225530.91000008862,225543.392,225909.821,,14,through
screen,html.Screen,1_3_1_0_1_15,2021-04-18T16:42:50.619Z,,,,,,,,,,,,,,,,2,,,,,,,,,,,,,,383.51400005305186,,response,,,,1,D,,,,,,Space,keypress(Space),,,,silence,,,,--- ---- ------ --- ------- ---------- ------- ----------<br>--- --------- --- ----------- ------- ----- ------- his<br>--------- ---- -- --- ---- -- --------- -- ---- -------<br>-- --------- ------ --- ----- ------ ---- --- --------- --<br>------ - ---- -- --- ----------- ------- ---- ----- -----<br>--- -------- - ------ ---- -- ----- ---- --- --- -----------<br>-- -------,226294.41000008956,226293.33500005305,225893.55,225908.0650000833,225909.821,226310.341,,15,his
screen,html.Screen,1_3_1_0_1_16,2021-04-18T16:42:51.075Z,,,,,,,,,,,,,,,,2,,,,,,,,,,,,,,438.8140000850253,,response,,,,1,D,,,,,,Space,keypress(Space),,,,silence,,,,--- ---- ------ --- ------- ---------- ------- ----------<br>--- --------- --- ----------- ------- ----- ------- ---<br>telescope ---- -- --- ---- -- --------- -- ---- -------<br>-- --------- ------ --- ----- ------ ---- --- --------- --<br>------ - ---- -- --- ----------- ------- ---- ----- -----<br>--- -------- - ------ ---- -- ----- ---- --- --- -----------<br>-- -------,226750.34999998752,226749.155000085,226293.522,226294.59500010125,226310.341,226760.205,,16,telescope
screen,html.Screen,1_3_1_0_1_17,2021-04-18T16:42:51.424Z,,,,,,,,,,,,,,,,2,,,,,,,,,,,,,,338.38999998857616,,response,,,,1,D,,,,,,Space,keypress(Space),,,,silence,,,,--- ---- ------ --- ------- ---------- ------- ----------<br>--- --------- --- ----------- ------- ----- ------- ---<br>--------- when -- --- ---- -- --------- -- ---- -------<br>-- --------- ------ --- ----- ------ ---- --- --------- --<br>------ - ---- -- --- ----------- ------- ---- ----- -----<br>--- -------- - ------ ---- -- ----- ---- --- --- -----------<br>-- -------,227099.71000009682,227098.59499998856,226743.553,226750.5400000373,226760.205,227110.332,,17,when
screen,html.Screen,1_3_1_0_1_18,2021-04-18T16:42:51.739Z,,,,,,,,,,,,,,,,2,,,,,,,,,,,,,,303.5680000432185,,response,,,,1,D,,,,,,Space,keypress(Space),,,,silence,,,,--- ---- ------ --- ------- ---------- ------- ----------<br>--- --------- --- ----------- ------- ----- ------- ---<br>--------- ---- he --- ---- -- --------- -- ---- -------<br>-- --------- ------ --- ----- ------ ---- --- --------- --<br>------ - ---- -- --- ----------- ------- ---- ----- -----<br>--- -------- - ------ ---- -- ----- ---- --- --- -----------<br>-- -------,227414.99499999918,227413.9000000432,227093.991,227099.90000003017,227110.332,227427.417,,18,he
screen,html.Screen,1_3_1_0_1_19,2021-04-18T16:42:52.043Z,,,,,,,,,,,,,,,,2,,,,,,,,,,,,,,290.1730000147654,,response,,,,1,D,,,,,,Space,keypress(Space),,,,silence,,,,--- ---- ------ --- ------- ---------- ------- ----------<br>--- --------- --- ----------- ------- ----- ------- ---<br>--------- ---- -- saw ---- -- --------- -- ---- -------<br>-- --------- ------ --- ----- ------ ---- --- --------- --<br>------ - ---- -- --- ----------- ------- ---- ----- -----<br>--- -------- - ------ ---- -- ----- ---- --- --- -----------<br>-- -------,227718.67000008933,227717.59000001475,227410.521,227415.18500004895,227427.417,227727.222,,19,saw
screen,html.Screen,1_3_1_0_1_20,2021-04-18T16:42:52.358Z,,,,,,,,,,,,,,,,2,,,,,,,,,,,,,,305.52800001302967,,response,,,,1,D,,,,,,Space,keypress(Space),,,,silence,,,,--- ---- ------ --- ------- ---------- ------- ----------<br>--- --------- --- ----------- ------- ----- ------- ---<br>--------- ---- -- --- what -- --------- -- ---- -------<br>-- --------- ------ --- ----- ------ ---- --- --------- --<br>------ - ---- -- --- ----------- ------- ---- ----- -----<br>--- -------- - ------ ---- -- ----- ---- --- --- -----------<br>-- -------,228033.5400000913,228032.75000001304,227710.906,227718.8600000227,227727.222,228044.32,,20,what
screen,html.Screen,1_3_1_0_1_21,2021-04-18T16:42:52.670Z,,,,,,,,,,,,,,,,2,,,,,,,,,,,,,,300.3500000204076,,response,,,,1,D,,,,,,Space,keypress(Space),,,,silence,,,,--- ---- ------ --- ------- ---------- ------- ----------<br>--- --------- --- ----------- ------- ----- ------- ---<br>--------- ---- -- --- ---- he --------- -- ---- -------<br>-- --------- ------ --- ----- ------ ---- --- --------- --<br>------ - ---- -- --- ----------- ------- ---- ----- -----<br>--- -------- - ------ ---- -- ----- ---- --- --- -----------<br>-- -------,228345.73000005912,228344.67000002041,228027.952,228033.78000005614,228044.32,228361.08,,21,he
screen,html.Screen,1_3_1_0_1_22,2021-04-18T16:42:52.971Z,,,,,,,,,,,,,,,,2,,,,,,,,,,,,,,284.385000066919,,response,,,,1,D,,,,,,Space,keypress(Space),,,,silence,,,,--- ---- ------ --- ------- ---------- ------- ----------<br>--- --------- --- ----------- ------- ----- ------- ---<br>--------- ---- -- --- ---- -- described -- ---- -------<br>-- --------- ------ --- ----- ------ ---- --- --------- --<br>------ - ---- -- --- ----------- ------- ---- ----- -----<br>--- -------- - ------ ---- -- ----- ---- --- --- -----------<br>-- -------,228646.5249999892,228645.4650000669,228344.47,228345.92500003055,228361.08,228660.962,,22,described
screen,html.Screen,1_3_1_0_1_23,2021-04-18T16:42:53.304Z,,,,,,,,,,,,,,,,2,,,,,,,,,,,,,,317.8530000385945,,response,,,,1,D,,,,,,Space,keypress(Space),,,,silence,,,,--- ---- ------ --- ------- ---------- ------- ----------<br>--- --------- --- ----------- ------- ----- ------- ---<br>--------- ---- -- --- ---- -- --------- as ---- -------<br>-- --------- ------ --- ----- ------ ---- --- --------- --<br>------ - ---- -- --- ----------- ------- ---- ----- -----<br>--- -------- - ------ ---- -- ----- ---- --- --- -----------<br>-- -------,228979.88500003703,228978.8150000386,228644.57,228646.71500003897,228660.962,228994.43,,23,as
screen,html.Screen,1_3_1_0_1_24,2021-04-18T16:42:53.581Z,,,,,,,,,,,,,,,,2,,,,,,,,,,,,,,260.52500001125736,,response,,,,1,D,,,,,,Space,keypress(Space),,,,silence,,,,"--- ---- ------ --- ------- ---------- ------- ----------<br>--- --------- --- ----------- ------- ----- ------- ---<br>--------- ---- -- --- ---- -- --------- -- ""two -------<br>-- --------- ------ --- ----- ------ ---- --- --------- --<br>------ - ---- -- --- ----------- ------- ---- ----- -----<br>--- -------- - ------ ---- -- ----- ---- --- --- -----------<br>-- -------",229256.20500009973,229254.95500001125,228978.024,228980.08000000846,228994.43,229261.105,,24,"""two"
screen,html.Screen,1_3_1_0_1_25,2021-04-18T16:42:53.888Z,,,,,,,,,,,,,,,,2,,,,,,,,,,,,,,301.54000005635316,,response,,,,1,D,,,,,,Space,keypress(Space),,,,silence,,,,--- ---- ------ --- ------- ---------- ------- ----------<br>--- --------- --- ----------- ------- ----- ------- ---<br>--------- ---- -- --- ---- -- --------- -- ---- patches<br>-- --------- ------ --- ----- ------ ---- --- --------- --<br>------ - ---- -- --- ----------- ------- ---- ----- -----<br>--- -------- - ------ ---- -- ----- ---- --- --- -----------<br>-- -------,229563.73500009067,229562.64500005636,229244.819,229256.389999995,229261.105,229577.985,,25,patches
screen,html.Screen,1_3_1_0_1_26,2021-04-18T16:42:54.191Z,,,,,,,,,,,,,,,,2,,,,,,,,,,,,,,287.35000009683426,,response,,,,1,D,,,,,,Space,keypress(Space),,,,silence,,,,--- ---- ------ --- ------- ---------- ------- ----------<br>--- --------- --- ----------- ------- ----- ------- ---<br>--------- ---- -- --- ---- -- --------- -- ---- -------<br>of --------- ------ --- ----- ------ ---- --- --------- --<br>------ - ---- -- --- ----------- ------- ---- ----- -----<br>--- -------- - ------ ---- -- ----- ---- --- --- -----------<br>-- -------,229866.3950000191,229865.33500009682,229561.499,229563.9300000621,229577.985,229878.318,,26,of
screen,html.Screen,1_3_1_0_1_27,2021-04-18T16:42:54.421Z,,,,,,,,,,,,,,,,2,,,,,,,,,,,,,,217.06699999325792,,response,,,,1,D,,,,,,Space,keypress(Space),,,,silence,,,,--- ---- ------ --- ------- ---------- ------- ----------<br>--- --------- --- ----------- ------- ----- ------- ---<br>--------- ---- -- --- ---- -- --------- -- ---- -------<br>-- intensely ------ --- ----- ------ ---- --- --------- --<br>------ - ---- -- --- ----------- ------- ---- ----- -----<br>--- -------- - ------ ---- -- ----- ---- --- --- -----------<br>-- -------,230096.41500003636,230095.38499999326,229861.698,229866.58999999054,229878.318,230111.435,,27,intensely
screen,html.Screen,1_3_1_0_1_28,2021-04-18T16:42:54.675Z,,,,,,,,,,,,,,,,2,,,,,,,,,,,,,,238.51500006165588,,response,,,,1,D,,,,,,Space,keypress(Space),,,,silence,,,,--- ---- ------ --- ------- ---------- ------- ----------<br>--- --------- --- ----------- ------- ----- ------- ---<br>--------- ---- -- --- ---- -- --------- -- ---- -------<br>-- --------- bright --- ----- ------ ---- --- --------- --<br>------ - ---- -- --- ----------- ------- ---- ----- -----<br>--- -------- - ------ ---- -- ----- ---- --- --- -----------<br>-- -------,230350.77500005718,230349.95000006165,230095.161,230096.6250000056,230111.435,230361.532,,28,bright
screen,html.Screen,1_3_1_0_1_29,2021-04-18T16:42:54.938Z,,,,,,,,,,,,,,,,2,,,,,,,,,,,,,,251.54800003918353,,response,,,,1,D,,,,,,Space,keypress(Space),,,,silence,,,,--- ---- ------ --- ------- ---------- ------- ----------<br>--- --------- --- ----------- ------- ----- ------- ---<br>--------- ---- -- --- ---- -- --------- -- ---- -------<br>-- --------- ------ and ----- ------ ---- --- --------- --<br>------ - ---- -- --- ----------- ------- ---- ----- -----<br>--- -------- - ------ ---- -- ----- ---- --- --- -----------<br>-- -------,230613.8450000435,230613.0800000392,230345.245,230350.9700000286,230361.532,230628.254,,29,and
screen,html.Screen,1_3_1_0_1_30,2021-04-18T16:42:55.217Z,,,,,,,,,,,,,,,,2,,,,,,,,,,,,,,264.0660001008946,,response,,,,1,D,,,,,,Space,keypress(Space),,,,silence,,,,--- ---- ------ --- ------- ---------- ------- ----------<br>--- --------- --- ----------- ------- ----- ------- ---<br>--------- ---- -- --- ---- -- --------- -- ---- -------<br>-- --------- ------ --- white ------ ---- --- --------- --<br>------ - ---- -- --- ----------- ------- ---- ----- -----<br>--- -------- - ------ ---- -- ----- ---- --- --- -----------<br>-- -------,230893.12500006054,230892.32000010088,230611.977,230614.04000001494,230628.254,230895.058,,30,white
screen,html.Screen,1_3_1_0_1_31,2021-04-18T16:42:55.513Z,,,,,,,,,,,,,,,,2,,,,,,,,,,,,,,292.85700001681107,,response,,,,1,D,,,,,,Space,keypress(Space),,,,silence,,,,"--- ---- ------ --- ------- ---------- ------- ----------<br>--- --------- --- ----------- ------- ----- ------- ---<br>--------- ---- -- --- ---- -- --------- -- ---- -------<br>-- --------- ------ --- ----- light"" ---- --- --------- --<br>------ - ---- -- --- ----------- ------- ---- ----- -----<br>--- -------- - ------ ---- -- ----- ---- --- --- -----------<br>-- -------",231189.14999999106,231187.9150000168,230878.365,230893.3149999939,230895.058,231195.125,,31,"light"""
screen,html.Screen,1_3_1_0_1_32,2021-04-18T16:42:55.768Z,,,,,,,,,,,,,,,,2,,,,,,,,,,,,,,247.71500003244728,,response,,,,1,D,,,,,,Space,keypress(Space),,,,silence,,,,--- ---- ------ --- ------- ---------- ------- ----------<br>--- --------- --- ----------- ------- ----- ------- ---<br>--------- ---- -- --- ---- -- --------- -- ---- -------<br>-- --------- ------ --- ----- ------ over --- --------- --<br>------ - ---- -- --- ----------- ------- ---- ----- -----<br>--- -------- - ------ ---- -- ----- ---- --- --- -----------<br>-- -------,231443.9199999906,231442.84000003245,231178.394,231189.3450000789,231195.125,231468.798,,32,over
screen,html.Screen,1_3_1_0_1_33,2021-04-18T16:42:56.066Z,,,,,,,,,,,,,,,,2,,,,,,,,,,,,,,272.06200001988327,,response,,,,1,D,,,,,,Space,keypress(Space),,,,silence,,,,--- ---- ------ --- ------- ---------- ------- ----------<br>--- --------- --- ----------- ------- ----- ------- ---<br>--------- ---- -- --- ---- -- --------- -- ---- -------<br>-- --------- ------ --- ----- ------ ---- the --------- --<br>------ - ---- -- --- ----------- ------- ---- ----- -----<br>--- -------- - ------ ---- -- ----- ---- --- --- -----------<br>-- -------,231741.92500009667,231740.8600000199,231428.56,231444.1050000023,231468.798,231745.385,,33,the
screen,html.Screen,1_3_1_0_1_34,2021-04-18T16:42:56.286Z,,,,,,,,,,,,,,,,2,,,,,,,,,,,,,,215.86500005121343,,response,,,,1,D,,,,,,Space,keypress(Space),,,,silence,,,,--- ---- ------ --- ------- ---------- ------- ----------<br>--- --------- --- ----------- ------- ----- ------- ---<br>--------- ---- -- --- ---- -- --------- -- ---- -------<br>-- --------- ------ --- ----- ------ ---- --- sunspots. --<br>------ - ---- -- --- ----------- ------- ---- ----- -----<br>--- -------- - ------ ---- -- ----- ---- --- --- -----------<br>-- -------,231962.05000008922,231961.25000005122,231728.887,231742.1200000681,231745.385,231979.101,,34,sunspots.
screen,html.Screen,1_3_1_0_1_35,2021-04-18T16:42:56.520Z,,,,,,,,,,,,,,,,2,,,,,,,,,,,,,,215.71400005350006,,response,,,,1,D,,,,,,Space,keypress(Space),,,,silence,,,,--- ---- ------ --- ------- ---------- ------- ----------<br>--- --------- --- ----------- ------- ----- ------- ---<br>--------- ---- -- --- ---- -- --------- -- ---- -------<br>-- --------- ------ --- ----- ------ ---- --- --------- He<br>------ - ---- -- --- ----------- ------- ---- ----- -----<br>--- -------- - ------ ---- -- ----- ---- --- --- -----------<br>-- -------,232195.93000004534,232194.8150000535,231962.057,231962.23500010092,231979.101,232212.506,,35,He
screen,html.Screen,1_3_1_0_1_36,2021-04-18T16:42:56.877Z,,,,,,,,,,,,,,,,2,,,,,,,,,,,,,,338.6690000296221,,response,,,,1,D,,,,,,Space,keypress(Space),,,,silence,,,,--- ---- ------ --- ------- ---------- ------- ----------<br>--- --------- --- ----------- ------- ----- ------- ---<br>--------- ---- -- --- ---- -- --------- -- ---- -------<br>-- --------- ------ --- ----- ------ ---- --- --------- --<br>jotted - ---- -- --- ----------- ------- ---- ----- -----<br>--- -------- - ------ ---- -- ----- ---- --- --- -----------<br>-- -------,232552.25000006612,232551.17500002962,232195.914,232196.1200000951,232212.506,232562.282,,36,jotted
