sender,sender_type,sender_id,timestamp,meta,,Blues,Classical,Country,Dance,Electronic,Folk,Gospel,Hip-Hop,Jazz,Latin,Musical/Film,New-age,Pop,Provo_ID,R&B,Rap,Reggae,Religious,Rock,Soul,Swing,Traditional,age,artist_name,correct,correctResponse,distraction,duration,education,ended_on,familiarity,gender,headphone_check_performance,item,list,music_frequency,offensiveness,pleasantness,position_correct,preference,response,response_action,snippet_file,song_name,song_rating,sound,stimulus_1,stimulus_2,stimulus_3,text,time_commit,time_end,time_render,time_run,time_show,time_switch,url,word,word_ID
Introduction,html.Screen,0_0,2021-04-22T13:57:39.571Z,"{""labjs_version"":""20.2.2"",""labjs_build"":{""flavor"":""production"",""commit"":""a25486e0c714a0ae2ce03ff94b7bb6896854dcfa""},""location"":""https://run.pavlovia.org/mvasilev/music_d/"",""userAgent"":""Mozilla/5.0 (Macintosh; Intel Mac OS X 10_15_7) AppleWebKit/605.1.15 (KHTML, like Gecko) Version/13.1.3 Safari/605.1.15"",""platform"":""MacIntel"",""language"":""en-gb"",""locale"":""en-GB"",""timeZone"":""Europe/London"",""timezoneOffset"":-60,""screen_width"":1280,""screen_height"":800,""scroll_width"":1280,""scroll_height"":689,""window_innerWidth"":1280,""window_innerHeight"":737,""devicePixelRatio"":2}",,,,,,,,,,,,,,,,,,,,,,,,,,,,,1507,,response,,,,,,,,,,,continue,click button,,,,,,,,,8035,7909,6402,6377,6418,8053,{},,
Volume calibration,html.Screen,0_1,2021-04-22T13:58:05.093Z,,,,,,,,,,,,,,,,,,,,,,,,,,,,,,25387,,response,,,,,,,,,,,continue,click button,,,,,,,,,33555,33427,8040,8035,8053,33578,,,
Task instructions,html.Screen,0_2,2021-04-22T13:58:19.022Z,,,,,,,,,,,,,,,,,,,,,,,,,,,,,,13797.000000000007,,response,,,,,,,,,,,continue,click button,,,,,,,,,47484,47358.00000000001,33561,33556,33578,47508,,,
Sounds,html.Screen,0_3_0_0,2021-04-22T13:58:23.281Z,,,,,,,,,,,,,,,,,,,,,,,,,,,,,,4252,,timeout,,,,,,,,,1,,,,,,,,S,O,I,,51744,51743,47492,47485,47508,51760,,,
Judgement,html.Screen,0_3_0_1,2021-04-22T13:58:24.583Z,,,,,,,,,,,,,,,,,,,,,,,,,,,true,1,,1175,,response,,,,,,,,,1,,1,click #choice-1,,,,,S,O,I,,53045,52918,51743,51744,51760,53077,,,
Trial,flow.Sequence,0_3_0,2021-04-22T13:58:24.584Z,,,,,,,,,,,,,,,,,,,,,,,,,,,,,,5410,,completion,,,,,,,,,1,,,,,,,,S,O,I,,53046,52918,47492,47485,47508,53077,,,
Sounds,html.Screen,0_3_1_0,2021-04-22T13:58:28.854Z,,,,,,,,,,,,,,,,,,,,,,,,,,,,,,4255,,timeout,,,,,,,,,3,,,,,,,,O,I,S,,57316,57315,53061,53047.00000000001,53077,57332,,,
Judgement,html.Screen,0_3_1_1,2021-04-22T13:58:29.535Z,,,,,,,,,,,,,,,,,,,,,,,,,,,true,3,,555.0000000000073,,response,,,,,,,,,3,,3,click #choice-3,,,,,O,I,S,,57997,57870.00000000001,57315,57316,57332,58017,,,
Trial,flow.Sequence,0_3_1,2021-04-22T13:58:29.535Z,,,,,,,,,,,,,,,,,,,,,,,,,,,,,,4793.000000000007,,completion,,,,,,,,,3,,,,,,,,O,I,S,,57997,57870.00000000001,53061,53047.00000000001,53077,58017,,,
Sounds,html.Screen,0_3_2_0,2021-04-22T13:58:33.789Z,,,,,,,,,,,,,,,,,,,,,,,,,,,,,,4251,,timeout,,,,,,,,,1,,,,,,,,S,I,O,,62251.00000000001,62251,57999,57997,58017,62268,,,
Judgement,html.Screen,0_3_2_1,2021-04-22T13:58:34.326Z,,,,,,,,,,,,,,,,,,,,,,,,,,,true,1,,410,,response,,,,,,,,,1,,1,click #choice-1,,,,,S,I,O,,62788.00000000001,62661,62251,62252,62268,62818,,,
Trial,flow.Sequence,0_3_2,2021-04-22T13:58:34.326Z,,,,,,,,,,,,,,,,,,,,,,,,,,,,,,4644,,completion,,,,,,,,,1,,,,,,,,S,I,O,,62788.00000000001,62661,57999,57997,58017,62818,,,
Sounds,html.Screen,0_3_3_0,2021-04-22T13:58:38.591Z,,,,,,,,,,,,,,,,,,,,,,,,,,,,,,4252,,timeout,,,,,,,,,2,,,,,,,,I,S,O,,67053,67053,62801,62788.00000000001,62818,67070,,,
Judgement,html.Screen,0_3_3_1,2021-04-22T13:58:39.053Z,,,,,,,,,,,,,,,,,,,,,,,,,,,true,2,,334,,response,,,,,,,,,2,,2,click #choice-2,,,,,I,S,O,,67514,67387,67053,67053,67070,67537,,,
Trial,flow.Sequence,0_3_3,2021-04-22T13:58:39.053Z,,,,,,,,,,,,,,,,,,,,,,,,,,,,,,4569,,completion,,,,,,,,,2,,,,,,,,I,S,O,,67515,67387,62801,62788.00000000001,62818,67537,,,
Sounds,html.Screen,0_3_4_0,2021-04-22T13:58:43.310Z,,,,,,,,,,,,,,,,,,,,,,,,,,,,,,4252,,timeout,,,,,,,,,3,,,,,,,,I,O,S,,71772,71772,67520,67515,67537,71789,,,
Judgement,html.Screen,0_3_4_1,2021-04-22T13:58:43.827Z,,,,,,,,,,,,,,,,,,,,,,,,,,,false,3,,389,,response,,,,,,,,,3,,1,click #choice-1,,,,,I,O,S,,72289,72161,71772,71772,71789,72322,,,
Trial,flow.Sequence,0_3_4,2021-04-22T13:58:43.827Z,,,,,,,,,,,,,,,,,,,,,,,,,,,,,,4624,,completion,,,,,,,,,3,,,,,,,,I,O,S,,72289,72161,67520,67515,67537,72322,,,
Sounds,html.Screen,0_3_5_0,2021-04-22T13:58:48.100Z,,,,,,,,,,,,,,,,,,,,,,,,,,,,,,4255,,timeout,,,,,,,,,2,,,,,,,,O,S,I,,76561,76561,72306,72289,72322,76577,,,
Judgement,html.Screen,0_3_5_1,2021-04-22T13:58:48.601Z,,,,,,,,,,,,,,,,,,,,,,,,,,,true,2,,375,,response,,,,,,,,,2,,2,click #choice-2,,,,,O,S,I,,77063,76936,76561,76561,76577,77095,,,
Trial,flow.Sequence,0_3_5,2021-04-22T13:58:48.602Z,,,,,,,,,,,,,,,,,,,,,,,,,,,,,,4614,,completion,,,,,,,,,2,,,,,,,,O,S,I,,77063,76936,72306,72289,72322,77095,,,
Task,flow.Loop,0_3,2021-04-22T13:58:48.604Z,,,,,,,,,,,,,,,,,,,,,,,,,,,,,,29428,,completion,,,0.8333333333333334,,,,,,,,,,,,,,,,,,77065,76936,47492,47485,47508,77095,,,
Trap,html.Screen,0_4,2021-04-22T13:58:48.605Z,,,,,,,,,,,,,,,,,,,,,,,,,,,,,,NaN,,skipped,,,,,,,,,,,,,,,,,,,,,77066,76936,,77066,,77095,,,
Thanks,html.Screen,0_5,2021-04-22T13:58:53.376Z,,,,,,,,,,,,,,,,,,,,,,,,,,,,,,4631,,response,,,,,,,,,,,continue,click button,,,,,,,,,81837,81709,77078,77067,77095,85359,,,
Headphone screening,flow.Sequence,0,2021-04-22T13:58:53.376Z,,,,,,,,,,,,,,,,,,,,,,,,,,,,,,75291,,completion,,,,,,,,,,,,,,,,,,,,,81838.00000000001,81709,6402,6377,6418,85359,,,
Instructions,html.Page,1_0,2021-04-22T13:59:19.520Z,,,,,,,,,,,,,,,,,,,,,,,,,,,,,,22621,,form submission,,,,,,,,,,,,,,,,,,,,,107981.00000000001,107980,85342,85330,85359,107997,,,
Holding screen,html.Screen,1_1_0_0,2021-04-22T13:59:29.526Z,,,,,,,,,,,,,,,,,,,,,,,,,,,,,,10007,,timeout,,,,,,,,,,,,,,,,,,,,,117987.00000000001,117986,107985,107981.00000000001,107997,118004,,,
screen,html.Screen,1_1_0_1_0,2021-04-22T13:59:30.982Z,,,,,,,,,,,,,,,,53,,,,,,,,,,,,,,1326,,response,,,,99,,,,,,,Space,keypress(Space),,,,,,,,When -- ----- -- ------ - ------- --- ----------<br>------------- ------ ------ ---- ---- ------- ----- -- ----<br>-------- ------- -- ---------- --- - --- ----- ----- ----<br>---- --- --- ----- --- ---- ---- ------- ----- ---- -------<br>--- --- -- ----- -- --- ---- -- --- ---- -- ------ ------<br>--- ----- -- ----,119442,119312,117986,117987.00000000001,118004,119470,,0,When
screen,html.Screen,1_1_0_1_1,2021-04-22T13:59:32.899Z,,,,,,,,,,,,,,,,53,,,,,,,,,,,,,,1775,,response,,,,99,,,,,,,Space,keypress(Space),,,,,,,,---- it ----- -- ------ - ------- --- ----------<br>------------- ------ ------ ---- ---- ------- ----- -- ----<br>-------- ------- -- ---------- --- - --- ----- ----- ----<br>---- --- --- ----- --- ---- ---- ------- ----- ---- -------<br>--- --- -- ----- -- --- ---- -- --- ---- -- ------ ------<br>--- ----- -- ----,121359.00000000001,121229,119454,119443,119470,121391,,1,it
screen,html.Screen,1_1_0_1_2,2021-04-22T13:59:33.797Z,,,,,,,,,,,,,,,,53,,,,,,,,,,,,,,754,,response,,,,99,,,,,,,Space,keypress(Space),,,,,,,,---- -- comes -- ------ - ------- --- ----------<br>------------- ------ ------ ---- ---- ------- ----- -- ----<br>-------- ------- -- ---------- --- - --- ----- ----- ----<br>---- --- --- ----- --- ---- ---- ------- ----- ---- -------<br>--- --- -- ----- -- --- ---- -- --- ---- -- ------ ------<br>--- ----- -- ----,122258,122128,121374,121359.00000000001,121391,122291,,2,comes
screen,html.Screen,1_1_0_1_3,2021-04-22T13:59:34.895Z,,,,,,,,,,,,,,,,53,,,,,,,,,,,,,,950.0000000000146,,response,,,,99,,,,,,,Space,keypress(Space),,,,,,,,---- -- ----- to ------ - ------- --- ----------<br>------------- ------ ------ ---- ---- ------- ----- -- ----<br>-------- ------- -- ---------- --- - --- ----- ----- ----<br>---- --- --- ----- --- ---- ---- ------- ----- ---- -------<br>--- --- -- ----- -- --- ---- -- --- ---- -- ------ ------<br>--- ----- -- ----,123355,123225.00000000001,122275,122258,122291,123391,,3,to
screen,html.Screen,1_1_0_1_4,2021-04-22T13:59:35.789Z,,,,,,,,,,,,,,,,53,,,,,,,,,,,,,,744,,response,,,,99,,,,,,,Space,keypress(Space),,,,,,,,---- -- ----- -- having - ------- --- ----------<br>------------- ------ ------ ---- ---- ------- ----- -- ----<br>-------- ------- -- ---------- --- - --- ----- ----- ----<br>---- --- --- ----- --- ---- ---- ------- ----- ---- -------<br>--- --- -- ----- -- --- ---- -- --- ---- -- ------ ------<br>--- ----- -- ----,124249.00000000001,124119,123375,123355,123391,124276,,4,having
screen,html.Screen,1_1_0_1_5,2021-04-22T13:59:36.378Z,,,,,,,,,,,,,,,,53,,,,,,,,,,,,,,449,,response,,,,99,,,,,,,Space,keypress(Space),,,,,,,,---- -- ----- -- ------ a ------- --- ----------<br>------------- ------ ------ ---- ---- ------- ----- -- ----<br>-------- ------- -- ---------- --- - --- ----- ----- ----<br>---- --- --- ----- --- ---- ---- ------- ----- ---- -------<br>--- --- -- ----- -- --- ---- -- --- ---- -- ------ ------<br>--- ----- -- ----,124838.00000000001,124708,124259,124249.00000000001,124276,124875,,5,a
screen,html.Screen,1_1_0_1_6,2021-04-22T13:59:37.128Z,,,,,,,,,,,,,,,,53,,,,,,,,,,,,,,599,,response,,,,99,,,,,,,Space,keypress(Space),,,,,,,,---- -- ----- -- ------ - lasting --- ----------<br>------------- ------ ------ ---- ---- ------- ----- -- ----<br>-------- ------- -- ---------- --- - --- ----- ----- ----<br>---- --- --- ----- --- ---- ---- ------- ----- ---- -------<br>--- --- -- ----- -- --- ---- -- --- ---- -- ------ ------<br>--- ----- -- ----,125588.00000000001,125458,124859,124838.00000000001,124875,125626,,6,lasting
screen,html.Screen,1_1_0_1_7,2021-04-22T13:59:37.840Z,,,,,,,,,,,,,,,,53,,,,,,,,,,,,,,560,,response,,,,99,,,,,,,Space,keypress(Space),,,,,,,,---- -- ----- -- ------ - ------- and ----------<br>------------- ------ ------ ---- ---- ------- ----- -- ----<br>-------- ------- -- ---------- --- - --- ----- ----- ----<br>---- --- --- ----- --- ---- ---- ------- ----- ---- -------<br>--- --- -- ----- -- --- ---- -- --- ---- -- ------ ------<br>--- ----- -- ----,126300,126170,125610,125589,125626,126343,,7,and
screen,html.Screen,1_1_0_1_8,2021-04-22T13:59:38.590Z,,,,,,,,,,,,,,,,53,,,,,,,,,,,,,,592,,response,,,,99,,,,,,,Space,keypress(Space),,,,,,,,---- -- ----- -- ------ - ------- --- fulfilling<br>------------- ------ ------ ---- ---- ------- ----- -- ----<br>-------- ------- -- ---------- --- - --- ----- ----- ----<br>---- --- --- ----- --- ---- ---- ------- ----- ---- -------<br>--- --- -- ----- -- --- ---- -- --- ---- -- ------ ------<br>--- ----- -- ----,127049,126919,126327,126301,126343,127080,,8,fulfilling
screen,html.Screen,1_1_0_1_9,2021-04-22T13:59:40.158Z,,,,,,,,,,,,,,,,53,,,,,,,,,,,,,,1425,,response,,,,99,,,,,,,Space,keypress(Space),,,,,,,,"---- -- ----- -- ------ - ------- --- ----------<br>relationship, ------ ------ ---- ---- ------- ----- -- ----<br>-------- ------- -- ---------- --- - --- ----- ----- ----<br>---- --- --- ----- --- ---- ---- ------- ----- ---- -------<br>--- --- -- ----- -- --- ---- -- --- ---- -- ------ ------<br>--- ----- -- ----",128618,128488,127063,127050,127080,128647,,9,"relationship,"
screen,html.Screen,1_1_0_1_10,2021-04-22T13:59:41.002Z,,,,,,,,,,,,,,,,53,,,,,,,,,,,,,,700,,response,,,,99,,,,,,,Space,keypress(Space),,,,,,,,---- -- ----- -- ------ - ------- --- ----------<br>------------- common ------ ---- ---- ------- ----- -- ----<br>-------- ------- -- ---------- --- - --- ----- ----- ----<br>---- --- --- ----- --- ---- ---- ------- ----- ---- -------<br>--- --- -- ----- -- --- ---- -- --- ---- -- ------ ------<br>--- ----- -- ----,129461.99999999999,129332,128632,128618,128647,129498,,10,common
screen,html.Screen,1_1_0_1_11,2021-04-22T13:59:41.833Z,,,,,,,,,,,,,,,,53,,,,,,,,,,,,,,681.0000000000146,,response,,,,99,,,,,,,Space,keypress(Space),,,,,,,,---- -- ----- -- ------ - ------- --- ----------<br>------------- ------ wisdom ---- ---- ------- ----- -- ----<br>-------- ------- -- ---------- --- - --- ----- ----- ----<br>---- --- --- ----- --- ---- ---- ------- ----- ---- -------<br>--- --- -- ----- -- --- ---- -- --- ---- -- ------ ------<br>--- ----- -- ----,130293,130163.00000000001,129482,129461.99999999999,129498,130333,,11,wisdom
screen,html.Screen,1_1_0_1_12,2021-04-22T13:59:42.858Z,,,,,,,,,,,,,,,,53,,,,,,,,,,,,,,872.0000000000291,,response,,,,99,,,,,,,Space,keypress(Space),,,,,,,,---- -- ----- -- ------ - ------- --- ----------<br>------------- ------ ------ says ---- ------- ----- -- ----<br>-------- ------- -- ---------- --- - --- ----- ----- ----<br>---- --- --- ----- --- ---- ---- ------- ----- ---- -------<br>--- --- -- ----- -- --- ---- -- --- ---- -- ------ ------<br>--- ----- -- ----,131318,131188.00000000003,130316,130293,130333,131349,,12,says
screen,html.Screen,1_1_0_1_13,2021-04-22T13:59:43.711Z,,,,,,,,,,,,,,,,53,,,,,,,,,,,,,,708,,response,,,,99,,,,,,,Space,keypress(Space),,,,,,,,---- -- ----- -- ------ - ------- --- ----------<br>------------- ------ ------ ---- that ------- ----- -- ----<br>-------- ------- -- ---------- --- - --- ----- ----- ----<br>---- --- --- ----- --- ---- ---- ------- ----- ---- -------<br>--- --- -- ----- -- --- ---- -- --- ---- -- ------ ------<br>--- ----- -- ----,132171,132041,131333,131318,131349,132202,,13,that
screen,html.Screen,1_1_0_1_14,2021-04-22T13:59:44.558Z,,,,,,,,,,,,,,,,53,,,,,,,,,,,,,,703,,response,,,,99,,,,,,,Space,keypress(Space),,,,,,,,---- -- ----- -- ------ - ------- --- ----------<br>------------- ------ ------ ---- ---- feeling ----- -- ----<br>-------- ------- -- ---------- --- - --- ----- ----- ----<br>---- --- --- ----- --- ---- ---- ------- ----- ---- -------<br>--- --- -- ----- -- --- ---- -- --- ---- -- ------ ------<br>--- ----- -- ----,133018,132888,132185,132171,132202,133052,,14,feeling
screen,html.Screen,1_1_0_1_15,2021-04-22T13:59:45.430Z,,,,,,,,,,,,,,,,53,,,,,,,,,,,,,,725,,response,,,,99,,,,,,,Space,keypress(Space),,,,,,,,---- -- ----- -- ------ - ------- --- ----------<br>------------- ------ ------ ---- ---- ------- close -- ----<br>-------- ------- -- ---------- --- - --- ----- ----- ----<br>---- --- --- ----- --- ---- ---- ------- ----- ---- -------<br>--- --- -- ----- -- --- ---- -- --- ---- -- ------ ------<br>--- ----- -- ----,133890.00000000003,133760,133035,133018,133052,133920,,15,close
screen,html.Screen,1_1_0_1_16,2021-04-22T13:59:46.393Z,,,,,,,,,,,,,,,,53,,,,,,,,,,,,,,819,,response,,,,99,,,,,,,Space,keypress(Space),,,,,,,,---- -- ----- -- ------ - ------- --- ----------<br>------------- ------ ------ ---- ---- ------- ----- to ----<br>-------- ------- -- ---------- --- - --- ----- ----- ----<br>---- --- --- ----- --- ---- ---- ------- ----- ---- -------<br>--- --- -- ----- -- --- ---- -- --- ---- -- ------ ------<br>--- ----- -- ----,134852,134722,133903,133890.00000000003,133920,134887,,16,to
screen,html.Screen,1_1_0_1_17,2021-04-22T13:59:47.149Z,,,,,,,,,,,,,,,,53,,,,,,,,,,,,,,609,,response,,,,99,,,,,,,Space,keypress(Space),,,,,,,,---- -- ----- -- ------ - ------- --- ----------<br>------------- ------ ------ ---- ---- ------- ----- -- your<br>-------- ------- -- ---------- --- - --- ----- ----- ----<br>---- --- --- ----- --- ---- ---- ------- ----- ---- -------<br>--- --- -- ----- -- --- ---- -- --- ---- -- ------ ------<br>--- ----- -- ----,135609,135479,134870,134852,134887,135636,,17,your
screen,html.Screen,1_1_0_1_18,2021-04-22T13:59:48.021Z,,,,,,,,,,,,,,,,53,,,,,,,,,,,,,,731,,response,,,,99,,,,,,,Space,keypress(Space),,,,,,,,---- -- ----- -- ------ - ------- --- ----------<br>------------- ------ ------ ---- ---- ------- ----- -- ----<br>romantic ------- -- ---------- --- - --- ----- ----- ----<br>---- --- --- ----- --- ---- ---- ------- ----- ---- -------<br>--- --- -- ----- -- --- ---- -- --- ---- -- ------ ------<br>--- ----- -- ----,136481,136351,135620,135609,135636,136524,,18,romantic
screen,html.Screen,1_1_0_1_19,2021-04-22T13:59:48.918Z,,,,,,,,,,,,,,,,53,,,,,,,,,,,,,,741,,response,,,,99,,,,,,,Space,keypress(Space),,,,,,,,---- -- ----- -- ------ - ------- --- ----------<br>------------- ------ ------ ---- ---- ------- ----- -- ----<br>-------- partner -- ---------- --- - --- ----- ----- ----<br>---- --- --- ----- --- ---- ---- ------- ----- ---- -------<br>--- --- -- ----- -- --- ---- -- --- ---- -- ------ ------<br>--- ----- -- ----,137378,137248,136507,136481,136524,137407,,19,partner
screen,html.Screen,1_1_0_1_20,2021-04-22T13:59:49.624Z,,,,,,,,,,,,,,,,53,,,,,,,,,,,,,,562,,response,,,,99,,,,,,,Space,keypress(Space),,,,,,,,---- -- ----- -- ------ - ------- --- ----------<br>------------- ------ ------ ---- ---- ------- ----- -- ----<br>-------- ------- is ---------- --- - --- ----- ----- ----<br>---- --- --- ----- --- ---- ---- ------- ----- ---- -------<br>--- --- -- ----- -- --- ---- -- --- ---- -- ------ ------<br>--- ----- -- ----,138084,137953,137391,137378,137407,138124,,20,is
screen,html.Screen,1_1_0_1_21,2021-04-22T13:59:51.755Z,,,,,,,,,,,,,,,,53,,,,,,,,,,,,,,1976,,response,,,,99,,,,,,,Space,keypress(Space),,,,,,,,---- -- ----- -- ------ - ------- --- ----------<br>------------- ------ ------ ---- ---- ------- ----- -- ----<br>-------- ------- -- paramount. --- - --- ----- ----- ----<br>---- --- --- ----- --- ---- ---- ------- ----- ---- -------<br>--- --- -- ----- -- --- ---- -- --- ---- -- ------ ------<br>--- ----- -- ----,140215,140084,138108,138084,138124,140242,,21,paramount.
screen,html.Screen,1_1_0_1_22,2021-04-22T13:59:52.568Z,,,,,,,,,,,,,,,,53,,,,,,,,,,,,,,672,,response,,,,99,,,,,,,Space,keypress(Space),,,,,,,,---- -- ----- -- ------ - ------- --- ----------<br>------------- ------ ------ ---- ---- ------- ----- -- ----<br>-------- ------- -- ---------- But - --- ----- ----- ----<br>---- --- --- ----- --- ---- ---- ------- ----- ---- -------<br>--- --- -- ----- -- --- ---- -- --- ---- -- ------ ------<br>--- ----- -- ----,141028,140897,140225,140215,140242,141058,,22,But
screen,html.Screen,1_1_0_1_23,2021-04-22T13:59:53.114Z,,,,,,,,,,,,,,,,53,,,,,,,,,,,,,,400,,response,,,,99,,,,,,,Space,keypress(Space),,,,,,,,---- -- ----- -- ------ - ------- --- ----------<br>------------- ------ ------ ---- ---- ------- ----- -- ----<br>-------- ------- -- ---------- --- a --- ----- ----- ----<br>---- --- --- ----- --- ---- ---- ------- ----- ---- -------<br>--- --- -- ----- -- --- ---- -- --- ---- -- ------ ------<br>--- ----- -- ----,141574,141443,141043,141028,141058,141613,,23,a
screen,html.Screen,1_1_0_1_24,2021-04-22T13:59:53.820Z,,,,,,,,,,,,,,,,53,,,,,,,,,,,,,,553,,response,,,,99,,,,,,,Space,keypress(Space),,,,,,,,---- -- ----- -- ------ - ------- --- ----------<br>------------- ------ ------ ---- ---- ------- ----- -- ----<br>-------- ------- -- ---------- --- - new ----- ----- ----<br>---- --- --- ----- --- ---- ---- ------- ----- ---- -------<br>--- --- -- ----- -- --- ---- -- --- ---- -- ------ ------<br>--- ----- -- ----,142279,142149,141596,141574,141613,142312,,24,new
screen,html.Screen,1_1_0_1_25,2021-04-22T13:59:54.529Z,,,,,,,,,,,,,,,,53,,,,,,,,,,,,,,562,,response,,,,99,,,,,,,Space,keypress(Space),,,,,,,,---- -- ----- -- ------ - ------- --- ----------<br>------------- ------ ------ ---- ---- ------- ----- -- ----<br>-------- ------- -- ---------- --- - --- study ----- ----<br>---- --- --- ----- --- ---- ---- ------- ----- ---- -------<br>--- --- -- ----- -- --- ---- -- --- ---- -- ------ ------<br>--- ----- -- ----,142989,142858,142296,142280,142312,143029,,25,study
screen,html.Screen,1_1_0_1_26,2021-04-22T13:59:55.224Z,,,,,,,,,,,,,,,,53,,,,,,,,,,,,,,540,,response,,,,99,,,,,,,Space,keypress(Space),,,,,,,,---- -- ----- -- ------ - ------- --- ----------<br>------------- ------ ------ ---- ---- ------- ----- -- ----<br>-------- ------- -- ---------- --- - --- ----- finds ----<br>---- --- --- ----- --- ---- ---- ------- ----- ---- -------<br>--- --- -- ----- -- --- ---- -- --- ---- -- ------ ------<br>--- ----- -- ----,143684,143553,143013,142989,143029,143714,,26,finds
screen,html.Screen,1_1_0_1_27,2021-04-22T13:59:55.886Z,,,,,,,,,,,,,,,,53,,,,,,,,,,,,,,518,,response,,,,99,,,,,,,Space,keypress(Space),,,,,,,,---- -- ----- -- ------ - ------- --- ----------<br>------------- ------ ------ ---- ---- ------- ----- -- ----<br>-------- ------- -- ---------- --- - --- ----- ----- that<br>---- --- --- ----- --- ---- ---- ------- ----- ---- -------<br>--- --- -- ----- -- --- ---- -- --- ---- -- ------ ------<br>--- ----- -- ----,144346,144215,143697,143684,143714,144381,,27,that
screen,html.Screen,1_1_0_1_28,2021-04-22T13:59:56.647Z,,,,,,,,,,,,,,,,53,,,,,,,,,,,,,,612,,response,,,,99,,,,,,,Space,keypress(Space),,,,,,,,---- -- ----- -- ------ - ------- --- ----------<br>------------- ------ ------ ---- ---- ------- ----- -- ----<br>-------- ------- -- ---------- --- - --- ----- ----- ----<br>it's --- --- ----- --- ---- ---- ------- ----- ---- -------<br>--- --- -- ----- -- --- ---- -- --- ---- -- ------ ------<br>--- ----- -- ----,145106,144976,144364,144346,144381,145148,,28,it's
screen,html.Screen,1_1_0_1_29,2021-04-22T13:59:57.179Z,,,,,,,,,,,,,,,,53,,,,,,,,,,,,,,377,,response,,,,99,,,,,,,Space,keypress(Space),,,,,,,,---- -- ----- -- ------ - ------- --- ----------<br>------------- ------ ------ ---- ---- ------- ----- -- ----<br>-------- ------- -- ---------- --- - --- ----- ----- ----<br>---- not --- ----- --- ---- ---- ------- ----- ---- -------<br>--- --- -- ----- -- --- ---- -- --- ---- -- ------ ------<br>--- ----- -- ----,145638,145508,145131,145107,145148,145681,,29,not
screen,html.Screen,1_1_0_1_30,2021-04-22T13:59:57.954Z,,,,,,,,,,,,,,,,53,,,,,,,,,,,,,,618.0000000000291,,response,,,,99,,,,,,,Space,keypress(Space),,,,,,,,---- -- ----- -- ------ - ------- --- ----------<br>------------- ------ ------ ---- ---- ------- ----- -- ----<br>-------- ------- -- ---------- --- - --- ----- ----- ----<br>---- --- how ----- --- ---- ---- ------- ----- ---- -------<br>--- --- -- ----- -- --- ---- -- --- ---- -- ------ ------<br>--- ----- -- ----,146413,146283.00000000003,145665,145639,145681,146448,,30,how
screen,html.Screen,1_1_0_1_31,2021-04-22T13:59:58.619Z,,,,,,,,,,,,,,,,53,,,,,,,,,,,,,,516,,response,,,,99,,,,,,,Space,keypress(Space),,,,,,,,---- -- ----- -- ------ - ------- --- ----------<br>------------- ------ ------ ---- ---- ------- ----- -- ----<br>-------- ------- -- ---------- --- - --- ----- ----- ----<br>---- --- --- close --- ---- ---- ------- ----- ---- -------<br>--- --- -- ----- -- --- ---- -- --- ---- -- ------ ------<br>--- ----- -- ----,147078,146948,146432,146413,146448,147104,,31,close
screen,html.Screen,1_1_0_1_32,2021-04-22T13:59:59.167Z,,,,,,,,,,,,,,,,53,,,,,,,,,,,,,,407,,response,,,,99,,,,,,,Space,keypress(Space),,,,,,,,---- -- ----- -- ------ - ------- --- ----------<br>------------- ------ ------ ---- ---- ------- ----- -- ----<br>-------- ------- -- ---------- --- - --- ----- ----- ----<br>---- --- --- ----- you ---- ---- ------- ----- ---- -------<br>--- --- -- ----- -- --- ---- -- --- ---- -- ------ ------<br>--- ----- -- ----,147626,147496,147089,147078,147104,147655,,32,you
screen,html.Screen,1_1_0_1_33,2021-04-22T13:59:59.817Z,,,,,,,,,,,,,,,,53,,,,,,,,,,,,,,507.0000000000291,,response,,,,99,,,,,,,Space,keypress(Space),,,,,,,,---- -- ----- -- ------ - ------- --- ----------<br>------------- ------ ------ ---- ---- ------- ----- -- ----<br>-------- ------- -- ---------- --- - --- ----- ----- ----<br>---- --- --- ----- --- feel ---- ------- ----- ---- -------<br>--- --- -- ----- -- --- ---- -- --- ---- -- ------ ------<br>--- ----- -- ----,148276,148146.00000000003,147639,147626,147655,148306,,33,feel
screen,html.Screen,1_1_0_1_34,2021-04-22T14:00:00.358Z,,,,,,,,,,,,,,,,53,,,,,,,,,,,,,,398,,response,,,,99,,,,,,,Space,keypress(Space),,,,,,,,---- -- ----- -- ------ - ------- --- ----------<br>------------- ------ ------ ---- ---- ------- ----- -- ----<br>-------- ------- -- ---------- --- - --- ----- ----- ----<br>---- --- --- ----- --- ---- that ------- ----- ---- -------<br>--- --- -- ----- -- --- ---- -- --- ---- -- ------ ------<br>--- ----- -- ----,148817,148687,148289,148276,148306,148856,,34,that
screen,html.Screen,1_1_0_1_35,2021-04-22T14:00:01.238Z,,,,,,,,,,,,,,,,53,,,,,,,,,,,,,,728,,response,,,,99,,,,,,,Space,keypress(Space),,,,,,,,---- -- ----- -- ------ - ------- --- ----------<br>------------- ------ ------ ---- ---- ------- ----- -- ----<br>-------- ------- -- ---------- --- - --- ----- ----- ----<br>---- --- --- ----- --- ---- ---- matters ----- ---- -------<br>--- --- -- ----- -- --- ---- -- --- ---- -- ------ ------<br>--- ----- -- ----,149697,149567,148839,148817,148856,149740,,35,matters
screen,html.Screen,1_1_0_1_36,2021-04-22T14:00:02.528Z,,,,,,,,,,,,,,,,53,,,,,,,,,,,,,,1134,,response,,,,99,,,,,,,Space,keypress(Space),,,,,,,,"---- -- ----- -- ------ - ------- --- ----------<br>------------- ------ ------ ---- ---- ------- ----- -- ----<br>-------- ------- -- ---------- --- - --- ----- ----- ----<br>---- --- --- ----- --- ---- ---- ------- most, ---- -------<br>--- --- -- ----- -- --- ---- -- --- ---- -- ------ ------<br>--- ----- -- ----",150987,150857,149723,149697,149740,151023,,36,"most,"
screen,html.Screen,1_1_0_1_37,2021-04-22T14:00:03.304Z,,,,,,,,,,,,,,,,53,,,,,,,,,,,,,,625,,response,,,,99,,,,,,,Space,keypress(Space),,,,,,,,---- -- ----- -- ------ - ------- --- ----------<br>------------- ------ ------ ---- ---- ------- ----- -- ----<br>-------- ------- -- ---------- --- - --- ----- ----- ----<br>---- --- --- ----- --- ---- ---- ------- ----- it's -------<br>--- --- -- ----- -- --- ---- -- --- ---- -- ------ ------<br>--- ----- -- ----,151763,151632,151007,150987,151023,151793,,37,it's
screen,html.Screen,1_1_0_1_38,2021-04-22T14:00:04.225Z,,,,,,,,,,,,,,,,53,,,,,,,,,,,,,,776,,response,,,,99,,,,,,,Space,keypress(Space),,,,,,,,---- -- ----- -- ------ - ------- --- ----------<br>------------- ------ ------ ---- ---- ------- ----- -- ----<br>-------- ------- -- ---------- --- - --- ----- ----- ----<br>---- --- --- ----- --- ---- ---- ------- ----- ---- whether<br>--- --- -- ----- -- --- ---- -- --- ---- -- ------ ------<br>--- ----- -- ----,152684,152553,151777,151763,151793,152726,,38,whether
screen,html.Screen,1_1_0_1_39,2021-04-22T14:00:04.996Z,,,,,,,,,,,,,,,,53,,,,,,,,,,,,,,614,,response,,,,99,,,,,,,Space,keypress(Space),,,,,,,,---- -- ----- -- ------ - ------- --- ----------<br>------------- ------ ------ ---- ---- ------- ----- -- ----<br>-------- ------- -- ---------- --- - --- ----- ----- ----<br>---- --- --- ----- --- ---- ---- ------- ----- ---- -------<br>you --- -- ----- -- --- ---- -- --- ---- -- ------ ------<br>--- ----- -- ----,153455,153324,152710,152684,152726,153493,,39,you
screen,html.Screen,1_1_0_1_40,2021-04-22T14:00:05.620Z,,,,,,,,,,,,,,,,53,,,,,,,,,,,,,,471,,response,,,,99,,,,,,,Space,keypress(Space),,,,,,,,---- -- ----- -- ------ - ------- --- ----------<br>------------- ------ ------ ---- ---- ------- ----- -- ----<br>-------- ------- -- ---------- --- - --- ----- ----- ----<br>---- --- --- ----- --- ---- ---- ------- ----- ---- -------<br>--- are -- ----- -- --- ---- -- --- ---- -- ------ ------<br>--- ----- -- ----,154079,153948,153477,153455,153493,154111,,40,are
screen,html.Screen,1_1_0_1_41,2021-04-22T14:00:06.710Z,,,,,,,,,,,,,,,,53,,,,,,,,,,,,,,944,,response,,,,99,,,,,,,Space,keypress(Space),,,,,,,,---- -- ----- -- ------ - ------- --- ----------<br>------------- ------ ------ ---- ---- ------- ----- -- ----<br>-------- ------- -- ---------- --- - --- ----- ----- ----<br>---- --- --- ----- --- ---- ---- ------- ----- ---- -------<br>--- --- as ----- -- --- ---- -- --- ---- -- ------ ------<br>--- ----- -- ----,155169,155038,154094,154079,154111,155211,,41,as
screen,html.Screen,1_1_0_1_42,2021-04-22T14:00:07.399Z,,,,,,,,,,,,,,,,53,,,,,,,,,,,,,,532,,response,,,,99,,,,,,,Space,keypress(Space),,,,,,,,---- -- ----- -- ------ - ------- --- ----------<br>------------- ------ ------ ---- ---- ------- ----- -- ----<br>-------- ------- -- ---------- --- - --- ----- ----- ----<br>---- --- --- ----- --- ---- ---- ------- ----- ---- -------<br>--- --- -- close -- --- ---- -- --- ---- -- ------ ------<br>--- ----- -- ----,155858,155727,155195,155169,155211,155895,,42,close
screen,html.Screen,1_1_0_1_43,2021-04-22T14:00:08.040Z,,,,,,,,,,,,,,,,53,,,,,,,,,,,,,,490,,response,,,,99,,,,,,,Space,keypress(Space),,,,,,,,---- -- ----- -- ------ - ------- --- ----------<br>------------- ------ ------ ---- ---- ------- ----- -- ----<br>-------- ------- -- ---------- --- - --- ----- ----- ----<br>---- --- --- ----- --- ---- ---- ------- ----- ---- -------<br>--- --- -- ----- as --- ---- -- --- ---- -- ------ ------<br>--- ----- -- ----,156499,156368,155878,155858,155895,156529,,43,as
screen,html.Screen,1_1_0_1_44,2021-04-22T14:00:08.738Z,,,,,,,,,,,,,,,,53,,,,,,,,,,,,,,554,,response,,,,99,,,,,,,Space,keypress(Space),,,,,,,,---- -- ----- -- ------ - ------- --- ----------<br>------------- ------ ------ ---- ---- ------- ----- -- ----<br>-------- ------- -- ---------- --- - --- ----- ----- ----<br>---- --- --- ----- --- ---- ---- ------- ----- ---- -------<br>--- --- -- ----- -- you ---- -- --- ---- -- ------ ------<br>--- ----- -- ----,157197,157066,156512,156499,156529,157236,,44,you
screen,html.Screen,1_1_0_1_45,2021-04-22T14:00:09.252Z,,,,,,,,,,,,,,,,53,,,,,,,,,,,,,,361,,response,,,,99,,,,,,,Space,keypress(Space),,,,,,,,---- -- ----- -- ------ - ------- --- ----------<br>------------- ------ ------ ---- ---- ------- ----- -- ----<br>-------- ------- -- ---------- --- - --- ----- ----- ----<br>---- --- --- ----- --- ---- ---- ------- ----- ---- -------<br>--- --- -- ----- -- --- want -- --- ---- -- ------ ------<br>--- ----- -- ----,157711,157580,157219,157197,157236,157753,,45,want
screen,html.Screen,1_1_0_1_46,2021-04-22T14:00:09.760Z,,,,,,,,,,,,,,,,53,,,,,,,,,,,,,,352,,response,,,,99,,,,,,,Space,keypress(Space),,,,,,,,---- -- ----- -- ------ - ------- --- ----------<br>------------- ------ ------ ---- ---- ------- ----- -- ----<br>-------- ------- -- ---------- --- - --- ----- ----- ----<br>---- --- --- ----- --- ---- ---- ------- ----- ---- -------<br>--- --- -- ----- -- --- ---- to --- ---- -- ------ ------<br>--- ----- -- ----,158219,158088,157736,157711,157753,158253,,46,to
screen,html.Screen,1_1_0_1_47,2021-04-22T14:00:16.736Z,,,,,,,,,,,,,,,,53,,,,,,,,,,,,,,6827.000000000029,,response,,,,99,,,,,,,Space,keypress(Space),,,,,,,,"---- -- ----- -- ------ - ------- --- ----------<br>------------- ------ ------ ---- ---- ------- ----- -- ----<br>-------- ------- -- ---------- --- - --- ----- ----- ----<br>---- --- --- ----- --- ---- ---- ------- ----- ---- -------<br>--- --- -- ----- -- --- ---- -- be, ---- -- ------ ------<br>--- ----- -- ----",165195,165063.00000000003,158236,158219,158253,165225,,47,"be,"
screen,html.Screen,1_1_0_1_48,2021-04-22T14:00:18.686Z,,,,,,,,,,,,,,,,53,,,,,,,,,,,,,,1805,,response,,,,99,,,,,,,Space,keypress(Space),,,,,,,,---- -- ----- -- ------ - ------- --- ----------<br>------------- ------ ------ ---- ---- ------- ----- -- ----<br>-------- ------- -- ---------- --- - --- ----- ----- ----<br>---- --- --- ----- --- ---- ---- ------- ----- ---- -------<br>--- --- -- ----- -- --- ---- -- --- even -- ------ ------<br>--- ----- -- ----,167145,167013,165208,165195,165225,167180,,48,even
screen,html.Screen,1_1_0_1_49,2021-04-22T14:00:19.221Z,,,,,,,,,,,,,,,,53,,,,,,,,,,,,,,385,,response,,,,99,,,,,,,Space,keypress(Space),,,,,,,,---- -- ----- -- ------ - ------- --- ----------<br>------------- ------ ------ ---- ---- ------- ----- -- ----<br>-------- ------- -- ---------- --- - --- ----- ----- ----<br>---- --- --- ----- --- ---- ---- ------- ----- ---- -------<br>--- --- -- ----- -- --- ---- -- --- ---- if ------ ------<br>--- ----- -- ----,167679,167548,167163,167145,167180,167713,,49,if
screen,html.Screen,1_1_0_1_50,2021-04-22T14:00:19.757Z,,,,,,,,,,,,,,,,53,,,,,,,,,,,,,,387,,response,,,,99,,,,,,,Space,keypress(Space),,,,,,,,---- -- ----- -- ------ - ------- --- ----------<br>------------- ------ ------ ---- ---- ------- ----- -- ----<br>-------- ------- -- ---------- --- - --- ----- ----- ----<br>---- --- --- ----- --- ---- ---- ------- ----- ---- -------<br>--- --- -- ----- -- --- ---- -- --- ---- -- that's ------<br>--- ----- -- ----,168215,168084,167697,167679,167713,168246,,50,that's
screen,html.Screen,1_1_0_1_51,2021-04-22T14:00:20.304Z,,,,,,,,,,,,,,,,53,,,,,,,,,,,,,,401,,response,,,,99,,,,,,,Space,keypress(Space),,,,,,,,---- -- ----- -- ------ - ------- --- ----------<br>------------- ------ ------ ---- ---- ------- ----- -- ----<br>-------- ------- -- ---------- --- - --- ----- ----- ----<br>---- --- --- ----- --- ---- ---- ------- ----- ---- -------<br>--- --- -- ----- -- --- ---- -- --- ---- -- ------ really<br>--- ----- -- ----,168762,168631,168230,168216,168246,168797,,51,really
screen,html.Screen,1_1_0_1_52,2021-04-22T14:00:20.794Z,,,,,,,,,,,,,,,,53,,,,,,,,,,,,,,340,,response,,,,99,,,,,,,Space,keypress(Space),,,,,,,,---- -- ----- -- ------ - ------- --- ----------<br>------------- ------ ------ ---- ---- ------- ----- -- ----<br>-------- ------- -- ---------- --- - --- ----- ----- ----<br>---- --- --- ----- --- ---- ---- ------- ----- ---- -------<br>--- --- -- ----- -- --- ---- -- --- ---- -- ------ ------<br>not ----- -- ----,169252,169121,168781,168762,168797,169281,,52,not
screen,html.Screen,1_1_0_1_53,2021-04-22T14:00:21.272Z,,,,,,,,,,,,,,,,53,,,,,,,,,,,,,,335,,response,,,,99,,,,,,,Space,keypress(Space),,,,,,,,---- -- ----- -- ------ - ------- --- ----------<br>------------- ------ ------ ---- ---- ------- ----- -- ----<br>-------- ------- -- ---------- --- - --- ----- ----- ----<br>---- --- --- ----- --- ---- ---- ------- ----- ---- -------<br>--- --- -- ----- -- --- ---- -- --- ---- -- ------ ------<br>--- close -- ----,169730,169599,169264,169253,169281,169764,,53,close
screen,html.Screen,1_1_0_1_54,2021-04-22T14:00:22.407Z,,,,,,,,,,,,,,,,53,,,,,,,,,,,,,,987,,response,,,,99,,,,,,,Space,keypress(Space),,,,,,,,---- -- ----- -- ------ - ------- --- ----------<br>------------- ------ ------ ---- ---- ------- ----- -- ----<br>-------- ------- -- ---------- --- - --- ----- ----- ----<br>---- --- --- ----- --- ---- ---- ------- ----- ---- -------<br>--- --- -- ----- -- --- ---- -- --- ---- -- ------ ------<br>--- ----- at ----,170865,170734,169747,169730,169764,170898,,54,at
screen,html.Screen,1_1_0_1_55,2021-04-22T14:00:22.904Z,,,,,,,,,,,,,,,,53,,,,,,,,,,,,,,351,,response,,,,99,,,,,,,Space,keypress(Space),,,,,,,,---- -- ----- -- ------ - ------- --- ----------<br>------------- ------ ------ ---- ---- ------- ----- -- ----<br>-------- ------- -- ---------- --- - --- ----- ----- ----<br>---- --- --- ----- --- ---- ---- ------- ----- ---- -------<br>--- --- -- ----- -- --- ---- -- --- ---- -- ------ ------<br>--- ----- -- all.,171363,171232,170881,170865,170898,171398,,55,all.
Item 99,flow.Loop,1_1_0_1,2021-04-22T14:00:22.905Z,,,,,,,,,,,,,,,,,,,,,,,,,,,,,,53228,,completion,,,,,D,,,,,,,,,,,silence,,,,,171363,171232,117986,117987.00000000001,118004,171398,,,
Question 1,html.Screen,1_1_0_2,2021-04-22T14:00:26.694Z,,,,,,,,,,,,,,,,,,,,,,,,,,,true,FALSE,,3630,,response,,,,99,D,,,,,,FALSE,click #choice-2,,,,silence,,,,,175153,175012,171382,171363,171398,175169,,,
Question 2,html.Screen,1_1_0_3,2021-04-22T14:00:30.912Z,,,,,,,,,,,,,,,,,,,,,,,,,,,true,TRUE,,4084,,response,,,,99,D,,,,,,TRUE,click #choice-1,,,,silence,,,,,179370,179240,175156,175153,175169,179388,,,
Item 99,flow.Sequence,1_1_0,2021-04-22T14:00:30.912Z,,,,,,,,,,,,,,,,,,,,,,,,,,,,,,71243,,completion,,,,,,,,,,,,,,,,,,,,,179371,179240,107985,107981.00000000001,107997,179388,,,
Holding screen,html.Screen,1_1_1_0,2021-04-22T14:00:40.909Z,,,,,,,,,,,,,,,,,,,,,,,,,,,,,,9994,,timeout,,,,,,,,,,,,,,,,,,,,,189367,189367,179374,179371,179388,189382,,,
screen,html.Screen,1_1_1_1_0,2021-04-22T14:00:41.840Z,,,,,,,,,,,,,,,,54,,,,,,,,,,,,,,799,,response,,,,100,,,,,,,Space,keypress(Space),,,,,,,,At --- ---- --- ------ ----- ------- ---- -- --- ------- --<br>------- ---------- ------ -- ----- -- ----- -- ---- ------<br>--- ----- --- --- ------ -------- ----- --- ------ ----- --<br>----- ----- ---------- --- --- ------ ------ ---- -- ------<br>------- --- ------ ----- --- ---- ------- -- ---- --- --<br>------- ------,190298,190166,189367,189367,189382,190334,,0,At
screen,html.Screen,1_1_1_1_1,2021-04-22T14:00:42.643Z,,,,,,,,,,,,,,,,54,,,,,,,,,,,,,,652,,response,,,,100,,,,,,,Space,keypress(Space),,,,,,,,-- the ---- --- ------ ----- ------- ---- -- --- ------- --<br>------- ---------- ------ -- ----- -- ----- -- ---- ------<br>--- ----- --- --- ------ -------- ----- --- ------ ----- --<br>----- ----- ---------- --- --- ------ ------ ---- -- ------<br>------- --- ------ ----- --- ---- ------- -- ---- --- --<br>------- ------,191101,190969,190317,190299,190334,191134,,1,the
screen,html.Screen,1_1_1_1_2,2021-04-22T14:00:43.280Z,,,,,,,,,,,,,,,,54,,,,,,,,,,,,,,488,,response,,,,100,,,,,,,Space,keypress(Space),,,,,,,,-- --- time --- ------ ----- ------- ---- -- --- ------- --<br>------- ---------- ------ -- ----- -- ----- -- ---- ------<br>--- ----- --- --- ------ -------- ----- --- ------ ----- --<br>----- ----- ---------- --- --- ------ ------ ---- -- ------<br>------- --- ------ ----- --- ---- ------- -- ---- --- --<br>------- ------,191738,191606,191118,191101,191134,191768,,2,time
screen,html.Screen,1_1_1_1_3,2021-04-22T14:00:44.512Z,,,,,,,,,,,,,,,,54,,,,,,,,,,,,,,1087,,response,,,,100,,,,,,,Space,keypress(Space),,,,,,,,-- --- ---- the ------ ----- ------- ---- -- --- ------- --<br>------- ---------- ------ -- ----- -- ----- -- ---- ------<br>--- ----- --- --- ------ -------- ----- --- ------ ----- --<br>----- ----- ---------- --- --- ------ ------ ---- -- ------<br>------- --- ------ ----- --- ---- ------- -- ---- --- --<br>------- ------,192970,192838,191751,191738,191768,193001,,3,the
screen,html.Screen,1_1_1_1_4,2021-04-22T14:00:45.281Z,,,,,,,,,,,,,,,,54,,,,,,,,,,,,,,623,,response,,,,100,,,,,,,Space,keypress(Space),,,,,,,,-- --- ---- --- French ----- ------- ---- -- --- ------- --<br>------- ---------- ------ -- ----- -- ----- -- ---- ------<br>--- ----- --- --- ------ -------- ----- --- ------ ----- --<br>----- ----- ---------- --- --- ------ ------ ---- -- ------<br>------- --- ------ ----- --- ---- ------- -- ---- --- --<br>------- ------,193739,193607,192984,192970,193001,193768,,4,French
screen,html.Screen,1_1_1_1_5,2021-04-22T14:00:45.923Z,,,,,,,,,,,,,,,,54,,,,,,,,,,,,,,497,,response,,,,100,,,,,,,Space,keypress(Space),,,,,,,,-- --- ---- --- ------ crown ------- ---- -- --- ------- --<br>------- ---------- ------ -- ----- -- ----- -- ---- ------<br>--- ----- --- --- ------ -------- ----- --- ------ ----- --<br>----- ----- ---------- --- --- ------ ------ ---- -- ------<br>------- --- ------ ----- --- ---- ------- -- ---- --- --<br>------- ------,194381,194249,193752,193739,193768,194418,,5,crown
screen,html.Screen,1_1_1_1_6,2021-04-22T14:00:46.558Z,,,,,,,,,,,,,,,,54,,,,,,,,,,,,,,482,,response,,,,100,,,,,,,Space,keypress(Space),,,,,,,,-- --- ---- --- ------ ----- secured ---- -- --- ------- --<br>------- ---------- ------ -- ----- -- ----- -- ---- ------<br>--- ----- --- --- ------ -------- ----- --- ------ ----- --<br>----- ----- ---------- --- --- ------ ------ ---- -- ------<br>------- --- ------ ----- --- ---- ------- -- ---- --- --<br>------- ------,195016,194884,194402,194381,194418,195052,,6,secured
screen,html.Screen,1_1_1_1_7,2021-04-22T14:00:47.329Z,,,,,,,,,,,,,,,,54,,,,,,,,,,,,,,620,,response,,,,100,,,,,,,Space,keypress(Space),,,,,,,,-- --- ---- --- ------ ----- ------- much -- --- ------- --<br>------- ---------- ------ -- ----- -- ----- -- ---- ------<br>--- ----- --- --- ------ -------- ----- --- ------ ----- --<br>----- ----- ---------- --- --- ------ ------ ---- -- ------<br>------- --- ------ ----- --- ---- ------- -- ---- --- --<br>------- ------,195787,195655,195035,195016,195052,195819,,7,much
screen,html.Screen,1_1_1_1_8,2021-04-22T14:00:47.836Z,,,,,,,,,,,,,,,,54,,,,,,,,,,,,,,360,,response,,,,100,,,,,,,Space,keypress(Space),,,,,,,,-- --- ---- --- ------ ----- ------- ---- of --- ------- --<br>------- ---------- ------ -- ----- -- ----- -- ---- ------<br>--- ----- --- --- ------ -------- ----- --- ------ ----- --<br>----- ----- ---------- --- --- ------ ------ ---- -- ------<br>------- --- ------ ----- --- ---- ------- -- ---- --- --<br>------- ------,196294,196162,195802,195787,195819,196336,,8,of
screen,html.Screen,1_1_1_1_9,2021-04-22T14:00:48.351Z,,,,,,,,,,,,,,,,54,,,,,,,,,,,,,,358,,response,,,,100,,,,,,,Space,keypress(Space),,,,,,,,-- --- ---- --- ------ ----- ------- ---- -- its ------- --<br>------- ---------- ------ -- ----- -- ----- -- ---- ------<br>--- ----- --- --- ------ -------- ----- --- ------ ----- --<br>----- ----- ---------- --- --- ------ ------ ---- -- ------<br>------- --- ------ ----- --- ---- ------- -- ---- --- --<br>------- ------,196809,196677,196319,196294,196336,196836,,9,its
screen,html.Screen,1_1_1_1_10,2021-04-22T14:00:49.899Z,,,,,,,,,,,,,,,,54,,,,,,,,,,,,,,1405,,response,,,,100,,,,,,,Space,keypress(Space),,,,,,,,-- --- ---- --- ------ ----- ------- ---- -- --- revenue --<br>------- ---------- ------ -- ----- -- ----- -- ---- ------<br>--- ----- --- --- ------ -------- ----- --- ------ ----- --<br>----- ----- ---------- --- --- ------ ------ ---- -- ------<br>------- --- ------ ----- --- ---- ------- -- ---- --- --<br>------- ------,198356,198225,196820,196809,196836,198386,,10,revenue
screen,html.Screen,1_1_1_1_11,2021-04-22T14:00:50.549Z,,,,,,,,,,,,,,,,54,,,,,,,,,,,,,,505,,response,,,,100,,,,,,,Space,keypress(Space),,,,,,,,-- --- ---- --- ------ ----- ------- ---- -- --- ------- by<br>------- ---------- ------ -- ----- -- ----- -- ---- ------<br>--- ----- --- --- ------ -------- ----- --- ------ ----- --<br>----- ----- ---------- --- --- ------ ------ ---- -- ------<br>------- --- ------ ----- --- ---- ------- -- ---- --- --<br>------- ------,199007,198875,198370,198357,198386,199036,,11,by
screen,html.Screen,1_1_1_1_12,2021-04-22T14:00:52.382Z,,,,,,,,,,,,,,,,54,,,,,,,,,,,,,,1687,,response,,,,100,,,,,,,Space,keypress(Space),,,,,,,,-- --- ---- --- ------ ----- ------- ---- -- --- ------- --<br>issuing ---------- ------ -- ----- -- ----- -- ---- ------<br>--- ----- --- --- ------ -------- ----- --- ------ ----- --<br>----- ----- ---------- --- --- ------ ------ ---- -- ------<br>------- --- ------ ----- --- ---- ------- -- ---- --- --<br>------- ------,200840,200707,199020,199007,199036,200870,,12,issuing
screen,html.Screen,1_1_1_1_13,2021-04-22T14:00:53.067Z,,,,,,,,,,,,,,,,54,,,,,,,,,,,,,,538,,response,,,,100,,,,,,,Space,keypress(Space),,,,,,,,-- --- ---- --- ------ ----- ------- ---- -- --- ------- --<br>------- government ------ -- ----- -- ----- -- ---- ------<br>--- ----- --- --- ------ -------- ----- --- ------ ----- --<br>----- ----- ---------- --- --- ------ ------ ---- -- ------<br>------- --- ------ ----- --- ---- ------- -- ---- --- --<br>------- ------,201525,201392,200854,200840,200870,201555,,13,government
screen,html.Screen,1_1_1_1_14,2021-04-22T14:00:55.545Z,,,,,,,,,,,,,,,,54,,,,,,,,,,,,,,2332,,response,,,,100,,,,,,,Space,keypress(Space),,,,,,,,-- --- ---- --- ------ ----- ------- ---- -- --- ------- --<br>------- ---------- bonds. -- ----- -- ----- -- ---- ------<br>--- ----- --- --- ------ -------- ----- --- ------ ----- --<br>----- ----- ---------- --- --- ------ ------ ---- -- ------<br>------- --- ------ ----- --- ---- ------- -- ---- --- --<br>------- ------,204002,203870,201538,201525,201555,204042,,14,bonds.
screen,html.Screen,1_1_1_1_15,2021-04-22T14:00:56.468Z,,,,,,,,,,,,,,,,54,,,,,,,,,,,,,,768,,response,,,,100,,,,,,,Space,keypress(Space),,,,,,,,-- --- ---- --- ------ ----- ------- ---- -- --- ------- --<br>------- ---------- ------ In ----- -- ----- -- ---- ------<br>--- ----- --- --- ------ -------- ----- --- ------ ----- --<br>----- ----- ---------- --- --- ------ ------ ---- -- ------<br>------- --- ------ ----- --- ---- ------- -- ---- --- --<br>------- ------,204925,204793,204025,204003,204042,204959,,15,In
screen,html.Screen,1_1_1_1_16,2021-04-22T14:00:58.141Z,,,,,,,,,,,,,,,,54,,,,,,,,,,,,,,1524,,response,,,,100,,,,,,,Space,keypress(Space),,,,,,,,"-- --- ---- --- ------ ----- ------- ---- -- --- ------- --<br>------- ---------- ------ -- 1727, -- ----- -- ---- ------<br>--- ----- --- --- ------ -------- ----- --- ------ ----- --<br>----- ----- ---------- --- --- ------ ------ ---- -- ------<br>------- --- ------ ----- --- ---- ------- -- ---- --- --<br>------- ------",206598,206466,204942,204925,204959,206626,,16,"1727,"
screen,html.Screen,1_1_1_1_17,2021-04-22T14:00:58.880Z,,,,,,,,,,,,,,,,54,,,,,,,,,,,,,,595,,response,,,,100,,,,,,,Space,keypress(Space),,,,,,,,-- --- ---- --- ------ ----- ------- ---- -- --- ------- --<br>------- ---------- ------ -- ----- in ----- -- ---- ------<br>--- ----- --- --- ------ -------- ----- --- ------ ----- --<br>----- ----- ---------- --- --- ------ ------ ---- -- ------<br>------- --- ------ ----- --- ---- ------- -- ---- --- --<br>------- ------,207337.00000000003,207205,206610,206598,206626,207363,,17,in
screen,html.Screen,1_1_1_1_18,2021-04-22T14:00:59.734Z,,,,,,,,,,,,,,,,54,,,,,,,,,,,,,,712,,response,,,,100,,,,,,,Space,keypress(Space),,,,,,,,-- --- ---- --- ------ ----- ------- ---- -- --- ------- --<br>------- ---------- ------ -- ----- -- order -- ---- ------<br>--- ----- --- --- ------ -------- ----- --- ------ ----- --<br>----- ----- ---------- --- --- ------ ------ ---- -- ------<br>------- --- ------ ----- --- ---- ------- -- ---- --- --<br>------- ------,208191,208059,207347,207337.00000000003,207363,208231,,18,order
screen,html.Screen,1_1_1_1_19,2021-04-22T14:01:00.597Z,,,,,,,,,,,,,,,,54,,,,,,,,,,,,,,709,,response,,,,100,,,,,,,Space,keypress(Space),,,,,,,,-- --- ---- --- ------ ----- ------- ---- -- --- ------- --<br>------- ---------- ------ -- ----- -- ----- to ---- ------<br>--- ----- --- --- ------ -------- ----- --- ------ ----- --<br>----- ----- ---------- --- --- ------ ------ ---- -- ------<br>------- --- ------ ----- --- ---- ------- -- ---- --- --<br>------- ------,209054,208922,208213,208191,208231,209081,,19,to
screen,html.Screen,1_1_1_1_20,2021-04-22T14:01:01.326Z,,,,,,,,,,,,,,,,54,,,,,,,,,,,,,,586,,response,,,,100,,,,,,,Space,keypress(Space),,,,,,,,-- --- ---- --- ------ ----- ------- ---- -- --- ------- --<br>------- ---------- ------ -- ----- -- ----- -- save ------<br>--- ----- --- --- ------ -------- ----- --- ------ ----- --<br>----- ----- ---------- --- --- ------ ------ ---- -- ------<br>------- --- ------ ----- --- ---- ------- -- ---- --- --<br>------- ------,209783.00000000003,209651,209065,209054,209081,209815,,20,save
screen,html.Screen,1_1_1_1_21,2021-04-22T14:01:02.152Z,,,,,,,,,,,,,,,,54,,,,,,,,,,,,,,679,,response,,,,100,,,,,,,Space,keypress(Space),,,,,,,,"-- --- ---- --- ------ ----- ------- ---- -- --- ------- --<br>------- ---------- ------ -- ----- -- ----- -- ---- money,<br>--- ----- --- --- ------ -------- ----- --- ------ ----- --<br>----- ----- ---------- --- --- ------ ------ ---- -- ------<br>------- --- ------ ----- --- ---- ------- -- ---- --- --<br>------- ------",210609,210477,209798,209783.00000000003,209815,210649,,21,"money,"
screen,html.Screen,1_1_1_1_22,2021-04-22T14:01:02.876Z,,,,,,,,,,,,,,,,54,,,,,,,,,,,,,,569,,response,,,,100,,,,,,,Space,keypress(Space),,,,,,,,-- --- ---- --- ------ ----- ------- ---- -- --- ------- --<br>------- ---------- ------ -- ----- -- ----- -- ---- ------<br>the ----- --- --- ------ -------- ----- --- ------ ----- --<br>----- ----- ---------- --- --- ------ ------ ---- -- ------<br>------- --- ------ ----- --- ---- ------- -- ---- --- --<br>------- ------,211333,211201,210632,210609,210649,211366,,22,the
screen,html.Screen,1_1_1_1_23,2021-04-22T14:01:03.609Z,,,,,,,,,,,,,,,,54,,,,,,,,,,,,,,585,,response,,,,100,,,,,,,Space,keypress(Space),,,,,,,,-- --- ---- --- ------ ----- ------- ---- -- --- ------- --<br>------- ---------- ------ -- ----- -- ----- -- ---- ------<br>--- state --- --- ------ -------- ----- --- ------ ----- --<br>----- ----- ---------- --- --- ------ ------ ---- -- ------<br>------- --- ------ ----- --- ---- ------- -- ---- --- --<br>------- ------,212066,211934,211349,211333,211366,212100,,23,state
screen,html.Screen,1_1_1_1_24,2021-04-22T14:01:04.298Z,,,,,,,,,,,,,,,,54,,,,,,,,,,,,,,541,,response,,,,100,,,,,,,Space,keypress(Space),,,,,,,,-- --- ---- --- ------ ----- ------- ---- -- --- ------- --<br>------- ---------- ------ -- ----- -- ----- -- ---- ------<br>--- ----- cut --- ------ -------- ----- --- ------ ----- --<br>----- ----- ---------- --- --- ------ ------ ---- -- ------<br>------- --- ------ ----- --- ---- ------- -- ---- --- --<br>------- ------,212756,212623,212082,212066,212100,212788,,24,cut
screen,html.Screen,1_1_1_1_25,2021-04-22T14:01:04.936Z,,,,,,,,,,,,,,,,54,,,,,,,,,,,,,,490,,response,,,,100,,,,,,,Space,keypress(Space),,,,,,,,-- --- ---- --- ------ ----- ------- ---- -- --- ------- --<br>------- ---------- ------ -- ----- -- ----- -- ---- ------<br>--- ----- --- the ------ -------- ----- --- ------ ----- --<br>----- ----- ---------- --- --- ------ ------ ---- -- ------<br>------- --- ------ ----- --- ---- ------- -- ---- --- --<br>------- ------,213394,213262,212772,212756,212788,213422,,25,the
screen,html.Screen,1_1_1_1_26,2021-04-22T14:01:05.668Z,,,,,,,,,,,,,,,,54,,,,,,,,,,,,,,587,,response,,,,100,,,,,,,Space,keypress(Space),,,,,,,,-- --- ---- --- ------ ----- ------- ---- -- --- ------- --<br>------- ---------- ------ -- ----- -- ----- -- ---- ------<br>--- ----- --- --- bonds' -------- ----- --- ------ ----- --<br>----- ----- ---------- --- --- ------ ------ ---- -- ------<br>------- --- ------ ----- --- ---- ------- -- ---- --- --<br>------- ------,214126,213993,213406,213394,213422,214155,,26,bonds'
screen,html.Screen,1_1_1_1_27,2021-04-22T14:01:06.649Z,,,,,,,,,,,,,,,,54,,,,,,,,,,,,,,834,,response,,,,100,,,,,,,Space,keypress(Space),,,,,,,,-- --- ---- --- ------ ----- ------- ---- -- --- ------- --<br>------- ---------- ------ -- ----- -- ----- -- ---- ------<br>--- ----- --- --- ------ interest ----- --- ------ ----- --<br>----- ----- ---------- --- --- ------ ------ ---- -- ------<br>------- --- ------ ----- --- ---- ------- -- ---- --- --<br>------- ------,215106,214973,214139,214126,214155,215139,,27,interest
screen,html.Screen,1_1_1_1_28,2021-04-22T14:01:07.526Z,,,,,,,,,,,,,,,,54,,,,,,,,,,,,,,727,,response,,,,100,,,,,,,Space,keypress(Space),,,,,,,,-- --- ---- --- ------ ----- ------- ---- -- --- ------- --<br>------- ---------- ------ -- ----- -- ----- -- ---- ------<br>--- ----- --- --- ------ -------- rate. --- ------ ----- --<br>----- ----- ---------- --- --- ------ ------ ---- -- ------<br>------- --- ------ ----- --- ---- ------- -- ---- --- --<br>------- ------,215983,215850,215123,215106,215139,216024,,28,rate.
screen,html.Screen,1_1_1_1_29,2021-04-22T14:01:08.330Z,,,,,,,,,,,,,,,,54,,,,,,,,,,,,,,647,,response,,,,100,,,,,,,Space,keypress(Space),,,,,,,,-- --- ---- --- ------ ----- ------- ---- -- --- ------- --<br>------- ---------- ------ -- ----- -- ----- -- ---- ------<br>--- ----- --- --- ------ -------- ----- The ------ ----- --<br>----- ----- ---------- --- --- ------ ------ ---- -- ------<br>------- --- ------ ----- --- ---- ------- -- ---- --- --<br>------- ------,216787,216654,216007,215983,216024,216824,,29,The
screen,html.Screen,1_1_1_1_30,2021-04-22T14:01:09.215Z,,,,,,,,,,,,,,,,54,,,,,,,,,,,,,,733,,response,,,,100,,,,,,,Space,keypress(Space),,,,,,,,-- --- ---- --- ------ ----- ------- ---- -- --- ------- --<br>------- ---------- ------ -- ----- -- ----- -- ---- ------<br>--- ----- --- --- ------ -------- ----- --- market ----- --<br>----- ----- ---------- --- --- ------ ------ ---- -- ------<br>------- --- ------ ----- --- ---- ------- -- ---- --- --<br>------- ------,217673,217540,216807,216787,216824,217710,,30,market
screen,html.Screen,1_1_1_1_31,2021-04-22T14:01:09.989Z,,,,,,,,,,,,,,,,54,,,,,,,,,,,,,,618.0000000000291,,response,,,,100,,,,,,,Space,keypress(Space),,,,,,,,-- --- ---- --- ------ ----- ------- ---- -- --- ------- --<br>------- ---------- ------ -- ----- -- ----- -- ---- ------<br>--- ----- --- --- ------ -------- ----- --- ------ value --<br>----- ----- ---------- --- --- ------ ------ ---- -- ------<br>------- --- ------ ----- --- ---- ------- -- ---- --- --<br>------- ------,218446,218313.00000000003,217695,217673,217710,218479,,31,value
screen,html.Screen,1_1_1_1_32,2021-04-22T14:01:10.613Z,,,,,,,,,,,,,,,,54,,,,,,,,,,,,,,475,,response,,,,100,,,,,,,Space,keypress(Space),,,,,,,,-- --- ---- --- ------ ----- ------- ---- -- --- ------- --<br>------- ---------- ------ -- ----- -- ----- -- ---- ------<br>--- ----- --- --- ------ -------- ----- --- ------ ----- of<br>----- ----- ---------- --- --- ------ ------ ---- -- ------<br>------- --- ------ ----- --- ---- ------- -- ---- --- --<br>------- ------,219070,218937,218462,218446,218479,219112,,32,of
screen,html.Screen,1_1_1_1_33,2021-04-22T14:01:11.525Z,,,,,,,,,,,,,,,,54,,,,,,,,,,,,,,753.0000000000291,,response,,,,100,,,,,,,Space,keypress(Space),,,,,,,,-- --- ---- --- ------ ----- ------- ---- -- --- ------- --<br>------- ---------- ------ -- ----- -- ----- -- ---- ------<br>--- ----- --- --- ------ -------- ----- --- ------ ----- --<br>these ----- ---------- --- --- ------ ------ ---- -- ------<br>------- --- ------ ----- --- ---- ------- -- ---- --- --<br>------- ------,219982,219849.00000000003,219096,219070,219112,220012,,33,these
screen,html.Screen,1_1_1_1_34,2021-04-22T14:01:12.187Z,,,,,,,,,,,,,,,,54,,,,,,,,,,,,,,515,,response,,,,100,,,,,,,Space,keypress(Space),,,,,,,,-- --- ---- --- ------ ----- ------- ---- -- --- ------- --<br>------- ---------- ------ -- ----- -- ----- -- ---- ------<br>--- ----- --- --- ------ -------- ----- --- ------ ----- --<br>----- bonds ---------- --- --- ------ ------ ---- -- ------<br>------- --- ------ ----- --- ---- ------- -- ---- --- --<br>------- ------,220644,220511,219996,219982,220012,220680,,34,bonds
screen,html.Screen,1_1_1_1_35,2021-04-22T14:01:13.072Z,,,,,,,,,,,,,,,,54,,,,,,,,,,,,,,734.0000000000291,,response,,,,100,,,,,,,Space,keypress(Space),,,,,,,,"-- --- ---- --- ------ ----- ------- ---- -- --- ------- --<br>------- ---------- ------ -- ----- -- ----- -- ---- ------<br>--- ----- --- --- ------ -------- ----- --- ------ ----- --<br>----- ----- plummeted, --- --- ------ ------ ---- -- ------<br>------- --- ------ ----- --- ---- ------- -- ---- --- --<br>------- ------",221529,221396.00000000003,220662,220644,220680,221563,,35,"plummeted,"
screen,html.Screen,1_1_1_1_36,2021-04-22T14:01:14.239Z,,,,,,,,,,,,,,,,54,,,,,,,,,,,,,,1017,,response,,,,100,,,,,,,Space,keypress(Space),,,,,,,,-- --- ---- --- ------ ----- ------- ---- -- --- ------- --<br>------- ---------- ------ -- ----- -- ----- -- ---- ------<br>--- ----- --- --- ------ -------- ----- --- ------ ----- --<br>----- ----- ---------- and --- ------ ------ ---- -- ------<br>------- --- ------ ----- --- ---- ------- -- ---- --- --<br>------- ------,222696,222564,221547,221529,221563,222734,,36,and
screen,html.Screen,1_1_1_1_37,2021-04-22T14:01:14.805Z,,,,,,,,,,,,,,,,54,,,,,,,,,,,,,,413,,response,,,,100,,,,,,,Space,keypress(Space),,,,,,,,-- --- ---- --- ------ ----- ------- ---- -- --- ------- --<br>------- ---------- ------ -- ----- -- ----- -- ---- ------<br>--- ----- --- --- ------ -------- ----- --- ------ ----- --<br>----- ----- ---------- --- the ------ ------ ---- -- ------<br>------- --- ------ ----- --- ---- ------- -- ---- --- --<br>------- ------,223262,223130,222717,222697,222734,223301,,37,the
screen,html.Screen,1_1_1_1_38,2021-04-22T14:01:15.472Z,,,,,,,,,,,,,,,,54,,,,,,,,,,,,,,514,,response,,,,100,,,,,,,Space,keypress(Space),,,,,,,,-- --- ---- --- ------ ----- ------- ---- -- --- ------- --<br>------- ---------- ------ -- ----- -- ----- -- ---- ------<br>--- ----- --- --- ------ -------- ----- --- ------ ----- --<br>----- ----- ---------- --- --- market ------ ---- -- ------<br>------- --- ------ ----- --- ---- ------- -- ---- --- --<br>------- ------,223929,223797,223283,223263,223301,223968,,38,market
screen,html.Screen,1_1_1_1_39,2021-04-22T14:01:16.171Z,,,,,,,,,,,,,,,,54,,,,,,,,,,,,,,545,,response,,,,100,,,,,,,Space,keypress(Space),,,,,,,,-- --- ---- --- ------ ----- ------- ---- -- --- ------- --<br>------- ---------- ------ -- ----- -- ----- -- ---- ------<br>--- ----- --- --- ------ -------- ----- --- ------ ----- --<br>----- ----- ---------- --- --- ------ became ---- -- ------<br>------- --- ------ ----- --- ---- ------- -- ---- --- --<br>------- ------,224628,224496,223951,223930,223968,224668,,39,became
screen,html.Screen,1_1_1_1_40,2021-04-22T14:01:16.984Z,,,,,,,,,,,,,,,,54,,,,,,,,,,,,,,659,,response,,,,100,,,,,,,Space,keypress(Space),,,,,,,,-- --- ---- --- ------ ----- ------- ---- -- --- ------- --<br>------- ---------- ------ -- ----- -- ----- -- ---- ------<br>--- ----- --- --- ------ -------- ----- --- ------ ----- --<br>----- ----- ---------- --- --- ------ ------ wary -- ------<br>------- --- ------ ----- --- ---- ------- -- ---- --- --<br>------- ------,225441,225309,224650,224629,224668,225468,,40,wary
screen,html.Screen,1_1_1_1_41,2021-04-22T14:01:17.500Z,,,,,,,,,,,,,,,,54,,,,,,,,,,,,,,372,,response,,,,100,,,,,,,Space,keypress(Space),,,,,,,,-- --- ---- --- ------ ----- ------- ---- -- --- ------- --<br>------- ---------- ------ -- ----- -- ----- -- ---- ------<br>--- ----- --- --- ------ -------- ----- --- ------ ----- --<br>----- ----- ---------- --- --- ------ ------ ---- of ------<br>------- --- ------ ----- --- ---- ------- -- ---- --- --<br>------- ------,225957,225824,225452,225441,225468,225985,,41,of
screen,html.Screen,1_1_1_1_42,2021-04-22T14:01:18.134Z,,,,,,,,,,,,,,,,54,,,,,,,,,,,,,,490,,response,,,,100,,,,,,,Space,keypress(Space),,,,,,,,-- --- ---- --- ------ ----- ------- ---- -- --- ------- --<br>------- ---------- ------ -- ----- -- ----- -- ---- ------<br>--- ----- --- --- ------ -------- ----- --- ------ ----- --<br>----- ----- ---------- --- --- ------ ------ ---- -- French<br>------- --- ------ ----- --- ---- ------- -- ---- --- --<br>------- ------,226591,226458,225968,225957,225985,226618,,42,French
screen,html.Screen,1_1_1_1_43,2021-04-22T14:01:18.940Z,,,,,,,,,,,,,,,,54,,,,,,,,,,,,,,662,,response,,,,100,,,,,,,Space,keypress(Space),,,,,,,,-- --- ---- --- ------ ----- ------- ---- -- --- ------- --<br>------- ---------- ------ -- ----- -- ----- -- ---- ------<br>--- ----- --- --- ------ -------- ----- --- ------ ----- --<br>----- ----- ---------- --- --- ------ ------ ---- -- ------<br>credit. --- ------ ----- --- ---- ------- -- ---- --- --<br>------- ------,227397,227264,226602,226591,226618,227436,,43,credit.
screen,html.Screen,1_1_1_1_44,2021-04-22T14:01:19.494Z,,,,,,,,,,,,,,,,54,,,,,,,,,,,,,,399,,response,,,,100,,,,,,,Space,keypress(Space),,,,,,,,-- --- ---- --- ------ ----- ------- ---- -- --- ------- --<br>------- ---------- ------ -- ----- -- ----- -- ---- ------<br>--- ----- --- --- ------ -------- ----- --- ------ ----- --<br>----- ----- ---------- --- --- ------ ------ ---- -- ------<br>------- The ------ ----- --- ---- ------- -- ---- --- --<br>------- ------,227951,227818,227419,227397,227436,227988,,44,The
screen,html.Screen,1_1_1_1_45,2021-04-22T14:01:20.075Z,,,,,,,,,,,,,,,,54,,,,,,,,,,,,,,427,,response,,,,100,,,,,,,Space,keypress(Space),,,,,,,,-- --- ---- --- ------ ----- ------- ---- -- --- ------- --<br>------- ---------- ------ -- ----- -- ----- -- ---- ------<br>--- ----- --- --- ------ -------- ----- --- ------ ----- --<br>----- ----- ---------- --- --- ------ ------ ---- -- ------<br>------- --- French ----- --- ---- ------- -- ---- --- --<br>------- ------,228532,228399,227972,227951,227988,228572,,45,French
screen,html.Screen,1_1_1_1_46,2021-04-22T14:01:20.650Z,,,,,,,,,,,,,,,,54,,,,,,,,,,,,,,418.0000000000291,,response,,,,100,,,,,,,Space,keypress(Space),,,,,,,,-- --- ---- --- ------ ----- ------- ---- -- --- ------- --<br>------- ---------- ------ -- ----- -- ----- -- ---- ------<br>--- ----- --- --- ------ -------- ----- --- ------ ----- --<br>----- ----- ---------- --- --- ------ ------ ---- -- ------<br>------- --- ------ state --- ---- ------- -- ---- --- --<br>------- ------,229107,228974.00000000003,228556,228532,228572,229140,,46,state
screen,html.Screen,1_1_1_1_47,2021-04-22T14:01:21.171Z,,,,,,,,,,,,,,,,54,,,,,,,,,,,,,,371,,response,,,,100,,,,,,,Space,keypress(Space),,,,,,,,-- --- ---- --- ------ ----- ------- ---- -- --- ------- --<br>------- ---------- ------ -- ----- -- ----- -- ---- ------<br>--- ----- --- --- ------ -------- ----- --- ------ ----- --<br>----- ----- ---------- --- --- ------ ------ ---- -- ------<br>------- --- ------ ----- was ---- ------- -- ---- --- --<br>------- ------,229627,229494,229123,229107,229140,229656,,47,was
screen,html.Screen,1_1_1_1_48,2021-04-22T14:01:21.803Z,,,,,,,,,,,,,,,,54,,,,,,,,,,,,,,487,,response,,,,100,,,,,,,Space,keypress(Space),,,,,,,,-- --- ---- --- ------ ----- ------- ---- -- --- ------- --<br>------- ---------- ------ -- ----- -- ----- -- ---- ------<br>--- ----- --- --- ------ -------- ----- --- ------ ----- --<br>----- ----- ---------- --- --- ------ ------ ---- -- ------<br>------- --- ------ ----- --- left ------- -- ---- --- --<br>------- ------,230260,230127,229640,229627,229656,230290,,48,left
screen,html.Screen,1_1_1_1_49,2021-04-22T14:01:22.359Z,,,,,,,,,,,,,,,,54,,,,,,,,,,,,,,410,,response,,,,100,,,,,,,Space,keypress(Space),,,,,,,,-- --- ---- --- ------ ----- ------- ---- -- --- ------- --<br>------- ---------- ------ -- ----- -- ----- -- ---- ------<br>--- ----- --- --- ------ -------- ----- --- ------ ----- --<br>----- ----- ---------- --- --- ------ ------ ---- -- ------<br>------- --- ------ ----- --- ---- without -- ---- --- --<br>------- ------,230816,230683,230273,230260,230290,230856,,49,without
screen,html.Screen,1_1_1_1_50,2021-04-22T14:01:22.999Z,,,,,,,,,,,,,,,,54,,,,,,,,,,,,,,483,,response,,,,100,,,,,,,Space,keypress(Space),,,,,,,,-- --- ---- --- ------ ----- ------- ---- -- --- ------- --<br>------- ---------- ------ -- ----- -- ----- -- ---- ------<br>--- ----- --- --- ------ -------- ----- --- ------ ----- --<br>----- ----- ---------- --- --- ------ ------ ---- -- ------<br>------- --- ------ ----- --- ---- ------- an ---- --- --<br>------- ------,231456.00000000003,231323,230840,230816,230856,231491,,50,an
screen,html.Screen,1_1_1_1_51,2021-04-22T14:01:23.531Z,,,,,,,,,,,,,,,,54,,,,,,,,,,,,,,381.0000000000291,,response,,,,100,,,,,,,Space,keypress(Space),,,,,,,,-- --- ---- --- ------ ----- ------- ---- -- --- ------- --<br>------- ---------- ------ -- ----- -- ----- -- ---- ------<br>--- ----- --- --- ------ -------- ----- --- ------ ----- --<br>----- ----- ---------- --- --- ------ ------ ---- -- ------<br>------- --- ------ ----- --- ---- ------- -- easy --- --<br>------- ------,231988,231855.00000000003,231474,231456.00000000003,231491,232024,,51,easy
screen,html.Screen,1_1_1_1_52,2021-04-22T14:01:24.105Z,,,,,,,,,,,,,,,,54,,,,,,,,,,,,,,421,,response,,,,100,,,,,,,Space,keypress(Space),,,,,,,,-- --- ---- --- ------ ----- ------- ---- -- --- ------- --<br>------- ---------- ------ -- ----- -- ----- -- ---- ------<br>--- ----- --- --- ------ -------- ----- --- ------ ----- --<br>----- ----- ---------- --- --- ------ ------ ---- -- ------<br>------- --- ------ ----- --- ---- ------- -- ---- way --<br>------- ------,232562,232429,232008,231988,232024,232594,,52,way
screen,html.Screen,1_1_1_1_53,2021-04-22T14:01:24.754Z,,,,,,,,,,,,,,,,54,,,,,,,,,,,,,,501,,response,,,,100,,,,,,,Space,keypress(Space),,,,,,,,-- --- ---- --- ------ ----- ------- ---- -- --- ------- --<br>------- ---------- ------ -- ----- -- ----- -- ---- ------<br>--- ----- --- --- ------ -------- ----- --- ------ ----- --<br>----- ----- ---------- --- --- ------ ------ ---- -- ------<br>------- --- ------ ----- --- ---- ------- -- ---- --- of<br>------- ------,233211,233078,232577,232562,232594,233245,,53,of
screen,html.Screen,1_1_1_1_54,2021-04-22T14:01:25.395Z,,,,,,,,,,,,,,,,54,,,,,,,,,,,,,,492,,response,,,,100,,,,,,,Space,keypress(Space),,,,,,,,-- --- ---- --- ------ ----- ------- ---- -- --- ------- --<br>------- ---------- ------ -- ----- -- ----- -- ---- ------<br>--- ----- --- --- ------ -------- ----- --- ------ ----- --<br>----- ----- ---------- --- --- ------ ------ ---- -- ------<br>------- --- ------ ----- --- ---- ------- -- ---- --- --<br>raising ------,233852,233719,233227,233211,233245,233895,,54,raising
screen,html.Screen,1_1_1_1_55,2021-04-22T14:01:26.000Z,,,,,,,,,,,,,,,,54,,,,,,,,,,,,,,446,,response,,,,100,,,,,,,Space,keypress(Space),,,,,,,,-- --- ---- --- ------ ----- ------- ---- -- --- ------- --<br>------- ---------- ------ -- ----- -- ----- -- ---- ------<br>--- ----- --- --- ------ -------- ----- --- ------ ----- --<br>----- ----- ---------- --- --- ------ ------ ---- -- ------<br>------- --- ------ ----- --- ---- ------- -- ---- --- --<br>------- money.,234457,234324,233878,233852,233895,234495,,55,money.
Item 100,flow.Loop,1_1_1_1,2021-04-22T14:01:26.001Z,,,,,,,,,,,,,,,,,,,,,,,,,,,,,,44942,,completion,,,,,D,,,,,,,,,,,silence,,,,,234457,234324,189367,189367,189382,234495,,,
Question 1,html.Screen,1_1_1_2,2021-04-22T14:01:31.886Z,,,,,,,,,,,,,,,,,,,,,,,,,,,true,TRUE,,5731,,response,,,,100,D,,,,,,TRUE,click #choice-1,,,,silence,,,,,240342,240210,234479,234457,234495,240367,,,
Question 2,html.Screen,1_1_1_3,2021-04-22T14:01:35.569Z,,,,,,,,,,,,,,,,,,,,,,,,,,,true,FALSE,,3543,,response,,,,100,D,,,,,,FALSE,click #choice-2,,,,silence,,,,,244026,243893,240350,240342,240367,244058,,,
Item 100,flow.Sequence,1_1_1,2021-04-22T14:01:35.569Z,,,,,,,,,,,,,,,,,,,,,,,,,,,,,,64505,,completion,,,,,,,,,,,,,,,,,,,,,244026,243893,179374,179371,179388,244058,,,
End of Practice,html.Page,1_1_2,2021-04-22T14:01:40.601Z,,,,,,,,,,,,,,,,,,,,,,,,,,,,,,4999.000000000029,,form submission,,,,,,,,,,,,,,,,,,,,,249057.00000000003,249057.00000000003,244041,244026,244058,249080,,,
Practice,flow.Sequence,1_1,2021-04-22T14:01:40.601Z,,,,,,,,,,,,,,,,,,,,,,,,,,,,,,141060.00000000003,,completion,,,,,,,,,,,,,,,,,,,,,249057.00000000003,249057.00000000003,107985,107981.00000000001,107997,249080,,,
Trap_instruction,html.Page,1_2_0,2021-04-22T14:01:45.428Z,,,,,,,,,,,,,,,,,,,,,,,,,,,,,,4804,,form submission,,,,,,,,,,,,,,,,,,,,,253884,253884,249062,249057.00000000003,249080,253901,,,
trap_trial,html.Screen,1_2_1,2021-04-22T14:01:48.763Z,,,,,,,,,,,,,,,,,,,,,,,,,,,true,1,,3189,,response,,,,,,,,,,,1,click #choice-1,,,,,,,,,257219,257087,253898,253884,253901,257254,,,
end of trap trial,html.Page,1_2_2,2021-04-22T14:01:50.330Z,,,,,,,,,,,,,,,,,,,,,,,,,,,,,,1532,,form submission,,,,,,,,,,,,,,,,,,,,,258786,258786,257251,257219,257254,258804,,,
Trap 1,flow.Sequence,1_2,2021-04-22T14:01:50.330Z,,,,,,,,,,,,,,,,,,,,,,,,,,,,,,9706,,completion,,,,,,,,,,,,,,,,,,,,,258786,258786,249062,249057.00000000003,249080,258804,,,
Standby,html.Page,1_3_0,2021-04-22T14:01:58.339Z,,,,,,,,,,,,,,,,,,,,,,,,,,,,,,8007,,timeout,,,,,,,,,,,,,,,,,,,,,266795,266794,258788,258786.99999999997,258804,266811,,,
Holding screen,html.Screen,1_3_1_0_0,2021-04-22T14:02:05.331Z,,,,,,,,,,,,,,,,,,,,,,,,,,,,,,6992,,timeout,,,,,,,,,,,,,,,,,,,,,273787,273787,266794,266795,266811,273803,,,
screen,html.Screen,1_3_1_0_1_0,2021-04-22T14:02:06.630Z,,,,,,,,,,,,,,,,51,,,,,,,,,,,,,,1163,,response,,,,13,D,,,,,,Space,keypress(Space),,,,silence,,,,American -------- --- --- ---- --- --- ------ -- --------<br>---- --------- --- ------- ------------ ---------- ---------<br>--- ---------- ------- ---------- ------- -- -------- ----<br>---- --- ------ ----- ------ -- ---- --- ----- -- - -------<br>-------- -- --- --- -- ----- ----------- ----- -----------<br>---- --- ---------- --- ---- --- -- ----------,275085,274950,273787,273787,273803,275121,,0,American
screen,html.Screen,1_3_1_0_1_1,2021-04-22T14:02:07.923Z,,,,,,,,,,,,,,,,51,,,,,,,,,,,,,,1140,,response,,,,13,D,,,,,,Space,keypress(Space),,,,silence,,,,-------- industry --- --- ---- --- --- ------ -- --------<br>---- --------- --- ------- ------------ ---------- ---------<br>--- ---------- ------- ---------- ------- -- -------- ----<br>---- --- ------ ----- ------ -- ---- --- ----- -- - -------<br>-------- -- --- --- -- ----- ----------- ----- -----------<br>---- --- ---------- --- ---- --- -- ----------,276379,276244,275104,275085,275121,276422,,1,industry
screen,html.Screen,1_3_1_0_1_2,2021-04-22T14:02:09.005Z,,,,,,,,,,,,,,,,51,,,,,,,,,,,,,,921,,response,,,,13,D,,,,,,Space,keypress(Space),,,,silence,,,,-------- -------- may --- ---- --- --- ------ -- --------<br>---- --------- --- ------- ------------ ---------- ---------<br>--- ---------- ------- ---------- ------- -- -------- ----<br>---- --- ------ ----- ------ -- ---- --- ----- -- - -------<br>-------- -- --- --- -- ----- ----------- ----- -----------<br>---- --- ---------- --- ---- --- -- ----------,277461,277326,276405,276379,276422,277489,,2,may
screen,html.Screen,1_3_1_0_1_3,2021-04-22T14:02:09.963Z,,,,,,,,,,,,,,,,51,,,,,,,,,,,,,,812,,response,,,,13,D,,,,,,Space,keypress(Space),,,,silence,,,,-------- -------- --- not ---- --- --- ------ -- --------<br>---- --------- --- ------- ------------ ---------- ---------<br>--- ---------- ------- ---------- ------- -- -------- ----<br>---- --- ------ ----- ------ -- ---- --- ----- -- - -------<br>-------- -- --- --- -- ----- ----------- ----- -----------<br>---- --- ---------- --- ---- --- -- ----------,278418,278284,277472,277461,277489,278460,,3,not
screen,html.Screen,1_3_1_0_1_4,2021-04-22T14:02:10.683Z,,,,,,,,,,,,,,,,51,,,,,,,,,,,,,,561,,response,,,,13,D,,,,,,Space,keypress(Space),,,,silence,,,,-------- -------- --- --- know --- --- ------ -- --------<br>---- --------- --- ------- ------------ ---------- ---------<br>--- ---------- ------- ---------- ------- -- -------- ----<br>---- --- ------ ----- ------ -- ---- --- ----- -- - -------<br>-------- -- --- --- -- ----- ----------- ----- -----------<br>---- --- ---------- --- ---- --- -- ----------,279138.00000000006,279004,278443,278418,278460,279177,,4,know
screen,html.Screen,1_3_1_0_1_5,2021-04-22T14:02:11.673Z,,,,,,,,,,,,,,,,51,,,,,,,,,,,,,,834,,response,,,,13,D,,,,,,Space,keypress(Space),,,,silence,,,,"-------- -------- --- --- ---- it, --- ------ -- --------<br>---- --------- --- ------- ------------ ---------- ---------<br>--- ---------- ------- ---------- ------- -- -------- ----<br>---- --- ------ ----- ------ -- ---- --- ----- -- - -------<br>-------- -- --- --- -- ----- ----------- ----- -----------<br>---- --- ---------- --- ---- --- -- ----------",280128,279994,279160,279139,279177,280160,,5,"it,"
screen,html.Screen,1_3_1_0_1_6,2021-04-22T14:02:12.548Z,,,,,,,,,,,,,,,,51,,,,,,,,,,,,,,725,,response,,,,13,D,,,,,,Space,keypress(Space),,,,silence,,,,-------- -------- --- --- ---- --- but ------ -- --------<br>---- --------- --- ------- ------------ ---------- ---------<br>--- ---------- ------- ---------- ------- -- -------- ----<br>---- --- ------ ----- ------ -- ---- --- ----- -- - -------<br>-------- -- --- --- -- ----- ----------- ----- -----------<br>---- --- ---------- --- ---- --- -- ----------,281003,280869,280144,280129,280160,281045,,6,but
screen,html.Screen,1_3_1_0_1_7,2021-04-22T14:02:13.263Z,,,,,,,,,,,,,,,,51,,,,,,,,,,,,,,556,,response,,,,13,D,,,,,,Space,keypress(Space),,,,silence,,,,-------- -------- --- --- ---- --- --- debate -- --------<br>---- --------- --- ------- ------------ ---------- ---------<br>--- ---------- ------- ---------- ------- -- -------- ----<br>---- --- ------ ----- ------ -- ---- --- ----- -- - -------<br>-------- -- --- --- -- ----- ----------- ----- -----------<br>---- --- ---------- --- ---- --- -- ----------,281719,281584,281028,281004,281045,281762,,7,debate
screen,html.Screen,1_3_1_0_1_8,2021-04-22T14:02:14.089Z,,,,,,,,,,,,,,,,51,,,,,,,,,,,,,,666,,response,,,,13,D,,,,,,Space,keypress(Space),,,,silence,,,,-------- -------- --- --- ---- --- --- ------ in --------<br>---- --------- --- ------- ------------ ---------- ---------<br>--- ---------- ------- ---------- ------- -- -------- ----<br>---- --- ------ ----- ------ -- ---- --- ----- -- - -------<br>-------- -- --- --- -- ----- ----------- ----- -----------<br>---- --- ---------- --- ---- --- -- ----------,282544,282410,281744,281719,281762,282578,,8,in
screen,html.Screen,1_3_1_0_1_9,2021-04-22T14:02:14.944Z,,,,,,,,,,,,,,,,51,,,,,,,,,,,,,,703,,response,,,,13,D,,,,,,Space,keypress(Space),,,,silence,,,,-------- -------- --- --- ---- --- --- ------ -- Congress<br>---- --------- --- ------- ------------ ---------- ---------<br>--- ---------- ------- ---------- ------- -- -------- ----<br>---- --- ------ ----- ------ -- ---- --- ----- -- - -------<br>-------- -- --- --- -- ----- ----------- ----- -----------<br>---- --- ---------- --- ---- --- -- ----------,283399,283265,282562,282545,282578,283431,,9,Congress
screen,html.Screen,1_3_1_0_1_10,2021-04-22T14:02:15.949Z,,,,,,,,,,,,,,,,51,,,,,,,,,,,,,,856,,response,,,,13,D,,,,,,Space,keypress(Space),,,,silence,,,,-------- -------- --- --- ---- --- --- ------ -- --------<br>over --------- --- ------- ------------ ---------- ---------<br>--- ---------- ------- ---------- ------- -- -------- ----<br>---- --- ------ ----- ------ -- ---- --- ----- -- - -------<br>-------- -- --- --- -- ----- ----------- ----- -----------<br>---- --- ---------- --- ---- --- -- ----------,284404,284270,283414,283399,283431,284432,,10,over
screen,html.Screen,1_3_1_0_1_11,2021-04-22T14:02:16.763Z,,,,,,,,,,,,,,,,51,,,,,,,,,,,,,,669,,response,,,,13,D,,,,,,Space,keypress(Space),,,,silence,,,,-------- -------- --- --- ---- --- --- ------ -- --------<br>---- reforming --- ------- ------------ ---------- ---------<br>--- ---------- ------- ---------- ------- -- -------- ----<br>---- --- ------ ----- ------ -- ---- --- ----- -- - -------<br>-------- -- --- --- -- ----- ----------- ----- -----------<br>---- --- ---------- --- ---- --- -- ----------,285218,285084,284415,284404,284432,285249,,11,reforming
screen,html.Screen,1_3_1_0_1_12,2021-04-22T14:02:17.582Z,,,,,,,,,,,,,,,,51,,,,,,,,,,,,,,671,,response,,,,13,D,,,,,,Space,keypress(Space),,,,silence,,,,-------- -------- --- --- ---- --- --- ------ -- --------<br>---- --------- the ------- ------------ ---------- ---------<br>--- ---------- ------- ---------- ------- -- -------- ----<br>---- --- ------ ----- ------ -- ---- --- ----- -- - -------<br>-------- -- --- --- -- ----- ----------- ----- -----------<br>---- --- ---------- --- ---- --- -- ----------,286037,285903,285232,285218,285249,286066,,12,the
screen,html.Screen,1_3_1_0_1_13,2021-04-22T14:02:18.492Z,,,,,,,,,,,,,,,,51,,,,,,,,,,,,,,764,,response,,,,13,D,,,,,,Space,keypress(Space),,,,silence,,,,-------- -------- --- --- ---- --- --- ------ -- --------<br>---- --------- --- federal ------------ ---------- ---------<br>--- ---------- ------- ---------- ------- -- -------- ----<br>---- --- ------ ----- ------ -- ---- --- ----- -- - -------<br>-------- -- --- --- -- ----- ----------- ----- -----------<br>---- --- ---------- --- ---- --- -- ----------,286947,286813,286049,286037,286066,286983,,13,federal
screen,html.Screen,1_3_1_0_1_14,2021-04-22T14:02:19.271Z,,,,,,,,,,,,,,,,51,,,,,,,,,,,,,,626,,response,,,,13,D,,,,,,Space,keypress(Space),,,,silence,,,,-------- -------- --- --- ---- --- --- ------ -- --------<br>---- --------- --- ------- government's ---------- ---------<br>--- ---------- ------- ---------- ------- -- -------- ----<br>---- --- ------ ----- ------ -- ---- --- ----- -- - -------<br>-------- -- --- --- -- ----- ----------- ----- -----------<br>---- --- ---------- --- ---- --- -- ----------,287726,287591,286965,286947,286983,287766,,14,government's
screen,html.Screen,1_3_1_0_1_15,2021-04-22T14:02:20.308Z,,,,,,,,,,,,,,,,51,,,,,,,,,,,,,,878,,response,,,,13,D,,,,,,Space,keypress(Space),,,,silence,,,,-------- -------- --- --- ---- --- --- ------ -- --------<br>---- --------- --- ------- ------------ regulatory ---------<br>--- ---------- ------- ---------- ------- -- -------- ----<br>---- --- ------ ----- ------ -- ---- --- ----- -- - -------<br>-------- -- --- --- -- ----- ----------- ----- -----------<br>---- --- ---------- --- ---- --- -- ----------,288763.00000000006,288628,287750,287726,287766,288797,,15,regulatory
screen,html.Screen,1_3_1_0_1_16,2021-04-22T14:02:21.101Z,,,,,,,,,,,,,,,,51,,,,,,,,,,,,,,641,,response,,,,13,D,,,,,,Space,keypress(Space),,,,silence,,,,-------- -------- --- --- ---- --- --- ------ -- --------<br>---- --------- --- ------- ------------ ---------- apparatus<br>--- ---------- ------- ---------- ------- -- -------- ----<br>---- --- ------ ----- ------ -- ---- --- ----- -- - -------<br>-------- -- --- --- -- ----- ----------- ----- -----------<br>---- --- ---------- --- ---- --- -- ----------,289556,289421,288780,288763.00000000006,288797,289596,,16,apparatus
screen,html.Screen,1_3_1_0_1_17,2021-04-22T14:02:21.868Z,,,,,,,,,,,,,,,,51,,,,,,,,,,,,,,607,,response,,,,13,D,,,,,,Space,keypress(Space),,,,silence,,,,-------- -------- --- --- ---- --- --- ------ -- --------<br>---- --------- --- ------- ------------ ---------- ---------<br>may ---------- ------- ---------- ------- -- -------- ----<br>---- --- ------ ----- ------ -- ---- --- ----- -- - -------<br>-------- -- --- --- -- ----- ----------- ----- -----------<br>---- --- ---------- --- ---- --- -- ----------,290323,290188,289581,289556,289596,290364,,17,may
screen,html.Screen,1_3_1_0_1_18,2021-04-22T14:02:22.520Z,,,,,,,,,,,,,,,,51,,,,,,,,,,,,,,493.0000000000582,,response,,,,13,D,,,,,,Space,keypress(Space),,,,silence,,,,-------- -------- --- --- ---- --- --- ------ -- --------<br>---- --------- --- ------- ------------ ---------- ---------<br>--- profoundly ------- ---------- ------- -- -------- ----<br>---- --- ------ ----- ------ -- ---- --- ----- -- - -------<br>-------- -- --- --- -- ----- ----------- ----- -----------<br>---- --- ---------- --- ---- --- -- ----------,290975,290840.00000000006,290347,290323,290364,291015,,18,profoundly
screen,html.Screen,1_3_1_0_1_19,2021-04-22T14:02:23.129Z,,,,,,,,,,,,,,,,51,,,,,,,,,,,,,,451,,response,,,,13,D,,,,,,Space,keypress(Space),,,,silence,,,,-------- -------- --- --- ---- --- --- ------ -- --------<br>---- --------- --- ------- ------------ ---------- ---------<br>--- ---------- improve ---------- ------- -- -------- ----<br>---- --- ------ ----- ------ -- ---- --- ----- -- - -------<br>-------- -- --- --- -- ----- ----------- ----- -----------<br>---- --- ---------- --- ---- --- -- ----------,291584,291449,290998,290975,291015,291614,,19,improve
screen,html.Screen,1_3_1_0_1_20,2021-04-22T14:02:23.795Z,,,,,,,,,,,,,,,,51,,,,,,,,,,,,,,517,,response,,,,13,D,,,,,,Space,keypress(Space),,,,silence,,,,-------- -------- --- --- ---- --- --- ------ -- --------<br>---- --------- --- ------- ------------ ---------- ---------<br>--- ---------- ------- companies' ------- -- -------- ----<br>---- --- ------ ----- ------ -- ---- --- ----- -- - -------<br>-------- -- --- --- -- ----- ----------- ----- -----------<br>---- --- ---------- --- ---- --- -- ----------,292250,292115,291598,291584,291614,292281,,20,companies'
screen,html.Screen,1_3_1_0_1_21,2021-04-22T14:02:24.516Z,,,,,,,,,,,,,,,,51,,,,,,,,,,,,,,571,,response,,,,13,D,,,,,,Space,keypress(Space),,,,silence,,,,-------- -------- --- --- ---- --- --- ------ -- --------<br>---- --------- --- ------- ------------ ---------- ---------<br>--- ---------- ------- ---------- ability -- -------- ----<br>---- --- ------ ----- ------ -- ---- --- ----- -- - -------<br>-------- -- --- --- -- ----- ----------- ----- -----------<br>---- --- ---------- --- ---- --- -- ----------,292971,292836,292265,292250,292281,292998,,21,ability
screen,html.Screen,1_3_1_0_1_22,2021-04-22T14:02:25.176Z,,,,,,,,,,,,,,,,51,,,,,,,,,,,,,,514,,response,,,,13,D,,,,,,Space,keypress(Space),,,,silence,,,,-------- -------- --- --- ---- --- --- ------ -- --------<br>---- --------- --- ------- ------------ ---------- ---------<br>--- ---------- ------- ---------- ------- to -------- ----<br>---- --- ------ ----- ------ -- ---- --- ----- -- - -------<br>-------- -- --- --- -- ----- ----------- ----- -----------<br>---- --- ---------- --- ---- --- -- ----------,293631,293496,292982,292971,292998,293672,,22,to
screen,html.Screen,1_3_1_0_1_23,2021-04-22T14:02:28.086Z,,,,,,,,,,,,,,,,51,,,,,,,,,,,,,,2750,,response,,,,13,D,,,,,,Space,keypress(Space),,,,silence,,,,-------- -------- --- --- ---- --- --- ------ -- --------<br>---- --------- --- ------- ------------ ---------- ---------<br>--- ---------- ------- ---------- ------- -- survive. ----<br>---- --- ------ ----- ------ -- ---- --- ----- -- - -------<br>-------- -- --- --- -- ----- ----------- ----- -----------<br>---- --- ---------- --- ---- --- -- ----------,296541,296406,293656,293631,293672,296574,,23,survive.
screen,html.Screen,1_3_1_0_1_24,2021-04-22T14:02:28.686Z,,,,,,,,,,,,,,,,51,,,,,,,,,,,,,,449,,response,,,,13,D,,,,,,Space,keypress(Space),,,,silence,,,,-------- -------- --- --- ---- --- --- ------ -- --------<br>---- --------- --- ------- ------------ ---------- ---------<br>--- ---------- ------- ---------- ------- -- -------- This<br>---- --- ------ ----- ------ -- ---- --- ----- -- - -------<br>-------- -- --- --- -- ----- ----------- ----- -----------<br>---- --- ---------- --- ---- --- -- ----------,297141,297006,296557,296541,296574,297174,,24,This
screen,html.Screen,1_3_1_0_1_25,2021-04-22T14:02:29.667Z,,,,,,,,,,,,,,,,51,,,,,,,,,,,,,,830,,response,,,,13,D,,,,,,Space,keypress(Space),,,,silence,,,,-------- -------- --- --- ---- --- --- ------ -- --------<br>---- --------- --- ------- ------------ ---------- ---------<br>--- ---------- ------- ---------- ------- -- -------- ----<br>week --- ------ ----- ------ -- ---- --- ----- -- - -------<br>-------- -- --- --- -- ----- ----------- ----- -----------<br>---- --- ---------- --- ---- --- -- ----------,298122,297987,297157,297141,297174,298158,,25,week
screen,html.Screen,1_3_1_0_1_26,2021-04-22T14:02:30.441Z,,,,,,,,,,,,,,,,51,,,,,,,,,,,,,,620,,response,,,,13,D,,,,,,Space,keypress(Space),,,,silence,,,,-------- -------- --- --- ---- --- --- ------ -- --------<br>---- --------- --- ------- ------------ ---------- ---------<br>--- ---------- ------- ---------- ------- -- -------- ----<br>---- the ------ ----- ------ -- ---- --- ----- -- - -------<br>-------- -- --- --- -- ----- ----------- ----- -----------<br>---- --- ---------- --- ---- --- -- ----------,298896,298761,298141,298122,298158,298927,,26,the
screen,html.Screen,1_3_1_0_1_27,2021-04-22T14:02:31.205Z,,,,,,,,,,,,,,,,51,,,,,,,,,,,,,,613,,response,,,,13,D,,,,,,Space,keypress(Space),,,,silence,,,,-------- -------- --- --- ---- --- --- ------ -- --------<br>---- --------- --- ------- ------------ ---------- ---------<br>--- ---------- ------- ---------- ------- -- -------- ----<br>---- --- Senate ----- ------ -- ---- --- ----- -- - -------<br>-------- -- --- --- -- ----- ----------- ----- -----------<br>---- --- ---------- --- ---- --- -- ----------,299660,299524,298911,298896,298927,299693,,27,Senate
screen,html.Screen,1_3_1_0_1_28,2021-04-22T14:02:32.029Z,,,,,,,,,,,,,,,,51,,,,,,,,,,,,,,672,,response,,,,13,D,,,,,,Space,keypress(Space),,,,silence,,,,-------- -------- --- --- ---- --- --- ------ -- --------<br>---- --------- --- ------- ------------ ---------- ---------<br>--- ---------- ------- ---------- ------- -- -------- ----<br>---- --- ------ seems ------ -- ---- --- ----- -- - -------<br>-------- -- --- --- -- ----- ----------- ----- -----------<br>---- --- ---------- --- ---- --- -- ----------,300484,300349,299677,299660,299693,300511,,28,seems
screen,html.Screen,1_3_1_0_1_29,2021-04-22T14:02:33.192Z,,,,,,,,,,,,,,,,51,,,,,,,,,,,,,,1016,,response,,,,13,D,,,,,,Space,keypress(Space),,,,silence,,,,-------- -------- --- --- ---- --- --- ------ -- --------<br>---- --------- --- ------- ------------ ---------- ---------<br>--- ---------- ------- ---------- ------- -- -------- ----<br>---- --- ------ ----- poised -- ---- --- ----- -- - -------<br>-------- -- --- --- -- ----- ----------- ----- -----------<br>---- --- ---------- --- ---- --- -- ----------,301647,301511,300495,300484,300511,301679,,29,poised
screen,html.Screen,1_3_1_0_1_30,2021-04-22T14:02:33.755Z,,,,,,,,,,,,,,,,51,,,,,,,,,,,,,,412,,response,,,,13,D,,,,,,Space,keypress(Space),,,,silence,,,,-------- -------- --- --- ---- --- --- ------ -- --------<br>---- --------- --- ------- ------------ ---------- ---------<br>--- ---------- ------- ---------- ------- -- -------- ----<br>---- --- ------ ----- ------ to ---- --- ----- -- - -------<br>-------- -- --- --- -- ----- ----------- ----- -----------<br>---- --- ---------- --- ---- --- -- ----------,302209,302074,301662,301647,301679,302246,,30,to
screen,html.Screen,1_3_1_0_1_31,2021-04-22T14:02:34.695Z,,,,,,,,,,,,,,,,51,,,,,,,,,,,,,,785,,response,,,,13,D,,,,,,Space,keypress(Space),,,,silence,,,,-------- -------- --- --- ---- --- --- ------ -- --------<br>---- --------- --- ------- ------------ ---------- ---------<br>--- ---------- ------- ---------- ------- -- -------- ----<br>---- --- ------ ----- ------ -- join --- ----- -- - -------<br>-------- -- --- --- -- ----- ----------- ----- -----------<br>---- --- ---------- --- ---- --- -- ----------,303150.00000000006,303014,302229,302210,302246,303179,,31,join
screen,html.Screen,1_3_1_0_1_32,2021-04-22T14:02:35.431Z,,,,,,,,,,,,,,,,51,,,,,,,,,,,,,,587,,response,,,,13,D,,,,,,Space,keypress(Space),,,,silence,,,,-------- -------- --- --- ---- --- --- ------ -- --------<br>---- --------- --- ------- ------------ ---------- ---------<br>--- ---------- ------- ---------- ------- -- -------- ----<br>---- --- ------ ----- ------ -- ---- the ----- -- - -------<br>-------- -- --- --- -- ----- ----------- ----- -----------<br>---- --- ---------- --- ---- --- -- ----------,303885,303750,303163,303150.00000000006,303179,303919,,32,the
screen,html.Screen,1_3_1_0_1_33,2021-04-22T14:02:36.109Z,,,,,,,,,,,,,,,,51,,,,,,,,,,,,,,526,,response,,,,13,D,,,,,,Space,keypress(Space),,,,silence,,,,-------- -------- --- --- ---- --- --- ------ -- --------<br>---- --------- --- ------- ------------ ---------- ---------<br>--- ---------- ------- ---------- ------- -- -------- ----<br>---- --- ------ ----- ------ -- ---- --- House -- - -------<br>-------- -- --- --- -- ----- ----------- ----- -----------<br>---- --- ---------- --- ---- --- -- ----------,304564,304428,303902,303885,303919,304602,,33,House
screen,html.Screen,1_3_1_0_1_34,2021-04-22T14:02:36.850Z,,,,,,,,,,,,,,,,51,,,,,,,,,,,,,,583,,response,,,,13,D,,,,,,Space,keypress(Space),,,,silence,,,,-------- -------- --- --- ---- --- --- ------ -- --------<br>---- --------- --- ------- ------------ ---------- ---------<br>--- ---------- ------- ---------- ------- -- -------- ----<br>---- --- ------ ----- ------ -- ---- --- ----- in - -------<br>-------- -- --- --- -- ----- ----------- ----- -----------<br>---- --- ---------- --- ---- --- -- ----------,305304.00000000006,305169,304586,304564,304602,305336,,34,in
screen,html.Screen,1_3_1_0_1_35,2021-04-22T14:02:37.541Z,,,,,,,,,,,,,,,,51,,,,,,,,,,,,,,541,,response,,,,13,D,,,,,,Space,keypress(Space),,,,silence,,,,-------- -------- --- --- ---- --- --- ------ -- --------<br>---- --------- --- ------- ------------ ---------- ---------<br>--- ---------- ------- ---------- ------- -- -------- ----<br>---- --- ------ ----- ------ -- ---- --- ----- -- a -------<br>-------- -- --- --- -- ----- ----------- ----- -----------<br>---- --- ---------- --- ---- --- -- ----------,305995,305860,305319,305304.00000000006,305336,306036,,35,a
screen,html.Screen,1_3_1_0_1_36,2021-04-22T14:02:38.103Z,,,,,,,,,,,,,,,,51,,,,,,,,,,,,,,403,,response,,,,13,D,,,,,,Space,keypress(Space),,,,silence,,,,-------- -------- --- --- ---- --- --- ------ -- --------<br>---- --------- --- ------- ------------ ---------- ---------<br>--- ---------- ------- ---------- ------- -- -------- ----<br>---- --- ------ ----- ------ -- ---- --- ----- -- - massive<br>-------- -- --- --- -- ----- ----------- ----- -----------<br>---- --- ---------- --- ---- --- -- ----------,306557,306422,306019,305995,306036,306587,,36,massive
screen,html.Screen,1_3_1_0_1_37,2021-04-22T14:02:38.868Z,,,,,,,,,,,,,,,,51,,,,,,,,,,,,,,617,,response,,,,13,D,,,,,,Space,keypress(Space),,,,silence,,,,-------- -------- --- --- ---- --- --- ------ -- --------<br>---- --------- --- ------- ------------ ---------- ---------<br>--- ---------- ------- ---------- ------- -- -------- ----<br>---- --- ------ ----- ------ -- ---- --- ----- -- - -------<br>overhaul -- --- --- -- ----- ----------- ----- -----------<br>---- --- ---------- --- ---- --- -- ----------,307323,307187,306570,306558,306587,307354,,37,overhaul
screen,html.Screen,1_3_1_0_1_38,2021-04-22T14:02:39.374Z,,,,,,,,,,,,,,,,51,,,,,,,,,,,,,,356,,response,,,,13,D,,,,,,Space,keypress(Space),,,,silence,,,,-------- -------- --- --- ---- --- --- ------ -- --------<br>---- --------- --- ------- ------------ ---------- ---------<br>--- ---------- ------- ---------- ------- -- -------- ----<br>---- --- ------ ----- ------ -- ---- --- ----- -- - -------<br>-------- of --- --- -- ----- ----------- ----- -----------<br>---- --- ---------- --- ---- --- -- ----------,307828.00000000006,307693,307337,307323,307354,307871,,38,of
screen,html.Screen,1_3_1_0_1_39,2021-04-22T14:02:39.883Z,,,,,,,,,,,,,,,,51,,,,,,,,,,,,,,350.0000000000582,,response,,,,13,D,,,,,,Space,keypress(Space),,,,silence,,,,-------- -------- --- --- ---- --- --- ------ -- --------<br>---- --------- --- ------- ------------ ---------- ---------<br>--- ---------- ------- ---------- ------- -- -------- ----<br>---- --- ------ ----- ------ -- ---- --- ----- -- - -------<br>-------- -- the --- -- ----- ----------- ----- -----------<br>---- --- ---------- --- ---- --- -- ----------,308338,308203.00000000006,307853,307828.00000000006,307871,308373,,39,the
screen,html.Screen,1_3_1_0_1_40,2021-04-22T14:02:40.734Z,,,,,,,,,,,,,,,,51,,,,,,,,,,,,,,698,,response,,,,13,D,,,,,,Space,keypress(Space),,,,silence,,,,-------- -------- --- --- ---- --- --- ------ -- --------<br>---- --------- --- ------- ------------ ---------- ---------<br>--- ---------- ------- ---------- ------- -- -------- ----<br>---- --- ------ ----- ------ -- ---- --- ----- -- - -------<br>-------- -- --- way -- ----- ----------- ----- -----------<br>---- --- ---------- --- ---- --- -- ----------,309188,309053,308355,308338,308373,309223,,40,way
screen,html.Screen,1_3_1_0_1_41,2021-04-22T14:02:41.328Z,,,,,,,,,,,,,,,,51,,,,,,,,,,,,,,440,,response,,,,13,D,,,,,,Space,keypress(Space),,,,silence,,,,-------- -------- --- --- ---- --- --- ------ -- --------<br>---- --------- --- ------- ------------ ---------- ---------<br>--- ---------- ------- ---------- ------- -- -------- ----<br>---- --- ------ ----- ------ -- ---- --- ----- -- - -------<br>-------- -- --- --- in ----- ----------- ----- -----------<br>---- --- ---------- --- ---- --- -- ----------,309782,309647,309207,309188,309223,309824,,41,in
screen,html.Screen,1_3_1_0_1_42,2021-04-22T14:02:41.858Z,,,,,,,,,,,,,,,,51,,,,,,,,,,,,,,370,,response,,,,13,D,,,,,,Space,keypress(Space),,,,silence,,,,-------- -------- --- --- ---- --- --- ------ -- --------<br>---- --------- --- ------- ------------ ---------- ---------<br>--- ---------- ------- ---------- ------- -- -------- ----<br>---- --- ------ ----- ------ -- ---- --- ----- -- - -------<br>-------- -- --- --- -- which ----------- ----- -----------<br>---- --- ---------- --- ---- --- -- ----------,310312,310177,309807,309782,309824,310341,,42,which
screen,html.Screen,1_3_1_0_1_43,2021-04-22T14:02:43.136Z,,,,,,,,,,,,,,,,51,,,,,,,,,,,,,,1131,,response,,,,13,D,,,,,,Space,keypress(Space),,,,silence,,,,-------- -------- --- --- ---- --- --- ------ -- --------<br>---- --------- --- ------- ------------ ---------- ---------<br>--- ---------- ------- ---------- ------- -- -------- ----<br>---- --- ------ ----- ------ -- ---- --- ----- -- - -------<br>-------- -- --- --- -- ----- bureaucrats ----- -----------<br>---- --- ---------- --- ---- --- -- ----------,311590.00000000006,311455,310324,310312,310341,311623,,43,bureaucrats
screen,html.Screen,1_3_1_0_1_44,2021-04-22T14:02:43.808Z,,,,,,,,,,,,,,,,51,,,,,,,,,,,,,,519,,response,,,,13,D,,,,,,Space,keypress(Space),,,,silence,,,,-------- -------- --- --- ---- --- --- ------ -- --------<br>---- --------- --- ------- ------------ ---------- ---------<br>--- ---------- ------- ---------- ------- -- -------- ----<br>---- --- ------ ----- ------ -- ---- --- ----- -- - -------<br>-------- -- --- --- -- ----- ----------- enact -----------<br>---- --- ---------- --- ---- --- -- ----------,312262,312127,311608,311590.00000000006,311623,312291,,44,enact
screen,html.Screen,1_3_1_0_1_45,2021-04-22T14:02:44.441Z,,,,,,,,,,,,,,,,51,,,,,,,,,,,,,,484,,response,,,,13,D,,,,,,Space,keypress(Space),,,,silence,,,,-------- -------- --- --- ---- --- --- ------ -- --------<br>---- --------- --- ------- ------------ ---------- ---------<br>--- ---------- ------- ---------- ------- -- -------- ----<br>---- --- ------ ----- ------ -- ---- --- ----- -- - -------<br>-------- -- --- --- -- ----- ----------- ----- regulations<br>---- --- ---------- --- ---- --- -- ----------,312895,312759,312275,312262,312291,312925,,45,regulations
screen,html.Screen,1_3_1_0_1_46,2021-04-22T14:02:45.147Z,,,,,,,,,,,,,,,,51,,,,,,,,,,,,,,556.0000000000582,,response,,,,13,D,,,,,,Space,keypress(Space),,,,silence,,,,-------- -------- --- --- ---- --- --- ------ -- --------<br>---- --------- --- ------- ------------ ---------- ---------<br>--- ---------- ------- ---------- ------- -- -------- ----<br>---- --- ------ ----- ------ -- ---- --- ----- -- - -------<br>-------- -- --- --- -- ----- ----------- ----- -----------<br>that --- ---------- --- ---- --- -- ----------,313601,313465.00000000006,312909,312895,312925,313628,,46,that
screen,html.Screen,1_3_1_0_1_47,2021-04-22T14:02:45.882Z,,,,,,,,,,,,,,,,51,,,,,,,,,,,,,,588,,response,,,,13,D,,,,,,Space,keypress(Space),,,,silence,,,,-------- -------- --- --- ---- --- --- ------ -- --------<br>---- --------- --- ------- ------------ ---------- ---------<br>--- ---------- ------- ---------- ------- -- -------- ----<br>---- --- ------ ----- ------ -- ---- --- ----- -- - -------<br>-------- -- --- --- -- ----- ----------- ----- -----------<br>---- are ---------- --- ---- --- -- ----------,314336,314200,313612,313601,313628,314378,,47,are
screen,html.Screen,1_3_1_0_1_48,2021-04-22T14:02:46.791Z,,,,,,,,,,,,,,,,51,,,,,,,,,,,,,,748,,response,,,,13,D,,,,,,Space,keypress(Space),,,,silence,,,,-------- -------- --- --- ---- --- --- ------ -- --------<br>---- --------- --- ------- ------------ ---------- ---------<br>--- ---------- ------- ---------- ------- -- -------- ----<br>---- --- ------ ----- ------ -- ---- --- ----- -- - -------<br>-------- -- --- --- -- ----- ----------- ----- -----------<br>---- --- strangling --- ---- --- -- ----------,315246,315110,314362,314336,314378,315279,,48,strangling
screen,html.Screen,1_3_1_0_1_49,2021-04-22T14:02:47.459Z,,,,,,,,,,,,,,,,51,,,,,,,,,,,,,,514,,response,,,,13,D,,,,,,Space,keypress(Space),,,,silence,,,,-------- -------- --- --- ---- --- --- ------ -- --------<br>---- --------- --- ------- ------------ ---------- ---------<br>--- ---------- ------- ---------- ------- -- -------- ----<br>---- --- ------ ----- ------ -- ---- --- ----- -- - -------<br>-------- -- --- --- -- ----- ----------- ----- -----------<br>---- --- ---------- the ---- --- -- ----------,315913,315777,315263,315246,315279,315945,,49,the
screen,html.Screen,1_3_1_0_1_50,2021-04-22T14:02:48.182Z,,,,,,,,,,,,,,,,51,,,,,,,,,,,,,,570,,response,,,,13,D,,,,,,Space,keypress(Space),,,,silence,,,,-------- -------- --- --- ---- --- --- ------ -- --------<br>---- --------- --- ------- ------------ ---------- ---------<br>--- ---------- ------- ---------- ------- -- -------- ----<br>---- --- ------ ----- ------ -- ---- --- ----- -- - -------<br>-------- -- --- --- -- ----- ----------- ----- -----------<br>---- --- ---------- --- life --- -- ----------,316636,316500,315930,315913,315945,316662,,50,life
screen,html.Screen,1_3_1_0_1_51,2021-04-22T14:02:48.788Z,,,,,,,,,,,,,,,,51,,,,,,,,,,,,,,460,,response,,,,13,D,,,,,,Space,keypress(Space),,,,silence,,,,-------- -------- --- --- ---- --- --- ------ -- --------<br>---- --------- --- ------- ------------ ---------- ---------<br>--- ---------- ------- ---------- ------- -- -------- ----<br>---- --- ------ ----- ------ -- ---- --- ----- -- - -------<br>-------- -- --- --- -- ----- ----------- ----- -----------<br>---- --- ---------- --- ---- out -- ----------,317243,317107,316647,316636,316662,317280,,51,out
screen,html.Screen,1_3_1_0_1_52,2021-04-22T14:02:49.276Z,,,,,,,,,,,,,,,,51,,,,,,,,,,,,,,331,,response,,,,13,D,,,,,,Space,keypress(Space),,,,silence,,,,-------- -------- --- --- ---- --- --- ------ -- --------<br>---- --------- --- ------- ------------ ---------- ---------<br>--- ---------- ------- ---------- ------- -- -------- ----<br>---- --- ------ ----- ------ -- ---- --- ----- -- - -------<br>-------- -- --- --- -- ----- ----------- ----- -----------<br>---- --- ---------- --- ---- --- of ----------,317730,317594,317263,317243,317280,317764,,52,of
screen,html.Screen,1_3_1_0_1_53,2021-04-22T14:02:49.821Z,,,,,,,,,,,,,,,,51,,,,,,,,,,,,,,393,,response,,,,13,D,,,,,,Space,keypress(Space),,,,silence,,,,-------- -------- --- --- ---- --- --- ------ -- --------<br>---- --------- --- ------- ------------ ---------- ---------<br>--- ---------- ------- ---------- ------- -- -------- ----<br>---- --- ------ ----- ------ -- ---- --- ----- -- - -------<br>-------- -- --- --- -- ----- ----------- ----- -----------<br>---- --- ---------- --- ---- --- -- companies.,318276,318140,317747,317730,317764,318314,,53,companies.
Item 13,flow.Loop,1_3_1_0_1,2021-04-22T14:02:49.822Z,,,,,,,,,,,,,,,,,,,,,,,,,,,,,,44337,,completion,,,,,,,,,,,,,,,,,,,,,318276,318140,273787,273787,273803,318314,,,
Question 1,html.Screen,1_3_1_0_2,2021-04-22T14:02:58.691Z,,,,,,,,,,,,,,,,,,,,,,,,,,,true,FALSE,,8714,,response,,,,13,D,,,,,,FALSE,click #choice-2,,,,silence,,,,,327145,327010,318296,318276,318314,327174,,,
Question 2,html.Screen,1_3_1_0_3,2021-04-22T14:03:03.221Z,,,,,,,,,,,,,,,,,,,,,,,,,,,true,TRUE,,4383,,response,,,,13,D,,,,,,TRUE,click #choice-1,,,,silence,,,,,331675,331540,327157,327145,327174,331696,,,
Item 13,flow.Sequence,1_3_1_0,2021-04-22T14:03:03.222Z,,,,,,,,,,,,,,,,,,,,,,,,,,,,,,64729,,completion,,,,,,,,,,,,,,,,,,,,,331675,331540,266794,266795,266811,331696,,,
Holding screen,html.Screen,1_3_1_1_0,2021-04-22T14:03:10.220Z,,,,,,,,,,,,,,,,,,,,,,,,,,,,,,6995,,timeout,,,,,,,,,,,,,,,,,,,,,338674.00000000006,338674,331680,331676,331696,338691,,,
screen,html.Screen,1_3_1_1_1_0,2021-04-22T14:03:11.034Z,,,,,,,,,,,,,,,,11,,,,,,,,,,,,,,678.0000000000582,,response,,,,4,D,,,,,,Space,keypress(Space),,,,silence,,,,Known -- ---- --- -- --- -------- ------------ ---------- --<br>- ------- ------ --------- -- ------------ -- --- ---- -----<br>------ ---- ---- ------ ------ ------- --- ----- ---------<br>---- --- -------- -------- --- --- -- ------- --- --- -----<br>-- --- ------ ------- --- --- -------- ---- --------- --<br>---------- -- -------- ----------------,339488,339352.00000000006,338674,338674.00000000006,338691,339522,,0,Known
screen,html.Screen,1_3_1_1_1_1,2021-04-22T14:03:11.629Z,,,,,,,,,,,,,,,,11,,,,,,,,,,,,,,440,,response,,,,4,D,,,,,,Space,keypress(Space),,,,silence,,,,----- as ---- --- -- --- -------- ------------ ---------- --<br>- ------- ------ --------- -- ------------ -- --- ---- -----<br>------ ---- ---- ------ ------ ------- --- ----- ---------<br>---- --- -------- -------- --- --- -- ------- --- --- -----<br>-- --- ------ ------- --- --- -------- ---- --------- --<br>---------- -- -------- ----------------,340082,339946,339506,339488,339522,340123,,1,as
