sender,sender_type,sender_id,timestamp,meta,,Blues,Classical,Country,Dance,Electronic,Folk,Gospel,Hip-Hop,Jazz,Latin,Musical/Film,New-age,Pop,Prolific_id,Provo_ID,R&B,Rap,Reggae,Religious,Rock,Soul,Swing,Traditional,age,artist_name,correct,correctResponse,distraction,duration,education,ended_on,familiarity,gender,headphone_check_performance,item,list,music_frequency,offensiveness,pleasantness,position_correct,preference,response,response_action,snippet_file,song_name,song_rating,sound,stimulus_1,stimulus_2,stimulus_3,text,time_commit,time_end,time_render,time_run,time_show,time_switch,url,word,word_ID
Prolific ID,html.Form,0,2021-04-24T14:11:08.803Z,"{""labjs_version"":""20.2.2"",""labjs_build"":{""flavor"":""production"",""commit"":""a25486e0c714a0ae2ce03ff94b7bb6896854dcfa""},""location"":""https://run.pavlovia.org/mvasilev/prolific_music_b/"",""userAgent"":""Mozilla/5.0 (Macintosh; Intel Mac OS X 10_15_7) AppleWebKit/537.36 (KHTML, like Gecko) Chrome/90.0.4430.85 Safari/537.36"",""platform"":""MacIntel"",""language"":""en-GB"",""locale"":""en-GB"",""timeZone"":""Europe/London"",""timezoneOffset"":-60,""screen_width"":1440,""screen_height"":900,""scroll_width"":1440,""scroll_height"":741,""window_innerWidth"":1440,""window_innerHeight"":789,""devicePixelRatio"":2}",,,,,,,,,,,,,,,5bec8599fdf8c50001d0d329,,,,,,,,,,,,,,,7611.8779999926055,,form submission,,,,,,,,,,,,,,,,,,,,,15693.149999977322,15692.184999992605,8046.975,8057.61999997776,8080.307,15703.805,{},,
Introduction,html.Screen,1_0,2021-04-24T14:11:14.677Z,,,,,,,,,,,,,,,,,,,,,,,,,,,,,,,5856.919999988451,,response,,,,,,,,,,,continue,click button,,,,,,,,,21566.655000002356,21560.72499998845,15687.139,15693.780000001425,15703.805,21570.237,,,
Volume calibration,html.Screen,1_1,2021-04-24T14:11:45.334Z,,,,,,,,,,,,,,,,,,,,,,,,,,,,,,,30645.352999977964,,response,,,,,,,,,,,continue,click button,,,,,,,,,52223.589999979595,52215.589999977965,21553.571,21567.01999998768,21570.237,52228.925,,,
Task instructions,html.Screen,1_2,2021-04-24T14:11:54.377Z,,,,,,,,,,,,,,,,,,,,,,,,,,,,,,,9033.954999994763,,response,,,,,,,,,,,continue,click button,,,,,,,,,61265.78499999596,61262.879999994766,52212.259,52223.830000002636,52228.925,61280.665,,,
Sounds,html.Screen,1_3_0_0,2021-04-24T14:11:58.639Z,,,,,,,,,,,,,,,,,,,,,,,,,,,,,,,4257.779000000002,,timeout,,,,,,,,,2,,,,,,,,O,S,I,,65527.939999999944,65521.778,61263.999,61266.23499998823,61280.665,65538.444,,,
Judgement,html.Screen,1_3_0_1,2021-04-24T14:11:59.425Z,,,,,,,,,,,,,,,,,,,,,,,,,,,,true,2,,772.7359999896871,,response,,,,,,,,,2,,2,click #choice-2,,,,,O,S,I,,66314.2200000002,66311.17999998969,65521.778,65528.209999989485,65538.444,66321.746,,,
Trial,flow.Sequence,1_3_0,2021-04-24T14:11:59.426Z,,,,,,,,,,,,,,,,,,,,,,,,,,,,,,,5030.514999989689,,completion,,,,,,,,,2,,,,,,,,O,S,I,,66314.79499998386,66311.17999998969,61263.999,61266.124999994645,61280.665,66321.746,,,
Sounds,html.Screen,1_3_1_0,2021-04-24T14:12:03.668Z,,,,,,,,,,,,,,,,,,,,,,,,,,,,,,,4249.830000000002,,timeout,,,,,,,,,1,,,,,,,,S,O,I,,70556.21999999858,70554.91,66305.08,66315.3099999763,66321.746,70571.576,,,
Judgement,html.Screen,1_3_1_1,2021-04-24T14:12:04.480Z,,,,,,,,,,,,,,,,,,,,,,,,,,,,true,1,,794.4040000023087,,response,,,,,,,,,1,,1,click #choice-1,,,,,S,O,I,,71368.66499998723,71365.98000000231,70554.91,70556.43999998574,70571.576,71371.544,,,
Trial,flow.Sequence,1_3_1,2021-04-24T14:12:04.480Z,,,,,,,,,,,,,,,,,,,,,,,,,,,,,,,5044.2340000023105,,completion,,,,,,,,,1,,,,,,,,S,O,I,,71369.00499998592,71365.98000000231,66305.08,66315.18499998492,66321.746,71371.544,,,
Sounds,html.Screen,1_3_2_0,2021-04-24T14:12:08.718Z,,,,,,,,,,,,,,,,,,,,,,,,,,,,,,,4249.830000000002,,timeout,,,,,,,,,1,,,,,,,,S,I,O,,75606.4099999785,75604.708,71354.878,71369.23999999999,71371.544,75621.374,,,
Judgement,html.Screen,1_3_2_1,2021-04-24T14:12:09.221Z,,,,,,,,,,,,,,,,,,,,,,,,,,,,true,1,,485.43099998852995,,response,,,,,,,,,1,,1,click #choice-1,,,,,S,I,O,,76109.87499999464,76106.80499998853,75604.708,75606.61999997683,75621.374,76121.354,,,
Trial,flow.Sequence,1_3_2,2021-04-24T14:12:09.222Z,,,,,,,,,,,,,,,,,,,,,,,,,,,,,,,4735.260999988532,,completion,,,,,,,,,1,,,,,,,,S,I,O,,76110.19999999553,76106.80499998853,71354.878,71369.15499999304,71371.544,76121.354,,,
Sounds,html.Screen,1_3_3_0,2021-04-24T14:12:13.463Z,,,,,,,,,,,,,,,,,,,,,,,,,,,,,,,4244.171999999991,,timeout,,,,,,,,,3,,,,,,,,O,I,S,,80350.9399999748,80348.86,76104.688,76110.4349999805,76121.354,80365.526,,,
Judgement,html.Screen,1_3_3_1,2021-04-24T14:12:13.939Z,,,,,,,,,,,,,,,,,,,,,,,,,,,,true,3,,458.8289999897388,,response,,,,,,,,,3,,3,click #choice-3,,,,,O,I,S,,80827.43499998469,80824.35499998974,80348.86,80351.15999999107,80365.526,80832.174,,,
Trial,flow.Sequence,1_3_3,2021-04-24T14:12:13.939Z,,,,,,,,,,,,,,,,,,,,,,,,,,,,,,,4703.00099998973,,completion,,,,,,,,,3,,,,,,,,O,I,S,,80827.76499999454,80824.35499998974,76104.688,76110.34499999369,76121.354,80832.174,,,
Sounds,html.Screen,1_3_4_0,2021-04-24T14:12:18.179Z,,,,,,,,,,,,,,,,,,,,,,,,,,,,,,,4249.830000000002,,timeout,,,,,,,,,3,,,,,,,,I,O,S,,85067.57499999367,85065.338,80815.508,80827.96499997494,80832.174,85082.004,,,
Judgement,html.Screen,1_3_4_1,2021-04-24T14:12:18.696Z,,,,,,,,,,,,,,,,,,,,,,,,,,,,true,3,,499.2959999907325,,response,,,,,,,,,3,,3,click #choice-3,,,,,I,O,S,,85584.4700000016,85581.29999999073,85065.338,85067.7699999942,85082.004,85598.65,,,
Trial,flow.Sequence,1_3_4,2021-04-24T14:12:18.697Z,,,,,,,,,,,,,,,,,,,,,,,,,,,,,,,4749.125999990734,,completion,,,,,,,,,3,,,,,,,,I,O,S,,85584.78999999352,85581.29999999073,80815.508,80827.9099999927,80832.174,85598.65,,,
Sounds,html.Screen,1_3_5_0,2021-04-24T14:12:22.946Z,,,,,,,,,,,,,,,,,,,,,,,,,,,,,,,4249.830000000002,,timeout,,,,,,,,,2,,,,,,,,I,S,O,,89833.92499998445,89831.814,85581.984,85584.99000000302,85598.65,89848.48,,,
Judgement,html.Screen,1_3_5_1,2021-04-24T14:12:23.397Z,,,,,,,,,,,,,,,,,,,,,,,,,,,,true,2,,433.57999999773165,,response,,,,,,,,,2,,2,click #choice-2,,,,,I,S,O,,90285.11999998591,90282.05999999773,89831.814,89835.070000001,89848.48,90298.462,,,
Trial,flow.Sequence,1_3_5,2021-04-24T14:12:23.397Z,,,,,,,,,,,,,,,,,,,,,,,,,,,,,,,4683.409999997733,,completion,,,,,,,,,2,,,,,,,,I,S,O,,90285.42000000016,90282.05999999773,85581.984,85584.9299999827,85598.65,90298.462,,,
Task,flow.Loop,1_3,2021-04-24T14:12:23.406Z,,,,,,,,,,,,,,,,,,,,,,,,,,,,,,,29001.394999997727,,completion,,,1,,,,,,,,,,,,,,,,,,90293.7099999981,90282.05999999773,61263.999,61266.01500000106,61280.665,90298.462,,,
Trap,html.Screen,1_4,2021-04-24T14:12:23.407Z,,,,,,,,,,,,,,,,,,,,,,,,,,,,,,,NaN,,skipped,,,,,,,,,,,,,,,,,,,,,90294.9849999859,90282.05999999773,,90294.86499997438,,90298.462,,,
Thanks,html.Screen,1_5,2021-04-24T14:12:28.920Z,,,,,,,,,,,,,,,,,,,,,,,,,,,,,,,5506.442999997234,,response,,,,,,,,,,,continue,click button,,,,,,,,,95807.95999997645,95804.90499999723,90281.796,90295.09999998845,90298.462,98008.655,,,
Headphone screening,flow.Sequence,1,2021-04-24T14:12:28.920Z,,,,,,,,,,,,,,,,,,,,,,,,,,,,,,,80101.09999999724,,completion,,,,,,,,,,,,,,,,,,,,,95808.26999997953,95804.90499999723,15687.139,15693.715000001248,15703.805,98008.655,,,
Instructions,html.Page,2_0,2021-04-24T14:12:52.326Z,,,,,,,,,,,,,,,,,,,,,,,,,,,,,,,21203.834999976243,,form submission,,,,,,,,,,,,,,,,,,,,,119212.8799999773,119212.48999997624,97991.989,98006.7749999871,98008.655,119224.473,,,
Holding screen,html.Screen,2_1_0_0,2021-04-24T14:13:02.327Z,,,,,,,,,,,,,,,,,,,,,,,,,,,,,,,10003.971000000005,,timeout,,,,,,,,,,,,,,,,,,,,,129213.79499998875,129211.778,119207.807,119213.19999999832,119224.473,129228.444,,,
screen,html.Screen,2_1_0_1_0,2021-04-24T14:13:02.850Z,,,,,,,,,,,,,,,,,53,,,,,,,,,,,,,,500.0509999884671,,response,,,,99,,,,,,,Space,keypress(Space),,,,,,,,When -- ----- -- ------ - ------- --- ----------<br>------------- ------ ------ ---- ---- ------- ----- -- ----<br>-------- ------- -- ---------- --- - --- ----- ----- ----<br>---- --- --- ----- --- ---- ---- ------- ----- ---- -------<br>--- --- -- ----- -- --- ---- -- --- ---- -- ------ ------<br>--- ----- -- ----,129736.39999999432,129728.49499998847,129211.778,129214.12999997847,129228.444,129745.09,,0,When
screen,html.Screen,2_1_0_1_1,2021-04-24T14:13:03.147Z,,,,,,,,,,,,,,,,,53,,,,,,,,,,,,,,283.9949999873934,,response,,,,99,,,,,,,Space,keypress(Space),,,,,,,,---- it ----- -- ------ - ------- --- ----------<br>------------- ------ ------ ---- ---- ------- ----- -- ----<br>-------- ------- -- ---------- --- - --- ----- ----- ----<br>---- --- --- ----- --- ---- ---- ------- ----- ---- -------<br>--- --- -- ----- -- --- ---- -- --- ---- -- ------ ------<br>--- ----- -- ----,130033.39499997674,130029.08499998739,129728.424,129736.57499998808,129745.09,130036.823,,1,it
screen,html.Screen,2_1_0_1_2,2021-04-24T14:13:03.487Z,,,,,,,,,,,,,,,,,53,,,,,,,,,,,,,,333.0869999794231,,response,,,,99,,,,,,,Space,keypress(Space),,,,,,,,---- -- comes -- ------ - ------- --- ----------<br>------------- ------ ------ ---- ---- ------- ----- -- ----<br>-------- ------- -- ---------- --- - --- ----- ----- ----<br>---- --- --- ----- --- ---- ---- ------- ----- ---- -------<br>--- --- -- ----- -- --- ---- -- --- ---- -- ------ ------<br>--- ----- -- ----,130373.99500000174,130369.90999997943,130020.157,130033.58999997727,130036.823,130386.809,,2,comes
screen,html.Screen,2_1_0_1_3,2021-04-24T14:13:03.756Z,,,,,,,,,,,,,,,,,53,,,,,,,,,,,,,,251.31099998870923,,response,,,,99,,,,,,,Space,keypress(Space),,,,,,,,---- -- ----- to ------ - ------- --- ----------<br>------------- ------ ------ ---- ---- ------- ----- -- ----<br>-------- ------- -- ---------- --- - --- ----- ----- ----<br>---- --- --- ----- --- ---- ---- ------- ----- ---- -------<br>--- --- -- ----- -- --- ---- -- --- ---- -- ------ ------<br>--- ----- -- ----,130642.42499999818,130638.1199999887,130370.143,130374.19000000227,130386.809,130653.465,,3,to
screen,html.Screen,2_1_0_1_4,2021-04-24T14:13:04.056Z,,,,,,,,,,,,,,,,,53,,,,,,,,,,,,,,285.4649999747926,,response,,,,99,,,,,,,Space,keypress(Space),,,,,,,,---- -- ----- -- having - ------- --- ----------<br>------------- ------ ------ ---- ---- ------- ----- -- ----<br>-------- ------- -- ---------- --- - --- ----- ----- ----<br>---- --- --- ----- --- ---- ---- ------- ----- ---- -------<br>--- --- -- ----- -- --- ---- -- --- ---- -- ------ ------<br>--- ----- -- ----,130942.7699999942,130938.92999997479,130636.799,130643.79999999073,130653.465,130953.453,,4,having
screen,html.Screen,2_1_0_1_5,2021-04-24T14:13:04.359Z,,,,,,,,,,,,,,,,,53,,,,,,,,,,,,,,288.5069999848347,,response,,,,99,,,,,,,Space,keypress(Space),,,,,,,,---- -- ----- -- ------ a ------- --- ----------<br>------------- ------ ------ ---- ---- ------- ----- -- ----<br>-------- ------- -- ---------- --- - --- ----- ----- ----<br>---- --- --- ----- --- ---- ---- ------- ----- ---- -------<br>--- --- -- ----- -- --- ---- -- --- ---- -- ------ ------<br>--- ----- -- ----,131245.87499999325,131241.95999998483,130936.787,130942.96499999473,130953.453,131253.441,,5,a
screen,html.Screen,2_1_0_1_6,2021-04-24T14:13:04.645Z,,,,,,,,,,,,,,,,,53,,,,,,,,,,,,,,274.5189999776194,,response,,,,99,,,,,,,Space,keypress(Space),,,,,,,,---- -- ----- -- ------ - lasting --- ----------<br>------------- ------ ------ ---- ---- ------- ----- -- ----<br>-------- ------- -- ---------- --- - --- ----- ----- ----<br>---- --- --- ----- --- ---- ---- ------- ----- ---- -------<br>--- --- -- ----- -- --- ---- -- --- ---- -- ------ ------<br>--- ----- -- ----,131532.16000000248,131527.9599999776,131236.775,131246.06999999378,131253.441,131536.763,,6,lasting
screen,html.Screen,2_1_0_1_7,2021-04-24T14:13:04.954Z,,,,,,,,,,,,,,,,,53,,,,,,,,,,,,,,300.14699998361175,,response,,,,99,,,,,,,Space,keypress(Space),,,,,,,,---- -- ----- -- ------ - ------- and ----------<br>------------- ------ ------ ---- ---- ------- ----- -- ----<br>-------- ------- -- ---------- --- - --- ----- ----- ----<br>---- --- --- ----- --- ---- ---- ------- ----- ---- -------<br>--- --- -- ----- -- --- ---- -- --- ---- -- ------ ------<br>--- ----- -- ----,131840.80999999424,131836.90999998362,131520.097,131532.355000003,131536.763,131853.417,,7,and
screen,html.Screen,2_1_0_1_8,2021-04-24T14:13:05.262Z,,,,,,,,,,,,,,,,,53,,,,,,,,,,,,,,291.44799998021335,,response,,,,99,,,,,,,Space,keypress(Space),,,,,,,,---- -- ----- -- ------ - ------- --- fulfilling<br>------------- ------ ------ ---- ---- ------- ----- -- ----<br>-------- ------- -- ---------- --- - --- ----- ----- ----<br>---- --- --- ----- --- ---- ---- ------- ----- ---- -------<br>--- --- -- ----- -- --- ---- -- --- ---- -- ------ ------<br>--- ----- -- ----,132148.75999998185,132144.8649999802,131836.751,131841.00999997463,131853.417,132153.405,,8,fulfilling
screen,html.Screen,2_1_0_1_9,2021-04-24T14:13:05.549Z,,,,,,,,,,,,,,,,,53,,,,,,,,,,,,,,278.47999999814783,,response,,,,99,,,,,,,Space,keypress(Space),,,,,,,,"---- -- ----- -- ------ - ------- --- ----------<br>relationship, ------ ------ ---- ---- ------- ----- -- ----<br>-------- ------- -- ---------- --- - --- ----- ----- ----<br>---- --- --- ----- --- ---- ---- ------- ----- ---- -------<br>--- --- -- ----- -- --- ---- -- --- ---- -- ------ ------<br>--- ----- -- ----",132436.13499999628,132431.88499999815,132136.739,132148.95000000251,132153.405,132453.393,,9,"relationship,"
screen,html.Screen,2_1_0_1_10,2021-04-24T14:13:05.862Z,,,,,,,,,,,,,,,,,53,,,,,,,,,,,,,,291.48199997484335,,response,,,,99,,,,,,,Space,keypress(Space),,,,,,,,---- -- ----- -- ------ - ------- --- ----------<br>------------- common ------ ---- ---- ------- ----- -- ----<br>-------- ------- -- ---------- --- - --- ----- ----- ----<br>---- --- --- ----- --- ---- ---- ------- ----- ---- -------<br>--- --- -- ----- -- --- ---- -- --- ---- -- ------ ------<br>--- ----- -- ----,132748.78999998327,132744.87499997485,132436.727,132436.32999999681,132453.393,132753.381,,10,common
screen,html.Screen,2_1_0_1_11,2021-04-24T14:13:06.214Z,,,,,,,,,,,,,,,,,53,,,,,,,,,,,,,,343.57399998634355,,response,,,,99,,,,,,,Space,keypress(Space),,,,,,,,---- -- ----- -- ------ - ------- --- ----------<br>------------- ------ wisdom ---- ---- ------- ----- -- ----<br>-------- ------- -- ---------- --- - --- ----- ----- ----<br>---- --- --- ----- --- ---- ---- ------- ----- ---- -------<br>--- --- -- ----- -- --- ---- -- --- ---- -- ------ ------<br>--- ----- -- ----,133100.8149999834,133096.95499998634,132736.715,132748.98999999277,132753.381,133103.367,,11,wisdom
screen,html.Screen,2_1_0_1_12,2021-04-24T14:13:06.648Z,,,,,,,,,,,,,,,,,53,,,,,,,,,,,,,,427.55299999014824,,response,,,,99,,,,,,,Space,keypress(Space),,,,,,,,---- -- ----- -- ------ - ------- --- ----------<br>------------- ------ ------ says ---- ------- ----- -- ----<br>-------- ------- -- ---------- --- - --- ----- ----- ----<br>---- --- --- ----- --- ---- ---- ------- ----- ---- -------<br>--- --- -- ----- -- --- ---- -- --- ---- -- ------ ------<br>--- ----- -- ----,133534.83499999857,133530.91999999015,133086.701,133100.95999998157,133103.367,133536.683,,12,says
screen,html.Screen,2_1_0_1_13,2021-04-24T14:13:06.963Z,,,,,,,,,,,,,,,,,53,,,,,,,,,,,,,,309.22699997454765,,response,,,,99,,,,,,,Space,keypress(Space),,,,,,,,---- -- ----- -- ------ - ------- --- ----------<br>------------- ------ ------ ---- that ------- ----- -- ----<br>-------- ------- -- ---------- --- - --- ----- ----- ----<br>---- --- --- ----- --- ---- ---- ------- ----- ---- -------<br>--- --- -- ----- -- --- ---- -- --- ---- -- ------ ------<br>--- ----- -- ----,133849.88500000327,133845.90999997454,133520.017,133535.0299999991,133536.683,133853.337,,13,that
screen,html.Screen,2_1_0_1_14,2021-04-24T14:13:07.274Z,,,,,,,,,,,,,,,,,53,,,,,,,,,,,,,,303.66799998638453,,response,,,,99,,,,,,,Space,keypress(Space),,,,,,,,---- -- ----- -- ------ - ------- --- ----------<br>------------- ------ ------ ---- ---- feeling ----- -- ----<br>-------- ------- -- ---------- --- - --- ----- ----- ----<br>---- --- --- ----- --- ---- ---- ------- ----- ---- -------<br>--- --- -- ----- -- --- ---- -- --- ---- -- ------ ------<br>--- ----- -- ----,134161.21500000008,134157.00499998638,133836.671,133850.07499999483,133853.337,134169.991,,14,feeling
screen,html.Screen,2_1_0_1_15,2021-04-24T14:13:07.622Z,,,,,,,,,,,,,,,,,53,,,,,,,,,,,,,,334.97899997993954,,response,,,,99,,,,,,,Space,keypress(Space),,,,,,,,---- -- ----- -- ------ - ------- --- ----------<br>------------- ------ ------ ---- ---- ------- close -- ----<br>-------- ------- -- ---------- --- - --- ----- ----- ----<br>---- --- --- ----- --- ---- ---- ------- ----- ---- -------<br>--- --- -- ----- -- --- ---- -- --- ---- -- ------ ------<br>--- ----- -- ----,134509.0049999999,134504.96999997995,134153.325,134161.41000000061,134169.991,134519.977,,15,close
screen,html.Screen,2_1_0_1_16,2021-04-24T14:13:07.947Z,,,,,,,,,,,,,,,,,53,,,,,,,,,,,,,,309.00800000008894,,response,,,,99,,,,,,,Space,keypress(Space),,,,,,,,---- -- ----- -- ------ - ------- --- ----------<br>------------- ------ ------ ---- ---- ------- ----- to ----<br>-------- ------- -- ---------- --- - --- ----- ----- ----<br>---- --- --- ----- --- ---- ---- ------- ----- ---- -------<br>--- --- -- ----- -- --- ---- -- --- ---- -- ------ ------<br>--- ----- -- ----,134833.28999998048,134828.9850000001,134503.311,134509.19499999145,134519.977,134836.631,,16,to
screen,html.Screen,2_1_0_1_17,2021-04-24T14:13:08.228Z,,,,,,,,,,,,,,,,,53,,,,,,,,,,,,,,274.2939999863156,,response,,,,99,,,,,,,Space,keypress(Space),,,,,,,,---- -- ----- -- ------ - ------- --- ----------<br>------------- ------ ------ ---- ---- ------- ----- -- your<br>-------- ------- -- ---------- --- - --- ----- ----- ----<br>---- --- --- ----- --- ---- ---- ------- ----- ---- -------<br>--- --- -- ----- -- --- ---- -- --- ---- -- ------ ------<br>--- ----- -- ----,135115.17499998445,135110.9249999863,134819.965,134833.48999998998,134836.631,135119.953,,17,your
screen,html.Screen,2_1_0_1_18,2021-04-24T14:13:08.528Z,,,,,,,,,,,,,,,,,53,,,,,,,,,,,,,,289.997000001109,,response,,,,99,,,,,,,Space,keypress(Space),,,,,,,,---- -- ----- -- ------ - ------- --- ----------<br>------------- ------ ------ ---- ---- ------- ----- -- ----<br>romantic ------- -- ---------- --- - --- ----- ----- ----<br>---- --- --- ----- --- ---- ---- ------- ----- ---- -------<br>--- --- -- ----- -- --- ---- -- --- ---- -- ------ ------<br>--- ----- -- ----,135414.35499998624,135409.95000000112,135103.287,135115.38000000292,135119.953,135419.941,,18,romantic
screen,html.Screen,2_1_0_1_19,2021-04-24T14:13:08.829Z,,,,,,,,,,,,,,,,,53,,,,,,,,,,,,,,292.0189999860013,,response,,,,99,,,,,,,Space,keypress(Space),,,,,,,,---- -- ----- -- ------ - ------- --- ----------<br>------------- ------ ------ ---- ---- ------- ----- -- ----<br>-------- partner -- ---------- --- - --- ----- ----- ----<br>---- --- --- ----- --- ---- ---- ------- ----- ---- -------<br>--- --- -- ----- -- --- ---- -- --- ---- -- ------ ------<br>--- ----- -- ----,135716.1699999997,135711.959999986,135403.275,135414.54999998678,135419.941,135719.929,,19,partner
screen,html.Screen,2_1_0_1_20,2021-04-24T14:13:09.133Z,,,,,,,,,,,,,,,,,53,,,,,,,,,,,,,,295.08599998266436,,response,,,,99,,,,,,,Space,keypress(Space),,,,,,,,---- -- ----- -- ------ - ------- --- ----------<br>------------- ------ ------ ---- ---- ------- ----- -- ----<br>-------- ------- is ---------- --- - --- ----- ----- ----<br>---- --- --- ----- --- ---- ---- ------- ----- ---- -------<br>--- --- -- ----- -- --- ---- -- --- ---- -- ------ ------<br>--- ----- -- ----,136019.249999983,136015.01499998267,135703.263,135716.36500000022,135719.929,136036.583,,20,is
screen,html.Screen,2_1_0_1_21,2021-04-24T14:13:09.435Z,,,,,,,,,,,,,,,,,53,,,,,,,,,,,,,,281.341999981174,,response,,,,99,,,,,,,Space,keypress(Space),,,,,,,,---- -- ----- -- ------ - ------- --- ----------<br>------------- ------ ------ ---- ---- ------- ----- -- ----<br>-------- ------- -- paramount. --- - --- ----- ----- ----<br>---- --- --- ----- --- ---- ---- ------- ----- ---- -------<br>--- --- -- ----- -- --- ---- -- --- ---- -- ------ ------<br>--- ----- -- ----,136322.0399999991,136317.9249999812,136019.917,136019.43999997457,136036.583,136336.571,,21,paramount.
screen,html.Screen,2_1_0_1_22,2021-04-24T14:13:09.918Z,,,,,,,,,,,,,,,,,53,,,,,,,,,,,,,,463.3789999859873,,response,,,,99,,,,,,,Space,keypress(Space),,,,,,,,---- -- ----- -- ------ - ------- --- ----------<br>------------- ------ ------ ---- ---- ------- ----- -- ----<br>-------- ------- -- ---------- But - --- ----- ----- ----<br>---- --- --- ----- --- ---- ---- ------- ----- ---- -------<br>--- --- -- ----- -- --- ---- -- --- ---- -- ------ ------<br>--- ----- -- ----,136804.19499997515,136799.94999998598,136319.905,136322.23499999964,136336.571,136819.885,,22,But
screen,html.Screen,2_1_0_1_23,2021-04-24T14:13:10.157Z,,,,,,,,,,,,,,,,,53,,,,,,,,,,,,,,219.9000000008382,,response,,,,99,,,,,,,Space,keypress(Space),,,,,,,,---- -- ----- -- ------ - ------- --- ----------<br>------------- ------ ------ ---- ---- ------- ----- -- ----<br>-------- ------- -- ---------- --- a --- ----- ----- ----<br>---- --- --- ----- --- ---- ---- ------- ----- ---- -------<br>--- --- -- ----- -- --- ---- -- --- ---- -- ------ ------<br>--- ----- -- ----,137044.05499997665,137039.78500000085,136803.219,136804.38999997568,136819.885,137053.209,,23,a
screen,html.Screen,2_1_0_1_24,2021-04-24T14:13:10.533Z,,,,,,,,,,,,,,,,,53,,,,,,,,,,,,,,361.67599997649086,,response,,,,99,,,,,,,Space,keypress(Space),,,,,,,,---- -- ----- -- ------ - ------- --- ----------<br>------------- ------ ------ ---- ---- ------- ----- -- ----<br>-------- ------- -- ---------- --- - new ----- ----- ----<br>---- --- --- ----- --- ---- ---- ------- ----- ---- -------<br>--- --- -- ----- -- --- ---- -- --- ---- -- ------ ------<br>--- ----- -- ----,137419.1399999836,137414.8849999765,137036.543,137044.24499999732,137053.209,137436.527,,24,new
screen,html.Screen,2_1_0_1_25,2021-04-24T14:13:10.882Z,,,,,,,,,,,,,,,,,53,,,,,,,,,,,,,,328.5029999804683,,response,,,,99,,,,,,,Space,keypress(Space),,,,,,,,---- -- ----- -- ------ - ------- --- ----------<br>------------- ------ ------ ---- ---- ------- ----- -- ----<br>-------- ------- -- ---------- --- - --- study ----- ----<br>---- --- --- ----- --- ---- ---- ------- ----- ---- -------<br>--- --- -- ----- -- --- ---- -- --- ---- -- ------ ------<br>--- ----- -- ----,137769.10499998485,137765.02999998047,137419.861,137419.33499998413,137436.527,137786.513,,25,study
screen,html.Screen,2_1_0_1_26,2021-04-24T14:13:11.193Z,,,,,,,,,,,,,,,,,53,,,,,,,,,,,,,,289.38199998720665,,response,,,,99,,,,,,,Space,keypress(Space),,,,,,,,---- -- ----- -- ------ - ------- --- ----------<br>------------- ------ ------ ---- ---- ------- ----- -- ----<br>-------- ------- -- ---------- --- - --- ----- finds ----<br>---- --- --- ----- --- ---- ---- ------- ----- ---- -------<br>--- --- -- ----- -- --- ---- -- --- ---- -- ------ ------<br>--- ----- -- ----,138080.06499998737,138075.8949999872,137769.847,137769.2949999764,137786.513,138086.501,,26,finds
screen,html.Screen,2_1_0_1_27,2021-04-24T14:13:11.466Z,,,,,,,,,,,,,,,,,53,,,,,,,,,,,,,,261.4389999778359,,response,,,,99,,,,,,,Space,keypress(Space),,,,,,,,---- -- ----- -- ------ - ------- --- ----------<br>------------- ------ ------ ---- ---- ------- ----- -- ----<br>-------- ------- -- ---------- --- - --- ----- ----- that<br>---- --- --- ----- --- ---- ---- ------- ----- ---- -------<br>--- --- -- ----- -- --- ---- -- --- ---- -- ------ ------<br>--- ----- -- ----,138352.20500000287,138347.93999997783,138069.835,138080.25499997893,138086.501,138369.823,,27,that
screen,html.Screen,2_1_0_1_28,2021-04-24T14:13:11.846Z,,,,,,,,,,,,,,,,,53,,,,,,,,,,,,,,358.07699999804026,,response,,,,99,,,,,,,Space,keypress(Space),,,,,,,,---- -- ----- -- ------ - ------- --- ----------<br>------------- ------ ------ ---- ---- ------- ----- -- ----<br>-------- ------- -- ---------- --- - --- ----- ----- ----<br>it's --- --- ----- --- ---- ---- ------- ----- ---- -------<br>--- --- -- ----- -- --- ---- -- --- ---- -- ------ ------<br>--- ----- -- ----,138732.13999997824,138727.89999999804,138353.157,138352.55999999936,138369.823,138736.475,,28,it's
screen,html.Screen,2_1_0_1_29,2021-04-24T14:13:12.163Z,,,,,,,,,,,,,,,,,53,,,,,,,,,,,,,,308.47000000145636,,response,,,,99,,,,,,,Space,keypress(Space),,,,,,,,---- -- ----- -- ------ - ------- --- ----------<br>------------- ------ ------ ---- ---- ------- ----- -- ----<br>-------- ------- -- ---------- --- - --- ----- ----- ----<br>---- not --- ----- --- ---- ---- ------- ----- ---- -------<br>--- --- -- ----- -- --- ---- -- --- ---- -- ------ ------<br>--- ----- -- ----,139049.1499999771,139044.94500000146,138719.809,138732.33499997878,138736.475,139053.129,,29,not
screen,html.Screen,2_1_0_1_30,2021-04-24T14:13:12.482Z,,,,,,,,,,,,,,,,,53,,,,,,,,,,,,,,310.7459999809216,,response,,,,99,,,,,,,Space,keypress(Space),,,,,,,,---- -- ----- -- ------ - ------- --- ----------<br>------------- ------ ------ ---- ---- ------- ----- -- ----<br>-------- ------- -- ---------- --- - --- ----- ----- ----<br>---- --- how ----- --- ---- ---- ------- ----- ---- -------<br>--- --- -- ----- -- --- ---- -- --- ---- -- ------ ------<br>--- ----- -- ----,139368.2249999838,139363.8749999809,139036.463,139049.34499997762,139053.129,139369.783,,30,how
screen,html.Screen,2_1_0_1_31,2021-04-24T14:13:12.786Z,,,,,,,,,,,,,,,,,53,,,,,,,,,,,,,,299.86699999618577,,response,,,,99,,,,,,,Space,keypress(Space),,,,,,,,---- -- ----- -- ------ - ------- --- ----------<br>------------- ------ ------ ---- ---- ------- ----- -- ----<br>-------- ------- -- ---------- --- - --- ----- ----- ----<br>---- --- --- close --- ---- ---- ------- ----- ---- -------<br>--- --- -- ----- -- --- ---- -- --- ---- -- ------ ------<br>--- ----- -- ----,139672.08499999833,139669.64999999618,139353.117,139368.41999998433,139369.783,139686.437,,31,close
screen,html.Screen,2_1_0_1_32,2021-04-24T14:13:13.116Z,,,,,,,,,,,,,,,,,53,,,,,,,,,,,,,,311.407999976218,,response,,,,99,,,,,,,Space,keypress(Space),,,,,,,,---- -- ----- -- ------ - ------- --- ----------<br>------------- ------ ------ ---- ---- ------- ----- -- ----<br>-------- ------- -- ---------- --- - --- ----- ----- ----<br>---- --- --- ----- you ---- ---- ------- ----- ---- -------<br>--- --- -- ----- -- --- ---- -- --- ---- -- ------ ------<br>--- ----- -- ----,140002.64500000048,139997.84499997622,139669.771,139672.1799999941,139686.437,140011.235,,32,you
screen,html.Screen,2_1_0_1_33,2021-04-24T14:13:13.481Z,,,,,,,,,,,,,,,,,53,,,,,,,,,,,,,,281.45500000205357,,response,,,,99,,,,,,,Space,keypress(Space),,,,,,,,---- -- ----- -- ------ - ------- --- ----------<br>------------- ------ ------ ---- ---- ------- ----- -- ----<br>-------- ------- -- ---------- --- - --- ----- ----- ----<br>---- --- --- ----- --- feel ---- ------- ----- ---- -------<br>--- --- -- ----- -- --- ---- -- --- ---- -- ------ ------<br>--- ----- -- ----,140367.54499998642,140292.69000000204,139994.569,140002.82999998308,140011.235,140377.887,,33,feel
screen,html.Screen,2_1_0_1_34,2021-04-24T14:13:13.706Z,,,,,,,,,,,,,,,,,53,,,,,,,,,,,,,,209.99299997731578,,response,,,,99,,,,,,,Space,keypress(Space),,,,,,,,---- -- ----- -- ------ - ------- --- ----------<br>------------- ------ ------ ---- ---- ------- ----- -- ----<br>-------- ------- -- ---------- --- - --- ----- ----- ----<br>---- --- --- ----- --- ---- that ------- ----- ---- -------<br>--- --- -- ----- -- --- ---- -- --- ---- -- ------ ------<br>--- ----- -- ----,140592.0599999954,140587.8799999773,140361.221,140368.64999998943,140377.887,140594.545,,34,that
screen,html.Screen,2_1_0_1_35,2021-04-24T14:13:14.657Z,,,,,,,,,,,,,,,,,53,,,,,,,,,,,,,,944.3749999917636,,response,,,,99,,,,,,,Space,keypress(Space),,,,,,,,---- -- ----- -- ------ - ------- --- ----------<br>------------- ------ ------ ---- ---- ------- ----- -- ----<br>-------- ------- -- ---------- --- - --- ----- ----- ----<br>---- --- --- ----- --- ---- ---- matters ----- ---- -------<br>--- --- -- ----- -- --- ---- -- --- ---- -- ------ ------<br>--- ----- -- ----,141543.22500000126,141538.91999999178,140577.879,140592.2750000027,140594.545,141561.173,,35,matters
screen,html.Screen,2_1_0_1_36,2021-04-24T14:13:14.990Z,,,,,,,,,,,,,,,,,53,,,,,,,,,,,,,,310.63200000248617,,response,,,,99,,,,,,,Space,keypress(Space),,,,,,,,"---- -- ----- -- ------ - ------- --- ----------<br>------------- ------ ------ ---- ---- ------- ----- -- ----<br>-------- ------- -- ---------- --- - --- ----- ----- ----<br>---- --- --- ----- --- ---- ---- ------- most, ---- -------<br>--- --- -- ----- -- --- ---- -- --- ---- -- ------ ------<br>--- ----- -- ----",141876.02499997593,141871.8050000025,141544.507,141544.4149999821,141561.173,141877.827,,36,"most,"
screen,html.Screen,2_1_0_1_37,2021-04-24T14:13:15.327Z,,,,,,,,,,,,,,,,,53,,,,,,,,,,,,,,331.9479999957257,,response,,,,99,,,,,,,Space,keypress(Space),,,,,,,,---- -- ----- -- ------ - ------- --- ----------<br>------------- ------ ------ ---- ---- ------- ----- -- ----<br>-------- ------- -- ---------- --- - --- ----- ----- ----<br>---- --- --- ----- --- ---- ---- ------- ----- it's -------<br>--- --- -- ----- -- --- ---- -- --- ---- -- ------ ------<br>--- ----- -- ----,142213.8649999979,142209.77499999572,141861.161,141876.23500000336,141877.827,142227.813,,37,it's
screen,html.Screen,2_1_0_1_38,2021-04-24T14:13:15.843Z,,,,,,,,,,,,,,,,,53,,,,,,,,,,,,,,497.0969999899098,,response,,,,99,,,,,,,Space,keypress(Space),,,,,,,,---- -- ----- -- ------ - ------- --- ----------<br>------------- ------ ------ ---- ---- ------- ----- -- ----<br>-------- ------- -- ---------- --- - --- ----- ----- ----<br>---- --- --- ----- --- ---- ---- ------- ----- ---- whether<br>--- --- -- ----- -- --- ---- -- --- ---- -- ------ ------<br>--- ----- -- ----,142729.16999997688,142724.9099999899,142211.147,142214.0499999805,142227.813,142744.459,,38,whether
screen,html.Screen,2_1_0_1_39,2021-04-24T14:13:16.152Z,,,,,,,,,,,,,,,,,53,,,,,,,,,,,,,,289.3609999823675,,response,,,,99,,,,,,,Space,keypress(Space),,,,,,,,---- -- ----- -- ------ - ------- --- ----------<br>------------- ------ ------ ---- ---- ------- ----- -- ----<br>-------- ------- -- ---------- --- - --- ----- ----- ----<br>---- --- --- ----- --- ---- ---- ------- ----- ---- -------<br>you --- -- ----- -- --- ---- -- --- ---- -- ------ ------<br>--- ----- -- ----,143038.40499999933,143033.81999998237,142727.793,142729.35499998857,142744.459,143044.447,,39,you
screen,html.Screen,2_1_0_1_40,2021-04-24T14:13:16.487Z,,,,,,,,,,,,,,,,,53,,,,,,,,,,,,,,324.37799998320406,,response,,,,99,,,,,,,Space,keypress(Space),,,,,,,,---- -- ----- -- ------ - ------- --- ----------<br>------------- ------ ------ ---- ---- ------- ----- -- ----<br>-------- ------- -- ---------- --- - --- ----- ----- ----<br>---- --- --- ----- --- ---- ---- ------- ----- ---- -------<br>--- are -- ----- -- --- ---- -- --- ---- -- ------ ------<br>--- ----- -- ----,143373.00999998115,143368.8249999832,143027.781,143038.58999998192,143044.447,143377.767,,40,are
screen,html.Screen,2_1_0_1_41,2021-04-24T14:13:16.780Z,,,,,,,,,,,,,,,,,53,,,,,,,,,,,,,,283.98799997917376,,response,,,,99,,,,,,,Space,keypress(Space),,,,,,,,---- -- ----- -- ------ - ------- --- ----------<br>------------- ------ ------ ---- ---- ------- ----- -- ----<br>-------- ------- -- ---------- --- - --- ----- ----- ----<br>---- --- --- ----- --- ---- ---- ------- ----- ---- -------<br>--- --- as ----- -- --- ---- -- --- ---- -- ------ ------<br>--- ----- -- ----,143665.95499997493,143661.75499997917,143361.101,143373.19499999285,143377.767,143677.755,,41,as
screen,html.Screen,2_1_0_1_42,2021-04-24T14:13:17.130Z,,,,,,,,,,,,,,,,,53,,,,,,,,,,,,,,333.9349999848055,,response,,,,99,,,,,,,Space,keypress(Space),,,,,,,,---- -- ----- -- ------ - ------- --- ----------<br>------------- ------ ------ ---- ---- ------- ----- -- ----<br>-------- ------- -- ---------- --- - --- ----- ----- ----<br>---- --- --- ----- --- ---- ---- ------- ----- ---- -------<br>--- --- -- close -- --- ---- -- --- ---- -- ------ ------<br>--- ----- -- ----,144015.97499998752,144011.6899999848,143661.089,143666.13999998663,143677.755,144027.741,,42,close
screen,html.Screen,2_1_0_1_43,2021-04-24T14:13:17.438Z,,,,,,,,,,,,,,,,,53,,,,,,,,,,,,,,292.85899997726665,,response,,,,99,,,,,,,Space,keypress(Space),,,,,,,,---- -- ----- -- ------ - ------- --- ----------<br>------------- ------ ------ ---- ---- ------- ----- -- ----<br>-------- ------- -- ---------- --- - --- ----- ----- ----<br>---- --- --- ----- --- ---- ---- ------- ----- ---- -------<br>--- --- -- ----- as --- ---- -- --- ---- -- ------ ------<br>--- ----- -- ----,144324.62499997928,144320.59999997728,144011.075,144016.15999999922,144027.741,144327.729,,43,as
screen,html.Screen,2_1_0_1_44,2021-04-24T14:13:17.753Z,,,,,,,,,,,,,,,,,53,,,,,,,,,,,,,,307.1759999844362,,response,,,,99,,,,,,,Space,keypress(Space),,,,,,,,---- -- ----- -- ------ - ------- --- ----------<br>------------- ------ ------ ---- ---- ------- ----- -- ----<br>-------- ------- -- ---------- --- - --- ----- ----- ----<br>---- --- --- ----- --- ---- ---- ------- ----- ---- -------<br>--- --- -- ----- -- you ---- -- --- ---- -- ------ ------<br>--- ----- -- ----,144639.17499998934,144634.90499998443,144311.063,144324.80000000214,144327.729,144644.383,,44,you
screen,html.Screen,2_1_0_1_45,2021-04-24T14:13:18.143Z,,,,,,,,,,,,,,,,,53,,,,,,,,,,,,,,314.1769999991229,,response,,,,99,,,,,,,Space,keypress(Space),,,,,,,,---- -- ----- -- ------ - ------- --- ----------<br>------------- ------ ------ ---- ---- ------- ----- -- ----<br>-------- ------- -- ---------- --- - --- ----- ----- ----<br>---- --- --- ----- --- ---- ---- ------- ----- ---- -------<br>--- --- -- ----- -- --- want -- --- ---- -- ------ ------<br>--- ----- -- ----,145028.96999998484,144958.55999999912,144627.717,144641.20499999262,144644.383,145044.367,,45,want
screen,html.Screen,2_1_0_1_46,2021-04-24T14:13:18.366Z,,,,,,,,,,,,,,,,,53,,,,,,,,,,,,,,203.21799997551716,,response,,,,99,,,,,,,Space,keypress(Space),,,,,,,,---- -- ----- -- ------ - ------- --- ----------<br>------------- ------ ------ ---- ---- ------- ----- -- ----<br>-------- ------- -- ---------- --- - --- ----- ----- ----<br>---- --- --- ----- --- ---- ---- ------- ----- ---- -------<br>--- --- -- ----- -- --- ---- to --- ---- -- ------ ------<br>--- ----- -- ----,145252.27999998606,145247.58499997552,145027.701,145029.0999999852,145044.367,145261.025,,46,to
screen,html.Screen,2_1_0_1_47,2021-04-24T14:13:18.701Z,,,,,,,,,,,,,,,,,53,,,,,,,,,,,,,,322.68499997715116,,response,,,,99,,,,,,,Space,keypress(Space),,,,,,,,"---- -- ----- -- ------ - ------- --- ----------<br>------------- ------ ------ ---- ---- ------- ----- -- ----<br>-------- ------- -- ---------- --- - --- ----- ----- ----<br>---- --- --- ----- --- ---- ---- ------- ----- ---- -------<br>--- --- -- ----- -- --- ---- -- be, ---- -- ------ ------<br>--- ----- -- ----",145587.74499999708,145583.70999997715,145244.359,145252.45499997982,145261.025,145594.345,,47,"be,"
screen,html.Screen,2_1_0_1_48,2021-04-24T14:13:19.034Z,,,,,,,,,,,,,,,,,53,,,,,,,,,,,,,,321.3249999875843,,response,,,,99,,,,,,,Space,keypress(Space),,,,,,,,---- -- ----- -- ------ - ------- --- ----------<br>------------- ------ ------ ---- ---- ------- ----- -- ----<br>-------- ------- -- ---------- --- - --- ----- ----- ----<br>---- --- --- ----- --- ---- ---- ------- ----- ---- -------<br>--- --- -- ----- -- --- ---- -- --- even -- ------ ------<br>--- ----- -- ----,145919.94999998133,145915.6699999876,145577.679,145587.9249999998,145594.345,145927.665,,48,even
screen,html.Screen,2_1_0_1_49,2021-04-24T14:13:19.323Z,,,,,,,,,,,,,,,,,53,,,,,,,,,,,,,,277.07499998647836,,response,,,,99,,,,,,,Space,keypress(Space),,,,,,,,---- -- ----- -- ------ - ------- --- ----------<br>------------- ------ ------ ---- ---- ------- ----- -- ----<br>-------- ------- -- ---------- --- - --- ----- ----- ----<br>---- --- --- ----- --- ---- ---- ------- ----- ---- -------<br>--- --- -- ----- -- --- ---- -- --- ---- if ------ ------<br>--- ----- -- ----,146209.039999987,146204.7399999865,145910.999,145920.1249999751,145927.665,146210.987,,49,if
screen,html.Screen,2_1_0_1_50,2021-04-24T14:13:19.782Z,,,,,,,,,,,,,,,,,53,,,,,,,,,,,,,,452.7479999800853,,response,,,,99,,,,,,,Space,keypress(Space),,,,,,,,---- -- ----- -- ------ - ------- --- ----------<br>------------- ------ ------ ---- ---- ------- ----- -- ----<br>-------- ------- -- ---------- --- - --- ----- ----- ----<br>---- --- --- ----- --- ---- ---- ------- ----- ---- -------<br>--- --- -- ----- -- --- ---- -- --- ---- -- that's ------<br>--- ----- -- ----,146668.10499998974,146663.73499998008,146194.321,146209.21499998076,146210.987,146677.635,,50,that's
screen,html.Screen,2_1_0_1_51,2021-04-24T14:13:19.983Z,,,,,,,,,,,,,,,,,53,,,,,,,,,,,,,,188.00999998347834,,response,,,,99,,,,,,,Space,keypress(Space),,,,,,,,---- -- ----- -- ------ - ------- --- ----------<br>------------- ------ ------ ---- ---- ------- ----- -- ----<br>-------- ------- -- ---------- --- - --- ----- ----- ----<br>---- --- --- ----- --- ---- ---- ------- ----- ---- -------<br>--- --- -- ----- -- --- ---- -- --- ---- -- ------ really<br>--- ----- -- ----,146869.79499997688,146865.6449999835,146660.969,146668.28499999247,146677.635,146877.627,,51,really
screen,html.Screen,2_1_0_1_52,2021-04-24T14:13:20.476Z,,,,,,,,,,,,,,,,,53,,,,,,,,,,,,,,480.9129999865254,,response,,,,99,,,,,,,Space,keypress(Space),,,,,,,,---- -- ----- -- ------ - ------- --- ----------<br>------------- ------ ------ ---- ---- ------- ----- -- ----<br>-------- ------- -- ---------- --- - --- ----- ----- ----<br>---- --- --- ----- --- ---- ---- ------- ----- ---- -------<br>--- --- -- ----- -- --- ---- -- --- ---- -- ------ ------<br>not ----- -- ----,147362.71499999566,147358.53999998653,146860.961,146869.96999999974,146877.627,147377.607,,52,not
screen,html.Screen,2_1_0_1_53,2021-04-24T14:13:20.781Z,,,,,,,,,,,,,,,,,53,,,,,,,,,,,,,,285.05300000178977,,response,,,,99,,,,,,,Space,keypress(Space),,,,,,,,---- -- ----- -- ------ - ------- --- ----------<br>------------- ------ ------ ---- ---- ------- ----- -- ----<br>-------- ------- -- ---------- --- - --- ----- ----- ----<br>---- --- --- ----- --- ---- ---- ------- ----- ---- -------<br>--- --- -- ----- -- --- ---- -- --- ---- -- ------ ------<br>--- close -- ----,147666.85999999754,147662.66000000178,147360.941,147362.8949999984,147377.607,147677.595,,53,close
screen,html.Screen,2_1_0_1_54,2021-04-24T14:13:21.100Z,,,,,,,,,,,,,,,,,53,,,,,,,,,,,,,,304.2599999908998,,response,,,,99,,,,,,,Space,keypress(Space),,,,,,,,---- -- ----- -- ------ - ------- --- ----------<br>------------- ------ ------ ---- ---- ------- ----- -- ----<br>-------- ------- -- ---------- --- - --- ----- ----- ----<br>---- --- --- ----- --- ---- ---- ------- ----- ---- -------<br>--- --- -- ----- -- --- ---- -- --- ---- -- ------ ------<br>--- ----- at ----,147986.08999999124,147981.8549999909,147660.929,147667.0349999913,147677.595,147994.249,,54,at
screen,html.Screen,2_1_0_1_55,2021-04-24T14:13:21.440Z,,,,,,,,,,,,,,,,,53,,,,,,,,,,,,,,328.39099999848986,,response,,,,99,,,,,,,Space,keypress(Space),,,,,,,,---- -- ----- -- ------ - ------- --- ----------<br>------------- ------ ------ ---- ---- ------- ----- -- ----<br>-------- ------- -- ---------- --- - --- ----- ----- ----<br>---- --- --- ----- --- ---- ---- ------- ----- ---- -------<br>--- --- -- ----- -- --- ---- -- --- ---- -- ------ ------<br>--- ----- -- all.,148326.75999999628,148322.6399999985,147977.583,147986.264999985,147994.249,148344.235,,55,all.
Item 99,flow.Loop,2_1_0_1,2021-04-24T14:13:21.441Z,,,,,,,,,,,,,,,,,,,,,,,,,,,,,,,19094.195999998497,,completion,,,,,B,,,,,,,,,,,silence,,,,,148327.12000000174,148322.6399999985,129211.778,129214.03999999166,129228.444,148344.235,,,
Question 1,html.Screen,2_1_0_2,2021-04-24T14:13:28.027Z,,,,,,,,,,,,,,,,,,,,,,,,,,,,true,FALSE,,6565.654999980819,,response,,,,99,B,,,,,,FALSE,click #choice-2,,,,silence,,,,,154912.93999998015,154909.8899999808,148327.569,148327.2799999977,148344.235,154917.608,,,
Question 2,html.Screen,2_1_0_3,2021-04-24T14:13:32.263Z,,,,,,,,,,,,,,,,,,,,,,,,,,,,true,TRUE,,4228.216999985045,,response,,,,99,B,,,,,,TRUE,click #choice-1,,,,silence,,,,,159148.64999998827,159145.82499998505,154900.942,154913.13999998965,154917.608,159150.772,,,
Item 99,flow.Sequence,2_1_0,2021-04-24T14:13:32.263Z,,,,,,,,,,,,,,,,,,,,,,,,,,,,,,,39921.351999985054,,completion,,,,,,,,,,,,,,,,,,,,,159148.92499998678,159145.82499998505,119207.807,119213.14999999595,119224.473,159150.772,,,
Holding screen,html.Screen,2_1_1_0,2021-04-24T14:13:42.252Z,,,,,,,,,,,,,,,,,,,,,,,,,,,,,,,10001.975999999995,,timeout,,,,,,,,,,,,,,,,,,,,,169137.32999999775,169136.082,159134.106,159149.10999999847,159150.772,169152.748,,,
screen,html.Screen,2_1_1_1_0,2021-04-24T14:13:42.759Z,,,,,,,,,,,,,,,,,54,,,,,,,,,,,,,,486.4569999849482,,response,,,,100,,,,,,,Space,keypress(Space),,,,,,,,At --- ---- --- ------ ----- ------- ---- -- --- ------- --<br>------- ---------- ------ -- ----- -- ----- -- ---- ------<br>--- ----- --- --- ------ -------- ----- --- ------ ----- --<br>----- ----- ---------- --- --- ------ ------ ---- -- ------<br>------- --- ------ ----- --- ---- ------- -- ---- --- --<br>------- ------,169644.73499997985,169639.20499998494,169136.082,169137.57999998052,169152.748,169652.728,,0,At
screen,html.Screen,2_1_1_1_1,2021-04-24T14:13:43.074Z,,,,,,,,,,,,,,,,,54,,,,,,,,,,,,,,302.247000000556,,response,,,,100,,,,,,,Space,keypress(Space),,,,,,,,-- the ---- --- ------ ----- ------- ---- -- --- ------- --<br>------- ---------- ------ -- ----- -- ----- -- ---- ------<br>--- ----- --- --- ------ -------- ----- --- ------ ----- --<br>----- ----- ---------- --- --- ------ ------ ---- -- ------<br>------- --- ------ ----- --- ---- ------- -- ---- --- --<br>------- ------,169959.18999999412,169954.97500000056,169636.062,169644.91999999154,169652.728,169969.382,,1,the
screen,html.Screen,2_1_1_1_2,2021-04-24T14:13:43.383Z,,,,,,,,,,,,,,,,,54,,,,,,,,,,,,,,294.6179999955639,,response,,,,100,,,,,,,Space,keypress(Space),,,,,,,,-- --- time --- ------ ----- ------- ---- -- --- ------- --<br>------- ---------- ------ -- ----- -- ----- -- ---- ------<br>--- ----- --- --- ------ -------- ----- --- ------ ----- --<br>----- ----- ---------- --- --- ------ ------ ---- -- ------<br>------- --- ------ ----- --- ---- ------- -- ---- --- --<br>------- ------,170268.13499999116,170263.99999999558,169952.716,169959.36499998788,169969.382,170269.37,,2,time
screen,html.Screen,2_1_1_1_3,2021-04-24T14:13:43.709Z,,,,,,,,,,,,,,,,,54,,,,,,,,,,,,,,320.60000000090804,,response,,,,100,,,,,,,Space,keypress(Space),,,,,,,,-- --- ---- the ------ ----- ------- ---- -- --- ------- --<br>------- ---------- ------ -- ----- -- ----- -- ---- ------<br>--- ----- --- --- ------ -------- ----- --- ------ ----- --<br>----- ----- ---------- --- --- ------ ------ ---- -- ------<br>------- --- ------ ----- --- ---- ------- -- ---- --- --<br>------- ------,170594.1649999877,170589.9700000009,170252.704,170268.3149999939,170269.37,170602.69,,3,the
screen,html.Screen,2_1_1_1_4,2021-04-24T14:13:43.999Z,,,,,,,,,,,,,,,,,54,,,,,,,,,,,,,,277.17499999533175,,response,,,,100,,,,,,,Space,keypress(Space),,,,,,,,-- --- ---- --- French ----- ------- ---- -- --- ------- --<br>------- ---------- ------ -- ----- -- ----- -- ---- ------<br>--- ----- --- --- ------ -------- ----- --- ------ ----- --<br>----- ----- ---------- --- --- ------ ------ ---- -- ------<br>------- --- ------ ----- --- ---- ------- -- ---- --- --<br>------- ------,170884.1699999757,170879.86499999533,170586.024,170594.34499999043,170602.69,170886.012,,4,French
screen,html.Screen,2_1_1_1_5,2021-04-24T14:13:44.350Z,,,,,,,,,,,,,,,,,54,,,,,,,,,,,,,,345.92799999786075,,response,,,,100,,,,,,,Space,keypress(Space),,,,,,,,-- --- ---- --- ------ crown ------- ---- -- --- ------- --<br>------- ---------- ------ -- ----- -- ----- -- ---- ------<br>--- ----- --- --- ------ -------- ----- --- ------ ----- --<br>----- ----- ---------- --- --- ------ ------ ---- -- ------<br>------- --- ------ ----- --- ---- ------- -- ---- --- --<br>------- ------,171236.08999999124,171231.93999999785,170869.346,170884.34999997844,170886.012,171252.664,,5,crown
screen,html.Screen,2_1_1_1_6,2021-04-24T14:13:44.712Z,,,,,,,,,,,,,,,,,54,,,,,,,,,,,,,,341.1709999778541,,response,,,,100,,,,,,,Space,keypress(Space),,,,,,,,-- --- ---- --- ------ ----- secured ---- -- --- ------- --<br>------- ---------- ------ -- ----- -- ----- -- ---- ------<br>--- ----- --- --- ------ -------- ----- --- ------ ----- --<br>----- ----- ---------- --- --- ------ ------ ---- -- ------<br>------- --- ------ ----- --- ---- ------- -- ---- --- --<br>------- ------,171598.07999999612,171593.83499997784,171235.998,171236.26999999397,171252.664,171602.65,,6,secured
screen,html.Screen,2_1_1_1_7,2021-04-24T14:13:45.033Z,,,,,,,,,,,,,,,,,54,,,,,,,,,,,,,,311.19999998263665,,response,,,,100,,,,,,,Space,keypress(Space),,,,,,,,-- --- ---- --- ------ ----- ------- much -- --- ------- --<br>------- ---------- ------ -- ----- -- ----- -- ---- ------<br>--- ----- --- --- ------ -------- ----- --- ------ ----- --<br>----- ----- ---------- --- --- ------ ------ ---- -- ------<br>------- --- ------ ----- --- ---- ------- -- ---- --- --<br>------- ------,171918.09999998077,171913.84999998263,171585.984,171598.25499998988,171602.65,171927.938,,7,much
screen,html.Screen,2_1_1_1_8,2021-04-24T14:13:45.351Z,,,,,,,,,,,,,,,,,54,,,,,,,,,,,,,,304.88199997562333,,response,,,,100,,,,,,,Space,keypress(Space),,,,,,,,-- --- ---- --- ------ ----- ------- ---- of --- ------- --<br>------- ---------- ------ -- ----- -- ----- -- ---- ------<br>--- ----- --- --- ------ -------- ----- --- ------ ----- --<br>----- ----- ---------- --- --- ------ ------ ---- -- ------<br>------- --- ------ ----- --- ---- ------- -- ---- --- --<br>------- ------,172237.0799999917,172232.81999997562,171911.272,171918.2799999835,171927.938,172244.592,,8,of
screen,html.Screen,2_1_1_1_9,2021-04-24T14:13:45.647Z,,,,,,,,,,,,,,,,,54,,,,,,,,,,,,,,283.3829999754089,,response,,,,100,,,,,,,Space,keypress(Space),,,,,,,,-- --- ---- --- ------ ----- ------- ---- -- its ------- --<br>------- ---------- ------ -- ----- -- ----- -- ---- ------<br>--- ----- --- --- ------ -------- ----- --- ------ ----- --<br>----- ----- ---------- --- --- ------ ------ ---- -- ------<br>------- --- ------ ----- --- ---- ------- -- ---- --- --<br>------- ------,172532.20999997575,172527.9749999754,172227.926,172237.25499998545,172244.592,172544.58,,9,its
screen,html.Screen,2_1_1_1_10,2021-04-24T14:13:46.006Z,,,,,,,,,,,,,,,,,54,,,,,,,,,,,,,,342.29499999652035,,response,,,,100,,,,,,,Space,keypress(Space),,,,,,,,-- --- ---- --- ------ ----- ------- ---- -- --- revenue --<br>------- ---------- ------ -- ----- -- ----- -- ---- ------<br>--- ----- --- --- ------ -------- ----- --- ------ ----- --<br>----- ----- ---------- --- --- ------ ------ ---- -- ------<br>------- --- ------ ----- --- ---- ------- -- ---- --- --<br>------- ------,172891.06500000344,172886.8749999965,172527.914,172532.3849999986,172544.58,172894.566,,10,revenue
screen,html.Screen,2_1_1_1_11,2021-04-24T14:13:46.342Z,,,,,,,,,,,,,,,,,54,,,,,,,,,,,,,,328.3589999800315,,response,,,,100,,,,,,,Space,keypress(Space),,,,,,,,-- --- ---- --- ------ ----- ------- ---- -- --- ------- by<br>------- ---------- ------ -- ----- -- ----- -- ---- ------<br>--- ----- --- --- ------ -------- ----- --- ------ ----- --<br>----- ----- ---------- --- --- ------ ------ ---- -- ------<br>------- --- ------ ----- --- ---- ------- -- ---- --- --<br>------- ------,173227.1400000027,173222.92499998002,172877.9,172891.24499997706,172894.566,173244.552,,11,by
screen,html.Screen,2_1_1_1_12,2021-04-24T14:13:46.628Z,,,,,,,,,,,,,,,,,54,,,,,,,,,,,,,,264.35299999514245,,response,,,,100,,,,,,,Space,keypress(Space),,,,,,,,-- --- ---- --- ------ ----- ------- ---- -- --- ------- --<br>issuing ---------- ------ -- ----- -- ----- -- ---- ------<br>--- ----- --- --- ------ -------- ----- --- ------ ----- --<br>----- ----- ---------- --- --- ------ ------ ---- -- ------<br>------- --- ------ ----- --- ---- ------- -- ---- --- --<br>------- ------,173513.10999999987,173508.90499999514,173227.886,173227.32499998529,173244.552,173527.874,,12,issuing
screen,html.Screen,2_1_1_1_13,2021-04-24T14:13:46.997Z,,,,,,,,,,,,,,,,,54,,,,,,,,,,,,,,350.97599997912766,,response,,,,100,,,,,,,Space,keypress(Space),,,,,,,,-- --- ---- --- ------ ----- ------- ---- -- --- ------- --<br>------- government ------ -- ----- -- ----- -- ---- ------<br>--- ----- --- --- ------ -------- ----- --- ------ ----- --<br>----- ----- ---------- --- --- ------ ------ ---- -- ------<br>------- --- ------ ----- --- ---- ------- -- ---- --- --<br>------- ------,173882.93999998132,173878.84999997914,173511.208,173513.28499999363,173527.874,173894.526,,13,government
screen,html.Screen,2_1_1_1_14,2021-04-24T14:13:47.327Z,,,,,,,,,,,,,,,,,54,,,,,,,,,,,,,,314.1490000016638,,response,,,,100,,,,,,,Space,keypress(Space),,,,,,,,-- --- ---- --- ------ ----- ------- ---- -- --- ------- --<br>------- ---------- bonds. -- ----- -- ----- -- ---- ------<br>--- ----- --- --- ------ -------- ----- --- ------ ----- --<br>----- ----- ---------- --- --- ------ ------ ---- -- ------<br>------- --- ------ ----- --- ---- ------- -- ---- --- --<br>------- ------,174212.75499998592,174208.67500000168,173877.86,173883.11499997508,173894.526,174227.846,,14,bonds.
screen,html.Screen,2_1_1_1_15,2021-04-24T14:13:47.805Z,,,,,,,,,,,,,,,,,54,,,,,,,,,,,,,,458.91399998232373,,response,,,,100,,,,,,,Space,keypress(Space),,,,,,,,-- --- ---- --- ------ ----- ------- ---- -- --- ------- --<br>------- ---------- ------ In ----- -- ----- -- ---- ------<br>--- ----- --- --- ------ -------- ----- --- ------ ----- --<br>----- ----- ---------- --- --- ------ ------ ---- -- ------<br>------- --- ------ ----- --- ---- ------- -- ---- --- --<br>------- ------,174690.90499999584,174686.7599999823,174211.18,174212.92999997968,174227.846,174694.494,,15,In
screen,html.Screen,2_1_1_1_16,2021-04-24T14:13:48.137Z,,,,,,,,,,,,,,,,,54,,,,,,,,,,,,,,324.3059999907273,,response,,,,100,,,,,,,Space,keypress(Space),,,,,,,,"-- --- ---- --- ------ ----- ------- ---- -- --- ------- --<br>------- ---------- ------ -- 1727, -- ----- -- ---- ------<br>--- ----- --- --- ------ -------- ----- --- ------ ----- --<br>----- ----- ---------- --- --- ------ ------ ---- -- ------<br>------- --- ------ ----- --- ---- ------- -- ---- --- --<br>------- ------",175022.90999999968,175018.79999999073,174677.828,174691.0799999896,174694.494,175027.814,,16,"1727,"
screen,html.Screen,2_1_1_1_17,2021-04-24T14:13:48.540Z,,,,,,,,,,,,,,,,,54,,,,,,,,,,,,,,392.9109999744687,,response,,,,100,,,,,,,Space,keypress(Space),,,,,,,,-- --- ---- --- ------ ----- ------- ---- -- --- ------- --<br>------- ---------- ------ -- ----- in ----- -- ---- ------<br>--- ----- --- --- ------ -------- ----- --- ------ ----- --<br>----- ----- ---------- --- --- ------ ------ ---- -- ------<br>------- --- ------ ----- --- ---- ------- -- ---- --- --<br>------- ------,175424.99999998836,175420.72499997448,175011.148,175023.07999998447,175027.814,175427.798,,17,in
screen,html.Screen,2_1_1_1_18,2021-04-24T14:13:48.893Z,,,,,,,,,,,,,,,,,54,,,,,,,,,,,,,,346.03199999098433,,response,,,,100,,,,,,,Space,keypress(Space),,,,,,,,-- --- ---- --- ------ ----- ------- ---- -- --- ------- --<br>------- ---------- ------ -- ----- -- order -- ---- ------<br>--- ----- --- --- ------ -------- ----- --- ------ ----- --<br>----- ----- ---------- --- --- ------ ------ ---- -- ------<br>------- --- ------ ----- --- ---- ------- -- ---- --- --<br>------- ------,175778.1149999937,175773.829999991,175411.132,175425.1799999911,175427.798,175794.45,,18,order
screen,html.Screen,2_1_1_1_19,2021-04-24T14:13:49.212Z,,,,,,,,,,,,,,,,,54,,,,,,,,,,,,,,299.29999999998836,,response,,,,100,,,,,,,Space,keypress(Space),,,,,,,,-- --- ---- --- ------ ----- ------- ---- -- --- ------- --<br>------- ---------- ------ -- ----- -- ----- to ---- ------<br>--- ----- --- --- ------ -------- ----- --- ------ ----- --<br>----- ----- ---------- --- --- ------ ------ ---- -- ------<br>------- --- ------ ----- --- ---- ------- -- ---- --- --<br>------- ------,176097.84000000218,176093.75,175777.784,175778.28999998746,175794.45,176111.104,,19,to
screen,html.Screen,2_1_1_1_20,2021-04-24T14:13:49.547Z,,,,,,,,,,,,,,,,,54,,,,,,,,,,,,,,317.6559999806923,,response,,,,100,,,,,,,Space,keypress(Space),,,,,,,,-- --- ---- --- ------ ----- ------- ---- -- --- ------- --<br>------- ---------- ------ -- ----- -- ----- -- save ------<br>--- ----- --- --- ------ -------- ----- --- ------ ----- --<br>----- ----- ---------- --- --- ------ ------ ---- -- ------<br>------- --- ------ ----- --- ---- ------- -- ---- --- --<br>------- ------,176432.8299999761,176428.75999998068,176094.438,176098.01499999594,176111.104,176444.424,,20,save
screen,html.Screen,2_1_1_1_21,2021-04-24T14:13:49.869Z,,,,,,,,,,,,,,,,,54,,,,,,,,,,,,,,306.30099999078084,,response,,,,100,,,,,,,Space,keypress(Space),,,,,,,,"-- --- ---- --- ------ ----- ------- ---- -- --- ------- --<br>------- ---------- ------ -- ----- -- ----- -- ---- money,<br>--- ----- --- --- ------ -------- ----- --- ------ ----- --<br>----- ----- ---------- --- --- ------ ------ ---- -- ------<br>------- --- ------ ----- --- ---- ------- -- ---- --- --<br>------- ------",176754.84499998856,176750.72499999078,176427.758,176433.00499999896,176444.424,176761.078,,21,"money,"
screen,html.Screen,2_1_1_1_22,2021-04-24T14:13:50.179Z,,,,,,,,,,,,,,,,,54,,,,,,,,,,,,,,298.6269999923825,,response,,,,100,,,,,,,Space,keypress(Space),,,,,,,,-- --- ---- --- ------ ----- ------- ---- -- --- ------- --<br>------- ---------- ------ -- ----- -- ----- -- ---- ------<br>the ----- --- --- ------ -------- ----- --- ------ ----- --<br>----- ----- ---------- --- --- ------ ------ ---- -- ------<br>------- --- ------ ----- --- ---- ------- -- ---- --- --<br>------- ------,177064.11999999546,177059.7049999924,176744.412,176755.01500000246,176761.078,177077.732,,22,the
screen,html.Screen,2_1_1_1_23,2021-04-24T14:13:50.491Z,,,,,,,,,,,,,,,,,54,,,,,,,,,,,,,,294.9529999802762,,response,,,,100,,,,,,,Space,keypress(Space),,,,,,,,-- --- ---- --- ------ ----- ------- ---- -- --- ------- --<br>------- ---------- ------ -- ----- -- ----- -- ---- ------<br>--- state --- --- ------ -------- ----- --- ------ ----- --<br>----- ----- ---------- --- --- ------ ------ ---- -- ------<br>------- --- ------ ----- --- ---- ------- -- ---- --- --<br>------- ------,177376.75499997567,177372.68499998027,177061.066,177064.29499998922,177077.732,177394.386,,23,state
screen,html.Screen,2_1_1_1_24,2021-04-24T14:13:50.839Z,,,,,,,,,,,,,,,,,54,,,,,,,,,,,,,,326.2939999985392,,response,,,,100,,,,,,,Space,keypress(Space),,,,,,,,-- --- ---- --- ------ ----- ------- ---- -- --- ------- --<br>------- ---------- ------ -- ----- -- ----- -- ---- ------<br>--- ----- cut --- ------ -------- ----- --- ------ ----- --<br>----- ----- ---------- --- --- ------ ------ ---- -- ------<br>------- --- ------ ----- --- ---- ------- -- ---- --- --<br>------- ------,177724.79499998735,177720.67999999854,177377.72,177376.9349999784,177394.386,177727.706,,24,cut
screen,html.Screen,2_1_1_1_25,2021-04-24T14:13:51.460Z,,,,,,,,,,,,,,,,,54,,,,,,,,,,,,,,613.9989999989048,,response,,,,100,,,,,,,Space,keypress(Space),,,,,,,,-- --- ---- --- ------ ----- ------- ---- -- --- ------- --<br>------- ---------- ------ -- ----- -- ----- -- ---- ------<br>--- ----- --- the ------ -------- ----- --- ------ ----- --<br>----- ----- ---------- --- --- ------ ------ ---- -- ------<br>------- --- ------ ----- --- ---- ------- -- ---- --- --<br>------- ------,178345.84999998333,178341.7049999989,177711.04,177724.9699999811,177727.706,178361.014,,25,the
screen,html.Screen,2_1_1_1_26,2021-04-24T14:13:51.690Z,,,,,,,,,,,,,,,,,54,,,,,,,,,,,,,,209.6859999820299,,response,,,,100,,,,,,,Space,keypress(Space),,,,,,,,-- --- ---- --- ------ ----- ------- ---- -- --- ------- --<br>------- ---------- ------ -- ----- -- ----- -- ---- ------<br>--- ----- --- --- bonds' -------- ----- --- ------ ----- --<br>----- ----- ---------- --- --- ------ ------ ---- -- ------<br>------- --- ------ ----- --- ---- ------- -- ---- --- --<br>------- ------,178575.06999999168,178570.69999998203,178344.348,178346.0249999771,178361.014,178577.672,,26,bonds'
screen,html.Screen,2_1_1_1_27,2021-04-24T14:13:52.148Z,,,,,,,,,,,,,,,,,54,,,,,,,,,,,,,,452.0429999823973,,response,,,,100,,,,,,,Space,keypress(Space),,,,,,,,-- --- ---- --- ------ ----- ------- ---- -- --- ------- --<br>------- ---------- ------ -- ----- -- ----- -- ---- ------<br>--- ----- --- --- ------ interest ----- --- ------ ----- --<br>----- ----- ---------- --- --- ------ ------ ---- -- ------<br>------- --- ------ ----- --- ---- ------- -- ---- --- --<br>------- ------,179033.74499999336,179029.7149999824,178561.006,178575.25500000338,178577.672,179044.32,,27,interest
screen,html.Screen,2_1_1_1_28,2021-04-24T14:13:52.501Z,,,,,,,,,,,,,,,,,54,,,,,,,,,,,,,,337.35499998234445,,response,,,,100,,,,,,,Space,keypress(Space),,,,,,,,-- --- ---- --- ------ ----- ------- ---- -- --- ------- --<br>------- ---------- ------ -- ----- -- ----- -- ---- ------<br>--- ----- --- --- ------ -------- rate. --- ------ ----- --<br>----- ----- ---------- --- --- ------ ------ ---- -- ------<br>------- --- ------ ----- --- ---- ------- -- ---- --- --<br>------- ------,179385.89499998488,179381.67499998235,179027.654,179033.9249999961,179044.32,179394.306,,28,rate.
screen,html.Screen,2_1_1_1_29,2021-04-24T14:13:52.875Z,,,,,,,,,,,,,,,,,54,,,,,,,,,,,,,,361.2089999970922,,response,,,,100,,,,,,,Space,keypress(Space),,,,,,,,-- --- ---- --- ------ ----- ------- ---- -- --- ------- --<br>------- ---------- ------ -- ----- -- ----- -- ---- ------<br>--- ----- --- --- ------ -------- ----- The ------ ----- --<br>----- ----- ---------- --- --- ------ ------ ---- -- ------<br>------- --- ------ ----- --- ---- ------- -- ---- --- --<br>------- ------,179760.31499999226,179755.5149999971,179377.64,179386.0749999876,179394.306,179777.624,,29,The
screen,html.Screen,2_1_1_1_30,2021-04-24T14:13:53.076Z,,,,,,,,,,,,,,,,,54,,,,,,,,,,,,,,179.07599998061778,,response,,,,100,,,,,,,Space,keypress(Space),,,,,,,,-- --- ---- --- ------ ----- ------- ---- -- --- ------- --<br>------- ---------- ------ -- ----- -- ----- -- ---- ------<br>--- ----- --- --- ------ -------- ----- --- market ----- --<br>----- ----- ---------- --- --- ------ ------ ---- -- ------<br>------- --- ------ ----- --- ---- ------- -- ---- --- --<br>------- ------,179960.9899999923,179956.69999998063,179760.958,179760.494999995,179777.624,179977.616,,30,market
screen,html.Screen,2_1_1_1_31,2021-04-24T14:13:53.455Z,,,,,,,,,,,,,,,,,54,,,,,,,,,,,,,,358.86399999810965,,response,,,,100,,,,,,,Space,keypress(Space),,,,,,,,-- --- ---- --- ------ ----- ------- ---- -- --- ------- --<br>------- ---------- ------ -- ----- -- ----- -- ---- ------<br>--- ----- --- --- ------ -------- ----- --- ------ value --<br>----- ----- ---------- --- --- ------ ------ ---- -- ------<br>------- --- ------ ----- --- ---- ------- -- ---- --- --<br>------- ------,180340.63999998034,180336.47999999812,179960.95,179961.16499998607,179977.616,180344.268,,31,value
screen,html.Screen,2_1_1_1_32,2021-04-24T14:13:53.749Z,,,,,,,,,,,,,,,,,54,,,,,,,,,,,,,,285.4019999947923,,response,,,,100,,,,,,,Space,keypress(Space),,,,,,,,-- --- ---- --- ------ ----- ------- ---- -- --- ------- --<br>------- ---------- ------ -- ----- -- ----- -- ---- ------<br>--- ----- --- --- ------ -------- ----- --- ------ ----- of<br>----- ----- ---------- --- --- ------ ------ ---- -- ------<br>------- --- ------ ----- --- ---- ------- -- ---- --- --<br>------- ------,180633.91999999294,180629.6699999948,180327.602,180340.8150000032,180344.268,180644.256,,32,of
screen,html.Screen,2_1_1_1_33,2021-04-24T14:13:54.072Z,,,,,,,,,,,,,,,,,54,,,,,,,,,,,,,,311.16399998386623,,response,,,,100,,,,,,,Space,keypress(Space),,,,,,,,-- --- ---- --- ------ ----- ------- ---- -- --- ------- --<br>------- ---------- ------ -- ----- -- ----- -- ---- ------<br>--- ----- --- --- ------ -------- ----- --- ------ ----- --<br>these ----- ---------- --- --- ------ ------ ---- -- ------<br>------- --- ------ ----- --- ---- ------- -- ---- --- --<br>------- ------,180957.61499999207,180955.41999998386,180627.59,180634.10499997553,180644.256,180960.91,,33,these
screen,html.Screen,2_1_1_1_34,2021-04-24T14:13:54.351Z,,,,,,,,,,,,,,,,,54,,,,,,,,,,,,,,270.69999998799176,,response,,,,100,,,,,,,Space,keypress(Space),,,,,,,,-- --- ---- --- ------ ----- ------- ---- -- --- ------- --<br>------- ---------- ------ -- ----- -- ----- -- ---- ------<br>--- ----- --- --- ------ -------- ----- --- ------ ----- --<br>----- bonds ---------- --- --- ------ ------ ---- -- ------<br>------- --- ------ ----- --- ---- ------- -- ---- --- --<br>------- ------,181235.85999998613,181231.609999988,180944.244,180957.7049999789,180960.91,181244.232,,34,bonds
screen,html.Screen,2_1_1_1_35,2021-04-24T14:13:54.661Z,,,,,,,,,,,,,,,,,54,,,,,,,,,,,,,,297.4879999792611,,response,,,,100,,,,,,,Space,keypress(Space),,,,,,,,"-- --- ---- --- ------ ----- ------- ---- -- --- ------- --<br>------- ---------- ------ -- ----- -- ----- -- ---- ------<br>--- ----- --- --- ------ -------- ----- --- ------ ----- --<br>----- ----- plummeted, --- --- ------ ------ ---- -- ------<br>------- --- ------ ----- --- ---- ------- -- ---- --- --<br>------- ------",181546.55499997898,181541.71999997925,181227.566,181236.0349999799,181244.232,181560.886,,35,"plummeted,"
screen,html.Screen,2_1_1_1_36,2021-04-24T14:13:55.018Z,,,,,,,,,,,,,,,,,54,,,,,,,,,,,,,,337.54400000110036,,response,,,,100,,,,,,,Space,keypress(Space),,,,,,,,-- --- ---- --- ------ ----- ------- ---- -- --- ------- --<br>------- ---------- ------ -- ----- -- ----- -- ---- ------<br>--- ----- --- --- ------ -------- ----- --- ------ ----- --<br>----- ----- ---------- and --- ------ ------ ---- -- ------<br>------- --- ------ ----- --- ---- ------- -- ---- --- --<br>------- ------,181902.8849999886,181898.4300000011,181544.22,181546.7349999817,181560.886,181910.872,,36,and
screen,html.Screen,2_1_1_1_37,2021-04-24T14:13:55.326Z,,,,,,,,,,,,,,,,,54,,,,,,,,,,,,,,296.7079999874986,,response,,,,100,,,,,,,Space,keypress(Space),,,,,,,,-- --- ---- --- ------ ----- ------- ---- -- --- ------- --<br>------- ---------- ------ -- ----- -- ----- -- ---- ------<br>--- ----- --- --- ------ -------- ----- --- ------ ----- --<br>----- ----- ---------- --- the ------ ------ ---- -- ------<br>------- --- ------ ----- --- ---- ------- -- ---- --- --<br>------- ------,182211.7449999787,182207.5799999875,181894.206,181903.06499999133,181910.872,182219.006,,37,the
screen,html.Screen,2_1_1_1_38,2021-04-24T14:13:55.652Z,,,,,,,,,,,,,,,,,54,,,,,,,,,,,,,,313.5939999768161,,response,,,,100,,,,,,,Space,keypress(Space),,,,,,,,-- --- ---- --- ------ ----- ------- ---- -- --- ------- --<br>------- ---------- ------ -- ----- -- ----- -- ---- ------<br>--- ----- --- --- ------ -------- ----- --- ------ ----- --<br>----- ----- ---------- --- --- market ------ ---- -- ------<br>------- --- ------ ----- --- ---- ------- -- ---- --- --<br>------- ------,182537.01,182532.5999999768,182202.34,182211.92499998142,182219.006,182552.326,,38,market
screen,html.Screen,2_1_1_1_39,2021-04-24T14:13:55.953Z,,,,,,,,,,,,,,,,,54,,,,,,,,,,,,,,281.3639999994775,,response,,,,100,,,,,,,Space,keypress(Space),,,,,,,,-- --- ---- --- ------ ----- ------- ---- -- --- ------- --<br>------- ---------- ------ -- ----- -- ----- -- ---- ------<br>--- ----- --- --- ------ -------- ----- --- ------ ----- --<br>----- ----- ---------- --- --- ------ became ---- -- ------<br>------- --- ------ ----- --- ---- ------- -- ---- --- --<br>------- ------,182837.84500000183,182833.68999999948,182535.66,182537.33999998076,182552.326,182852.314,,39,became
screen,html.Screen,2_1_1_1_40,2021-04-24T14:13:56.240Z,,,,,,,,,,,,,,,,,54,,,,,,,,,,,,,,269.2109999950044,,response,,,,100,,,,,,,Space,keypress(Space),,,,,,,,-- --- ---- --- ------ ----- ------- ---- -- --- ------- --<br>------- ---------- ------ -- ----- -- ----- -- ---- ------<br>--- ----- --- --- ------ -------- ----- --- ------ ----- --<br>----- ----- ---------- --- --- ------ ------ wary -- ------<br>------- --- ------ ----- --- ---- ------- -- ---- --- --<br>------- ------,183125.74999997742,183121.52499999502,182835.648,182838.0199999956,182852.314,183135.636,,40,wary
screen,html.Screen,2_1_1_1_41,2021-04-24T14:13:56.524Z,,,,,,,,,,,,,,,,,54,,,,,,,,,,,,,,269.08900000032736,,response,,,,100,,,,,,,Space,keypress(Space),,,,,,,,-- --- ---- --- ------ ----- ------- ---- -- --- ------- --<br>------- ---------- ------ -- ----- -- ----- -- ---- ------<br>--- ----- --- --- ------ -------- ----- --- ------ ----- --<br>----- ----- ---------- --- --- ------ ------ ---- of ------<br>------- --- ------ ----- --- ---- ------- -- ---- --- --<br>------- ------,183409.01999999187,183404.72500000033,183118.97,183125.9199999913,183135.636,183418.958,,41,of
screen,html.Screen,2_1_1_1_42,2021-04-24T14:13:56.847Z,,,,,,,,,,,,,,,,,54,,,,,,,,,,,,,,309.4919999950507,,response,,,,100,,,,,,,Space,keypress(Space),,,,,,,,-- --- ---- --- ------ ----- ------- ---- -- --- ------- --<br>------- ---------- ------ -- ----- -- ----- -- ---- ------<br>--- ----- --- --- ------ -------- ----- --- ------ ----- --<br>----- ----- ---------- --- --- ------ ------ ---- -- French<br>------- --- ------ ----- --- ---- ------- -- ---- --- --<br>------- ------,183732.61999999522,183728.44999999506,183402.292,183409.1999999946,183418.958,183735.612,,42,French
screen,html.Screen,2_1_1_1_43,2021-04-24T14:13:57.171Z,,,,,,,,,,,,,,,,,54,,,,,,,,,,,,,,316.8979999795265,,response,,,,100,,,,,,,Space,keypress(Space),,,,,,,,-- --- ---- --- ------ ----- ------- ---- -- --- ------- --<br>------- ---------- ------ -- ----- -- ----- -- ---- ------<br>--- ----- --- --- ------ -------- ----- --- ------ ----- --<br>----- ----- ---------- --- --- ------ ------ ---- -- ------<br>credit. --- ------ ----- --- ---- ------- -- ---- --- --<br>------- ------,184056.21999999858,184052.50999997952,183718.946,183732.78999998,183735.612,184068.932,,43,credit.
screen,html.Screen,2_1_1_1_44,2021-04-24T14:13:57.448Z,,,,,,,,,,,,,,,,,54,,,,,,,,,,,,,,259.59299998989445,,response,,,,100,,,,,,,Space,keypress(Space),,,,,,,,-- --- ---- --- ------ ----- ------- ---- -- --- ------- --<br>------- ---------- ------ -- ----- -- ----- -- ---- ------<br>--- ----- --- --- ------ -------- ----- --- ------ ----- --<br>----- ----- ---------- --- --- ------ ------ ---- -- ------<br>------- The ------ ----- --- ---- ------- -- ---- --- --<br>------- ------,184332.74499999243,184328.5249999899,184052.266,184056.36499999673,184068.932,184335.588,,44,The
screen,html.Screen,2_1_1_1_45,2021-04-24T14:13:57.757Z,,,,,,,,,,,,,,,,,54,,,,,,,,,,,,,,302.9169999808073,,response,,,,100,,,,,,,Space,keypress(Space),,,,,,,,-- --- ---- --- ------ ----- ------- ---- -- --- ------- --<br>------- ---------- ------ -- ----- -- ----- -- ---- ------<br>--- ----- --- --- ------ -------- ----- --- ------ ----- --<br>----- ----- ---------- --- --- ------ ------ ---- -- ------<br>------- --- French ----- --- ---- ------- -- ---- --- --<br>------- ------,184642.54000000074,184638.5049999808,184318.922,184332.91499997722,184335.588,184652.242,,45,French
screen,html.Screen,2_1_1_1_46,2021-04-24T14:13:58.100Z,,,,,,,,,,,,,,,,,54,,,,,,,,,,,,,,328.28800000072806,,response,,,,100,,,,,,,Space,keypress(Space),,,,,,,,-- --- ---- --- ------ ----- ------- ---- -- --- ------- --<br>------- ---------- ------ -- ----- -- ----- -- ---- ------<br>--- ----- --- --- ------ -------- ----- --- ------ ----- --<br>----- ----- ---------- --- --- ------ ------ ---- -- ------<br>------- --- ------ state --- ---- ------- -- ---- --- --<br>------- ------,184984.7149999987,184980.53000000073,184635.576,184642.71999997436,184652.242,184985.562,,46,state
screen,html.Screen,2_1_1_1_47,2021-04-24T14:13:58.435Z,,,,,,,,,,,,,,,,,54,,,,,,,,,,,,,,330.06799999732175,,response,,,,100,,,,,,,Space,keypress(Space),,,,,,,,-- --- ---- --- ------ ----- ------- ---- -- --- ------- --<br>------- ---------- ------ -- ----- -- ----- -- ---- ------<br>--- ----- --- --- ------ -------- ----- --- ------ ----- --<br>----- ----- ---------- --- --- ------ ------ ---- -- ------<br>------- --- ------ ----- was ---- ------- -- ---- --- --<br>------- ------,185319.77000000188,185315.62999999733,184968.896,184984.88999999245,184985.562,185335.548,,47,was
screen,html.Screen,2_1_1_1_48,2021-04-24T14:13:58.738Z,,,,,,,,,,,,,,,,,54,,,,,,,,,,,,,,283.93700000288663,,response,,,,100,,,,,,,Space,keypress(Space),,,,,,,,-- --- ---- --- ------ ----- ------- ---- -- --- ------- --<br>------- ---------- ------ -- ----- -- ----- -- ---- ------<br>--- ----- --- --- ------ -------- ----- --- ------ ----- --<br>----- ----- ---------- --- --- ------ ------ ---- -- ------<br>------- --- ------ ----- --- left ------- -- ---- --- --<br>------- ------,185623.65500000305,185619.4850000029,185318.882,185319.93999998667,185335.548,185635.536,,48,left
screen,html.Screen,2_1_1_1_49,2021-04-24T14:13:59.036Z,,,,,,,,,,,,,,,,,54,,,,,,,,,,,,,,280.95400000325753,,response,,,,100,,,,,,,Space,keypress(Space),,,,,,,,-- --- ---- --- ------ ----- ------- ---- -- --- ------- --<br>------- ---------- ------ -- ----- -- ----- -- ---- ------<br>--- ----- --- --- ------ -------- ----- --- ------ ----- --<br>----- ----- ---------- --- --- ------ ------ ---- -- ------<br>------- --- ------ ----- --- ---- without -- ---- --- --<br>------- ------,185920.73499999242,185916.49000000325,185618.87,185623.83499997668,185635.536,185935.524,,49,without
screen,html.Screen,2_1_1_1_50,2021-04-24T14:13:59.366Z,,,,,,,,,,,,,,,,,54,,,,,,,,,,,,,,311.00099999501253,,response,,,,100,,,,,,,Space,keypress(Space),,,,,,,,-- --- ---- --- ------ ----- ------- ---- -- --- ------- --<br>------- ---------- ------ -- ----- -- ----- -- ---- ------<br>--- ----- --- --- ------ -------- ----- --- ------ ----- --<br>----- ----- ---------- --- --- ------ ------ ---- -- ------<br>------- --- ------ ----- --- ---- ------- an ---- --- --<br>------- ------,186250.80499998876,186246.52499999502,185918.858,185920.91499999515,185935.524,186252.178,,50,an
screen,html.Screen,2_1_1_1_51,2021-04-24T14:13:59.672Z,,,,,,,,,,,,,,,,,54,,,,,,,,,,,,,,300.28699998609954,,response,,,,100,,,,,,,Space,keypress(Space),,,,,,,,-- --- ---- --- ------ ----- ------- ---- -- --- ------- --<br>------- ---------- ------ -- ----- -- ----- -- ---- ------<br>--- ----- --- --- ------ -------- ----- --- ------ ----- --<br>----- ----- ---------- --- --- ------ ------ ---- -- ------<br>------- --- ------ ----- --- ---- ------- -- easy --- --<br>------- ------,186556.7549999978,186552.4649999861,186235.512,186250.97999998252,186252.178,186568.832,,51,easy
screen,html.Screen,2_1_1_1_52,2021-04-24T14:13:59.994Z,,,,,,,,,,,,,,,,,54,,,,,,,,,,,,,,306.52799997635884,,response,,,,100,,,,,,,Space,keypress(Space),,,,,,,,-- --- ---- --- ------ ----- ------- ---- -- --- ------- --<br>------- ---------- ------ -- ----- -- ----- -- ---- ------<br>--- ----- --- --- ------ -------- ----- --- ------ ----- --<br>----- ----- ---------- --- --- ------ ------ ---- -- ------<br>------- --- ------ ----- --- ---- ------- -- ---- way --<br>------- ------,186879.59999998566,186875.35999997635,186552.166,186556.93500000052,186568.832,186885.486,,52,way
screen,html.Screen,2_1_1_1_53,2021-04-24T14:14:00.314Z,,,,,,,,,,,,,,,,,54,,,,,,,,,,,,,,309.82399998095934,,response,,,,100,,,,,,,Space,keypress(Space),,,,,,,,-- --- ---- --- ------ ----- ------- ---- -- --- ------- --<br>------- ---------- ------ -- ----- -- ----- -- ---- ------<br>--- ----- --- --- ------ -------- ----- --- ------ ----- --<br>----- ----- ---------- --- --- ------ ------ ---- -- ------<br>------- --- ------ ----- --- ---- ------- -- ---- --- of<br>------- ------,187199.34999998077,187195.30999998096,186868.82,186879.77499997942,186885.486,187202.14,,53,of
screen,html.Screen,2_1_1_1_54,2021-04-24T14:14:00.629Z,,,,,,,,,,,,,,,,,54,,,,,,,,,,,,,,307.3399999787798,,response,,,,100,,,,,,,Space,keypress(Space),,,,,,,,-- --- ---- --- ------ ----- ------- ---- -- --- ------- --<br>------- ---------- ------ -- ----- -- ----- -- ---- ------<br>--- ----- --- --- ------ -------- ----- --- ------ ----- --<br>----- ----- ---------- --- --- ------ ------ ---- -- ------<br>------- --- ------ ----- --- ---- ------- -- ---- --- --<br>raising ------,187513.7049999903,187509.4799999788,187185.474,187199.52499997453,187202.14,187518.794,,54,raising
screen,html.Screen,2_1_1_1_55,2021-04-24T14:14:00.953Z,,,,,,,,,,,,,,,,,54,,,,,,,,,,,,,,315.54600000125356,,response,,,,100,,,,,,,Space,keypress(Space),,,,,,,,-- --- ---- --- ------ ----- ------- ---- -- --- ------- --<br>------- ---------- ------ -- ----- -- ----- -- ---- ------<br>--- ----- --- --- ------ -------- ----- --- ------ ----- --<br>----- ----- ---------- --- --- ------ ------ ---- -- ------<br>------- --- ------ ----- --- ---- ------- -- ---- --- --<br>------- money.,187838.45499999006,187834.34000000125,187502.128,187513.87999998406,187518.794,187852.114,,55,money.
Item 100,flow.Loop,2_1_1_1,2021-04-24T14:14:00.954Z,,,,,,,,,,,,,,,,,,,,,,,,,,,,,,,18681.592000001256,,completion,,,,,B,,,,,,,,,,,silence,,,,,187838.79499998875,187834.34000000125,169136.082,169137.51499998034,169152.748,187852.114,,,
Question 1,html.Screen,2_1_1_2,2021-04-24T14:14:04.148Z,,,,,,,,,,,,,,,,,,,,,,,,,,,,true,TRUE,,3177.510999995575,,response,,,,100,B,,,,,,TRUE,click #choice-1,,,,silence,,,,,191032.63000000152,191029.62499999558,187835.448,187838.99499999825,187852.114,191035.32,,,
Question 2,html.Screen,2_1_1_3,2021-04-24T14:14:07.228Z,,,,,,,,,,,,,,,,,,,,,,,,,,,,false,FALSE,,3075.004999986908,,response,,,,100,B,,,,,,TRUE,click #choice-1,,,,silence,,,,,194113.1400000013,194110.32499998691,191018.654,191032.81999999308,191035.32,194126.813,,,
Item 100,flow.Sequence,2_1_1,2021-04-24T14:14:07.229Z,,,,,,,,,,,,,,,,,,,,,,,,,,,,,,,34959.55299998692,,completion,,,,,,,,,,,,,,,,,,,,,194113.43499997747,194110.32499998691,159134.106,159149.0599999961,159150.772,194126.813,,,
End of Practice,html.Page,2_1_2,2021-04-24T14:14:27.227Z,,,,,,,,,,,,,,,,,,,,,,,,,,,,,,,19999.20000000001,,timeout,,,,,,,,,,,,,,,,,,,,,214111.6649999749,214109.347,194110.147,194113.57499999576,194126.813,214126.013,,,
Practice,flow.Sequence,2_1,2021-04-24T14:14:27.228Z,,,,,,,,,,,,,,,,,,,,,,,,,,,,,,,94884.87400000001,,completion,,,,,,,,,,,,,,,,,,,,,214111.96499998914,214109.347,119207.807,119213.08999997564,119224.473,214126.013,,,
Trap_instruction,html.Page,2_2_0,2021-04-24T14:14:39.085Z,,,,,,,,,,,,,,,,,,,,,,,,,,,,,,,11842.686999997619,,form submission,,,,,,,,,,,,,,,,,,,,,225969.04999998515,225968.69999999763,214109.347,214112.15000000084,214126.013,225986.59,,,
trap_trial,html.Screen,2_2_1,2021-04-24T14:14:41.692Z,,,,,,,,,,,,,,,,,,,,,,,,,,,,true,1,,2586.7299999958777,,response,,,,,,,,,,,1,click #choice-1,,,,,,,,,228576.20999999926,228573.31999999587,225953.258,225969.27000000142,225986.59,228578.679,,,
end of trap trial,html.Page,2_2_2,2021-04-24T14:14:43.128Z,,,,,,,,,,,,,,,,,,,,,,,,,,,,,,,1433.3559999924619,,form submission,,,,,,,,,,,,,,,,,,,,,230012.32999999775,230012.03499999247,228562.013,228576.4049999998,228578.679,230011.955,,,
Trap 1,flow.Sequence,2_2,2021-04-24T14:14:43.129Z,,,,,,,,,,,,,,,,,,,,,,,,,,,,,,,15886.02199999246,,completion,,,,,,,,,,,,,,,,,,,,,230012.57999998052,230012.03499999247,214109.347,214112.0949999895,214126.013,230011.955,,,
Standby,html.Page,2_3_0,2021-04-24T14:14:51.114Z,,,,,,,,,,,,,,,,,,,,,,,,,,,,,,,7999.680000000022,,timeout,,,,,,,,,,,,,,,,,,,,,237997.70499998704,237994.969,229995.289,230012.80499997665,230011.955,238011.635,,,
Holding screen,html.Screen,2_3_1_0_0,2021-04-24T14:14:58.108Z,,,,,,,,,,,,,,,,,,,,,,,,,,,,,,,6994.743999999977,,timeout,,,,,,,,,,,,,,,,,,,,,244991.62999997498,244989.713,237994.969,237997.97999998555,238011.635,245006.379,,,
screen,html.Screen,2_3_1_0_1_0,2021-04-24T14:14:58.543Z,,,,,,,,,,,,,,,,,11,,,,,,,,,,,,,,414.1559999829333,,response,,,,4,B,,,,,,Space,keypress(Space),,,,lyrical,,,,Known -- ---- --- -- --- -------- ------------ ---------- --<br>- ------- ------ --------- -- ------------ -- --- ---- -----<br>------ ---- ---- ------ ------ ------- --- ----- ---------<br>---- --- -------- -------- --- --- -- ------- --- --- -----<br>-- --- ------ ------- --- --- -------- ---- --------- --<br>---------- -- -------- ----------------,245426.604999986,245420.53499998292,244989.713,244991.88999997568,245006.379,245439.695,,0,Known
screen,html.Screen,2_3_1_0_1_1,2021-04-24T14:14:58.899Z,,,,,,,,,,,,,,,,,11,,,,,,,,,,,,,,338.5499999940512,,response,,,,4,B,,,,,,Space,keypress(Space),,,,lyrical,,,,----- as ---- --- -- --- -------- ------------ ---------- --<br>- ------- ------ --------- -- ------------ -- --- ---- -----<br>------ ---- ---- ------ ------ ------- --- ----- ---------<br>---- --- -------- -------- --- --- -- ------- --- --- -----<br>-- --- ------ ------- --- --- -------- ---- --------- --<br>---------- -- -------- ----------------,245782.39499998745,245778.24499999406,245423.029,245426.85999997775,245439.695,245789.681,,1,as
screen,html.Screen,2_3_1_0_1_2,2021-04-24T14:14:59.233Z,,,,,,,,,,,,,,,,,11,,,,,,,,,,,,,,322.0089999906195,,response,,,,4,B,,,,,,Space,keypress(Space),,,,lyrical,,,,----- -- Rapa --- -- --- -------- ------------ ---------- --<br>- ------- ------ --------- -- ------------ -- --- ---- -----<br>------ ---- ---- ------ ------ ------- --- ----- ---------<br>---- --- -------- -------- --- --- -- ------- --- --- -----<br>-- --- ------ ------- --- --- -------- ---- --------- --<br>---------- -- -------- ----------------,246116.0099999979,246111.68999999063,245773.015,245782.57499999017,245789.681,246123.001,,2,Rapa
screen,html.Screen,2_3_1_0_1_3,2021-04-24T14:14:59.580Z,,,,,,,,,,,,,,,,,11,,,,,,,,,,,,,,335.68899999948917,,response,,,,4,B,,,,,,Space,keypress(Space),,,,lyrical,,,,----- -- ---- Nui -- --- -------- ------------ ---------- --<br>- ------- ------ --------- -- ------------ -- --- ---- -----<br>------ ---- ---- ------ ------ ------- --- ----- ---------<br>---- --- -------- -------- --- --- -- ------- --- --- -----<br>-- --- ------ ------- --- --- -------- ---- --------- --<br>---------- -- -------- ----------------,246463.06999999797,246458.68999999948,246106.335,246116.18499999167,246123.001,246472.987,,3,Nui
screen,html.Screen,2_3_1_0_1_4,2021-04-24T14:14:59.920Z,,,,,,,,,,,,,,,,,11,,,,,,,,,,,,,,325.30799998596194,,response,,,,4,B,,,,,,Space,keypress(Space),,,,lyrical,,,,----- -- ---- --- to --- -------- ------------ ---------- --<br>- ------- ------ --------- -- ------------ -- --- ---- -----<br>------ ---- ---- ------ ------ ------- --- ----- ---------<br>---- --- -------- -------- --- --- -- ------- --- --- -----<br>-- --- ------ ------- --- --- -------- ---- --------- --<br>---------- -- -------- ----------------,246802.8499999782,246798.29499998596,246456.321,246463.2350000029,246472.987,246806.307,,4,to
screen,html.Screen,2_3_1_0_1_5,2021-04-24T14:15:00.243Z,,,,,,,,,,,,,,,,,11,,,,,,,,,,,,,,315.96299999256735,,response,,,,4,B,,,,,,Space,keypress(Space),,,,lyrical,,,,----- -- ---- --- -- the -------- ------------ ---------- --<br>- ------- ------ --------- -- ------------ -- --- ---- -----<br>------ ---- ---- ------ ------ ------- --- ----- ---------<br>---- --- -------- -------- --- --- -- ------- --- --- -----<br>-- --- ------ ------- --- --- -------- ---- --------- --<br>---------- -- -------- ----------------,247126.5349999885,247122.26999999257,246789.641,246803.02500000107,246806.307,247139.627,,5,the
screen,html.Screen,2_3_1_0_1_6,2021-04-24T14:15:00.553Z,,,,,,,,,,,,,,,,,11,,,,,,,,,,,,,,291.5979999784322,,response,,,,4,B,,,,,,Space,keypress(Space),,,,lyrical,,,,----- -- ---- --- -- --- island's ------------ ---------- --<br>- ------- ------ --------- -- ------------ -- --- ---- -----<br>------ ---- ---- ------ ------ ------- --- ----- ---------<br>---- --- -------- -------- --- --- -- ------- --- --- -----<br>-- --- ------ ------- --- --- -------- ---- --------- --<br>---------- -- -------- ----------------,247436.51999998838,247431.22499997844,247122.961,247126.70999998227,247139.627,247439.615,,6,island's
screen,html.Screen,2_3_1_0_1_7,2021-04-24T14:15:00.906Z,,,,,,,,,,,,,,,,,11,,,,,,,,,,,,,,345.6149999795016,,response,,,,4,B,,,,,,Space,keypress(Space),,,,lyrical,,,,"----- -- ---- --- -- --- -------- inhabitants, ---------- --<br>- ------- ------ --------- -- ------------ -- --- ---- -----<br>------ ---- ---- ------ ------ ------- --- ----- ---------<br>---- --- -------- -------- --- --- -- ------- --- --- -----<br>-- --- ------ ------- --- --- -------- ---- --------- --<br>---------- -- -------- ----------------",247789.39999997965,247785.2299999795,247422.949,247437.20499999472,247439.615,247806.267,,7,"inhabitants,"
screen,html.Screen,2_3_1_0_1_8,2021-04-24T14:15:01.339Z,,,,,,,,,,,,,,,,,11,,,,,,,,,,,,,,411.767999998061,,response,,,,4,B,,,,,,Space,keypress(Space),,,,lyrical,,,,----- -- ---- --- -- --- -------- ------------ Rongorongo --<br>- ------- ------ --------- -- ------------ -- --- ---- -----<br>------ ---- ---- ------ ------ ------- --- ----- ---------<br>---- --- -------- -------- --- --- -- ------- --- --- -----<br>-- --- ------ ------- --- --- -------- ---- --------- --<br>---------- -- -------- ----------------,248222.27999998722,248218.03499999805,247789.601,247789.56999999355,247806.267,248222.917,,8,Rongorongo
screen,html.Screen,2_3_1_0_1_9,2021-04-24T14:15:01.707Z,,,,,,,,,,,,,,,,,11,,,,,,,,,,,,,,363.27799998168484,,response,,,,4,B,,,,,,Space,keypress(Space),,,,lyrical,,,,----- -- ---- --- -- --- -------- ------------ ---------- is<br>- ------- ------ --------- -- ------------ -- --- ---- -----<br>------ ---- ---- ------ ------ ------- --- ----- ---------<br>---- --- -------- -------- --- --- -- ------- --- --- -----<br>-- --- ------ ------- --- --- -------- ---- --------- --<br>---------- -- -------- ----------------,248590.76500000083,248586.19499998167,248206.251,248222.40999998758,248222.917,248606.235,,9,is
screen,html.Screen,2_3_1_0_1_10,2021-04-24T14:15:02.046Z,,,,,,,,,,,,,,,,,11,,,,,,,,,,,,,,318.8700000020908,,response,,,,4,B,,,,,,Space,keypress(Space),,,,lyrical,,,,----- -- ---- --- -- --- -------- ------------ ---------- --<br>a ------- ------ --------- -- ------------ -- --- ---- -----<br>------ ---- ---- ------ ------ ------- --- ----- ---------<br>---- --- -------- -------- --- --- -- ------- --- --- -----<br>-- --- ------ ------- --- --- -------- ---- --------- --<br>---------- -- -------- ----------------,248929.2049999931,248925.10500000208,248589.569,248590.9399999946,248606.235,248933.654,,10,a
screen,html.Screen,2_3_1_0_1_11,2021-04-24T14:15:02.383Z,,,,,,,,,,,,,,,,,11,,,,,,,,,,,,,,328.60099997962243,,response,,,,4,B,,,,,,Space,keypress(Space),,,,lyrical,,,,----- -- ---- --- -- --- -------- ------------ ---------- --<br>- writing ------ --------- -- ------------ -- --- ---- -----<br>------ ---- ---- ------ ------ ------- --- ----- ---------<br>---- --- -------- -------- --- --- -- ------- --- --- -----<br>-- --- ------ ------- --- --- -------- ---- --------- --<br>---------- -- -------- ----------------,249266.57499998691,249262.25499997963,248916.988,248929.37999998685,248933.654,249283.64,,11,writing
screen,html.Screen,2_3_1_0_1_12,2021-04-24T14:15:02.738Z,,,,,,,,,,,,,,,,,11,,,,,,,,,,,,,,333.5199999943143,,response,,,,4,B,,,,,,Space,keypress(Space),,,,lyrical,,,,----- -- ---- --- -- --- -------- ------------ ---------- --<br>- ------- system --------- -- ------------ -- --- ---- -----<br>------ ---- ---- ------ ------ ------- --- ----- ---------<br>---- --- -------- -------- --- --- -- ------- --- --- -----<br>-- --- ------ ------- --- --- -------- ---- --------- --<br>---------- -- -------- ----------------,249621.39499999466,249617.15999999433,249266.974,249266.7450000008,249283.64,249633.626,,12,system
screen,html.Screen,2_3_1_0_1_13,2021-04-24T14:15:03.104Z,,,,,,,,,,,,,,,,,11,,,,,,,,,,,,,,349.5289999944507,,response,,,,4,B,,,,,,Space,keypress(Space),,,,lyrical,,,,----- -- ---- --- -- --- -------- ------------ ---------- --<br>- ------- ------ comprised -- ------------ -- --- ---- -----<br>------ ---- ---- ------ ------ ------- --- ----- ---------<br>---- --- -------- -------- --- --- -- ------- --- --- -----<br>-- --- ------ ------- --- --- -------- ---- --------- --<br>---------- -- -------- ----------------,249987.524999975,249983.15499999444,249616.96,249621.56999998842,249633.626,250000.278,,13,comprised
screen,html.Screen,2_3_1_0_1_14,2021-04-24T14:15:03.499Z,,,,,,,,,,,,,,,,,11,,,,,,,,,,,,,,376.98199997929623,,response,,,,4,B,,,,,,Space,keypress(Space),,,,lyrical,,,,----- -- ---- --- -- --- -------- ------------ ---------- --<br>- ------- ------ --------- of ------------ -- --- ---- -----<br>------ ---- ---- ------ ------ ------- --- ----- ---------<br>---- --- -------- -------- --- --- -- ------- --- --- -----<br>-- --- ------ ------- --- --- -------- ---- --------- --<br>---------- -- -------- ----------------,250382.19499998377,250377.2599999793,249983.612,249987.70499997772,250000.278,250400.262,,14,of
screen,html.Screen,2_3_1_0_1_15,2021-04-24T14:15:03.895Z,,,,,,,,,,,,,,,,,11,,,,,,,,,,,,,,373.8679999761516,,response,,,,4,B,,,,,,Space,keypress(Space),,,,lyrical,,,,----- -- ---- --- -- --- -------- ------------ ---------- --<br>- ------- ------ --------- -- pictographs. -- --- ---- -----<br>------ ---- ---- ------ ------ ------- --- ----- ---------<br>---- --- -------- -------- --- --- -- ------- --- --- -----<br>-- --- ------ ------- --- --- -------- ---- --------- --<br>---------- -- -------- ----------------,250778.42999997665,250774.12999997614,250383.596,250382.40000000224,250400.262,250783.58,,15,pictographs.
screen,html.Screen,2_3_1_0_1_16,2021-04-24T14:15:04.317Z,,,,,,,,,,,,,,,,,11,,,,,,,,,,,,,,412.57000000341213,,response,,,,4,B,,,,,,Space,keypress(Space),,,,lyrical,,,,----- -- ---- --- -- --- -------- ------------ ---------- --<br>- ------- ------ --------- -- ------------ It --- ---- -----<br>------ ---- ---- ------ ------ ------- --- ----- ---------<br>---- --- -------- -------- --- --- -- ------- --- --- -----<br>-- --- ------ ------- --- --- -------- ---- --------- --<br>---------- -- -------- ----------------,251200.6349999865,251196.1500000034,250766.914,250778.60999997938,250783.58,251216.896,,16,It
screen,html.Screen,2_3_1_0_1_17,2021-04-24T14:15:04.642Z,,,,,,,,,,,,,,,,,11,,,,,,,,,,,,,,303.22899998089997,,response,,,,4,B,,,,,,Space,keypress(Space),,,,lyrical,,,,----- -- ---- --- -- --- -------- ------------ ---------- --<br>- ------- ------ --------- -- ------------ -- has ---- -----<br>------ ---- ---- ------ ------ ------- --- ----- ---------<br>---- --- -------- -------- --- --- -- ------- --- --- -----<br>-- --- ------ ------- --- --- -------- ---- --------- --<br>---------- -- -------- ----------------,251524.7049999889,251520.1249999809,251200.23,251200.79999999143,251216.896,251533.55,,17,has
screen,html.Screen,2_3_1_0_1_18,2021-04-24T14:15:04.955Z,,,,,,,,,,,,,,,,,11,,,,,,,,,,,,,,300.5649999760208,,response,,,,4,B,,,,,,Space,keypress(Space),,,,lyrical,,,,----- -- ---- --- -- --- -------- ------------ ---------- --<br>- ------- ------ --------- -- ------------ -- --- been -----<br>------ ---- ---- ------ ------ ------- --- ----- ---------<br>---- --- -------- -------- --- --- -- ------- --- --- -----<br>-- --- ------ ------- --- --- -------- ---- --------- --<br>---------- -- -------- ----------------,251838.50499999244,251834.114999976,251516.884,251524.88499999163,251533.55,251850.204,,18,been
screen,html.Screen,2_3_1_0_1_19,2021-04-24T14:15:05.334Z,,,,,,,,,,,,,,,,,11,,,,,,,,,,,,,,363.0310000028985,,response,,,,4,B,,,,,,Space,keypress(Space),,,,lyrical,,,,----- -- ---- --- -- --- -------- ------------ ---------- --<br>- ------- ------ --------- -- ------------ -- --- ---- found<br>------ ---- ---- ------ ------ ------- --- ----- ---------<br>---- --- -------- -------- --- --- -- ------- --- --- -----<br>-- --- ------ ------- --- --- -------- ---- --------- --<br>---------- -- -------- ----------------,252217.5350000034,252213.2350000029,251833.538,251838.6799999862,251850.204,252233.522,,19,found
screen,html.Screen,2_3_1_0_1_20,2021-04-24T14:15:05.658Z,,,,,,,,,,,,,,,,,11,,,,,,,,,,,,,,303.79299999412615,,response,,,,4,B,,,,,,Space,keypress(Space),,,,lyrical,,,,----- -- ---- --- -- --- -------- ------------ ---------- --<br>- ------- ------ --------- -- ------------ -- --- ---- -----<br>carved ---- ---- ------ ------ ------- --- ----- ---------<br>---- --- -------- -------- --- --- -- ------- --- --- -----<br>-- --- ------ ------- --- --- -------- ---- --------- --<br>---------- -- -------- ----------------,252541.50999998092,252537.31499999412,252216.856,252217.70999999717,252233.522,252550.176,,20,carved
screen,html.Screen,2_3_1_0_1_21,2021-04-24T14:15:05.964Z,,,,,,,,,,,,,,,,,11,,,,,,,,,,,,,,292.96399998266133,,response,,,,4,B,,,,,,Space,keypress(Space),,,,lyrical,,,,----- -- ---- --- -- --- -------- ------------ ---------- --<br>- ------- ------ --------- -- ------------ -- --- ---- -----<br>------ into ---- ------ ------ ------- --- ----- ---------<br>---- --- -------- -------- --- --- -- ------- --- --- -----<br>-- --- ------ ------- --- --- -------- ---- --------- --<br>---------- -- -------- ----------------,252847.45499998098,252843.13999998267,252533.51,252541.6799999948,252550.176,252850.164,,21,into
screen,html.Screen,2_3_1_0_1_22,2021-04-24T14:15:06.272Z,,,,,,,,,,,,,,,,,11,,,,,,,,,,,,,,300.0409999835538,,response,,,,4,B,,,,,,Space,keypress(Space),,,,lyrical,,,,----- -- ---- --- -- --- -------- ------------ ---------- --<br>- ------- ------ --------- -- ------------ -- --- ---- -----<br>------ ---- many ------ ------ ------- --- ----- ---------<br>---- --- -------- -------- --- --- -- ------- --- --- -----<br>-- --- ------ ------- --- --- -------- ---- --------- --<br>---------- -- -------- ----------------,253154.82999998494,253150.20499998354,252833.498,252847.62999997474,252850.164,253166.818,,22,many
screen,html.Screen,2_3_1_0_1_23,2021-04-24T14:15:06.583Z,,,,,,,,,,,,,,,,,11,,,,,,,,,,,,,,295.2669999773789,,response,,,,4,B,,,,,,Space,keypress(Space),,,,lyrical,,,,----- -- ---- --- -- --- -------- ------------ ---------- --<br>- ------- ------ --------- -- ------------ -- --- ---- -----<br>------ ---- ---- oblong ------ ------- --- ----- ---------<br>---- --- -------- -------- --- --- -- ------- --- --- -----<br>-- --- ------ ------- --- --- -------- ---- --------- --<br>---------- -- -------- ----------------,253466.33999998448,253462.08499997738,253150.152,253155.01499999664,253166.818,253483.472,,23,oblong
screen,html.Screen,2_3_1_0_1_24,2021-04-24T14:15:06.907Z,,,,,,,,,,,,,,,,,11,,,,,,,,,,,,,,301.6279999791295,,response,,,,4,B,,,,,,Space,keypress(Space),,,,lyrical,,,,----- -- ---- --- -- --- -------- ------------ ---------- --<br>- ------- ------ --------- -- ------------ -- --- ---- -----<br>------ ---- ---- ------ wooden ------- --- ----- ---------<br>---- --- -------- -------- --- --- -- ------- --- --- -----<br>-- --- ------ ------- --- --- -------- ---- --------- --<br>---------- -- -------- ----------------,253789.6999999939,253785.09999997914,253466.806,253466.51499997824,253483.472,253800.126,,24,wooden
screen,html.Screen,2_3_1_0_1_25,2021-04-24T14:15:07.263Z,,,,,,,,,,,,,,,,,11,,,,,,,,,,,,,,341.98899999511195,,response,,,,4,B,,,,,,Space,keypress(Space),,,,lyrical,,,,----- -- ---- --- -- --- -------- ------------ ---------- --<br>- ------- ------ --------- -- ------------ -- --- ---- -----<br>------ ---- ---- ------ ------ tablets --- ----- ---------<br>---- --- -------- -------- --- --- -- ------- --- --- -----<br>-- --- ------ ------- --- --- -------- ---- --------- --<br>---------- -- -------- ----------------,254146.24000000185,254142.1149999951,253783.46,253789.87499998766,253800.126,254150.112,,25,tablets
screen,html.Screen,2_3_1_0_1_26,2021-04-24T14:15:07.595Z,,,,,,,,,,,,,,,,,11,,,,,,,,,,,,,,323.0729999807372,,response,,,,4,B,,,,,,Space,keypress(Space),,,,lyrical,,,,----- -- ---- --- -- --- -------- ------------ ---------- --<br>- ------- ------ --------- -- ------------ -- --- ---- -----<br>------ ---- ---- ------ ------ ------- and ----- ---------<br>---- --- -------- -------- --- --- -- ------- --- --- -----<br>-- --- ------ ------- --- --- -------- ---- --------- --<br>---------- -- -------- ----------------,254477.63499998837,254473.18499998073,254133.446,254146.41999997548,254150.112,254483.432,,26,and
screen,html.Screen,2_3_1_0_1_27,2021-04-24T14:15:07.945Z,,,,,,,,,,,,,,,,,11,,,,,,,,,,,,,,340.67299997786176,,response,,,,4,B,,,,,,Space,keypress(Space),,,,lyrical,,,,----- -- ---- --- -- --- -------- ------------ ---------- --<br>- ------- ------ --------- -- ------------ -- --- ---- -----<br>------ ---- ---- ------ ------ ------- --- other ---------<br>---- --- -------- -------- --- --- -- ------- --- --- -----<br>-- --- ------ ------- --- --- -------- ---- --------- --<br>---------- -- -------- ----------------,254828.15999997547,254824.10499997786,254466.766,254477.80500000226,254483.432,254833.418,,27,other
screen,html.Screen,2_3_1_0_1_28,2021-04-24T14:15:08.262Z,,,,,,,,,,,,,,,,,11,,,,,,,,,,,,,,307.63199997652555,,response,,,,4,B,,,,,,Space,keypress(Space),,,,lyrical,,,,----- -- ---- --- -- --- -------- ------------ ---------- --<br>- ------- ------ --------- -- ------------ -- --- ---- -----<br>------ ---- ---- ------ ------ ------- --- ----- artifacts<br>---- --- -------- -------- --- --- -- ------- --- --- -----<br>-- --- ------ ------- --- --- -------- ---- --------- --<br>---------- -- -------- ----------------,255145.42999997502,255141.04999997653,254816.752,254828.33499999833,254833.418,255150.072,,28,artifacts
screen,html.Screen,2_3_1_0_1_29,2021-04-24T14:15:08.657Z,,,,,,,,,,,,,,,,,11,,,,,,,,,,,,,,384.99799998354865,,response,,,,4,B,,,,,,Space,keypress(Space),,,,lyrical,,,,----- -- ---- --- -- --- -------- ------------ ---------- --<br>- ------- ------ --------- -- ------------ -- --- ---- -----<br>------ ---- ---- ------ ------ ------- --- ----- ---------<br>from --- -------- -------- --- --- -- ------- --- --- -----<br>-- --- ------ ------- --- --- -------- ---- --------- --<br>---------- -- -------- ----------------,255539.89499999443,255535.06999998353,255133.406,255145.60999997775,255150.072,255550.056,,29,from
screen,html.Screen,2_3_1_0_1_30,2021-04-24T14:15:09.022Z,,,,,,,,,,,,,,,,,11,,,,,,,,,,,,,,349.9939999965427,,response,,,,4,B,,,,,,Space,keypress(Space),,,,lyrical,,,,----- -- ---- --- -- --- -------- ------------ ---------- --<br>- ------- ------ --------- -- ------------ -- --- ---- -----<br>------ ---- ---- ------ ------ ------- --- ----- ---------<br>---- the -------- -------- --- --- -- ------- --- --- -----<br>-- --- ------ ------- --- --- -------- ---- --------- --<br>---------- -- -------- ----------------,255904.5749999932,255900.04999999655,255533.39,255540.06499997922,255550.056,255916.708,,30,the
screen,html.Screen,2_3_1_0_1_31,2021-04-24T14:15:09.760Z,,,,,,,,,,,,,,,,,11,,,,,,,,,,,,,,722.3319999800005,,response,,,,4,B,,,,,,Space,keypress(Space),,,,lyrical,,,,----- -- ---- --- -- --- -------- ------------ ---------- --<br>- ------- ------ --------- -- ------------ -- --- ---- -----<br>------ ---- ---- ------ ------ ------- --- ----- ---------<br>---- --- island's -------- --- --- -- ------- --- --- -----<br>-- --- ------ ------- --- --- -------- ---- --------- --<br>---------- -- -------- ----------------,256643.3449999895,256639.03999998,255900.042,255904.75499999593,255916.708,256650.012,,31,island's
screen,html.Screen,2_3_1_0_1_32,2021-04-24T14:15:10.101Z,,,,,,,,,,,,,,,,,11,,,,,,,,,,,,,,329.92799999017734,,response,,,,4,B,,,,,,Space,keypress(Space),,,,lyrical,,,,----- -- ---- --- -- --- -------- ------------ ---------- --<br>- ------- ------ --------- -- ------------ -- --- ---- -----<br>------ ---- ---- ------ ------ ------- --- ----- ---------<br>---- --- -------- history. --- --- -- ------- --- --- -----<br>-- --- ------ ------- --- --- -------- ---- --------- --<br>---------- -- -------- ----------------,256984.39999998664,256979.93999999017,256633.346,256643.52499999222,256650.012,256999.998,,32,history.
screen,html.Screen,2_3_1_0_1_33,2021-04-24T14:15:10.414Z,,,,,,,,,,,,,,,,,11,,,,,,,,,,,,,,292.8469999890367,,response,,,,4,B,,,,,,Space,keypress(Space),,,,lyrical,,,,----- -- ---- --- -- --- -------- ------------ ---------- --<br>- ------- ------ --------- -- ------------ -- --- ---- -----<br>------ ---- ---- ------ ------ ------- --- ----- ---------<br>---- --- -------- -------- The --- -- ------- --- --- -----<br>-- --- ------ ------- --- --- -------- ---- --------- --<br>---------- -- -------- ----------------,257296.8299999775,257292.84499998903,256983.332,256984.57999998936,256999.998,257299.986,,33,The
screen,html.Screen,2_3_1_0_1_34,2021-04-24T14:15:10.795Z,,,,,,,,,,,,,,,,,11,,,,,,,,,,,,,,373.99399999229354,,response,,,,4,B,,,,,,Space,keypress(Space),,,,lyrical,,,,----- -- ---- --- -- --- -------- ------------ ---------- --<br>- ------- ------ --------- -- ------------ -- --- ---- -----<br>------ ---- ---- ------ ------ ------- --- ----- ---------<br>---- --- -------- -------- --- art -- ------- --- --- -----<br>-- --- ------ ------- --- --- -------- ---- --------- --<br>---------- -- -------- ----------------,257678.419999982,257673.9799999923,257283.32,257297.00500000035,257299.986,257683.304,,34,art
screen,html.Screen,2_3_1_0_1_35,2021-04-24T14:15:11.144Z,,,,,,,,,,,,,,,,,11,,,,,,,,,,,,,,339.825999986846,,response,,,,4,B,,,,,,Space,keypress(Space),,,,lyrical,,,,----- -- ---- --- -- --- -------- ------------ ---------- --<br>- ------- ------ --------- -- ------------ -- --- ---- -----<br>------ ---- ---- ------ ------ ------- --- ----- ---------<br>---- --- -------- -------- --- --- of ------- --- --- -----<br>-- --- ------ ------- --- --- -------- ---- --------- --<br>---------- -- -------- ----------------,258027.30999997584,258023.12999998685,257666.638,257678.59999998473,257683.304,258033.29,,35,of
screen,html.Screen,2_3_1_0_1_36,2021-04-24T14:15:11.520Z,,,,,,,,,,,,,,,,,11,,,,,,,,,,,,,,364.7649999978312,,response,,,,4,B,,,,,,Space,keypress(Space),,,,lyrical,,,,----- -- ---- --- -- --- -------- ------------ ---------- --<br>- ------- ------ --------- -- ------------ -- --- ---- -----<br>------ ---- ---- ------ ------ ------- --- ----- ---------<br>---- --- -------- -------- --- --- -- writing --- --- -----<br>-- --- ------ ------- --- --- -------- ---- --------- --<br>---------- -- -------- ----------------,258402.53500000108,258398.05499999784,258016.624,258027.48999997857,258033.29,258416.608,,36,writing
screen,html.Screen,2_3_1_0_1_37,2021-04-24T14:15:11.859Z,,,,,,,,,,,,,,,,,11,,,,,,,,,,,,,,321.20700000040233,,response,,,,4,B,,,,,,Space,keypress(Space),,,,lyrical,,,,----- -- ---- --- -- --- -------- ------------ ---------- --<br>- ------- ------ --------- -- ------------ -- --- ---- -----<br>------ ---- ---- ------ ------ ------- --- ----- ---------<br>---- --- -------- -------- --- --- -- ------- was --- -----<br>-- --- ------ ------- --- --- -------- ---- --------- --<br>---------- -- -------- ----------------,258742.11500000092,258737.8150000004,258399.942,258402.7149999747,258416.608,258749.928,,37,was
