sender,sender_type,sender_id,timestamp,meta,,Blues,Classical,Country,Dance,Electronic,Folk,Gospel,Hip-Hop,Jazz,Latin,Musical/Film,New-age,Pop,Prolific_id,Provo_ID,R&B,Rap,Reggae,Religious,Rock,Soul,Swing,Traditional,age,artist_name,correct,correctResponse,distraction,duration,education,ended_on,familiarity,gender,headphone_check_performance,item,list,music_frequency,offensiveness,pleasantness,position_correct,preference,response,response_action,snippet_file,song_name,song_rating,sound,stimulus_1,stimulus_2,stimulus_3,text,time_commit,time_end,time_render,time_run,time_show,time_switch,url,word,word_ID
Prolific ID,html.Form,0,2021-04-24T14:51:27.364Z,"{""labjs_version"":""20.2.2"",""labjs_build"":{""flavor"":""production"",""commit"":""a25486e0c714a0ae2ce03ff94b7bb6896854dcfa""},""location"":""https://run.pavlovia.org/mvasilev/prolific_music_c/"",""userAgent"":""Mozilla/5.0 (Windows NT 10.0; Win64; x64) AppleWebKit/537.36 (KHTML, like Gecko) Chrome/90.0.4430.85 Safari/537.36"",""platform"":""Win32"",""language"":""en-GB"",""locale"":""en-GB"",""timeZone"":""Europe/London"",""timezoneOffset"":-60,""screen_width"":1536,""screen_height"":864,""scroll_width"":1536,""scroll_height"":674,""window_innerWidth"":1536,""window_innerHeight"":722,""devicePixelRatio"":1.25}",,,,,,,,,,,,,,,5d99bbe39d2a700018869e79,,,,,,,,,,,,,,,14727.945999974389,,form submission,,,,,,,,,,,,,,,,,,,,,25957.86500000395,25956.87499997439,11212.332,11217.680000001565,11228.929,25962.395,{},,
Introduction,html.Screen,1_0,2021-04-24T14:51:30.617Z,,,,,,,,,,,,,,,,,,,,,,,,,,,,,,,3246.7199999760087,,response,,,,,,,,,,,continue,click button,,,,,,,,,29210.699999995995,29209.11499997601,25945.825,25958.51500000572,25962.395,29212.377,,,
Volume calibration,html.Screen,1_1,2021-04-24T14:52:06.208Z,,,,,,,,,,,,,,,,,,,,,,,,,,,,,,,35586.93800001112,,response,,,,,,,,,,,continue,click button,,,,,,,,,64803.94999997225,64799.31500001112,29195.922,29210.95499995863,29212.377,64812.657,,,
Task instructions,html.Screen,1_2,2021-04-24T14:52:09.446Z,,,,,,,,,,,,,,,,,,,,,,,,,,,,,,,3228.0880000057005,,response,,,,,,,,,,,continue,click button,,,,,,,,,68042.11499996018,68040.7450000057,64795.994,64804.15499996161,64812.657,68045.973,,,
Sounds,html.Screen,1_3_0_0,2021-04-24T14:52:13.688Z,,,,,,,,,,,,,,,,,,,,,,,,,,,,,,,4250.134999999995,,timeout,,,,,,,,,3,,,,,,,,I,O,S,,72283.88499998255,72279.696,68029.35,68042.49500000151,68045.973,72296.108,,,
Judgement,html.Screen,1_3_0_1,2021-04-24T14:52:17.438Z,,,,,,,,,,,,,,,,,,,,,,,,,,,,false,3,,3736.7619999954622,,response,,,,,,,,,3,,2,click #choice-2,,,,,I,O,S,,76034.35999999056,76032.86999999546,72279.696,72284.11999996752,72296.108,76046.243,,,
Trial,flow.Sequence,1_3_0,2021-04-24T14:52:17.441Z,,,,,,,,,,,,,,,,,,,,,,,,,,,,,,,7986.896999995457,,completion,,,,,,,,,3,,,,,,,,I,O,S,,76037.26000001188,76032.86999999546,68029.35,68042.4200000125,68045.973,76046.243,,,
Sounds,html.Screen,1_3_1_0,2021-04-24T14:52:21.685Z,,,,,,,,,,,,,,,,,,,,,,,,,,,,,,,4250.047999999995,,timeout,,,,,,,,,2,,,,,,,,I,S,O,,80281.0499999905,80279.498,76029.67,76037.45999996318,76046.243,80296.291,,,
Judgement,html.Screen,1_3_1_1,2021-04-24T14:52:22.810Z,,,,,,,,,,,,,,,,,,,,,,,,,,,,true,2,,1108.714000007807,,response,,,,,,,,,2,,2,click #choice-2,,,,,I,S,O,,81406.38499998022,81405.0050000078,80279.498,80281.34499996668,80296.291,81412.77,,,
Trial,flow.Sequence,1_3_1,2021-04-24T14:52:22.811Z,,,,,,,,,,,,,,,,,,,,,,,,,,,,,,,5358.762000007802,,completion,,,,,,,,,2,,,,,,,,I,S,O,,81406.71499999007,81405.0050000078,76029.67,76037.4099999899,76046.243,81412.77,,,
Sounds,html.Screen,1_3_2_0,2021-04-24T14:52:27.052Z,,,,,,,,,,,,,,,,,,,,,,,,,,,,,,,4250.4389999999985,,timeout,,,,,,,,,3,,,,,,,,O,I,S,,85647.60500000557,85646.167,81396.36,81406.91999997944,81412.77,85663.209,,,
Judgement,html.Screen,1_3_2_1,2021-04-24T14:52:28.126Z,,,,,,,,,,,,,,,,,,,,,,,,,,,,true,3,,1057.0609999907028,,response,,,,,,,,,3,,3,click #choice-3,,,,,O,I,S,,86721.58499999205,86720.2699999907,85646.167,85647.83999999054,85663.209,86729.483,,,
Trial,flow.Sequence,1_3_2,2021-04-24T14:52:28.126Z,,,,,,,,,,,,,,,,,,,,,,,,,,,,,,,5307.499999990701,,completion,,,,,,,,,3,,,,,,,,O,I,S,,86722.06000000006,86720.2699999907,81396.36,81406.85999998823,81412.77,86729.483,,,
Sounds,html.Screen,1_3_3_0,2021-04-24T14:52:32.370Z,,,,,,,,,,,,,,,,,,,,,,,,,,,,,,,4250.326000000001,,timeout,,,,,,,,,2,,,,,,,,O,S,I,,90964.25999997882,90963.224,86712.857,86722.39000000991,86729.483,90979.809,,,
Judgement,html.Screen,1_3_3_1,2021-04-24T14:52:33.037Z,,,,,,,,,,,,,,,,,,,,,,,,,,,,true,2,,650.2959999892773,,response,,,,,,,,,2,,2,click #choice-2,,,,,O,S,I,,91631.46999996388,91630.10499998927,90963.224,90964.44999997038,90979.809,91646.387,,,
Trial,flow.Sequence,1_3_3,2021-04-24T14:52:33.038Z,,,,,,,,,,,,,,,,,,,,,,,,,,,,,,,4900.621999989278,,completion,,,,,,,,,2,,,,,,,,O,S,I,,91631.85999996495,91630.10499998927,86712.857,86722.30999998283,86729.483,91646.387,,,
Sounds,html.Screen,1_3_4_0,2021-04-24T14:52:37.287Z,,,,,,,,,,,,,,,,,,,,,,,,,,,,,,,4249.955999999991,,timeout,,,,,,,,,1,,,,,,,,S,I,O,,95880.73499995517,95879.557,91629.788,91632.14000000153,91646.387,95896.343,,,
Judgement,html.Screen,1_3_4_1,2021-04-24T14:52:38.043Z,,,,,,,,,,,,,,,,,,,,,,,,,,,,true,1,,739.7369999674847,,response,,,,,,,,,1,,1,click #choice-1,,,,,S,I,O,,96637.51999998931,96636.07999996748,95879.557,95881.00499997381,95896.343,96646.237,,,
Trial,flow.Sequence,1_3_4,2021-04-24T14:52:38.044Z,,,,,,,,,,,,,,,,,,,,,,,,,,,,,,,4989.692999967476,,completion,,,,,,,,,1,,,,,,,,S,I,O,,96637.80999998562,96636.07999996748,91629.788,91632.05999997444,91646.387,96646.237,,,
Sounds,html.Screen,1_3_5_0,2021-04-24T14:52:42.287Z,,,,,,,,,,,,,,,,,,,,,,,,,,,,,,,4250.073000000004,,timeout,,,,,,,,,1,,,,,,,,S,O,I,,100880.96999999834,100879.71,96629.592,96637.99499999732,96646.237,100896.31,,,
Judgement,html.Screen,1_3_5_1,2021-04-24T14:52:42.851Z,,,,,,,,,,,,,,,,,,,,,,,,,,,,true,1,,547.4949999880628,,response,,,,,,,,,1,,1,click #choice-1,,,,,S,O,I,,101445.19499997841,101443.80499998806,100879.71,100881.20000000345,100896.31,101446.273,,,
Trial,flow.Sequence,1_3_5,2021-04-24T14:52:42.851Z,,,,,,,,,,,,,,,,,,,,,,,,,,,,,,,4797.567999988067,,completion,,,,,,,,,1,,,,,,,,S,O,I,,101445.48499997472,101443.80499998806,96629.592,96637.95000000391,96646.237,101446.273,,,
Task,flow.Loop,1_3,2021-04-24T14:52:42.858Z,,,,,,,,,,,,,,,,,,,,,,,,,,,,,,,33397.83199998806,,completion,,,0.8333333333333334,,,,,,,,,,,,,,,,,,101452.43499998469,101443.80499998806,68029.35,68042.33500000555,68045.973,101446.273,,,
Trap,html.Screen,1_4,2021-04-24T14:52:42.860Z,,,,,,,,,,,,,,,,,,,,,,,,,,,,,,,NaN,,skipped,,,,,,,,,,,,,,,,,,,,,101454.1999999783,101443.80499998806,,101453.91499996185,,101446.273,,,
Thanks,html.Screen,1_5,2021-04-24T14:52:46.320Z,,,,,,,,,,,,,,,,,,,,,,,,,,,,,,,3466.0369999851537,,response,,,,,,,,,,,continue,click button,,,,,,,,,104913.8699999894,104912.30999998515,101429.545,101454.37499997206,101446.273,107329.636,,,
Headphone screening,flow.Sequence,1,2021-04-24T14:52:46.320Z,,,,,,,,,,,,,,,,,,,,,,,,,,,,,,,78949.91499998515,,completion,,,,,,,,,,,,,,,,,,,,,104914.14999996778,104912.30999998515,25945.825,25958.4399999585,25962.395,107329.636,,,
Instructions,html.Page,2_0,2021-04-24T14:52:52.966Z,,,,,,,,,,,,,,,,,,,,,,,,,,,,,,,4230.0389999676845,,form submission,,,,,,,,,,,,,,,,,,,,,111560.52499997895,111559.67499996768,107312.896,107332.35499996226,107329.636,111579.663,,,
Holding screen,html.Screen,2_1_0_0,2021-04-24T14:53:02.970Z,,,,,,,,,,,,,,,,,,,,,,,,,,,,,,,10000.099000000002,,timeout,,,,,,,,,,,,,,,,,,,,,121564.24999999581,121563.305,111563.103,111561.2250000122,111579.663,121579.762,,,
screen,html.Screen,2_1_0_1_0,2021-04-24T14:53:05.071Z,,,,,,,,,,,,,,,,,53,,,,,,,,,,,,,,2081.607999987071,,response,,,,99,,,,,,,Space,keypress(Space),,,,,,,,When -- ----- -- ------ - ------- --- ----------<br>------------- ------ ------ ---- ---- ------- ----- -- ----<br>-------- ------- -- ---------- --- - --- ----- ----- ----<br>---- --- --- ----- --- ---- ---- ------- ----- ---- -------<br>--- --- -- ----- -- --- ---- -- --- ---- -- ------ ------<br>--- ----- -- ----,123665.084999986,123661.36999998707,121563.305,121564.58499998553,121579.762,123680.18,,0,When
screen,html.Screen,2_1_0_1_1,2021-04-24T14:53:06.490Z,,,,,,,,,,,,,,,,,53,,,,,,,,,,,,,,1402.7000000017579,,response,,,,99,,,,,,,Space,keypress(Space),,,,,,,,---- it ----- -- ------ - ------- --- ----------<br>------------- ------ ------ ---- ---- ------- ----- -- ----<br>-------- ------- -- ---------- --- - --- ----- ----- ----<br>---- --- --- ----- --- ---- ---- ------- ----- ---- -------<br>--- --- -- ----- -- --- ---- -- --- ---- -- ------ ------<br>--- ----- -- ----,125083.73999997275,125082.88000000175,123663.234,123665.29499995522,123680.18,125096.785,,1,it
screen,html.Screen,2_1_0_1_2,2021-04-24T14:53:08.069Z,,,,,,,,,,,,,,,,,53,,,,,,,,,,,,,,1565.0049999837356,,response,,,,99,,,,,,,Space,keypress(Space),,,,,,,,---- -- comes -- ------ - ------- --- ----------<br>------------- ------ ------ ---- ---- ------- ----- -- ----<br>-------- ------- -- ---------- --- - --- ----- ----- ----<br>---- --- --- ----- --- ---- ---- ------- ----- ---- -------<br>--- --- -- ----- -- --- ---- -- --- ---- -- ------ ------<br>--- ----- -- ----,126662.64499997487,126661.78999998374,125079.823,125083.92999996431,125096.785,126680.191,,2,comes
screen,html.Screen,2_1_0_1_3,2021-04-24T14:53:08.915Z,,,,,,,,,,,,,,,,,53,,,,,,,,,,,,,,827.7290000036446,,response,,,,99,,,,,,,Space,keypress(Space),,,,,,,,---- -- ----- to ------ - ------- --- ----------<br>------------- ------ ------ ---- ---- ------- ----- -- ----<br>-------- ------- -- ---------- --- - --- ----- ----- ----<br>---- --- --- ----- --- ---- ---- ------- ----- ---- -------<br>--- --- -- ----- -- --- ---- -- --- ---- -- ------ ------<br>--- ----- -- ----,127508.88499995926,127507.92000000365,126663.058,126662.83499996644,126680.191,127513.058,,3,to
screen,html.Screen,2_1_0_1_4,2021-04-24T14:53:09.787Z,,,,,,,,,,,,,,,,,53,,,,,,,,,,,,,,867.6269999818905,,response,,,,99,,,,,,,Space,keypress(Space),,,,,,,,---- -- ----- -- having - ------- --- ----------<br>------------- ------ ------ ---- ---- ------- ----- -- ----<br>-------- ------- -- ---------- --- - --- ----- ----- ----<br>---- --- --- ----- --- ---- ---- ------- ----- ---- -------<br>--- --- -- ----- -- --- ---- -- --- ---- -- ------ ------<br>--- ----- -- ----,128381.59000000451,128380.6849999819,127496.694,127509.06999997096,127513.058,128396.792,,4,having
screen,html.Screen,2_1_0_1_5,2021-04-24T14:53:10.205Z,,,,,,,,,,,,,,,,,53,,,,,,,,,,,,,,401.2680000009859,,response,,,,99,,,,,,,Space,keypress(Space),,,,,,,,---- -- ----- -- ------ a ------- --- ----------<br>------------- ------ ------ ---- ---- ------- ----- -- ----<br>-------- ------- -- ---------- --- - --- ----- ----- ----<br>---- --- --- ----- --- ---- ---- ------- ----- ---- -------<br>--- --- -- ----- -- --- ---- -- --- ---- -- ------ ------<br>--- ----- -- ----,128798.91999997199,128798.06000000099,128379.974,128381.80500001181,128396.792,128813.463,,5,a
screen,html.Screen,2_1_0_1_6,2021-04-24T14:53:10.769Z,,,,,,,,,,,,,,,,,53,,,,,,,,,,,,,,548.7119999583665,,response,,,,99,,,,,,,Space,keypress(Space),,,,,,,,---- -- ----- -- ------ - lasting --- ----------<br>------------- ------ ------ ---- ---- ------- ----- -- ----<br>-------- ------- -- ---------- --- - --- ----- ----- ----<br>---- --- --- ----- --- ---- ---- ------- ----- ---- -------<br>--- --- -- ----- -- --- ---- -- --- ---- -- ------ ------<br>--- ----- -- ----,129363.06999996305,129362.17499995837,128796.476,128799.10499998368,128813.463,129380.22,,6,lasting
screen,html.Screen,2_1_0_1_7,2021-04-24T14:53:11.257Z,,,,,,,,,,,,,,,,,53,,,,,,,,,,,,,,470.1649999979127,,response,,,,99,,,,,,,Space,keypress(Space),,,,,,,,---- -- ----- -- ------ - ------- and ----------<br>------------- ------ ------ ---- ---- ------- ----- -- ----<br>-------- ------- -- ---------- --- - --- ----- ----- ----<br>---- --- --- ----- --- ---- ---- ------- ----- ---- -------<br>--- --- -- ----- -- --- ---- -- --- ---- -- ------ ------<br>--- ----- -- ----,129851.22000001138,129850.38499999791,129363.356,129363.39499999303,129380.22,129863.472,,7,and
screen,html.Screen,2_1_0_1_8,2021-04-24T14:53:11.804Z,,,,,,,,,,,,,,,,,53,,,,,,,,,,,,,,534.133000005575,,response,,,,99,,,,,,,Space,keypress(Space),,,,,,,,---- -- ----- -- ------ - ------- --- fulfilling<br>------------- ------ ------ ---- ---- ------- ----- -- ----<br>-------- ------- -- ---------- --- - --- ----- ----- ----<br>---- --- --- ----- --- ---- ---- ------- ----- ---- -------<br>--- --- -- ----- -- --- ---- -- --- ---- -- ------ ------<br>--- ----- -- ----,130398.4449999989,130397.60500000557,129846.736,129851.41000000294,129863.472,130413.472,,8,fulfilling
screen,html.Screen,2_1_0_1_9,2021-04-24T14:53:12.280Z,,,,,,,,,,,,,,,,,53,,,,,,,,,,,,,,459.1629999778961,,response,,,,99,,,,,,,Space,keypress(Space),,,,,,,,"---- -- ----- -- ------ - ------- --- ----------<br>relationship, ------ ------ ---- ---- ------- ----- -- ----<br>-------- ------- -- ---------- --- - --- ----- ----- ----<br>---- --- --- ----- --- ---- ---- ------- ----- ---- -------<br>--- --- -- ----- -- --- ---- -- --- ---- -- ------ ------<br>--- ----- -- ----",130873.64000000525,130872.63499997789,130396.707,130398.66499998607,130413.472,130879.808,,9,"relationship,"
screen,html.Screen,2_1_0_1_10,2021-04-24T14:53:12.830Z,,,,,,,,,,,,,,,,,53,,,,,,,,,,,,,,543.2669999987847,,response,,,,99,,,,,,,Space,keypress(Space),,,,,,,,---- -- ----- -- ------ - ------- --- ----------<br>------------- common ------ ---- ---- ------- ----- -- ----<br>-------- ------- -- ---------- --- - --- ----- ----- ----<br>---- --- --- ----- --- ---- ---- ------- ----- ---- -------<br>--- --- -- ----- -- --- ---- -- --- ---- -- ------ ------<br>--- ----- -- ----,131423.91000001226,131423.0749999988,130863.183,130873.83499997668,130879.808,131429.812,,10,common
screen,html.Screen,2_1_0_1_11,2021-04-24T14:53:13.314Z,,,,,,,,,,,,,,,,,53,,,,,,,,,,,,,,476.96299998127506,,response,,,,99,,,,,,,Space,keypress(Space),,,,,,,,---- -- ----- -- ------ - ------- --- ----------<br>------------- ------ wisdom ---- ---- ------- ----- -- ----<br>-------- ------- -- ---------- --- - --- ----- ----- ----<br>---- --- --- ----- --- ---- ---- ------- ----- ---- -------<br>--- --- -- ----- -- --- ---- -- --- ---- -- ------ ------<br>--- ----- -- ----,131907.71999995923,131906.77499998128,131413.376,131424.1349999793,131429.812,131913.077,,11,wisdom
screen,html.Screen,2_1_0_1_12,2021-04-24T14:53:13.826Z,,,,,,,,,,,,,,,,,53,,,,,,,,,,,,,,505.9630000079633,,response,,,,99,,,,,,,Space,keypress(Space),,,,,,,,---- -- ----- -- ------ - ------- --- ----------<br>------------- ------ ------ says ---- ------- ----- -- ----<br>-------- ------- -- ---------- --- - --- ----- ----- ----<br>---- --- --- ----- --- ---- ---- ------- ----- ---- -------<br>--- --- -- ----- -- --- ---- -- --- ---- -- ------ ------<br>--- ----- -- ----,132419.8749999632,132419.04000000795,131896.829,131907.9250000068,131913.077,132430.128,,12,says
screen,html.Screen,2_1_0_1_13,2021-04-24T14:53:14.251Z,,,,,,,,,,,,,,,,,53,,,,,,,,,,,,,,414.2420000061684,,response,,,,99,,,,,,,Space,keypress(Space),,,,,,,,---- -- ----- -- ------ - ------- --- ----------<br>------------- ------ ------ ---- that ------- ----- -- ----<br>-------- ------- -- ---------- --- - --- ----- ----- ----<br>---- --- --- ----- --- ---- ---- ------- ----- ---- -------<br>--- --- -- ----- -- --- ---- -- --- ---- -- ------ ------<br>--- ----- -- ----,132845.23499995703,132844.37000000617,132413.134,132420.0599999749,132430.128,132869.464,,13,that
screen,html.Screen,2_1_0_1_14,2021-04-24T14:53:14.686Z,,,,,,,,,,,,,,,,,53,,,,,,,,,,,,,,409.30599997533136,,response,,,,99,,,,,,,Space,keypress(Space),,,,,,,,---- -- ----- -- ------ - ------- --- ----------<br>------------- ------ ------ ---- ---- feeling ----- -- ----<br>-------- ------- -- ---------- --- - --- ----- ----- ----<br>---- --- --- ----- --- ---- ---- ------- ----- ---- -------<br>--- --- -- ----- -- --- ---- -- --- ---- -- ------ ------<br>--- ----- -- ----,133279.73499998916,133278.76999997534,132829.811,132845.42999998666,132869.464,133296.812,,14,feeling
screen,html.Screen,2_1_0_1_15,2021-04-24T14:53:15.175Z,,,,,,,,,,,,,,,,,53,,,,,,,,,,,,,,471.0679999994172,,response,,,,99,,,,,,,Space,keypress(Space),,,,,,,,---- -- ----- -- ------ - ------- --- ----------<br>------------- ------ ------ ---- ---- ------- close -- ----<br>-------- ------- -- ---------- --- - --- ----- ----- ----<br>---- --- --- ----- --- ---- ---- ------- ----- ---- -------<br>--- --- -- ----- -- --- ---- -- --- ---- -- ------ ------<br>--- ----- -- ----,133768.71999999275,133767.87999999942,133280.051,133280.04499996314,133296.812,133779.929,,15,close
screen,html.Screen,2_1_0_1_16,2021-04-24T14:53:15.656Z,,,,,,,,,,,,,,,,,53,,,,,,,,,,,,,,469.1559999594465,,response,,,,99,,,,,,,Space,keypress(Space),,,,,,,,---- -- ----- -- ------ - ------- --- ----------<br>------------- ------ ------ ---- ---- ------- ----- to ----<br>-------- ------- -- ---------- --- - --- ----- ----- ----<br>---- --- --- ----- --- ---- ---- ------- ----- ---- -------<br>--- --- -- ----- -- --- ---- -- --- ---- -- ------ ------<br>--- ----- -- ----,134249.97499998426,134249.08499995945,133763.35,133768.90999998432,133779.929,134263.586,,16,to
screen,html.Screen,2_1_0_1_17,2021-04-24T14:53:16.201Z,,,,,,,,,,,,,,,,,53,,,,,,,,,,,,,,530.5039999812143,,response,,,,99,,,,,,,Space,keypress(Space),,,,,,,,---- -- ----- -- ------ - ------- --- ----------<br>------------- ------ ------ ---- ---- ------- ----- -- your<br>-------- ------- -- ---------- --- - --- ----- ----- ----<br>---- --- --- ----- --- ---- ---- ------- ----- ---- -------<br>--- --- -- ----- -- --- ---- -- --- ---- -- ------ ------<br>--- ----- -- ----,134794.92999997456,134794.08999998122,134246.511,134250.1850000117,134263.586,134814.768,,17,your
screen,html.Screen,2_1_0_1_18,2021-04-24T14:53:16.653Z,,,,,,,,,,,,,,,,,53,,,,,,,,,,,,,,431.3769999827782,,response,,,,99,,,,,,,Space,keypress(Space),,,,,,,,---- -- ----- -- ------ - ------- --- ----------<br>------------- ------ ------ ---- ---- ------- ----- -- ----<br>romantic ------- -- ---------- --- - --- ----- ----- ----<br>---- --- --- ----- --- ---- ---- ------- ----- ---- -------<br>--- --- -- ----- -- --- ---- -- --- ---- -- ------ ------<br>--- ----- -- ----,135246.9249999849,135246.1449999828,134780.204,134795.12999998406,134814.768,135263.368,,18,romantic
screen,html.Screen,2_1_0_1_19,2021-04-24T14:53:17.076Z,,,,,,,,,,,,,,,,,53,,,,,,,,,,,,,,406.27199997825664,,response,,,,99,,,,,,,Space,keypress(Space),,,,,,,,---- -- ----- -- ------ - ------- --- ----------<br>------------- ------ ------ ---- ---- ------- ----- -- ----<br>-------- partner -- ---------- --- - --- ----- ----- ----<br>---- --- --- ----- --- ---- ---- ------- ----- ---- -------<br>--- --- -- ----- -- --- ---- -- --- ---- -- ------ ------<br>--- ----- -- ----,135670.43499997817,135669.63999997824,135246.737,135247.5400000112,135263.368,135679.854,,19,partner
screen,html.Screen,2_1_0_1_20,2021-04-24T14:53:17.528Z,,,,,,,,,,,,,,,,,53,,,,,,,,,,,,,,441.49599997216137,,response,,,,99,,,,,,,Space,keypress(Space),,,,,,,,---- -- ----- -- ------ - ------- --- ----------<br>------------- ------ ------ ---- ---- ------- ----- -- ----<br>-------- ------- is ---------- --- - --- ----- ----- ----<br>---- --- --- ----- --- ---- ---- ------- ----- ---- -------<br>--- --- -- ----- -- --- ---- -- --- ---- -- ------ ------<br>--- ----- -- ----,136122.17499996768,136121.34999997215,135663.526,135670.60999997193,135679.854,136129.919,,20,is
screen,html.Screen,2_1_0_1_21,2021-04-24T14:53:18.100Z,,,,,,,,,,,,,,,,,53,,,,,,,,,,,,,,563.6609999628272,,response,,,,99,,,,,,,Space,keypress(Space),,,,,,,,---- -- ----- -- ------ - ------- --- ----------<br>------------- ------ ------ ---- ---- ------- ----- -- ----<br>-------- ------- -- paramount. --- - --- ----- ----- ----<br>---- --- --- ----- --- ---- ---- ------- ----- ---- -------<br>--- --- -- ----- -- --- ---- -- --- ---- -- ------ ------<br>--- ----- -- ----,136694.2299999646,136693.57999996282,136113.542,136122.37999995705,136129.919,136696.431,,21,paramount.
screen,html.Screen,2_1_0_1_22,2021-04-24T14:53:18.601Z,,,,,,,,,,,,,,,,,53,,,,,,,,,,,,,,497.6839999620279,,response,,,,99,,,,,,,Space,keypress(Space),,,,,,,,---- -- ----- -- ------ - ------- --- ----------<br>------------- ------ ------ ---- ---- ------- ----- -- ----<br>-------- ------- -- ---------- But - --- ----- ----- ----<br>---- --- --- ----- --- ---- ---- ------- ----- ---- -------<br>--- --- -- ----- -- --- ---- -- --- ---- -- ------ ------<br>--- ----- -- ----,137194.97000001138,137194.11499996204,136680.087,136694.40499995835,136696.431,137222.103,,22,But
screen,html.Screen,2_1_0_1_23,2021-04-24T14:53:19.052Z,,,,,,,,,,,,,,,,,53,,,,,,,,,,,,,,422.77699997799937,,response,,,,99,,,,,,,Space,keypress(Space),,,,,,,,---- -- ----- -- ------ - ------- --- ----------<br>------------- ------ ------ ---- ---- ------- ----- -- ----<br>-------- ------- -- ---------- --- a --- ----- ----- ----<br>---- --- --- ----- --- ---- ---- ------- ----- ---- -------<br>--- --- -- ----- -- --- ---- -- --- ---- -- ------ ------<br>--- ----- -- ----,137645.74499998707,137644.879999978,137180.043,137195.17500000075,137222.103,137663.181,,23,a
screen,html.Screen,2_1_0_1_24,2021-04-24T14:53:19.505Z,,,,,,,,,,,,,,,,,53,,,,,,,,,,,,,,434.58399995494983,,response,,,,99,,,,,,,Space,keypress(Space),,,,,,,,---- -- ----- -- ------ - ------- --- ----------<br>------------- ------ ------ ---- ---- ------- ----- -- ----<br>-------- ------- -- ---------- --- - new ----- ----- ----<br>---- --- --- ----- --- ---- ---- ------- ----- ---- -------<br>--- --- -- ----- -- --- ---- -- --- ---- -- ------ ------<br>--- ----- -- ----,138098.65999995964,138097.76499995496,137630.035,137645.9399999585,137663.181,138113.606,,24,new
screen,html.Screen,2_1_0_1_25,2021-04-24T14:53:19.953Z,,,,,,,,,,,,,,,,,53,,,,,,,,,,,,,,431.0539999559114,,response,,,,99,,,,,,,Space,keypress(Space),,,,,,,,---- -- ----- -- ------ - ------- --- ----------<br>------------- ------ ------ ---- ---- ------- ----- -- ----<br>-------- ------- -- ---------- --- - --- study ----- ----<br>---- --- --- ----- --- ---- ---- ------- ----- ---- -------<br>--- --- -- ----- -- --- ---- -- --- ---- -- ------ ------<br>--- ----- -- ----,138546.66499997256,138544.6599999559,138096.727,138098.8650000072,138113.606,138563.618,,25,study
screen,html.Screen,2_1_0_1_26,2021-04-24T14:53:20.380Z,,,,,,,,,,,,,,,,,53,,,,,,,,,,,,,,409.9570000109088,,response,,,,99,,,,,,,Space,keypress(Space),,,,,,,,---- -- ----- -- ------ - ------- --- ----------<br>------------- ------ ------ ---- ---- ------- ----- -- ----<br>-------- ------- -- ---------- --- - --- ----- finds ----<br>---- --- --- ----- --- ---- ---- ------- ----- ---- -------<br>--- --- -- ----- -- --- ---- -- --- ---- -- ------ ------<br>--- ----- -- ----,138974.43000000203,138973.5750000109,138546.87,138546.99000000255,138563.618,138979.807,,26,finds
screen,html.Screen,2_1_0_1_27,2021-04-24T14:53:20.847Z,,,,,,,,,,,,,,,,,53,,,,,,,,,,,,,,460.11299997524475,,response,,,,99,,,,,,,Space,keypress(Space),,,,,,,,---- -- ----- -- ------ - ------- --- ----------<br>------------- ------ ------ ---- ---- ------- ----- -- ----<br>-------- ------- -- ---------- --- - --- ----- ----- that<br>---- --- --- ----- --- ---- ---- ------- ----- ---- -------<br>--- --- -- ----- -- --- ---- -- --- ---- -- ------ ------<br>--- ----- -- ----,139440.78999996418,139439.91999997525,138963.548,138974.6199999936,138979.807,139446.461,,27,that
screen,html.Screen,2_1_0_1_28,2021-04-24T14:53:21.275Z,,,,,,,,,,,,,,,,,53,,,,,,,,,,,,,,421.24899996223394,,response,,,,99,,,,,,,Space,keypress(Space),,,,,,,,---- -- ----- -- ------ - ------- --- ----------<br>------------- ------ ------ ---- ---- ------- ----- -- ----<br>-------- ------- -- ---------- --- - --- ----- ----- ----<br>it's --- --- ----- --- ---- ---- ------- ----- ---- -------<br>--- --- -- ----- -- --- ---- -- --- ---- -- ------ ------<br>--- ----- -- ----,139868.6400000006,139867.70999996224,139429.828,139440.97999995574,139446.461,139879.907,,28,it's
screen,html.Screen,2_1_0_1_29,2021-04-24T14:53:21.658Z,,,,,,,,,,,,,,,,,53,,,,,,,,,,,,,,371.532999963616,,response,,,,99,,,,,,,Space,keypress(Space),,,,,,,,---- -- ----- -- ------ - ------- --- ----------<br>------------- ------ ------ ---- ---- ------- ----- -- ----<br>-------- ------- -- ---------- --- - --- ----- ----- ----<br>---- not --- ----- --- ---- ---- ------- ----- ---- -------<br>--- --- -- ----- -- --- ---- -- --- ---- -- ------ ------<br>--- ----- -- ----,140252.4249999551,140251.43999996362,139863.438,139868.8400000101,139879.907,140263.288,,29,not
screen,html.Screen,2_1_0_1_30,2021-04-24T14:53:22.030Z,,,,,,,,,,,,,,,,,53,,,,,,,,,,,,,,360.24699996243,,response,,,,99,,,,,,,Space,keypress(Space),,,,,,,,---- -- ----- -- ------ - ------- --- ----------<br>------------- ------ ------ ---- ---- ------- ----- -- ----<br>-------- ------- -- ---------- --- - --- ----- ----- ----<br>---- --- how ----- --- ---- ---- ------- ----- ---- -------<br>--- --- -- ----- -- --- ---- -- --- ---- -- ------ ------<br>--- ----- -- ----,140624.4599999627,140623.53499996243,140246.832,140252.69499997376,140263.288,140629.804,,30,how
screen,html.Screen,2_1_0_1_31,2021-04-24T14:53:22.430Z,,,,,,,,,,,,,,,,,53,,,,,,,,,,,,,,393.8459999882616,,response,,,,99,,,,,,,Space,keypress(Space),,,,,,,,---- -- ----- -- ------ - ------- --- ----------<br>------------- ------ ------ ---- ---- ------- ----- -- ----<br>-------- ------- -- ---------- --- - --- ----- ----- ----<br>---- --- --- close --- ---- ---- ------- ----- ---- -------<br>--- --- -- ----- -- --- ---- -- --- ---- -- ------ ------<br>--- ----- -- ----,141024.4749999838,141023.64999998827,140613.545,140624.65499999234,140629.804,141029.818,,31,close
screen,html.Screen,2_1_0_1_32,2021-04-24T14:53:22.820Z,,,,,,,,,,,,,,,,,53,,,,,,,,,,,,,,383.87199995756964,,response,,,,99,,,,,,,Space,keypress(Space),,,,,,,,---- -- ----- -- ------ - ------- --- ----------<br>------------- ------ ------ ---- ---- ------- ----- -- ----<br>-------- ------- -- ---------- --- - --- ----- ----- ----<br>---- --- --- ----- you ---- ---- ------- ----- ---- -------<br>--- --- -- ----- -- --- ---- -- --- ---- -- ------ ------<br>--- ----- -- ----,141414.5450000069,141413.68999995757,141013.385,141024.70000000903,141029.818,141429.973,,32,you
screen,html.Screen,2_1_0_1_33,2021-04-24T14:53:23.244Z,,,,,,,,,,,,,,,,,53,,,,,,,,,,,,,,407.5069999874104,,response,,,,99,,,,,,,Space,keypress(Space),,,,,,,,---- -- ----- -- ------ - ------- --- ----------<br>------------- ------ ------ ---- ---- ------- ----- -- ----<br>-------- ------- -- ---------- --- - --- ----- ----- ----<br>---- --- --- ----- --- feel ---- ------- ----- ---- -------<br>--- --- -- ----- -- --- ---- -- --- ---- -- ------ ------<br>--- ----- -- ----,141838.34999997634,141837.4799999874,141413.273,141414.74999999627,141429.973,141846.496,,33,feel
screen,html.Screen,2_1_0_1_34,2021-04-24T14:53:23.660Z,,,,,,,,,,,,,,,,,53,,,,,,,,,,,,,,406.60900001067785,,response,,,,99,,,,,,,Space,keypress(Space),,,,,,,,---- -- ----- -- ------ - ------- --- ----------<br>------------- ------ ------ ---- ---- ------- ----- -- ----<br>-------- ------- -- ---------- --- - --- ----- ----- ----<br>---- --- --- ----- --- ---- that ------- ----- ---- -------<br>--- --- -- ----- -- --- ---- -- --- ---- -- ------ ------<br>--- ----- -- ----,142254.24999999814,142253.1050000107,141829.905,141840.09999997215,141846.496,142263.627,,34,that
screen,html.Screen,2_1_0_1_35,2021-04-24T14:53:24.068Z,,,,,,,,,,,,,,,,,53,,,,,,,,,,,,,,397.9680000123044,,response,,,,99,,,,,,,Space,keypress(Space),,,,,,,,---- -- ----- -- ------ - ------- --- ----------<br>------------- ------ ------ ---- ---- ------- ----- -- ----<br>-------- ------- -- ---------- --- - --- ----- ----- ----<br>---- --- --- ----- --- ---- ---- matters ----- ---- -------<br>--- --- -- ----- -- --- ---- -- --- ---- -- ------ ------<br>--- ----- -- ----,142662.4249999877,142661.5950000123,142246.74,142254.4249999919,142263.627,142680.221,,35,matters
screen,html.Screen,2_1_0_1_36,2021-04-24T14:53:24.457Z,,,,,,,,,,,,,,,,,53,,,,,,,,,,,,,,370.47899996340857,,response,,,,99,,,,,,,Space,keypress(Space),,,,,,,,"---- -- ----- -- ------ - ------- --- ----------<br>------------- ------ ------ ---- ---- ------- ----- -- ----<br>-------- ------- -- ---------- --- - --- ----- ----- ----<br>---- --- --- ----- --- ---- ---- ------- most, ---- -------<br>--- --- -- ----- -- --- ---- -- --- ---- -- ------ ------<br>--- ----- -- ----",143051.5449999948,143050.6999999634,142663.563,142663.58499997295,142680.221,143063.643,,36,"most,"
screen,html.Screen,2_1_0_1_37,2021-04-24T14:53:24.851Z,,,,,,,,,,,,,,,,,53,,,,,,,,,,,,,,381.0919999681937,,response,,,,99,,,,,,,Space,keypress(Space),,,,,,,,---- -- ----- -- ------ - ------- --- ----------<br>------------- ------ ------ ---- ---- ------- ----- -- ----<br>-------- ------- -- ---------- --- - --- ----- ----- ----<br>---- --- --- ----- --- ---- ---- ------- ----- it's -------<br>--- --- -- ----- -- --- ---- -- --- ---- -- ------ ------<br>--- ----- -- ----,143445.5949999974,143444.7349999682,143046.92,143051.72499996843,143063.643,143468.437,,37,it's
screen,html.Screen,2_1_0_1_38,2021-04-24T14:53:25.271Z,,,,,,,,,,,,,,,,,53,,,,,,,,,,,,,,396.1179999782762,,response,,,,99,,,,,,,Space,keypress(Space),,,,,,,,---- -- ----- -- ------ - ------- --- ----------<br>------------- ------ ------ ---- ---- ------- ----- -- ----<br>-------- ------- -- ---------- --- - --- ----- ----- ----<br>---- --- --- ----- --- ---- ---- ------- ----- ---- whether<br>--- --- -- ----- -- --- ---- -- --- ---- -- ------ ------<br>--- ----- -- ----,143865.40999996942,143864.55499997828,143430.081,143445.7800000091,143468.437,143880.219,,38,whether
screen,html.Screen,2_1_0_1_39,2021-04-24T14:53:25.664Z,,,,,,,,,,,,,,,,,53,,,,,,,,,,,,,,376.89100000591134,,response,,,,99,,,,,,,Space,keypress(Space),,,,,,,,---- -- ----- -- ------ - ------- --- ----------<br>------------- ------ ------ ---- ---- ------- ----- -- ----<br>-------- ------- -- ---------- --- - --- ----- ----- ----<br>---- --- --- ----- --- ---- ---- ------- ----- ---- -------<br>you --- -- ----- -- --- ---- -- --- ---- -- ------ ------<br>--- ----- -- ----,144257.92499998352,144257.11000000592,143863.466,143865.59000000125,143880.219,144263.157,,39,you
screen,html.Screen,2_1_0_1_40,2021-04-24T14:53:26.059Z,,,,,,,,,,,,,,,,,53,,,,,,,,,,,,,,389.16799997363705,,response,,,,99,,,,,,,Space,keypress(Space),,,,,,,,---- -- ----- -- ------ - ------- --- ----------<br>------------- ------ ------ ---- ---- ------- ----- -- ----<br>-------- ------- -- ---------- --- - --- ----- ----- ----<br>---- --- --- ----- --- ---- ---- ------- ----- ---- -------<br>--- are -- ----- -- --- ---- -- --- ---- -- ------ ------<br>--- ----- -- ----,144653.13499997137,144652.32499997364,144246.616,144258.10499995714,144263.157,144663.652,,40,are
screen,html.Screen,2_1_0_1_41,2021-04-24T14:53:26.451Z,,,,,,,,,,,,,,,,,53,,,,,,,,,,,,,,381.0079999559093,,response,,,,99,,,,,,,Space,keypress(Space),,,,,,,,---- -- ----- -- ------ - ------- --- ----------<br>------------- ------ ------ ---- ---- ------- ----- -- ----<br>-------- ------- -- ---------- --- - --- ----- ----- ----<br>---- --- --- ----- --- ---- ---- ------- ----- ---- -------<br>--- --- as ----- -- --- ---- -- --- ---- -- ------ ------<br>--- ----- -- ----,145045.50999996718,145044.6599999559,144646.738,144653.33999996074,144663.652,145077.447,,41,as
screen,html.Screen,2_1_0_1_42,2021-04-24T14:53:26.900Z,,,,,,,,,,,,,,,,,53,,,,,,,,,,,,,,416.2029999603401,,response,,,,99,,,,,,,Space,keypress(Space),,,,,,,,---- -- ----- -- ------ - ------- --- ----------<br>------------- ------ ------ ---- ---- ------- ----- -- ----<br>-------- ------- -- ---------- --- - --- ----- ----- ----<br>---- --- --- ----- --- ---- ---- ------- ----- ---- -------<br>--- --- -- close -- --- ---- -- --- ---- -- ------ ------<br>--- ----- -- ----,145494.42499998258,145493.64999996033,145030.204,145045.69999995874,145077.447,145496.583,,42,close
screen,html.Screen,2_1_0_1_43,2021-04-24T14:53:27.330Z,,,,,,,,,,,,,,,,,53,,,,,,,,,,,,,,426.5169999563077,,response,,,,99,,,,,,,Space,keypress(Space),,,,,,,,---- -- ----- -- ------ - ------- --- ----------<br>------------- ------ ------ ---- ---- ------- ----- -- ----<br>-------- ------- -- ---------- --- - --- ----- ----- ----<br>---- --- --- ----- --- ---- ---- ------- ----- ---- -------<br>--- --- -- ----- as --- ---- -- --- ---- -- ------ ------<br>--- ----- -- ----,145923.8550000009,145923.09999995632,145479.884,145494.62000001222,145496.583,145929.934,,43,as
screen,html.Screen,2_1_0_1_44,2021-04-24T14:53:27.772Z,,,,,,,,,,,,,,,,,53,,,,,,,,,,,,,,435.3210000115214,,response,,,,99,,,,,,,Space,keypress(Space),,,,,,,,---- -- ----- -- ------ - ------- --- ----------<br>------------- ------ ------ ---- ---- ------- ----- -- ----<br>-------- ------- -- ---------- --- - --- ----- ----- ----<br>---- --- --- ----- --- ---- ---- ------- ----- ---- -------<br>--- --- -- ----- -- you ---- -- --- ---- -- ------ ------<br>--- ----- -- ----,146366.24000000302,146365.25500001153,145913.429,145924.04999997234,145929.934,146380.256,,44,you
screen,html.Screen,2_1_0_1_45,2021-04-24T14:53:28.215Z,,,,,,,,,,,,,,,,,53,,,,,,,,,,,,,,428.37899996485794,,response,,,,99,,,,,,,Space,keypress(Space),,,,,,,,---- -- ----- -- ------ - ------- --- ----------<br>------------- ------ ------ ---- ---- ------- ----- -- ----<br>-------- ------- -- ---------- --- - --- ----- ----- ----<br>---- --- --- ----- --- ---- ---- ------- ----- ---- -------<br>--- --- -- ----- -- --- want -- --- ---- -- ------ ------<br>--- ----- -- ----,146809.505000012,146808.63499996485,146363.431,146366.4099999587,146380.256,146813.246,,45,want
screen,html.Screen,2_1_0_1_46,2021-04-24T14:53:28.668Z,,,,,,,,,,,,,,,,,53,,,,,,,,,,,,,,448.1990000109945,,response,,,,99,,,,,,,Space,keypress(Space),,,,,,,,---- -- ----- -- ------ - ------- --- ----------<br>------------- ------ ------ ---- ---- ------- ----- -- ----<br>-------- ------- -- ---------- --- - --- ----- ----- ----<br>---- --- --- ----- --- ---- ---- ------- ----- ---- -------<br>--- --- -- ----- -- --- ---- to --- ---- -- ------ ------<br>--- ----- -- ----,147262.24000001093,147261.445000011,146796.573,146809.7199999611,146813.246,147284.827,,46,to
screen,html.Screen,2_1_0_1_47,2021-04-24T14:53:29.146Z,,,,,,,,,,,,,,,,,53,,,,,,,,,,,,,,454.8080000053742,,response,,,,99,,,,,,,Space,keypress(Space),,,,,,,,"---- -- ----- -- ------ - ------- --- ----------<br>------------- ------ ------ ---- ---- ------- ----- -- ----<br>-------- ------- -- ---------- --- - --- ----- ----- ----<br>---- --- --- ----- --- ---- ---- ------- ----- ---- -------<br>--- --- -- ----- -- --- ---- -- be, ---- -- ------ ------<br>--- ----- -- ----",147740.41999998735,147739.63500000536,147246.835,147262.41999998456,147284.827,147746.535,,47,"be,"
screen,html.Screen,2_1_0_1_48,2021-04-24T14:53:29.603Z,,,,,,,,,,,,,,,,,53,,,,,,,,,,,,,,449.2600000069069,,response,,,,99,,,,,,,Space,keypress(Space),,,,,,,,---- -- ----- -- ------ - ------- --- ----------<br>------------- ------ ------ ---- ---- ------- ----- -- ----<br>-------- ------- -- ---------- --- - --- ----- ----- ----<br>---- --- --- ----- --- ---- ---- ------- ----- ---- -------<br>--- --- -- ----- -- --- ---- -- --- even -- ------ ------<br>--- ----- -- ----,148196.67999999365,148195.7950000069,147730.145,147741.4249999565,147746.535,148213.694,,48,even
screen,html.Screen,2_1_0_1_49,2021-04-24T14:53:30.036Z,,,,,,,,,,,,,,,,,53,,,,,,,,,,,,,,415.6560000028985,,response,,,,99,,,,,,,Space,keypress(Space),,,,,,,,---- -- ----- -- ------ - ------- --- ----------<br>------------- ------ ------ ---- ---- ------- ----- -- ----<br>-------- ------- -- ---------- --- - --- ----- ----- ----<br>---- --- --- ----- --- ---- ---- ------- ----- ---- -------<br>--- --- -- ----- -- --- ---- -- --- ---- if ------ ------<br>--- ----- -- ----,148630.29499998083,148629.3500000029,148196.77,148196.90499996068,148213.694,148647.022,,49,if
screen,html.Screen,2_1_0_1_50,2021-04-24T14:53:30.518Z,,,,,,,,,,,,,,,,,53,,,,,,,,,,,,,,463.92299996397924,,response,,,,99,,,,,,,Space,keypress(Space),,,,,,,,---- -- ----- -- ------ - ------- --- ----------<br>------------- ------ ------ ---- ---- ------- ----- -- ----<br>-------- ------- -- ---------- --- - --- ----- ----- ----<br>---- --- --- ----- --- ---- ---- ------- ----- ---- -------<br>--- --- -- ----- -- --- ---- -- --- ---- -- that's ------<br>--- ----- -- ----,149111.7699999595,149110.94499996398,148630.289,148630.5299999658,148647.022,149139.002,,50,that's
screen,html.Screen,2_1_0_1_51,2021-04-24T14:53:30.965Z,,,,,,,,,,,,,,,,,53,,,,,,,,,,,,,,419.11800000150106,,response,,,,99,,,,,,,Space,keypress(Space),,,,,,,,---- -- ----- -- ------ - ------- --- ----------<br>------------- ------ ------ ---- ---- ------- ----- -- ----<br>-------- ------- -- ---------- --- - --- ----- ----- ----<br>---- --- --- ----- --- ---- ---- ------- ----- ---- -------<br>--- --- -- ----- -- --- ---- -- --- ---- -- ------ really<br>--- ----- -- ----,149558.8749999879,149558.1200000015,149096.93,149111.8799999822,149139.002,149563.198,,51,really
screen,html.Screen,2_1_0_1_52,2021-04-24T14:53:31.416Z,,,,,,,,,,,,,,,,,53,,,,,,,,,,,,,,446.4719999994559,,response,,,,99,,,,,,,Space,keypress(Space),,,,,,,,---- -- ----- -- ------ - ------- --- ----------<br>------------- ------ ------ ---- ---- ------- ----- -- ----<br>-------- ------- -- ---------- --- - --- ----- ----- ----<br>---- --- --- ----- --- ---- ---- ------- ----- ---- -------<br>--- --- -- ----- -- --- ---- -- --- ---- -- ------ ------<br>not ----- -- ----,150010.45499998145,150009.66999999946,149546.799,149559.05499996152,149563.198,150013.247,,52,not
screen,html.Screen,2_1_0_1_53,2021-04-24T14:53:31.815Z,,,,,,,,,,,,,,,,,53,,,,,,,,,,,,,,394.8429999826185,,response,,,,99,,,,,,,Space,keypress(Space),,,,,,,,---- -- ----- -- ------ - ------- --- ----------<br>------------- ------ ------ ---- ---- ------- ----- -- ----<br>-------- ------- -- ---------- --- - --- ----- ----- ----<br>---- --- --- ----- --- ---- ---- ------- ----- ---- -------<br>--- --- -- ----- -- --- ---- -- --- ---- -- ------ ------<br>--- close -- ----,150408.95000001183,150408.08999998262,149996.875,150010.63999999315,150013.247,150413.215,,53,close
screen,html.Screen,2_1_0_1_54,2021-04-24T14:53:32.413Z,,,,,,,,,,,,,,,,,53,,,,,,,,,,,,,,594.3749999938009,,response,,,,99,,,,,,,Space,keypress(Space),,,,,,,,---- -- ----- -- ------ - ------- --- ----------<br>------------- ------ ------ ---- ---- ------- ----- -- ----<br>-------- ------- -- ---------- --- - --- ----- ----- ----<br>---- --- --- ----- --- ---- ---- ------- ----- ---- -------<br>--- --- -- ----- -- --- ---- -- --- ---- -- ------ ------<br>--- ----- at ----,151008.45999998273,151007.5899999938,150396.805,150409.1100000078,150413.215,151013.212,,54,at
screen,html.Screen,2_1_0_1_55,2021-04-24T14:53:33.018Z,,,,,,,,,,,,,,,,,53,,,,,,,,,,,,,,598.1879999943194,,response,,,,99,,,,,,,Space,keypress(Space),,,,,,,,---- -- ----- -- ------ - ------- --- ----------<br>------------- ------ ------ ---- ---- ------- ----- -- ----<br>-------- ------- -- ---------- --- - --- ----- ----- ----<br>---- --- --- ----- --- ---- ---- ------- ----- ---- -------<br>--- --- -- ----- -- --- ---- -- --- ---- -- ------ ------<br>--- ----- -- all.,151613.32000000402,151611.39999999432,150996.796,151008.65500001237,151013.212,151639.663,,55,all.
Item 99,flow.Loop,2_1_0_1,2021-04-24T14:53:33.019Z,,,,,,,,,,,,,,,,,,,,,,,,,,,,,,,30031.637999994316,,completion,,,,,C,,,,,,,,,,,silence,,,,,151613.97499998566,151611.39999999432,121563.305,121564.50499995844,121579.762,151639.663,,,
Question 1,html.Screen,2_1_0_2,2021-04-24T14:53:41.439Z,,,,,,,,,,,,,,,,,,,,,,,,,,,,false,FALSE,,8393.356999973475,,response,,,,99,C,,,,,,TRUE,click #choice-1,,,,silence,,,,,160034.5049999887,160033.01999997348,151613.316,151614.18999999296,151639.663,160047.059,,,
Question 2,html.Screen,2_1_0_3,2021-04-24T14:53:49.217Z,,,,,,,,,,,,,,,,,,,,,,,,,,,,true,TRUE,,7763.715999961714,,response,,,,99,C,,,,,,TRUE,click #choice-1,,,,silence,,,,,167812.07499996526,167810.77499996172,160030.037,160034.69999996014,160047.059,167813.414,,,
Item 99,flow.Sequence,2_1_0,2021-04-24T14:53:49.218Z,,,,,,,,,,,,,,,,,,,,,,,,,,,,,,,56231.11199996172,,completion,,,,,,,,,,,,,,,,,,,,,167813.51999996696,167810.77499996172,111563.103,111561.14499998512,111579.663,167813.414,,,
Holding screen,html.Screen,2_1_1_0,2021-04-24T14:53:59.203Z,,,,,,,,,,,,,,,,,,,,,,,,,,,,,,,10000.540999999997,,timeout,,,,,,,,,,,,,,,,,,,,,177798.0749999988,177797.005,167797.085,167813.9150000061,167813.414,177813.955,,,
screen,html.Screen,2_1_1_1_0,2021-04-24T14:54:00.726Z,,,,,,,,,,,,,,,,,54,,,,,,,,,,,,,,1506.090000000404,,response,,,,100,,,,,,,Space,keypress(Space),,,,,,,,At --- ---- --- ------ ----- ------- ---- -- --- ------- --<br>------- ---------- ------ -- ----- -- ----- -- ---- ------<br>--- ----- --- --- ------ -------- ----- --- ------ ----- --<br>----- ----- ---------- --- --- ------ ------ ---- -- ------<br>------- --- ------ ----- --- ---- ------- -- ---- --- --<br>------- ------,179320.95999998273,179320.0450000004,177797.005,177798.31499996362,177813.955,179330.402,,0,At
screen,html.Screen,2_1_1_1_1,2021-04-24T14:54:01.273Z,,,,,,,,,,,,,,,,,54,,,,,,,,,,,,,,536.7780000010971,,response,,,,100,,,,,,,Space,keypress(Space),,,,,,,,-- the ---- --- ------ ----- ------- ---- -- --- ------- --<br>------- ---------- ------ -- ----- -- ----- -- ---- ------<br>--- ----- --- --- ------ -------- ----- --- ------ ----- --<br>----- ----- ---------- --- --- ------ ------ ---- -- ------<br>------- --- ------ ----- --- ---- ------- -- ---- --- --<br>------- ------,179868.03000001237,179867.1800000011,179313.855,179321.1349999765,179330.402,179880.506,,1,the
screen,html.Screen,2_1_1_1_2,2021-04-24T14:54:01.769Z,,,,,,,,,,,,,,,,,54,,,,,,,,,,,,,,483.23400000069523,,response,,,,100,,,,,,,Space,keypress(Space),,,,,,,,-- --- time --- ------ ----- ------- ---- -- --- ------- --<br>------- ---------- ------ -- ----- -- ----- -- ---- ------<br>--- ----- --- --- ------ -------- ----- --- ------ ----- --<br>----- ----- ---------- --- --- ------ ------ ---- -- ------<br>------- --- ------ ----- --- ---- ------- -- ---- --- --<br>------- ------,180364.66999998083,180363.7400000007,179863.813,179868.209999986,179880.506,180380.488,,2,time
screen,html.Screen,2_1_1_1_3,2021-04-24T14:54:02.261Z,,,,,,,,,,,,,,,,,54,,,,,,,,,,,,,,474.70199997292366,,response,,,,100,,,,,,,Space,keypress(Space),,,,,,,,-- --- ---- the ------ ----- ------- ---- -- --- ------- --<br>------- ---------- ------ -- ----- -- ----- -- ---- ------<br>--- ----- --- --- ------ -------- ----- --- ------ ----- --<br>----- ----- ---------- --- --- ------ ------ ---- -- ------<br>------- --- ------ ----- --- ---- ------- -- ---- --- --<br>------- ------,180856.0699999798,180855.18999997294,180363.678,180364.83999999473,180380.488,180863.605,,3,the
screen,html.Screen,2_1_1_1_4,2021-04-24T14:54:02.703Z,,,,,,,,,,,,,,,,,54,,,,,,,,,,,,,,433.3400000091351,,response,,,,100,,,,,,,Space,keypress(Space),,,,,,,,-- --- ---- --- French ----- ------- ---- -- --- ------- --<br>------- ---------- ------ -- ----- -- ----- -- ---- ------<br>--- ----- --- --- ------ -------- ----- --- ------ ----- --<br>----- ----- ---------- --- --- ------ ------ ---- -- ------<br>------- --- ------ ----- --- ---- ------- -- ---- --- --<br>------- ------,181297.84999997355,181296.94500000915,180846.828,180856.25999997137,180863.605,181313.509,,4,French
screen,html.Screen,2_1_1_1_5,2021-04-24T14:54:03.170Z,,,,,,,,,,,,,,,,,54,,,,,,,,,,,,,,450.511000002356,,response,,,,100,,,,,,,Space,keypress(Space),,,,,,,,-- --- ---- --- ------ crown ------- ---- -- --- ------- --<br>------- ---------- ------ -- ----- -- ----- -- ---- ------<br>--- ----- --- --- ------ -------- ----- --- ------ ----- --<br>----- ----- ---------- --- --- ------ ------ ---- -- ------<br>------- --- ------ ----- --- ---- ------- -- ---- --- --<br>------- ------,181764.8699999554,181764.02000000235,181296.783,181298.01999998745,181313.509,181780.207,,5,crown
screen,html.Screen,2_1_1_1_6,2021-04-24T14:54:03.777Z,,,,,,,,,,,,,,,,,54,,,,,,,,,,,,,,591.133000012429,,response,,,,100,,,,,,,Space,keypress(Space),,,,,,,,-- --- ---- --- ------ ----- secured ---- -- --- ------- --<br>------- ---------- ------ -- ----- -- ----- -- ---- ------<br>--- ----- --- --- ------ -------- ----- --- ------ ----- --<br>----- ----- ---------- --- --- ------ ------ ---- -- ------<br>------- --- ------ ----- --- ---- ------- -- ---- --- --<br>------- ------,182372.22499999916,182371.34000001242,181763.481,181765.04999998724,181780.207,182380.459,,6,secured
screen,html.Screen,2_1_1_1_7,2021-04-24T14:54:04.390Z,,,,,,,,,,,,,,,,,54,,,,,,,,,,,,,,604.2659999875177,,response,,,,100,,,,,,,Space,keypress(Space),,,,,,,,-- --- ---- --- ------ ----- ------- much -- --- ------- --<br>------- ---------- ------ -- ----- -- ----- -- ---- ------<br>--- ----- --- --- ------ -------- ----- --- ------ ----- --<br>----- ----- ---------- --- --- ------ ------ ---- -- ------<br>------- --- ------ ----- --- ---- ------- -- ---- --- --<br>------- ------,182985.560000001,182984.72499998752,182363.869,182372.4199999706,182380.459,182996.851,,7,much
screen,html.Screen,2_1_1_1_8,2021-04-24T14:54:04.851Z,,,,,,,,,,,,,,,,,54,,,,,,,,,,,,,,448.8939999754366,,response,,,,100,,,,,,,Space,keypress(Space),,,,,,,,-- --- ---- --- ------ ----- ------- ---- of --- ------- --<br>------- ---------- ------ -- ----- -- ----- -- ---- ------<br>--- ----- --- --- ------ -------- ----- --- ------ ----- --<br>----- ----- ---------- --- --- ------ ------ ---- -- ------<br>------- --- ------ ----- --- ---- ------- -- ---- --- --<br>------- ------,183446.56000001123,183445.74499997543,182980.161,182985.71999999695,182996.851,183463.755,,8,of
screen,html.Screen,2_1_1_1_9,2021-04-24T14:54:05.272Z,,,,,,,,,,,,,,,,,54,,,,,,,,,,,,,,402.74999998358544,,response,,,,100,,,,,,,Space,keypress(Space),,,,,,,,-- --- ---- --- ------ ----- ------- ---- -- its ------- --<br>------- ---------- ------ -- ----- -- ----- -- ---- ------<br>--- ----- --- --- ------ -------- ----- --- ------ ----- --<br>----- ----- ---------- --- --- ------ ------ ---- -- ------<br>------- --- ------ ----- --- ---- ------- -- ---- --- --<br>------- ------,183867.44499998167,183866.5049999836,183447.031,183446.735000005,183463.755,183880.429,,9,its
screen,html.Screen,2_1_1_1_10,2021-04-24T14:54:05.738Z,,,,,,,,,,,,,,,,,54,,,,,,,,,,,,,,452.1009999560192,,response,,,,100,,,,,,,Space,keypress(Space),,,,,,,,-- --- ---- --- ------ ----- ------- ---- -- --- revenue --<br>------- ---------- ------ -- ----- -- ----- -- ---- ------<br>--- ----- --- --- ------ -------- ----- --- ------ ----- --<br>----- ----- ---------- --- --- ------ ------ ---- -- ------<br>------- --- ------ ----- --- ---- ------- -- ---- --- --<br>------- ------,184333.32499995595,184332.52999995602,183863.536,183867.6249999553,183880.429,184347.293,,10,revenue
screen,html.Screen,2_1_1_1_11,2021-04-24T14:54:06.190Z,,,,,,,,,,,,,,,,,54,,,,,,,,,,,,,,437.34699996892596,,response,,,,100,,,,,,,Space,keypress(Space),,,,,,,,-- --- ---- --- ------ ----- ------- ---- -- --- ------- by<br>------- ---------- ------ -- ----- -- ----- -- ---- ------<br>--- ----- --- --- ------ -------- ----- --- ------ ----- --<br>----- ----- ---------- --- --- ------ ------ ---- -- ------<br>------- --- ------ ----- --- ---- ------- -- ---- --- --<br>------- ------,184785.4449999868,184784.63999996893,184330.371,184333.4850000101,184347.293,184796.951,,11,by
screen,html.Screen,2_1_1_1_12,2021-04-24T14:54:06.653Z,,,,,,,,,,,,,,,,,54,,,,,,,,,,,,,,450.7989999804413,,response,,,,100,,,,,,,Space,keypress(Space),,,,,,,,-- --- ---- --- ------ ----- ------- ---- -- --- ------- --<br>issuing ---------- ------ -- ----- -- ----- -- ---- ------<br>--- ----- --- --- ------ -------- ----- --- ------ ----- --<br>----- ----- ---------- --- --- ------ ------ ---- -- ------<br>------- --- ------ ----- --- ---- ------- -- ---- --- --<br>------- ------,185248.65500000305,185247.74999998044,184780.428,184785.6150000007,184796.951,185263.779,,12,issuing
screen,html.Screen,2_1_1_1_13,2021-04-24T14:54:07.758Z,,,,,,,,,,,,,,,,,54,,,,,,,,,,,,,,1088.7560000127123,,response,,,,100,,,,,,,Space,keypress(Space),,,,,,,,-- --- ---- --- ------ ----- ------- ---- -- --- ------- --<br>------- government ------ -- ----- -- ----- -- ---- ------<br>--- ----- --- --- ------ -------- ----- --- ------ ----- --<br>----- ----- ---------- --- --- ------ ------ ---- -- ------<br>------- --- ------ ----- --- ---- ------- -- ---- --- --<br>------- ------,186353.37999998592,186352.53500001272,185247.034,185248.82999999681,185263.779,186363.943,,13,government
screen,html.Screen,2_1_1_1_14,2021-04-24T14:54:08.222Z,,,,,,,,,,,,,,,,,54,,,,,,,,,,,,,,452.69199999558623,,response,,,,100,,,,,,,Space,keypress(Space),,,,,,,,-- --- ---- --- ------ ----- ------- ---- -- --- ------- --<br>------- ---------- bonds. -- ----- -- ----- -- ---- ------<br>--- ----- --- --- ------ -------- ----- --- ------ ----- --<br>----- ----- ---------- --- --- ------ ------ ---- -- ------<br>------- --- ------ ----- --- ---- ------- -- ---- --- --<br>------- ------,186817.47999996878,186816.6349999956,186346.907,186353.5499999998,186363.943,186830.488,,14,bonds.
screen,html.Screen,2_1_1_1_15,2021-04-24T14:54:08.756Z,,,,,,,,,,,,,,,,,54,,,,,,,,,,,,,,519.8370000066934,,response,,,,100,,,,,,,Space,keypress(Space),,,,,,,,-- --- ---- --- ------ ----- ------- ---- -- --- ------- --<br>------- ---------- ------ In ----- -- ----- -- ---- ------<br>--- ----- --- --- ------ -------- ----- --- ------ ----- --<br>----- ----- ---------- --- --- ------ ------ ---- -- ------<br>------- --- ------ ----- --- ---- ------- -- ---- --- --<br>------- ------,187351.15999996196,187350.3250000067,186813.543,186817.64999998268,186830.488,187363.532,,15,In
screen,html.Screen,2_1_1_1_16,2021-04-24T14:54:09.216Z,,,,,,,,,,,,,,,,,54,,,,,,,,,,,,,,446.62299995555077,,response,,,,100,,,,,,,Space,keypress(Space),,,,,,,,"-- --- ---- --- ------ ----- ------- ---- -- --- ------- --<br>------- ---------- ------ -- 1727, -- ----- -- ---- ------<br>--- ----- --- --- ------ -------- ----- --- ------ ----- --<br>----- ----- ---------- --- --- ------ ------ ---- -- ------<br>------- --- ------ ----- --- ---- ------- -- ---- --- --<br>------- ------",187810.91999995988,187810.15499995556,187346.87,187351.26999998465,187363.532,187813.555,,16,"1727,"
screen,html.Screen,2_1_1_1_17,2021-04-24T14:54:09.701Z,,,,,,,,,,,,,,,,,54,,,,,,,,,,,,,,481.57499998406274,,response,,,,100,,,,,,,Space,keypress(Space),,,,,,,,-- --- ---- --- ------ ----- ------- ---- -- --- ------- --<br>------- ---------- ------ -- ----- in ----- -- ---- ------<br>--- ----- --- --- ------ -------- ----- --- ------ ----- --<br>----- ----- ---------- --- --- ------ ------ ---- -- ------<br>------- --- ------ ----- --- ---- ------- -- ---- --- --<br>------- ------,188295.9050000063,188295.12999998406,187796.869,187811.10499997158,187813.555,188318.914,,17,in
screen,html.Screen,2_1_1_1_18,2021-04-24T14:54:10.178Z,,,,,,,,,,,,,,,,,54,,,,,,,,,,,,,,453.7959999901941,,response,,,,100,,,,,,,Space,keypress(Space),,,,,,,,-- --- ---- --- ------ ----- ------- ---- -- --- ------- --<br>------- ---------- ------ -- ----- -- order -- ---- ------<br>--- ----- --- --- ------ -------- ----- --- ------ ----- --<br>----- ----- ---------- --- --- ------ ------ ---- -- ------<br>------- --- ------ ----- --- ---- ------- -- ---- --- --<br>------- ------,188773.5349999857,188772.70999999018,188280.436,188296.12999997335,188318.914,188780.325,,18,order
screen,html.Screen,2_1_1_1_19,2021-04-24T14:54:10.664Z,,,,,,,,,,,,,,,,,54,,,,,,,,,,,,,,478.1499999805237,,response,,,,100,,,,,,,Space,keypress(Space),,,,,,,,-- --- ---- --- ------ ----- ------- ---- -- --- ------- --<br>------- ---------- ------ -- ----- -- ----- to ---- ------<br>--- ----- --- --- ------ -------- ----- --- ------ ----- --<br>----- ----- ---------- --- --- ------ ------ ---- -- ------<br>------- --- ------ ----- --- ---- ------- -- ---- --- --<br>------- ------,189259.28499997826,189258.47499998054,188763.715,188773.69999996154,188780.325,189263.484,,19,to
screen,html.Screen,2_1_1_1_20,2021-04-24T14:54:11.175Z,,,,,,,,,,,,,,,,,54,,,,,,,,,,,,,,505.760999974038,,response,,,,100,,,,,,,Space,keypress(Space),,,,,,,,-- --- ---- --- ------ ----- ------- ---- -- --- ------- --<br>------- ---------- ------ -- ----- -- ----- -- save ------<br>--- ----- --- --- ------ -------- ----- --- ------ ----- --<br>----- ----- ---------- --- --- ------ ------ ---- -- ------<br>------- --- ------ ----- --- ---- ------- -- ---- --- --<br>------- ------,189770.0949999853,189769.24499997403,189246.881,189259.46999998996,189263.484,189780.493,,20,save
screen,html.Screen,2_1_1_1_21,2021-04-24T14:54:11.663Z,,,,,,,,,,,,,,,,,54,,,,,,,,,,,,,,476.82199999529985,,response,,,,100,,,,,,,Space,keypress(Space),,,,,,,,"-- --- ---- --- ------ ----- ------- ---- -- --- ------- --<br>------- ---------- ------ -- ----- -- ----- -- ---- money,<br>--- ----- --- --- ------ -------- ----- --- ------ ----- --<br>----- ----- ---------- --- --- ------ ------ ---- -- ------<br>------- --- ------ ----- --- ---- ------- -- ---- --- --<br>------- ------",190258.15999996848,190257.3149999953,189763.729,189770.279999997,189780.493,190263.527,,21,"money,"
screen,html.Screen,2_1_1_1_22,2021-04-24T14:54:12.123Z,,,,,,,,,,,,,,,,,54,,,,,,,,,,,,,,454.0579999766778,,response,,,,100,,,,,,,Space,keypress(Space),,,,,,,,-- --- ---- --- ------ ----- ------- ---- -- --- ------- --<br>------- ---------- ------ -- ----- -- ----- -- ---- ------<br>the ----- --- --- ------ -------- ----- --- ------ ----- --<br>----- ----- ---------- --- --- ------ ------ ---- -- ------<br>------- --- ------ ----- --- ---- ------- -- ---- --- --<br>------- ------,190718.57500000624,190717.58499997668,190247.084,190258.32999998238,190263.527,190730.502,,22,the
screen,html.Screen,2_1_1_1_23,2021-04-24T14:54:12.569Z,,,,,,,,,,,,,,,,,54,,,,,,,,,,,,,,432.79299997663475,,response,,,,100,,,,,,,Space,keypress(Space),,,,,,,,-- --- ---- --- ------ ----- ------- ---- -- --- ------- --<br>------- ---------- ------ -- ----- -- ----- -- ---- ------<br>--- state --- --- ------ -------- ----- --- ------ ----- --<br>----- ----- ---------- --- --- ------ ------ ---- -- ------<br>------- --- ------ ----- --- ---- ------- -- ---- --- --<br>------- ------,191164.1599999857,191163.29499997664,190713.742,190718.75999995973,190730.502,191180.43,,23,state
screen,html.Screen,2_1_1_1_24,2021-04-24T14:54:12.969Z,,,,,,,,,,,,,,,,,54,,,,,,,,,,,,,,383.48500000609783,,response,,,,100,,,,,,,Space,keypress(Space),,,,,,,,-- --- ---- --- ------ ----- ------- ---- -- --- ------- --<br>------- ---------- ------ -- ----- -- ----- -- ---- ------<br>--- ----- cut --- ------ -------- ----- --- ------ ----- --<br>----- ----- ---------- --- --- ------ ------ ---- -- ------<br>------- --- ------ ----- --- ---- ------- -- ---- --- --<br>------- ------,191564.72500000382,191563.9150000061,191163.891,191164.3299999996,191180.43,191580.441,,24,cut
screen,html.Screen,2_1_1_1_25,2021-04-24T14:54:13.409Z,,,,,,,,,,,,,,,,,54,,,,,,,,,,,,,,423.2539999630535,,response,,,,100,,,,,,,Space,keypress(Space),,,,,,,,-- --- ---- --- ------ ----- ------- ---- -- --- ------- --<br>------- ---------- ------ -- ----- -- ----- -- ---- ------<br>--- ----- --- the ------ -------- ----- --- ------ ----- --<br>----- ----- ---------- --- --- ------ ------ ---- -- ------<br>------- --- ------ ----- --- ---- ------- -- ---- --- --<br>------- ------,192004.5299999765,192003.69499996305,191563.917,191564.88999997964,191580.441,192013.993,,25,the
screen,html.Screen,2_1_1_1_26,2021-04-24T14:54:13.811Z,,,,,,,,,,,,,,,,,54,,,,,,,,,,,,,,391.48199997775373,,response,,,,100,,,,,,,Space,keypress(Space),,,,,,,,-- --- ---- --- ------ ----- ------- ---- -- --- ------- --<br>------- ---------- ------ -- ----- -- ----- -- ---- ------<br>--- ----- --- --- bonds' -------- ----- --- ------ ----- --<br>----- ----- ---------- --- --- ------ ------ ---- -- ------<br>------- --- ------ ----- --- ---- ------- -- ---- --- --<br>------- ------,192406.4199999557,192405.47499997774,191996.85,192004.71000000834,192013.993,192413.559,,26,bonds'
screen,html.Screen,2_1_1_1_27,2021-04-24T14:54:14.280Z,,,,,,,,,,,,,,,,,54,,,,,,,,,,,,,,460.4609999883687,,response,,,,100,,,,,,,Space,keypress(Space),,,,,,,,-- --- ---- --- ------ ----- ------- ---- -- --- ------- --<br>------- ---------- ------ -- ----- -- ----- -- ---- ------<br>--- ----- --- --- ------ interest ----- --- ------ ----- --<br>----- ----- ---------- --- --- ------ ------ ---- -- ------<br>------- --- ------ ----- --- ---- ------- -- ---- --- --<br>------- ------,192874.86499996157,192874.01999998838,192397.224,192406.58499998972,192413.559,192880.184,,27,interest
screen,html.Screen,2_1_1_1_28,2021-04-24T14:54:14.681Z,,,,,,,,,,,,,,,,,54,,,,,,,,,,,,,,395.4759999847738,,response,,,,100,,,,,,,Space,keypress(Space),,,,,,,,-- --- ---- --- ------ ----- ------- ---- -- --- ------- --<br>------- ---------- ------ -- ----- -- ----- -- ---- ------<br>--- ----- --- --- ------ -------- rate. --- ------ ----- --<br>----- ----- ---------- --- --- ------ ------ ---- -- ------<br>------- --- ------ ----- --- ---- ------- -- ---- --- --<br>------- ------,193276.48999996018,193275.65999998478,192863.797,192875.03999995533,192880.184,193280.188,,28,rate.
screen,html.Screen,2_1_1_1_29,2021-04-24T14:54:15.122Z,,,,,,,,,,,,,,,,,54,,,,,,,,,,,,,,435.8369999724382,,response,,,,100,,,,,,,Space,keypress(Space),,,,,,,,-- --- ---- --- ------ ----- ------- ---- -- --- ------- --<br>------- ---------- ------ -- ----- -- ----- -- ---- ------<br>--- ----- --- --- ------ -------- ----- The ------ ----- --<br>----- ----- ---------- --- --- ------ ------ ---- -- ------<br>------- --- ------ ----- --- ---- ------- -- ---- --- --<br>------- ------,193716.9049999793,193716.02499997243,193263.766,193276.68999996968,193280.188,193730.281,,29,The
screen,html.Screen,2_1_1_1_30,2021-04-24T14:54:15.579Z,,,,,,,,,,,,,,,,,54,,,,,,,,,,,,,,443.26900000681053,,response,,,,100,,,,,,,Space,keypress(Space),,,,,,,,-- --- ---- --- ------ ----- ------- ---- -- --- ------- --<br>------- ---------- ------ -- ----- -- ----- -- ---- ------<br>--- ----- --- --- ------ -------- ----- --- market ----- --<br>----- ----- ---------- --- --- ------ ------ ---- -- ------<br>------- --- ------ ----- --- ---- ------- -- ---- --- --<br>------- ------,194174.43499999354,194173.5500000068,193713.773,193717.06499997526,193730.281,194180.272,,30,market
screen,html.Screen,2_1_1_1_31,2021-04-24T14:54:16.050Z,,,,,,,,,,,,,,,,,54,,,,,,,,,,,,,,464.40799996850546,,response,,,,100,,,,,,,Space,keypress(Space),,,,,,,,-- --- ---- --- ------ ----- ------- ---- -- --- ------- --<br>------- ---------- ------ -- ----- -- ----- -- ---- ------<br>--- ----- --- --- ------ -------- ----- --- ------ value --<br>----- ----- ---------- --- --- ------ ------ ---- -- ------<br>------- --- ------ ----- --- ---- ------- -- ---- --- --<br>------- ------,194645.5100000021,194644.6799999685,194164.029,194174.59999996936,194180.272,194673.963,,31,value
screen,html.Screen,2_1_1_1_32,2021-04-24T14:54:16.614Z,,,,,,,,,,,,,,,,,54,,,,,,,,,,,,,,534.1519999867305,,response,,,,100,,,,,,,Space,keypress(Space),,,,,,,,-- --- ---- --- ------ ----- ------- ---- -- --- ------- --<br>------- ---------- ------ -- ----- -- ----- -- ---- ------<br>--- ----- --- --- ------ -------- ----- --- ------ ----- of<br>----- ----- ---------- --- --- ------ ------ ---- -- ------<br>------- --- ------ ----- --- ---- ------- -- ---- --- --<br>------- ------,195208.9500000002,195208.11499998672,194630.472,194645.66999999806,194673.963,195213.514,,32,of
screen,html.Screen,2_1_1_1_33,2021-04-24T14:54:17.043Z,,,,,,,,,,,,,,,,,54,,,,,,,,,,,,,,424.1559999673336,,response,,,,100,,,,,,,Space,keypress(Space),,,,,,,,-- --- ---- --- ------ ----- ------- ---- -- --- ------- --<br>------- ---------- ------ -- ----- -- ----- -- ---- ------<br>--- ----- --- --- ------ -------- ----- --- ------ ----- --<br>these ----- ---------- --- --- ------ ------ ---- -- ------<br>------- --- ------ ----- --- ---- ------- -- ---- --- --<br>------- ------,195638.55500001227,195637.66999996733,195197.092,195209.114999976,195213.514,195647.365,,33,these
screen,html.Screen,2_1_1_1_34,2021-04-24T14:54:17.431Z,,,,,,,,,,,,,,,,,54,,,,,,,,,,,,,,377.6849999965634,,response,,,,100,,,,,,,Space,keypress(Space),,,,,,,,-- --- ---- --- ------ ----- ------- ---- -- --- ------- --<br>------- ---------- ------ -- ----- -- ----- -- ---- ------<br>--- ----- --- --- ------ -------- ----- --- ------ ----- --<br>----- bonds ---------- --- --- ------ ------ ---- -- ------<br>------- --- ------ ----- --- ---- ------- -- ---- --- --<br>------- ------,196025.87999997195,196025.04999999655,195630.246,195638.7199999881,195647.365,196030.209,,34,bonds
screen,html.Screen,2_1_1_1_35,2021-04-24T14:54:17.842Z,,,,,,,,,,,,,,,,,54,,,,,,,,,,,,,,406.6059999645513,,response,,,,100,,,,,,,Space,keypress(Space),,,,,,,,"-- --- ---- --- ------ ----- ------- ---- -- --- ------- --<br>------- ---------- ------ -- ----- -- ----- -- ---- ------<br>--- ----- --- --- ------ -------- ----- --- ------ ----- --<br>----- ----- plummeted, --- --- ------ ------ ---- -- ------<br>------- --- ------ ----- --- ---- ------- -- ---- --- --<br>------- ------",196437.60000000475,196436.81499996455,196013.818,196026.06000000378,196030.209,196447.182,,35,"plummeted,"
screen,html.Screen,2_1_1_1_36,2021-04-24T14:54:18.452Z,,,,,,,,,,,,,,,,,54,,,,,,,,,,,,,,599.5330000040412,,response,,,,100,,,,,,,Space,keypress(Space),,,,,,,,-- --- ---- --- ------ ----- ------- ---- -- --- ------- --<br>------- ---------- ------ -- ----- -- ----- -- ---- ------<br>--- ----- --- --- ------ -------- ----- --- ------ ----- --<br>----- ----- ---------- and --- ------ ------ ---- -- ------<br>------- --- ------ ----- --- ---- ------- -- ---- --- --<br>------- ------,197047.66499996185,197046.71500000404,196430.443,196437.7600000007,196447.182,197063.592,,36,and
screen,html.Screen,2_1_1_1_37,2021-04-24T14:54:18.867Z,,,,,,,,,,,,,,,,,54,,,,,,,,,,,,,,397.6579999930109,,response,,,,100,,,,,,,Space,keypress(Space),,,,,,,,-- --- ---- --- ------ ----- ------- ---- -- --- ------- --<br>------- ---------- ------ -- ----- -- ----- -- ---- ------<br>--- ----- --- --- ------ -------- ----- --- ------ ----- --<br>----- ----- ---------- --- the ------ ------ ---- -- ------<br>------- --- ------ ----- --- ---- ------- -- ---- --- --<br>------- ------,197462.03999995487,197461.24999999302,197047.105,197047.8399999556,197063.592,197492.972,,37,the
screen,html.Screen,2_1_1_1_38,2021-04-24T14:54:19.210Z,,,,,,,,,,,,,,,,,54,,,,,,,,,,,,,,311.69799998315284,,response,,,,100,,,,,,,Space,keypress(Space),,,,,,,,-- --- ---- --- ------ ----- ------- ---- -- --- ------- --<br>------- ---------- ------ -- ----- -- ----- -- ---- ------<br>--- ----- --- --- ------ -------- ----- --- ------ ----- --<br>----- ----- ---------- --- --- market ------ ---- -- ------<br>------- --- ------ ----- --- ---- ------- -- ---- --- --<br>------- ------,197805.59499998344,197804.66999998316,197446.915,197462.23999996437,197492.972,197814.031,,38,market
screen,html.Screen,2_1_1_1_39,2021-04-24T14:54:19.563Z,,,,,,,,,,,,,,,,,54,,,,,,,,,,,,,,343.55399997901986,,response,,,,100,,,,,,,Space,keypress(Space),,,,,,,,-- --- ---- --- ------ ----- ------- ---- -- --- ------- --<br>------- ---------- ------ -- ----- -- ----- -- ---- ------<br>--- ----- --- --- ------ -------- ----- --- ------ ----- --<br>----- ----- ---------- --- --- ------ became ---- -- ------<br>------- --- ------ ----- --- ---- ------- -- ---- --- --<br>------- ------,198158.3849999588,198157.584999979,197797.119,197805.7549999794,197814.031,198163.696,,39,became
screen,html.Screen,2_1_1_1_40,2021-04-24T14:54:19.915Z,,,,,,,,,,,,,,,,,54,,,,,,,,,,,,,,346.14399995515123,,response,,,,100,,,,,,,Space,keypress(Space),,,,,,,,-- --- ---- --- ------ ----- ------- ---- -- --- ------- --<br>------- ---------- ------ -- ----- -- ----- -- ---- ------<br>--- ----- --- --- ------ -------- ----- --- ------ ----- --<br>----- ----- ---------- --- --- ------ ------ wary -- ------<br>------- --- ------ ----- --- ---- ------- -- ---- --- --<br>------- ------,198510.69999998435,198509.83999995515,198146.913,198158.5699999705,198163.696,198513.599,,40,wary
screen,html.Screen,2_1_1_1_41,2021-04-24T14:54:20.273Z,,,,,,,,,,,,,,,,,54,,,,,,,,,,,,,,353.99599995970493,,response,,,,100,,,,,,,Space,keypress(Space),,,,,,,,-- --- ---- --- ------ ----- ------- ---- -- --- ------- --<br>------- ---------- ------ -- ----- -- ----- -- ---- ------<br>--- ----- --- --- ------ -------- ----- --- ------ ----- --<br>----- ----- ---------- --- --- ------ ------ ---- of ------<br>------- --- ------ ----- --- ---- ------- -- ---- --- --<br>------- ------,198868.4249999933,198867.5949999597,198496.966,198510.86499996018,198513.599,198880.577,,41,of
screen,html.Screen,2_1_1_1_42,2021-04-24T14:54:20.651Z,,,,,,,,,,,,,,,,,54,,,,,,,,,,,,,,365.3030000022263,,response,,,,100,,,,,,,Space,keypress(Space),,,,,,,,-- --- ---- --- ------ ----- ------- ---- -- --- ------- --<br>------- ---------- ------ -- ----- -- ----- -- ---- ------<br>--- ----- --- --- ------ -------- ----- --- ------ ----- --<br>----- ----- ---------- --- --- ------ ------ ---- -- French<br>------- --- ------ ----- --- ---- ------- -- ---- --- --<br>------- ------,199246.68499996187,199245.88000000222,198863.599,198868.58999996912,198880.577,199263.693,,42,French
screen,html.Screen,2_1_1_1_43,2021-04-24T14:54:21.003Z,,,,,,,,,,,,,,,,,54,,,,,,,,,,,,,,334.036999979493,,response,,,,100,,,,,,,Space,keypress(Space),,,,,,,,-- --- ---- --- ------ ----- ------- ---- -- --- ------- --<br>------- ---------- ------ -- ----- -- ----- -- ---- ------<br>--- ----- --- --- ------ -------- ----- --- ------ ----- --<br>----- ----- ---------- --- --- ------ ------ ---- -- ------<br>credit. --- ------ ----- --- ---- ------- -- ---- --- --<br>------- ------,199598.67499995744,199597.7299999795,199247.293,199246.94499996258,199263.693,199613.708,,43,credit.
screen,html.Screen,2_1_1_1_44,2021-04-24T14:54:21.319Z,,,,,,,,,,,,,,,,,54,,,,,,,,,,,,,,299.556999981025,,response,,,,100,,,,,,,Space,keypress(Space),,,,,,,,-- --- ---- --- ------ ----- ------- ---- -- --- ------- --<br>------- ---------- ------ -- ----- -- ----- -- ---- ------<br>--- ----- --- --- ------ -------- ----- --- ------ ----- --<br>----- ----- ---------- --- --- ------ ------ ---- -- ------<br>------- The ------ ----- --- ---- ------- -- ---- --- --<br>------- ------,199914.2550000106,199913.26499998104,199597.117,199598.8500000094,199613.708,199930.543,,44,The
screen,html.Screen,2_1_1_1_45,2021-04-24T14:54:21.633Z,,,,,,,,,,,,,,,,,54,,,,,,,,,,,,,,296.6519999849261,,response,,,,100,,,,,,,Space,keypress(Space),,,,,,,,-- --- ---- --- ------ ----- ------- ---- -- --- ------- --<br>------- ---------- ------ -- ----- -- ----- -- ---- ------<br>--- ----- --- --- ------ -------- ----- --- ------ ----- --<br>----- ----- ---------- --- --- ------ ------ ---- -- ------<br>------- --- French ----- --- ---- ------- -- ---- --- --<br>------- ------,200228.0449999962,200227.19499998493,199913.644,199914.4399999641,199930.543,200230.216,,45,French
screen,html.Screen,2_1_1_1_46,2021-04-24T14:54:21.927Z,,,,,,,,,,,,,,,,,54,,,,,,,,,,,,,,290.6939999629103,,response,,,,100,,,,,,,Space,keypress(Space),,,,,,,,-- --- ---- --- ------ ----- ------- ---- -- --- ------- --<br>------- ---------- ------ -- ----- -- ----- -- ---- ------<br>--- ----- --- --- ------ -------- ----- --- ------ ----- --<br>----- ----- ---------- --- --- ------ ------ ---- -- ------<br>------- --- ------ state --- ---- ------- -- ---- --- --<br>------- ------,200521.83499996318,200520.9099999629,200213.644,200228.20499999216,200230.216,200530.607,,46,state
screen,html.Screen,2_1_1_1_47,2021-04-24T14:54:22.257Z,,,,,,,,,,,,,,,,,54,,,,,,,,,,,,,,321.2429999772867,,response,,,,100,,,,,,,Space,keypress(Space),,,,,,,,-- --- ---- --- ------ ----- ------- ---- -- --- ------- --<br>------- ---------- ------ -- ----- -- ----- -- ---- ------<br>--- ----- --- --- ------ -------- ----- --- ------ ----- --<br>----- ----- ---------- --- --- ------ ------ ---- -- ------<br>------- --- ------ ----- was ---- ------- -- ---- --- --<br>------- ------,200852.72500000428,200851.84999997728,200513.805,200522.014999995,200530.607,200864.045,,47,was
screen,html.Screen,2_1_1_1_48,2021-04-24T14:54:22.719Z,,,,,,,,,,,,,,,,,54,,,,,,,,,,,,,,449.4399999914749,,response,,,,100,,,,,,,Space,keypress(Space),,,,,,,,-- --- ---- --- ------ ----- ------- ---- -- --- ------- --<br>------- ---------- ------ -- ----- -- ----- -- ---- ------<br>--- ----- --- --- ------ -------- ----- --- ------ ----- --<br>----- ----- ---------- --- --- ------ ------ ---- -- ------<br>------- --- ------ ----- --- left ------- -- ---- --- --<br>------- ------,201314.44499996724,201313.4849999915,200847.311,200852.89499995997,200864.045,201330.561,,48,left
screen,html.Screen,2_1_1_1_49,2021-04-24T14:54:23.092Z,,,,,,,,,,,,,,,,,54,,,,,,,,,,,,,,355.6589999741409,,response,,,,100,,,,,,,Space,keypress(Space),,,,,,,,-- --- ---- --- ------ ----- ------- ---- -- --- ------- --<br>------- ---------- ------ -- ----- -- ----- -- ---- ------<br>--- ----- --- --- ------ -------- ----- --- ------ ----- --<br>----- ----- ---------- --- --- ------ ------ ---- -- ------<br>------- --- ------ ----- --- ---- without -- ---- --- --<br>------- ------,201687.1299999766,201686.21999997413,201313.624,201314.61000000127,201330.561,201697.38,,49,without
screen,html.Screen,2_1_1_1_50,2021-04-24T14:54:23.464Z,,,,,,,,,,,,,,,,,54,,,,,,,,,,,,,,360.8599999839207,,response,,,,100,,,,,,,Space,keypress(Space),,,,,,,,-- --- ---- --- ------ ----- ------- ---- -- --- ------- --<br>------- ---------- ------ -- ----- -- ----- -- ---- ------<br>--- ----- --- --- ------ -------- ----- --- ------ ----- --<br>----- ----- ---------- --- --- ------ ------ ---- -- ------<br>------- --- ------ ----- --- ---- ------- an ---- --- --<br>------- ------,202059.04999998165,202058.23999998393,201680.314,201687.3149999883,201697.38,202063.576,,50,an
screen,html.Screen,2_1_1_1_51,2021-04-24T14:54:23.871Z,,,,,,,,,,,,,,,,,54,,,,,,,,,,,,,,402.1889999717241,,response,,,,100,,,,,,,Space,keypress(Space),,,,,,,,-- --- ---- --- ------ ----- ------- ---- -- --- ------- --<br>------- ---------- ------ -- ----- -- ----- -- ---- ------<br>--- ----- --- --- ------ -------- ----- --- ------ ----- --<br>----- ----- ---------- --- --- ------ ------ ---- -- ------<br>------- --- ------ ----- --- ---- ------- -- easy --- --<br>------- ------,202466.6749999742,202465.76499997173,202047.223,202059.25499997102,202063.576,202480.601,,51,easy
screen,html.Screen,2_1_1_1_52,2021-04-24T14:54:24.247Z,,,,,,,,,,,,,,,,,54,,,,,,,,,,,,,,360.8940000005823,,response,,,,100,,,,,,,Space,keypress(Space),,,,,,,,-- --- ---- --- ------ ----- ------- ---- -- --- ------- --<br>------- ---------- ------ -- ----- -- ----- -- ---- ------<br>--- ----- --- --- ------ -------- ----- --- ------ ----- --<br>----- ----- ---------- --- --- ------ ------ ---- -- ------<br>------- --- ------ ----- --- ---- ------- -- ---- way --<br>------- ------,202842.24999998696,202841.49500000058,202463.579,202466.8599999859,202480.601,202846.915,,52,way
screen,html.Screen,2_1_1_1_53,2021-04-24T14:54:24.660Z,,,,,,,,,,,,,,,,,54,,,,,,,,,,,,,,407.9299999885552,,response,,,,100,,,,,,,Space,keypress(Space),,,,,,,,-- --- ---- --- ------ ----- ------- ---- -- --- ------- --<br>------- ---------- ------ -- ----- -- ----- -- ---- ------<br>--- ----- --- --- ------ -------- ----- --- ------ ----- --<br>----- ----- ---------- --- --- ------ ------ ---- -- ------<br>------- --- ------ ----- --- ---- ------- -- ---- --- of<br>------- ------,203255.70499995956,203254.84499998856,202830.33,202842.4299999606,202846.915,203263.889,,53,of
screen,html.Screen,2_1_1_1_54,2021-04-24T14:54:25.156Z,,,,,,,,,,,,,,,,,54,,,,,,,,,,,,,,487.02599998234655,,response,,,,100,,,,,,,Space,keypress(Space),,,,,,,,-- --- ---- --- ------ ----- ------- ---- -- --- ------- --<br>------- ---------- ------ -- ----- -- ----- -- ---- ------<br>--- ----- --- --- ------ -------- ----- --- ------ ----- --<br>----- ----- ---------- --- --- ------ ------ ---- -- ------<br>------- --- ------ ----- --- ---- ------- -- ---- --- --<br>raising ------,203751.7050000024,203750.91499998234,203247.152,203255.89500000933,203263.889,203763.875,,54,raising
screen,html.Screen,2_1_1_1_55,2021-04-24T14:54:25.999Z,,,,,,,,,,,,,,,,,54,,,,,,,,,,,,,,829.7949999729171,,response,,,,100,,,,,,,Space,keypress(Space),,,,,,,,-- --- ---- --- ------ ----- ------- ---- -- --- ------- --<br>------- ---------- ------ -- ----- -- ----- -- ---- ------<br>--- ----- --- --- ------ -------- ----- --- ------ ----- --<br>----- ----- ---------- --- --- ------ ------ ---- -- ------<br>------- --- ------ ----- --- ---- ------- -- ---- --- --<br>------- money.,204594.47499999078,204593.66999997292,203747.406,203751.8749999581,203763.875,204596.927,,55,money.
Item 100,flow.Loop,2_1_1_1,2021-04-24T14:54:25.999Z,,,,,,,,,,,,,,,,,,,,,,,,,,,,,,,26779.71499997293,,completion,,,,,C,,,,,,,,,,,silence,,,,,204594.75499996915,204593.66999997292,177797.005,177798.2600000105,177813.955,204596.927,,,
Question 1,html.Screen,2_1_1_2,2021-04-24T14:54:29.577Z,,,,,,,,,,,,,,,,,,,,,,,,,,,,true,TRUE,,3574.46800001213,,response,,,,100,C,,,,,,TRUE,click #choice-1,,,,silence,,,,,208172.69999999553,208171.39500001213,204580.768,204594.87999998964,204596.927,208180.402,,,
Question 2,html.Screen,2_1_1_3,2021-04-24T14:54:33.973Z,,,,,,,,,,,,,,,,,,,,,,,,,,,,true,FALSE,,4386.518000012031,,response,,,,100,C,,,,,,FALSE,click #choice-2,,,,silence,,,,,212568.20999999763,212566.92000001203,208163.961,208172.89499996696,208180.402,212580.503,,,
Item 100,flow.Sequence,2_1_1,2021-04-24T14:54:33.974Z,,,,,,,,,,,,,,,,,,,,,,,,,,,,,,,44753.50600001204,,completion,,,,,,,,,,,,,,,,,,,,,212568.67999996757,212566.92000001203,167797.085,167813.80999996327,167813.414,212580.503,,,
End of Practice,html.Page,2_1_2,2021-04-24T14:54:39.714Z,,,,,,,,,,,,,,,,,,,,,,,,,,,,,,,5727.847000006615,,form submission,,,,,,,,,,,,,,,,,,,,,218308.83499997435,218308.3500000066,212563.722,212568.80499998806,212580.503,218313.7,,,
Practice,flow.Sequence,2_1,2021-04-24T14:54:39.714Z,,,,,,,,,,,,,,,,,,,,,,,,,,,,,,,106728.68700000661,,completion,,,,,,,,,,,,,,,,,,,,,218309.0899999952,218308.3500000066,111563.103,111561.04499998037,111579.663,218313.7,,,
Trap_instruction,html.Page,2_2_0,2021-04-24T14:54:41.214Z,,,,,,,,,,,,,,,,,,,,,,,,,,,,,,,1494.8299999802257,,form submission,,,,,,,,,,,,,,,,,,,,,219809.0450000018,219808.52999998024,218297.135,218309.2450000113,218313.7,219813.726,,,
trap_trial,html.Screen,2_2_1,2021-04-24T14:54:44.786Z,,,,,,,,,,,,,,,,,,,,,,,,,,,,true,1,,3565.228999963758,,response,,,,,,,,,,,1,click #choice-1,,,,,,,,,223380.2849999629,223378.95499996375,219797.42,219809.20499999775,219813.726,223410.192,,,
end of trap trial,html.Page,2_2_2,2021-04-24T14:54:47.147Z,,,,,,,,,,,,,,,,,,,,,,,,,,,,,,,2330.6430000041437,,form submission,,,,,,,,,,,,,,,,,,,,,225741.44499999238,225740.83500000415,223364.15,223380.514999968,223410.192,225747.135,,,
Trap 1,flow.Sequence,2_2,2021-04-24T14:54:47.147Z,,,,,,,,,,,,,,,,,,,,,,,,,,,,,,,7427.135000004142,,completion,,,,,,,,,,,,,,,,,,,,,225741.7799999821,225740.83500000415,218297.135,218309.20499999775,218313.7,225747.135,,,
Standby,html.Page,2_3_0,2021-04-24T14:54:55.137Z,,,,,,,,,,,,,,,,,,,,,,,,,,,,,,,8000.399000000005,,timeout,,,,,,,,,,,,,,,,,,,,,233731.6099999589,233730.515,225730.737,225741.99000000954,225747.135,233747.534,,,
Holding screen,html.Screen,2_3_1_0_0,2021-04-24T14:55:02.137Z,,,,,,,,,,,,,,,,,,,,,,,,,,,,,,,7000.084999999992,,timeout,,,,,,,,,,,,,,,,,,,,,240731.94999998668,240730.884,233730.515,233732.0849999669,233747.534,240747.619,,,
screen,html.Screen,2_3_1_0_1_0,2021-04-24T14:55:03.885Z,,,,,,,,,,,,,,,,,2,,,,,,,,,,,,,,1731.3259999807342,,response,,,,1,C,,,,,,Space,keypress(Space),,,,instrumental,,,,Two ---- ------ --- ------- ---------- ------- ----------<br>--- --------- --- ----------- ------- ----- ------- ---<br>--------- ---- -- --- ---- -- --------- -- ---- -------<br>-- --------- ------ --- ----- ------ ---- --- --------- --<br>------ - ---- -- --- ----------- ------- ---- ----- -----<br>--- -------- - ------ ---- -- ----- ---- --- --- -----------<br>-- -------,242479.82000000775,242478.94499998074,240730.884,240732.20500000753,240747.619,242513.949,,0,Two
screen,html.Screen,2_3_1_0_1_1,2021-04-24T14:55:04.376Z,,,,,,,,,,,,,,,,,2,,,,,,,,,,,,,,455.87099999844213,,response,,,,1,C,,,,,,Space,keypress(Space),,,,instrumental,,,,--- days ------ --- ------- ---------- ------- ----------<br>--- --------- --- ----------- ------- ----- ------- ---<br>--------- ---- -- --- ---- -- --------- -- ---- -------<br>-- --------- ------ --- ----- ------ ---- --- --------- --<br>------ - ---- -- --- ----------- ------- ---- ----- -----<br>--- -------- - ------ ---- -- ----- ---- --- --- -----------<br>-- -------,242970.6700000097,242969.81999999844,242510.586,242480.00499996124,242513.949,242981.037,,1,days
screen,html.Screen,2_3_1_0_1_2,2021-04-24T14:55:04.855Z,,,,,,,,,,,,,,,,,2,,,,,,,,,,,,,,467.98799997987226,,response,,,,1,C,,,,,,Space,keypress(Space),,,,instrumental,,,,"--- ---- later, --- ------- ---------- ------- ----------<br>--- --------- --- ----------- ------- ----- ------- ---<br>--------- ---- -- --- ---- -- --------- -- ---- -------<br>-- --------- ------ --- ----- ------ ---- --- --------- --<br>------ - ---- -- --- ----------- ------- ---- ----- -----<br>--- -------- - ------ ---- -- ----- ---- --- --- -----------<br>-- -------",243449.85999999335,243449.02499997988,242964.08,242970.83000000566,242981.037,243464.22,,2,"later,"
screen,html.Screen,2_3_1_0_1_3,2021-04-24T14:55:05.375Z,,,,,,,,,,,,,,,,,2,,,,,,,,,,,,,,504.449999972916,,response,,,,1,C,,,,,,Space,keypress(Space),,,,instrumental,,,,--- ---- ------ the ------- ---------- ------- ----------<br>--- --------- --- ----------- ------- ----- ------- ---<br>--------- ---- -- --- ---- -- --------- -- ---- -------<br>-- --------- ------ --- ----- ------ ---- --- --------- --<br>------ - ---- -- --- ----------- ------- ---- ----- -----<br>--- -------- - ------ ---- -- ----- ---- --- --- -----------<br>-- -------,243969.53000000212,243968.66999997292,243447.228,243450.0199999893,243464.22,243981.021,,3,the
screen,html.Screen,2_3_1_0_1_4,2021-04-24T14:55:05.909Z,,,,,,,,,,,,,,,,,2,,,,,,,,,,,,,,522.2689999641734,,response,,,,1,C,,,,,,Space,keypress(Space),,,,instrumental,,,,--- ---- ------ --- British ---------- ------- ----------<br>--- --------- --- ----------- ------- ----- ------- ---<br>--------- ---- -- --- ---- -- --------- -- ---- -------<br>-- --------- ------ --- ----- ------ ---- --- --------- --<br>------ - ---- -- --- ----------- ------- ---- ----- -----<br>--- -------- - ------ ---- -- ----- ---- --- --- -----------<br>-- -------,244504.12499997765,244503.28999996418,243964.171,243969.7199999937,243981.021,244514.215,,4,British
screen,html.Screen,2_3_1_0_1_5,2021-04-24T14:55:06.439Z,,,,,,,,,,,,,,,,,2,,,,,,,,,,,,,,518.8999999983644,,response,,,,1,C,,,,,,Space,keypress(Space),,,,instrumental,,,,--- ---- ------ --- ------- astronomer ------- ----------<br>--- --------- --- ----------- ------- ----- ------- ---<br>--------- ---- -- --- ---- -- --------- -- ---- -------<br>-- --------- ------ --- ----- ------ ---- --- --------- --<br>------ - ---- -- --- ----------- ------- ---- ----- -----<br>--- -------- - ------ ---- -- ----- ---- --- --- -----------<br>-- -------,245033.91499997815,245033.11499999836,244497.62,244504.29499999154,244514.215,245047.577,,5,astronomer
screen,html.Screen,2_3_1_0_1_6,2021-04-24T14:55:07.209Z,,,,,,,,,,,,,,,,,2,,,,,,,,,,,,,,755.7130000107572,,response,,,,1,C,,,,,,Space,keypress(Space),,,,instrumental,,,,--- ---- ------ --- ------- ---------- Richard ----------<br>--- --------- --- ----------- ------- ----- ------- ---<br>--------- ---- -- --- ---- -- --------- -- ---- -------<br>-- --------- ------ --- ----- ------ ---- --- --------- --<br>------ - ---- -- --- ----------- ------- ---- ----- -----<br>--- -------- - ------ ---- -- ----- ---- --- --- -----------<br>-- -------,245804.13499998394,245803.29000001075,245030.856,245034.1049999697,245047.577,245814.284,,6,Richard
screen,html.Screen,2_3_1_0_1_7,2021-04-24T14:55:07.670Z,,,,,,,,,,,,,,,,,2,,,,,,,,,,,,,,448.9759999778762,,response,,,,1,C,,,,,,Space,keypress(Space),,,,instrumental,,,,--- ---- ------ --- ------- ---------- ------- Carrington<br>--- --------- --- ----------- ------- ----- ------- ---<br>--------- ---- -- --- ---- -- --------- -- ---- -------<br>-- --------- ------ --- ----- ------ ---- --- --------- --<br>------ - ---- -- --- ----------- ------- ---- ----- -----<br>--- -------- - ------ ---- -- ----- ---- --- --- -----------<br>-- -------,246264.25000000745,246263.2599999779,245797.607,245804.29999995977,245814.284,246280.599,,7,Carrington
screen,html.Screen,2_3_1_0_1_8,2021-04-24T14:55:08.104Z,,,,,,,,,,,,,,,,,2,,,,,,,,,,,,,,416.74599999323254,,response,,,,1,C,,,,,,Space,keypress(Space),,,,instrumental,,,,--- ---- ------ --- ------- ---------- ------- ----------<br>was --------- --- ----------- ------- ----- ------- ---<br>--------- ---- -- --- ---- -- --------- -- ---- -------<br>-- --------- ------ --- ----- ------ ---- --- --------- --<br>------ - ---- -- --- ----------- ------- ---- ----- -----<br>--- -------- - ------ ---- -- ----- ---- --- --- -----------<br>-- -------,246698.2999999891,246697.34499999322,246264.189,246264.48000001255,246280.599,246714.355,,8,was
screen,html.Screen,2_3_1_0_1_9,2021-04-24T14:55:08.514Z,,,,,,,,,,,,,,,,,2,,,,,,,,,,,,,,393.4000000045344,,response,,,,1,C,,,,,,Space,keypress(Space),,,,instrumental,,,,--- ---- ------ --- ------- ---------- ------- ----------<br>--- observing --- ----------- ------- ----- ------- ---<br>--------- ---- -- --- ---- -- --------- -- ---- -------<br>-- --------- ------ --- ----- ------ ---- --- --------- --<br>------ - ---- -- --- ----------- ------- ---- ----- -----<br>--- -------- - ------ ---- -- ----- ---- --- --- -----------<br>-- -------,247108.6199999554,247107.75500000454,246697.692,246698.4550000052,246714.355,247113.935,,9,observing
screen,html.Screen,2_3_1_0_1_10,2021-04-24T14:55:08.921Z,,,,,,,,,,,,,,,,,2,,,,,,,,,,,,,,400.68499997264007,,response,,,,1,C,,,,,,Space,keypress(Space),,,,instrumental,,,,--- ---- ------ --- ------- ---------- ------- ----------<br>--- --------- the ----------- ------- ----- ------- ---<br>--------- ---- -- --- ---- -- --------- -- ---- -------<br>-- --------- ------ --- ----- ------ ---- --- --------- --<br>------ - ---- -- --- ----------- ------- ---- ----- -----<br>--- -------- - ------ ---- -- ----- ---- --- --- -----------<br>-- -------,247515.4249999905,247514.61999997264,247097.53,247108.81000000518,247113.935,247531.059,,10,the
screen,html.Screen,2_3_1_0_1_11,2021-04-24T14:55:09.311Z,,,,,,,,,,,,,,,,,2,,,,,,,,,,,,,,373.5809999642661,,response,,,,1,C,,,,,,Space,keypress(Space),,,,instrumental,,,,--- ---- ------ --- ------- ---------- ------- ----------<br>--- --------- --- interesting ------- ----- ------- ---<br>--------- ---- -- --- ---- -- --------- -- ---- -------<br>-- --------- ------ --- ----- ------ ---- --- --------- --<br>------ - ---- -- --- ----------- ------- ---- ----- -----<br>--- -------- - ------ ---- -- ----- ---- --- --- -----------<br>-- -------,247905.39500000887,247904.63999996427,247514.13,247515.58499998646,247531.059,247914.231,,11,interesting
screen,html.Screen,2_3_1_0_1_12,2021-04-24T14:55:09.699Z,,,,,,,,,,,,,,,,,2,,,,,,,,,,,,,,378.2139999700303,,response,,,,1,C,,,,,,Space,keypress(Space),,,,instrumental,,,,--- ---- ------ --- ------- ---------- ------- ----------<br>--- --------- --- ----------- sunspot ----- ------- ---<br>--------- ---- -- --- ---- -- --------- -- ---- -------<br>-- --------- ------ --- ----- ------ ---- --- --------- --<br>------ - ---- -- --- ----------- ------- ---- ----- -----<br>--- -------- - ------ ---- -- ----- ---- --- --- -----------<br>-- -------,248293.24500000803,248292.44499997003,247897.638,247905.5749999825,247914.231,248297.336,,12,sunspot
screen,html.Screen,2_3_1_0_1_13,2021-04-24T14:55:10.297Z,,,,,,,,,,,,,,,,,2,,,,,,,,,,,,,,593.6089999919059,,response,,,,1,C,,,,,,Space,keypress(Space),,,,instrumental,,,,--- ---- ------ --- ------- ---------- ------- ----------<br>--- --------- --- ----------- ------- group ------- ---<br>--------- ---- -- --- ---- -- --------- -- ---- -------<br>-- --------- ------ --- ----- ------ ---- --- --------- --<br>------ - ---- -- --- ----------- ------- ---- ----- -----<br>--- -------- - ------ ---- -- ----- ---- --- --- -----------<br>-- -------,248891.96499995887,248890.94499999192,248280.855,248293.45499997726,248297.336,248897.238,,13,group
screen,html.Screen,2_3_1_0_1_14,2021-04-24T14:55:10.753Z,,,,,,,,,,,,,,,,,2,,,,,,,,,,,,,,449.4419999587117,,response,,,,1,C,,,,,,Space,keypress(Space),,,,instrumental,,,,--- ---- ------ --- ------- ---------- ------- ----------<br>--- --------- --- ----------- ------- ----- through ---<br>--------- ---- -- --- ---- -- --------- -- ---- -------<br>-- --------- ------ --- ----- ------ ---- --- --------- --<br>------ - ---- -- --- ----------- ------- ---- ----- -----<br>--- -------- - ------ ---- -- ----- ---- --- --- -----------<br>-- -------,249347.68000000622,249346.67999995872,248880.553,248892.18500000425,248897.238,249364.215,,14,through
screen,html.Screen,2_3_1_0_1_15,2021-04-24T14:55:11.198Z,,,,,,,,,,,,,,,,,2,,,,,,,,,,,,,,427.7349999843573,,response,,,,1,C,,,,,,Space,keypress(Space),,,,instrumental,,,,--- ---- ------ --- ------- ---------- ------- ----------<br>--- --------- --- ----------- ------- ----- ------- his<br>--------- ---- -- --- ---- -- --------- -- ---- -------<br>-- --------- ------ --- ----- ------ ---- --- --------- --<br>------ - ---- -- --- ----------- ------- ---- ----- -----<br>--- -------- - ------ ---- -- ----- ---- --- --- -----------<br>-- -------,249792.64499997953,249791.94999998435,249347.294,249347.8849999956,249364.215,249797.231,,15,his
screen,html.Screen,2_3_1_0_1_16,2021-04-24T14:55:11.608Z,,,,,,,,,,,,,,,,,2,,,,,,,,,,,,,,404.44399996023276,,response,,,,1,C,,,,,,Space,keypress(Space),,,,instrumental,,,,--- ---- ------ --- ------- ---------- ------- ----------<br>--- --------- --- ----------- ------- ----- ------- ---<br>telescope ---- -- --- ---- -- --------- -- ---- -------<br>-- --------- ------ --- ----- ------ ---- --- --------- --<br>------ - ---- -- --- ----------- ------- ---- ----- -----<br>--- -------- - ------ ---- -- ----- ---- --- --- -----------<br>-- -------,250202.43999996455,250201.67499996023,249780.603,249792.79499995755,249797.231,250214.301,,16,telescope
screen,html.Screen,2_3_1_0_1_17,2021-04-24T14:55:12.010Z,,,,,,,,,,,,,,,,,2,,,,,,,,,,,,,,389.6240000030666,,response,,,,1,C,,,,,,Space,keypress(Space),,,,instrumental,,,,--- ---- ------ --- ------- ---------- ------- ----------<br>--- --------- --- ----------- ------- ----- ------- ---<br>--------- when -- --- ---- -- --------- -- ---- -------<br>-- --------- ------ --- ----- ------ ---- --- --------- --<br>------ - ---- -- --- ----------- ------- ---- ----- -----<br>--- -------- - ------ ---- -- ----- ---- --- --- -----------<br>-- -------,250604.6900000074,250603.92500000307,250197.496,250202.5999999605,250214.301,250613.959,,17,when
screen,html.Screen,2_3_1_0_1_18,2021-04-24T14:55:12.388Z,,,,,,,,,,,,,,,,,2,,,,,,,,,,,,,,367.6009999856178,,response,,,,1,C,,,,,,Space,keypress(Space),,,,instrumental,,,,--- ---- ------ --- ------- ---------- ------- ----------<br>--- --------- --- ----------- ------- ----- ------- ---<br>--------- ---- he --- ---- -- --------- -- ---- -------<br>-- --------- ------ --- ----- ------ ---- --- --------- --<br>------ - ---- -- --- ----------- ------- ---- ----- -----<br>--- -------- - ------ ---- -- ----- ---- --- --- -----------<br>-- -------,250982.40499995882,250981.55999998562,250597.503,250604.79999997187,250613.959,250997.626,,18,he
screen,html.Screen,2_3_1_0_1_19,2021-04-24T14:55:12.762Z,,,,,,,,,,,,,,,,,2,,,,,,,,,,,,,,358.23400001059053,,response,,,,1,C,,,,,,Space,keypress(Space),,,,instrumental,,,,--- ---- ------ --- ------- ---------- ------- ----------<br>--- --------- --- ----------- ------- ----- ------- ---<br>--------- ---- -- saw ---- -- --------- -- ---- -------<br>-- --------- ------ --- ----- ------ ---- --- --------- --<br>------ - ---- -- --- ----------- ------- ---- ----- -----<br>--- -------- - ------ ---- -- ----- ---- --- --- -----------<br>-- -------,251356.74999997718,251355.86000001058,250981.002,250982.5599999749,250997.626,251363.98,,19,saw
screen,html.Screen,2_3_1_0_1_20,2021-04-24T14:55:13.120Z,,,,,,,,,,,,,,,,,2,,,,,,,,,,,,,,350.0399999557703,,response,,,,1,C,,,,,,Space,keypress(Space),,,,instrumental,,,,--- ---- ------ --- ------- ---------- ------- ----------<br>--- --------- --- ----------- ------- ----- ------- ---<br>--------- ---- -- --- what -- --------- -- ---- -------<br>-- --------- ------ --- ----- ------ ---- --- --------- --<br>------ - ---- -- --- ----------- ------- ---- ----- -----<br>--- -------- - ------ ---- -- ----- ---- --- --- -----------<br>-- -------,251714.85499996925,251714.01999995578,251347.447,251356.93000000902,251363.98,251731.041,,20,what
screen,html.Screen,2_3_1_0_1_21,2021-04-24T14:55:13.453Z,,,,,,,,,,,,,,,,,2,,,,,,,,,,,,,,315.6740000040445,,response,,,,1,C,,,,,,Space,keypress(Space),,,,instrumental,,,,--- ---- ------ --- ------- ---------- ------- ----------<br>--- --------- --- ----------- ------- ----- ------- ---<br>--------- ---- -- --- ---- he --------- -- ---- -------<br>-- --------- ------ --- ----- ------ ---- --- --------- --<br>------ - ---- -- --- ----------- ------- ---- ----- -----<br>--- -------- - ------ ---- -- ----- ---- --- --- -----------<br>-- -------,252047.72999999113,252046.71500000404,251714.237,251715.03999998095,251731.041,252064.398,,21,he
screen,html.Screen,2_3_1_0_1_22,2021-04-24T14:55:13.825Z,,,,,,,,,,,,,,,,,2,,,,,,,,,,,,,,354.6570000057691,,response,,,,1,C,,,,,,Space,keypress(Space),,,,instrumental,,,,--- ---- ------ --- ------- ---------- ------- ----------<br>--- --------- --- ----------- ------- ----- ------- ---<br>--------- ---- -- --- ---- -- described -- ---- -------<br>-- --------- ------ --- ----- ------ ---- --- --------- --<br>------ - ---- -- --- ----------- ------- ---- ----- -----<br>--- -------- - ------ ---- -- ----- ---- --- --- -----------<br>-- -------,252419.91499997675,252419.05500000576,252047.728,252047.94499999844,252064.398,252430.941,,22,described
screen,html.Screen,2_3_1_0_1_23,2021-04-24T14:55:14.198Z,,,,,,,,,,,,,,,,,2,,,,,,,,,,,,,,361.3889999674866,,response,,,,1,C,,,,,,Space,keypress(Space),,,,instrumental,,,,--- ---- ------ --- ------- ---------- ------- ----------<br>--- --------- --- ----------- ------- ----- ------- ---<br>--------- ---- -- --- ---- -- --------- as ---- -------<br>-- --------- ------ --- ----- ------ ---- --- --------- --<br>------ - ---- -- --- ----------- ------- ---- ----- -----<br>--- -------- - ------ ---- -- ----- ---- --- --- -----------<br>-- -------,252793.10499998974,252792.32999996748,252414.218,252420.11999996612,252430.941,252797.301,,23,as
screen,html.Screen,2_3_1_0_1_24,2021-04-24T14:55:14.622Z,,,,,,,,,,,,,,,,,2,,,,,,,,,,,,,,418.7140000126965,,response,,,,1,C,,,,,,Space,keypress(Space),,,,instrumental,,,,"--- ---- ------ --- ------- ---------- ------- ----------<br>--- --------- --- ----------- ------- ----- ------- ---<br>--------- ---- -- --- ---- -- --------- -- ""two -------<br>-- --------- ------ --- ----- ------ ---- --- --------- --<br>------ - ---- -- --- ----------- ------- ---- ----- -----<br>--- -------- - ------ ---- -- ----- ---- --- --- -----------<br>-- -------",253216.87000000384,253216.0150000127,252780.997,252793.32999995677,252797.301,253231.079,,24,"""two"
screen,html.Screen,2_3_1_0_1_25,2021-04-24T14:55:14.995Z,,,,,,,,,,,,,,,,,2,,,,,,,,,,,,,,357.44099999024183,,response,,,,1,C,,,,,,Space,keypress(Space),,,,instrumental,,,,--- ---- ------ --- ------- ---------- ------- ----------<br>--- --------- --- ----------- ------- ----- ------- ---<br>--------- ---- -- --- ---- -- --------- -- ---- patches<br>-- --------- ------ --- ----- ------ ---- --- --------- --<br>------ - ---- -- --- ----------- ------- ---- ----- -----<br>--- -------- - ------ ---- -- ----- ---- --- --- -----------<br>-- -------,253589.3999999971,253588.51999999024,253213.98,253217.0299999998,253231.079,253597.376,,25,patches
screen,html.Screen,2_3_1_0_1_26,2021-04-24T14:55:15.349Z,,,,,,,,,,,,,,,,,2,,,,,,,,,,,,,,345.65399996581255,,response,,,,1,C,,,,,,Space,keypress(Space),,,,instrumental,,,,--- ---- ------ --- ------- ---------- ------- ----------<br>--- --------- --- ----------- ------- ----- ------- ---<br>--------- ---- -- --- ---- -- --------- -- ---- -------<br>of --------- ------ --- ----- ------ ---- --- --------- --<br>------ - ---- -- --- ----------- ------- ---- ----- -----<br>--- -------- - ------ ---- -- ----- ---- --- --- -----------<br>-- -------,253943.79499997012,253943.0299999658,253580.991,253589.5850000088,253597.376,253947.272,,26,of
screen,html.Screen,2_3_1_0_1_27,2021-04-24T14:55:15.671Z,,,,,,,,,,,,,,,,,2,,,,,,,,,,,,,,317.8180000007851,,response,,,,1,C,,,,,,Space,keypress(Space),,,,instrumental,,,,--- ---- ------ --- ------- ---------- ------- ----------<br>--- --------- --- ----------- ------- ----- ------- ---<br>--------- ---- -- --- ---- -- --------- -- ---- -------<br>-- intensely ------ --- ----- ------ ---- --- --------- --<br>------ - ---- -- --- ----------- ------- ---- ----- -----<br>--- -------- - ------ ---- -- ----- ---- --- --- -----------<br>-- -------,254265.90999995824,254265.09000000078,253930.63,253943.94999998622,253947.272,254280.744,,27,intensely
screen,html.Screen,2_3_1_0_1_28,2021-04-24T14:55:16.013Z,,,,,,,,,,,,,,,,,2,,,,,,,,,,,,,,326.385999960301,,response,,,,1,C,,,,,,Space,keypress(Space),,,,instrumental,,,,--- ---- ------ --- ------- ---------- ------- ----------<br>--- --------- --- ----------- ------- ----- ------- ---<br>--------- ---- -- --- ---- -- --------- -- ---- -------<br>-- --------- bright --- ----- ------ ---- --- --------- --<br>------ - ---- -- --- ----------- ------- ---- ----- -----<br>--- -------- - ------ ---- -- ----- ---- --- --- -----------<br>-- -------,254607.89499996463,254607.1299999603,254264.24,254266.07499999227,254280.744,254614.057,,28,bright
screen,html.Screen,2_3_1_0_1_29,2021-04-24T14:55:16.376Z,,,,,,,,,,,,,,,,,2,,,,,,,,,,,,,,355.64799999588286,,response,,,,1,C,,,,,,Space,keypress(Space),,,,instrumental,,,,--- ---- ------ --- ------- ---------- ------- ----------<br>--- --------- --- ----------- ------- ----- ------- ---<br>--------- ---- -- --- ---- -- --------- -- ---- -------<br>-- --------- ------ and ----- ------ ---- --- --------- --<br>------ - ---- -- --- ----------- ------- ---- ----- -----<br>--- -------- - ------ ---- -- ----- ---- --- --- -----------<br>-- -------,254970.57999996468,254969.70499999588,254597.35,254608.07499999646,254614.057,254981.093,,29,and
screen,html.Screen,2_3_1_0_1_30,2021-04-24T14:55:16.740Z,,,,,,,,,,,,,,,,,2,,,,,,,,,,,,,,352.4370000035269,,response,,,,1,C,,,,,,Space,keypress(Space),,,,instrumental,,,,--- ---- ------ --- ------- ---------- ------- ----------<br>--- --------- --- ----------- ------- ----- ------- ---<br>--------- ---- -- --- ---- -- --------- -- ---- -------<br>-- --------- ------ --- white ------ ---- --- --------- --<br>------ - ---- -- --- ----------- ------- ---- ----- -----<br>--- -------- - ------ ---- -- ----- ---- --- --- -----------<br>-- -------,255334.33499996318,255333.53000000352,254964.008,254970.76999995625,254981.093,255347.652,,30,white
screen,html.Screen,2_3_1_0_1_31,2021-04-24T14:55:17.056Z,,,,,,,,,,,,,,,,,2,,,,,,,,,,,,,,301.87799999513663,,response,,,,1,C,,,,,,Space,keypress(Space),,,,instrumental,,,,"--- ---- ------ --- ------- ---------- ------- ----------<br>--- --------- --- ----------- ------- ----- ------- ---<br>--------- ---- -- --- ---- -- --------- -- ---- -------<br>-- --------- ------ --- ----- light"" ---- --- --------- --<br>------ - ---- -- --- ----------- ------- ---- ----- -----<br>--- -------- - ------ ---- -- ----- ---- --- --- -----------<br>-- -------",255650.36999998847,255649.52999999514,255330.998,255334.4999999972,255347.652,255664.052,,31,"light"""
screen,html.Screen,2_3_1_0_1_32,2021-04-24T14:55:17.406Z,,,,,,,,,,,,,,,,,2,,,,,,,,,,,,,,335.78299996597343,,response,,,,1,C,,,,,,Space,keypress(Space),,,,instrumental,,,,--- ---- ------ --- ------- ---------- ------- ----------<br>--- --------- --- ----------- ------- ----- ------- ---<br>--------- ---- -- --- ---- -- --------- -- ---- -------<br>-- --------- ------ --- ----- ------ over --- --------- --<br>------ - ---- -- --- ----------- ------- ---- ----- -----<br>--- -------- - ------ ---- -- ----- ---- --- --- -----------<br>-- -------,256000.78000000212,255999.83499996597,255647.302,255650.5349999643,255664.052,256014.383,,32,over
screen,html.Screen,2_3_1_0_1_33,2021-04-24T14:55:17.724Z,,,,,,,,,,,,,,,,,2,,,,,,,,,,,,,,303.8269999976328,,response,,,,1,C,,,,,,Space,keypress(Space),,,,instrumental,,,,--- ---- ------ --- ------- ---------- ------- ----------<br>--- --------- --- ----------- ------- ----- ------- ---<br>--------- ---- -- --- ---- -- --------- -- ---- -------<br>-- --------- ------ --- ----- ------ ---- the --------- --<br>------ - ---- -- --- ----------- ------- ---- ----- -----<br>--- -------- - ------ ---- -- ----- ---- --- --- -----------<br>-- -------,256319.1200000001,256318.20999999763,255997.614,256000.9499999578,256014.383,256330.791,,33,the
screen,html.Screen,2_3_1_0_1_34,2021-04-24T14:55:18.055Z,,,,,,,,,,,,,,,,,2,,,,,,,,,,,,,,318.42899996295455,,response,,,,1,C,,,,,,Space,keypress(Space),,,,instrumental,,,,--- ---- ------ --- ------- ---------- ------- ----------<br>--- --------- --- ----------- ------- ----- ------- ---<br>--------- ---- -- --- ---- -- --------- -- ---- -------<br>-- --------- ------ --- ----- ------ ---- --- sunspots. --<br>------ - ---- -- --- ----------- ------- ---- ----- -----<br>--- -------- - ------ ---- -- ----- ---- --- --- -----------<br>-- -------,256650.06499999436,256649.21999996295,256314.254,256319.2899999558,256330.791,256664.395,,34,sunspots.
screen,html.Screen,2_3_1_0_1_35,2021-04-24T14:55:18.383Z,,,,,,,,,,,,,,,,,2,,,,,,,,,,,,,,312.31499995899503,,response,,,,1,C,,,,,,Space,keypress(Space),,,,instrumental,,,,--- ---- ------ --- ------- ---------- ------- ----------<br>--- --------- --- ----------- ------- ----- ------- ---<br>--------- ---- -- --- ---- -- --------- -- ---- -------<br>-- --------- ------ --- ----- ------ ---- --- --------- He<br>------ - ---- -- --- ----------- ------- ---- ----- -----<br>--- -------- - ------ ---- -- ----- ---- --- --- -----------<br>-- -------,256977.584999986,256976.70999995898,256647.653,256650.2249999903,256664.395,256980.653,,35,He
