sender,sender_type,sender_id,timestamp,meta,,Blues,Classical,Country,Dance,Electronic,Folk,Gospel,Hip-Hop,Jazz,Latin,Musical/Film,New-age,Pop,Prolific_id,Provo_ID,R&B,Rap,Reggae,Religious,Rock,Soul,Swing,Traditional,age,artist_name,correct,correctResponse,distraction,duration,education,ended_on,familiarity,gender,headphone_check_performance,item,list,music_frequency,offensiveness,pleasantness,position_correct,preference,response,response_action,snippet_file,song_name,song_rating,sound,stimulus_1,stimulus_2,stimulus_3,text,time_commit,time_end,time_render,time_run,time_show,time_switch,url,word,word_ID
Prolific ID,html.Form,0,2021-04-24T14:04:34.535Z,"{""labjs_version"":""20.2.2"",""labjs_build"":{""flavor"":""production"",""commit"":""a25486e0c714a0ae2ce03ff94b7bb6896854dcfa""},""location"":""https://run.pavlovia.org/mvasilev/prolific_music_b/"",""userAgent"":""Mozilla/5.0 (Windows NT 10.0; Win64; x64) AppleWebKit/537.36 (KHTML, like Gecko) Chrome/90.0.4430.85 Safari/537.36"",""platform"":""Win32"",""language"":""en-GB"",""locale"":""en-GB"",""timeZone"":""Europe/London"",""timezoneOffset"":-60,""screen_width"":1366,""screen_height"":768,""scroll_width"":1366,""scroll_height"":609,""window_innerWidth"":1366,""window_innerHeight"":657,""devicePixelRatio"":1}",,,,,,,,,,,,,,,606aad87b9f57a82dd447d6a,,,,,,,,,,,,,,,5405.319999972693,,form submission,,,,,,,,,,,,,,,,,,,,,25940.479999990202,25939.804999972694,20467.887,20467.219999991357,20534.485,26025.461,{},,
Introduction,html.Screen,1_0,2021-04-24T14:04:40.480Z,,,,,,,,,,,,,,,,,,,,,,,,,,,,,,,5855.908999959134,,response,,,,,,,,,,,continue,click button,,,,,,,,,31884.934999980032,31881.369999959134,25875.711,25948.634999920614,26025.461,31965.743,,,
Volume calibration,html.Screen,1_1,2021-04-24T14:05:04.238Z,,,,,,,,,,,,,,,,,,,,,,,,,,,,,,,23673.6519999474,,response,,,,,,,,,,,continue,click button,,,,,,,,,55643.3599999873,55639.3949999474,31865.894,31885.169999906793,31965.743,55676.884,,,
Task instructions,html.Screen,1_2,2021-04-24T14:05:18.079Z,,,,,,,,,,,,,,,,,,,,,,,,,,,,,,,13805.385999920392,,response,,,,,,,,,,,continue,click button,,,,,,,,,69483.36999991443,69482.26999992039,55626.913,55646.72999992035,55676.884,69487.468,,,
Sounds,html.Screen,1_3_0_0,2021-04-24T14:05:22.348Z,,,,,,,,,,,,,,,,,,,,,,,,,,,,,,,4259.659,,timeout,,,,,,,,,2,,,,,,,,I,S,O,,73752.46999994852,73713.848,69470.872,69483.7299999781,69487.468,73747.127,,,
Judgement,html.Screen,1_3_0_1,2021-04-24T14:05:25.929Z,,,,,,,,,,,,,,,,,,,,,,,,,,,,true,2,,3585.9229998992378,,response,,,,,,,,,2,,2,click #choice-2,,,,,I,S,O,,77334.18999996502,77333.04999989923,73713.848,73752.8099999763,73747.127,77341.252,,,
Trial,flow.Sequence,1_3_0,2021-04-24T14:05:25.930Z,,,,,,,,,,,,,,,,,,,,,,,,,,,,,,,7845.581999899237,,completion,,,,,,,,,2,,,,,,,,I,S,O,,77334.59999994375,77333.04999989923,69470.872,69483.65999991074,69487.468,77341.252,,,
Sounds,html.Screen,1_3_1_0,2021-04-24T14:05:30.164Z,,,,,,,,,,,,,,,,,,,,,,,,,,,,,,,4243.019,,timeout,,,,,,,,,3,,,,,,,,O,I,S,,81568.56499996502,81567.672,77324.64,77334.79999995325,77341.252,81584.271,,,
Judgement,html.Screen,1_3_1_1,2021-04-24T14:05:31.450Z,,,,,,,,,,,,,,,,,,,,,,,,,,,,true,3,,1268.8289999493427,,response,,,,,,,,,3,,3,click #choice-3,,,,,O,I,S,,82854.24999997485,82853.09999994934,81567.672,81568.84999992326,81584.271,82865.54,,,
Trial,flow.Sequence,1_3_1,2021-04-24T14:05:31.450Z,,,,,,,,,,,,,,,,,,,,,,,,,,,,,,,5511.847999949343,,completion,,,,,,,,,3,,,,,,,,O,I,S,,82854.71999994479,82853.09999994934,77324.64,77334.74500000011,77341.252,82865.54,,,
Sounds,html.Screen,1_3_2_0,2021-04-24T14:05:35.689Z,,,,,,,,,,,,,,,,,,,,,,,,,,,,,,,4243.044000000009,,timeout,,,,,,,,,3,,,,,,,,I,O,S,,87093.46499992535,87091.903,82848.895,82855.08499993011,82865.54,87108.584,,,
Judgement,html.Screen,1_3_2_1,2021-04-24T14:05:36.707Z,,,,,,,,,,,,,,,,,,,,,,,,,,,,true,3,,1002.5509998973284,,response,,,,,,,,,3,,3,click #choice-3,,,,,I,O,S,,88112.16499994043,88111.13499989733,87091.903,87093.7649999978,87108.584,88123.593,,,
Trial,flow.Sequence,1_3_2,2021-04-24T14:05:36.708Z,,,,,,,,,,,,,,,,,,,,,,,,,,,,,,,5245.594999897337,,completion,,,,,,,,,3,,,,,,,,I,O,S,,88112.43999993894,88111.13499989733,82848.895,82854.96999998577,82865.54,88123.593,,,
Sounds,html.Screen,1_3_3_0,2021-04-24T14:05:40.947Z,,,,,,,,,,,,,,,,,,,,,,,,,,,,,,,4243.179000000004,,timeout,,,,,,,,,1,,,,,,,,S,I,O,,92351.3999999268,92350.022,88106.929,88112.61999991257,88123.593,92366.772,,,
Judgement,html.Screen,1_3_3_1,2021-04-24T14:05:41.939Z,,,,,,,,,,,,,,,,,,,,,,,,,,,,true,1,,976.0779998990474,,response,,,,,,,,,1,,1,click #choice-1,,,,,S,I,O,,93343.9350000117,93342.84999989904,92350.022,92351.67000000365,92366.772,93348.274,,,
Trial,flow.Sequence,1_3_3,2021-04-24T14:05:41.939Z,,,,,,,,,,,,,,,,,,,,,,,,,,,,,,,5219.256999899051,,completion,,,,,,,,,1,,,,,,,,S,I,O,,93344.18999997433,93342.84999989904,88106.929,88112.55999992136,88123.593,93348.274,,,
Sounds,html.Screen,1_3_4_0,2021-04-24T14:05:46.171Z,,,,,,,,,,,,,,,,,,,,,,,,,,,,,,,4243.034999999989,,timeout,,,,,,,,,1,,,,,,,,S,O,I,,97575.65999997314,97574.704,93331.701,93344.36499990989,93348.274,97591.309,,,
Judgement,html.Screen,1_3_4_1,2021-04-24T14:05:47.053Z,,,,,,,,,,,,,,,,,,,,,,,,,,,,true,1,,864.8759999008762,,response,,,,,,,,,1,,1,click #choice-1,,,,,S,O,I,,98457.7799999388,98456.18499990087,97574.704,97575.91499993578,97591.309,98473.274,,,
Trial,flow.Sequence,1_3_4,2021-04-24T14:05:47.053Z,,,,,,,,,,,,,,,,,,,,,,,,,,,,,,,5107.910999900865,,completion,,,,,,,,,1,,,,,,,,S,O,I,,98458.2249999512,98456.18499990087,93331.701,93344.30499991868,93348.274,98473.274,,,
Sounds,html.Screen,1_3_5_0,2021-04-24T14:05:51.296Z,,,,,,,,,,,,,,,,,,,,,,,,,,,,,,,4243.0610000000015,,timeout,,,,,,,,,2,,,,,,,,O,S,I,,102700.80999995116,102699.585,98456.622,98458.41999992263,98473.274,102716.335,,,
Judgement,html.Screen,1_3_5_1,2021-04-24T14:05:52.166Z,,,,,,,,,,,,,,,,,,,,,,,,,,,,true,2,,853.2249999744381,,response,,,,,,,,,2,,2,click #choice-2,,,,,O,S,I,,103570.5499999458,103569.55999997444,102699.585,102701.03499991819,102716.335,103648.125,,,
Trial,flow.Sequence,1_3_5,2021-04-24T14:05:52.166Z,,,,,,,,,,,,,,,,,,,,,,,,,,,,,,,5096.28599997444,,completion,,,,,,,,,2,,,,,,,,O,S,I,,103570.78999991063,103569.55999997444,98456.622,98458.37000000756,98473.274,103648.125,,,
Task,flow.Loop,1_3,2021-04-24T14:05:52.172Z,,,,,,,,,,,,,,,,,,,,,,,,,,,,,,,34082.09199997445,,completion,,,1,,,,,,,,,,,,,,,,,,103576.4949999284,103569.55999997444,69470.872,69483.56999992393,69487.468,103648.125,,,
Trap,html.Screen,1_4,2021-04-24T14:05:52.251Z,,,,,,,,,,,,,,,,,,,,,,,,,,,,,,,NaN,,skipped,,,,,,,,,,,,,,,,,,,,,103655.75999999419,103569.55999997444,,103655.49499995541,,103648.125,,,
Thanks,html.Screen,1_5,2021-04-24T14:05:56.380Z,,,,,,,,,,,,,,,,,,,,,,,,,,,,,,,4135.480000004172,,response,,,,,,,,,,,continue,click button,,,,,,,,,107784.54499994405,107783.60500000417,103564.914,103656.0049999971,103648.125,114580.071,,,
Headphone screening,flow.Sequence,1,2021-04-24T14:05:56.380Z,,,,,,,,,,,,,,,,,,,,,,,,,,,,,,,81758.14400000418,,completion,,,,,,,,,,,,,,,,,,,,,107784.77999998722,107783.60500000417,25875.711,25948.58500000555,26025.461,114580.071,,,
Instructions,html.Page,2_0,2021-04-24T14:06:18.720Z,,,,,,,,,,,,,,,,,,,,,,,,,,,,,,,15545.80899994867,,form submission,,,,,,,,,,,,,,,,,,,,,130126.25500001013,130125.87999994867,114080.928,114586.02499996778,114580.071,130121.293,,,
Holding screen,html.Screen,2_1_0_0,2021-04-24T14:06:28.700Z,,,,,,,,,,,,,,,,,,,,,,,,,,,,,,,10166.584999999992,,timeout,,,,,,,,,,,,,,,,,,,,,140105.66499992274,140104.941,130088.008,130126.57500000205,130121.293,140287.878,,,
screen,html.Screen,2_1_0_1_0,2021-04-24T14:06:30.067Z,,,,,,,,,,,,,,,,,53,,,,,,,,,,,,,,1116.0119999577582,,response,,,,99,,,,,,,Space,keypress(Space),,,,,,,,When -- ----- -- ------ - ------- --- ----------<br>------------- ------ ------ ---- ---- ------- ----- -- ----<br>-------- ------- -- ---------- --- - --- ----- ----- ----<br>---- --- --- ----- --- ---- ---- ------- ----- ---- -------<br>--- --- -- ----- -- --- ---- -- --- ---- -- ------ ------<br>--- ----- -- ----,141472.36999997403,141403.88999995776,140104.941,140106.0849999776,140287.878,141485.922,,0,When
screen,html.Screen,2_1_0_1_1,2021-04-24T14:06:31.607Z,,,,,,,,,,,,,,,,,53,,,,,,,,,,,,,,1526.0929999857035,,response,,,,99,,,,,,,Space,keypress(Space),,,,,,,,---- it ----- -- ------ - ------- --- ----------<br>------------- ------ ------ ---- ---- ------- ----- -- ----<br>-------- ------- -- ---------- --- - --- ----- ----- ----<br>---- --- --- ----- --- ---- ---- ------- ----- ---- -------<br>--- --- -- ----- -- --- ---- -- --- ---- -- ------ ------<br>--- ----- -- ----,143012.88499997463,143012.0149999857,141469.318,141472.54999994766,141485.922,143016.712,,1,it
screen,html.Screen,2_1_0_1_2,2021-04-24T14:06:32.137Z,,,,,,,,,,,,,,,,,53,,,,,,,,,,,,,,525.4929999469896,,response,,,,99,,,,,,,Space,keypress(Space),,,,,,,,---- -- comes -- ------ - ------- --- ----------<br>------------- ------ ------ ---- ---- ------- ----- -- ----<br>-------- ------- -- ---------- --- - --- ----- ----- ----<br>---- --- --- ----- --- ---- ---- ------- ----- ---- -------<br>--- --- -- ----- -- --- ---- -- --- ---- -- ------ ------<br>--- ----- -- ----,143542.91999991983,143542.204999947,143000.141,143013.15999997314,143016.712,143549.245,,2,comes
screen,html.Screen,2_1_0_1_3,2021-04-24T14:06:32.566Z,,,,,,,,,,,,,,,,,53,,,,,,,,,,,,,,421.97499994852114,,response,,,,99,,,,,,,Space,keypress(Space),,,,,,,,---- -- ----- to ------ - ------- --- ----------<br>------------- ------ ------ ---- ---- ------- ----- -- ----<br>-------- ------- -- ---------- --- - --- ----- ----- ----<br>---- --- --- ----- --- ---- ---- ------- ----- ---- -------<br>--- --- -- ----- -- --- ---- -- --- ---- -- ------ ------<br>--- ----- -- ----,143971.88999992795,143971.21999994852,143532.626,143543.07499993593,143549.245,143981.884,,3,to
screen,html.Screen,2_1_0_1_4,2021-04-24T14:06:33.016Z,,,,,,,,,,,,,,,,,53,,,,,,,,,,,,,,438.8809999298246,,response,,,,99,,,,,,,Space,keypress(Space),,,,,,,,---- -- ----- -- having - ------- --- ----------<br>------------- ------ ------ ---- ---- ------- ----- -- ----<br>-------- ------- -- ---------- --- - --- ----- ----- ----<br>---- --- --- ----- --- ---- ---- ------- ----- ---- -------<br>--- --- -- ----- -- --- ---- -- --- ---- -- ------ ------<br>--- ----- -- ----,144421.40999995172,144420.76499992982,143965.249,143972.04499994405,143981.884,144431.19,,4,having
screen,html.Screen,2_1_0_1_5,2021-04-24T14:06:33.390Z,,,,,,,,,,,,,,,,,53,,,,,,,,,,,,,,364.0650000045425,,response,,,,99,,,,,,,Space,keypress(Space),,,,,,,,---- -- ----- -- ------ a ------- --- ----------<br>------------- ------ ------ ---- ---- ------- ----- -- ----<br>-------- ------- -- ---------- --- - --- ----- ----- ----<br>---- --- --- ----- --- ---- ---- ------- ----- ---- -------<br>--- --- -- ----- -- --- ---- -- --- ---- -- ------ ------<br>--- ----- -- ----,144796.15999991074,144795.25500000454,144414.509,144421.55999992974,144431.19,144814.304,,5,a
screen,html.Screen,2_1_0_1_6,2021-04-24T14:06:33.825Z,,,,,,,,,,,,,,,,,53,,,,,,,,,,,,,,415.83099996158853,,response,,,,99,,,,,,,Space,keypress(Space),,,,,,,,---- -- ----- -- ------ - lasting --- ----------<br>------------- ------ ------ ---- ---- ------- ----- -- ----<br>-------- ------- -- ---------- --- - --- ----- ----- ----<br>---- --- --- ----- --- ---- ---- ------- ----- ---- -------<br>--- --- -- ----- -- --- ---- -- --- ---- -- ------ ------<br>--- ----- -- ----,145231.2399999937,145230.1349999616,144780.564,144796.46999994293,144814.304,145246.457,,6,lasting
screen,html.Screen,2_1_0_1_7,2021-04-24T14:06:34.298Z,,,,,,,,,,,,,,,,,53,,,,,,,,,,,,,,456.212999911455,,response,,,,99,,,,,,,Space,keypress(Space),,,,,,,,---- -- ----- -- ------ - ------- and ----------<br>------------- ------ ------ ---- ---- ------- ----- -- ----<br>-------- ------- -- ---------- --- - --- ----- ----- ----<br>---- --- --- ----- --- ---- ---- ------- ----- ---- -------<br>--- --- -- ----- -- --- ---- -- --- ---- -- ------ ------<br>--- ----- -- ----,145703.45499995165,145702.66999991145,145229.806,145231.50999995414,145246.457,145712.288,,7,and
screen,html.Screen,2_1_0_1_8,2021-04-24T14:06:34.754Z,,,,,,,,,,,,,,,,,53,,,,,,,,,,,,,,447.0419999367441,,response,,,,99,,,,,,,Space,keypress(Space),,,,,,,,---- -- ----- -- ------ - ------- --- fulfilling<br>------------- ------ ------ ---- ---- ------- ----- -- ----<br>-------- ------- -- ---------- --- - --- ----- ----- ----<br>---- --- --- ----- --- ---- ---- ------- ----- ---- -------<br>--- --- -- ----- -- --- ---- -- --- ---- -- ------ ------<br>--- ----- -- ----,146160.18499992788,146159.32999993674,145695.705,145703.61999992747,145712.288,146185.316,,8,fulfilling
screen,html.Screen,2_1_0_1_9,2021-04-24T14:06:35.479Z,,,,,,,,,,,,,,,,,53,,,,,,,,,,,,,,698.3439999340335,,response,,,,99,,,,,,,Space,keypress(Space),,,,,,,,"---- -- ----- -- ------ - ------- --- ----------<br>relationship, ------ ------ ---- ---- ------- ----- -- ----<br>-------- ------- -- ---------- --- - --- ----- ----- ----<br>---- --- --- ----- --- ---- ---- ------- ----- ---- -------<br>--- --- -- ----- -- --- ---- -- --- ---- -- ------ ------<br>--- ----- -- ----",146884.41999990027,146883.65999993403,146145.039,146160.34499998204,146185.316,146893.816,,9,"relationship,"
screen,html.Screen,2_1_0_1_10,2021-04-24T14:06:36.028Z,,,,,,,,,,,,,,,,,53,,,,,,,,,,,,,,539.3489999367157,,response,,,,99,,,,,,,Space,keypress(Space),,,,,,,,---- -- ----- -- ------ - ------- --- ----------<br>------------- common ------ ---- ---- ------- ----- -- ----<br>-------- ------- -- ---------- --- - --- ----- ----- ----<br>---- --- --- ----- --- ---- ---- ------- ----- ---- -------<br>--- --- -- ----- -- --- ---- -- --- ---- -- ------ ------<br>--- ----- -- ----,147433.94499993883,147433.1649999367,146877.126,146884.57499991637,146893.816,147442.893,,10,common
screen,html.Screen,2_1_0_1_11,2021-04-24T14:06:38.546Z,,,,,,,,,,,,,,,,,53,,,,,,,,,,,,,,2508.4269999928365,,response,,,,99,,,,,,,Space,keypress(Space),,,,,,,,---- -- ----- -- ------ - ------- --- ----------<br>------------- ------ wisdom ---- ---- ------- ----- -- ----<br>-------- ------- -- ---------- --- - --- ----- ----- ----<br>---- --- --- ----- --- ---- ---- ------- ----- ---- -------<br>--- --- -- ----- -- --- ---- -- --- ---- -- ------ ------<br>--- ----- -- ----,149952.05999992322,149951.31999999285,147426.237,147434.09999995492,147442.893,149955.33,,11,wisdom
screen,html.Screen,2_1_0_1_12,2021-04-24T14:06:38.931Z,,,,,,,,,,,,,,,,,53,,,,,,,,,,,,,,380.63499997658073,,response,,,,99,,,,,,,Space,keypress(Space),,,,,,,,---- -- ----- -- ------ - ------- --- ----------<br>------------- ------ ------ says ---- ------- ----- -- ----<br>-------- ------- -- ---------- --- - --- ----- ----- ----<br>---- --- --- ----- --- ---- ---- ------- ----- ---- -------<br>--- --- -- ----- -- --- ---- -- --- ---- -- ------ ------<br>--- ----- -- ----,150336.96499990765,150335.96499997657,149938.745,149952.20999990124,149955.33,150365.059,,12,says
screen,html.Screen,2_1_0_1_13,2021-04-24T14:06:39.286Z,,,,,,,,,,,,,,,,,53,,,,,,,,,,,,,,325.5709999682149,,response,,,,99,,,,,,,Space,keypress(Space),,,,,,,,---- -- ----- -- ------ - ------- --- ----------<br>------------- ------ ------ ---- that ------- ----- -- ----<br>-------- ------- -- ---------- --- - --- ----- ----- ----<br>---- --- --- ----- --- ---- ---- ------- ----- ---- -------<br>--- --- -- ----- -- --- ---- -- --- ---- -- ------ ------<br>--- ----- -- ----,150691.37499993667,150690.62999996822,150321.467,150337.24499994423,150365.059,150704.205,,13,that
screen,html.Screen,2_1_0_1_14,2021-04-24T14:06:39.690Z,,,,,,,,,,,,,,,,,53,,,,,,,,,,,,,,390.9499999881664,,response,,,,99,,,,,,,Space,keypress(Space),,,,,,,,---- -- ----- -- ------ - ------- --- ----------<br>------------- ------ ------ ---- ---- feeling ----- -- ----<br>-------- ------- -- ---------- --- - --- ----- ----- ----<br>---- --- --- ----- --- ---- ---- ------- ----- ---- -------<br>--- --- -- ----- -- --- ---- -- --- ---- -- ------ ------<br>--- ----- -- ----,151096.10500000417,151095.15499998815,150687.56,150691.5249999147,150704.205,151103.564,,14,feeling
screen,html.Screen,2_1_0_1_15,2021-04-24T14:06:40.085Z,,,,,,,,,,,,,,,,,53,,,,,,,,,,,,,,386.38599995919503,,response,,,,99,,,,,,,Space,keypress(Space),,,,,,,,---- -- ----- -- ------ - ------- --- ----------<br>------------- ------ ------ ---- ---- ------- close -- ----<br>-------- ------- -- ---------- --- - --- ----- ----- ----<br>---- --- --- ----- --- ---- ---- ------- ----- ---- -------<br>--- --- -- ----- -- --- ---- -- --- ---- -- ------ ------<br>--- ----- -- ----,151490.84499990568,151489.9499999592,151086.879,151096.27499990165,151103.564,151502.882,,15,close
screen,html.Screen,2_1_0_1_16,2021-04-24T14:06:40.440Z,,,,,,,,,,,,,,,,,53,,,,,,,,,,,,,,341.88299992887187,,response,,,,99,,,,,,,Space,keypress(Space),,,,,,,,---- -- ----- -- ------ - ------- --- ----------<br>------------- ------ ------ ---- ---- ------- ----- to ----<br>-------- ------- -- ---------- --- - --- ----- ----- ----<br>---- --- --- ----- --- ---- ---- ------- ----- ---- -------<br>--- --- -- ----- -- --- ---- -- --- ---- -- ------ ------<br>--- ----- -- ----,151845.68999998737,151844.76499992888,151486.176,151491.0099999979,151502.882,151852.302,,16,to
screen,html.Screen,2_1_0_1_17,2021-04-24T14:06:40.804Z,,,,,,,,,,,,,,,,,53,,,,,,,,,,,,,,356.72799991085776,,response,,,,99,,,,,,,Space,keypress(Space),,,,,,,,---- -- ----- -- ------ - ------- --- ----------<br>------------- ------ ------ ---- ---- ------- ----- -- your<br>-------- ------- -- ---------- --- - --- ----- ----- ----<br>---- --- --- ----- --- ---- ---- ------- ----- ---- -------<br>--- --- -- ----- -- --- ---- -- --- ---- -- ------ ------<br>--- ----- -- ----,152209.76999995764,152209.02999991085,151835.634,151845.93499999028,151852.302,152218.37,,17,your
screen,html.Screen,2_1_0_1_18,2021-04-24T14:06:41.159Z,,,,,,,,,,,,,,,,,53,,,,,,,,,,,,,,345.5049999925541,,response,,,,99,,,,,,,Space,keypress(Space),,,,,,,,---- -- ----- -- ------ - ------- --- ----------<br>------------- ------ ------ ---- ---- ------- ----- -- ----<br>romantic ------- -- ---------- --- - --- ----- ----- ----<br>---- --- --- ----- --- ---- ---- ------- ----- ---- -------<br>--- --- -- ----- -- --- ---- -- --- ---- -- ------ ------<br>--- ----- -- ----,152564.59500000346,152563.87499999255,152201.731,152209.9149998976,152218.37,152567.727,,18,romantic
screen,html.Screen,2_1_0_1_19,2021-04-24T14:06:41.559Z,,,,,,,,,,,,,,,,,53,,,,,,,,,,,,,,395.93799993017456,,response,,,,99,,,,,,,Space,keypress(Space),,,,,,,,---- -- ----- -- ------ - ------- --- ----------<br>------------- ------ ------ ---- ---- ------- ----- -- ----<br>-------- partner -- ---------- --- - --- ----- ----- ----<br>---- --- --- ----- --- ---- ---- ------- ----- ---- -------<br>--- --- -- ----- -- --- ---- -- --- ---- -- ------ ------<br>--- ----- -- ----,152964.3999999389,152963.6649999302,152551.129,152564.74499998149,152567.727,152967.056,,19,partner
screen,html.Screen,2_1_0_1_20,2021-04-24T14:06:41.913Z,,,,,,,,,,,,,,,,,53,,,,,,,,,,,,,,351.0739999123325,,response,,,,99,,,,,,,Space,keypress(Space),,,,,,,,---- -- ----- -- ------ - ------- --- ----------<br>------------- ------ ------ ---- ---- ------- ----- -- ----<br>-------- ------- is ---------- --- - --- ----- ----- ----<br>---- --- --- ----- --- ---- ---- ------- ----- ---- -------<br>--- --- -- ----- -- --- ---- -- --- ---- -- ------ ------<br>--- ----- -- ----,153319.16499999352,153318.12999991234,152950.495,152964.554999955,152967.056,153333.243,,20,is
screen,html.Screen,2_1_0_1_21,2021-04-24T14:06:42.311Z,,,,,,,,,,,,,,,,,53,,,,,,,,,,,,,,382.2619999710296,,response,,,,99,,,,,,,Space,keypress(Space),,,,,,,,---- -- ----- -- ------ - ------- --- ----------<br>------------- ------ ------ ---- ---- ------- ----- -- ----<br>-------- ------- -- paramount. --- - --- ----- ----- ----<br>---- --- --- ----- --- ---- ---- ------- ----- ---- -------<br>--- --- -- ----- -- --- ---- -- --- ---- -- ------ ------<br>--- ----- -- ----,153716.4299999131,153715.50499997102,153316.504,153319.38999996055,153333.243,153782.417,,21,paramount.
screen,html.Screen,2_1_0_1_22,2021-04-24T14:06:43.753Z,,,,,,,,,,,,,,,,,53,,,,,,,,,,,,,,1375.7629999112396,,response,,,,99,,,,,,,Space,keypress(Space),,,,,,,,---- -- ----- -- ------ - ------- --- ----------<br>------------- ------ ------ ---- ---- ------- ----- -- ----<br>-------- ------- -- ---------- But - --- ----- ----- ----<br>---- --- --- ----- --- ---- ---- ------- ----- ---- -------<br>--- --- -- ----- -- --- ---- -- --- ---- -- ------ ------<br>--- ----- -- ----,155158.8899999624,155158.17999991123,153715.934,153716.69499995187,153782.417,155163.555,,22,But
screen,html.Screen,2_1_0_1_23,2021-04-24T14:06:44.147Z,,,,,,,,,,,,,,,,,53,,,,,,,,,,,,,,387.9499999812688,,response,,,,99,,,,,,,Space,keypress(Space),,,,,,,,---- -- ----- -- ------ - ------- --- ----------<br>------------- ------ ------ ---- ---- ------- ----- -- ----<br>-------- ------- -- ---------- --- a --- ----- ----- ----<br>---- --- --- ----- --- ---- ---- ------- ----- ---- -------<br>--- --- -- ----- -- --- ---- -- --- ---- -- ------ ------<br>--- ----- -- ----,155552.4799999548,155551.50499998126,155146.843,155159.0449999785,155163.555,155562.914,,23,a
screen,html.Screen,2_1_0_1_24,2021-04-24T14:06:44.536Z,,,,,,,,,,,,,,,,,53,,,,,,,,,,,,,,378.2509999674512,,response,,,,99,,,,,,,Space,keypress(Space),,,,,,,,---- -- ----- -- ------ - ------- --- ----------<br>------------- ------ ------ ---- ---- ------- ----- -- ----<br>-------- ------- -- ---------- --- - new ----- ----- ----<br>---- --- --- ----- --- ---- ---- ------- ----- ---- -------<br>--- --- -- ----- -- --- ---- -- --- ---- -- ------ ------<br>--- ----- -- ----,155941.92000001203,155941.16499996744,155546.168,155552.6649999665,155562.914,155945.573,,24,new
screen,html.Screen,2_1_0_1_25,2021-04-24T14:06:44.961Z,,,,,,,,,,,,,,,,,53,,,,,,,,,,,,,,420.15699996132753,,response,,,,99,,,,,,,Space,keypress(Space),,,,,,,,---- -- ----- -- ------ - ------- --- ----------<br>------------- ------ ------ ---- ---- ------- ----- -- ----<br>-------- ------- -- ---------- --- - --- study ----- ----<br>---- --- --- ----- --- ---- ---- ------- ----- ---- -------<br>--- --- -- ----- -- --- ---- -- --- ---- -- ------ ------<br>--- ----- -- ----,156366.67499993928,156365.72999996133,155928.942,155942.06999999005,155945.573,156378.213,,25,study
screen,html.Screen,2_1_0_1_26,2021-04-24T14:06:45.321Z,,,,,,,,,,,,,,,,,53,,,,,,,,,,,,,,347.81199998175725,,response,,,,99,,,,,,,Space,keypress(Space),,,,,,,,---- -- ----- -- ------ - ------- --- ----------<br>------------- ------ ------ ---- ---- ------- ----- -- ----<br>-------- ------- -- ---------- --- - --- ----- finds ----<br>---- --- --- ----- --- ---- ---- ------- ----- ---- -------<br>--- --- -- ----- -- --- ---- -- --- ---- -- ------ ------<br>--- ----- -- ----,156726.94999992382,156726.02499998175,156361.575,156366.84999999125,156378.213,156760.948,,26,finds
screen,html.Screen,2_1_0_1_27,2021-04-24T14:06:45.895Z,,,,,,,,,,,,,,,,,53,,,,,,,,,,,,,,538.9469999455323,,response,,,,99,,,,,,,Space,keypress(Space),,,,,,,,---- -- ----- -- ------ - ------- --- ----------<br>------------- ------ ------ ---- ---- ------- ----- -- ----<br>-------- ------- -- ---------- --- - --- ----- ----- that<br>---- --- --- ----- --- ---- ---- ------- ----- ---- -------<br>--- --- -- ----- -- --- ---- -- --- ---- -- ------ ------<br>--- ----- -- ----,157300.63499999233,157299.89499994554,156744.297,156727.24999999627,156760.948,157310.043,,27,that
screen,html.Screen,2_1_0_1_28,2021-04-24T14:06:48.198Z,,,,,,,,,,,,,,,,,53,,,,,,,,,,,,,,2293.086999944935,,response,,,,99,,,,,,,Space,keypress(Space),,,,,,,,---- -- ----- -- ------ - ------- --- ----------<br>------------- ------ ------ ---- ---- ------- ----- -- ----<br>-------- ------- -- ---------- --- - --- ----- ----- ----<br>it's --- --- ----- --- ---- ---- ------- ----- ---- -------<br>--- --- -- ----- -- --- ---- -- --- ---- -- ------ ------<br>--- ----- -- ----,159603.88499998953,159603.12999994494,157293.42,157300.79000000842,157310.043,159606.174,,28,it's
screen,html.Screen,2_1_0_1_29,2021-04-24T14:06:48.528Z,,,,,,,,,,,,,,,,,53,,,,,,,,,,,,,,326.8859999520937,,response,,,,99,,,,,,,Space,keypress(Space),,,,,,,,---- -- ----- -- ------ - ------- --- ----------<br>------------- ------ ------ ---- ---- ------- ----- -- ----<br>-------- ------- -- ---------- --- - --- ----- ----- ----<br>---- not --- ----- --- ---- ---- ------- ----- ---- -------<br>--- --- -- ----- -- --- ---- -- --- ---- -- ------ ------<br>--- ----- -- ----,159933.79999999888,159933.0599999521,159589.539,159604.04000000563,159606.174,159938.987,,29,not
screen,html.Screen,2_1_0_1_30,2021-04-24T14:06:48.852Z,,,,,,,,,,,,,,,,,53,,,,,,,,,,,,,,318.35300001103315,,response,,,,99,,,,,,,Space,keypress(Space),,,,,,,,---- -- ----- -- ------ - ------- --- ----------<br>------------- ------ ------ ---- ---- ------- ----- -- ----<br>-------- ------- -- ---------- --- - --- ----- ----- ----<br>---- --- how ----- --- ---- ---- ------- ----- ---- -------<br>--- --- -- ----- -- --- ---- -- --- ---- -- ------ ------<br>--- ----- -- ----,160258.21499992162,160257.34000001103,159922.393,159933.95499989856,159938.987,160271.814,,30,how
screen,html.Screen,2_1_0_1_31,2021-04-24T14:06:49.227Z,,,,,,,,,,,,,,,,,53,,,,,,,,,,,,,,360.4159999883268,,response,,,,99,,,,,,,Space,keypress(Space),,,,,,,,---- -- ----- -- ------ - ------- --- ----------<br>------------- ------ ------ ---- ---- ------- ----- -- ----<br>-------- ------- -- ---------- --- - --- ----- ----- ----<br>---- --- --- close --- ---- ---- ------- ----- ---- -------<br>--- --- -- ----- -- --- ---- -- --- ---- -- ------ ------<br>--- ----- -- ----,160632.97999999486,160632.22999998834,160255.145,160258.4949999582,160271.814,160637.904,,31,close
screen,html.Screen,2_1_0_1_32,2021-04-24T14:06:49.592Z,,,,,,,,,,,,,,,,,53,,,,,,,,,,,,,,359.1760000009963,,response,,,,99,,,,,,,Space,keypress(Space),,,,,,,,---- -- ----- -- ------ - ------- --- ----------<br>------------- ------ ------ ---- ---- ------- ----- -- ----<br>-------- ------- -- ---------- --- - --- ----- ----- ----<br>---- --- --- ----- you ---- ---- ------- ----- ---- -------<br>--- --- -- ----- -- --- ---- -- --- ---- -- ------ ------<br>--- ----- -- ----,160998.0299999006,160997.080000001,160621.222,160633.1399999326,160637.904,161003.947,,32,you
screen,html.Screen,2_1_0_1_33,2021-04-24T14:06:49.967Z,,,,,,,,,,,,,,,,,53,,,,,,,,,,,,,,367.72299990587635,,response,,,,99,,,,,,,Space,keypress(Space),,,,,,,,---- -- ----- -- ------ - ------- --- ----------<br>------------- ------ ------ ---- ---- ------- ----- -- ----<br>-------- ------- -- ---------- --- - --- ----- ----- ----<br>---- --- --- ----- --- feel ---- ------- ----- ---- -------<br>--- --- -- ----- -- --- ---- -- --- ---- -- ------ ------<br>--- ----- -- ----,161372.49999993946,161371.66999990586,160987.316,160998.26999998186,161003.947,161469.767,,33,feel
screen,html.Screen,2_1_0_1_34,2021-04-24T14:06:50.272Z,,,,,,,,,,,,,,,,,53,,,,,,,,,,,,,,206.93799999076873,,response,,,,99,,,,,,,Space,keypress(Space),,,,,,,,---- -- ----- -- ------ - ------- --- ----------<br>------------- ------ ------ ---- ---- ------- ----- -- ----<br>-------- ------- -- ---------- --- - --- ----- ----- ----<br>---- --- --- ----- --- ---- that ------- ----- ---- -------<br>--- --- -- ----- -- --- ---- -- --- ---- -- ------ ------<br>--- ----- -- ----,161677.7599999914,161676.70499999076,161453.151,161466.93999995477,161469.767,161686.172,,34,that
screen,html.Screen,2_1_0_1_35,2021-04-24T14:06:50.671Z,,,,,,,,,,,,,,,,,53,,,,,,,,,,,,,,389.9529999050137,,response,,,,99,,,,,,,Space,keypress(Space),,,,,,,,---- -- ----- -- ------ - ------- --- ----------<br>------------- ------ ------ ---- ---- ------- ----- -- ----<br>-------- ------- -- ---------- --- - --- ----- ----- ----<br>---- --- --- ----- --- ---- ---- matters ----- ---- -------<br>--- --- -- ----- -- --- ---- -- --- ---- -- ------ ------<br>--- ----- -- ----,162077.1399999503,162076.124999905,161669.461,161677.95499996282,161686.172,162085.573,,35,matters
screen,html.Screen,2_1_0_1_36,2021-04-24T14:06:51.042Z,,,,,,,,,,,,,,,,,53,,,,,,,,,,,,,,361.2119999200513,,response,,,,99,,,,,,,Space,keypress(Space),,,,,,,,"---- -- ----- -- ------ - ------- --- ----------<br>------------- ------ ------ ---- ---- ------- ----- -- ----<br>-------- ------- -- ---------- --- - --- ----- ----- ----<br>---- --- --- ----- --- ---- ---- ------- most, ---- -------<br>--- --- -- ----- -- --- ---- -- --- ---- -- ------ ------<br>--- ----- -- ----",162447.9899998987,162446.78499992006,162068.843,162078.1849999912,162085.573,162451.509,,36,"most,"
screen,html.Screen,2_1_0_1_37,2021-04-24T14:06:51.351Z,,,,,,,,,,,,,,,,,53,,,,,,,,,,,,,,304.12599995042547,,response,,,,99,,,,,,,Space,keypress(Space),,,,,,,,---- -- ----- -- ------ - ------- --- ----------<br>------------- ------ ------ ---- ---- ------- ----- -- ----<br>-------- ------- -- ---------- --- - --- ----- ----- ----<br>---- --- --- ----- --- ---- ---- ------- ----- it's -------<br>--- --- -- ----- -- --- ---- -- --- ---- -- ------ ------<br>--- ----- -- ----,162756.69499998912,162755.63499995042,162434.944,162448.19499994628,162451.509,162767.715,,37,it's
screen,html.Screen,2_1_0_1_38,2021-04-24T14:06:51.743Z,,,,,,,,,,,,,,,,,53,,,,,,,,,,,,,,380.4999999355932,,response,,,,99,,,,,,,Space,keypress(Space),,,,,,,,---- -- ----- -- ------ - ------- --- ----------<br>------------- ------ ------ ---- ---- ------- ----- -- ----<br>-------- ------- -- ---------- --- - --- ----- ----- ----<br>---- --- --- ----- --- ---- ---- ------- ----- ---- whether<br>--- --- -- ----- -- --- ---- -- --- ---- -- ------ ------<br>--- ----- -- ----,163148.9349999465,163148.2149999356,162751.079,162756.90999999642,162767.715,163174.481,,38,whether
screen,html.Screen,2_1_0_1_39,2021-04-24T14:06:52.200Z,,,,,,,,,,,,,,,,,53,,,,,,,,,,,,,,430.4439999923634,,response,,,,99,,,,,,,Space,keypress(Space),,,,,,,,---- -- ----- -- ------ - ------- --- ----------<br>------------- ------ ------ ---- ---- ------- ----- -- ----<br>-------- ------- -- ---------- --- - --- ----- ----- ----<br>---- --- --- ----- --- ---- ---- ------- ----- ---- -------<br>you --- -- ----- -- --- ---- -- --- ---- -- ------ ------<br>--- ----- -- ----,163605.66000000108,163604.92499999236,163133.795,163149.08499992453,163174.481,163616.324,,39,you
screen,html.Screen,2_1_0_1_40,2021-04-24T14:06:52.529Z,,,,,,,,,,,,,,,,,53,,,,,,,,,,,,,,317.9159999732219,,response,,,,99,,,,,,,Space,keypress(Space),,,,,,,,---- -- ----- -- ------ - ------- --- ----------<br>------------- ------ ------ ---- ---- ------- ----- -- ----<br>-------- ------- -- ---------- --- - --- ----- ----- ----<br>---- --- --- ----- --- ---- ---- ------- ----- ---- -------<br>--- are -- ----- -- --- ---- -- --- ---- -- ------ ------<br>--- ----- -- ----,163935.07000000682,163934.23999997322,163599.662,163605.80499994103,163616.324,163949.029,,40,are
screen,html.Screen,2_1_0_1_41,2021-04-24T14:06:52.749Z,,,,,,,,,,,,,,,,,53,,,,,,,,,,,,,,205.53599997525453,,response,,,,99,,,,,,,Space,keypress(Space),,,,,,,,---- -- ----- -- ------ - ------- --- ----------<br>------------- ------ ------ ---- ---- ------- ----- -- ----<br>-------- ------- -- ---------- --- - --- ----- ----- ----<br>---- --- --- ----- --- ---- ---- ------- ----- ---- -------<br>--- --- as ----- -- --- ---- -- --- ---- -- ------ ------<br>--- ----- -- ----,164155.28499998618,164154.56499997526,163932.444,163935.30999997165,163949.029,164165.393,,41,as
screen,html.Screen,2_1_0_1_42,2021-04-24T14:06:53.124Z,,,,,,,,,,,,,,,,,53,,,,,,,,,,,,,,363.4769999218697,,response,,,,99,,,,,,,Space,keypress(Space),,,,,,,,---- -- ----- -- ------ - ------- --- ----------<br>------------- ------ ------ ---- ---- ------- ----- -- ----<br>-------- ------- -- ---------- --- - --- ----- ----- ----<br>---- --- --- ----- --- ---- ---- ------- ----- ---- -------<br>--- --- -- close -- --- ---- -- --- ---- -- ------ ------<br>--- ----- -- ----,164529.52499990351,164528.86999992188,164148.807,164155.42999992613,164165.393,164531.419,,42,close
screen,html.Screen,2_1_0_1_43,2021-04-24T14:06:53.409Z,,,,,,,,,,,,,,,,,53,,,,,,,,,,,,,,282.48599998815916,,response,,,,99,,,,,,,Space,keypress(Space),,,,,,,,---- -- ----- -- ------ - ------- --- ----------<br>------------- ------ ------ ---- ---- ------- ----- -- ----<br>-------- ------- -- ---------- --- - --- ----- ----- ----<br>---- --- --- ----- --- ---- ---- ------- ----- ---- -------<br>--- --- -- ----- as --- ---- -- --- ---- -- ------ ------<br>--- ----- -- ----,164814.87000000197,164813.90499998815,164514.856,164529.67499999795,164531.419,164831.078,,43,as
screen,html.Screen,2_1_0_1_44,2021-04-24T14:06:53.878Z,,,,,,,,,,,,,,,,,53,,,,,,,,,,,,,,452.29699999906006,,response,,,,99,,,,,,,Space,keypress(Space),,,,,,,,---- -- ----- -- ------ - ------- --- ----------<br>------------- ------ ------ ---- ---- ------- ----- -- ----<br>-------- ------- -- ---------- --- - --- ----- ----- ----<br>---- --- --- ----- --- ---- ---- ------- ----- ---- -------<br>--- --- -- ----- -- you ---- -- --- ---- -- ------ ------<br>--- ----- -- ----,165284.1550000012,165283.37499999907,164814.392,164815.08500000928,164831.078,165296.824,,44,you
screen,html.Screen,2_1_0_1_45,2021-04-24T14:06:54.269Z,,,,,,,,,,,,,,,,,53,,,,,,,,,,,,,,376.3609999632754,,response,,,,99,,,,,,,Space,keypress(Space),,,,,,,,---- -- ----- -- ------ - ------- --- ----------<br>------------- ------ ------ ---- ---- ------- ----- -- ----<br>-------- ------- -- ---------- --- - --- ----- ----- ----<br>---- --- --- ----- --- ---- ---- ------- ----- ---- -------<br>--- --- -- ----- -- --- want -- --- ---- -- ------ ------<br>--- ----- -- ----,165674.3799999822,165673.18499996327,165280.277,165285.95499997027,165296.824,165679.571,,45,want
screen,html.Screen,2_1_0_1_46,2021-04-24T14:06:54.703Z,,,,,,,,,,,,,,,,,53,,,,,,,,,,,,,,428.27399999136105,,response,,,,99,,,,,,,Space,keypress(Space),,,,,,,,---- -- ----- -- ------ - ------- --- ----------<br>------------- ------ ------ ---- ---- ------- ----- -- ----<br>-------- ------- -- ---------- --- - --- ----- ----- ----<br>---- --- --- ----- --- ---- ---- ------- ----- ---- -------<br>--- --- -- ----- -- --- ---- to --- ---- -- ------ ------<br>--- ----- -- ----,166108.78499993123,166107.84499999136,165662.911,165674.5649999939,165679.571,166112.168,,46,to
screen,html.Screen,2_1_0_1_47,2021-04-24T14:06:55.046Z,,,,,,,,,,,,,,,,,53,,,,,,,,,,,,,,339.3869999196031,,response,,,,99,,,,,,,Space,keypress(Space),,,,,,,,"---- -- ----- -- ------ - ------- --- ----------<br>------------- ------ ------ ---- ---- ------- ----- -- ----<br>-------- ------- -- ---------- --- - --- ----- ----- ----<br>---- --- --- ----- --- ---- ---- ------- ----- ---- -------<br>--- --- -- ----- -- --- ---- -- be, ---- -- ------ ------<br>--- ----- -- ----",166452.249999973,166451.5549999196,166095.545,166108.99499990046,166112.168,166461.637,,47,"be,"
screen,html.Screen,2_1_0_1_48,2021-04-24T14:06:55.432Z,,,,,,,,,,,,,,,,,53,,,,,,,,,,,,,,375.5129999193596,,response,,,,99,,,,,,,Space,keypress(Space),,,,,,,,---- -- ----- -- ------ - ------- --- ----------<br>------------- ------ ------ ---- ---- ------- ----- -- ----<br>-------- ------- -- ---------- --- - --- ----- ----- ----<br>---- --- --- ----- --- ---- ---- ------- ----- ---- -------<br>--- --- -- ----- -- --- ---- -- --- even -- ------ ------<br>--- ----- -- ----,166837.8800000064,166837.14999991935,166445.033,166452.38999999128,166461.637,166844.376,,48,even
screen,html.Screen,2_1_0_1_49,2021-04-24T14:06:55.807Z,,,,,,,,,,,,,,,,,53,,,,,,,,,,,,,,367.5439999142545,,response,,,,99,,,,,,,Space,keypress(Space),,,,,,,,---- -- ----- -- ------ - ------- --- ----------<br>------------- ------ ------ ---- ---- ------- ----- -- ----<br>-------- ------- -- ---------- --- - --- ----- ----- ----<br>---- --- --- ----- --- ---- ---- ------- ----- ---- -------<br>--- --- -- ----- -- --- ---- -- --- ---- if ------ ------<br>--- ----- -- ----,167212.91999996174,167211.91999991424,166827.741,166838.02499994636,166844.376,167227.09,,49,if
screen,html.Screen,2_1_0_1_50,2021-04-24T14:06:56.216Z,,,,,,,,,,,,,,,,,53,,,,,,,,,,,,,,394.4250000061875,,response,,,,99,,,,,,,Space,keypress(Space),,,,,,,,---- -- ----- -- ------ - ------- --- ----------<br>------------- ------ ------ ---- ---- ------- ----- -- ----<br>-------- ------- -- ---------- --- - --- ----- ----- ----<br>---- --- --- ----- --- ---- ---- ------- ----- ---- -------<br>--- --- -- ----- -- --- ---- -- --- ---- -- that's ------<br>--- ----- -- ----,167622.2499998985,167621.51500000618,167210.419,167213.11999997124,167227.09,167626.401,,50,that's
screen,html.Screen,2_1_0_1_51,2021-04-24T14:06:56.556Z,,,,,,,,,,,,,,,,,53,,,,,,,,,,,,,,334.62900000583613,,response,,,,99,,,,,,,Space,keypress(Space),,,,,,,,---- -- ----- -- ------ - ------- --- ----------<br>------------- ------ ------ ---- ---- ------- ----- -- ----<br>-------- ------- -- ---------- --- - --- ----- ----- ----<br>---- --- --- ----- --- ---- ---- ------- ----- ---- -------<br>--- --- -- ----- -- --- ---- -- --- ---- -- ------ really<br>--- ----- -- ----,167962.0049999794,167961.03000000585,167609.788,167622.38499999512,167626.401,167975.863,,51,really
screen,html.Screen,2_1_0_1_52,2021-04-24T14:06:56.931Z,,,,,,,,,,,,,,,,,53,,,,,,,,,,,,,,360.2019999230979,,response,,,,99,,,,,,,Space,keypress(Space),,,,,,,,---- -- ----- -- ------ - ------- --- ----------<br>------------- ------ ------ ---- ---- ------- ----- -- ----<br>-------- ------- -- ---------- --- - --- ----- ----- ----<br>---- --- --- ----- --- ---- ---- ------- ----- ---- -------<br>--- --- -- ----- -- --- ---- -- --- ---- -- ------ ------<br>not ----- -- ----,168336.7899999721,168336.0649999231,167959.202,167962.22499990836,167975.863,168341.852,,52,not
screen,html.Screen,2_1_0_1_53,2021-04-24T14:06:57.251Z,,,,,,,,,,,,,,,,,53,,,,,,,,,,,,,,313.9479999495088,,response,,,,99,,,,,,,Space,keypress(Space),,,,,,,,---- -- ----- -- ------ - ------- --- ----------<br>------------- ------ ------ ---- ---- ------- ----- -- ----<br>-------- ------- -- ---------- --- - --- ----- ----- ----<br>---- --- --- ----- --- ---- ---- ------- ----- ---- -------<br>--- --- -- ----- -- --- ---- -- --- ---- -- ------ ------<br>--- close -- ----,168656.54499991797,168655.79999994952,168325.281,168336.9299999904,168341.852,168681.949,,53,close
screen,html.Screen,2_1_0_1_54,2021-04-24T14:06:57.770Z,,,,,,,,,,,,,,,,,53,,,,,,,,,,,,,,493.43599995135446,,response,,,,99,,,,,,,Space,keypress(Space),,,,,,,,---- -- ----- -- ------ - ------- --- ----------<br>------------- ------ ------ ---- ---- ------- ----- -- ----<br>-------- ------- -- ---------- --- - --- ----- ----- ----<br>---- --- --- ----- --- ---- ---- ------- ----- ---- -------<br>--- --- -- ----- -- --- ---- -- --- ---- -- ------ ------<br>--- ----- at ----,169176.3149999315,169175.38499995135,168641.427,168656.6799998982,168681.949,169190.49,,54,at
screen,html.Screen,2_1_0_1_55,2021-04-24T14:06:58.485Z,,,,,,,,,,,,,,,,,53,,,,,,,,,,,,,,699.5299999334384,,response,,,,99,,,,,,,Space,keypress(Space),,,,,,,,---- -- ----- -- ------ - ------- --- ----------<br>------------- ------ ------ ---- ---- ------- ----- -- ----<br>-------- ------- -- ---------- --- - --- ----- ----- ----<br>---- --- --- ----- --- ---- ---- ------- ----- ---- -------<br>--- --- -- ----- -- --- ---- -- --- ---- -- ------ ------<br>--- ----- -- all.,169891.24999998603,169890.01999993343,169173.873,169176.58500000834,169190.49,169906.025,,55,all.
Item 99,flow.Loop,2_1_0_1,2021-04-24T14:06:58.486Z,,,,,,,,,,,,,,,,,,,,,,,,,,,,,,,29602.141999933432,,completion,,,,,B,,,,,,,,,,,silence,,,,,169891.54999994207,169890.01999993343,140104.941,140106.0099999886,140287.878,169906.025,,,
Question 1,html.Screen,2_1_0_2,2021-04-24T14:07:03.511Z,,,,,,,,,,,,,,,,,,,,,,,,,,,,true,FALSE,,5010.139999944164,,response,,,,99,B,,,,,,FALSE,click #choice-2,,,,silence,,,,,174917.2499999404,174916.16499994416,169889.404,169891.71999995597,169906.025,174947.727,,,
Question 2,html.Screen,2_1_0_3,2021-04-24T14:07:09.875Z,,,,,,,,,,,,,,,,,,,,,,,,,,,,true,TRUE,,6332.597999941499,,response,,,,99,B,,,,,,TRUE,click #choice-1,,,,silence,,,,,181281.24499996193,181280.3249999415,174931.102,174917.40999999456,174947.727,181287.336,,,
Item 99,flow.Sequence,2_1_0,2021-04-24T14:07:09.876Z,,,,,,,,,,,,,,,,,,,,,,,,,,,,,,,51159.03199994151,,completion,,,,,,,,,,,,,,,,,,,,,181281.4650000073,181280.3249999415,130088.008,130126.53000000864,130121.293,181287.336,,,
Holding screen,html.Screen,2_1_1_0,2021-04-24T14:07:19.867Z,,,,,,,,,,,,,,,,,,,,,,,,,,,,,,,10000.214999999997,,timeout,,,,,,,,,,,,,,,,,,,,,191271.6449999716,191270.962,181270.654,181281.61499998532,181287.336,191287.551,,,
screen,html.Screen,2_1_1_1_0,2021-04-24T14:07:20.382Z,,,,,,,,,,,,,,,,,54,,,,,,,,,,,,,,497.6339999278716,,response,,,,100,,,,,,,Space,keypress(Space),,,,,,,,At --- ---- --- ------ ----- ------- ---- -- --- ------- --<br>------- ---------- ------ -- ----- -- ----- -- ---- ------<br>--- ----- --- --- ------ -------- ----- --- ------ ----- --<br>----- ----- ---------- --- --- ------ ------ ---- -- ------<br>------- --- ------ ----- --- ---- ------- -- ---- --- --<br>------- ------,191786.09999991022,191785.18499992788,191270.962,191272.00999995694,191287.551,191786.696,,0,At
screen,html.Screen,2_1_1_1_1,2021-04-24T14:07:20.676Z,,,,,,,,,,,,,,,,,54,,,,,,,,,,,,,,293.0189999998547,,response,,,,100,,,,,,,Space,keypress(Space),,,,,,,,-- the ---- --- ------ ----- ------- ---- -- --- ------- --<br>------- ---------- ------ -- ----- -- ----- -- ---- ------<br>--- ----- --- --- ------ -------- ----- --- ------ ----- --<br>----- ----- ---------- --- --- ------ ------ ---- -- ------<br>------- --- ------ ----- --- ---- ------- -- ---- --- --<br>------- ------,192080.31999995,192079.71499999985,191770.093,191786.2749999622,191786.696,192086.243,,1,the
screen,html.Screen,2_1_1_1_2,2021-04-24T14:07:20.911Z,,,,,,,,,,,,,,,,,54,,,,,,,,,,,,,,228.18199998958153,,response,,,,100,,,,,,,Space,keypress(Space),,,,,,,,-- --- time --- ------ ----- ------- ---- -- --- ------- --<br>------- ---------- ------ -- ----- -- ----- -- ---- ------<br>--- ----- --- --- ------ -------- ----- --- ------ ----- --<br>----- ----- ---------- --- --- ------ ------ ---- -- ------<br>------- --- ------ ----- --- ---- ------- -- ---- --- --<br>------- ------,192315.03999989945,192314.42499998957,192069.573,192080.45499993023,192086.243,192319.337,,2,time
screen,html.Screen,2_1_1_1_3,2021-04-24T14:07:21.261Z,,,,,,,,,,,,,,,,,54,,,,,,,,,,,,,,345.24299998237984,,response,,,,100,,,,,,,Space,keypress(Space),,,,,,,,-- --- ---- the ------ ----- ------- ---- -- --- ------- --<br>------- ---------- ------ -- ----- -- ----- -- ---- ------<br>--- ----- --- --- ------ -------- ----- --- ------ ----- --<br>----- ----- ---------- --- --- ------ ------ ---- -- ------<br>------- --- ------ ----- --- ---- ------- -- ---- --- --<br>------- ------,192665.19500000868,192664.57999998238,192302.58,192315.1749999961,192319.337,192668.602,,3,the
screen,html.Screen,2_1_1_1_4,2021-04-24T14:07:21.745Z,,,,,,,,,,,,,,,,,54,,,,,,,,,,,,,,480.1379999750643,,response,,,,100,,,,,,,Space,keypress(Space),,,,,,,,-- --- ---- --- French ----- ------- ---- -- --- ------- --<br>------- ---------- ------ -- ----- -- ----- -- ---- ------<br>--- ----- --- --- ------ -------- ----- --- ------ ----- --<br>----- ----- ---------- --- --- ------ ------ ---- -- ------<br>------- --- ------ ----- --- ---- ------- -- ---- --- --<br>------- ------,193149.57499993034,193148.73999997508,192652.034,192665.33499991056,192668.602,193172.665,,4,French
screen,html.Screen,2_1_1_1_5,2021-04-24T14:07:22.160Z,,,,,,,,,,,,,,,,,54,,,,,,,,,,,,,,390.5749999303662,,response,,,,100,,,,,,,Space,keypress(Space),,,,,,,,-- --- ---- --- ------ crown ------- ---- -- --- ------- --<br>------- ---------- ------ -- ----- -- ----- -- ---- ------<br>--- ----- --- --- ------ -------- ----- --- ------ ----- --<br>----- ----- ---------- --- --- ------ ------ ---- -- ------<br>------- --- ------ ----- --- ---- ------- -- ---- --- --<br>------- ------,193564.03999996837,193563.23999993037,193134.594,193149.83499993104,193172.665,193567.106,,5,crown
screen,html.Screen,2_1_1_1_6,2021-04-24T14:07:22.599Z,,,,,,,,,,,,,,,,,54,,,,,,,,,,,,,,435.84399999459856,,response,,,,100,,,,,,,Space,keypress(Space),,,,,,,,-- --- ---- --- ------ ----- secured ---- -- --- ------- --<br>------- ---------- ------ -- ----- -- ----- -- ---- ------<br>--- ----- --- --- ------ -------- ----- --- ------ ----- --<br>----- ----- ---------- --- --- ------ ------ ---- -- ------<br>------- --- ------ ----- --- ---- ------- -- ---- --- --<br>------- ------,194003.78999998793,194002.9499999946,193550.52,193564.23999997787,193567.106,194016.446,,6,secured
screen,html.Screen,2_1_1_1_7,2021-04-24T14:07:23.014Z,,,,,,,,,,,,,,,,,54,,,,,,,,,,,,,,401.17900000186637,,response,,,,100,,,,,,,Space,keypress(Space),,,,,,,,-- --- ---- --- ------ ----- ------- much -- --- ------- --<br>------- ---------- ------ -- ----- -- ----- -- ---- ------<br>--- ----- --- --- ------ -------- ----- --- ------ ----- --<br>----- ----- ---------- --- --- ------ ------ ---- -- ------<br>------- --- ------ ----- --- ---- ------- -- ---- --- --<br>------- ------,194418.42499992345,194417.62500000186,193999.726,194003.99999995716,194016.446,194432.361,,7,much
screen,html.Screen,2_1_1_1_8,2021-04-24T14:07:23.394Z,,,,,,,,,,,,,,,,,54,,,,,,,,,,,,,,365.06399999701534,,response,,,,100,,,,,,,Space,keypress(Space),,,,,,,,-- --- ---- --- ------ ----- ------- ---- of --- ------- --<br>------- ---------- ------ -- ----- -- ----- -- ---- ------<br>--- ----- --- --- ------ -------- ----- --- ------ ----- --<br>----- ----- ---------- --- --- ------ ------ ---- -- ------<br>------- --- ------ ----- --- ---- ------- -- ---- --- --<br>------- ------,194798.14500000793,194797.42499999702,194415.759,194419.5849999087,194432.361,194815.132,,8,of
screen,html.Screen,2_1_1_1_9,2021-04-24T14:07:23.763Z,,,,,,,,,,,,,,,,,54,,,,,,,,,,,,,,351.49299995435285,,response,,,,100,,,,,,,Space,keypress(Space),,,,,,,,-- --- ---- --- ------ ----- ------- ---- -- its ------- --<br>------- ---------- ------ -- ----- -- ----- -- ---- ------<br>--- ----- --- --- ------ -------- ----- --- ------ ----- --<br>----- ----- ---------- --- --- ------ ------ ---- -- ------<br>------- --- ------ ----- --- ---- ------- -- ---- --- --<br>------- ------,195167.4949999433,195166.62499995437,194798.424,194798.2849999098,194815.132,195181.188,,9,its
screen,html.Screen,2_1_1_1_10,2021-04-24T14:07:24.218Z,,,,,,,,,,,,,,,,,54,,,,,,,,,,,,,,440.34699992564856,,response,,,,100,,,,,,,Space,keypress(Space),,,,,,,,-- --- ---- --- ------ ----- ------- ---- -- --- revenue --<br>------- ---------- ------ -- ----- -- ----- -- ---- ------<br>--- ----- --- --- ------ -------- ----- --- ------ ----- --<br>----- ----- ---------- --- --- ------ ------ ---- -- ------<br>------- --- ------ ----- --- ---- ------- -- ---- --- --<br>------- ------,195622.45499994606,195621.53499992564,195164.552,195167.82500001136,195181.188,195630.465,,10,revenue
screen,html.Screen,2_1_1_1_11,2021-04-24T14:07:24.618Z,,,,,,,,,,,,,,,,,54,,,,,,,,,,,,,,390.7299999211391,,response,,,,100,,,,,,,Space,keypress(Space),,,,,,,,-- --- ---- --- ------ ----- ------- ---- -- --- ------- by<br>------- ---------- ------ -- ----- -- ----- -- ---- ------<br>--- ----- --- --- ------ -------- ----- --- ------ ----- --<br>----- ----- ---------- --- --- ------ ------ ---- -- ------<br>------- --- ------ ----- --- ---- ------- -- ---- --- --<br>------- ------,196021.92999992985,196021.19499992114,195613.828,195622.63999995776,195630.465,196029.778,,11,by
screen,html.Screen,2_1_1_1_12,2021-04-24T14:07:25.047Z,,,,,,,,,,,,,,,,,54,,,,,,,,,,,,,,421.1319998977124,,response,,,,100,,,,,,,Space,keypress(Space),,,,,,,,-- --- ---- --- ------ ----- ------- ---- -- --- ------- --<br>issuing ---------- ------ -- ----- -- ----- -- ---- ------<br>--- ----- --- --- ------ -------- ----- --- ------ ----- --<br>----- ----- ---------- --- --- ------ ------ ---- -- ------<br>------- --- ------ ----- --- ---- ------- -- ---- --- --<br>------- ------,196451.61499991082,196450.9099998977,196013.168,196022.07499998622,196029.778,196462.339,,12,issuing
screen,html.Screen,2_1_1_1_13,2021-04-24T14:07:25.497Z,,,,,,,,,,,,,,,,,54,,,,,,,,,,,,,,438.2359999778273,,response,,,,100,,,,,,,Space,keypress(Space),,,,,,,,-- --- ---- --- ------ ----- ------- ---- -- --- ------- --<br>------- government ------ -- ----- -- ----- -- ---- ------<br>--- ----- --- --- ------ -------- ----- --- ------ ----- --<br>----- ----- ---------- --- --- ------ ------ ---- -- ------<br>------- --- ------ ----- --- ---- ------- -- ---- --- --<br>------- ------,196901.35499997996,196900.57499997783,196445.782,196451.7549999291,196462.339,196911.696,,13,government
screen,html.Screen,2_1_1_1_14,2021-04-24T14:07:25.982Z,,,,,,,,,,,,,,,,,54,,,,,,,,,,,,,,473.35399992438033,,response,,,,100,,,,,,,Space,keypress(Space),,,,,,,,-- --- ---- --- ------ ----- ------- ---- -- --- ------- --<br>------- ---------- bonds. -- ----- -- ----- -- ---- ------<br>--- ----- --- --- ------ -------- ----- --- ------ ----- --<br>----- ----- ---------- --- --- ------ ------ ---- -- ------<br>------- --- ------ ----- --- ---- ------- -- ---- --- --<br>------- ------,197385.9849999426,197385.04999992438,196895.022,196901.48999996018,196911.696,197394.224,,14,bonds.
screen,html.Screen,2_1_1_1_15,2021-04-24T14:07:26.391Z,,,,,,,,,,,,,,,,,54,,,,,,,,,,,,,,400.59099991380936,,response,,,,100,,,,,,,Space,keypress(Space),,,,,,,,-- --- ---- --- ------ ----- ------- ---- -- --- ------- --<br>------- ---------- ------ In ----- -- ----- -- ---- ------<br>--- ----- --- --- ------ -------- ----- --- ------ ----- --<br>----- ----- ---------- --- --- ------ ------ ---- -- ------<br>------- --- ------ ----- --- ---- ------- -- ---- --- --<br>------- ------,197795.77500000596,197794.8149999138,197377.587,197386.30999997258,197394.224,197810.227,,15,In
screen,html.Screen,2_1_1_1_16,2021-04-24T14:07:26.736Z,,,,,,,,,,,,,,,,,54,,,,,,,,,,,,,,329.14799991151085,,response,,,,100,,,,,,,Space,keypress(Space),,,,,,,,"-- --- ---- --- ------ ----- ------- ---- -- --- ------- --<br>------- ---------- ------ -- 1727, -- ----- -- ---- ------<br>--- ----- --- --- ------ -------- ----- --- ------ ----- --<br>----- ----- ---------- --- --- ------ ------ ---- -- ------<br>------- --- ------ ----- --- ---- ------- -- ---- --- --<br>------- ------",198140.24999993853,198139.37499991152,197793.541,197796.074999962,197810.227,198142.914,,16,"1727,"
screen,html.Screen,2_1_1_1_17,2021-04-24T14:07:28.084Z,,,,,,,,,,,,,,,,,54,,,,,,,,,,,,,,1344.7859999396605,,response,,,,100,,,,,,,Space,keypress(Space),,,,,,,,-- --- ---- --- ------ ----- ------- ---- -- --- ------- --<br>------- ---------- ------ -- ----- in ----- -- ---- ------<br>--- ----- --- --- ------ -------- ----- --- ------ ----- --<br>----- ----- ---------- --- --- ------ ------ ---- -- ------<br>------- --- ------ ----- --- ---- ------- -- ---- --- --<br>------- ------,199488.44999994617,199487.69999993965,198126.373,198140.47999994364,198142.914,199490.706,,17,in
screen,html.Screen,2_1_1_1_18,2021-04-24T14:07:28.859Z,,,,,,,,,,,,,,,,,54,,,,,,,,,,,,,,771.7789999556262,,response,,,,100,,,,,,,Space,keypress(Space),,,,,,,,-- --- ---- --- ------ ----- ------- ---- -- --- ------- --<br>------- ---------- ------ -- ----- -- order -- ---- ------<br>--- ----- --- --- ------ -------- ----- --- ------ ----- --<br>----- ----- ---------- --- --- ------ ------ ---- -- ------<br>------- --- ------ ----- --- ---- ------- -- ---- --- --<br>------- ------,200263.19500000682,200262.48499995563,199474.148,199488.59500000253,199490.706,200272.831,,18,order
screen,html.Screen,2_1_1_1_19,2021-04-24T14:07:29.249Z,,,,,,,,,,,,,,,,,54,,,,,,,,,,,,,,379.3339999776799,,response,,,,100,,,,,,,Space,keypress(Space),,,,,,,,-- --- ---- --- ------ ----- ------- ---- -- --- ------- --<br>------- ---------- ------ -- ----- -- ----- to ---- ------<br>--- ----- --- --- ------ -------- ----- --- ------ ----- --<br>----- ----- ---------- --- --- ------ ------ ---- -- ------<br>------- --- ------ ----- --- ---- ------- -- ---- --- --<br>------- ------,200652.87999995053,200652.1649999777,200256.2,200263.32999998704,200272.831,200655.484,,19,to
screen,html.Screen,2_1_1_1_20,2021-04-24T14:07:29.788Z,,,,,,,,,,,,,,,,,54,,,,,,,,,,,,,,536.1159999037045,,response,,,,100,,,,,,,Space,keypress(Space),,,,,,,,-- --- ---- --- ------ ----- ------- ---- -- --- ------- --<br>------- ---------- ------ -- ----- -- ----- -- save ------<br>--- ----- --- --- ------ -------- ----- --- ------ ----- --<br>----- ----- ---------- --- --- ------ ------ ---- -- ------<br>------- --- ------ ----- --- ---- ------- -- ---- --- --<br>------- ------,201192.3399999505,201191.5999999037,200638.891,200653.0250000069,200655.484,201204.642,,20,save
screen,html.Screen,2_1_1_1_21,2021-04-24T14:07:30.213Z,,,,,,,,,,,,,,,,,54,,,,,,,,,,,,,,411.4479999085888,,response,,,,100,,,,,,,Space,keypress(Space),,,,,,,,"-- --- ---- --- ------ ----- ------- ---- -- --- ------- --<br>------- ---------- ------ -- ----- -- ----- -- ---- money,<br>--- ----- --- --- ------ -------- ----- --- ------ ----- --<br>----- ----- ---------- --- --- ------ ------ ---- -- ------<br>------- --- ------ ----- --- ---- ------- -- ---- --- --<br>------- ------",201616.8249999173,201616.08999990858,201187.951,201192.4749999307,201204.642,201620.629,,21,"money,"
screen,html.Screen,2_1_1_1_22,2021-04-24T14:07:30.743Z,,,,,,,,,,,,,,,,,54,,,,,,,,,,,,,,525.7659999306488,,response,,,,100,,,,,,,Space,keypress(Space),,,,,,,,-- --- ---- --- ------ ----- ------- ---- -- --- ------- --<br>------- ---------- ------ -- ----- -- ----- -- ---- ------<br>the ----- --- --- ------ -------- ----- --- ------ ----- --<br>----- ----- ---------- --- --- ------ ------ ---- -- ------<br>------- --- ------ ----- --- ---- ------- -- ---- --- --<br>------- ------,202147.16499997303,202146.39499993064,201603.955,201616.9649999356,201620.629,202153.038,,22,the
screen,html.Screen,2_1_1_1_23,2021-04-24T14:07:31.106Z,,,,,,,,,,,,,,,,,54,,,,,,,,,,,,,,356.92699997563614,,response,,,,100,,,,,,,Space,keypress(Space),,,,,,,,-- --- ---- --- ------ ----- ------- ---- -- --- ------- --<br>------- ---------- ------ -- ----- -- ----- -- ---- ------<br>--- state --- --- ------ -------- ----- --- ------ ----- --<br>----- ----- ---------- --- --- ------ ------ ---- -- ------<br>------- --- ------ ----- --- ---- ------- -- ---- --- --<br>------- ------,202510.7199999038,202509.96499997564,202136.446,202147.31499995105,202153.038,202519.06,,23,state
screen,html.Screen,2_1_1_1_24,2021-04-24T14:07:31.507Z,,,,,,,,,,,,,,,,,54,,,,,,,,,,,,,,391.0649999366724,,response,,,,100,,,,,,,Space,keypress(Space),,,,,,,,-- --- ---- --- ------ ----- ------- ---- -- --- ------- --<br>------- ---------- ------ -- ----- -- ----- -- ---- ------<br>--- ----- cut --- ------ -------- ----- --- ------ ----- --<br>----- ----- ---------- --- --- ------ ------ ---- -- ------<br>------- --- ------ ----- --- ---- ------- -- ---- --- --<br>------- ------,202910.82999994978,202910.12499993667,202502.494,202510.85500000045,202519.06,202918.501,,24,cut
screen,html.Screen,2_1_1_1_25,2021-04-24T14:07:31.896Z,,,,,,,,,,,,,,,,,54,,,,,,,,,,,,,,381.3189999565366,,response,,,,100,,,,,,,Space,keypress(Space),,,,,,,,-- --- ---- --- ------ ----- ------- ---- -- --- ------- --<br>------- ---------- ------ -- ----- -- ----- -- ---- ------<br>--- ----- --- the ------ -------- ----- --- ------ ----- --<br>----- ----- ---------- --- --- ------ ------ ---- -- ------<br>------- --- ------ ----- --- ---- ------- -- ---- --- --<br>------- ------,203300.5150000099,203299.81999995653,202901.881,202910.96499993,202918.501,203334.415,,25,the
screen,html.Screen,2_1_1_1_26,2021-04-24T14:07:32.424Z,,,,,,,,,,,,,,,,,54,,,,,,,,,,,,,,492.9049999239214,,response,,,,100,,,,,,,Space,keypress(Space),,,,,,,,-- --- ---- --- ------ ----- ------- ---- -- --- ------- --<br>------- ---------- ------ -- ----- -- ----- -- ---- ------<br>--- ----- --- --- bonds' -------- ----- --- ------ ----- --<br>----- ----- ---------- --- --- ------ ------ ---- -- ------<br>------- --- ------ ----- --- ---- ------- -- ---- --- --<br>------- ------,203828.11499992386,203827.31999992393,203333.143,203300.65499991179,203334.415,203833.604,,26,bonds'
screen,html.Screen,2_1_1_1_27,2021-04-24T14:07:32.865Z,,,,,,,,,,,,,,,,,54,,,,,,,,,,,,,,434.94599992065923,,response,,,,100,,,,,,,Space,keypress(Space),,,,,,,,-- --- ---- --- ------ ----- ------- ---- -- --- ------- --<br>------- ---------- ------ -- ----- -- ----- -- ---- ------<br>--- ----- --- --- ------ interest ----- --- ------ ----- --<br>----- ----- ---------- --- --- ------ ------ ---- -- ------<br>------- --- ------ ----- --- ---- ------- -- ---- --- --<br>------- ------,204269.45499994326,204268.54999992065,203817.003,203828.25499994215,203833.604,204282.914,,27,interest
screen,html.Screen,2_1_1_1_28,2021-04-24T14:07:33.585Z,,,,,,,,,,,,,,,,,54,,,,,,,,,,,,,,705.3460000128252,,response,,,,100,,,,,,,Space,keypress(Space),,,,,,,,-- --- ---- --- ------ ----- ------- ---- -- --- ------- --<br>------- ---------- ------ -- ----- -- ----- -- ---- ------<br>--- ----- --- --- ------ -------- rate. --- ------ ----- --<br>----- ----- ---------- --- --- ------ ------ ---- -- ------<br>------- --- ------ ----- --- ---- ------- -- ---- --- --<br>------- ------,204989.15999999736,204988.26000001281,204266.285,204269.71499994397,204282.914,204998.477,,28,rate.
screen,html.Screen,2_1_1_1_29,2021-04-24T14:07:33.999Z,,,,,,,,,,,,,,,,,54,,,,,,,,,,,,,,404.30300000397256,,response,,,,100,,,,,,,Space,keypress(Space),,,,,,,,-- --- ---- --- ------ ----- ------- ---- -- --- ------- --<br>------- ---------- ------ -- ----- -- ----- -- ---- ------<br>--- ----- --- --- ------ -------- ----- The ------ ----- --<br>----- ----- ---------- --- --- ------ ------ ---- -- ------<br>------- --- ------ ----- --- ---- ------- -- ---- --- --<br>------- ------,205403.4999998985,205402.780000004,204981.766,204989.41999999806,204998.477,205414.392,,29,The
screen,html.Screen,2_1_1_1_30,2021-04-24T14:07:34.559Z,,,,,,,,,,,,,,,,,54,,,,,,,,,,,,,,548.198000010103,,response,,,,100,,,,,,,Space,keypress(Space),,,,,,,,-- --- ---- --- ------ ----- ------- ---- -- --- ------- --<br>------- ---------- ------ -- ----- -- ----- -- ---- ------<br>--- ----- --- --- ------ -------- ----- --- market ----- --<br>----- ----- ---------- --- --- ------ ------ ---- -- ------<br>------- --- ------ ----- --- ---- ------- -- ---- --- --<br>------- ------,205963.3099999046,205962.5900000101,205397.743,205403.62999995705,205414.392,205980.13,,30,market
screen,html.Screen,2_1_1_1_31,2021-04-24T14:07:34.979Z,,,,,,,,,,,,,,,,,54,,,,,,,,,,,,,,402.64999998535495,,response,,,,100,,,,,,,Space,keypress(Space),,,,,,,,-- --- ---- --- ------ ----- ------- ---- -- --- ------- --<br>------- ---------- ------ -- ----- -- ----- -- ---- ------<br>--- ----- --- --- ------ -------- ----- --- ------ value --<br>----- ----- ---------- --- --- ------ ------ ---- -- ------<br>------- --- ------ ----- --- ---- ------- -- ---- --- --<br>------- ------,206383.59499990474,206382.77999998536,205963.489,205963.57499994338,205980.13,206396.131,,31,value
screen,html.Screen,2_1_1_1_32,2021-04-24T14:07:35.423Z,,,,,,,,,,,,,,,,,54,,,,,,,,,,,,,,430.15899999724934,,response,,,,100,,,,,,,Space,keypress(Space),,,,,,,,-- --- ---- --- ------ ----- ------- ---- -- --- ------- --<br>------- ---------- ------ -- ----- -- ----- -- ---- ------<br>--- ----- --- --- ------ -------- ----- --- ------ ----- of<br>----- ----- ---------- --- --- ------ ------ ---- -- ------<br>------- --- ------ ----- --- ---- ------- -- ---- --- --<br>------- ------,206827.2349999752,206826.28999999724,206379.476,206383.73499992304,206396.131,206850.733,,32,of
screen,html.Screen,2_1_1_1_33,2021-04-24T14:07:35.807Z,,,,,,,,,,,,,,,,,54,,,,,,,,,,,,,,359.72699997294694,,response,,,,100,,,,,,,Space,keypress(Space),,,,,,,,-- --- ---- --- ------ ----- ------- ---- -- --- ------- --<br>------- ---------- ------ -- ----- -- ----- -- ---- ------<br>--- ----- --- --- ------ -------- ----- --- ------ ----- --<br>these ----- ---------- --- --- ------ ------ ---- -- ------<br>------- --- ------ ----- --- ---- ------- -- ---- --- --<br>------- ------,207211.4999999758,207210.45999997295,206812.105,206827.49999989755,206850.733,207228.081,,33,these
screen,html.Screen,2_1_1_1_34,2021-04-24T14:07:36.202Z,,,,,,,,,,,,,,,,,54,,,,,,,,,,,,,,377.53899992932566,,response,,,,100,,,,,,,Space,keypress(Space),,,,,,,,-- --- ---- --- ------ ----- ------- ---- -- --- ------- --<br>------- ---------- ------ -- ----- -- ----- -- ---- ------<br>--- ----- --- --- ------ -------- ----- --- ------ ----- --<br>----- bonds ---------- --- --- ------ ------ ---- -- ------<br>------- --- ------ ----- --- ---- ------- -- ---- --- --<br>------- ------,207606.40499996953,207605.61999992933,207211.451,207211.73999994062,207228.081,207610.724,,34,bonds
screen,html.Screen,2_1_1_1_35,2021-04-24T14:07:36.742Z,,,,,,,,,,,,,,,,,54,,,,,,,,,,,,,,534.4209999585873,,response,,,,100,,,,,,,Space,keypress(Space),,,,,,,,"-- --- ---- --- ------ ----- ------- ---- -- --- ------- --<br>------- ---------- ------ -- ----- -- ----- -- ---- ------<br>--- ----- --- --- ------ -------- ----- --- ------ ----- --<br>----- ----- plummeted, --- --- ------ ------ ---- -- ------<br>------- --- ------ ----- --- ---- ------- -- ---- --- --<br>------- ------",208146.04499994311,208145.14499995857,207594.167,207606.58999998122,207610.724,208159.874,,35,"plummeted,"
screen,html.Screen,2_1_1_1_36,2021-04-24T14:07:37.151Z,,,,,,,,,,,,,,,,,54,,,,,,,,,,,,,,394.84599989821436,,response,,,,100,,,,,,,Space,keypress(Space),,,,,,,,-- --- ---- --- ------ ----- ------- ---- -- --- ------- --<br>------- ---------- ------ -- ----- -- ----- -- ---- ------<br>--- ----- --- --- ------ -------- ----- --- ------ ----- --<br>----- ----- ---------- and --- ------ ------ ---- -- ------<br>------- --- ------ ----- --- ---- ------- -- ---- --- --<br>------- ------,208555.48499990255,208554.71999989823,208143.177,208146.3399999775,208159.874,208559.154,,36,and
screen,html.Screen,2_1_1_1_37,2021-04-24T14:07:37.581Z,,,,,,,,,,,,,,,,,54,,,,,,,,,,,,,,425.66600001239567,,response,,,,100,,,,,,,Space,keypress(Space),,,,,,,,-- --- ---- --- ------ ----- ------- ---- -- --- ------- --<br>------- ---------- ------ -- ----- -- ----- -- ---- ------<br>--- ----- --- --- ------ -------- ----- --- ------ ----- --<br>----- ----- ---------- --- the ------ ------ ---- -- ------<br>------- --- ------ ----- --- ---- ------- -- ---- --- --<br>------- ------,208985.57499994058,208984.8200000124,208542.574,208555.62499992084,208559.154,208991.867,,37,the
screen,html.Screen,2_1_1_1_38,2021-04-24T14:07:37.976Z,,,,,,,,,,,,,,,,,54,,,,,,,,,,,,,,387.5179999783577,,response,,,,100,,,,,,,Space,keypress(Space),,,,,,,,-- --- ---- --- ------ ----- ------- ---- -- --- ------- --<br>------- ---------- ------ -- ----- -- ----- -- ---- ------<br>--- ----- --- --- ------ -------- ----- --- ------ ----- --<br>----- ----- ---------- --- --- market ------ ---- -- ------<br>------- --- ------ ----- --- ---- ------- -- ---- --- --<br>------- ------,209380.07499999367,209379.38499997836,208975.187,208985.71999999695,208991.867,209391.179,,38,market
screen,html.Screen,2_1_1_1_39,2021-04-24T14:07:38.415Z,,,,,,,,,,,,,,,,,54,,,,,,,,,,,,,,427.5459999027662,,response,,,,100,,,,,,,Space,keypress(Space),,,,,,,,-- --- ---- --- ------ ----- ------- ---- -- --- ------- --<br>------- ---------- ------ -- ----- -- ----- -- ---- ------<br>--- ----- --- --- ------ -------- ----- --- ------ ----- --<br>----- ----- ---------- --- --- ------ became ---- -- ------<br>------- --- ------ ----- --- ---- ------- -- ---- --- --<br>------- ------,209819.45499998983,209818.72499990277,209374.525,209380.21500001196,209391.179,209824.111,,39,became
screen,html.Screen,2_1_1_1_40,2021-04-24T14:07:38.830Z,,,,,,,,,,,,,,,,,54,,,,,,,,,,,,,,409.5789999063418,,response,,,,100,,,,,,,Space,keypress(Space),,,,,,,,-- --- ---- --- ------ ----- ------- ---- -- --- ------- --<br>------- ---------- ------ -- ----- -- ----- -- ---- ------<br>--- ----- --- --- ------ -------- ----- --- ------ ----- --<br>----- ----- ---------- --- --- ------ ------ wary -- ------<br>------- --- ------ ----- --- ---- ------- -- ---- --- --<br>------- ------,210234.42999995314,210233.68999990635,209807.165,209819.58999997005,209824.111,210239.848,,40,wary
screen,html.Screen,2_1_1_1_41,2021-04-24T14:07:39.220Z,,,,,,,,,,,,,,,,,54,,,,,,,,,,,,,,383.7069999400992,,response,,,,100,,,,,,,Space,keypress(Space),,,,,,,,-- --- ---- --- ------ ----- ------- ---- -- --- ------- --<br>------- ---------- ------ -- ----- -- ----- -- ---- ------<br>--- ----- --- --- ------ -------- ----- --- ------ ----- --<br>----- ----- ---------- --- --- ------ ------ ---- of ------<br>------- --- ------ ----- --- ---- ------- -- ---- --- --<br>------- ------,210624.66500001028,210623.5549999401,210223.196,210234.56499993335,210239.848,210639.173,,41,of
screen,html.Screen,2_1_1_1_42,2021-04-24T14:07:39.720Z,,,,,,,,,,,,,,,,,54,,,,,,,,,,,,,,484.0269999144948,,response,,,,100,,,,,,,Space,keypress(Space),,,,,,,,-- --- ---- --- ------ ----- ------- ---- -- --- ------- --<br>------- ---------- ------ -- ----- -- ----- -- ---- ------<br>--- ----- --- --- ------ -------- ----- --- ------ ----- --<br>----- ----- ---------- --- --- ------ ------ ---- -- French<br>------- --- ------ ----- --- ---- ------- -- ---- --- --<br>------- ------,211124.13499993272,211123.1999999145,210622.526,210624.86999994144,210639.173,211138.346,,42,French
screen,html.Screen,2_1_1_1_43,2021-04-24T14:07:40.436Z,,,,,,,,,,,,,,,,,54,,,,,,,,,,,,,,701.0489999008423,,response,,,,100,,,,,,,Space,keypress(Space),,,,,,,,-- --- ---- --- ------ ----- ------- ---- -- --- ------- --<br>------- ---------- ------ -- ----- -- ----- -- ---- ------<br>--- ----- --- --- ------ -------- ----- --- ------ ----- --<br>----- ----- ---------- --- --- ------ ------ ---- -- ------<br>credit. --- ------ ----- --- ---- ------- -- ---- --- --<br>------- ------,211840.17999994103,211839.39499990083,211121.644,211124.31999994442,211138.346,211853.826,,43,credit.
screen,html.Screen,2_1_1_1_44,2021-04-24T14:07:40.824Z,,,,,,,,,,,,,,,,,54,,,,,,,,,,,,,,373.3839999245247,,response,,,,100,,,,,,,Space,keypress(Space),,,,,,,,-- --- ---- --- ------ ----- ------- ---- -- --- ------- --<br>------- ---------- ------ -- ----- -- ----- -- ---- ------<br>--- ----- --- --- ------ -------- ----- --- ------ ----- --<br>----- ----- ---------- --- --- ------ ------ ---- -- ------<br>------- The ------ ----- --- ---- ------- -- ---- --- --<br>------- ------,212227.96499996912,212227.20999992453,211837.196,211840.3249999974,211853.826,212236.56,,44,The
screen,html.Screen,2_1_1_1_45,2021-04-24T14:07:41.250Z,,,,,,,,,,,,,,,,,54,,,,,,,,,,,,,,416.6649998999783,,response,,,,100,,,,,,,Space,keypress(Space),,,,,,,,-- --- ---- --- ------ ----- ------- ---- -- --- ------- --<br>------- ---------- ------ -- ----- -- ----- -- ---- ------<br>--- ----- --- --- ------ -------- ----- --- ------ ----- --<br>----- ----- ---------- --- --- ------ ------ ---- -- ------<br>------- --- French ----- --- ---- ------- -- ---- --- --<br>------- ------,212654.63999996427,212653.22499989998,212219.87,212228.10999990907,212236.56,212669.165,,45,French
screen,html.Screen,2_1_1_1_46,2021-04-24T14:07:41.617Z,,,,,,,,,,,,,,,,,54,,,,,,,,,,,,,,351.6649999358051,,response,,,,100,,,,,,,Space,keypress(Space),,,,,,,,-- --- ---- --- ------ ----- ------- ---- -- --- ------- --<br>------- ---------- ------ -- ----- -- ----- -- ---- ------<br>--- ----- --- --- ------ -------- ----- --- ------ ----- --<br>----- ----- ---------- --- --- ------ ------ ---- -- ------<br>------- --- ------ state --- ---- ------- -- ---- --- --<br>------- ------,213021.5999999782,213020.8299999358,212652.582,212654.79499998037,212669.165,213035.157,,46,state
screen,html.Screen,2_1_1_1_47,2021-04-24T14:07:42.042Z,,,,,,,,,,,,,,,,,54,,,,,,,,,,,,,,410.5779999574879,,response,,,,100,,,,,,,Space,keypress(Space),,,,,,,,-- --- ---- --- ------ ----- ------- ---- -- --- ------- --<br>------- ---------- ------ -- ----- -- ----- -- ---- ------<br>--- ----- --- --- ------ -------- ----- --- ------ ----- --<br>----- ----- ---------- --- --- ------ ------ ---- -- ------<br>------- --- ------ ----- was ---- ------- -- ---- --- --<br>------- ------,213446.44500000868,213445.7349999575,213018.601,213021.7399999965,213035.157,213451.262,,47,was
screen,html.Screen,2_1_1_1_48,2021-04-24T14:07:42.412Z,,,,,,,,,,,,,,,,,54,,,,,,,,,,,,,,363.99799994484056,,response,,,,100,,,,,,,Space,keypress(Space),,,,,,,,-- --- ---- --- ------ ----- ------- ---- -- --- ------- --<br>------- ---------- ------ -- ----- -- ----- -- ---- ------<br>--- ----- --- --- ------ -------- ----- --- ------ ----- --<br>----- ----- ---------- --- --- ------ ------ ---- -- ------<br>------- --- ------ ----- --- left ------- -- ---- --- --<br>------- ------,213816.24999991618,213815.25999994483,213434.566,213446.5799999889,213451.262,213843.619,,48,left
screen,html.Screen,2_1_1_1_49,2021-04-24T14:07:42.792Z,,,,,,,,,,,,,,,,,54,,,,,,,,,,,,,,351.3809999487712,,response,,,,100,,,,,,,Space,keypress(Space),,,,,,,,-- --- ---- --- ------ ----- ------- ---- -- --- ------- --<br>------- ---------- ------ -- ----- -- ----- -- ---- ------<br>--- ----- --- --- ------ -------- ----- --- ------ ----- --<br>----- ----- ---------- --- --- ------ ------ ---- -- ------<br>------- --- ------ ----- --- ---- without -- ---- --- --<br>------- ------,214195.9949999582,214194.99999994878,213800.643,213816.40499993227,213843.619,214199.921,,49,without
screen,html.Screen,2_1_1_1_50,2021-04-24T14:07:43.176Z,,,,,,,,,,,,,,,,,54,,,,,,,,,,,,,,379.41399990030914,,response,,,,100,,,,,,,Space,keypress(Space),,,,,,,,-- --- ---- --- ------ ----- ------- ---- -- --- ------- --<br>------- ---------- ------ -- ----- -- ----- -- ---- ------<br>--- ----- --- --- ------ -------- ----- --- ------ ----- --<br>----- ----- ---------- --- --- ------ ------ ---- -- ------<br>------- --- ------ ----- --- ---- ------- an ---- --- --<br>------- ------,214580.3349999478,214579.3349999003,214183.291,214196.15500001237,214199.921,214582.604,,50,an
screen,html.Screen,2_1_1_1_51,2021-04-24T14:07:43.556Z,,,,,,,,,,,,,,,,,54,,,,,,,,,,,,,,376.94599991227733,,response,,,,100,,,,,,,Space,keypress(Space),,,,,,,,-- --- ---- --- ------ ----- ------- ---- -- --- ------- --<br>------- ---------- ------ -- ----- -- ----- -- ---- ------<br>--- ----- --- --- ------ -------- ----- --- ------ ----- --<br>----- ----- ---------- --- --- ------ ------ ---- -- ------<br>------- --- ------ ----- --- ---- ------- -- easy --- --<br>------- ------,214960.27999999933,214959.54999991227,214565.994,214580.49500000197,214582.604,214965.347,,51,easy
screen,html.Screen,2_1_1_1_52,2021-04-24T14:07:43.935Z,,,,,,,,,,,,,,,,,54,,,,,,,,,,,,,,373.5329999374808,,response,,,,100,,,,,,,Space,keypress(Space),,,,,,,,-- --- ---- --- ------ ----- ------- ---- -- --- ------- --<br>------- ---------- ------ -- ----- -- ----- -- ---- ------<br>--- ----- --- --- ------ -------- ----- --- ------ ----- --<br>----- ----- ---------- --- --- ------ ------ ---- -- ------<br>------- --- ------ ----- --- ---- ------- -- ---- way --<br>------- ------,215339.66999989934,215338.8799999375,214948.748,214960.42499993928,214965.347,215348.09,,52,way
screen,html.Screen,2_1_1_1_53,2021-04-24T14:07:44.325Z,,,,,,,,,,,,,,,,,54,,,,,,,,,,,,,,380.71499996245257,,response,,,,100,,,,,,,Space,keypress(Space),,,,,,,,-- --- ---- --- ------ ----- ------- ---- -- --- ------- --<br>------- ---------- ------ -- ----- -- ----- -- ---- ------<br>--- ----- --- --- ------ -------- ----- --- ------ ----- --<br>----- ----- ---------- --- --- ------ ------ ---- -- ------<br>------- --- ------ ----- --- ---- ------- -- ---- --- of<br>------- ------,215729.5199999353,215728.80499996245,215331.438,215339.85499991104,215348.09,215763.112,,53,of
screen,html.Screen,2_1_1_1_54,2021-04-24T14:07:44.670Z,,,,,,,,,,,,,,,,,54,,,,,,,,,,,,,,310.0079999572772,,response,,,,100,,,,,,,Space,keypress(Space),,,,,,,,-- --- ---- --- ------ ----- ------- ---- -- --- ------- --<br>------- ---------- ------ -- ----- -- ----- -- ---- ------<br>--- ----- --- --- ------ -------- ----- --- ------ ----- --<br>----- ----- ---------- --- --- ------ ------ ---- -- ------<br>------- --- ------ ----- --- ---- ------- -- ---- --- --<br>raising ------,216074.15499992203,216073.11999995727,215714.122,215729.65999995358,215763.112,216080.139,,54,raising
screen,html.Screen,2_1_1_1_55,2021-04-24T14:07:45.684Z,,,,,,,,,,,,,,,,,54,,,,,,,,,,,,,,1007.1910000093922,,response,,,,100,,,,,,,Space,keypress(Space),,,,,,,,-- --- ---- --- ------ ----- ------- ---- -- --- ------- --<br>------- ---------- ------ -- ----- -- ----- -- ---- ------<br>--- ----- --- --- ------ -------- ----- --- ------ ----- --<br>----- ----- ---------- --- --- ------ ------ ---- -- ------<br>------- --- ------ ----- --- ---- ------- -- ---- --- --<br>------- money.,217088.23999995366,217087.3300000094,216063.502,216074.33500001207,216080.139,217095.195,,55,money.
Item 100,flow.Loop,2_1_1_1,2021-04-24T14:07:45.684Z,,,,,,,,,,,,,,,,,,,,,,,,,,,,,,,25799.77900000938,,completion,,,,,B,,,,,,,,,,,silence,,,,,217088.63999997266,217087.3300000094,191270.962,191271.94999996573,191287.551,217095.195,,,
Question 1,html.Screen,2_1_1_2,2021-04-24T14:07:51.141Z,,,,,,,,,,,,,,,,,,,,,,,,,,,,true,TRUE,,5449.61999991379,,response,,,,100,B,,,,,,TRUE,click #choice-1,,,,silence,,,,,222545.76000000816,222544.8149999138,217078.504,217088.754999917,217095.195,222569.603,,,
Question 2,html.Screen,2_1_1_3,2021-04-24T14:07:53.556Z,,,,,,,,,,,,,,,,,,,,,,,,,,,,true,FALSE,,2388.971999938716,,response,,,,100,B,,,,,,FALSE,click #choice-2,,,,silence,,,,,224959.98499996495,224958.57499993872,222536.213,222545.9049999481,222569.603,224965.556,,,
Item 100,flow.Sequence,2_1_1,2021-04-24T14:07:53.556Z,,,,,,,,,,,,,,,,,,,,,,,,,,,,,,,43671.23899993871,,completion,,,,,,,,,,,,,,,,,,,,,224960.19999997225,224958.57499993872,181270.654,181281.57499991357,181287.336,224965.556,,,
End of Practice,html.Page,2_1_2,2021-04-24T14:07:58.008Z,,,,,,,,,,,,,,,,,,,,,,,,,,,,,,,4446.779000000883,,form submission,,,,,,,,,,,,,,,,,,,,,229412.55999996793,229412.3350000009,224948.989,224960.3149999166,224965.556,229425.025,,,
Practice,flow.Sequence,2_1,2021-04-24T14:07:58.008Z,,,,,,,,,,,,,,,,,,,,,,,,,,,,,,,99291.04200000089,,completion,,,,,,,,,,,,,,,,,,,,,229412.76499989908,229412.3350000009,130088.008,130126.44499994349,130121.293,229425.025,,,
Trap_instruction,html.Page,2_2_0,2021-04-24T14:08:02.185Z,,,,,,,,,,,,,,,,,,,,,,,,,,,,,,,4164.200000003359,,form submission,,,,,,,,,,,,,,,,,,,,,233589.44999997038,233589.22500000335,229408.342,229412.90499991737,229425.025,233701.22,,,
trap_trial,html.Screen,2_2_1,2021-04-24T14:08:06.039Z,,,,,,,,,,,,,,,,,,,,,,,,,,,,true,1,,3740.2999999930325,,response,,,,,,,,,,,1,click #choice-1,,,,,,,,,237442.84999999218,237441.51999999303,233584.833,233589.57999991253,233701.22,237445.102,,,
end of trap trial,html.Page,2_2_2,2021-04-24T14:08:08.054Z,,,,,,,,,,,,,,,,,,,,,,,,,,,,,,,2012.6729999007075,,form submission,,,,,,,,,,,,,,,,,,,,,239458.01499998197,239457.77499990072,237428.504,237443.089999957,237445.102,239458.459,,,
Trap 1,flow.Sequence,2_2,2021-04-24T14:08:08.054Z,,,,,,,,,,,,,,,,,,,,,,,,,,,,,,,10032.749999900727,,completion,,,,,,,,,,,,,,,,,,,,,239458.23499991093,239457.77499990072,229408.342,229412.85999992397,229425.025,239458.459,,,
Standby,html.Page,2_3_0,2021-04-24T14:08:16.042Z,,,,,,,,,,,,,,,,,,,,,,,,,,,,,,,8003.70199999999,,timeout,,,,,,,,,,,,,,,,,,,,,247446.0899999831,247445.38,239441.878,239458.44999991823,239458.459,247462.161,,,
Holding screen,html.Screen,2_3_1_0_0,2021-04-24T14:08:23.046Z,,,,,,,,,,,,,,,,,,,,,,,,,,,,,,,7005.059999999998,,timeout,,,,,,,,,,,,,,,,,,,,,254451.2799999211,254450.562,247445.38,247446.62999990396,247462.161,254467.221,,,
screen,html.Screen,2_3_1_0_1_0,2021-04-24T14:08:23.837Z,,,,,,,,,,,,,,,,,2,,,,,,,,,,,,,,773.9890000074229,,response,,,,1,B,,,,,,Space,keypress(Space),,,,lyrical,,,,Two ---- ------ --- ------- ---------- ------- ----------<br>--- --------- --- ----------- ------- ----- ------- ---<br>--------- ---- -- --- ---- -- --------- -- ---- -------<br>-- --------- ------ --- ----- ------ ---- --- --------- --<br>------ - ---- -- --- ----------- ------- ---- ----- -----<br>--- -------- - ------ ---- -- ----- ---- --- --- -----------<br>-- -------,255242.28000000585,255241.2100000074,254450.562,254451.7699999269,254467.221,255249.274,,0,Two
screen,html.Screen,2_3_1_0_1_1,2021-04-24T14:08:24.192Z,,,,,,,,,,,,,,,,,2,,,,,,,,,,,,,,347.11599996240693,,response,,,,1,B,,,,,,Space,keypress(Space),,,,lyrical,,,,--- days ------ --- ------- ---------- ------- ----------<br>--- --------- --- ----------- ------- ----- ------- ---<br>--------- ---- -- --- ---- -- --------- -- ---- -------<br>-- --------- ------ --- ----- ------ ---- --- --------- --<br>------ - ---- -- --- ----------- ------- ---- ----- -----<br>--- -------- - ------ ---- -- ----- ---- --- --- -----------<br>-- -------,255597.0199999865,255596.3899999624,255232.611,255242.4699999392,255249.274,255598.639,,1,days
screen,html.Screen,2_3_1_0_1_2,2021-04-24T14:08:24.612Z,,,,,,,,,,,,,,,,,2,,,,,,,,,,,,,,416.7559999949008,,response,,,,1,B,,,,,,Space,keypress(Space),,,,lyrical,,,,"--- ---- later, --- ------- ---------- ------- ----------<br>--- --------- --- ----------- ------- ----- ------- ---<br>--------- ---- -- --- ---- -- --------- -- ---- -------<br>-- --------- ------ --- ----- ------ ---- --- --------- --<br>------ - ---- -- --- ----------- ------- ---- ----- -----<br>--- -------- - ------ ---- -- ----- ---- --- --- -----------<br>-- -------",256016.56999997795,256015.3949999949,255582.064,255597.14999992866,255598.639,256031.354,,2,"later,"
screen,html.Screen,2_3_1_0_1_3,2021-04-24T14:08:25.245Z,,,,,,,,,,,,,,,,,2,,,,,,,,,,,,,,618.2909999976982,,response,,,,1,B,,,,,,Space,keypress(Space),,,,lyrical,,,,--- ---- ------ the ------- ---------- ------- ----------<br>--- --------- --- ----------- ------- ----- ------- ---<br>--------- ---- -- --- ---- -- --------- -- ---- -------<br>-- --------- ------ --- ----- ------ ---- --- --------- --<br>------ - ---- -- --- ----------- ------- ---- ----- -----<br>--- -------- - ------ ---- -- ----- ---- --- --- -----------<br>-- -------,256650.28499998152,256649.6449999977,256014.612,256016.78499998525,256031.354,256663.655,,3,the
screen,html.Screen,2_3_1_0_1_4,2021-04-24T14:08:25.760Z,,,,,,,,,,,,,,,,,2,,,,,,,,,,,,,,500.47499993190286,,response,,,,1,B,,,,,,Space,keypress(Space),,,,lyrical,,,,--- ---- ------ --- British ---------- ------- ----------<br>--- --------- --- ----------- ------- ----- ------- ---<br>--------- ---- -- --- ---- -- --------- -- ---- -------<br>-- --------- ------ --- ----- ------ ---- --- --------- --<br>------ - ---- -- --- ----------- ------- ---- ----- -----<br>--- -------- - ------ ---- -- ----- ---- --- --- -----------<br>-- -------,257164.83499994501,257164.1299999319,256646.98,256650.4249999998,256663.655,257179.381,,4,British
screen,html.Screen,2_3_1_0_1_5,2021-04-24T14:08:26.394Z,,,,,,,,,,,,,,,,,2,,,,,,,,,,,,,,619.3539999602945,,response,,,,1,B,,,,,,Space,keypress(Space),,,,lyrical,,,,--- ---- ------ --- ------- astronomer ------- ----------<br>--- --------- --- ----------- ------- ----- ------- ---<br>--------- ---- -- --- ---- -- --------- -- ---- -------<br>-- --------- ------ --- ----- ------ ---- --- --------- --<br>------ - ---- -- --- ----------- ------- ---- ----- -----<br>--- -------- - ------ ---- -- ----- ---- --- --- -----------<br>-- -------,257799.41999993753,257798.7349999603,257162.798,257164.9749999633,257179.381,257811.73,,5,astronomer
screen,html.Screen,2_3_1_0_1_6,2021-04-24T14:08:26.834Z,,,,,,,,,,,,,,,,,2,,,,,,,,,,,,,,426.53499993446167,,response,,,,1,B,,,,,,Space,keypress(Space),,,,lyrical,,,,--- ---- ------ --- ------- ---------- Richard ----------<br>--- --------- --- ----------- ------- ----- ------- ---<br>--------- ---- -- --- ---- -- --------- -- ---- -------<br>-- --------- ------ --- ----- ------ ---- --- --------- --<br>------ - ---- -- --- ----------- ------- ---- ----- -----<br>--- -------- - ------ ---- -- ----- ---- --- --- -----------<br>-- -------,258238.87999996077,258238.26499993447,257795.097,257799.6099999873,257811.73,258244.394,,6,Richard
screen,html.Screen,2_3_1_0_1_7,2021-04-24T14:08:27.593Z,,,,,,,,,,,,,,,,,2,,,,,,,,,,,,,,753.3909998977033,,response,,,,1,B,,,,,,Space,keypress(Space),,,,lyrical,,,,--- ---- ------ --- ------- ---------- ------- Carrington<br>--- --------- --- ----------- ------- ----- ------- ---<br>--------- ---- -- --- ---- -- --------- -- ---- -------<br>-- --------- ------ --- ----- ------ ---- --- --------- --<br>------ - ---- -- --- ----------- ------- ---- ----- -----<br>--- -------- - ------ ---- -- ----- ---- --- --- -----------<br>-- -------,258998.399999924,258997.7849998977,258227.701,258239.014999941,258244.394,259009.787,,7,Carrington
screen,html.Screen,2_3_1_0_1_8,2021-04-24T14:08:28.098Z,,,,,,,,,,,,,,,,,2,,,,,,,,,,,,,,492.19299994269386,,response,,,,1,B,,,,,,Space,keypress(Space),,,,lyrical,,,,--- ---- ------ --- ------- ---------- ------- ----------<br>was --------- --- ----------- ------- ----- ------- ---<br>--------- ---- -- --- ---- -- --------- -- ---- -------<br>-- --------- ------ --- ----- ------ ---- --- --------- --<br>------ - ---- -- --- ----------- ------- ---- ----- -----<br>--- -------- - ------ ---- -- ----- ---- --- --- -----------<br>-- -------,259502.94499995653,259501.9799999427,258993.142,258998.5399999423,259009.787,259508.998,,8,was
screen,html.Screen,2_3_1_0_1_9,2021-04-24T14:08:28.504Z,,,,,,,,,,,,,,,,,2,,,,,,,,,,,,,,399.01699993541115,,response,,,,1,B,,,,,,Space,keypress(Space),,,,lyrical,,,,--- ---- ------ --- ------- ---------- ------- ----------<br>--- observing --- ----------- ------- ----- ------- ---<br>--------- ---- -- --- ---- -- --------- -- ---- -------<br>-- --------- ------ --- ----- ------ ---- --- --------- --<br>------ - ---- -- --- ----------- ------- ---- ----- -----<br>--- -------- - ------ ---- -- ----- ---- --- --- -----------<br>-- -------,259909.12999992725,259908.0149999354,259492.287,259503.22999991477,259508.998,259924.889,,9,observing
screen,html.Screen,2_3_1_0_1_10,2021-04-24T14:08:29.358Z,,,,,,,,,,,,,,,,,2,,,,,,,,,,,,,,836.5359999169305,,response,,,,1,B,,,,,,Space,keypress(Space),,,,lyrical,,,,--- ---- ------ --- ------- ---------- ------- ----------<br>--- --------- the ----------- ------- ----- ------- ---<br>--------- ---- -- --- ---- -- --------- -- ---- -------<br>-- --------- ------ --- ----- ------ ---- --- --------- --<br>------ - ---- -- --- ----------- ------- ---- ----- -----<br>--- -------- - ------ ---- -- ----- ---- --- --- -----------<br>-- -------,260762.66999996733,260761.42499991693,259908.29,259909.45499995723,259924.889,260773.58,,10,the
screen,html.Screen,2_3_1_0_1_11,2021-04-24T14:08:30.531Z,,,,,,,,,,,,,,,,,2,,,,,,,,,,,,,,1161.7599999672675,,response,,,,1,B,,,,,,Space,keypress(Space),,,,lyrical,,,,--- ---- ------ --- ------- ---------- ------- ----------<br>--- --------- --- interesting ------- ----- ------- ---<br>--------- ---- -- --- ---- -- --------- -- ---- -------<br>-- --------- ------ --- ----- ------ ---- --- --------- --<br>------ - ---- -- --- ----------- ------- ---- ----- -----<br>--- -------- - ------ ---- -- ----- ---- --- --- -----------<br>-- -------,261936.07999989763,261935.33999996725,260756.916,260763.01999995485,260773.58,261938.219,,11,interesting
screen,html.Screen,2_3_1_0_1_12,2021-04-24T14:08:31.021Z,,,,,,,,,,,,,,,,,2,,,,,,,,,,,,,,486.84099992134725,,response,,,,1,B,,,,,,Space,keypress(Space),,,,lyrical,,,,--- ---- ------ --- ------- ---------- ------- ----------<br>--- --------- --- ----------- sunspot ----- ------- ---<br>--------- ---- -- --- ---- -- --------- -- ---- -------<br>-- --------- ------ --- ----- ------ ---- --- --------- --<br>------ - ---- -- --- ----------- ------- ---- ----- -----<br>--- -------- - ------ ---- -- ----- ---- --- --- -----------<br>-- -------,262426.0049998993,262425.05999992136,261922.025,261936.21999991592,261938.219,262437.477,,12,sunspot
screen,html.Screen,2_3_1_0_1_13,2021-04-24T14:08:31.693Z,,,,,,,,,,,,,,,,,2,,,,,,,,,,,,,,659.5779999037622,,response,,,,1,B,,,,,,Space,keypress(Space),,,,lyrical,,,,--- ---- ------ --- ------- ---------- ------- ----------<br>--- --------- --- ----------- ------- group ------- ---<br>--------- ---- -- --- ---- -- --------- -- ---- -------<br>-- --------- ------ --- ----- ------ ---- --- --------- --<br>------ - ---- -- --- ----------- ------- ---- ----- -----<br>--- -------- - ------ ---- -- ----- ---- --- --- -----------<br>-- -------,263097.97999996226,263097.0549999038,262420.774,262426.2099999469,262437.477,263103.069,,13,group
screen,html.Screen,2_3_1_0_1_14,2021-04-24T14:08:32.254Z,,,,,,,,,,,,,,,,,2,,,,,,,,,,,,,,555.595999995363,,response,,,,1,B,,,,,,Space,keypress(Space),,,,lyrical,,,,--- ---- ------ --- ------- ---------- ------- ----------<br>--- --------- --- ----------- ------- ----- through ---<br>--------- ---- -- --- ---- -- --------- -- ---- -------<br>-- --------- ------ --- ----- ------ ---- --- --------- --<br>------ - ---- -- --- ----------- ------- ---- ----- -----<br>--- -------- - ------ ---- -- ----- ---- --- --- -----------<br>-- -------,263659.4599999953,263658.6649999954,263086.406,263098.23000000324,263103.069,263668.705,,14,through
screen,html.Screen,2_3_1_0_1_15,2021-04-24T14:08:32.749Z,,,,,,,,,,,,,,,,,2,,,,,,,,,,,,,,484.6499999585212,,response,,,,1,B,,,,,,Space,keypress(Space),,,,lyrical,,,,--- ---- ------ --- ------- ---------- ------- ----------<br>--- --------- --- ----------- ------- ----- ------- his<br>--------- ---- -- --- ---- -- --------- -- ---- -------<br>-- --------- ------ --- ----- ------ ---- --- --------- --<br>------ - ---- -- --- ----------- ------- ---- ----- -----<br>--- -------- - ------ ---- -- ----- ---- --- --- -----------<br>-- -------,264154.31999997236,264153.35499995854,263652.187,263659.5999998972,263668.705,264167.934,,15,his
screen,html.Screen,2_3_1_0_1_16,2021-04-24T14:08:33.929Z,,,,,,,,,,,,,,,,,2,,,,,,,,,,,,,,1164.735999916098,,response,,,,1,B,,,,,,Space,keypress(Space),,,,lyrical,,,,--- ---- ------ --- ------- ---------- ------- ----------<br>--- --------- --- ----------- ------- ----- ------- ---<br>telescope ---- -- --- ---- -- --------- -- ---- -------<br>-- --------- ------ --- ----- ------ ---- --- --------- --<br>------ - ---- -- --- ----------- ------- ---- ----- -----<br>--- -------- - ------ ---- -- ----- ---- --- --- -----------<br>-- -------,265333.7649999885,265332.6699999161,264151.274,264154.60999996867,264167.934,265349.342,,16,telescope
screen,html.Screen,2_3_1_0_1_17,2021-04-24T14:08:34.698Z,,,,,,,,,,,,,,,,,2,,,,,,,,,,,,,,752.8979999201256,,response,,,,1,B,,,,,,Space,keypress(Space),,,,lyrical,,,,--- ---- ------ --- ------- ---------- ------- ----------<br>--- --------- --- ----------- ------- ----- ------- ---<br>--------- when -- --- ---- -- --------- -- ---- -------<br>-- --------- ------ --- ----- ------ ---- --- --------- --<br>------ - ---- -- --- ----------- ------- ---- ----- -----<br>--- -------- - ------ ---- -- ----- ---- --- --- -----------<br>-- -------,266102.9799999669,266102.23999992013,265332.628,265334.1650000075,265349.342,266114.772,,17,when
screen,html.Screen,2_3_1_0_1_18,2021-04-24T14:08:35.180Z,,,,,,,,,,,,,,,,,2,,,,,,,,,,,,,,469.46299995842855,,response,,,,1,B,,,,,,Space,keypress(Space),,,,lyrical,,,,--- ---- ------ --- ------- ---------- ------- ----------<br>--- --------- --- ----------- ------- ----- ------- ---<br>--------- ---- he --- ---- -- --------- -- ---- -------<br>-- --------- ------ --- ----- ------ ---- --- --------- --<br>------ - ---- -- --- ----------- ------- ---- ----- -----<br>--- -------- - ------ ---- -- ----- ---- --- --- -----------<br>-- -------,266584.9750000052,266584.2349999584,266098.057,266103.1199999852,266114.772,266597.351,,18,he
screen,html.Screen,2_3_1_0_1_19,2021-04-24T14:08:35.537Z,,,,,,,,,,,,,,,,,2,,,,,,,,,,,,,,343.7789999337401,,response,,,,1,B,,,,,,Space,keypress(Space),,,,lyrical,,,,--- ---- ------ --- ------- ---------- ------- ----------<br>--- --------- --- ----------- ------- ----- ------- ---<br>--------- ---- -- saw ---- -- --------- -- ---- -------<br>-- --------- ------ --- ----- ------ ---- --- --------- --<br>------ - ---- -- --- ----------- ------- ---- ----- -----<br>--- -------- - ------ ---- -- ----- ---- --- --- -----------<br>-- -------,266941.9849999249,266941.12999993376,266580.645,266585.10999998543,266597.351,266946.755,,19,saw
screen,html.Screen,2_3_1_0_1_20,2021-04-24T14:08:35.977Z,,,,,,,,,,,,,,,,,2,,,,,,,,,,,,,,434.19999994232785,,response,,,,1,B,,,,,,Space,keypress(Space),,,,lyrical,,,,--- ---- ------ --- ------- ---------- ------- ----------<br>--- --------- --- ----------- ------- ----- ------- ---<br>--------- ---- -- --- what -- --------- -- ---- -------<br>-- --------- ------ --- ----- ------ ---- --- --------- --<br>------ - ---- -- --- ----------- ------- ---- ----- -----<br>--- -------- - ------ ---- -- ----- ---- --- --- -----------<br>-- -------,267382.02499994077,267380.95499994233,266930.042,266942.1249999432,266946.755,267396.012,,20,what
screen,html.Screen,2_3_1_0_1_21,2021-04-24T14:08:36.361Z,,,,,,,,,,,,,,,,,2,,,,,,,,,,,,,,369.4479999077739,,response,,,,1,B,,,,,,Space,keypress(Space),,,,lyrical,,,,--- ---- ------ --- ------- ---------- ------- ----------<br>--- --------- --- ----------- ------- ----- ------- ---<br>--------- ---- -- --- ---- he --------- -- ---- -------<br>-- --------- ------ --- ----- ------ ---- --- --------- --<br>------ - ---- -- --- ----------- ------- ---- ----- -----<br>--- -------- - ------ ---- -- ----- ---- --- --- -----------<br>-- -------,267766.1450000014,267765.45999990776,267379.33,267382.3449999327,267396.012,267778.723,,21,he
screen,html.Screen,2_3_1_0_1_22,2021-04-24T14:08:36.876Z,,,,,,,,,,,,,,,,,2,,,,,,,,,,,,,,501.2519999539945,,response,,,,1,B,,,,,,Space,keypress(Space),,,,lyrical,,,,--- ---- ------ --- ------- ---------- ------- ----------<br>--- --------- --- ----------- ------- ----- ------- ---<br>--------- ---- -- --- ---- -- described -- ---- -------<br>-- --------- ------ --- ----- ------ ---- --- --------- --<br>------ - ---- -- --- ----------- ------- ---- ----- -----<br>--- -------- - ------ ---- -- ----- ---- --- --- -----------<br>-- -------,268280.9099999722,268279.974999954,267762.049,267766.2849999033,267778.723,268294.527,,22,described
screen,html.Screen,2_3_1_0_1_23,2021-04-24T14:08:37.246Z,,,,,,,,,,,,,,,,,2,,,,,,,,,,,,,,355.2979999713134,,response,,,,1,B,,,,,,Space,keypress(Space),,,,lyrical,,,,--- ---- ------ --- ------- ---------- ------- ----------<br>--- --------- --- ----------- ------- ----- ------- ---<br>--------- ---- -- --- ---- -- --------- as ---- -------<br>-- --------- ------ --- ----- ------ ---- --- --------- --<br>------ - ---- -- --- ----------- ------- ---- ----- -----<br>--- -------- - ------ ---- -- ----- ---- --- --- -----------<br>-- -------,268650.59999993537,268649.8249999713,268277.809,268281.2050000066,268294.527,268660.649,,23,as
screen,html.Screen,2_3_1_0_1_24,2021-04-24T14:08:37.660Z,,,,,,,,,,,,,,,,,2,,,,,,,,,,,,,,403.90599993173964,,response,,,,1,B,,,,,,Space,keypress(Space),,,,lyrical,,,,"--- ---- ------ --- ------- ---------- ------- ----------<br>--- --------- --- ----------- ------- ----- ------- ---<br>--------- ---- -- --- ---- -- --------- -- ""two -------<br>-- --------- ------ --- ----- ------ ---- --- --------- --<br>------ - ---- -- --- ----------- ------- ---- ----- -----<br>--- -------- - ------ ---- -- ----- ---- --- --- -----------<br>-- -------",269065.47499995213,269064.5549999317,268643.98,268650.81999998074,268660.649,269076.592,,24,"""two"
screen,html.Screen,2_3_1_0_1_25,2021-04-24T14:08:38.090Z,,,,,,,,,,,,,,,,,2,,,,,,,,,,,,,,417.56800000200747,,response,,,,1,B,,,,,,Space,keypress(Space),,,,lyrical,,,,--- ---- ------ --- ------- ---------- ------- ----------<br>--- --------- --- ----------- ------- ----- ------- ---<br>--------- ---- -- --- ---- -- --------- -- ---- patches<br>-- --------- ------ --- ----- ------ ---- --- --------- --<br>------ - ---- -- --- ----------- ------- ---- ----- -----<br>--- -------- - ------ ---- -- ----- ---- --- --- -----------<br>-- -------,269495.02999999095,269494.160000002,269059.906,269065.68499992136,269076.592,269509.241,,25,patches
screen,html.Screen,2_3_1_0_1_26,2021-04-24T14:08:38.485Z,,,,,,,,,,,,,,,,,2,,,,,,,,,,,,,,379.52899996138876,,response,,,,1,B,,,,,,Space,keypress(Space),,,,lyrical,,,,--- ---- ------ --- ------- ---------- ------- ----------<br>--- --------- --- ----------- ------- ----- ------- ---<br>--------- ---- -- --- ---- -- --------- -- ---- -------<br>of --------- ------ --- ----- ------ ---- --- --------- --<br>------ - ---- -- --- ----------- ------- ---- ----- -----<br>--- -------- - ------ ---- -- ----- ---- --- --- -----------<br>-- -------,269889.67999990564,269888.76999996137,269492.526,269495.1749999309,269509.241,269891.822,,26,of
screen,html.Screen,2_3_1_0_1_27,2021-04-24T14:08:38.849Z,,,,,,,,,,,,,,,,,2,,,,,,,,,,,,,,361.7079999872367,,response,,,,1,B,,,,,,Space,keypress(Space),,,,lyrical,,,,--- ---- ------ --- ------- ---------- ------- ----------<br>--- --------- --- ----------- ------- ----- ------- ---<br>--------- ---- -- --- ---- -- --------- -- ---- -------<br>-- intensely ------ --- ----- ------ ---- --- --------- --<br>------ - ---- -- --- ----------- ------- ---- ----- -----<br>--- -------- - ------ ---- -- ----- ---- --- --- -----------<br>-- -------,270254.21499996446,270253.5299999872,269875.248,269889.9049999891,269891.822,270257.906,,27,intensely
screen,html.Screen,2_3_1_0_1_28,2021-04-24T14:08:39.219Z,,,,,,,,,,,,,,,,,2,,,,,,,,,,,,,,365.2389999613515,,response,,,,1,B,,,,,,Space,keypress(Space),,,,lyrical,,,,--- ---- ------ --- ------- ---------- ------- ----------<br>--- --------- --- ----------- ------- ----- ------- ---<br>--------- ---- -- --- ---- -- --------- -- ---- -------<br>-- --------- bright --- ----- ------ ---- --- --------- --<br>------ - ---- -- --- ----------- ------- ---- ----- -----<br>--- -------- - ------ ---- -- ----- ---- --- --- -----------<br>-- -------,270623.8649999723,270623.14499996137,270241.328,270254.35499998275,270257.906,270640.77,,28,bright
screen,html.Screen,2_3_1_0_1_29,2021-04-24T14:08:39.578Z,,,,,,,,,,,,,,,,,2,,,,,,,,,,,,,,341.6999999298714,,response,,,,1,B,,,,,,Space,keypress(Space),,,,lyrical,,,,--- ---- ------ --- ------- ---------- ------- ----------<br>--- --------- --- ----------- ------- ----- ------- ---<br>--------- ---- -- --- ---- -- --------- -- ---- -------<br>-- --------- ------ and ----- ------ ---- --- --------- --<br>------ - ---- -- --- ----------- ------- ---- ----- -----<br>--- -------- - ------ ---- -- ----- ---- --- --- -----------<br>-- -------,270983.1899999408,270982.4699999299,270623.983,270624.1699999664,270640.77,270990.104,,29,and
screen,html.Screen,2_3_1_0_1_30,2021-04-24T14:08:39.969Z,,,,,,,,,,,,,,,,,2,,,,,,,,,,,,,,382.3409999863361,,response,,,,1,B,,,,,,Space,keypress(Space),,,,lyrical,,,,--- ---- ------ --- ------- ---------- ------- ----------<br>--- --------- --- ----------- ------- ----- ------- ---<br>--------- ---- -- --- ---- -- --------- -- ---- -------<br>-- --------- ------ --- white ------ ---- --- --------- --<br>------ - ---- -- --- ----------- ------- ---- ----- -----<br>--- -------- - ------ ---- -- ----- ---- --- --- -----------<br>-- -------,271373.574999976,271372.4449999863,270973.398,270983.324999921,270990.104,271389.498,,30,white
screen,html.Screen,2_3_1_0_1_31,2021-04-24T14:08:40.408Z,,,,,,,,,,,,,,,,,2,,,,,,,,,,,,,,422.4119999312097,,response,,,,1,B,,,,,,Space,keypress(Space),,,,lyrical,,,,"--- ---- ------ --- ------- ---------- ------- ----------<br>--- --------- --- ----------- ------- ----- ------- ---<br>--------- ---- -- --- ---- -- --------- -- ---- -------<br>-- --------- ------ --- ----- light"" ---- --- --------- --<br>------ - ---- -- --- ----------- ------- ---- ----- -----<br>--- -------- - ------ ---- -- ----- ---- --- --- -----------<br>-- -------",271812.6399999019,271811.90999993123,271372.764,271373.8949999679,271389.498,271822.021,,31,"light"""
screen,html.Screen,2_3_1_0_1_32,2021-04-24T14:08:40.827Z,,,,,,,,,,,,,,,,,2,,,,,,,,,,,,,,409.5589999050717,,response,,,,1,B,,,,,,Space,keypress(Space),,,,lyrical,,,,--- ---- ------ --- ------- ---------- ------- ----------<br>--- --------- --- ----------- ------- ----- ------- ---<br>--------- ---- -- --- ---- -- --------- -- ---- -------<br>-- --------- ------ --- ----- ------ over --- --------- --<br>------ - ---- -- --- ----------- ------- ---- ----- -----<br>--- -------- - ------ ---- -- ----- ---- --- --- -----------<br>-- -------,272232.29499999434,272231.5799999051,271805.362,271812.7749999985,271822.021,272238.07,,32,over
screen,html.Screen,2_3_1_0_1_33,2021-04-24T14:08:41.182Z,,,,,,,,,,,,,,,,,2,,,,,,,,,,,,,,348.3349999508937,,response,,,,1,B,,,,,,Space,keypress(Space),,,,lyrical,,,,--- ---- ------ --- ------- ---------- ------- ----------<br>--- --------- --- ----------- ------- ----- ------- ---<br>--------- ---- -- --- ---- -- --------- -- ---- -------<br>-- --------- ------ --- ----- ------ ---- the --------- --<br>------ - ---- -- --- ----------- ------- ---- ----- -----<br>--- -------- - ------ ---- -- ----- ---- --- --- -----------<br>-- -------,272587.3699999647,272586.4049999509,272221.394,272232.44499997236,272238.07,272604.158,,33,the
screen,html.Screen,2_3_1_0_1_34,2021-04-24T14:08:41.697Z,,,,,,,,,,,,,,,,,2,,,,,,,,,,,,,,496.80699999054195,,response,,,,1,B,,,,,,Space,keypress(Space),,,,lyrical,,,,--- ---- ------ --- ------- ---------- ------- ----------<br>--- --------- --- ----------- ------- ----- ------- ---<br>--------- ---- -- --- ---- -- --------- -- ---- -------<br>-- --------- ------ --- ----- ------ ---- --- sunspots. --<br>------ - ---- -- --- ----------- ------- ---- ----- -----<br>--- -------- - ------ ---- -- ----- ---- --- --- -----------<br>-- -------,273101.9049999304,273100.96499999054,272587.421,272587.6500000013,272604.158,273139.715,,34,sunspots.
screen,html.Screen,2_3_1_0_1_35,2021-04-24T14:08:42.112Z,,,,,,,,,,,,,,,,,2,,,,,,,,,,,,,,376.0799998974544,,response,,,,1,B,,,,,,Space,keypress(Space),,,,lyrical,,,,--- ---- ------ --- ------- ---------- ------- ----------<br>--- --------- --- ----------- ------- ----- ------- ---<br>--------- ---- -- --- ---- -- --------- -- ---- -------<br>-- --------- ------ --- ----- ------ ---- --- --------- He<br>------ - ---- -- --- ----------- ------- ---- ----- -----<br>--- -------- - ------ ---- -- ----- ---- --- --- -----------<br>-- -------,273516.5499999421,273515.7949998975,273086.697,273102.03999991063,273139.715,273519.229,,35,He
screen,html.Screen,2_3_1_0_1_36,2021-04-24T14:08:42.591Z,,,,,,,,,,,,,,,,,2,,,,,,,,,,,,,,475.9959999623825,,response,,,,1,B,,,,,,Space,keypress(Space),,,,lyrical,,,,--- ---- ------ --- ------- ---------- ------- ----------<br>--- --------- --- ----------- ------- ----- ------- ---<br>--------- ---- -- --- ---- -- --------- -- ---- -------<br>-- --------- ------ --- ----- ------ ---- --- --------- --<br>jotted - ---- -- --- ----------- ------- ---- ----- -----<br>--- -------- - ------ ---- -- ----- ---- --- --- -----------<br>-- -------,273995.9299999755,273995.2249999624,273502.584,273516.6849999223,273519.229,274001.794,,36,jotted
