sender,sender_type,sender_id,timestamp,meta,,Blues,Classical,Country,Dance,Electronic,Folk,Gospel,Hip-Hop,Jazz,Latin,Musical/Film,New-age,Pop,Prolific_id,Provo_ID,R&B,Rap,Reggae,Religious,Rock,Soul,Swing,Traditional,age,artist_name,correct,correctResponse,distraction,duration,education,ended_on,familiarity,gender,headphone_check_performance,item,list,music_frequency,offensiveness,pleasantness,position_correct,preference,response,response_action,snippet_file,song_name,song_rating,sound,stimulus_1,stimulus_2,stimulus_3,text,time_commit,time_end,time_render,time_run,time_show,time_switch,url,word,word_ID
Prolific ID,html.Form,0,2021-04-24T12:41:20.186Z,"{""labjs_version"":""20.2.2"",""labjs_build"":{""flavor"":""production"",""commit"":""a25486e0c714a0ae2ce03ff94b7bb6896854dcfa""},""location"":""https://run.pavlovia.org/mvasilev/prolific_music_a/"",""userAgent"":""Mozilla/5.0 (Macintosh; Intel Mac OS X 10_12_6) AppleWebKit/537.36 (KHTML, like Gecko) Chrome/90.0.4430.85 Safari/537.36"",""platform"":""MacIntel"",""language"":""en-US"",""locale"":""en-GB"",""timeZone"":""Europe/London"",""timezoneOffset"":-60,""screen_width"":2560,""screen_height"":1440,""scroll_width"":1310,""scroll_height"":1253,""window_innerWidth"":1310,""window_innerHeight"":1301,""devicePixelRatio"":1}",,,,,,,,,,,,,,,5c716a42e165d10001e8b82f,,,,,,,,,,,,,,,5578.908999999347,,form submission,,,,,,,,,,,,,,,,,,,,,13283.9299999996,13283.219999999346,7303.991,7661.024999999427,7704.311,13291.924,{},,
Introduction,html.Screen,1_0,2021-04-24T12:41:21.825Z,,,,,,,,,,,,,,,,,,,,,,,,,,,,,,,1628.685999999214,,response,,,,,,,,,,,continue,click button,,,,,,,,,14922.769999999218,14920.609999999215,13275.244,13284.519999999247,13291.924,14926.564,,,
Volume calibration,html.Screen,1_1,2021-04-24T12:41:23.742Z,,,,,,,,,,,,,,,,,,,,,,,,,,,,,,,1906.0459999994764,,response,,,,,,,,,,,continue,click button,,,,,,,,,16839.26000000065,16832.609999999477,14909.884,14923.044999999547,14926.564,16844.764,,,
Task instructions,html.Screen,1_2,2021-04-24T12:41:25.705Z,,,,,,,,,,,,,,,,,,,,,,,,,,,,,,,1955.8460000002342,,response,,,,,,,,,,,continue,click button,,,,,,,,,18802.424999999857,18800.610000000233,16828.084,16839.649999999892,16844.764,18813.004,,,
Sounds,html.Screen,1_3_0_0,2021-04-24T12:41:29.956Z,,,,,,,,,,,,,,,,,,,,,,,,,,,,,,,4253.3499999999985,,timeout,,,,,,,,,2,,,,,,,,I,S,O,,23053.649999999834,23049.674,18796.324,18803.01999999938,18813.004,23066.354,,,
Judgement,html.Screen,1_3_0_1,2021-04-24T12:41:31.329Z,,,,,,,,,,,,,,,,,,,,,,,,,,,,false,2,,1358.260999999904,,response,,,,,,,,,2,,1,click #choice-1,,,,,I,S,O,,24426.54500000026,24424.614999999903,23049.674,23053.86499999986,23066.354,24434.114,,,
Trial,flow.Sequence,1_3_0,2021-04-24T12:41:31.330Z,,,,,,,,,,,,,,,,,,,,,,,,,,,,,,,5611.610999999903,,completion,,,,,,,,,2,,,,,,,,I,S,O,,24427.05500000011,24424.614999999903,18796.324,18802.90000000059,18813.004,24434.114,,,
Sounds,html.Screen,1_3_1_0,2021-04-24T12:41:35.576Z,,,,,,,,,,,,,,,,,,,,,,,,,,,,,,,4253.399999999998,,timeout,,,,,,,,,3,,,,,,,,I,O,S,,28673.19999999927,28670.834,24417.434,24427.279999999882,24434.114,28687.514,,,
Judgement,html.Screen,1_3_1_1,2021-04-24T12:41:36.457Z,,,,,,,,,,,,,,,,,,,,,,,,,,,,true,3,,865.0059999992773,,response,,,,,,,,,3,,3,click #choice-3,,,,,I,O,S,,29554.324999999153,29552.519999999276,28670.834,28673.45000000023,28687.514,29554.874,,,
Trial,flow.Sequence,1_3_1,2021-04-24T12:41:36.458Z,,,,,,,,,,,,,,,,,,,,,,,,,,,,,,,5118.405999999275,,completion,,,,,,,,,3,,,,,,,,I,O,S,,29554.619999998977,29552.519999999276,24417.434,24427.204999999958,24434.114,29554.874,,,
Sounds,html.Screen,1_3_2_0,2021-04-24T12:41:40.697Z,,,,,,,,,,,,,,,,,,,,,,,,,,,,,,,4253.278000000002,,timeout,,,,,,,,,2,,,,,,,,O,S,I,,33793.454999999085,33791.472,29538.194,29554.824999999255,29554.874,33808.152,,,
Judgement,html.Screen,1_3_2_1,2021-04-24T12:41:41.234Z,,,,,,,,,,,,,,,,,,,,,,,,,,,,true,2,,520.4580000004789,,response,,,,,,,,,2,,2,click #choice-2,,,,,O,S,I,,34330.42000000023,34328.61000000048,33791.472,33793.6150000005,33808.152,34341.912,,,
Trial,flow.Sequence,1_3_2,2021-04-24T12:41:41.234Z,,,,,,,,,,,,,,,,,,,,,,,,,,,,,,,4773.736000000481,,completion,,,,,,,,,2,,,,,,,,O,S,I,,34330.674999999246,34328.61000000048,29538.194,29554.754999999204,29554.874,34341.912,,,
Sounds,html.Screen,1_3_3_0,2021-04-24T12:41:45.484Z,,,,,,,,,,,,,,,,,,,,,,,,,,,,,,,4253.4000000000015,,timeout,,,,,,,,,1,,,,,,,,S,I,O,,38580.384999999296,38578.632,34325.232,34330.8649999999,34341.912,38595.312,,,
Judgement,html.Screen,1_3_3_1,2021-04-24T12:41:47.458Z,,,,,,,,,,,,,,,,,,,,,,,,,,,,true,1,,1957.2980000006428,,response,,,,,,,,,1,,1,click #choice-1,,,,,S,I,O,,40554.50000000019,40552.61000000064,38578.632,38580.54499999889,38595.312,40563.552,,,
Trial,flow.Sequence,1_3_3,2021-04-24T12:41:47.458Z,,,,,,,,,,,,,,,,,,,,,,,,,,,,,,,6210.698000000644,,completion,,,,,,,,,1,,,,,,,,S,I,O,,40554.74499999946,40552.61000000064,34325.232,34330.79499999985,34341.912,40563.552,,,
Sounds,html.Screen,1_3_4_0,2021-04-24T12:41:51.706Z,,,,,,,,,,,,,,,,,,,,,,,,,,,,,,,4253.315999999999,,timeout,,,,,,,,,1,,,,,,,,S,O,I,,44802.69500000031,44800.188,40546.872,40554.90499999905,40563.552,44816.868,,,
Judgement,html.Screen,1_3_4_1,2021-04-24T12:41:52.802Z,,,,,,,,,,,,,,,,,,,,,,,,,,,,true,1,,1079.74199999978,,response,,,,,,,,,1,,1,click #choice-1,,,,,S,O,I,,45898.699999999735,45896.60999999978,44800.188,44802.850000000035,44816.868,45901.068,,,
Trial,flow.Sequence,1_3_4,2021-04-24T12:41:52.802Z,,,,,,,,,,,,,,,,,,,,,,,,,,,,,,,5333.057999999779,,completion,,,,,,,,,1,,,,,,,,S,O,I,,45898.92499999951,45896.60999999978,40546.872,40554.86500000006,40563.552,45901.068,,,
Sounds,html.Screen,1_3_5_0,2021-04-24T12:41:57.043Z,,,,,,,,,,,,,,,,,,,,,,,,,,,,,,,4253.4000000000015,,timeout,,,,,,,,,3,,,,,,,,O,I,S,,50139.4049999999,50137.788,45884.388,45899.100000000544,45901.068,50154.468,,,
Judgement,html.Screen,1_3_5_1,2021-04-24T12:41:57.794Z,,,,,,,,,,,,,,,,,,,,,,,,,,,,true,3,,734.1019999991622,,response,,,,,,,,,3,,3,click #choice-3,,,,,O,I,S,,50890.449999998964,50888.56999999916,50137.788,50139.55999999962,50154.468,50905.068,,,
Trial,flow.Sequence,1_3_5,2021-04-24T12:41:57.794Z,,,,,,,,,,,,,,,,,,,,,,,,,,,,,,,4987.501999999164,,completion,,,,,,,,,3,,,,,,,,O,I,S,,50890.6850000003,50888.56999999916,45884.388,45899.04000000024,45901.068,50905.068,,,
Task,flow.Loop,1_3,2021-04-24T12:41:57.802Z,,,,,,,,,,,,,,,,,,,,,,,,,,,,,,,32075.565999999162,,completion,,,0.8333333333333334,,,,,,,,,,,,,,,,,,50898.284999999305,50888.56999999916,18796.324,18802.755000000616,18813.004,50905.068,,,
Trap,html.Screen,1_4,2021-04-24T12:41:57.804Z,,,,,,,,,,,,,,,,,,,,,,,,,,,,,,,NaN,,skipped,,,,,,,,,,,,,,,,,,,,,50899.76000000024,50888.56999999916,,50899.61000000039,,50905.068,,,
Thanks,html.Screen,1_5,2021-04-24T12:42:00.978Z,,,,,,,,,,,,,,,,,,,,,,,,,,,,,,,3167.4920000005222,,response,,,,,,,,,,,continue,click button,,,,,,,,,54074.42499999888,54072.56000000052,50888.388,50899.93499999946,50905.068,70003.299,,,
Headphone screening,flow.Sequence,1,2021-04-24T12:42:00.979Z,,,,,,,,,,,,,,,,,,,,,,,,,,,,,,,40780.63600000052,,completion,,,,,,,,,,,,,,,,,,,,,54074.665000000095,54072.56000000052,13275.244,13284.359999999651,13291.924,70003.299,,,
Instructions,html.Page,2_0,2021-04-24T12:42:39.397Z,,,,,,,,,,,,,,,,,,,,,,,,,,,,,,,22488.225999999457,,form submission,,,,,,,,,,,,,,,,,,,,,92491.88499999946,92491.52499999946,69953.259,69999.85500000003,70003.299,92504.619,,,
Holding screen,html.Screen,2_1_0_0,2021-04-24T12:42:49.404Z,,,,,,,,,,,,,,,,,,,,,,,,,,,,,,,10007.55799999999,,timeout,,,,,,,,,,,,,,,,,,,,,102498.07499999952,102495.497,92487.939,92492.15499999991,92504.619,102512.177,,,
screen,html.Screen,2_1_0_1_0,2021-04-24T12:42:50.146Z,,,,,,,,,,,,,,,,,53,,,,,,,,,,,,,,722.7879999996512,,response,,,,99,,,,,,,Space,keypress(Space),,,,,,,,When -- ----- -- ------ - ------- --- ----------<br>------------- ------ ------ ---- ---- ------- ----- -- ----<br>-------- ------- -- ---------- --- - --- ----- ----- ----<br>---- --- --- ----- --- ---- ---- ------- ----- ---- -------<br>--- --- -- ----- -- --- ---- -- --- ---- -- ------ ------<br>--- ----- -- ----,103240.38999999902,103234.96499999965,102495.497,102498.31499999891,102512.177,103246.097,,0,When
screen,html.Screen,2_1_0_1_1,2021-04-24T12:42:51.144Z,,,,,,,,,,,,,,,,,53,,,,,,,,,,,,,,990.1029999993771,,response,,,,99,,,,,,,Space,keypress(Space),,,,,,,,---- it ----- -- ------ - ------- --- ----------<br>------------- ------ ------ ---- ---- ------- ----- -- ----<br>-------- ------- -- ---------- --- - --- ----- ----- ----<br>---- --- --- ----- --- ---- ---- ------- ----- ---- -------<br>--- --- -- ----- -- --- ---- -- --- ---- -- ------ ------<br>--- ----- -- ----,104238.27999999958,104236.19999999937,103229.417,103240.56500000006,103246.097,104246.786,,1,it
screen,html.Screen,2_1_0_1_2,2021-04-24T12:42:51.695Z,,,,,,,,,,,,,,,,,53,,,,,,,,,,,,,,540.6789999994362,,response,,,,99,,,,,,,Space,keypress(Space),,,,,,,,---- -- comes -- ------ - ------- --- ----------<br>------------- ------ ------ ---- ---- ------- ----- -- ----<br>-------- ------- -- ---------- --- - --- ----- ----- ----<br>---- --- --- ----- --- ---- ---- ------- ----- ---- -------<br>--- --- -- ----- -- --- ---- -- --- ---- -- ------ ------<br>--- ----- -- ----,104789.63499999918,104787.46499999943,104230.106,104238.42999999943,104246.786,104797.226,,2,comes
screen,html.Screen,2_1_0_1_3,2021-04-24T12:42:52.269Z,,,,,,,,,,,,,,,,,53,,,,,,,,,,,,,,563.9839999991236,,response,,,,99,,,,,,,Space,keypress(Space),,,,,,,,---- -- ----- to ------ - ------- --- ----------<br>------------- ------ ------ ---- ---- ------- ----- -- ----<br>-------- ------- -- ---------- --- - --- ----- ----- ----<br>---- --- --- ----- --- ---- ---- ------- ----- ---- -------<br>--- --- -- ----- -- --- ---- -- --- ---- -- ------ ------<br>--- ----- -- ----,105363.31000000064,105361.20999999912,104780.546,104789.78499999903,104797.226,105364.346,,3,to
screen,html.Screen,2_1_0_1_4,2021-04-24T12:42:53.225Z,,,,,,,,,,,,,,,,,53,,,,,,,,,,,,,,953.1539999991946,,response,,,,99,,,,,,,Space,keypress(Space),,,,,,,,---- -- ----- -- having - ------- --- ----------<br>------------- ------ ------ ---- ---- ------- ----- -- ----<br>-------- ------- -- ---------- --- - --- ----- ----- ----<br>---- --- --- ----- --- ---- ---- ------- ----- ---- -------<br>--- --- -- ----- -- --- ---- -- --- ---- -- ------ ------<br>--- ----- -- ----,106319.65499999933,106317.4999999992,105347.666,105363.46500000036,105364.346,106331.786,,4,having
screen,html.Screen,2_1_0_1_5,2021-04-24T12:42:53.709Z,,,,,,,,,,,,,,,,,53,,,,,,,,,,,,,,469.4139999998879,,response,,,,99,,,,,,,Space,keypress(Space),,,,,,,,---- -- ----- -- ------ a ------- --- ----------<br>------------- ------ ------ ---- ---- ------- ----- -- ----<br>-------- ------- -- ---------- --- - --- ----- ----- ----<br>---- --- --- ----- --- ---- ---- ------- ----- ---- -------<br>--- --- -- ----- -- --- ---- -- --- ---- -- ------ ------<br>--- ----- -- ----,106803.31999999908,106801.19999999988,106315.106,106319.80499999918,106331.786,106815.506,,5,a
screen,html.Screen,2_1_0_1_6,2021-04-24T12:42:54.204Z,,,,,,,,,,,,,,,,,53,,,,,,,,,,,,,,480.6889999989944,,response,,,,99,,,,,,,Space,keypress(Space),,,,,,,,---- -- ----- -- ------ - lasting --- ----------<br>------------- ------ ------ ---- ---- ------- ----- -- ----<br>-------- ------- -- ---------- --- - --- ----- ----- ----<br>---- --- --- ----- --- ---- ---- ------- ----- ---- -------<br>--- --- -- ----- -- --- ---- -- --- ---- -- ------ ------<br>--- ----- -- ----,107298.25999999957,107296.19499999899,106798.826,106803.50999999973,106815.506,107299.226,,6,lasting
screen,html.Screen,2_1_0_1_7,2021-04-24T12:42:54.654Z,,,,,,,,,,,,,,,,,53,,,,,,,,,,,,,,447.00900000052934,,response,,,,99,,,,,,,Space,keypress(Space),,,,,,,,---- -- ----- -- ------ - ------- and ----------<br>------------- ------ ------ ---- ---- ------- ----- -- ----<br>-------- ------- -- ---------- --- - --- ----- ----- ----<br>---- --- --- ----- --- ---- ---- ------- ----- ---- -------<br>--- --- -- ----- -- --- ---- -- --- ---- -- ------ ------<br>--- ----- -- ----,107748.26500000017,107746.23500000052,107282.546,107298.44500000036,107299.226,107749.586,,7,and
screen,html.Screen,2_1_0_1_8,2021-04-24T12:42:55.285Z,,,,,,,,,,,,,,,,,53,,,,,,,,,,,,,,626.62400000036,,response,,,,99,,,,,,,Space,keypress(Space),,,,,,,,---- -- ----- -- ------ - ------- --- fulfilling<br>------------- ------ ------ ---- ---- ------- ----- -- ----<br>-------- ------- -- ---------- --- - --- ----- ----- ----<br>---- --- --- ----- --- ---- ---- ------- ----- ---- -------<br>--- --- -- ----- -- --- ---- -- --- ---- -- ------ ------<br>--- ----- -- ----,108378.95000000026,108376.21000000036,107732.906,107748.42499999977,107749.586,108383.426,,8,fulfilling
screen,html.Screen,2_1_0_1_9,2021-04-24T12:42:56.241Z,,,,,,,,,,,,,,,,,53,,,,,,,,,,,,,,949.0339999996213,,response,,,,99,,,,,,,Space,keypress(Space),,,,,,,,"---- -- ----- -- ------ - ------- --- ----------<br>relationship, ------ ------ ---- ---- ------- ----- -- ----<br>-------- ------- -- ---------- --- - --- ----- ----- ----<br>---- --- --- ----- --- ---- ---- ------- ----- ---- -------<br>--- --- -- ----- -- --- ---- -- --- ---- -- ------ ------<br>--- ----- -- ----",109334.61499999976,109332.45999999963,108366.746,108379.19499999953,108383.426,109350.866,,9,"relationship,"
screen,html.Screen,2_1_0_1_10,2021-04-24T12:42:56.825Z,,,,,,,,,,,,,,,,,53,,,,,,,,,,,,,,566.568999999392,,response,,,,99,,,,,,,Space,keypress(Space),,,,,,,,---- -- ----- -- ------ - ------- --- ----------<br>------------- common ------ ---- ---- ------- ----- -- ----<br>-------- ------- -- ---------- --- - --- ----- ----- ----<br>---- --- --- ----- --- ---- ---- ------- ----- ---- -------<br>--- --- -- ----- -- --- ---- -- --- ---- -- ------ ------<br>--- ----- -- ----,109919.16999999921,109917.43499999939,109334.186,109334.77499999935,109350.866,109934.666,,10,common
screen,html.Screen,2_1_0_1_11,2021-04-24T12:42:58.209Z,,,,,,,,,,,,,,,,,53,,,,,,,,,,,,,,1366.3889999999083,,response,,,,99,,,,,,,Space,keypress(Space),,,,,,,,---- -- ----- -- ------ - ------- --- ----------<br>------------- ------ wisdom ---- ---- ------- ----- -- ----<br>-------- ------- -- ---------- --- - --- ----- ----- ----<br>---- --- --- ----- --- ---- ---- ------- ----- ---- -------<br>--- --- -- ----- -- --- ---- -- --- ---- -- ------ ------<br>--- ----- -- ----,111303.40500000057,111301.0549999999,109917.986,109919.33000000063,109934.666,111319.106,,11,wisdom
screen,html.Screen,2_1_0_1_12,2021-04-24T12:42:59.053Z,,,,,,,,,,,,,,,,,53,,,,,,,,,,,,,,825.8340000001335,,response,,,,99,,,,,,,Space,keypress(Space),,,,,,,,---- -- ----- -- ------ - ------- --- ----------<br>------------- ------ ------ says ---- ------- ----- -- ----<br>-------- ------- -- ---------- --- - --- ----- ----- ----<br>---- --- --- ----- --- ---- ---- ------- ----- ---- -------<br>--- --- -- ----- -- --- ---- -- --- ---- -- ------ ------<br>--- ----- -- ----,112147.0049999989,112144.94000000013,111302.426,111303.55500000042,111319.106,112153.106,,12,says
screen,html.Screen,2_1_0_1_13,2021-04-24T12:42:59.751Z,,,,,,,,,,,,,,,,,53,,,,,,,,,,,,,,689.3290000004781,,response,,,,99,,,,,,,Space,keypress(Space),,,,,,,,---- -- ----- -- ------ - ------- --- ----------<br>------------- ------ ------ ---- that ------- ----- -- ----<br>-------- ------- -- ---------- --- - --- ----- ----- ----<br>---- --- --- ----- --- ---- ---- ------- ----- ---- -------<br>--- --- -- ----- -- --- ---- -- --- ---- -- ------ ------<br>--- ----- -- ----,112844.6100000001,112842.43500000048,112136.426,112147.16000000044,112153.106,112853.666,,13,that
screen,html.Screen,2_1_0_1_14,2021-04-24T12:43:00.640Z,,,,,,,,,,,,,,,,,53,,,,,,,,,,,,,,877.5340000001743,,response,,,,99,,,,,,,Space,keypress(Space),,,,,,,,---- -- ----- -- ------ - ------- --- ----------<br>------------- ------ ------ ---- ---- feeling ----- -- ----<br>-------- ------- -- ---------- --- - --- ----- ----- ----<br>---- --- --- ----- --- ---- ---- ------- ----- ---- -------<br>--- --- -- ----- -- --- ---- -- --- ---- -- ------ ------<br>--- ----- -- ----,113734.36000000038,113731.20000000017,112836.986,112844.7699999997,112853.666,113737.706,,14,feeling
screen,html.Screen,2_1_0_1_15,2021-04-24T12:43:01.449Z,,,,,,,,,,,,,,,,,53,,,,,,,,,,,,,,803.3589999994292,,response,,,,99,,,,,,,Space,keypress(Space),,,,,,,,---- -- ----- -- ------ - ------- --- ----------<br>------------- ------ ------ ---- ---- ------- close -- ----<br>-------- ------- -- ---------- --- - --- ----- ----- ----<br>---- --- --- ----- --- ---- ---- ------- ----- ---- -------<br>--- --- -- ----- -- --- ---- -- --- ---- -- ------ ------<br>--- ----- -- ----,114543.32000000068,114541.06499999943,113721.026,113734.5150000001,113737.706,114554.894,,15,close
screen,html.Screen,2_1_0_1_16,2021-04-24T12:43:01.911Z,,,,,,,,,,,,,,,,,53,,,,,,,,,,,,,,447.4560000006604,,response,,,,99,,,,,,,Space,keypress(Space),,,,,,,,---- -- ----- -- ------ - ------- --- ----------<br>------------- ------ ------ ---- ---- ------- ----- to ----<br>-------- ------- -- ---------- --- - --- ----- ----- ----<br>---- --- --- ----- --- ---- ---- ------- ----- ---- -------<br>--- --- -- ----- -- --- ---- -- --- ---- -- ------ ------<br>--- ----- -- ----,115004.48999999935,115002.35000000066,114538.214,114543.48500000015,114554.894,115005.254,,16,to
screen,html.Screen,2_1_0_1_17,2021-04-24T12:43:02.361Z,,,,,,,,,,,,,,,,,53,,,,,,,,,,,,,,447.05600000057893,,response,,,,99,,,,,,,Space,keypress(Space),,,,,,,,---- -- ----- -- ------ - ------- --- ----------<br>------------- ------ ------ ---- ---- ------- ----- -- your<br>-------- ------- -- ---------- --- - --- ----- ----- ----<br>---- --- --- ----- --- ---- ---- ------- ----- ---- -------<br>--- --- -- ----- -- --- ---- -- --- ---- -- ------ ------<br>--- ----- -- ----,115454.49499999995,115452.31000000058,114988.574,115004.64499999907,115005.254,115455.614,,17,your
screen,html.Screen,2_1_0_1_18,2021-04-24T12:43:03.069Z,,,,,,,,,,,,,,,,,53,,,,,,,,,,,,,,705.4609999999811,,response,,,,99,,,,,,,Space,keypress(Space),,,,,,,,---- -- ----- -- ------ - ------- --- ----------<br>------------- ------ ------ ---- ---- ------- ----- -- ----<br>romantic ------- -- ---------- --- - --- ----- ----- ----<br>---- --- --- ----- --- ---- ---- ------- ----- ---- -------<br>--- --- -- ----- -- --- ---- -- --- ---- -- ------ ------<br>--- ----- -- ----,116163.19999999905,116161.07499999998,115438.934,115454.63500000005,115455.614,116172.854,,18,romantic
screen,html.Screen,2_1_0_1_19,2021-04-24T12:43:03.891Z,,,,,,,,,,,,,,,,,53,,,,,,,,,,,,,,809.4009999989794,,response,,,,99,,,,,,,Space,keypress(Space),,,,,,,,---- -- ----- -- ------ - ------- --- ----------<br>------------- ------ ------ ---- ---- ------- ----- -- ----<br>-------- partner -- ---------- --- - --- ----- ----- ----<br>---- --- --- ----- --- ---- ---- ------- ----- ---- -------<br>--- --- -- ----- -- --- ---- -- --- ---- -- ------ ------<br>--- ----- -- ----,116984.31999999957,116982.25499999899,116156.174,116163.38999999971,116172.854,116990.174,,19,partner
screen,html.Screen,2_1_0_1_20,2021-04-24T12:43:04.329Z,,,,,,,,,,,,,,,,,53,,,,,,,,,,,,,,430.89100000045437,,response,,,,99,,,,,,,Space,keypress(Space),,,,,,,,---- -- ----- -- ------ - ------- --- ----------<br>------------- ------ ------ ---- ---- ------- ----- -- ----<br>-------- ------- is ---------- --- - --- ----- ----- ----<br>---- --- --- ----- --- ---- ---- ------- ----- ---- -------<br>--- --- -- ----- -- --- ---- -- --- ---- -- ------ ------<br>--- ----- -- ----,117423.00500000056,117421.06500000045,116973.494,116984.4749999993,116990.174,117423.854,,20,is
screen,html.Screen,2_1_0_1_21,2021-04-24T12:43:04.881Z,,,,,,,,,,,,,,,,,53,,,,,,,,,,,,,,548.450999999317,,response,,,,99,,,,,,,Space,keypress(Space),,,,,,,,---- -- ----- -- ------ - ------- --- ----------<br>------------- ------ ------ ---- ---- ------- ----- -- ----<br>-------- ------- -- paramount. --- - --- ----- ----- ----<br>---- --- --- ----- --- ---- ---- ------- ----- ---- -------<br>--- --- -- ----- -- --- ---- -- --- ---- -- ------ ------<br>--- ----- -- ----,117974.51999999976,117972.30499999932,117407.174,117423.16000000028,117423.854,117990.974,,21,paramount.
screen,html.Screen,2_1_0_1_22,2021-04-24T12:43:05.499Z,,,,,,,,,,,,,,,,,53,,,,,,,,,,,,,,600.0910000005242,,response,,,,99,,,,,,,Space,keypress(Space),,,,,,,,---- -- ----- -- ------ - ------- --- ----------<br>------------- ------ ------ ---- ---- ------- ----- -- ----<br>-------- ------- -- ---------- But - --- ----- ----- ----<br>---- --- --- ----- --- ---- ---- ------- ----- ---- -------<br>--- --- -- ----- -- --- ---- -- --- ---- -- ------ ------<br>--- ----- -- ----,118593.19999999934,118591.06500000053,117974.294,117974.67499999948,117990.974,118608.134,,22,But
screen,html.Screen,2_1_0_1_23,2021-04-24T12:43:05.961Z,,,,,,,,,,,,,,,,,53,,,,,,,,,,,,,,444.19100000055914,,response,,,,99,,,,,,,Space,keypress(Space),,,,,,,,---- -- ----- -- ------ - ------- --- ----------<br>------------- ------ ------ ---- ---- ------- ----- -- ----<br>-------- ------- -- ---------- --- a --- ----- ----- ----<br>---- --- --- ----- --- ---- ---- ------- ----- ---- -------<br>--- --- -- ----- -- --- ---- -- --- ---- -- ------ ------<br>--- ----- -- ----,119054.49500000032,119052.32500000056,118591.454,118593.34999999919,118608.134,119058.494,,23,a
screen,html.Screen,2_1_0_1_24,2021-04-24T12:43:06.388Z,,,,,,,,,,,,,,,,,53,,,,,,,,,,,,,,421.3159999989002,,response,,,,99,,,,,,,Space,keypress(Space),,,,,,,,---- -- ----- -- ------ - ------- --- ----------<br>------------- ------ ------ ---- ---- ------- ----- -- ----<br>-------- ------- -- ---------- --- - new ----- ----- ----<br>---- --- --- ----- --- ---- ---- ------- ----- ---- -------<br>--- --- -- ----- -- --- ---- -- --- ---- -- ------ ------<br>--- ----- -- ----,119481.88999999911,119479.8099999989,119041.814,119054.65000000004,119058.494,119492.174,,24,new
screen,html.Screen,2_1_0_1_25,2021-04-24T12:43:06.872Z,,,,,,,,,,,,,,,,,53,,,,,,,,,,,,,,471.3959999998915,,response,,,,99,,,,,,,Space,keypress(Space),,,,,,,,---- -- ----- -- ------ - ------- --- ----------<br>------------- ------ ------ ---- ---- ------- ----- -- ----<br>-------- ------- -- ---------- --- - --- study ----- ----<br>---- --- --- ----- --- ---- ---- ------- ----- ---- -------<br>--- --- -- ----- -- --- ---- -- --- ---- -- ------ ------<br>--- ----- -- ----,119965.68999999909,119963.56999999989,119475.494,119482.04500000065,119492.174,119975.894,,25,study
screen,html.Screen,2_1_0_1_26,2021-04-24T12:43:07.299Z,,,,,,,,,,,,,,,,,53,,,,,,,,,,,,,,415.161000000051,,response,,,,99,,,,,,,Space,keypress(Space),,,,,,,,---- -- ----- -- ------ - ------- --- ----------<br>------------- ------ ------ ---- ---- ------- ----- -- ----<br>-------- ------- -- ---------- --- - --- ----- finds ----<br>---- --- --- ----- --- ---- ---- ------- ----- ---- -------<br>--- --- -- ----- -- --- ---- -- --- ---- -- ------ ------<br>--- ----- -- ----,120392.98000000053,120391.05500000005,119959.214,119965.83999999893,119975.894,120409.574,,26,finds
screen,html.Screen,2_1_0_1_27,2021-04-24T12:43:07.761Z,,,,,,,,,,,,,,,,,53,,,,,,,,,,,,,,442.7260000004753,,response,,,,99,,,,,,,Space,keypress(Space),,,,,,,,---- -- ----- -- ------ - ------- --- ----------<br>------------- ------ ------ ---- ---- ------- ----- -- ----<br>-------- ------- -- ---------- --- - --- ----- ----- that<br>---- --- --- ----- --- ---- ---- ------- ----- ---- -------<br>--- --- -- ----- -- --- ---- -- --- ---- -- ------ ------<br>--- ----- -- ----,120854.33999999987,120852.30000000047,120392.894,120393.13500000026,120409.574,120859.934,,27,that
screen,html.Screen,2_1_0_1_28,2021-04-24T12:43:08.233Z,,,,,,,,,,,,,,,,,53,,,,,,,,,,,,,,464.90599999931874,,response,,,,99,,,,,,,Space,keypress(Space),,,,,,,,---- -- ----- -- ------ - ------- --- ----------<br>------------- ------ ------ ---- ---- ------- ----- -- ----<br>-------- ------- -- ---------- --- - --- ----- ----- ----<br>it's --- --- ----- --- ---- ---- ------- ----- ---- -------<br>--- --- -- ----- -- --- ---- -- --- ---- -- ------ ------<br>--- ----- -- ----,121326.8850000004,121324.83999999931,120843.254,120854.48499999984,120859.934,121343.654,,28,it's
screen,html.Screen,2_1_0_1_29,2021-04-24T12:43:08.728Z,,,,,,,,,,,,,,,,,53,,,,,,,,,,,,,,476.17600000037055,,response,,,,99,,,,,,,Space,keypress(Space),,,,,,,,---- -- ----- -- ------ - ------- --- ----------<br>------------- ------ ------ ---- ---- ------- ----- -- ----<br>-------- ------- -- ---------- --- - --- ----- ----- ----<br>---- not --- ----- --- ---- ---- ------- ----- ---- -------<br>--- --- -- ----- -- --- ---- -- --- ---- -- ------ ------<br>--- ----- -- ----,121821.96999999906,121819.83000000037,121326.974,121327.04000000012,121343.654,121827.374,,29,not
screen,html.Screen,2_1_0_1_30,2021-04-24T12:43:09.201Z,,,,,,,,,,,,,,,,,53,,,,,,,,,,,,,,464.95600000022387,,response,,,,99,,,,,,,Space,keypress(Space),,,,,,,,---- -- ----- -- ------ - ------- --- ----------<br>------------- ------ ------ ---- ---- ------- ----- -- ----<br>-------- ------- -- ---------- --- - --- ----- ----- ----<br>---- --- how ----- --- ---- ---- ------- ----- ---- -------<br>--- --- -- ----- -- --- ---- -- --- ---- -- ------ ------<br>--- ----- -- ----,122294.23999999926,122292.33000000022,121810.694,121822.15499999984,121827.374,122311.094,,30,how
screen,html.Screen,2_1_0_1_31,2021-04-24T12:43:09.696Z,,,,,,,,,,,,,,,,,53,,,,,,,,,,,,,,476.16099999927974,,response,,,,99,,,,,,,Space,keypress(Space),,,,,,,,---- -- ----- -- ------ - ------- --- ----------<br>------------- ------ ------ ---- ---- ------- ----- -- ----<br>-------- ------- -- ---------- --- - --- ----- ----- ----<br>---- --- --- close --- ---- ---- ------- ----- ---- -------<br>--- --- -- ----- -- --- ---- -- --- ---- -- ------ ------<br>--- ----- -- ----,122789.33499999948,122787.25499999928,122294.414,122294.40000000068,122311.094,122794.814,,31,close
screen,html.Screen,2_1_0_1_32,2021-04-24T12:43:10.123Z,,,,,,,,,,,,,,,,,53,,,,,,,,,,,,,,420.01099999911094,,response,,,,99,,,,,,,Space,keypress(Space),,,,,,,,---- -- ----- -- ------ - ------- --- ----------<br>------------- ------ ------ ---- ---- ------- ----- -- ----<br>-------- ------- -- ---------- --- - --- ----- ----- ----<br>---- --- --- ----- you ---- ---- ------- ----- ---- -------<br>--- --- -- ----- -- --- ---- -- --- ---- -- ------ ------<br>--- ----- -- ----,123216.98999999899,123214.82499999911,122778.134,122789.4899999992,122794.814,123228.494,,32,you
screen,html.Screen,2_1_0_1_33,2021-04-24T12:43:10.585Z,,,,,,,,,,,,,,,,,53,,,,,,,,,,,,,,447.5809999993944,,response,,,,99,,,,,,,Space,keypress(Space),,,,,,,,---- -- ----- -- ------ - ------- --- ----------<br>------------- ------ ------ ---- ---- ------- ----- -- ----<br>-------- ------- -- ---------- --- - --- ----- ----- ----<br>---- --- --- ----- --- feel ---- ------- ----- ---- -------<br>--- --- -- ----- -- --- ---- -- --- ---- -- ------ ------<br>--- ----- -- ----,123678.24999999903,123676.0749999994,123211.814,123217.1500000004,123228.494,123678.854,,33,feel
screen,html.Screen,2_1_0_1_34,2021-04-24T12:43:11.081Z,,,,,,,,,,,,,,,,,53,,,,,,,,,,,,,,492.2160000003205,,response,,,,99,,,,,,,Space,keypress(Space),,,,,,,,---- -- ----- -- ------ - ------- --- ----------<br>------------- ------ ------ ---- ---- ------- ----- -- ----<br>-------- ------- -- ---------- --- - --- ----- ----- ----<br>---- --- --- ----- --- ---- that ------- ----- ---- -------<br>--- --- -- ----- -- --- ---- -- --- ---- -- ------ ------<br>--- ----- -- ----,124174.32499999995,124171.07000000033,123662.174,123678.40500000057,123678.854,124179.127,,34,that
screen,html.Screen,2_1_0_1_35,2021-04-24T12:43:11.687Z,,,,,,,,,,,,,,,,,53,,,,,,,,,,,,,,599.3080000001792,,response,,,,99,,,,,,,Space,keypress(Space),,,,,,,,---- -- ----- -- ------ - ------- --- ----------<br>------------- ------ ------ ---- ---- ------- ----- -- ----<br>-------- ------- -- ---------- --- - --- ----- ----- ----<br>---- --- --- ----- --- ---- ---- matters ----- ---- -------<br>--- --- -- ----- -- --- ---- -- --- ---- -- ------ ------<br>--- ----- -- ----,124780.53999999975,124778.43500000017,124162.447,124174.46500000005,124179.127,124796.287,,35,matters
screen,html.Screen,2_1_0_1_36,2021-04-24T12:43:12.148Z,,,,,,,,,,,,,,,,,53,,,,,,,,,,,,,,443.5779999995575,,response,,,,99,,,,,,,Space,keypress(Space),,,,,,,,"---- -- ----- -- ------ - ------- --- ----------<br>------------- ------ ------ ---- ---- ------- ----- -- ----<br>-------- ------- -- ---------- --- - --- ----- ----- ----<br>---- --- --- ----- --- ---- ---- ------- most, ---- -------<br>--- --- -- ----- -- --- ---- -- --- ---- -- ------ ------<br>--- ----- -- ----",125241.99000000044,125239.86499999955,124779.607,124781.30000000056,124796.287,125246.647,,36,"most,"
screen,html.Screen,2_1_0_1_37,2021-04-24T12:43:12.689Z,,,,,,,,,,,,,,,,,53,,,,,,,,,,,,,,533.1679999998742,,response,,,,99,,,,,,,Space,keypress(Space),,,,,,,,---- -- ----- -- ------ - ------- --- ----------<br>------------- ------ ------ ---- ---- ------- ----- -- ----<br>-------- ------- -- ---------- --- - --- ----- ----- ----<br>---- --- --- ----- --- ---- ---- ------- ----- it's -------<br>--- --- -- ----- -- --- ---- -- --- ---- -- ------ ------<br>--- ----- -- ----,125782.1700000004,125779.81499999987,125229.967,125242.13500000042,125246.647,125797.087,,37,it's
screen,html.Screen,2_1_0_1_38,2021-04-24T12:43:13.184Z,,,,,,,,,,,,,,,,,53,,,,,,,,,,,,,,477.74800000016694,,response,,,,99,,,,,,,Space,keypress(Space),,,,,,,,---- -- ----- -- ------ - ------- --- ----------<br>------------- ------ ------ ---- ---- ------- ----- -- ----<br>-------- ------- -- ---------- --- - --- ----- ----- ----<br>---- --- --- ----- --- ---- ---- ------- ----- ---- whether<br>--- --- -- ----- -- --- ---- -- --- ---- -- ------ ------<br>--- ----- -- ----,126277.20000000045,126274.83500000017,125780.407,125782.3499999995,125797.087,126280.807,,38,whether
screen,html.Screen,2_1_0_1_39,2021-04-24T12:43:13.701Z,,,,,,,,,,,,,,,,,53,,,,,,,,,,,,,,511.528000000093,,response,,,,99,,,,,,,Space,keypress(Space),,,,,,,,---- -- ----- -- ------ - ------- --- ----------<br>------------- ------ ------ ---- ---- ------- ----- -- ----<br>-------- ------- -- ---------- --- - --- ----- ----- ----<br>---- --- --- ----- --- ---- ---- ------- ----- ---- -------<br>you --- -- ----- -- --- ---- -- --- ---- -- ------ ------<br>--- ----- -- ----,126794.35999999987,126792.3350000001,126264.127,126277.39499999916,126280.807,126797.887,,39,you
screen,html.Screen,2_1_0_1_40,2021-04-24T12:43:14.241Z,,,,,,,,,,,,,,,,,53,,,,,,,,,,,,,,534.422999999777,,response,,,,99,,,,,,,Space,keypress(Space),,,,,,,,---- -- ----- -- ------ - ------- --- ----------<br>------------- ------ ------ ---- ---- ------- ----- -- ----<br>-------- ------- -- ---------- --- - --- ----- ----- ----<br>---- --- --- ----- --- ---- ---- ------- ----- ---- -------<br>--- are -- ----- -- --- ---- -- --- ---- -- ------ ------<br>--- ----- -- ----,127334.46000000004,127332.30999999978,126781.207,126794.51499999959,126797.887,127348.327,,40,are
screen,html.Screen,2_1_0_1_41,2021-04-24T12:43:14.702Z,,,,,,,,,,,,,,,,,53,,,,,,,,,,,,,,445.09799999983807,,response,,,,99,,,,,,,Space,keypress(Space),,,,,,,,---- -- ----- -- ------ - ------- --- ----------<br>------------- ------ ------ ---- ---- ------- ----- -- ----<br>-------- ------- -- ---------- --- - --- ----- ----- ----<br>---- --- --- ----- --- ---- ---- ------- ----- ---- -------<br>--- --- as ----- -- --- ---- -- --- ---- -- ------ ------<br>--- ----- -- ----,127795.63000000053,127793.42499999984,127331.647,127334.60000000014,127348.327,127798.687,,41,as
screen,html.Screen,2_1_0_1_42,2021-04-24T12:43:15.197Z,,,,,,,,,,,,,,,,,53,,,,,,,,,,,,,,489.7530000002589,,response,,,,99,,,,,,,Space,keypress(Space),,,,,,,,---- -- ----- -- ------ - ------- --- ----------<br>------------- ------ ------ ---- ---- ------- ----- -- ----<br>-------- ------- -- ---------- --- - --- ----- ----- ----<br>---- --- --- ----- --- ---- ---- ------- ----- ---- -------<br>--- --- -- close -- --- ---- -- --- ---- -- ------ ------<br>--- ----- -- ----,128290.73000000062,128288.44000000026,127782.007,127795.80499999975,127798.687,128299.087,,42,close
screen,html.Screen,2_1_0_1_43,2021-04-24T12:43:15.659Z,,,,,,,,,,,,,,,,,53,,,,,,,,,,,,,,450.5879999991157,,response,,,,99,,,,,,,Space,keypress(Space),,,,,,,,---- -- ----- -- ------ - ------- --- ----------<br>------------- ------ ------ ---- ---- ------- ----- -- ----<br>-------- ------- -- ---------- --- - --- ----- ----- ----<br>---- --- --- ----- --- ---- ---- ------- ----- ---- -------<br>--- --- -- ----- as --- ---- -- --- ---- -- ------ ------<br>--- ----- -- ----,128752.11499999932,128749.67499999912,128282.407,128290.89500000009,128299.087,128766.127,,43,as
screen,html.Screen,2_1_0_1_44,2021-04-24T12:43:16.064Z,,,,,,,,,,,,,,,,,53,,,,,,,,,,,,,,388.6929999997519,,response,,,,99,,,,,,,Space,keypress(Space),,,,,,,,---- -- ----- -- ------ - ------- --- ----------<br>------------- ------ ------ ---- ---- ------- ----- -- ----<br>-------- ------- -- ---------- --- - --- ----- ----- ----<br>---- --- --- ----- --- ---- ---- ------- ----- ---- -------<br>--- --- -- ----- -- you ---- -- --- ---- -- ------ ------<br>--- ----- -- ----,129156.92499999932,129154.81999999975,128749.447,128752.31499999973,128766.127,129166.447,,44,you
screen,html.Screen,2_1_0_1_45,2021-04-24T12:43:16.558Z,,,,,,,,,,,,,,,,,53,,,,,,,,,,,,,,483.25299999993877,,response,,,,99,,,,,,,Space,keypress(Space),,,,,,,,---- -- ----- -- ------ - ------- --- ----------<br>------------- ------ ------ ---- ---- ------- ----- -- ----<br>-------- ------- -- ---------- --- - --- ----- ----- ----<br>---- --- --- ----- --- ---- ---- ------- ----- ---- -------<br>--- --- -- ----- -- --- want -- --- ---- -- ------ ------<br>--- ----- -- ----,129651.70500000022,129649.69999999994,129149.767,129157.73499999887,129166.447,129666.847,,45,want
screen,html.Screen,2_1_0_1_46,2021-04-24T12:43:16.998Z,,,,,,,,,,,,,,,,,53,,,,,,,,,,,,,,421.56300000030024,,response,,,,99,,,,,,,Space,keypress(Space),,,,,,,,---- -- ----- -- ------ - ------- --- ----------<br>------------- ------ ------ ---- ---- ------- ----- -- ----<br>-------- ------- -- ---------- --- - --- ----- ----- ----<br>---- --- --- ----- --- ---- ---- ------- ----- ---- -------<br>--- --- -- ----- -- --- ---- to --- ---- -- ------ ------<br>--- ----- -- ----,130090.91500000068,130088.4100000003,129650.167,129653.06500000042,129666.847,130100.527,,46,to
screen,html.Screen,2_1_0_1_47,2021-04-24T12:43:17.447Z,,,,,,,,,,,,,,,,,53,,,,,,,,,,,,,,437.89299999894865,,response,,,,99,,,,,,,Space,keypress(Space),,,,,,,,"---- -- ----- -- ------ - ------- --- ----------<br>------------- ------ ------ ---- ---- ------- ----- -- ----<br>-------- ------- -- ---------- --- - --- ----- ----- ----<br>---- --- --- ----- --- ---- ---- ------- ----- ---- -------<br>--- --- -- ----- -- --- ---- -- be, ---- -- ------ ------<br>--- ----- -- ----",130540.70499999943,130538.41999999895,130083.847,130091.0700000004,130100.527,130550.887,,47,"be,"
screen,html.Screen,2_1_0_1_48,2021-04-24T12:43:17.920Z,,,,,,,,,,,,,,,,,53,,,,,,,,,,,,,,460.1930000002176,,response,,,,99,,,,,,,Space,keypress(Space),,,,,,,,---- -- ----- -- ------ - ------- --- ----------<br>------------- ------ ------ ---- ---- ------- ----- -- ----<br>-------- ------- -- ---------- --- - --- ----- ----- ----<br>---- --- --- ----- --- ---- ---- ------- ----- ---- -------<br>--- --- -- ----- -- --- ---- -- --- even -- ------ ------<br>--- ----- -- ----,131013.11499999974,131011.08000000022,130534.207,130540.83499999979,130550.887,131017.927,,48,even
screen,html.Screen,2_1_0_1_49,2021-04-24T12:43:18.314Z,,,,,,,,,,,,,,,,,53,,,,,,,,,,,,,,386.89799999960815,,response,,,,99,,,,,,,Space,keypress(Space),,,,,,,,---- -- ----- -- ------ - ------- --- ----------<br>------------- ------ ------ ---- ---- ------- ----- -- ----<br>-------- ------- -- ---------- --- - --- ----- ----- ----<br>---- --- --- ----- --- ---- ---- ------- ----- ---- -------<br>--- --- -- ----- -- --- ---- -- --- ---- if ------ ------<br>--- ----- -- ----,131407.03000000032,131404.8249999996,131001.247,131013.27499999934,131017.927,131418.247,,49,if
screen,html.Screen,2_1_0_1_50,2021-04-24T12:43:18.742Z,,,,,,,,,,,,,,,,,53,,,,,,,,,,,,,,413.93799999929615,,response,,,,99,,,,,,,Space,keypress(Space),,,,,,,,---- -- ----- -- ------ - ------- --- ----------<br>------------- ------ ------ ---- ---- ------- ----- -- ----<br>-------- ------- -- ---------- --- - --- ----- ----- ----<br>---- --- --- ----- --- ---- ---- ------- ----- ---- -------<br>--- --- -- ----- -- --- ---- -- --- ---- -- that's ------<br>--- ----- -- ----,131835.05499999956,131832.1849999993,131401.567,131407.17500000028,131418.247,131851.927,,50,that's
screen,html.Screen,2_1_0_1_51,2021-04-24T12:43:19.292Z,,,,,,,,,,,,,,,,,53,,,,,,,,,,,,,,531.6629999994475,,response,,,,99,,,,,,,Space,keypress(Space),,,,,,,,---- -- ----- -- ------ - ------- --- ----------<br>------------- ------ ------ ---- ---- ------- ----- -- ----<br>-------- ------- -- ---------- --- - --- ----- ----- ----<br>---- --- --- ----- --- ---- ---- ------- ----- ---- -------<br>--- --- -- ----- -- --- ---- -- --- ---- -- ------ really<br>--- ----- -- ----,132385.6849999993,132383.58999999944,131835.247,131835.24500000023,131851.927,132402.367,,51,really
screen,html.Screen,2_1_0_1_52,2021-04-24T12:43:19.720Z,,,,,,,,,,,,,,,,,53,,,,,,,,,,,,,,408.7029999997467,,response,,,,99,,,,,,,Space,keypress(Space),,,,,,,,---- -- ----- -- ------ - ------- --- ----------<br>------------- ------ ------ ---- ---- ------- ----- -- ----<br>-------- ------- -- ---------- --- - --- ----- ----- ----<br>---- --- --- ----- --- ---- ---- ------- ----- ---- -------<br>--- --- -- ----- -- --- ---- -- --- ---- -- ------ ------<br>not ----- -- ----,132813.2999999998,132811.06999999975,132385.687,132385.80999999976,132402.367,132819.367,,52,not
screen,html.Screen,2_1_0_1_53,2021-04-24T12:43:20.170Z,,,,,,,,,,,,,,,,,53,,,,,,,,,,,,,,441.72299999996903,,response,,,,99,,,,,,,Space,keypress(Space),,,,,,,,---- -- ----- -- ------ - ------- --- ----------<br>------------- ------ ------ ---- ---- ------- ----- -- ----<br>-------- ------- -- ---------- --- - --- ----- ----- ----<br>---- --- --- ----- --- ---- ---- ------- ----- ---- -------<br>--- --- -- ----- -- --- ---- -- --- ---- -- ------ ------<br>--- close -- ----,133263.2799999992,133261.08999999997,132802.687,132813.42500000028,132819.367,133269.727,,53,close
screen,html.Screen,2_1_0_1_54,2021-04-24T12:43:20.598Z,,,,,,,,,,,,,,,,,53,,,,,,,,,,,,,,418.86299999972107,,response,,,,99,,,,,,,Space,keypress(Space),,,,,,,,---- -- ----- -- ------ - ------- --- ----------<br>------------- ------ ------ ---- ---- ------- ----- -- ----<br>-------- ------- -- ---------- --- - --- ----- ----- ----<br>---- --- --- ----- --- ---- ---- ------- ----- ---- -------<br>--- --- -- ----- -- --- ---- -- --- ---- -- ------ ------<br>--- ----- at ----,133690.73500000013,133688.58999999973,133253.047,133263.4199999993,133269.727,133703.407,,54,at
screen,html.Screen,2_1_0_1_55,2021-04-24T12:43:21.240Z,,,,,,,,,,,,,,,,,53,,,,,,,,,,,,,,626.4079999991227,,response,,,,99,,,,,,,Space,keypress(Space),,,,,,,,---- -- ----- -- ------ - ------- --- ----------<br>------------- ------ ------ ---- ---- ------- ----- -- ----<br>-------- ------- -- ---------- --- - --- ----- ----- ----<br>---- --- --- ----- --- ---- ---- ------- ----- ---- -------<br>--- --- -- ----- -- --- ---- -- --- ---- -- ------ ------<br>--- ----- -- all.,134332.85500000056,134329.81499999913,133686.727,133690.85499999893,133703.407,134337.058,,55,all.
Item 99,flow.Loop,2_1_0_1,2021-04-24T12:43:21.240Z,,,,,,,,,,,,,,,,,,,,,,,,,,,,,,,31817.637999999133,,completion,,,,,A,,,,,,,,,,,silence,,,,,134333.15500000026,134329.81499999913,102495.497,102498.24499999886,102512.177,134337.058,,,
Question 1,html.Screen,2_1_0_2,2021-04-24T12:43:25.765Z,,,,,,,,,,,,,,,,,,,,,,,,,,,,true,FALSE,,4519.551999998919,,response,,,,99,A,,,,,,FALSE,click #choice-2,,,,silence,,,,,138858.48500000066,138856.6099999989,134320.378,134333.26499999932,134337.058,138874.018,,,
Question 2,html.Screen,2_1_0_3,2021-04-24T12:43:34.454Z,,,,,,,,,,,,,,,,,,,,,,,,,,,,false,TRUE,,8670.53700000039,,response,,,,99,A,,,,,,FALSE,click #choice-2,,,,silence,,,,,147546.36500000017,147544.5550000004,138857.338,138858.61499999918,138874.018,147547.565,,,
Item 99,flow.Sequence,2_1_0,2021-04-24T12:43:34.454Z,,,,,,,,,,,,,,,,,,,,,,,,,,,,,,,55039.936000000394,,completion,,,,,,,,,,,,,,,,,,,,,147546.554999999,147544.5550000004,92487.939,92492.10999999923,92504.619,147547.565,,,
Holding screen,html.Screen,2_1_1_0,2021-04-24T12:43:44.448Z,,,,,,,,,,,,,,,,,,,,,,,,,,,,,,,10007.891000000003,,timeout,,,,,,,,,,,,,,,,,,,,,157540.24000000028,157538.776,147530.885,147546.68999999922,147547.565,157555.456,,,
screen,html.Screen,2_1_1_1_0,2021-04-24T12:43:45.540Z,,,,,,,,,,,,,,,,,54,,,,,,,,,,,,,,1074.1189999990165,,response,,,,100,,,,,,,Space,keypress(Space),,,,,,,,At --- ---- --- ------ ----- ------- ---- -- --- ------- --<br>------- ---------- ------ -- ----- -- ----- -- ---- ------<br>--- ----- --- --- ------ -------- ----- --- ------ ----- --<br>----- ----- ---------- --- --- ------ ------ ---- -- ------<br>------- --- ------ ----- --- ---- ------- -- ---- --- --<br>------- ------,158632.70999999985,158629.57499999902,157538.776,157540.39999999985,157555.456,158639.656,,0,At
screen,html.Screen,2_1_1_1_1,2021-04-24T12:43:45.956Z,,,,,,,,,,,,,,,,,54,,,,,,,,,,,,,,406.0339999990247,,response,,,,100,,,,,,,Space,keypress(Space),,,,,,,,-- the ---- --- ------ ----- ------- ---- -- --- ------- --<br>------- ---------- ------ -- ----- -- ----- -- ---- ------<br>--- ----- --- --- ------ -------- ----- --- ------ ----- --<br>----- ----- ---------- --- --- ------ ------ ---- -- ------<br>------- --- ------ ----- --- ---- ------- -- ---- --- --<br>------- ------,159048.09999999998,159045.689999999,158622.976,158632.83000000048,158639.656,159056.656,,1,the
screen,html.Screen,2_1_1_1_2,2021-04-24T12:43:46.417Z,,,,,,,,,,,,,,,,,54,,,,,,,,,,,,,,450.3639999990992,,response,,,,100,,,,,,,Space,keypress(Space),,,,,,,,-- --- time --- ------ ----- ------- ---- -- --- ------- --<br>------- ---------- ------ -- ----- -- ----- -- ---- ------<br>--- ----- --- --- ------ -------- ----- --- ------ ----- --<br>----- ----- ---------- --- --- ------ ------ ---- -- ------<br>------- --- ------ ----- --- ---- ------- -- ---- --- --<br>------- ------,159509.04499999888,159507.0199999991,159039.976,159048.2749999992,159056.656,159523.696,,2,time
screen,html.Screen,2_1_1_1_3,2021-04-24T12:43:46.946Z,,,,,,,,,,,,,,,,,54,,,,,,,,,,,,,,512.1189999992785,,response,,,,100,,,,,,,Space,keypress(Space),,,,,,,,-- --- ---- the ------ ----- ------- ---- -- --- ------- --<br>------- ---------- ------ -- ----- -- ----- -- ---- ------<br>--- ----- --- --- ------ -------- ----- --- ------ ----- --<br>----- ----- ---------- --- --- ------ ------ ---- -- ------<br>------- --- ------ ----- --- ---- ------- -- ---- --- --<br>------- ------,160037.9350000003,160035.81499999927,159507.016,159509.16499999948,159523.696,160040.776,,3,the
screen,html.Screen,2_1_1_1_4,2021-04-24T12:43:47.497Z,,,,,,,,,,,,,,,,,54,,,,,,,,,,,,,,546.4239999999409,,response,,,,100,,,,,,,Space,keypress(Space),,,,,,,,-- --- ---- --- French ----- ------- ---- -- --- ------- --<br>------- ---------- ------ -- ----- -- ----- -- ---- ------<br>--- ----- --- --- ------ -------- ----- --- ------ ----- --<br>----- ----- ---------- --- --- ------ ------ ---- -- ------<br>------- --- ------ ----- --- ---- ------- -- ---- --- --<br>------- ------,160589.25499999896,160587.19999999995,160024.096,160038.05999999895,160040.776,160591.216,,4,French
screen,html.Screen,2_1_1_1_5,2021-04-24T12:43:48.037Z,,,,,,,,,,,,,,,,,54,,,,,,,,,,,,,,535.8490000005986,,response,,,,100,,,,,,,Space,keypress(Space),,,,,,,,-- --- ---- --- ------ crown ------- ---- -- --- ------- --<br>------- ---------- ------ -- ----- -- ----- -- ---- ------<br>--- ----- --- --- ------ -------- ----- --- ------ ----- --<br>----- ----- ---------- --- --- ------ ------ ---- -- ------<br>------- --- ------ ----- --- ---- ------- -- ---- --- --<br>------- ------,161129.17000000016,161127.06500000058,160574.536,160589.3699999997,160591.216,161141.656,,5,crown
screen,html.Screen,2_1_1_1_6,2021-04-24T12:43:48.465Z,,,,,,,,,,,,,,,,,54,,,,,,,,,,,,,,412.82900000058,,response,,,,100,,,,,,,Space,keypress(Space),,,,,,,,-- --- ---- --- ------ ----- secured ---- -- --- ------- --<br>------- ---------- ------ -- ----- -- ----- -- ---- ------<br>--- ----- --- --- ------ -------- ----- --- ------ ----- --<br>----- ----- ---------- --- --- ------ ------ ---- -- ------<br>------- --- ------ ----- --- ---- ------- -- ---- --- --<br>------- ------,161556.66500000007,161554.48500000057,161124.976,161129.29500000062,161141.656,161558.656,,6,secured
screen,html.Screen,2_1_1_1_7,2021-04-24T12:43:48.892Z,,,,,,,,,,,,,,,,,54,,,,,,,,,,,,,,423.4640000005893,,response,,,,100,,,,,,,Space,keypress(Space),,,,,,,,-- --- ---- --- ------ ----- ------- much -- --- ------- --<br>------- ---------- ------ -- ----- -- ----- -- ---- ------<br>--- ----- --- --- ------ -------- ----- --- ------ ----- --<br>----- ----- ---------- --- --- ------ ------ ---- -- ------<br>------- --- ------ ----- --- ---- ------- -- ---- --- --<br>------- ------,161984.15000000023,161982.12000000058,161541.976,161556.78500000067,161558.656,161992.336,,7,much
screen,html.Screen,2_1_1_1_8,2021-04-24T12:43:49.320Z,,,,,,,,,,,,,,,,,54,,,,,,,,,,,,,,417.2439999995404,,response,,,,100,,,,,,,Space,keypress(Space),,,,,,,,-- --- ---- --- ------ ----- ------- ---- of --- ------- --<br>------- ---------- ------ -- ----- -- ----- -- ---- ------<br>--- ----- --- --- ------ -------- ----- --- ------ ----- --<br>----- ----- ---------- --- --- ------ ------ ---- -- ------<br>------- --- ------ ----- --- ---- ------- -- ---- --- --<br>------- ------,162411.7150000002,162409.57999999955,161975.656,161984.26499999914,161992.336,162426.016,,8,of
screen,html.Screen,2_1_1_1_9,2021-04-24T12:43:49.691Z,,,,,,,,,,,,,,,,,54,,,,,,,,,,,,,,354.79400000019814,,response,,,,100,,,,,,,Space,keypress(Space),,,,,,,,-- --- ---- --- ------ ----- ------- ---- -- its ------- --<br>------- ---------- ------ -- ----- -- ----- -- ---- ------<br>--- ----- --- --- ------ -------- ----- --- ------ ----- --<br>----- ----- ---------- --- --- ------ ------ ---- -- ------<br>------- --- ------ ----- --- ---- ------- -- ---- --- --<br>------- ------,162782.82500000024,162780.8100000002,162409.336,162411.84000000067,162426.016,162792.976,,9,its
screen,html.Screen,2_1_1_1_10,2021-04-24T12:43:50.107Z,,,,,,,,,,,,,,,,,54,,,,,,,,,,,,,,404.11399999968125,,response,,,,100,,,,,,,Space,keypress(Space),,,,,,,,-- --- ---- --- ------ ----- ------- ---- -- --- revenue --<br>------- ---------- ------ -- ----- -- ----- -- ---- ------<br>--- ----- --- --- ------ -------- ----- --- ------ ----- --<br>----- ----- ---------- --- --- ------ ------ ---- -- ------<br>------- --- ------ ----- --- ---- ------- -- ---- --- --<br>------- ------,163199.29000000047,163197.08999999968,162776.296,162782.94499999902,162792.976,163209.976,,10,revenue
screen,html.Screen,2_1_1_1_11,2021-04-24T12:43:50.546Z,,,,,,,,,,,,,,,,,54,,,,,,,,,,,,,,425.85899999915273,,response,,,,100,,,,,,,Space,keypress(Space),,,,,,,,-- --- ---- --- ------ ----- ------- ---- -- --- ------- by<br>------- ---------- ------ -- ----- -- ----- -- ---- ------<br>--- ----- --- --- ------ -------- ----- --- ------ ----- --<br>----- ----- ---------- --- --- ------ ------ ---- -- ------<br>------- --- ------ ----- --- ---- ------- -- ---- --- --<br>------- ------,163637.89999999973,163635.83499999915,163193.296,163199.40999999928,163209.976,163643.656,,11,by
screen,html.Screen,2_1_1_1_12,2021-04-24T12:43:51.097Z,,,,,,,,,,,,,,,,,54,,,,,,,,,,,,,,543.4339999994554,,response,,,,100,,,,,,,Space,keypress(Space),,,,,,,,-- --- ---- --- ------ ----- ------- ---- -- --- ------- --<br>issuing ---------- ------ -- ----- -- ----- -- ---- ------<br>--- ----- --- --- ------ -------- ----- --- ------ ----- --<br>----- ----- ---------- --- --- ------ ------ ---- -- ------<br>------- --- ------ ----- --- ---- ------- -- ---- --- --<br>------- ------,164189.16499999978,164187.08999999944,163626.976,163638.0200000003,163643.656,164194.096,,12,issuing
screen,html.Screen,2_1_1_1_13,2021-04-24T12:43:51.603Z,,,,,,,,,,,,,,,,,54,,,,,,,,,,,,,,499.23400000008405,,response,,,,100,,,,,,,Space,keypress(Space),,,,,,,,-- --- ---- --- ------ ----- ------- ---- -- --- ------- --<br>------- government ------ -- ----- -- ----- -- ---- ------<br>--- ----- --- --- ------ -------- ----- --- ------ ----- --<br>----- ----- ---------- --- --- ------ ------ ---- -- ------<br>------- --- ------ ----- --- ---- ------- -- ---- --- --<br>------- ------,164695.17499999894,164693.33000000007,164177.416,164189.28500000038,164194.096,164711.176,,13,government
screen,html.Screen,2_1_1_1_14,2021-04-24T12:43:52.110Z,,,,,,,,,,,,,,,,,54,,,,,,,,,,,,,,488.40900000030524,,response,,,,100,,,,,,,Space,keypress(Space),,,,,,,,-- --- ---- --- ------ ----- ------- ---- -- --- ------- --<br>------- ---------- bonds. -- ----- -- ----- -- ---- ------<br>--- ----- --- --- ------ -------- ----- --- ------ ----- --<br>----- ----- ---------- --- --- ------ ------ ---- -- ------<br>------- --- ------ ----- --- ---- ------- -- ---- --- --<br>------- ------,165201.63999999932,165199.5850000003,164694.496,164695.29499999952,164711.176,165211.576,,14,bonds.
screen,html.Screen,2_1_1_1_15,2021-04-24T12:43:52.560Z,,,,,,,,,,,,,,,,,54,,,,,,,,,,,,,,438.0089999992051,,response,,,,100,,,,,,,Space,keypress(Space),,,,,,,,-- --- ---- --- ------ ----- ------- ---- -- --- ------- --<br>------- ---------- ------ In ----- -- ----- -- ---- ------<br>--- ----- --- --- ------ -------- ----- --- ------ ----- --<br>----- ----- ---------- --- --- ------ ------ ---- -- ------<br>------- --- ------ ----- --- ---- ------- -- ---- --- --<br>------- ------,165651.5899999995,165649.5849999992,165194.896,165201.75999999992,165211.576,165661.807,,15,In
screen,html.Screen,2_1_1_1_16,2021-04-24T12:43:53.021Z,,,,,,,,,,,,,,,,,54,,,,,,,,,,,,,,449.0279999994964,,response,,,,100,,,,,,,Space,keypress(Space),,,,,,,,"-- --- ---- --- ------ ----- ------- ---- -- --- ------- --<br>------- ---------- ------ -- 1727, -- ----- -- ---- ------<br>--- ----- --- --- ------ -------- ----- --- ------ ----- --<br>----- ----- ---------- --- --- ------ ------ ---- -- ------<br>------- --- ------ ----- --- ---- ------- -- ---- --- --<br>------- ------",166112.8399999998,166110.8349999995,165645.127,165651.71499999997,165661.807,166128.847,,16,"1727,"
screen,html.Screen,2_1_1_1_17,2021-04-24T12:43:53.662Z,,,,,,,,,,,,,,,,,54,,,,,,,,,,,,,,623.2129999988829,,response,,,,100,,,,,,,Space,keypress(Space),,,,,,,,-- --- ---- --- ------ ----- ------- ---- -- --- ------- --<br>------- ---------- ------ -- ----- in ----- -- ---- ------<br>--- ----- --- --- ------ -------- ----- --- ------ ----- --<br>----- ----- ---------- --- --- ------ ------ ---- -- ------<br>------- --- ------ ----- --- ---- ------- -- ---- --- --<br>------- ------,166754.1000000001,166752.0599999989,166112.167,166112.97000000015,166128.847,166762.687,,17,in
screen,html.Screen,2_1_1_1_18,2021-04-24T12:43:54.157Z,,,,,,,,,,,,,,,,,54,,,,,,,,,,,,,,484.3779999995604,,response,,,,100,,,,,,,Space,keypress(Space),,,,,,,,-- --- ---- --- ------ ----- ------- ---- -- --- ------- --<br>------- ---------- ------ -- ----- -- order -- ---- ------<br>--- ----- --- --- ------ -------- ----- --- ------ ----- --<br>----- ----- ---------- --- --- ------ ------ ---- -- ------<br>------- --- ------ ----- --- ---- ------- -- ---- --- --<br>------- ------,167249.174999999,167247.06499999957,166746.007,166754.23000000045,166762.687,167263.087,,18,order
screen,html.Screen,2_1_1_1_19,2021-04-24T12:43:54.517Z,,,,,,,,,,,,,,,,,54,,,,,,,,,,,,,,344.00799999939045,,response,,,,100,,,,,,,Space,keypress(Space),,,,,,,,-- --- ---- --- ------ ----- ------- ---- -- --- ------- --<br>------- ---------- ------ -- ----- -- ----- to ---- ------<br>--- ----- --- --- ------ -------- ----- --- ------ ----- --<br>----- ----- ---------- --- --- ------ ------ ---- -- ------<br>------- --- ------ ----- --- ---- ------- -- ---- --- --<br>------- ------,167609.30000000008,167607.0949999994,167246.407,167249.29499999963,167263.087,167613.367,,19,to
screen,html.Screen,2_1_1_1_20,2021-04-24T12:43:54.900Z,,,,,,,,,,,,,,,,,54,,,,,,,,,,,,,,376.21299999949406,,response,,,,100,,,,,,,Space,keypress(Space),,,,,,,,-- --- ---- --- ------ ----- ------- ---- -- --- ------- --<br>------- ---------- ------ -- ----- -- ----- -- save ------<br>--- ----- --- --- ------ -------- ----- --- ------ ----- --<br>----- ----- ---------- --- --- ------ ------ ---- -- ------<br>------- --- ------ ----- --- ---- ------- -- ---- --- --<br>------- ------,167991.6749999993,167989.5799999995,167596.687,167609.42000000068,167613.367,167997.007,,20,save
screen,html.Screen,2_1_1_1_21,2021-04-24T12:43:55.350Z,,,,,,,,,,,,,,,,,54,,,,,,,,,,,,,,442.43799999996554,,response,,,,100,,,,,,,Space,keypress(Space),,,,,,,,"-- --- ---- --- ------ ----- ------- ---- -- --- ------- --<br>------- ---------- ------ -- ----- -- ----- -- ---- money,<br>--- ----- --- --- ------ -------- ----- --- ------ ----- --<br>----- ----- ---------- --- --- ------ ------ ---- -- ------<br>------- --- ------ ----- --- ---- ------- -- ---- --- --<br>------- ------",168441.43500000064,168439.44499999998,167980.327,167991.79999999978,167997.007,168447.367,,21,"money,"
screen,html.Screen,2_1_1_1_22,2021-04-24T12:43:55.789Z,,,,,,,,,,,,,,,,,54,,,,,,,,,,,,,,430.9679999994405,,response,,,,100,,,,,,,Space,keypress(Space),,,,,,,,-- --- ---- --- ------ ----- ------- ---- -- --- ------- --<br>------- ---------- ------ -- ----- -- ----- -- ---- ------<br>the ----- --- --- ------ -------- ----- --- ------ ----- --<br>----- ----- ---------- --- --- ------ ------ ---- -- ------<br>------- --- ------ ----- --- ---- ------- -- ---- --- --<br>------- ------,168881.26499999998,168878.33499999944,168430.687,168441.5599999993,168447.367,168897.727,,22,the
screen,html.Screen,2_1_1_1_23,2021-04-24T12:43:56.216Z,,,,,,,,,,,,,,,,,54,,,,,,,,,,,,,,408.0879999996978,,response,,,,100,,,,,,,Space,keypress(Space),,,,,,,,-- --- ---- --- ------ ----- ------- ---- -- --- ------- --<br>------- ---------- ------ -- ----- -- ----- -- ---- ------<br>--- state --- --- ------ -------- ----- --- ------ ----- --<br>----- ----- ---------- --- --- ------ ------ ---- -- ------<br>------- --- ------ ----- --- ---- ------- -- ---- --- --<br>------- ------,169307.81000000023,169305.8149999997,168881.047,168881.3850000006,168897.727,169314.727,,23,state
screen,html.Screen,2_1_1_1_24,2021-04-24T12:43:56.621Z,,,,,,,,,,,,,,,,,54,,,,,,,,,,,,,,396.01300000044284,,response,,,,100,,,,,,,Space,keypress(Space),,,,,,,,-- --- ---- --- ------ ----- ------- ---- -- --- ------- --<br>------- ---------- ------ -- ----- -- ----- -- ---- ------<br>--- ----- cut --- ------ -------- ----- --- ------ ----- --<br>----- ----- ---------- --- --- ------ ------ ---- -- ------<br>------- --- ------ ----- --- ---- ------- -- ---- --- --<br>------- ------,169712.6449999996,169710.74000000046,169298.047,169307.94000000058,169314.727,169715.047,,24,cut
screen,html.Screen,2_1_1_1_25,2021-04-24T12:43:57.060Z,,,,,,,,,,,,,,,,,54,,,,,,,,,,,,,,434.5979999995034,,response,,,,100,,,,,,,Space,keypress(Space),,,,,,,,-- --- ---- --- ------ ----- ------- ---- -- --- ------- --<br>------- ---------- ------ -- ----- -- ----- -- ---- ------<br>--- ----- --- the ------ -------- ----- --- ------ ----- --<br>----- ----- ---------- --- --- ------ ------ ---- -- ------<br>------- --- ------ ----- --- ---- ------- -- ---- --- --<br>------- ------,170151.70000000036,170149.6449999995,169698.367,169712.77000000008,169715.047,170165.407,,25,the
screen,html.Screen,2_1_1_1_26,2021-04-24T12:43:57.487Z,,,,,,,,,,,,,,,,,54,,,,,,,,,,,,,,411.6779999989667,,response,,,,100,,,,,,,Space,keypress(Space),,,,,,,,-- --- ---- --- ------ ----- ------- ---- -- --- ------- --<br>------- ---------- ------ -- ----- -- ----- -- ---- ------<br>--- ----- --- --- bonds' -------- ----- --- ------ ----- --<br>----- ----- ---------- --- --- ------ ------ ---- -- ------<br>------- --- ------ ----- --- ---- ------- -- ---- --- --<br>------- ------,170579.20500000002,170577.08499999897,170148.727,170151.81999999913,170165.407,170582.407,,26,bonds'
screen,html.Screen,2_1_1_1_27,2021-04-24T12:43:57.926Z,,,,,,,,,,,,,,,,,54,,,,,,,,,,,,,,433.4080000006361,,response,,,,100,,,,,,,Space,keypress(Space),,,,,,,,-- --- ---- --- ------ ----- ------- ---- -- --- ------- --<br>------- ---------- ------ -- ----- -- ----- -- ---- ------<br>--- ----- --- --- ------ interest ----- --- ------ ----- --<br>----- ----- ---------- --- --- ------ ------ ---- -- ------<br>------- --- ------ ----- --- ---- ------- -- ---- --- --<br>------- ------,171017.93499999985,171015.81500000064,170565.727,170579.34999999998,170582.407,171032.767,,27,interest
screen,html.Screen,2_1_1_1_28,2021-04-24T12:43:58.320Z,,,,,,,,,,,,,,,,,54,,,,,,,,,,,,,,376.7429999994929,,response,,,,100,,,,,,,Space,keypress(Space),,,,,,,,-- --- ---- --- ------ ----- ------- ---- -- --- ------- --<br>------- ---------- ------ -- ----- -- ----- -- ---- ------<br>--- ----- --- --- ------ -------- rate. --- ------ ----- --<br>----- ----- ---------- --- --- ------ ------ ---- -- ------<br>------- --- ------ ----- --- ---- ------- -- ---- --- --<br>------- ------,171411.53999999916,171409.50999999949,171016.087,171018.05000000057,171032.767,171416.407,,28,rate.
screen,html.Screen,2_1_1_1_29,2021-04-24T12:43:58.770Z,,,,,,,,,,,,,,,,,54,,,,,,,,,,,,,,443.1680000004126,,response,,,,100,,,,,,,Space,keypress(Space),,,,,,,,-- --- ---- --- ------ ----- ------- ---- -- --- ------- --<br>------- ---------- ------ -- ----- -- ----- -- ---- ------<br>--- ----- --- --- ------ -------- ----- The ------ ----- --<br>----- ----- ---------- --- --- ------ ------ ---- -- ------<br>------- --- ------ ----- --- ---- ------- -- ---- --- --<br>------- ------,171861.60999999993,171859.57500000042,171399.727,171411.66499999963,171416.407,171866.767,,29,The
screen,html.Screen,2_1_1_1_30,2021-04-24T12:43:59.197Z,,,,,,,,,,,,,,,,,54,,,,,,,,,,,,,,420.3030000003055,,response,,,,100,,,,,,,Space,keypress(Space),,,,,,,,-- --- ---- --- ------ ----- ------- ---- -- --- ------- --<br>------- ---------- ------ -- ----- -- ----- -- ---- ------<br>--- ----- --- --- ------ -------- ----- --- market ----- --<br>----- ----- ---------- --- --- ------ ------ ---- -- ------<br>------- --- ------ ----- --- ---- ------- -- ---- --- --<br>------- ------,172289.05999999915,172287.0700000003,171850.087,171861.73000000053,171866.767,172300.447,,30,market
screen,html.Screen,2_1_1_1_31,2021-04-24T12:43:59.614Z,,,,,,,,,,,,,,,,,54,,,,,,,,,,,,,,402.8379999996105,,response,,,,100,,,,,,,Space,keypress(Space),,,,,,,,-- --- ---- --- ------ ----- ------- ---- -- --- ------- --<br>------- ---------- ------ -- ----- -- ----- -- ---- ------<br>--- ----- --- --- ------ -------- ----- --- ------ value --<br>----- ----- ---------- --- --- ------ ------ ---- -- ------<br>------- --- ------ ----- --- ---- ------- -- ---- --- --<br>------- ------,172705.4649999991,172703.2849999996,172283.767,172289.18499999965,172300.447,172717.447,,31,value
screen,html.Screen,2_1_1_1_32,2021-04-24T12:44:00.041Z,,,,,,,,,,,,,,,,,54,,,,,,,,,,,,,,413.3879999999481,,response,,,,100,,,,,,,Space,keypress(Space),,,,,,,,-- --- ---- --- ------ ----- ------- ---- -- --- ------- --<br>------- ---------- ------ -- ----- -- ----- -- ---- ------<br>--- ----- --- --- ------ -------- ----- --- ------ ----- of<br>----- ----- ---------- --- --- ------ ------ ---- -- ------<br>------- --- ------ ----- --- ---- ------- -- ---- --- --<br>------- ------,173132.76000000042,173130.83499999993,172700.767,172705.58999999956,172717.447,173134.447,,32,of
screen,html.Screen,2_1_1_1_33,2021-04-24T12:44:00.446Z,,,,,,,,,,,,,,,,,54,,,,,,,,,,,,,,401.3729999991483,,response,,,,100,,,,,,,Space,keypress(Space),,,,,,,,-- --- ---- --- ------ ----- ------- ---- -- --- ------- --<br>------- ---------- ------ -- ----- -- ----- -- ---- ------<br>--- ----- --- --- ------ -------- ----- --- ------ ----- --<br>these ----- ---------- --- --- ------ ------ ---- -- ------<br>------- --- ------ ----- --- ---- ------- -- ---- --- --<br>------- ------,173537.78500000044,173535.81999999913,173117.767,173132.8799999992,173134.447,173551.447,,33,these
screen,html.Screen,2_1_1_1_34,2021-04-24T12:44:00.851Z,,,,,,,,,,,,,,,,,54,,,,,,,,,,,,,,389.3129999994999,,response,,,,100,,,,,,,Space,keypress(Space),,,,,,,,-- --- ---- --- ------ ----- ------- ---- -- --- ------- --<br>------- ---------- ------ -- ----- -- ----- -- ---- ------<br>--- ----- --- --- ------ -------- ----- --- ------ ----- --<br>----- bonds ---------- --- --- ------ ------ ---- -- ------<br>------- --- ------ ----- --- ---- ------- -- ---- --- --<br>------- ------,173942.7799999994,173940.75999999949,173534.767,173537.9099999991,173551.447,173951.767,,34,bonds
screen,html.Screen,2_1_1_1_35,2021-04-24T12:44:01.346Z,,,,,,,,,,,,,,,,,54,,,,,,,,,,,,,,484.06800000023213,,response,,,,100,,,,,,,Space,keypress(Space),,,,,,,,"-- --- ---- --- ------ ----- ------- ---- -- --- ------- --<br>------- ---------- ------ -- ----- -- ----- -- ---- ------<br>--- ----- --- --- ------ -------- ----- --- ------ ----- --<br>----- ----- plummeted, --- --- ------ ------ ---- -- ------<br>------- --- ------ ----- --- ---- ------- -- ---- --- --<br>------- ------",174437.91000000056,174435.83500000022,173935.087,173942.90499999988,173951.767,174452.167,,35,"plummeted,"
screen,html.Screen,2_1_1_1_36,2021-04-24T12:44:01.774Z,,,,,,,,,,,,,,,,,54,,,,,,,,,,,,,,411.163000000146,,response,,,,100,,,,,,,Space,keypress(Space),,,,,,,,-- --- ---- --- ------ ----- ------- ---- -- --- ------- --<br>------- ---------- ------ -- ----- -- ----- -- ---- ------<br>--- ----- --- --- ------ -------- ----- --- ------ ----- --<br>----- ----- ---------- and --- ------ ------ ---- -- ------<br>------- --- ------ ----- --- ---- ------- -- ---- --- --<br>------- ------,174865.174999999,174863.33000000013,174435.487,174438.02999999933,174452.167,174869.167,,36,and
screen,html.Screen,2_1_1_1_37,2021-04-24T12:44:02.190Z,,,,,,,,,,,,,,,,,54,,,,,,,,,,,,,,410.4080000004906,,response,,,,100,,,,,,,Space,keypress(Space),,,,,,,,-- --- ---- --- ------ ----- ------- ---- -- --- ------- --<br>------- ---------- ------ -- ----- -- ----- -- ---- ------<br>--- ----- --- --- ------ -------- ----- --- ------ ----- --<br>----- ----- ---------- --- the ------ ------ ---- -- ------<br>------- --- ------ ----- --- ---- ------- -- ---- --- --<br>------- ------,175281.75499999998,175279.57500000048,174852.487,174865.29999999946,174869.167,175286.167,,37,the
screen,html.Screen,2_1_1_1_38,2021-04-24T12:44:02.606Z,,,,,,,,,,,,,,,,,54,,,,,,,,,,,,,,409.51299999890034,,response,,,,100,,,,,,,Space,keypress(Space),,,,,,,,-- --- ---- --- ------ ----- ------- ---- -- --- ------- --<br>------- ---------- ------ -- ----- -- ----- -- ---- ------<br>--- ----- --- --- ------ -------- ----- --- ------ ----- --<br>----- ----- ---------- --- --- market ------ ---- -- ------<br>------- --- ------ ----- --- ---- ------- -- ---- --- --<br>------- ------,175697.79000000015,175695.6799999989,175269.487,175281.87500000058,175286.167,175703.057,,38,market
screen,html.Screen,2_1_1_1_39,2021-04-24T12:44:03.067Z,,,,,,,,,,,,,,,,,54,,,,,,,,,,,,,,454.033000000607,,response,,,,100,,,,,,,Space,keypress(Space),,,,,,,,-- --- ---- --- ------ ----- ------- ---- -- --- ------- --<br>------- ---------- ------ -- ----- -- ----- -- ---- ------<br>--- ----- --- --- ------ -------- ----- --- ------ ----- --<br>----- ----- ---------- --- --- ------ became ---- -- ------<br>------- --- ------ ----- --- ---- ------- -- ---- --- --<br>------- ------,176159.00499999954,176157.0900000006,175686.377,175697.90999999896,175703.057,176170.097,,39,became
screen,html.Screen,2_1_1_1_40,2021-04-24T12:44:03.517Z,,,,,,,,,,,,,,,,,54,,,,,,,,,,,,,,436.9829999997746,,response,,,,100,,,,,,,Space,keypress(Space),,,,,,,,-- --- ---- --- ------ ----- ------- ---- -- --- ------- --<br>------- ---------- ------ -- ----- -- ----- -- ---- ------<br>--- ----- --- --- ------ -------- ----- --- ------ ----- --<br>----- ----- ---------- --- --- ------ ------ wary -- ------<br>------- --- ------ ----- --- ---- ------- -- ---- --- --<br>------- ------,176609.02999999962,176607.07999999978,176153.417,176159.13,176170.097,176620.457,,40,wary
screen,html.Screen,2_1_1_1_41,2021-04-24T12:44:03.945Z,,,,,,,,,,,,,,,,,54,,,,,,,,,,,,,,414.1429999990505,,response,,,,100,,,,,,,Space,keypress(Space),,,,,,,,-- --- ---- --- ------ ----- ------- ---- -- --- ------- --<br>------- ---------- ------ -- ----- -- ----- -- ---- ------<br>--- ----- --- --- ------ -------- ----- --- ------ ----- --<br>----- ----- ---------- --- --- ------ ------ ---- of ------<br>------- --- ------ ----- --- ---- ------- -- ---- --- --<br>------- ------,177036.55500000058,177034.59999999905,176603.777,176609.1550000001,176620.457,177037.457,,41,of
screen,html.Screen,2_1_1_1_42,2021-04-24T12:44:04.406Z,,,,,,,,,,,,,,,,,54,,,,,,,,,,,,,,458.2279999998864,,response,,,,100,,,,,,,Space,keypress(Space),,,,,,,,-- --- ---- --- ------ ----- ------- ---- -- --- ------- --<br>------- ---------- ------ -- ----- -- ----- -- ---- ------<br>--- ----- --- --- ------ -------- ----- --- ------ ----- --<br>----- ----- ---------- --- --- ------ ------ ---- -- French<br>------- --- ------ ----- --- ---- ------- -- ---- --- --<br>------- ------,177497.80499999906,177495.68499999988,177020.777,177036.67999999924,177037.457,177504.497,,42,French
screen,html.Screen,2_1_1_1_43,2021-04-24T12:44:04.856Z,,,,,,,,,,,,,,,,,54,,,,,,,,,,,,,,441.1980000003532,,response,,,,100,,,,,,,Space,keypress(Space),,,,,,,,-- --- ---- --- ------ ----- ------- ---- -- --- ------- --<br>------- ---------- ------ -- ----- -- ----- -- ---- ------<br>--- ----- --- --- ------ -------- ----- --- ------ ----- --<br>----- ----- ---------- --- --- ------ ------ ---- -- ------<br>credit. --- ------ ----- --- ---- ------- -- ---- --- --<br>------- ------,177947.71500000026,177945.69500000036,177487.817,177497.92999999953,177504.497,177954.857,,43,credit.
screen,html.Screen,2_1_1_1_44,2021-04-24T12:44:05.306Z,,,,,,,,,,,,,,,,,54,,,,,,,,,,,,,,440.96799999961513,,response,,,,100,,,,,,,Space,keypress(Space),,,,,,,,-- --- ---- --- ------ ----- ------- ---- -- --- ------- --<br>------- ---------- ------ -- ----- -- ----- -- ---- ------<br>--- ----- --- --- ------ -------- ----- --- ------ ----- --<br>----- ----- ---------- --- --- ------ ------ ---- -- ------<br>------- The ------ ----- --- ---- ------- -- ---- --- --<br>------- ------,178397.53999999992,178395.8249999996,177938.177,177947.83999999892,177954.857,178405.217,,44,The
screen,html.Screen,2_1_1_1_45,2021-04-24T12:44:05.779Z,,,,,,,,,,,,,,,,,54,,,,,,,,,,,,,,462.9829999989597,,response,,,,100,,,,,,,Space,keypress(Space),,,,,,,,-- --- ---- --- ------ ----- ------- ---- -- --- ------- --<br>------- ---------- ------ -- ----- -- ----- -- ---- ------<br>--- ----- --- --- ------ -------- ----- --- ------ ----- --<br>----- ----- ---------- --- --- ------ ------ ---- -- ------<br>------- --- French ----- --- ---- ------- -- ---- --- --<br>------- ------,178870.44000000058,178868.19999999896,178388.537,178397.66500000042,178405.217,178872.257,,45,French
screen,html.Screen,2_1_1_1_46,2021-04-24T12:44:06.252Z,,,,,,,,,,,,,,,,,54,,,,,,,,,,,,,,468.4580000002461,,response,,,,100,,,,,,,Space,keypress(Space),,,,,,,,-- --- ---- --- ------ ----- ------- ---- -- --- ------- --<br>------- ---------- ------ -- ----- -- ----- -- ---- ------<br>--- ----- --- --- ------ -------- ----- --- ------ ----- --<br>----- ----- ---------- --- --- ------ ------ ---- -- ------<br>------- --- ------ state --- ---- ------- -- ---- --- --<br>------- ------,179343.80500000043,179340.71500000026,178855.577,178870.6199999997,178872.257,179355.977,,46,state
screen,html.Screen,2_1_1_1_47,2021-04-24T12:44:06.702Z,,,,,,,,,,,,,,,,,54,,,,,,,,,,,,,,434.8579999997746,,response,,,,100,,,,,,,Space,keypress(Space),,,,,,,,-- --- ---- --- ------ ----- ------- ---- -- --- ------- --<br>------- ---------- ------ -- ----- -- ----- -- ---- ------<br>--- ----- --- --- ------ -------- ----- --- ------ ----- --<br>----- ----- ---------- --- --- ------ ------ ---- -- ------<br>------- --- ------ ----- was ---- ------- -- ---- --- --<br>------- ------,179793.12500000015,179790.8349999998,179339.297,179343.92499999923,179355.977,179806.337,,47,was
screen,html.Screen,2_1_1_1_48,2021-04-24T12:44:07.129Z,,,,,,,,,,,,,,,,,54,,,,,,,,,,,,,,411.85299999959534,,response,,,,100,,,,,,,Space,keypress(Space),,,,,,,,-- --- ---- --- ------ ----- ------- ---- -- --- ------- --<br>------- ---------- ------ -- ----- -- ----- -- ---- ------<br>--- ----- --- --- ------ -------- ----- --- ------ ----- --<br>----- ----- ---------- --- --- ------ ------ ---- -- ------<br>------- --- ------ ----- --- left ------- -- ---- --- --<br>------- ------,180220.30499999892,180218.1899999996,179789.657,179793.2550000005,179806.337,180223.337,,48,left
screen,html.Screen,2_1_1_1_49,2021-04-24T12:44:07.556Z,,,,,,,,,,,,,,,,,54,,,,,,,,,,,,,,422.2829999993264,,response,,,,100,,,,,,,Space,keypress(Space),,,,,,,,-- --- ---- --- ------ ----- ------- ---- -- --- ------- --<br>------- ---------- ------ -- ----- -- ----- -- ---- ------<br>--- ----- --- --- ------ -------- ----- --- ------ ----- --<br>----- ----- ---------- --- --- ------ ------ ---- -- ------<br>------- --- ------ ----- --- ---- without -- ---- --- --<br>------- ------,180647.64999999898,180645.61999999933,180206.657,180220.4299999994,180223.337,180657.017,,49,without
screen,html.Screen,2_1_1_1_50,2021-04-24T12:44:07.939Z,,,,,,,,,,,,,,,,,54,,,,,,,,,,,,,,371.1980000002659,,response,,,,100,,,,,,,Space,keypress(Space),,,,,,,,-- --- ---- --- ------ ----- ------- ---- -- --- ------- --<br>------- ---------- ------ -- ----- -- ----- -- ---- ------<br>--- ----- --- --- ------ -------- ----- --- ------ ----- --<br>----- ----- ---------- --- --- ------ ------ ---- -- ------<br>------- --- ------ ----- --- ---- ------- an ---- --- --<br>------- ------,181030.30000000034,181028.21500000026,180640.337,180647.77499999944,180657.017,181040.657,,50,an
screen,html.Screen,2_1_1_1_51,2021-04-24T12:44:08.333Z,,,,,,,,,,,,,,,,,54,,,,,,,,,,,,,,381.1729999993113,,response,,,,100,,,,,,,Space,keypress(Space),,,,,,,,-- --- ---- --- ------ ----- ------- ---- -- --- ------- --<br>------- ---------- ------ -- ----- -- ----- -- ---- ------<br>--- ----- --- --- ------ -------- ----- --- ------ ----- --<br>----- ----- ---------- --- --- ------ ------ ---- -- ------<br>------- --- ------ ----- --- ---- ------- -- easy --- --<br>------- ------,181424.49999999919,181421.82999999932,181023.977,181030.41999999914,181040.657,181440.977,,51,easy
screen,html.Screen,2_1_1_1_52,2021-04-24T12:44:08.738Z,,,,,,,,,,,,,,,,,54,,,,,,,,,,,,,,385.95799999911105,,response,,,,100,,,,,,,Space,keypress(Space),,,,,,,,-- --- ---- --- ------ ----- ------- ---- -- --- ------- --<br>------- ---------- ------ -- ----- -- ----- -- ---- ------<br>--- ----- --- --- ------ -------- ----- --- ------ ----- --<br>----- ----- ---------- --- --- ------ ------ ---- -- ------<br>------- --- ------ ----- --- ---- ------- -- ---- way --<br>------- ------,181829.14999999956,181826.93499999912,181424.297,181424.67000000033,181440.977,181841.297,,52,way
screen,html.Screen,2_1_1_1_53,2021-04-24T12:44:09.143Z,,,,,,,,,,,,,,,,,54,,,,,,,,,,,,,,390.6429999996617,,response,,,,100,,,,,,,Space,keypress(Space),,,,,,,,-- --- ---- --- ------ ----- ------- ---- -- --- ------- --<br>------- ---------- ------ -- ----- -- ----- -- ---- ------<br>--- ----- --- --- ------ -------- ----- --- ------ ----- --<br>----- ----- ---------- --- --- ------ ------ ---- -- ------<br>------- --- ------ ----- --- ---- ------- -- ---- --- of<br>------- ------,182234.06500000056,182231.93999999965,181824.617,181829.3049999993,181841.297,182241.617,,53,of
screen,html.Screen,2_1_1_1_54,2021-04-24T12:44:09.683Z,,,,,,,,,,,,,,,,,54,,,,,,,,,,,,,,530.3280000004161,,response,,,,100,,,,,,,Space,keypress(Space),,,,,,,,-- --- ---- --- ------ ----- ------- ---- -- --- ------- --<br>------- ---------- ------ -- ----- -- ----- -- ---- ------<br>--- ----- --- --- ------ -------- ----- --- ------ ----- --<br>----- ----- ---------- --- --- ------ ------ ---- -- ------<br>------- --- ------ ----- --- ---- ------- -- ---- --- --<br>raising ------,182774.15999999904,182771.9450000004,182224.937,182234.18999999922,182241.617,182775.377,,54,raising
screen,html.Screen,2_1_1_1_55,2021-04-24T12:44:10.470Z,,,,,,,,,,,,,,,,,54,,,,,,,,,,,,,,784.1429999988759,,response,,,,100,,,,,,,Space,keypress(Space),,,,,,,,-- --- ---- --- ------ ----- ------- ---- -- --- ------- --<br>------- ---------- ------ -- ----- -- ----- -- ---- ------<br>--- ----- --- --- ------ -------- ----- --- ------ ----- --<br>----- ----- ---------- --- --- ------ ------ ---- -- ------<br>------- --- ------ ----- --- ---- ------- -- ---- --- --<br>------- money.,183561.56499999997,183559.51999999888,182758.697,182774.27999999962,182775.377,183576.017,,55,money.
Item 100,flow.Loop,2_1_1_1,2021-04-24T12:44:10.471Z,,,,,,,,,,,,,,,,,,,,,,,,,,,,,,,26004.063999998878,,completion,,,,,A,,,,,,,,,,,silence,,,,,183561.77500000014,183559.51999999888,157538.776,157540.36499999894,157555.456,183576.017,,,
Question 1,html.Screen,2_1_1_2,2021-04-24T12:44:12.599Z,,,,,,,,,,,,,,,,,,,,,,,,,,,,true,TRUE,,2112.572999999742,,response,,,,100,A,,,,,,TRUE,click #choice-1,,,,silence,,,,,185690.34499999907,185688.58999999973,183559.337,183561.86499999967,183576.017,185694.247,,,
Question 2,html.Screen,2_1_1_3,2021-04-24T12:44:14.671Z,,,,,,,,,,,,,,,,,,,,,,,,,,,,true,FALSE,,2066.3629999993427,,response,,,,100,A,,,,,,FALSE,click #choice-2,,,,silence,,,,,187762.35499999893,187760.60999999935,185677.567,185690.47499999942,185694.247,187762.567,,,
Item 100,flow.Sequence,2_1_1,2021-04-24T12:44:14.671Z,,,,,,,,,,,,,,,,,,,,,,,,,,,,,,,40213.04499999934,,completion,,,,,,,,,,,,,,,,,,,,,187762.54499999958,187760.60999999935,147530.885,147546.65000000023,147547.565,187762.567,,,
End of Practice,html.Page,2_1_2,2021-04-24T12:44:17.072Z,,,,,,,,,,,,,,,,,,,,,,,,,,,,,,,2399.9879999989644,,form submission,,,,,,,,,,,,,,,,,,,,,190162.8700000001,190162.55499999897,187745.887,187762.64499999888,187762.567,190181.167,,,
Practice,flow.Sequence,2_1,2021-04-24T12:44:17.072Z,,,,,,,,,,,,,,,,,,,,,,,,,,,,,,,97657.93599999897,,completion,,,,,,,,,,,,,,,,,,,,,190163.09499999988,190162.55499999897,92487.939,92492.05500000062,92504.619,190181.167,,,
Trap_instruction,html.Page,2_2_0,2021-04-24T12:44:21.047Z,,,,,,,,,,,,,,,,,,,,,,,,,,,,,,,3956.788000000146,,form submission,,,,,,,,,,,,,,,,,,,,,194138.2049999993,194137.95500000013,190164.487,190163.235,190181.167,194167.687,,,
trap_trial,html.Screen,2_2_1,2021-04-24T12:44:24.400Z,,,,,,,,,,,,,,,,,,,,,,,,,,,,true,1,,3320.92300000033,,response,,,,,,,,,,,1,click #choice-1,,,,,,,,,197490.25500000062,197488.61000000034,194151.007,194138.31500000015,194167.687,197503.687,,,
end of trap trial,html.Page,2_2_2,2021-04-24T12:44:26.424Z,,,,,,,,,,,,,,,,,,,,,,,,,,,,,,,2010.7329999995127,,form submission,,,,,,,,,,,,,,,,,,,,,199514.69999999972,199514.41999999952,197487.007,197490.38499999914,197503.687,199521.704,,,
Trap 1,flow.Sequence,2_2,2021-04-24T12:44:26.424Z,,,,,,,,,,,,,,,,,,,,,,,,,,,,,,,9333.252999999531,,completion,,,,,,,,,,,,,,,,,,,,,199514.86999999906,199514.41999999952,190164.487,190163.1949999992,190181.167,199521.704,,,
Standby,html.Page,2_3_0,2021-04-24T12:44:34.423Z,,,,,,,,,,,,,,,,,,,,,,,,,,,,,,,8006.399999999994,,timeout,,,,,,,,,,,,,,,,,,,,,207513.7849999992,207511.424,199505.024,199514.99499999953,199521.704,207528.104,,,
Holding screen,html.Screen,2_3_1_0_0,2021-04-24T12:44:41.429Z,,,,,,,,,,,,,,,,,,,,,,,,,,,,,,,7005.485000000015,,timeout,,,,,,,,,,,,,,,,,,,,,214519.25999999914,214516.909,207511.424,207513.97499999986,207528.104,214533.589,,,
screen,html.Screen,2_3_1_0_1_0,2021-04-24T12:44:42.198Z,,,,,,,,,,,,,,,,,15,,,,,,,,,,,,,,750.73100000064,,response,,,,7,A,,,,,,Space,keypress(Space),,,,silence,,,,Greg --------- ---------- - --- ------- -- --- ------------<br>----- -- -------- ------- ---- ------ - -------- ---- -----<br>--- ------- ---- -- --- -------- --- - ----- ------ ---- --<br>-------- --- -------- -------- --- -------- ---- -- ----- -<br>-------- ---- --- ---------- --------- -- ------- ------ -<br>--------- ----- -----,215287.51000000013,215284.32000000065,214516.909,214519.45999999953,214533.589,215300.869,,0,Greg
screen,html.Screen,2_3_1_0_1_1,2021-04-24T12:44:42.613Z,,,,,,,,,,,,,,,,,15,,,,,,,,,,,,,,399.7210000003688,,response,,,,7,A,,,,,,Space,keypress(Space),,,,silence,,,,"---- Anderson, ---------- - --- ------- -- --- ------------<br>----- -- -------- ------- ---- ------ - -------- ---- -----<br>--- ------- ---- -- --- -------- --- - ----- ------ ---- --<br>-------- --- -------- -------- --- -------- ---- -- ----- -<br>-------- ---- --- ---------- --------- -- ------- ------ -<br>--------- ----- -----",215702.56999999948,215700.59000000037,215284.189,215287.6500000002,215300.869,215717.869,,1,"Anderson,"
screen,html.Screen,2_3_1_0_1_2,2021-04-24T12:44:43.096Z,,,,,,,,,,,,,,,,,15,,,,,,,,,,,,,,466.4659999998985,,response,,,,7,A,,,,,,Space,keypress(Space),,,,silence,,,,---- --------- considered - --- ------- -- --- ------------<br>----- -- -------- ------- ---- ------ - -------- ---- -----<br>--- ------- ---- -- --- -------- --- - ----- ------ ---- --<br>-------- --- -------- -------- --- -------- ---- -- ----- -<br>-------- ---- --- ---------- --------- -- ------- ------ -<br>--------- ----- -----,216186.40500000038,216184.3349999999,215701.189,215702.69000000006,215717.869,216201.589,,2,considered
screen,html.Screen,2_3_1_0_1_3,2021-04-24T12:44:43.501Z,,,,,,,,,,,,,,,,,15,,,,,,,,,,,,,,387.7460000005667,,response,,,,7,A,,,,,,Space,keypress(Space),,,,silence,,,,---- --------- ---------- a --- ------- -- --- ------------<br>----- -- -------- ------- ---- ------ - -------- ---- -----<br>--- ------- ---- -- --- -------- --- - ----- ------ ---- --<br>-------- --- -------- -------- --- -------- ---- -- ----- -<br>-------- ---- --- ---------- --------- -- ------- ------ -<br>--------- ----- -----,216591.38499999972,216589.33500000057,216184.909,216186.5199999993,216201.589,216601.909,,3,a
screen,html.Screen,2_3_1_0_1_4,2021-04-24T12:44:43.929Z,,,,,,,,,,,,,,,,,15,,,,,,,,,,,,,,414.81599999949685,,response,,,,7,A,,,,,,Space,keypress(Space),,,,silence,,,,---- --------- ---------- - key ------- -- --- ------------<br>----- -- -------- ------- ---- ------ - -------- ---- -----<br>--- ------- ---- -- --- -------- --- - ----- ------ ---- --<br>-------- --- -------- -------- --- -------- ---- -- ----- -<br>-------- ---- --- ---------- --------- -- ------- ------ -<br>--------- ----- -----,217018.8249999992,217016.7249999995,216585.229,216591.50000000047,216601.909,217035.589,,4,key
screen,html.Screen,2_3_1_0_1_5,2021-04-24T12:44:44.435Z,,,,,,,,,,,,,,,,,15,,,,,,,,,,,,,,487.49099999901955,,response,,,,7,A,,,,,,Space,keypress(Space),,,,silence,,,,---- --------- ---------- - --- witness -- --- ------------<br>----- -- -------- ------- ---- ------ - -------- ---- -----<br>--- ------- ---- -- --- -------- --- - ----- ------ ---- --<br>-------- --- -------- -------- --- -------- ---- -- ----- -<br>-------- ---- --- ---------- --------- -- ------- ------ -<br>--------- ----- -----,217525.04500000033,217523.07999999903,217018.909,217018.96999999916,217035.589,217535.989,,5,witness
screen,html.Screen,2_3_1_0_1_6,2021-04-24T12:44:44.874Z,,,,,,,,,,,,,,,,,15,,,,,,,,,,,,,,425.8410000001895,,response,,,,7,A,,,,,,Space,keypress(Space),,,,silence,,,,---- --------- ---------- - --- ------- by --- ------------<br>----- -- -------- ------- ---- ------ - -------- ---- -----<br>--- ------- ---- -- --- -------- --- - ----- ------ ---- --<br>-------- --- -------- -------- --- -------- ---- -- ----- -<br>-------- ---- --- ---------- --------- -- ------- ------ -<br>--------- ----- -----,217963.91000000038,217961.8300000002,217519.309,217525.169999999,217535.989,217969.669,,6,by
screen,html.Screen,2_3_1_0_1_7,2021-04-24T12:44:45.256Z,,,,,,,,,,,,,,,,,15,,,,,,,,,,,,,,374.65600000001723,,response,,,,7,A,,,,,,Space,keypress(Space),,,,silence,,,,---- --------- ---------- - --- ------- -- the ------------<br>----- -- -------- ------- ---- ------ - -------- ---- -----<br>--- ------- ---- -- --- -------- --- - ----- ------ ---- --<br>-------- --- -------- -------- --- -------- ---- -- ----- -<br>-------- ---- --- ---------- --------- -- ------- ------ -<br>--------- ----- -----,218346.25500000038,218344.325,217952.989,217964.03499999904,217969.669,218353.309,,7,the
screen,html.Screen,2_3_1_0_1_8,2021-04-24T12:44:45.707Z,,,,,,,,,,,,,,,,,15,,,,,,,,,,,,,,441.0159999989264,,response,,,,7,A,,,,,,Space,keypress(Space),,,,silence,,,,"---- --------- ---------- - --- ------- -- --- prosecution,<br>----- -- -------- ------- ---- ------ - -------- ---- -----<br>--- ------- ---- -- --- -------- --- - ----- ------ ---- --<br>-------- --- -------- -------- --- -------- ---- -- ----- -<br>-------- ---- --- ---------- --------- -- ------- ------ -<br>--------- ----- -----",218796.52999999962,218794.32499999893,218336.629,218346.37999999904,218353.309,218803.55,,8,"prosecution,"
screen,html.Screen,2_3_1_0_1_9,2021-04-24T12:44:46.292Z,,,,,,,,,,,,,,,,,15,,,,,,,,,,,,,,575.7899999995134,,response,,,,7,A,,,,,,Space,keypress(Space),,,,silence,,,,---- --------- ---------- - --- ------- -- --- ------------<br>vowed -- -------- ------- ---- ------ - -------- ---- -----<br>--- ------- ---- -- --- -------- --- - ----- ------ ---- --<br>-------- --- -------- -------- --- -------- ---- -- ----- -<br>-------- ---- --- ---------- --------- -- ------- ------ -<br>--------- ----- -----,219381.44499999908,219379.3399999995,218786.87,218796.6550000001,218803.55,219387.35,,9,vowed
screen,html.Screen,2_3_1_0_1_10,2021-04-24T12:44:46.798Z,,,,,,,,,,,,,,,,,15,,,,,,,,,,,,,,498.2150000004913,,response,,,,7,A,,,,,,Space,keypress(Space),,,,silence,,,,---- --------- ---------- - --- ------- -- --- ------------<br>----- he -------- ------- ---- ------ - -------- ---- -----<br>--- ------- ---- -- --- -------- --- - ----- ------ ---- --<br>-------- --- -------- -------- --- -------- ---- -- ----- -<br>-------- ---- --- ---------- --------- -- ------- ------ -<br>--------- ----- -----,219887.6249999994,219885.5650000005,219370.67,219381.56499999968,219387.35,219904.43,,10,he
screen,html.Screen,2_3_1_0_1_11,2021-04-24T12:44:47.338Z,,,,,,,,,,,,,,,,,15,,,,,,,,,,,,,,521.1599999989267,,response,,,,7,A,,,,,,Space,keypress(Space),,,,silence,,,,---- --------- ---------- - --- ------- -- --- ------------<br>----- -- wouldn't ------- ---- ------ - -------- ---- -----<br>--- ------- ---- -- --- -------- --- - ----- ------ ---- --<br>-------- --- -------- -------- --- -------- ---- -- ----- -<br>-------- ---- --- ---------- --------- -- ------- ------ -<br>--------- ----- -----,220427.49999999977,220425.58999999892,219887.75,219887.74999999988,219904.43,220438.19,,11,wouldn't
screen,html.Screen,2_3_1_0_1_12,2021-04-24T12:44:47.810Z,,,,,,,,,,,,,,,,,15,,,,,,,,,,,,,,459.7999999994645,,response,,,,7,A,,,,,,Space,keypress(Space),,,,silence,,,,---- --------- ---------- - --- ------- -- --- ------------<br>----- -- -------- testify ---- ------ - -------- ---- -----<br>--- ------- ---- -- --- -------- --- - ----- ------ ---- --<br>-------- --- -------- -------- --- -------- ---- -- ----- -<br>-------- ---- --- ---------- --------- -- ------- ------ -<br>--------- ----- -----,220900.20000000004,220897.98999999947,220421.51,220427.6200000004,220438.19,220905.23,,12,testify
screen,html.Screen,2_3_1_0_1_13,2021-04-24T12:44:48.204Z,,,,,,,,,,,,,,,,,15,,,,,,,,,,,,,,386.5150000004505,,response,,,,7,A,,,,,,Space,keypress(Space),,,,silence,,,,---- --------- ---------- - --- ------- -- --- ------------<br>----- -- -------- ------- when ------ - -------- ---- -----<br>--- ------- ---- -- --- -------- --- - ----- ------ ---- --<br>-------- --- -------- -------- --- -------- ---- -- ----- -<br>-------- ---- --- ---------- --------- -- ------- ------ -<br>--------- ----- -----,221293.8749999994,221291.74500000046,220888.55,220900.37499999924,220905.23,221305.55,,13,when
screen,html.Screen,2_3_1_0_1_14,2021-04-24T12:44:48.587Z,,,,,,,,,,,,,,,,,15,,,,,,,,,,,,,,368.7550000004703,,response,,,,7,A,,,,,,Space,keypress(Space),,,,silence,,,,---- --------- ---------- - --- ------- -- --- ------------<br>----- -- -------- ------- ---- served - -------- ---- -----<br>--- ------- ---- -- --- -------- --- - ----- ------ ---- --<br>-------- --- -------- -------- --- -------- ---- -- ----- -<br>-------- ---- --- ---------- --------- -- ------- ------ -<br>--------- ----- -----,221676.44499999913,221674.30500000046,221288.87,221293.99999999988,221305.55,221689.19,,14,served
screen,html.Screen,2_3_1_0_1_15,2021-04-24T12:44:49.025Z,,,,,,,,,,,,,,,,,15,,,,,,,,,,,,,,423.76500000050873,,response,,,,7,A,,,,,,Space,keypress(Space),,,,silence,,,,---- --------- ---------- - --- ------- -- --- ------------<br>----- -- -------- ------- ---- ------ a -------- ---- -----<br>--- ------- ---- -- --- -------- --- - ----- ------ ---- --<br>-------- --- -------- -------- --- -------- ---- -- ----- -<br>-------- ---- --- ---------- --------- -- ------- ------ -<br>--------- ----- -----,222114.96500000067,222112.9550000005,221672.51,221676.56999999963,221689.19,222122.87,,15,a
screen,html.Screen,2_3_1_0_1_16,2021-04-24T12:44:49.408Z,,,,,,,,,,,,,,,,,15,,,,,,,,,,,,,,372.68999999939115,,response,,,,7,A,,,,,,Space,keypress(Space),,,,silence,,,,---- --------- ---------- - --- ------- -- --- ------------<br>----- -- -------- ------- ---- ------ - subpoena ---- -----<br>--- ------- ---- -- --- -------- --- - ----- ------ ---- --<br>-------- --- -------- -------- --- -------- ---- -- ----- -<br>-------- ---- --- ---------- --------- -- ------- ------ -<br>--------- ----- -----,222497.53500000044,222495.5599999994,222106.19,222115.09499999922,222122.87,222506.51,,16,subpoena
screen,html.Screen,2_3_1_0_1_17,2021-04-24T12:44:49.948Z,,,,,,,,,,,,,,,,,15,,,,,,,,,,,,,,529.0799999994924,,response,,,,7,A,,,,,,Space,keypress(Space),,,,silence,,,,---- --------- ---------- - --- ------- -- --- ------------<br>----- -- -------- ------- ---- ------ - -------- last -----<br>--- ------- ---- -- --- -------- --- - ----- ------ ---- --<br>-------- --- -------- -------- --- -------- ---- -- ----- -<br>-------- ---- --- ---------- --------- -- ------- ------ -<br>--------- ----- -----,223037.71000000052,223035.5899999995,222489.83,222497.6549999992,222506.51,223040.27,,17,last
screen,html.Screen,2_3_1_0_1_18,2021-04-24T12:44:50.375Z,,,,,,,,,,,,,,,,,15,,,,,,,,,,,,,,422.63500000032946,,response,,,,7,A,,,,,,Space,keypress(Space),,,,silence,,,,---- --------- ---------- - --- ------- -- --- ------------<br>----- -- -------- ------- ---- ------ - -------- ---- week.<br>--- ------- ---- -- --- -------- --- - ----- ------ ---- --<br>-------- --- -------- -------- --- -------- ---- -- ----- -<br>-------- ---- --- ---------- --------- -- ------- ------ -<br>--------- ----- -----,223464.9499999996,223462.90500000032,223023.59,223037.82999999932,223040.27,223473.95,,18,week.
screen,html.Screen,2_3_1_0_1_19,2021-04-24T12:44:50.769Z,,,,,,,,,,,,,,,,,15,,,,,,,,,,,,,,382.74000000051456,,response,,,,7,A,,,,,,Space,keypress(Space),,,,silence,,,,---- --------- ---------- - --- ------- -- --- ------------<br>----- -- -------- ------- ---- ------ - -------- ---- -----<br>His ------- ---- -- --- -------- --- - ----- ------ ---- --<br>-------- --- -------- -------- --- -------- ---- -- ----- -<br>-------- ---- --- ---------- --------- -- ------- ------ -<br>--------- ----- -----,223858.7549999993,223856.69000000053,223457.27,223465.06500000032,223473.95,223874.27,,19,His
screen,html.Screen,2_3_1_0_1_20,2021-04-24T12:44:51.219Z,,,,,,,,,,,,,,,,,15,,,,,,,,,,,,,,432.4149999995716,,response,,,,7,A,,,,,,Space,keypress(Space),,,,silence,,,,---- --------- ---------- - --- ------- -- --- ------------<br>----- -- -------- ------- ---- ------ - -------- ---- -----<br>--- lawyers ---- -- --- -------- --- - ----- ------ ---- --<br>-------- --- -------- -------- --- -------- ---- -- ----- -<br>-------- ---- --- ---------- --------- -- ------- ------ -<br>--------- ----- -----,224308.6800000001,224306.68499999956,223857.59,223858.87499999988,223874.27,224324.63,,20,lawyers
screen,html.Screen,2_3_1_0_1_21,2021-04-24T12:44:51.557Z,,,,,,,,,,,,,,,,,15,,,,,,,,,,,,,,319.709999998915,,response,,,,7,A,,,,,,Space,keypress(Space),,,,silence,,,,---- --------- ---------- - --- ------- -- --- ------------<br>----- -- -------- ------- ---- ------ - -------- ---- -----<br>--- ------- said -- --- -------- --- - ----- ------ ---- --<br>-------- --- -------- -------- --- -------- ---- -- ----- -<br>-------- ---- --- ---------- --------- -- ------- ------ -<br>--------- ----- -----,224646.39999999962,224644.33999999892,224307.95,224308.81000000046,224324.63,224658.23,,21,said
screen,html.Screen,2_3_1_0_1_22,2021-04-24T12:44:51.950Z,,,,,,,,,,,,,,,,,15,,,,,,,,,,,,,,379.70500000027823,,response,,,,7,A,,,,,,Space,keypress(Space),,,,silence,,,,---- --------- ---------- - --- ------- -- --- ------------<br>----- -- -------- ------- ---- ------ - -------- ---- -----<br>--- ------- ---- he --- -------- --- - ----- ------ ---- --<br>-------- --- -------- -------- --- -------- ---- -- ----- -<br>-------- ---- --- ---------- --------- -- ------- ------ -<br>--------- ----- -----,225040.03000000012,225037.9350000003,224641.55,224646.5250000001,224658.23,225041.87,,22,he
screen,html.Screen,2_3_1_0_1_23,2021-04-24T12:44:52.334Z,,,,,,,,,,,,,,,,,15,,,,,,,,,,,,,,378.714999999851,,response,,,,7,A,,,,,,Space,keypress(Space),,,,silence,,,,---- --------- ---------- - --- ------- -- --- ------------<br>----- -- -------- ------- ---- ------ - -------- ---- -----<br>--- ------- ---- -- was -------- --- - ----- ------ ---- --<br>-------- --- -------- -------- --- -------- ---- -- ----- -<br>-------- ---- --- ---------- --------- -- ------- ------ -<br>--------- ----- -----,225423.70499999926,225420.58499999985,225025.19,225040.16000000047,225041.87,225425.51,,23,was
screen,html.Screen,2_3_1_0_1_24,2021-04-24T12:44:52.614Z,,,,,,,,,,,,,,,,,15,,,,,,,,,,,,,,276.17499999998836,,response,,,,7,A,,,,,,Space,keypress(Space),,,,silence,,,,---- --------- ---------- - --- ------- -- --- ------------<br>----- -- -------- ------- ---- ------ - -------- ---- -----<br>--- ------- ---- -- --- prepared --- - ----- ------ ---- --<br>-------- --- -------- -------- --- -------- ---- -- ----- -<br>-------- ---- --- ---------- --------- -- ------- ------ -<br>--------- ----- -----,225703.72999999928,225701.685,225408.83,225423.82999999973,225425.51,225709.07,,24,prepared
screen,html.Screen,2_3_1_0_1_25,2021-04-24T12:44:53.165Z,,,,,,,,,,,,,,,,,15,,,,,,,,,,,,,,543.8600000005681,,response,,,,7,A,,,,,,Space,keypress(Space),,,,silence,,,,---- --------- ---------- - --- ------- -- --- ------------<br>----- -- -------- ------- ---- ------ - -------- ---- -----<br>--- ------- ---- -- --- -------- for - ----- ------ ---- --<br>-------- --- -------- -------- --- -------- ---- -- ----- -<br>-------- ---- --- ---------- --------- -- ------- ------ -<br>--------- ----- -----,226254.98999999947,226252.93000000058,225692.39,225703.85499999975,225709.07,226259.51,,25,for
screen,html.Screen,2_3_1_0_1_26,2021-04-24T12:44:53.458Z,,,,,,,,,,,,,,,,,15,,,,,,,,,,,,,,286.0399999989022,,response,,,,7,A,,,,,,Space,keypress(Space),,,,silence,,,,---- --------- ---------- - --- ------- -- --- ------------<br>----- -- -------- ------- ---- ------ - -------- ---- -----<br>--- ------- ---- -- --- -------- --- a ----- ------ ---- --<br>-------- --- -------- -------- --- -------- ---- -- ----- -<br>-------- ---- --- ---------- --------- -- ------- ------ -<br>--------- ----- -----,226547.54999999932,226545.5499999989,226242.83,226255.11000000004,226259.51,226559.75,,26,a
screen,html.Screen,2_3_1_0_1_27,2021-04-24T12:44:53.863Z,,,,,,,,,,,,,,,,,15,,,,,,,,,,,,,,390.8350000004866,,response,,,,7,A,,,,,,Space,keypress(Space),,,,silence,,,,---- --------- ---------- - --- ------- -- --- ------------<br>----- -- -------- ------- ---- ------ - -------- ---- -----<br>--- ------- ---- -- --- -------- --- - third ------ ---- --<br>-------- --- -------- -------- --- -------- ---- -- ----- -<br>-------- ---- --- ---------- --------- -- ------- ------ -<br>--------- ----- -----,226952.8399999999,226950.5850000005,226543.07,226547.6749999998,226559.75,226960.07,,27,third
screen,html.Screen,2_3_1_0_1_28,2021-04-24T12:44:54.290Z,,,,,,,,,,,,,,,,,15,,,,,,,,,,,,,,417.8600000005681,,response,,,,7,A,,,,,,Space,keypress(Space),,,,silence,,,,---- --------- ---------- - --- ------- -- --- ------------<br>----- -- -------- ------- ---- ------ - -------- ---- -----<br>--- ------- ---- -- --- -------- --- - ----- prison ---- --<br>-------- --- -------- -------- --- -------- ---- -- ----- -<br>-------- ---- --- ---------- --------- -- ------- ------ -<br>--------- ----- -----,227379.70499999938,227377.93000000058,226943.39,226952.9650000004,226960.07,227393.75,,28,prison
screen,html.Screen,2_3_1_0_1_29,2021-04-24T12:44:54.730Z,,,,,,,,,,,,,,,,,15,,,,,,,,,,,,,,423.0999999992491,,response,,,,7,A,,,,,,Space,keypress(Space),,,,silence,,,,---- --------- ---------- - --- ------- -- --- ------------<br>----- -- -------- ------- ---- ------ - -------- ---- -----<br>--- ------- ---- -- --- -------- --- - ----- ------ stay --<br>-------- --- -------- -------- --- -------- ---- -- ----- -<br>-------- ---- --- ---------- --------- -- ------- ------ -<br>--------- ----- -----,227819.04000000033,227816.84999999925,227377.07,227379.82999999984,227393.75,227827.43,,29,stay
screen,html.Screen,2_3_1_0_1_30,2021-04-24T12:44:55.123Z,,,,,,,,,,,,,,,,,15,,,,,,,,,,,,,,383.0200000004843,,response,,,,7,A,,,,,,Space,keypress(Space),,,,silence,,,,---- --------- ---------- - --- ------- -- --- ------------<br>----- -- -------- ------- ---- ------ - -------- ---- -----<br>--- ------- ---- -- --- -------- --- - ----- ------ ---- to<br>-------- --- -------- -------- --- -------- ---- -- ----- -<br>-------- ---- --- ---------- --------- -- ------- ------ -<br>--------- ----- -----,228212.62000000023,228210.45000000048,227810.75,227819.164999999,227827.43,228227.75,,30,to
screen,html.Screen,2_3_1_0_1_31,2021-04-24T12:44:55.550Z,,,,,,,,,,,,,,,,,15,,,,,,,,,,,,,,410.18500000063796,,response,,,,7,A,,,,,,Space,keypress(Space),,,,silence,,,,---- --------- ---------- - --- ------- -- --- ------------<br>----- -- -------- ------- ---- ------ - -------- ---- -----<br>--- ------- ---- -- --- -------- --- - ----- ------ ---- --<br>maintain --- -------- -------- --- -------- ---- -- ----- -<br>-------- ---- --- ---------- --------- -- ------- ------ -<br>--------- ----- -----,228639.81500000047,228637.93500000064,228211.07,228212.7449999989,228227.75,228644.75,,31,maintain
screen,html.Screen,2_3_1_0_1_32,2021-04-24T12:44:55.956Z,,,,,,,,,,,,,,,,,15,,,,,,,,,,,,,,398.1999999991094,,response,,,,7,A,,,,,,Space,keypress(Space),,,,silence,,,,---- --------- ---------- - --- ------- -- --- ------------<br>----- -- -------- ------- ---- ------ - -------- ---- -----<br>--- ------- ---- -- --- -------- --- - ----- ------ ---- --<br>-------- his -------- -------- --- -------- ---- -- ----- -<br>-------- ---- --- ---------- --------- -- ------- ------ -<br>--------- ----- -----,229045.04499999894,229042.9499999991,228628.07,228639.93499999924,228644.75,229061.539,,32,his
screen,html.Screen,2_3_1_0_1_33,2021-04-24T12:44:56.417Z,,,,,,,,,,,,,,,,,15,,,,,,,,,,,,,,442.7060000000929,,response,,,,7,A,,,,,,Space,keypress(Space),,,,silence,,,,---- --------- ---------- - --- ------- -- --- ------------<br>----- -- -------- ------- ---- ------ - -------- ---- -----<br>--- ------- ---- -- --- -------- --- - ----- ------ ---- --<br>-------- --- silence. -------- --- -------- ---- -- ----- -<br>-------- ---- --- ---------- --------- -- ------- ------ -<br>--------- ----- -----,229506.1000000005,229504.24500000008,229044.859,229045.16499999954,229061.539,229511.899,,33,silence.
screen,html.Screen,2_3_1_0_1_34,2021-04-24T12:44:56.980Z,,,,,,,,,,,,,,,,,15,,,,,,,,,,,,,,554.810999999143,,response,,,,7,A,,,,,,Space,keypress(Space),,,,silence,,,,---- --------- ---------- - --- ------- -- --- ------------<br>----- -- -------- ------- ---- ------ - -------- ---- -----<br>--- ------- ---- -- --- -------- --- - ----- ------ ---- --<br>-------- --- -------- Anderson --- -------- ---- -- ----- -<br>-------- ---- --- ---------- --------- -- ------- ------ -<br>--------- ----- -----,230068.85499999952,230066.70999999915,229495.219,229506.2199999993,229511.899,230079.019,,34,Anderson
screen,html.Screen,2_3_1_0_1_35,2021-04-24T12:44:57.396Z,,,,,,,,,,,,,,,,,15,,,,,,,,,,,,,,403.91599999999744,,response,,,,7,A,,,,,,Space,keypress(Space),,,,silence,,,,---- --------- ---------- - --- ------- -- --- ------------<br>----- -- -------- ------- ---- ------ - -------- ---- -----<br>--- ------- ---- -- --- -------- --- - ----- ------ ---- --<br>-------- --- -------- -------- was -------- ---- -- ----- -<br>-------- ---- --- ---------- --------- -- ------- ------ -<br>--------- ----- -----,230485.00500000047,230482.935,230062.339,230068.97500000015,230079.019,230496.019,,35,was
screen,html.Screen,2_3_1_0_1_36,2021-04-24T12:44:57.778Z,,,,,,,,,,,,,,,,,15,,,,,,,,,,,,,,369.4259999994538,,response,,,,7,A,,,,,,Space,keypress(Space),,,,silence,,,,---- --------- ---------- - --- ------- -- --- ------------<br>----- -- -------- ------- ---- ------ - -------- ---- -----<br>--- ------- ---- -- --- -------- --- - ----- ------ ---- --<br>-------- --- -------- -------- --- released ---- -- ----- -<br>-------- ---- --- ---------- --------- -- ------- ------ -<br>--------- ----- -----,230867.52999999953,230865.44499999945,230479.339,230485.12499999924,230496.019,230879.659,,36,released
screen,html.Screen,2_3_1_0_1_37,2021-04-24T12:44:58.194Z,,,,,,,,,,,,,,,,,15,,,,,,,,,,,,,,401.89599999957136,,response,,,,7,A,,,,,,Space,keypress(Space),,,,silence,,,,---- --------- ---------- - --- ------- -- --- ------------<br>----- -- -------- ------- ---- ------ - -------- ---- -----<br>--- ------- ---- -- --- -------- --- - ----- ------ ---- --<br>-------- --- -------- -------- --- -------- July -- ----- -<br>-------- ---- --- ---------- --------- -- ------- ------ -<br>--------- ----- -----,231283.51999999903,231281.5549999996,230862.979,230867.65000000014,230879.659,231296.659,,37,July
screen,html.Screen,2_3_1_0_1_38,2021-04-24T12:44:58.712Z,,,,,,,,,,,,,,,,,15,,,,,,,,,,,,,,502.4759999992966,,response,,,,7,A,,,,,,Space,keypress(Space),,,,silence,,,,---- --------- ---------- - --- ------- -- --- ------------<br>----- -- -------- ------- ---- ------ - -------- ---- -----<br>--- ------- ---- -- --- -------- --- - ----- ------ ---- --<br>-------- --- -------- -------- --- -------- ---- 20 ----- -<br>-------- ---- --- ---------- --------- -- ------- ------ -<br>--------- ----- -----,231801.2550000003,231799.1349999993,231279.979,231283.63999999966,231296.659,231813.739,,38,20
