sender,sender_type,sender_id,timestamp,meta,,Blues,Classical,Country,Dance,Electronic,Folk,Gospel,Hip-Hop,Jazz,Latin,Musical/Film,New-age,Pop,Prolific_id,Provo_ID,R&B,Rap,Reggae,Religious,Rock,Soul,Swing,Traditional,age,artist_name,correct,correctResponse,distraction,duration,education,ended_on,familiarity,gender,headphone_check_performance,item,list,music_frequency,offensiveness,pleasantness,position_correct,preference,response,response_action,snippet_file,song_name,song_rating,sound,stimulus_1,stimulus_2,stimulus_3,text,time_commit,time_end,time_render,time_run,time_show,time_switch,url,word,word_ID
Prolific ID,html.Form,0,2021-04-24T14:48:45.935Z,"{""labjs_version"":""20.2.2"",""labjs_build"":{""flavor"":""production"",""commit"":""a25486e0c714a0ae2ce03ff94b7bb6896854dcfa""},""location"":""https://run.pavlovia.org/mvasilev/prolific_music_c/"",""userAgent"":""Mozilla/5.0 (Macintosh; Intel Mac OS X 10_15_7) AppleWebKit/537.36 (KHTML, like Gecko) Chrome/88.0.4324.192 Safari/537.36"",""platform"":""MacIntel"",""language"":""en-GB"",""locale"":""en-GB"",""timeZone"":""Europe/London"",""timezoneOffset"":-60,""screen_width"":1280,""screen_height"":800,""scroll_width"":1175,""scroll_height"":602,""window_innerWidth"":1175,""window_innerHeight"":650,""devicePixelRatio"":1}",,,,,,,,,,,,,,,5be6e95fec5bb900014e9f70,,,,,,,,,,,,,,,7799.795999994114,,form submission,,,,,,,,,,,,,,,,,,,,,17219.634999986738,17219.054999994114,9369.381,9380.790000024717,9419.259,17218.153,{},,
Introduction,html.Screen,1_0,2021-04-24T14:48:49.923Z,,,,,,,,,,,,,,,,,,,,,,,,,,,,,,,3985.687000031052,,response,,,,,,,,,,,continue,click button,,,,,,,,,21207.685000030324,21203.84000003105,17201.527,17220.154999988154,17218.153,21209.392,,,
Volume calibration,html.Screen,1_1,2021-04-24T14:49:10.875Z,,,,,,,,,,,,,,,,,,,,,,,,,,,,,,,20944.528000011567,,response,,,,,,,,,,,continue,click button,,,,,,,,,42160.475000040606,42153.92000001157,21192.766,21207.860000024084,21209.392,42159.382,,,
Task instructions,html.Screen,1_2,2021-04-24T14:49:18.793Z,,,,,,,,,,,,,,,,,,,,,,,,,,,,,,,7916.417999991434,,response,,,,,,,,,,,continue,click button,,,,,,,,,50078.329999989364,50075.79999999143,42142.756,42160.710000025574,42159.382,50090.87,,,
Sounds,html.Screen,1_3_0_0,2021-04-24T14:49:23.049Z,,,,,,,,,,,,,,,,,,,,,,,,,,,,,,,4256.255999999994,,timeout,,,,,,,,,3,,,,,,,,O,I,S,,54334.05500004301,54330.5,50074.244,50078.65000003949,50090.87,54347.126,,,
Judgement,html.Screen,1_3_0_1,2021-04-24T14:49:24.731Z,,,,,,,,,,,,,,,,,,,,,,,,,,,,true,3,,1666.7540000422669,,response,,,,,,,,,3,,3,click #choice-3,,,,,O,I,S,,56016.204999992624,56013.88000004226,54330.5,54334.224999998696,54347.126,56027.299,,,
Trial,flow.Sequence,1_3_0,2021-04-24T14:49:24.731Z,,,,,,,,,,,,,,,,,,,,,,,,,,,,,,,5923.010000042261,,completion,,,,,,,,,3,,,,,,,,O,I,S,,56016.59000001382,56013.88000004226,50074.244,50078.570000012405,50090.87,56027.299,,,
Sounds,html.Screen,1_3_1_0,2021-04-24T14:49:28.983Z,,,,,,,,,,,,,,,,,,,,,,,,,,,,,,,4256.256000000001,,timeout,,,,,,,,,2,,,,,,,,O,S,I,,60268.235000025015,60266.929,56010.673,56016.77500002552,56027.299,60283.555,,,
Judgement,html.Screen,1_3_1_1,2021-04-24T14:49:29.741Z,,,,,,,,,,,,,,,,,,,,,,,,,,,,true,2,,740.4150000383888,,response,,,,,,,,,2,,2,click #choice-2,,,,,O,S,I,,61026.565000007395,61023.97000003839,60266.929,60268.38000002317,60283.555,61031.725,,,
Trial,flow.Sequence,1_3_1,2021-04-24T14:49:29.741Z,,,,,,,,,,,,,,,,,,,,,,,,,,,,,,,4996.67100003839,,completion,,,,,,,,,2,,,,,,,,O,S,I,,61026.83500002604,61023.97000003839,56010.673,56016.720000014175,56027.299,61031.725,,,
Sounds,html.Screen,1_3_2_0,2021-04-24T14:49:33.987Z,,,,,,,,,,,,,,,,,,,,,,,,,,,,,,,4256.256000000001,,timeout,,,,,,,,,1,,,,,,,,S,I,O,,65272.73000002606,65271.355,61015.099,61027.04499999527,61031.725,65287.981,,,
Judgement,html.Screen,1_3_2_1,2021-04-24T14:49:34.635Z,,,,,,,,,,,,,,,,,,,,,,,,,,,,true,1,,629.914000020508,,response,,,,,,,,,1,,1,click #choice-1,,,,,S,I,O,,65920.29000003822,65917.89500002051,65271.355,65272.86999998614,65287.981,65920.635,,,
Trial,flow.Sequence,1_3_2,2021-04-24T14:49:34.635Z,,,,,,,,,,,,,,,,,,,,,,,,,,,,,,,4886.170000020509,,completion,,,,,,,,,1,,,,,,,,S,I,O,,65920.54000002099,65917.89500002051,61015.099,61026.97000000626,61031.725,65920.635,,,
Sounds,html.Screen,1_3_3_0,2021-04-24T14:49:38.877Z,,,,,,,,,,,,,,,,,,,,,,,,,,,,,,,4256.2560000000085,,timeout,,,,,,,,,3,,,,,,,,I,O,S,,70163.09500002535,70160.265,65904.009,65920.74000003049,65920.635,70176.891,,,
Judgement,html.Screen,1_3_3_1,2021-04-24T14:49:39.537Z,,,,,,,,,,,,,,,,,,,,,,,,,,,,true,3,,643.1190000249189,,response,,,,,,,,,3,,3,click #choice-3,,,,,I,O,S,,70822.48000003165,70820.01000002492,70160.265,70163.23499998543,70176.891,70825.305,,,
Trial,flow.Sequence,1_3_3,2021-04-24T14:49:39.537Z,,,,,,,,,,,,,,,,,,,,,,,,,,,,,,,4899.375000024927,,completion,,,,,,,,,3,,,,,,,,I,O,S,,70822.69500003895,70820.01000002492,65904.009,65920.66500004148,65920.635,70825.305,,,
Sounds,html.Screen,1_3_4_0,2021-04-24T14:49:43.781Z,,,,,,,,,,,,,,,,,,,,,,,,,,,,,,,4256.2560000000085,,timeout,,,,,,,,,1,,,,,,,,S,O,I,,75066.88500003656,75064.935,70808.679,70822.89000001037,70825.305,75081.561,,,
Judgement,html.Screen,1_3_4_1,2021-04-24T14:49:44.545Z,,,,,,,,,,,,,,,,,,,,,,,,,,,,true,1,,746.3540000307694,,response,,,,,,,,,1,,1,click #choice-1,,,,,S,O,I,,75830.85500000743,75827.91500003077,75064.935,75067.00500001898,75081.561,75830.652,,,
Trial,flow.Sequence,1_3_4,2021-04-24T14:49:44.545Z,,,,,,,,,,,,,,,,,,,,,,,,,,,,,,,5002.610000030778,,completion,,,,,,,,,1,,,,,,,,S,O,I,,75831.14500000374,75827.91500003077,70808.679,70822.8400000371,70825.305,75830.652,,,
Sounds,html.Screen,1_3_5_0,2021-04-24T14:49:48.787Z,,,,,,,,,,,,,,,,,,,,,,,,,,,,,,,4256.255999999994,,timeout,,,,,,,,,2,,,,,,,,I,S,O,,80072.6550000254,80070.282,75814.026,75831.36000001105,75830.652,80086.908,,,
Judgement,html.Screen,1_3_5_1,2021-04-24T14:49:49.297Z,,,,,,,,,,,,,,,,,,,,,,,,,,,,true,2,,492.9070000046049,,response,,,,,,,,,2,,2,click #choice-2,,,,,I,S,O,,80582.62000000104,80579.8150000046,80070.282,80072.83000001917,80086.908,80602.314,,,
Trial,flow.Sequence,1_3_5,2021-04-24T14:49:49.297Z,,,,,,,,,,,,,,,,,,,,,,,,,,,,,,,4749.163000004599,,completion,,,,,,,,,2,,,,,,,,I,S,O,,80583.0100000021,80579.8150000046,75814.026,75831.31000003777,75830.652,80602.314,,,
Task,flow.Loop,1_3,2021-04-24T14:49:49.304Z,,,,,,,,,,,,,,,,,,,,,,,,,,,,,,,30488.945000004598,,completion,,,1,,,,,,,,,,,,,,,,,,80589.67000001576,80579.8150000046,50074.244,50078.495000023395,50090.87,80602.314,,,
Trap,html.Screen,1_4,2021-04-24T14:49:49.306Z,,,,,,,,,,,,,,,,,,,,,,,,,,,,,,,NaN,,skipped,,,,,,,,,,,,,,,,,,,,,80591.56000002986,80579.8150000046,,80591.37500001816,,80602.314,,,
Thanks,html.Screen,1_5,2021-04-24T14:49:51.426Z,,,,,,,,,,,,,,,,,,,,,,,,,,,,,,,2107.526000024998,,response,,,,,,,,,,,continue,click button,,,,,,,,,82712.26500003831,82709.840000025,80585.688,80591.70500002801,80602.314,86920.194,,,
Headphone screening,flow.Sequence,1,2021-04-24T14:49:51.426Z,,,,,,,,,,,,,,,,,,,,,,,,,,,,,,,65491.687000025,,completion,,,,,,,,,,,,,,,,,,,,,82712.4649999896,82709.840000025,17201.527,17220.105000014883,17218.153,86920.194,,,
Instructions,html.Page,2_0,2021-04-24T14:50:16.769Z,,,,,,,,,,,,,,,,,,,,,,,,,,,,,,,21135.451000014917,,form submission,,,,,,,,,,,,,,,,,,,,,108055.96500000684,108055.64500001492,86903.568,86916.42500000307,86920.194,108070.62,,,
Holding screen,html.Screen,2_1_0_0,2021-04-24T14:50:26.763Z,,,,,,,,,,,,,,,,,,,,,,,,,,,,,,,9993.180000000008,,timeout,,,,,,,,,,,,,,,,,,,,,118049.61500002537,118047.174,108053.994,108056.24000000535,108070.62,118063.8,,,
screen,html.Screen,2_1_0_1_0,2021-04-24T14:50:27.686Z,,,,,,,,,,,,,,,,,53,,,,,,,,,,,,,,899.0399999928632,,response,,,,99,,,,,,,Space,keypress(Space),,,,,,,,When -- ----- -- ------ - ------- --- ----------<br>------------- ------ ------ ---- ---- ------- ----- -- ----<br>-------- ------- -- ---------- --- - --- ----- ----- ----<br>---- --- --- ----- --- ---- ---- ------- ----- ---- -------<br>--- --- -- ----- -- --- ---- -- --- ---- -- ------ ------<br>--- ----- -- ----,118972.89999999339,118962.83999999287,118047.174,118049.82000001473,118063.8,118978.23,,0,When
screen,html.Screen,2_1_0_1_1,2021-04-24T14:50:28.274Z,,,,,,,,,,,,,,,,,53,,,,,,,,,,,,,,576.6200000149984,,response,,,,99,,,,,,,Space,keypress(Space),,,,,,,,---- it ----- -- ------ - ------- --- ----------<br>------------- ------ ------ ---- ---- ------- ----- -- ----<br>-------- ------- -- ---------- --- - --- ----- ----- ----<br>---- --- --- ----- --- ---- ---- ------- ----- ---- -------<br>--- --- -- ----- -- --- ---- -- --- ---- -- ------ ------<br>--- ----- -- ----,119561.12999998732,119554.850000015,118961.604,118973.07499998715,118978.23,119576.766,,1,it
screen,html.Screen,2_1_0_1_2,2021-04-24T14:50:28.866Z,,,,,,,,,,,,,,,,,53,,,,,,,,,,,,,,570.1489999902551,,response,,,,99,,,,,,,Space,keypress(Space),,,,,,,,---- -- comes -- ------ - ------- --- ----------<br>------------- ------ ------ ---- ---- ------- ----- -- ----<br>-------- ------- -- ---------- --- - --- ----- ----- ----<br>---- --- --- ----- --- ---- ---- ------- ----- ---- -------<br>--- --- -- ----- -- --- ---- -- --- ---- -- ------ ------<br>--- ----- -- ----,120152.93500002008,120146.91499999026,119560.14,119561.30000000121,119576.766,120158.676,,2,comes
screen,html.Screen,2_1_0_1_3,2021-04-24T14:50:29.384Z,,,,,,,,,,,,,,,,,53,,,,,,,,,,,,,,508.2940000202216,,response,,,,99,,,,,,,Space,keypress(Space),,,,,,,,---- -- ----- to ------ - ------- --- ----------<br>------------- ------ ------ ---- ---- ------- ----- -- ----<br>-------- ------- -- ---------- --- - --- ----- ----- ----<br>---- --- --- ----- --- ---- ---- ------- ----- ---- -------<br>--- --- -- ----- -- --- ---- -- --- ---- -- ------ ------<br>--- ----- -- ----,120670.90999998618,120666.97000002023,120142.05,120153.06000004057,120158.676,120674.082,,3,to
screen,html.Screen,2_1_0_1_4,2021-04-24T14:50:29.955Z,,,,,,,,,,,,,,,,,53,,,,,,,,,,,,,,560.9280000039726,,response,,,,99,,,,,,,Space,keypress(Space),,,,,,,,---- -- ----- -- having - ------- --- ----------<br>------------- ------ ------ ---- ---- ------- ----- -- ----<br>-------- ------- -- ---------- --- - --- ----- ----- ----<br>---- --- --- ----- --- ---- ---- ------- ----- ---- -------<br>--- --- -- ----- -- --- ---- -- --- ---- -- ------ ------<br>--- ----- -- ----,121241.5200000396,121235.01000000397,120657.456,120671.0450000246,120674.082,121256.855,,4,having
screen,html.Screen,2_1_0_1_5,2021-04-24T14:50:30.369Z,,,,,,,,,,,,,,,,,53,,,,,,,,,,,,,,394.07000002356654,,response,,,,99,,,,,,,Space,keypress(Space),,,,,,,,---- -- ----- -- ------ a ------- --- ----------<br>------------- ------ ------ ---- ---- ------- ----- -- ----<br>-------- ------- -- ---------- --- - --- ----- ----- ----<br>---- --- --- ----- --- ---- ---- ------- ----- ---- -------<br>--- --- -- ----- -- --- ---- -- --- ---- -- ------ ------<br>--- ----- -- ----,121656.01500001503,121650.92500002356,121240.229,121241.65500001982,121256.855,121672.505,,5,a
screen,html.Screen,2_1_0_1_6,2021-04-24T14:50:30.915Z,,,,,,,,,,,,,,,,,53,,,,,,,,,,,,,,522.3099999952829,,response,,,,99,,,,,,,Space,keypress(Space),,,,,,,,---- -- ----- -- ------ - lasting --- ----------<br>------------- ------ ------ ---- ---- ------- ----- -- ----<br>-------- ------- -- ---------- --- - --- ----- ----- ----<br>---- --- --- ----- --- ---- ---- ------- ----- ---- -------<br>--- --- -- ----- -- --- ---- -- --- ---- -- ------ ------<br>--- ----- -- ----,122202.04500004184,122194.81499999529,121655.879,121656.17999999085,121672.505,122204.537,,6,lasting
screen,html.Screen,2_1_0_1_7,2021-04-24T14:50:31.441Z,,,,,,,,,,,,,,,,,53,,,,,,,,,,,,,,518.4280000226718,,response,,,,99,,,,,,,Space,keypress(Space),,,,,,,,---- -- ----- -- ------ - ------- and ----------<br>------------- ------ ------ ---- ---- ------- ----- -- ----<br>-------- ------- -- ---------- --- - --- ----- ----- ----<br>---- --- --- ----- --- ---- ---- ------- ----- ---- -------<br>--- --- -- ----- -- --- ---- -- --- ---- -- ------ ------<br>--- ----- -- ----,122728.26500004157,122722.96500002267,122187.911,122202.18500000192,122204.537,122736.569,,7,and
screen,html.Screen,2_1_0_1_8,2021-04-24T14:50:31.930Z,,,,,,,,,,,,,,,,,53,,,,,,,,,,,,,,474.3010000098875,,response,,,,99,,,,,,,Space,keypress(Space),,,,,,,,---- -- ----- -- ------ - ------- --- fulfilling<br>------------- ------ ------ ---- ---- ------- ----- -- ----<br>-------- ------- -- ---------- --- - --- ----- ----- ----<br>---- --- --- ----- --- ---- ---- ------- ----- ---- -------<br>--- --- -- ----- -- --- ---- -- --- ---- -- ------ ------<br>--- ----- -- ----,123217.04000001773,123210.87000000989,122719.943,122728.4300000174,122736.569,123218.723,,8,fulfilling
screen,html.Screen,2_1_0_1_9,2021-04-24T14:50:32.416Z,,,,,,,,,,,,,,,,,53,,,,,,,,,,,,,,480.207000013208,,response,,,,99,,,,,,,Space,keypress(Space),,,,,,,,"---- -- ----- -- ------ - ------- --- ----------<br>relationship, ------ ------ ---- ---- ------- ----- -- ----<br>-------- ------- -- ---------- --- - --- ----- ----- ----<br>---- --- --- ----- --- ---- ---- ------- ----- ---- -------<br>--- --- -- ----- -- --- ---- -- --- ---- -- ------ ------<br>--- ----- -- ----",123702.89000001503,123698.9300000132,123202.097,123217.17000001809,123218.723,123717.503,,9,"relationship,"
screen,html.Screen,2_1_0_1_10,2021-04-24T14:50:32.940Z,,,,,,,,,,,,,,,,,53,,,,,,,,,,,,,,501.3219999890134,,response,,,,99,,,,,,,Space,keypress(Space),,,,,,,,---- -- ----- -- ------ - ------- --- ----------<br>------------- common ------ ---- ---- ------- ----- -- ----<br>-------- ------- -- ---------- --- - --- ----- ----- ----<br>---- --- --- ----- --- ---- ---- ------- ----- ---- -------<br>--- --- -- ----- -- --- ---- -- --- ---- -- ------ ------<br>--- ----- -- ----,124227.26499999408,124218.82499998901,123700.877,123703.02499999525,123717.503,124232.909,,10,common
screen,html.Screen,2_1_0_1_11,2021-04-24T14:50:33.416Z,,,,,,,,,,,,,,,,,53,,,,,,,,,,,,,,465.99599999746715,,response,,,,99,,,,,,,Space,keypress(Space),,,,,,,,---- -- ----- -- ------ - ------- --- ----------<br>------------- ------ wisdom ---- ---- ------- ----- -- ----<br>-------- ------- -- ---------- --- - --- ----- ----- ----<br>---- --- --- ----- --- ---- ---- ------- ----- ---- -------<br>--- --- -- ----- -- --- ---- -- --- ---- -- ------ ------<br>--- ----- -- ----,124702.76499999454,124698.90499999747,124216.283,124227.69500000868,124232.909,124715.063,,11,wisdom
screen,html.Screen,2_1_0_1_12,2021-04-24T14:50:33.970Z,,,,,,,,,,,,,,,,,53,,,,,,,,,,,,,,535.8769999980868,,response,,,,99,,,,,,,Space,keypress(Space),,,,,,,,---- -- ----- -- ------ - ------- --- ----------<br>------------- ------ ------ says ---- ------- ----- -- ----<br>-------- ------- -- ---------- --- - --- ----- ----- ----<br>---- --- --- ----- --- ---- ---- ------- ----- ---- -------<br>--- --- -- ----- -- --- ---- -- --- ---- -- ------ ------<br>--- ----- -- ----,125256.89499999862,125250.93999999808,124698.437,124702.8949999949,124715.063,125263.721,,12,says
screen,html.Screen,2_1_0_1_13,2021-04-24T14:50:34.409Z,,,,,,,,,,,,,,,,,53,,,,,,,,,,,,,,427.263999993811,,response,,,,99,,,,,,,Space,keypress(Space),,,,,,,,---- -- ----- -- ------ - ------- --- ----------<br>------------- ------ ------ ---- that ------- ----- -- ----<br>-------- ------- -- ---------- --- - --- ----- ----- ----<br>---- --- --- ----- --- ---- ---- ------- ----- ---- -------<br>--- --- -- ----- -- --- ---- -- --- ---- -- ------ ------<br>--- ----- -- ----,125695.91499998933,125690.98499999382,125247.095,125257.03000003705,125263.721,125712.623,,13,that
screen,html.Screen,2_1_0_1_14,2021-04-24T14:50:34.876Z,,,,,,,,,,,,,,,,,53,,,,,,,,,,,,,,442.37199998986034,,response,,,,99,,,,,,,Space,keypress(Space),,,,,,,,---- -- ----- -- ------ - ------- --- ----------<br>------------- ------ ------ ---- ---- feeling ----- -- ----<br>-------- ------- -- ---------- --- - --- ----- ----- ----<br>---- --- --- ----- --- ---- ---- ------- ----- ---- -------<br>--- --- -- ----- -- --- ---- -- --- ---- -- ------ ------<br>--- ----- -- ----,126162.45500004152,126154.99499998987,125695.997,125696.05500000762,125712.623,126178.151,,14,feeling
screen,html.Screen,2_1_0_1_15,2021-04-24T14:50:35.280Z,,,,,,,,,,,,,,,,,53,,,,,,,,,,,,,,384.76400001680304,,response,,,,99,,,,,,,Space,keypress(Space),,,,,,,,---- -- ----- -- ------ - ------- --- ----------<br>------------- ------ ------ ---- ---- ------- close -- ----<br>-------- ------- -- ---------- --- - --- ----- ----- ----<br>---- --- --- ----- --- ---- ---- ------- ----- ---- -------<br>--- --- -- ----- -- --- ---- -- --- ---- -- ------ ------<br>--- ----- -- ----,126566.61000003805,126562.9150000168,126161.525,126162.6249999972,126178.151,126577.175,,15,close
screen,html.Screen,2_1_0_1_16,2021-04-24T14:50:35.827Z,,,,,,,,,,,,,,,,,53,,,,,,,,,,,,,,529.8200000382931,,response,,,,99,,,,,,,Space,keypress(Space),,,,,,,,---- -- ----- -- ------ - ------- --- ----------<br>------------- ------ ------ ---- ---- ------- ----- to ----<br>-------- ------- -- ---------- --- - --- ----- ----- ----<br>---- --- --- ----- --- ---- ---- ------- ----- ---- -------<br>--- --- -- ----- -- --- ---- -- --- ---- -- ------ ------<br>--- ----- -- ----,127114.1850000131,127106.9950000383,126560.549,126566.74000003841,126577.175,127125.833,,16,to
screen,html.Screen,2_1_0_1_17,2021-04-24T14:50:36.281Z,,,,,,,,,,,,,,,,,53,,,,,,,,,,,,,,437.02700000545883,,response,,,,99,,,,,,,Space,keypress(Space),,,,,,,,---- -- ----- -- ------ - ------- --- ----------<br>------------- ------ ------ ---- ---- ------- ----- -- your<br>-------- ------- -- ---------- --- - --- ----- ----- ----<br>---- --- --- ----- --- ---- ---- ------- ----- ---- -------<br>--- --- -- ----- -- --- ---- -- --- ---- -- ------ ------<br>--- ----- -- ----,127568.08500003535,127562.86000000546,127109.207,127114.31999999331,127125.833,127574.735,,17,your
screen,html.Screen,2_1_0_1_18,2021-04-24T14:50:36.715Z,,,,,,,,,,,,,,,,,53,,,,,,,,,,,,,,420.17500000853033,,response,,,,99,,,,,,,Space,keypress(Space),,,,,,,,---- -- ----- -- ------ - ------- --- ----------<br>------------- ------ ------ ---- ---- ------- ----- -- ----<br>romantic ------- -- ---------- --- - --- ----- ----- ----<br>---- --- --- ----- --- ---- ---- ------- ----- ---- -------<br>--- --- -- ----- -- --- ---- -- --- ---- -- ------ ------<br>--- ----- -- ----,128002.02499999432,127994.91000000853,127558.109,127568.25499999104,127574.735,128007.011,,18,romantic
screen,html.Screen,2_1_0_1_19,2021-04-24T14:50:37.219Z,,,,,,,,,,,,,,,,,53,,,,,,,,,,,,,,491.9339999993681,,response,,,,99,,,,,,,Space,keypress(Space),,,,,,,,---- -- ----- -- ------ - ------- --- ----------<br>------------- ------ ------ ---- ---- ------- ----- -- ----<br>-------- partner -- ---------- --- - --- ----- ----- ----<br>---- --- --- ----- --- ---- ---- ------- ----- ---- -------<br>--- --- -- ----- -- --- ---- -- --- ---- -- ------ ------<br>--- ----- -- ----,128506.40499999281,128498.94499999937,127990.385,128002.18000001041,128007.011,128522.417,,19,partner
screen,html.Screen,2_1_0_1_20,2021-04-24T14:50:37.699Z,,,,,,,,,,,,,,,,,53,,,,,,,,,,,,,,456.48299998733273,,response,,,,99,,,,,,,Space,keypress(Space),,,,,,,,---- -- ----- -- ------ - ------- --- ----------<br>------------- ------ ------ ---- ---- ------- ----- -- ----<br>-------- ------- is ---------- --- - --- ----- ----- ----<br>---- --- --- ----- --- ---- ---- ------- ----- ---- -------<br>--- --- -- ----- -- --- ---- -- --- ---- -- ------ ------<br>--- ----- -- ----,128985.8799999929,128978.89999998733,128505.791,128506.5300000133,128522.417,128987.945,,20,is
screen,html.Screen,2_1_0_1_21,2021-04-24T14:50:38.169Z,,,,,,,,,,,,,,,,,53,,,,,,,,,,,,,,462.9900000298512,,response,,,,99,,,,,,,Space,keypress(Space),,,,,,,,---- -- ----- -- ------ - ------- --- ----------<br>------------- ------ ------ ---- ---- ------- ----- -- ----<br>-------- ------- -- paramount. --- - --- ----- ----- ----<br>---- --- --- ----- --- ---- ---- ------- ----- ---- -------<br>--- --- -- ----- -- --- ---- -- --- ---- -- ------ ------<br>--- ----- -- ----,129455.86500002537,129450.93500002986,128971.319,128986.0200000112,128987.945,129470.099,,21,paramount.
screen,html.Screen,2_1_0_1_22,2021-04-24T14:50:38.754Z,,,,,,,,,,,,,,,,,53,,,,,,,,,,,,,,564.8809999967198,,response,,,,99,,,,,,,Space,keypress(Space),,,,,,,,---- -- ----- -- ------ - ------- --- ----------<br>------------- ------ ------ ---- ---- ------- ----- -- ----<br>-------- ------- -- ---------- But - --- ----- ----- ----<br>---- --- --- ----- --- ---- ---- ------- ----- ---- -------<br>--- --- -- ----- -- --- ---- -- --- ---- -- ------ ------<br>--- ----- -- ----,130041.16500000237,130034.97999999672,129453.473,129456.01000002353,129470.099,130052.009,,22,But
screen,html.Screen,2_1_0_1_23,2021-04-24T14:50:39.192Z,,,,,,,,,,,,,,,,,53,,,,,,,,,,,,,,422.83600001882587,,response,,,,99,,,,,,,Space,keypress(Space),,,,,,,,---- -- ----- -- ------ - ------- --- ----------<br>------------- ------ ------ ---- ---- ------- ----- -- ----<br>-------- ------- -- ---------- --- a --- ----- ----- ----<br>---- --- --- ----- --- ---- ---- ------- ----- ---- -------<br>--- --- -- ----- -- --- ---- -- --- ---- -- ------ ------<br>--- ----- -- ----,130478.73000003165,130474.84500001883,130035.383,130041.28500004299,130052.009,130484.285,,23,a
screen,html.Screen,2_1_0_1_24,2021-04-24T14:50:39.714Z,,,,,,,,,,,,,,,,,53,,,,,,,,,,,,,,510.6299999883922,,response,,,,99,,,,,,,Space,keypress(Space),,,,,,,,---- -- ----- -- ------ - ------- --- ----------<br>------------- ------ ------ ---- ---- ------- ----- -- ----<br>-------- ------- -- ---------- --- - new ----- ----- ----<br>---- --- --- ----- --- ---- ---- ------- ----- ---- -------<br>--- --- -- ----- -- --- ---- -- --- ---- -- ------ ------<br>--- ----- -- ----,131001.04000000283,130994.9149999884,130467.659,130478.860000032,130484.285,131016.317,,24,new
screen,html.Screen,2_1_0_1_25,2021-04-24T14:50:40.162Z,,,,,,,,,,,,,,,,,53,,,,,,,,,,,,,,426.64300001486845,,response,,,,99,,,,,,,Space,keypress(Space),,,,,,,,---- -- ----- -- ------ - ------- --- ----------<br>------------- ------ ------ ---- ---- ------- ----- -- ----<br>-------- ------- -- ---------- --- - --- study ----- ----<br>---- --- --- ----- --- ---- ---- ------- ----- ---- -------<br>--- --- -- ----- -- --- ---- -- --- ---- -- ------ ------<br>--- ----- -- ----,131448.7599999993,131442.96000001486,130999.691,131001.17000000319,131016.317,131449.524,,25,study
screen,html.Screen,2_1_0_1_26,2021-04-24T14:50:40.611Z,,,,,,,,,,,,,,,,,53,,,,,,,,,,,,,,441.34100002303603,,response,,,,99,,,,,,,Space,keypress(Space),,,,,,,,---- -- ----- -- ------ - ------- --- ----------<br>------------- ------ ------ ---- ---- ------- ----- -- ----<br>-------- ------- -- ---------- --- - --- ----- finds ----<br>---- --- --- ----- --- ---- ---- ------- ----- ---- -------<br>--- --- -- ----- -- --- ---- -- --- ---- -- ------ ------<br>--- ----- -- ----,131897.70500001032,131890.86500002304,131432.898,131448.91000003554,131449.524,131898.426,,26,finds
screen,html.Screen,2_1_0_1_27,2021-04-24T14:50:41.032Z,,,,,,,,,,,,,,,,,53,,,,,,,,,,,,,,416.4840000155091,,response,,,,99,,,,,,,Space,keypress(Space),,,,,,,,---- -- ----- -- ------ - ------- --- ----------<br>------------- ------ ------ ---- ---- ------- ----- -- ----<br>-------- ------- -- ---------- --- - --- ----- ----- that<br>---- --- --- ----- --- ---- ---- ------- ----- ---- -------<br>--- --- -- ----- -- --- ---- -- --- ---- -- ------ ------<br>--- ----- -- ----,132318.6449999921,132314.91000001552,131881.8,131897.83999999054,131898.426,132330.702,,27,that
screen,html.Screen,2_1_0_1_28,2021-04-24T14:50:41.523Z,,,,,,,,,,,,,,,,,53,,,,,,,,,,,,,,472.2729999987059,,response,,,,99,,,,,,,Space,keypress(Space),,,,,,,,---- -- ----- -- ------ - ------- --- ----------<br>------------- ------ ------ ---- ---- ------- ----- -- ----<br>-------- ------- -- ---------- --- - --- ----- ----- ----<br>it's --- --- ----- --- ---- ---- ------- ----- ---- -------<br>--- --- -- ----- -- --- ---- -- --- ---- -- ------ ------<br>--- ----- -- ----,132810.43499999214,132802.9749999987,132314.076,132319.34500002535,132330.702,132812.856,,28,it's
screen,html.Screen,2_1_0_1_29,2021-04-24T14:50:41.936Z,,,,,,,,,,,,,,,,,53,,,,,,,,,,,,,,406.13900000290596,,response,,,,99,,,,,,,Space,keypress(Space),,,,,,,,---- -- ----- -- ------ - ------- --- ----------<br>------------- ------ ------ ---- ---- ------- ----- -- ----<br>-------- ------- -- ---------- --- - --- ----- ----- ----<br>---- not --- ----- --- ---- ---- ------- ----- ---- -------<br>--- --- -- ----- -- --- ---- -- --- ---- -- ------ ------<br>--- ----- -- ----,133222.85499999998,133218.9950000029,132796.23,132810.59000000823,132812.856,133228.506,,29,not
screen,html.Screen,2_1_0_1_30,2021-04-24T14:50:42.355Z,,,,,,,,,,,,,,,,,53,,,,,,,,,,,,,,406.3689999888302,,response,,,,99,,,,,,,Space,keypress(Space),,,,,,,,---- -- ----- -- ------ - ------- --- ----------<br>------------- ------ ------ ---- ---- ------- ----- -- ----<br>-------- ------- -- ---------- --- - --- ----- ----- ----<br>---- --- how ----- --- ---- ---- ------- ----- ---- -------<br>--- --- -- ----- -- --- ---- -- --- ---- -- ------ ------<br>--- ----- -- ----,133641.62000000942,133634.87499998882,133211.88,133222.98000002047,133228.506,133644.156,,30,how
screen,html.Screen,2_1_0_1_31,2021-04-24T14:50:42.704Z,,,,,,,,,,,,,,,,,53,,,,,,,,,,,,,,342.7690000338189,,response,,,,99,,,,,,,Space,keypress(Space),,,,,,,,---- -- ----- -- ------ - ------- --- ----------<br>------------- ------ ------ ---- ---- ------- ----- -- ----<br>-------- ------- -- ---------- --- - --- ----- ----- ----<br>---- --- --- close --- ---- ---- ------- ----- ---- -------<br>--- --- -- ----- -- --- ---- -- --- ---- -- ------ ------<br>--- ----- -- ----,133990.7200000016,133986.9250000338,133627.53,133641.76500000758,133644.156,133993.302,,31,close
screen,html.Screen,2_1_0_1_32,2021-04-24T14:50:43.130Z,,,,,,,,,,,,,,,,,53,,,,,,,,,,,,,,417.5980000171403,,response,,,,99,,,,,,,Space,keypress(Space),,,,,,,,---- -- ----- -- ------ - ------- --- ----------<br>------------- ------ ------ ---- ---- ------- ----- -- ----<br>-------- ------- -- ---------- --- - --- ----- ----- ----<br>---- --- --- ----- you ---- ---- ------- ----- ---- -------<br>--- --- -- ----- -- --- ---- -- --- ---- -- ------ ------<br>--- ----- -- ----,134417.3900000169,134410.90000001714,133976.676,133990.8450000221,133993.302,134425.578,,32,you
screen,html.Screen,2_1_0_1_33,2021-04-24T14:50:43.560Z,,,,,,,,,,,,,,,,,53,,,,,,,,,,,,,,417.3720000202011,,response,,,,99,,,,,,,Space,keypress(Space),,,,,,,,---- -- ----- -- ------ - ------- --- ----------<br>------------- ------ ------ ---- ---- ------- ----- -- ----<br>-------- ------- -- ---------- --- - --- ----- ----- ----<br>---- --- --- ----- --- feel ---- ------- ----- ---- -------<br>--- --- -- ----- -- --- ---- -- --- ---- -- ------ ------<br>--- ----- -- ----,134846.73500002827,134842.9500000202,134408.952,134417.5249999971,134425.578,134857.854,,33,feel
screen,html.Screen,2_1_0_1_34,2021-04-24T14:50:43.931Z,,,,,,,,,,,,,,,,,53,,,,,,,,,,,,,,352.96099999855505,,response,,,,99,,,,,,,Space,keypress(Space),,,,,,,,---- -- ----- -- ------ - ------- --- ----------<br>------------- ------ ------ ---- ---- ------- ----- -- ----<br>-------- ------- -- ---------- --- - --- ----- ----- ----<br>---- --- --- ----- --- ---- that ------- ----- ---- -------<br>--- --- -- ----- -- --- ---- -- --- ---- -- ------ ------<br>--- ----- -- ----,135218.3200000436,135210.81499999855,134841.228,134846.85999999056,134857.854,135223.626,,34,that
screen,html.Screen,2_1_0_1_35,2021-04-24T14:50:44.432Z,,,,,,,,,,,,,,,,,53,,,,,,,,,,,,,,491.22399998939363,,response,,,,99,,,,,,,Space,keypress(Space),,,,,,,,---- -- ----- -- ------ - ------- --- ----------<br>------------- ------ ------ ---- ---- ------- ----- -- ----<br>-------- ------- -- ---------- --- - --- ----- ----- ----<br>---- --- --- ----- --- ---- ---- matters ----- ---- -------<br>--- --- -- ----- -- --- ---- -- --- ---- -- ------ ------<br>--- ----- -- ----,135718.75,135714.84999998938,135207,135218.44999998575,135223.626,135722.406,,35,matters
screen,html.Screen,2_1_0_1_36,2021-04-24T14:50:44.843Z,,,,,,,,,,,,,,,,,53,,,,,,,,,,,,,,400.5390000100888,,response,,,,99,,,,,,,Space,keypress(Space),,,,,,,,"---- -- ----- -- ------ - ------- --- ----------<br>------------- ------ ------ ---- ---- ------- ----- -- ----<br>-------- ------- -- ---------- --- - --- ----- ----- ----<br>---- --- --- ----- --- ---- ---- ------- most, ---- -------<br>--- --- -- ----- -- --- ---- -- --- ---- -- ------ ------<br>--- ----- -- ----",136130.0250000204,136122.94500001008,135705.78,135718.86500000255,135722.406,136138.056,,36,"most,"
screen,html.Screen,2_1_0_1_37,2021-04-24T14:50:45.295Z,,,,,,,,,,,,,,,,,53,,,,,,,,,,,,,,440.76399999516434,,response,,,,99,,,,,,,Space,keypress(Space),,,,,,,,---- -- ----- -- ------ - ------- --- ----------<br>------------- ------ ------ ---- ---- ------- ----- -- ----<br>-------- ------- -- ---------- --- - --- ----- ----- ----<br>---- --- --- ----- --- ---- ---- ------- ----- it's -------<br>--- --- -- ----- -- --- ---- -- --- ---- -- ------ ------<br>--- ----- -- ----,136582.34000002267,136578.81999999518,136121.43,136130.1450000028,136138.056,136586.958,,37,it's
screen,html.Screen,2_1_0_1_38,2021-04-24T14:50:45.770Z,,,,,,,,,,,,,,,,,53,,,,,,,,,,,,,,463.98700002449914,,response,,,,99,,,,,,,Space,keypress(Space),,,,,,,,---- -- ----- -- ------ - ------- --- ----------<br>------------- ------ ------ ---- ---- ------- ----- -- ----<br>-------- ------- -- ---------- --- - --- ----- ----- ----<br>---- --- --- ----- --- ---- ---- ------- ----- ---- whether<br>--- --- -- ----- -- --- ---- -- --- ---- -- ------ ------<br>--- ----- -- ----,137056.81999999797,137050.9450000245,136570.332,136582.46500004316,136586.958,137069.112,,38,whether
screen,html.Screen,2_1_0_1_39,2021-04-24T14:50:46.163Z,,,,,,,,,,,,,,,,,53,,,,,,,,,,,,,,373.8330000170681,,response,,,,99,,,,,,,Space,keypress(Space),,,,,,,,---- -- ----- -- ------ - ------- --- ----------<br>------------- ------ ------ ---- ---- ------- ----- -- ----<br>-------- ------- -- ---------- --- - --- ----- ----- ----<br>---- --- --- ----- --- ---- ---- ------- ----- ---- -------<br>you --- -- ----- -- --- ---- -- --- ---- -- ------ ------<br>--- ----- -- ----,137450.11000003433,137442.94500001706,137052.486,137056.9400000386,137069.112,137468.136,,39,you
screen,html.Screen,2_1_0_1_40,2021-04-24T14:50:46.602Z,,,,,,,,,,,,,,,,,53,,,,,,,,,,,,,,414.7640000259853,,response,,,,99,,,,,,,Space,keypress(Space),,,,,,,,---- -- ----- -- ------ - ------- --- ----------<br>------------- ------ ------ ---- ---- ------- ----- -- ----<br>-------- ------- -- ---------- --- - --- ----- ----- ----<br>---- --- --- ----- --- ---- ---- ------- ----- ---- -------<br>--- are -- ----- -- --- ---- -- --- ---- -- ------ ------<br>--- ----- -- ----,137889.08500003163,137882.90000002598,137451.51,137450.2349999966,137468.136,137900.412,,40,are
screen,html.Screen,2_1_0_1_41,2021-04-24T14:50:47.113Z,,,,,,,,,,,,,,,,,53,,,,,,,,,,,,,,494.4980000318028,,response,,,,99,,,,,,,Space,keypress(Space),,,,,,,,---- -- ----- -- ------ - ------- --- ----------<br>------------- ------ ------ ---- ---- ------- ----- -- ----<br>-------- ------- -- ---------- --- - --- ----- ----- ----<br>---- --- --- ----- --- ---- ---- ------- ----- ---- -------<br>--- --- as ----- -- --- ---- -- --- ---- -- ------ ------<br>--- ----- -- ----,138399.71000002697,138394.9100000318,137883.786,137889.2249999917,137900.412,138415.818,,41,as
screen,html.Screen,2_1_0_1_42,2021-04-24T14:50:47.595Z,,,,,,,,,,,,,,,,,53,,,,,,,,,,,,,,459.1170000289276,,response,,,,99,,,,,,,Space,keypress(Space),,,,,,,,---- -- ----- -- ------ - ------- --- ----------<br>------------- ------ ------ ---- ---- ------- ----- -- ----<br>-------- ------- -- ---------- --- - --- ----- ----- ----<br>---- --- --- ----- --- ---- ---- ------- ----- ---- -------<br>--- --- -- close -- --- ---- -- --- ---- -- ------ ------<br>--- ----- -- ----,138882.14000000153,138874.93500002893,138399.192,138401.08000003966,138415.818,138897.972,,42,close
screen,html.Screen,2_1_0_1_43,2021-04-24T14:50:47.944Z,,,,,,,,,,,,,,,,,53,,,,,,,,,,,,,,328.9329999886104,,response,,,,99,,,,,,,Space,keypress(Space),,,,,,,,---- -- ----- -- ------ - ------- --- ----------<br>------------- ------ ------ ---- ---- ------- ----- -- ----<br>-------- ------- -- ---------- --- - --- ----- ----- ----<br>---- --- --- ----- --- ---- ---- ------- ----- ---- -------<br>--- --- -- ----- as --- ---- -- --- ---- -- ------ ------<br>--- ----- -- ----,139231.44500004128,139226.90499998862,138881.346,138882.27000000188,138897.972,139247.118,,43,as
screen,html.Screen,2_1_0_1_44,2021-04-24T14:50:48.507Z,,,,,,,,,,,,,,,,,53,,,,,,,,,,,,,,539.837000017782,,response,,,,99,,,,,,,Space,keypress(Space),,,,,,,,---- -- ----- -- ------ - ------- --- ----------<br>------------- ------ ------ ---- ---- ------- ----- -- ----<br>-------- ------- -- ---------- --- - --- ----- ----- ----<br>---- --- --- ----- --- ---- ---- ------- ----- ---- -------<br>--- --- -- ----- -- you ---- -- --- ---- -- ------ ------<br>--- ----- -- ----,139794.5100000361,139786.95500001777,139230.492,139231.55999998562,139247.118,139795.776,,44,you
screen,html.Screen,2_1_0_1_45,2021-04-24T14:50:48.962Z,,,,,,,,,,,,,,,,,53,,,,,,,,,,,,,,447.069000000658,,response,,,,99,,,,,,,Space,keypress(Space),,,,,,,,---- -- ----- -- ------ - ------- --- ----------<br>------------- ------ ------ ---- ---- ------- ----- -- ----<br>-------- ------- -- ---------- --- - --- ----- ----- ----<br>---- --- --- ----- --- ---- ---- ------- ----- ---- -------<br>--- --- -- ----- -- --- want -- --- ---- -- ------ ------<br>--- ----- -- ----,140249.31500002276,140242.84500000067,139779.15,139794.64500001632,139795.776,140261.304,,45,want
screen,html.Screen,2_1_0_1_46,2021-04-24T14:50:49.362Z,,,,,,,,,,,,,,,,,53,,,,,,,,,,,,,,381.6610000063665,,response,,,,99,,,,,,,Space,keypress(Space),,,,,,,,---- -- ----- -- ------ - ------- --- ----------<br>------------- ------ ------ ---- ---- ------- ----- -- ----<br>-------- ------- -- ---------- --- - --- ----- ----- ----<br>---- --- --- ----- --- ---- ---- ------- ----- ---- -------<br>--- --- -- ----- -- --- ---- to --- ---- -- ------ ------<br>--- ----- -- ----,140649.22500000102,140642.96500000637,140244.678,140249.44000004325,140261.304,140660.328,,46,to
screen,html.Screen,2_1_0_1_47,2021-04-24T14:50:49.856Z,,,,,,,,,,,,,,,,,53,,,,,,,,,,,,,,478.52700002651545,,response,,,,99,,,,,,,Space,keypress(Space),,,,,,,,"---- -- ----- -- ------ - ------- --- ----------<br>------------- ------ ------ ---- ---- ------- ----- -- ----<br>-------- ------- -- ---------- --- - --- ----- ----- ----<br>---- --- --- ----- --- ---- ---- ------- ----- ---- -------<br>--- --- -- ----- -- --- ---- -- be, ---- -- ------ ------<br>--- ----- -- ----",141143.15499999793,141138.85500002652,140643.702,140649.34500004165,140660.328,141159.108,,47,"be,"
screen,html.Screen,2_1_0_1_48,2021-04-24T14:50:50.266Z,,,,,,,,,,,,,,,,,53,,,,,,,,,,,,,,387.81700003147125,,response,,,,99,,,,,,,Space,keypress(Space),,,,,,,,---- -- ----- -- ------ - ------- --- ----------<br>------------- ------ ------ ---- ---- ------- ----- -- ----<br>-------- ------- -- ---------- --- - --- ----- ----- ----<br>---- --- --- ----- --- ---- ---- ------- ----- ---- -------<br>--- --- -- ----- -- --- ---- -- --- even -- ------ ------<br>--- ----- -- ----,141553.02500003017,141546.92500003148,141142.482,141143.29500001622,141159.108,141559.022,,48,even
screen,html.Screen,2_1_0_1_49,2021-04-24T14:50:50.751Z,,,,,,,,,,,,,,,,,53,,,,,,,,,,,,,,475.963000034797,,response,,,,99,,,,,,,Space,keypress(Space),,,,,,,,---- -- ----- -- ------ - ------- --- ----------<br>------------- ------ ------ ---- ---- ------- ----- -- ----<br>-------- ------- -- ---------- --- - --- ----- ----- ----<br>---- --- --- ----- --- ---- ---- ------- ----- ---- -------<br>--- --- -- ----- -- --- ---- -- --- ---- if ------ ------<br>--- ----- -- ----,142038.69499999564,142034.9850000348,141542.396,141553.1450000126,141559.022,142041.176,,49,if
screen,html.Screen,2_1_0_1_50,2021-04-24T14:50:51.178Z,,,,,,,,,,,,,,,,,53,,,,,,,,,,,,,,417.68400001336704,,response,,,,99,,,,,,,Space,keypress(Space),,,,,,,,---- -- ----- -- ------ - ------- --- ----------<br>------------- ------ ------ ---- ---- ------- ----- -- ----<br>-------- ------- -- ---------- --- - --- ----- ----- ----<br>---- --- --- ----- --- ---- ---- ------- ----- ---- -------<br>--- --- -- ----- -- --- ---- -- --- ---- -- that's ------<br>--- ----- -- ----,142465.17500001937,142458.86000001337,142024.55,142038.824999996,142041.176,142473.452,,50,that's
screen,html.Screen,2_1_0_1_51,2021-04-24T14:50:51.624Z,,,,,,,,,,,,,,,,,53,,,,,,,,,,,,,,433.5180000109249,,response,,,,99,,,,,,,Space,keypress(Space),,,,,,,,---- -- ----- -- ------ - ------- --- ----------<br>------------- ------ ------ ---- ---- ------- ----- -- ----<br>-------- ------- -- ---------- --- - --- ----- ----- ----<br>---- --- --- ----- --- ---- ---- ------- ----- ---- -------<br>--- --- -- ----- -- --- ---- -- --- ---- -- ------ really<br>--- ----- -- ----,142911.64499998558,142906.97000001092,142456.826,142465.2950000018,142473.452,142922.354,,51,really
screen,html.Screen,2_1_0_1_52,2021-04-24T14:50:52.043Z,,,,,,,,,,,,,,,,,53,,,,,,,,,,,,,,400.58600004186155,,response,,,,99,,,,,,,Space,keypress(Space),,,,,,,,---- -- ----- -- ------ - ------- --- ----------<br>------------- ------ ------ ---- ---- ------- ----- -- ----<br>-------- ------- -- ---------- --- - --- ----- ----- ----<br>---- --- --- ----- --- ---- ---- ------- ----- ---- -------<br>--- --- -- ----- -- --- ---- -- --- ---- -- ------ ------<br>not ----- -- ----,143330.37999999942,143322.94000004185,142905.728,142911.79000004195,142922.354,143338.004,,52,not
screen,html.Screen,2_1_0_1_53,2021-04-24T14:50:52.519Z,,,,,,,,,,,,,,,,,53,,,,,,,,,,,,,,464.98100001664716,,response,,,,99,,,,,,,Space,keypress(Space),,,,,,,,---- -- ----- -- ------ - ------- --- ----------<br>------------- ------ ------ ---- ---- ------- ----- -- ----<br>-------- ------- -- ---------- --- - --- ----- ----- ----<br>---- --- --- ----- --- ---- ---- ------- ----- ---- -------<br>--- --- -- ----- -- --- ---- -- --- ---- -- ------ ------<br>--- close -- ----,143806.53500003973,143802.98500001663,143321.378,143330.51500003785,143338.004,143820.158,,53,close
screen,html.Screen,2_1_0_1_54,2021-04-24T14:50:52.914Z,,,,,,,,,,,,,,,,,53,,,,,,,,,,,,,,374.7820000157808,,response,,,,99,,,,,,,Space,keypress(Space),,,,,,,,---- -- ----- -- ------ - ------- --- ----------<br>------------- ------ ------ ---- ---- ------- ----- -- ----<br>-------- ------- -- ---------- --- - --- ----- ----- ----<br>---- --- --- ----- --- ---- ---- ------- ----- ---- -------<br>--- --- -- ----- -- --- ---- -- --- ---- -- ------ ------<br>--- ----- at ----,144201.390000002,144194.94000001578,143803.532,143806.65000004228,143820.158,144202.556,,54,at
screen,html.Screen,2_1_0_1_55,2021-04-24T14:50:53.455Z,,,,,,,,,,,,,,,,,53,,,,,,,,,,,,,,536.324000018969,,response,,,,99,,,,,,,Space,keypress(Space),,,,,,,,---- -- ----- -- ------ - ------- --- ----------<br>------------- ------ ------ ---- ---- ------- ----- -- ----<br>-------- ------- -- ---------- --- - --- ----- ----- ----<br>---- --- --- ----- --- ---- ---- ------- ----- ---- -------<br>--- --- -- ----- -- --- ---- -- --- ---- -- ------ ------<br>--- ----- -- all.,144742.2699999879,144738.88000001898,144185.93,144201.67500001844,144202.556,144751.214,,55,all.
Item 99,flow.Loop,2_1_0_1,2021-04-24T14:50:53.455Z,,,,,,,,,,,,,,,,,,,,,,,,,,,,,,,26675.080000018977,,completion,,,,,C,,,,,,,,,,,silence,,,,,144742.51499999082,144738.88000001898,118047.174,118049.76000002353,118063.8,144751.214,,,
Question 1,html.Screen,2_1_0_2,2021-04-24T14:50:56.499Z,,,,,,,,,,,,,,,,,,,,,,,,,,,,true,FALSE,,3032.7259999938833,,response,,,,99,C,,,,,,FALSE,click #choice-2,,,,silence,,,,,147786.25500004273,147783.9399999939,144734.588,144742.6250000135,144751.214,147810.398,,,
Question 2,html.Screen,2_1_0_3,2021-04-24T14:51:01.990Z,,,,,,,,,,,,,,,,,,,,,,,,,,,,true,TRUE,,5463.526999986789,,response,,,,99,C,,,,,,TRUE,click #choice-1,,,,silence,,,,,153277.3000000161,153273.92499998678,147793.772,147786.380000005,147810.398,153281.304,,,
Item 99,flow.Sequence,2_1_0,2021-04-24T14:51:01.990Z,,,,,,,,,,,,,,,,,,,,,,,,,,,,,,,45203.30499998678,,completion,,,,,,,,,,,,,,,,,,,,,153277.52000000328,153273.92499998678,108053.994,108056.16000003647,108070.62,153281.304,,,
Holding screen,html.Screen,2_1_1_0,2021-04-24T14:51:11.971Z,,,,,,,,,,,,,,,,,,,,,,,,,,,,,,,9993.046999999991,,timeout,,,,,,,,,,,,,,,,,,,,,163259.0049999999,163257.725,153264.678,153277.67500001937,153281.304,163274.351,,,
screen,html.Screen,2_1_1_1_0,2021-04-24T14:51:12.513Z,,,,,,,,,,,,,,,,,54,,,,,,,,,,,,,,520.499000005686,,response,,,,100,,,,,,,Space,keypress(Space),,,,,,,,At --- ---- --- ------ ----- ------- ---- -- --- ------- --<br>------- ---------- ------ -- ----- -- ----- -- ---- ------<br>--- ----- --- --- ------ -------- ----- --- ------ ----- --<br>----- ----- ---------- --- --- ------ ------ ---- -- ------<br>------- --- ------ ----- --- ---- ------- -- ---- --- --<br>------- ------,163800.52500002785,163794.85000000568,163257.725,163259.17000003392,163274.351,163806.383,,0,At
screen,html.Screen,2_1_1_1_1,2021-04-24T14:51:12.994Z,,,,,,,,,,,,,,,,,54,,,,,,,,,,,,,,468.61700002328143,,response,,,,100,,,,,,,Space,keypress(Space),,,,,,,,-- the ---- --- ------ ----- ------- ---- -- --- ------- --<br>------- ---------- ------ -- ----- -- ----- -- ---- ------<br>--- ----- --- --- ------ -------- ----- --- ------ ----- --<br>----- ----- ---------- --- --- ------ ------ ---- -- ------<br>------- --- ------ ----- --- ---- ------- -- ---- --- --<br>------- ------,164281.7750000395,164275.00000002328,163789.757,163800.64999999013,163806.383,164288.537,,1,the
screen,html.Screen,2_1_1_1_2,2021-04-24T14:51:13.399Z,,,,,,,,,,,,,,,,,54,,,,,,,,,,,,,,394.4030000278726,,response,,,,100,,,,,,,Space,keypress(Space),,,,,,,,-- --- time --- ------ ----- ------- ---- -- --- ------- --<br>------- ---------- ------ -- ----- -- ----- -- ---- ------<br>--- ----- --- --- ------ -------- ----- --- ------ ----- --<br>----- ----- ---------- --- --- ------ ------ ---- -- ------<br>------- --- ------ ----- --- ---- ------- -- ---- --- --<br>------- ------,164686.6850000224,164682.94000002788,164271.911,164281.8950000219,164288.537,164687.561,,2,time
screen,html.Screen,2_1_1_1_3,2021-04-24T14:51:13.801Z,,,,,,,,,,,,,,,,,54,,,,,,,,,,,,,,395.3840000310447,,response,,,,100,,,,,,,Space,keypress(Space),,,,,,,,-- --- ---- the ------ ----- ------- ---- -- --- ------- --<br>------- ---------- ------ -- ----- -- ----- -- ---- ------<br>--- ----- --- --- ------ -------- ----- --- ------ ----- --<br>----- ----- ---------- --- --- ------ ------ ---- -- ------<br>------- --- ------ ----- --- ---- ------- -- ---- --- --<br>------- ------,165089.05499998946,165082.94500003103,164670.935,164686.80500000482,164687.561,165103.211,,3,the
screen,html.Screen,2_1_1_1_4,2021-04-24T14:51:14.199Z,,,,,,,,,,,,,,,,,54,,,,,,,,,,,,,,379.71400001842994,,response,,,,100,,,,,,,Space,keypress(Space),,,,,,,,-- --- ---- --- French ----- ------- ---- -- --- ------- --<br>------- ---------- ------ -- ----- -- ----- -- ---- ------<br>--- ----- --- --- ------ -------- ----- --- ------ ----- --<br>----- ----- ---------- --- --- ------ ------ ---- -- ------<br>------- --- ------ ----- --- ---- ------- -- ---- --- --<br>------- ------,165487.03000001842,165482.92500001844,165086.585,165089.17500003008,165103.211,165502.235,,4,French
screen,html.Screen,2_1_1_1_5,2021-04-24T14:51:14.626Z,,,,,,,,,,,,,,,,,54,,,,,,,,,,,,,,404.7950000021374,,response,,,,100,,,,,,,Space,keypress(Space),,,,,,,,-- --- ---- --- ------ crown ------- ---- -- --- ------- --<br>------- ---------- ------ -- ----- -- ----- -- ---- ------<br>--- ----- --- --- ------ -------- ----- --- ------ ----- --<br>----- ----- ---------- --- --- ------ ------ ---- -- ------<br>------- --- ------ ----- --- ---- ------- -- ---- --- --<br>------- ------,165913.89000002528,165907.03000000212,165485.609,165487.16499999864,165502.235,165917.885,,5,crown
screen,html.Screen,2_1_1_1_6,2021-04-24T14:51:15.039Z,,,,,,,,,,,,,,,,,54,,,,,,,,,,,,,,404.9600000169594,,response,,,,100,,,,,,,Space,keypress(Space),,,,,,,,-- --- ---- --- ------ ----- secured ---- -- --- ------- --<br>------- ---------- ------ -- ----- -- ----- -- ---- ------<br>--- ----- --- --- ------ -------- ----- --- ------ ----- --<br>----- ----- ---------- --- --- ------ ------ ---- -- ------<br>------- --- ------ ----- --- ---- ------- -- ---- --- --<br>------- ------,166326.53500000015,166322.84500001697,165901.259,165914.0100000077,165917.885,166333.535,,6,secured
screen,html.Screen,2_1_1_1_7,2021-04-24T14:51:15.506Z,,,,,,,,,,,,,,,,,54,,,,,,,,,,,,,,453.4450000335055,,response,,,,100,,,,,,,Space,keypress(Space),,,,,,,,-- --- ---- --- ------ ----- ------- much -- --- ------- --<br>------- ---------- ------ -- ----- -- ----- -- ---- ------<br>--- ----- --- --- ------ -------- ----- --- ------ ----- --<br>----- ----- ---------- --- --- ------ ------ ---- -- ------<br>------- --- ------ ----- --- ---- ------- -- ---- --- --<br>------- ------,166793.50000002887,166786.9800000335,166316.909,166326.67000003858,166333.535,166799.063,,7,much
screen,html.Screen,2_1_1_1_8,2021-04-24T14:51:15.871Z,,,,,,,,,,,,,,,,,54,,,,,,,,,,,,,,355.92700001000776,,response,,,,100,,,,,,,Space,keypress(Space),,,,,,,,-- --- ---- --- ------ ----- ------- ---- of --- ------- --<br>------- ---------- ------ -- ----- -- ----- -- ---- ------<br>--- ----- --- --- ------ -------- ----- --- ------ ----- --<br>----- ----- ---------- --- --- ------ ------ ---- -- ------<br>------- --- ------ ----- --- ---- ------- -- ---- --- --<br>------- ------,167158.8450000272,167154.99000001,166782.437,166793.66000002483,166799.063,167164.835,,8,of
screen,html.Screen,2_1_1_1_9,2021-04-24T14:51:16.218Z,,,,,,,,,,,,,,,,,54,,,,,,,,,,,,,,333.9900000169582,,response,,,,100,,,,,,,Space,keypress(Space),,,,,,,,-- --- ---- --- ------ ----- ------- ---- -- its ------- --<br>------- ---------- ------ -- ----- -- ----- -- ---- ------<br>--- ----- --- --- ------ -------- ----- --- ------ ----- --<br>----- ----- ---------- --- --- ------ ------ ---- -- ------<br>------- --- ------ ----- --- ---- ------- -- ---- --- --<br>------- ------,167505.27500000317,167498.82500001695,167148.209,167158.9549999917,167164.835,167513.981,,9,its
screen,html.Screen,2_1_1_1_10,2021-04-24T14:51:16.599Z,,,,,,,,,,,,,,,,,54,,,,,,,,,,,,,,368.96400001939037,,response,,,,100,,,,,,,Space,keypress(Space),,,,,,,,-- --- ---- --- ------ ----- ------- ---- -- --- revenue --<br>------- ---------- ------ -- ----- -- ----- -- ---- ------<br>--- ----- --- --- ------ -------- ----- --- ------ ----- --<br>----- ----- ---------- --- --- ------ ------ ---- -- ------<br>------- --- ------ ----- --- ---- ------- -- ---- --- --<br>------- ------,167886.5100000403,167882.9450000194,167497.355,167505.41500002146,167513.981,167896.379,,10,revenue
screen,html.Screen,2_1_1_1_11,2021-04-24T14:51:17.082Z,,,,,,,,,,,,,,,,,54,,,,,,,,,,,,,,466.5160000275064,,response,,,,100,,,,,,,Space,keypress(Space),,,,,,,,-- --- ---- --- ------ ----- ------- ---- -- --- ------- by<br>------- ---------- ------ -- ----- -- ----- -- ---- ------<br>--- ----- --- --- ------ -------- ----- --- ------ ----- --<br>----- ----- ---------- --- --- ------ ------ ---- -- ------<br>------- --- ------ ----- --- ---- ------- -- ---- --- --<br>------- ------,168369.78499998804,168362.8950000275,167879.753,167886.6300000227,167896.379,168378.533,,11,by
screen,html.Screen,2_1_1_1_12,2021-04-24T14:51:17.847Z,,,,,,,,,,,,,,,,,54,,,,,,,,,,,,,,752.3669999892008,,response,,,,100,,,,,,,Space,keypress(Space),,,,,,,,-- --- ---- --- ------ ----- ------- ---- -- --- ------- --<br>issuing ---------- ------ -- ----- -- ----- -- ---- ------<br>--- ----- --- --- ------ -------- ----- --- ------ ----- --<br>----- ----- ---------- --- --- ------ ------ ---- -- ------<br>------- --- ------ ----- --- ---- ------- -- ---- --- --<br>------- ------,169134.6950000152,169130.8999999892,168361.907,168370.54999999236,168378.533,169143.329,,12,issuing
screen,html.Screen,2_1_1_1_13,2021-04-24T14:51:18.337Z,,,,,,,,,,,,,,,,,54,,,,,,,,,,,,,,475.62600001264946,,response,,,,100,,,,,,,Space,keypress(Space),,,,,,,,-- --- ---- --- ------ ----- ------- ---- -- --- ------- --<br>------- government ------ -- ----- -- ----- -- ---- ------<br>--- ----- --- --- ------ -------- ----- --- ------ ----- --<br>----- ----- ---------- --- --- ------ ------ ---- -- ------<br>------- --- ------ ----- --- ---- ------- -- ---- --- --<br>------- ------,169625.00500003807,169618.95500001265,169126.703,169134.81000001775,169143.329,169642.109,,13,government
screen,html.Screen,2_1_1_1_14,2021-04-24T14:51:18.919Z,,,,,,,,,,,,,,,,,54,,,,,,,,,,,,,,560.8610000421177,,response,,,,100,,,,,,,Space,keypress(Space),,,,,,,,-- --- ---- --- ------ ----- ------- ---- -- --- ------- --<br>------- ---------- bonds. -- ----- -- ----- -- ---- ------<br>--- ----- --- --- ------ -------- ----- --- ------ ----- --<br>----- ----- ---------- --- --- ------ ------ ---- -- ------<br>------- --- ------ ----- --- ---- ------- -- ---- --- --<br>------- ------,170206.76000003004,170202.9700000421,169625.483,169625.1550000161,169642.109,170207.393,,14,bonds.
screen,html.Screen,2_1_1_1_15,2021-04-24T14:51:19.433Z,,,,,,,,,,,,,,,,,54,,,,,,,,,,,,,,507.46700000730925,,response,,,,100,,,,,,,Space,keypress(Space),,,,,,,,-- --- ---- --- ------ ----- ------- ---- -- --- ------- --<br>------- ---------- ------ In ----- -- ----- -- ---- ------<br>--- ----- --- --- ------ -------- ----- --- ------ ----- --<br>----- ----- ---------- --- --- ------ ------ ---- -- ------<br>------- --- ------ ----- --- ---- ------- -- ---- --- --<br>------- ------,170720.9450000082,170714.86000000732,170190.767,170206.88000001246,170207.393,170722.799,,15,In
screen,html.Screen,2_1_1_1_16,2021-04-24T14:51:20.431Z,,,,,,,,,,,,,,,,,54,,,,,,,,,,,,,,992.0810000431957,,response,,,,100,,,,,,,Space,keypress(Space),,,,,,,,"-- --- ---- --- ------ ----- ------- ---- -- --- ------- --<br>------- ---------- ------ -- 1727, -- ----- -- ---- ------<br>--- ----- --- --- ------ -------- ----- --- ------ ----- --<br>----- ----- ---------- --- --- ------ ------ ---- -- ------<br>------- --- ------ ----- --- ---- ------- -- ---- --- --<br>------- ------",171718.7200000044,171714.8800000432,170706.173,170721.0850000265,170722.799,171720.359,,16,"1727,"
screen,html.Screen,2_1_1_1_17,2021-04-24T14:51:20.909Z,,,,,,,,,,,,,,,,,54,,,,,,,,,,,,,,466.6260000366601,,response,,,,100,,,,,,,Space,keypress(Space),,,,,,,,-- --- ---- --- ------ ----- ------- ---- -- --- ------- --<br>------- ---------- ------ -- ----- in ----- -- ---- ------<br>--- ----- --- --- ------ -------- ----- --- ------ ----- --<br>----- ----- ---------- --- --- ------ ------ ---- -- ------<br>------- --- ------ ----- --- ---- ------- -- ---- --- --<br>------- ------,172196.86000002548,172186.98500003666,171703.733,171718.83500000695,171720.359,172202.513,,17,in
screen,html.Screen,2_1_1_1_18,2021-04-24T14:51:21.295Z,,,,,,,,,,,,,,,,,54,,,,,,,,,,,,,,376.4120000379917,,response,,,,100,,,,,,,Space,keypress(Space),,,,,,,,-- --- ---- --- ------ ----- ------- ---- -- --- ------- --<br>------- ---------- ------ -- ----- -- order -- ---- ------<br>--- ----- --- --- ------ -------- ----- --- ------ ----- --<br>----- ----- ---------- --- --- ------ ------ ---- -- ------<br>------- --- ------ ----- --- ---- ------- -- ---- --- --<br>------- ------,172582.4750000029,172578.925000038,172185.887,172196.98499998776,172202.513,172585.866,,18,order
screen,html.Screen,2_1_1_1_19,2021-04-24T14:51:21.722Z,,,,,,,,,,,,,,,,,54,,,,,,,,,,,,,,417.1040000304638,,response,,,,100,,,,,,,Space,keypress(Space),,,,,,,,-- --- ---- --- ------ ----- ------- ---- -- --- ------- --<br>------- ---------- ------ -- ----- -- ----- to ---- ------<br>--- ----- --- --- ------ -------- ----- --- ------ ----- --<br>----- ----- ---------- --- --- ------ ------ ---- -- ------<br>------- --- ------ ----- --- ---- ------- -- ---- --- --<br>------- ------,173009.5549999969,173002.97000003047,172569.24,172582.5950000435,172585.866,173018.142,,19,to
screen,html.Screen,2_1_1_1_20,2021-04-24T14:51:22.192Z,,,,,,,,,,,,,,,,,54,,,,,,,,,,,,,,456.86799999466166,,response,,,,100,,,,,,,Space,keypress(Space),,,,,,,,-- --- ---- --- ------ ----- ------- ---- -- --- ------- --<br>------- ---------- ------ -- ----- -- ----- -- save ------<br>--- ----- --- --- ------ -------- ----- --- ------ ----- --<br>----- ----- ---------- --- --- ------ ------ ---- -- ------<br>------- --- ------ ----- --- ---- ------- -- ---- --- --<br>------- ------,173479.91500003263,173475.00999999465,173001.516,173009.66999999946,173018.142,173483.67,,20,save
screen,html.Screen,2_1_1_1_21,2021-04-24T14:51:22.596Z,,,,,,,,,,,,,,,,,54,,,,,,,,,,,,,,391.35000003586174,,response,,,,100,,,,,,,Space,keypress(Space),,,,,,,,"-- --- ---- --- ------ ----- ------- ---- -- --- ------- --<br>------- ---------- ------ -- ----- -- ----- -- ---- money,<br>--- ----- --- --- ------ -------- ----- --- ------ ----- --<br>----- ----- ---------- --- --- ------ ------ ---- -- ------<br>------- --- ------ ----- --- ---- ------- -- ---- --- --<br>------- ------",173883.47500003874,173875.02000003587,173467.044,173480.0600000308,173483.67,173899.32,,21,"money,"
screen,html.Screen,2_1_1_1_22,2021-04-24T14:51:23.015Z,,,,,,,,,,,,,,,,,54,,,,,,,,,,,,,,399.6099999899161,,response,,,,100,,,,,,,Space,keypress(Space),,,,,,,,-- --- ---- --- ------ ----- ------- ---- -- --- ------- --<br>------- ---------- ------ -- ----- -- ----- -- ---- ------<br>the ----- --- --- ------ -------- ----- --- ------ ----- --<br>----- ----- ---------- --- --- ------ ------ ---- -- ------<br>------- --- ------ ----- --- ---- ------- -- ---- --- --<br>------- ------,174302.95000004116,174298.92999998992,173882.694,173883.61000001896,173899.32,174314.97,,22,the
screen,html.Screen,2_1_1_1_23,2021-04-24T14:51:23.410Z,,,,,,,,,,,,,,,,,54,,,,,,,,,,,,,,376.0350000296894,,response,,,,100,,,,,,,Space,keypress(Space),,,,,,,,-- --- ---- --- ------ ----- ------- ---- -- --- ------- --<br>------- ---------- ------ -- ----- -- ----- -- ---- ------<br>--- state --- --- ------ -------- ----- --- ------ ----- --<br>----- ----- ---------- --- --- ------ ------ ---- -- ------<br>------- --- ------ ----- --- ---- ------- -- ---- --- --<br>------- ------,174697.86499999464,174691.0050000297,174298.344,174303.07000002358,174314.97,174713.994,,23,state
screen,html.Screen,2_1_1_1_24,2021-04-24T14:51:23.775Z,,,,,,,,,,,,,,,,,54,,,,,,,,,,,,,,344.9560000351048,,response,,,,100,,,,,,,Space,keypress(Space),,,,,,,,-- --- ---- --- ------ ----- ------- ---- -- --- ------- --<br>------- ---------- ------ -- ----- -- ----- -- ---- ------<br>--- ----- cut --- ------ -------- ----- --- ------ ----- --<br>----- ----- ---------- --- --- ------ ------ ---- -- ------<br>------- --- ------ ----- --- ---- ------- -- ---- --- --<br>------- ------,175063.25000000652,175058.9500000351,174697.368,174697.9799999972,174713.994,175079.766,,24,cut
screen,html.Screen,2_1_1_1_25,2021-04-24T14:51:24.178Z,,,,,,,,,,,,,,,,,54,,,,,,,,,,,,,,379.21399999578716,,response,,,,100,,,,,,,Space,keypress(Space),,,,,,,,-- --- ---- --- ------ ----- ------- ---- -- --- ------- --<br>------- ---------- ------ -- ----- -- ----- -- ---- ------<br>--- ----- --- the ------ -------- ----- --- ------ ----- --<br>----- ----- ---------- --- --- ------ ------ ---- -- ------<br>------- --- ------ ----- --- ---- ------- -- ---- --- --<br>------- ------,175466.04999998817,175458.9799999958,175063.14,175063.36999998894,175079.766,175478.79,,25,the
screen,html.Screen,2_1_1_1_26,2021-04-24T14:51:24.495Z,,,,,,,,,,,,,,,,,54,,,,,,,,,,,,,,300.0950000360899,,response,,,,100,,,,,,,Space,keypress(Space),,,,,,,,-- --- ---- --- ------ ----- ------- ---- -- --- ------- --<br>------- ---------- ------ -- ----- -- ----- -- ---- ------<br>--- ----- --- --- bonds' -------- ----- --- ------ ----- --<br>----- ----- ---------- --- --- ------ ------ ---- -- ------<br>------- --- ------ ----- --- ---- ------- -- ---- --- --<br>------- ------,175782.54500002367,175778.8850000361,175462.164,175466.17500000866,175478.79,175794.684,,26,bonds'
screen,html.Screen,2_1_1_1_27,2021-04-24T14:51:25.001Z,,,,,,,,,,,,,,,,,54,,,,,,,,,,,,,,488.25600000459235,,response,,,,100,,,,,,,Space,keypress(Space),,,,,,,,-- --- ---- --- ------ ----- ------- ---- -- --- ------- --<br>------- ---------- ------ -- ----- -- ----- -- ---- ------<br>--- ----- --- --- ------ interest ----- --- ------ ----- --<br>----- ----- ---------- --- --- ------ ------ ---- -- ------<br>------- --- ------ ----- --- ---- ------- -- ---- --- --<br>------- ------,176288.95000001648,176282.9400000046,175778.058,175782.6650000061,175794.684,176293.464,,27,interest
screen,html.Screen,2_1_1_1_28,2021-04-24T14:51:25.367Z,,,,,,,,,,,,,,,,,54,,,,,,,,,,,,,,357.44600002575316,,response,,,,100,,,,,,,Space,keypress(Space),,,,,,,,-- --- ---- --- ------ ----- ------- ---- -- --- ------- --<br>------- ---------- ------ -- ----- -- ----- -- ---- ------<br>--- ----- --- --- ------ -------- rate. --- ------ ----- --<br>----- ----- ---------- --- --- ------ ------ ---- -- ------<br>------- --- ------ ----- --- ---- ------- -- ---- --- --<br>------- ------,176654.5449999976,176650.91000002576,176276.838,176289.0699999989,176293.464,176659.236,,28,rate.
screen,html.Screen,2_1_1_1_29,2021-04-24T14:51:25.929Z,,,,,,,,,,,,,,,,,54,,,,,,,,,,,,,,551.5939999963448,,response,,,,100,,,,,,,Space,keypress(Space),,,,,,,,-- --- ---- --- ------ ----- ------- ---- -- --- ------- --<br>------- ---------- ------ -- ----- -- ----- -- ---- ------<br>--- ----- --- --- ------ -------- ----- The ------ ----- --<br>----- ----- ---------- --- --- ------ ------ ---- -- ------<br>------- --- ------ ----- --- ---- ------- -- ---- --- --<br>------- ------,177217.3850000254,177210.82999999635,176642.61,176654.66500003822,176659.236,177224.52,,29,The
screen,html.Screen,2_1_1_1_30,2021-04-24T14:51:26.375Z,,,,,,,,,,,,,,,,,54,,,,,,,,,,,,,,434.4049999960989,,response,,,,100,,,,,,,Space,keypress(Space),,,,,,,,-- --- ---- --- ------ ----- ------- ---- -- --- ------- --<br>------- ---------- ------ -- ----- -- ----- -- ---- ------<br>--- ----- --- --- ------ -------- ----- --- market ----- --<br>----- ----- ---------- --- --- ------ ------ ---- -- ------<br>------- --- ------ ----- --- ---- ------- -- ---- --- --<br>------- ------,177662.8250000067,177658.9249999961,177207.894,177217.50999998767,177224.52,177673.422,,30,market
screen,html.Screen,2_1_1_1_31,2021-04-24T14:51:26.843Z,,,,,,,,,,,,,,,,,54,,,,,,,,,,,,,,449.5180000302207,,response,,,,100,,,,,,,Space,keypress(Space),,,,,,,,-- --- ---- --- ------ ----- ------- ---- -- --- ------- --<br>------- ---------- ------ -- ----- -- ----- -- ---- ------<br>--- ----- --- --- ------ -------- ----- --- ------ value --<br>----- ----- ---------- --- --- ------ ------ ---- -- ------<br>------- --- ------ ----- --- ---- ------- -- ---- --- --<br>------- ------,178131.34000002174,178122.9400000302,177656.796,177662.94499998912,177673.422,178138.95,,31,value
screen,html.Screen,2_1_1_1_32,2021-04-24T14:51:27.119Z,,,,,,,,,,,,,,,,,54,,,,,,,,,,,,,,263.9150000109221,,response,,,,100,,,,,,,Space,keypress(Space),,,,,,,,-- --- ---- --- ------ ----- ------- ---- -- --- ------- --<br>------- ---------- ------ -- ----- -- ----- -- ---- ------<br>--- ----- --- --- ------ -------- ----- --- ------ ----- of<br>----- ----- ---------- --- --- ------ ------ ---- -- ------<br>------- --- ------ ----- --- ---- ------- -- ---- --- --<br>------- ------,178406.63000004133,178402.86500001093,178122.324,178131.48000004003,178138.95,178421.592,,32,of
screen,html.Screen,2_1_1_1_33,2021-04-24T14:51:27.713Z,,,,,,,,,,,,,,,,,54,,,,,,,,,,,,,,573.3079999905895,,response,,,,100,,,,,,,Space,keypress(Space),,,,,,,,-- --- ---- --- ------ ----- ------- ---- -- --- ------- --<br>------- ---------- ------ -- ----- -- ----- -- ---- ------<br>--- ----- --- --- ------ -------- ----- --- ------ ----- --<br>these ----- ---------- --- --- ------ ------ ---- -- ------<br>------- --- ------ ----- --- ---- ------- -- ---- --- --<br>------- ------,179001.22500001453,178994.8999999906,178404.966,178406.75000002375,178421.592,179003.502,,33,these
screen,html.Screen,2_1_1_1_34,2021-04-24T14:51:28.353Z,,,,,,,,,,,,,,,,,54,,,,,,,,,,,,,,631.4130000023579,,response,,,,100,,,,,,,Space,keypress(Space),,,,,,,,-- --- ---- --- ------ ----- ------- ---- -- --- ------- --<br>------- ---------- ------ -- ----- -- ----- -- ---- ------<br>--- ----- --- --- ------ -------- ----- --- ------ ----- --<br>----- bonds ---------- --- --- ------ ------ ---- -- ------<br>------- --- ------ ----- --- ---- ------- -- ---- --- --<br>------- ------,179641.14500000142,179634.91500000237,178986.876,179001.34499999695,179003.502,179651.916,,34,bonds
screen,html.Screen,2_1_1_1_35,2021-04-24T14:51:28.985Z,,,,,,,,,,,,,,,,,54,,,,,,,,,,,,,,614.9890000258747,,response,,,,100,,,,,,,Space,keypress(Space),,,,,,,,"-- --- ---- --- ------ ----- ------- ---- -- --- ------- --<br>------- ---------- ------ -- ----- -- ----- -- ---- ------<br>--- ----- --- --- ------ -------- ----- --- ------ ----- --<br>----- ----- plummeted, --- --- ------ ------ ---- -- ------<br>------- --- ------ ----- --- ---- ------- -- ---- --- --<br>------- ------",180273.31499999855,180266.90500002587,179635.29,179641.26000000397,179651.916,180283.704,,35,"plummeted,"
screen,html.Screen,2_1_1_1_36,2021-04-24T14:51:29.454Z,,,,,,,,,,,,,,,,,54,,,,,,,,,,,,,,455.23600001019076,,response,,,,100,,,,,,,Space,keypress(Space),,,,,,,,-- --- ---- --- ------ ----- ------- ---- -- --- ------- --<br>------- ---------- ------ -- ----- -- ----- -- ---- ------<br>--- ----- --- --- ------ -------- ----- --- ------ ----- --<br>----- ----- ---------- and --- ------ ------ ---- -- ------<br>------- --- ------ ----- --- ---- ------- -- ---- --- --<br>------- ------,180742.46500001755,180738.9400000102,180267.078,180273.43500003917,180283.704,180749.232,,36,and
screen,html.Screen,2_1_1_1_37,2021-04-24T14:51:29.865Z,,,,,,,,,,,,,,,,,54,,,,,,,,,,,,,,397.6780000104045,,response,,,,100,,,,,,,Space,keypress(Space),,,,,,,,-- --- ---- --- ------ ----- ------- ---- -- --- ------- --<br>------- ---------- ------ -- ----- -- ----- -- ---- ------<br>--- ----- --- --- ------ -------- ----- --- ------ ----- --<br>----- ----- ---------- --- the ------ ------ ---- -- ------<br>------- --- ------ ----- --- ---- ------- -- ---- --- --<br>------- ------,181153.01499998895,181146.9100000104,180732.606,180742.5800000201,180749.232,181164.882,,37,the
screen,html.Screen,2_1_1_1_38,2021-04-24T14:51:30.343Z,,,,,,,,,,,,,,,,,54,,,,,,,,,,,,,,461.96800000054645,,response,,,,100,,,,,,,Space,keypress(Space),,,,,,,,-- --- ---- --- ------ ----- ------- ---- -- --- ------- --<br>------- ---------- ------ -- ----- -- ----- -- ---- ------<br>--- ----- --- --- ------ -------- ----- --- ------ ----- --<br>----- ----- ---------- --- --- market ------ ---- -- ------<br>------- --- ------ ----- --- ---- ------- -- ---- --- --<br>------- ------,181630.64500002656,181626.85000000056,181148.256,181153.1449999893,181164.882,181647.036,,38,market
screen,html.Screen,2_1_1_1_39,2021-04-24T14:51:30.810Z,,,,,,,,,,,,,,,,,54,,,,,,,,,,,,,,443.84400003249175,,response,,,,100,,,,,,,Space,keypress(Space),,,,,,,,-- --- ---- --- ------ ----- ------- ---- -- --- ------- --<br>------- ---------- ------ -- ----- -- ----- -- ---- ------<br>--- ----- --- --- ------ -------- ----- --- ------ ----- --<br>----- ----- ---------- --- --- ------ became ---- -- ------<br>------- --- ------ ----- --- ---- ------- -- ---- --- --<br>------- ------,182098.08000002522,182090.88000003248,181630.41,181630.76500000898,181647.036,182112.564,,39,became
screen,html.Screen,2_1_1_1_40,2021-04-24T14:51:31.199Z,,,,,,,,,,,,,,,,,54,,,,,,,,,,,,,,370.2710000316147,,response,,,,100,,,,,,,Space,keypress(Space),,,,,,,,-- --- ---- --- ------ ----- ------- ---- -- --- ------- --<br>------- ---------- ------ -- ----- -- ----- -- ---- ------<br>--- ----- --- --- ------ -------- ----- --- ------ ----- --<br>----- ----- ---------- --- --- ------ ------ wary -- ------<br>------- --- ------ ----- --- ---- ------- -- ---- --- --<br>------- ------,182486.97500000708,182482.83500003163,182095.938,182098.21000002557,182112.564,182494.962,,40,wary
screen,html.Screen,2_1_1_1_41,2021-04-24T14:51:31.617Z,,,,,,,,,,,,,,,,,54,,,,,,,,,,,,,,403.96800002484815,,response,,,,100,,,,,,,Space,keypress(Space),,,,,,,,-- --- ---- --- ------ ----- ------- ---- -- --- ------- --<br>------- ---------- ------ -- ----- -- ----- -- ---- ------<br>--- ----- --- --- ------ -------- ----- --- ------ ----- --<br>----- ----- ---------- --- --- ------ ------ ---- of ------<br>------- --- ------ ----- --- ---- ------- -- ---- --- --<br>------- ------,182904.85500002978,182898.93000002485,182478.336,182487.1099999873,182494.962,182911.567,,41,of
screen,html.Screen,2_1_1_1_42,2021-04-24T14:51:32.095Z,,,,,,,,,,,,,,,,,54,,,,,,,,,,,,,,467.283000037336,,response,,,,100,,,,,,,Space,keypress(Space),,,,,,,,-- --- ---- --- ------ ----- ------- ---- -- --- ------- --<br>------- ---------- ------ -- ----- -- ----- -- ---- ------<br>--- ----- --- --- ------ -------- ----- --- ------ ----- --<br>----- ----- ---------- --- --- ------ ------ ---- -- French<br>------- --- ------ ----- --- ---- ------- -- ---- --- --<br>------- ------,183382.5450000004,183378.85000003735,182894.941,182905.00999998767,182911.567,183393.721,,42,French
screen,html.Screen,2_1_1_1_43,2021-04-24T14:51:32.585Z,,,,,,,,,,,,,,,,,54,,,,,,,,,,,,,,473.1840000025986,,response,,,,100,,,,,,,Space,keypress(Space),,,,,,,,-- --- ---- --- ------ ----- ------- ---- -- --- ------- --<br>------- ---------- ------ -- ----- -- ----- -- ---- ------<br>--- ----- --- --- ------ -------- ----- --- ------ ----- --<br>----- ----- ---------- --- --- ------ ------ ---- -- ------<br>credit. --- ------ ----- --- ---- ------- -- ---- --- --<br>------- ------,183872.84000002546,183866.9050000026,183377.095,183382.66500004102,183393.721,183875.875,,43,credit.
screen,html.Screen,2_1_1_1_44,2021-04-24T14:51:33.095Z,,,,,,,,,,,,,,,,,54,,,,,,,,,,,,,,502.97500003734604,,response,,,,100,,,,,,,Space,keypress(Space),,,,,,,,-- --- ---- --- ------ ----- ------- ---- -- --- ------- --<br>------- ---------- ------ -- ----- -- ----- -- ---- ------<br>--- ----- --- --- ------ -------- ----- --- ------ ----- --<br>----- ----- ---------- --- --- ------ ------ ---- -- ------<br>------- The ------ ----- --- ---- ------- -- ---- --- --<br>------- ------,184383.10500001535,184378.85000003735,183859.249,183872.955000028,183875.875,184391.281,,44,The
screen,html.Screen,2_1_1_1_45,2021-04-24T14:51:33.610Z,,,,,,,,,,,,,,,,,54,,,,,,,,,,,,,,499.68900000766735,,response,,,,100,,,,,,,Space,keypress(Space),,,,,,,,-- --- ---- --- ------ ----- ------- ---- -- --- ------- --<br>------- ---------- ------ -- ----- -- ----- -- ---- ------<br>--- ----- --- --- ------ -------- ----- --- ------ ----- --<br>----- ----- ---------- --- --- ------ ------ ---- -- ------<br>------- --- French ----- --- ---- ------- -- ---- --- --<br>------- ------,184898.51000002818,184890.97000000766,184374.655,184383.2200000179,184391.281,184906.687,,45,French
screen,html.Screen,2_1_1_1_46,2021-04-24T14:51:34.311Z,,,,,,,,,,,,,,,,,54,,,,,,,,,,,,,,688.243000021117,,response,,,,100,,,,,,,Space,keypress(Space),,,,,,,,-- --- ---- --- ------ ----- ------- ---- -- --- ------- --<br>------- ---------- ------ -- ----- -- ----- -- ---- ------<br>--- ----- --- --- ------ -------- ----- --- ------ ----- --<br>----- ----- ---------- --- --- ------ ------ ---- -- ------<br>------- --- ------ state --- ---- ------- -- ---- --- --<br>------- ------,185599.0800000145,185594.93000002112,184890.061,184898.62500003073,184906.687,185604.979,,46,state
screen,html.Screen,2_1_1_1_47,2021-04-24T14:51:34.915Z,,,,,,,,,,,,,,,,,54,,,,,,,,,,,,,,589.8910000066389,,response,,,,100,,,,,,,Space,keypress(Space),,,,,,,,-- --- ---- --- ------ ----- ------- ---- -- --- ------- --<br>------- ---------- ------ -- ----- -- ----- -- ---- ------<br>--- ----- --- --- ------ -------- ----- --- ------ ----- --<br>----- ----- ---------- --- --- ------ ------ ---- -- ------<br>------- --- ------ ----- was ---- ------- -- ---- --- --<br>------- ------,186203.3550000051,186194.87000000663,185588.353,185599.19999999693,185604.979,186220.141,,47,was
screen,html.Screen,2_1_1_1_48,2021-04-24T14:51:35.383Z,,,,,,,,,,,,,,,,,54,,,,,,,,,,,,,,446.7590000110795,,response,,,,100,,,,,,,Space,keypress(Space),,,,,,,,-- --- ---- --- ------ ----- ------- ---- -- --- ------- --<br>------- ---------- ------ -- ----- -- ----- -- ---- ------<br>--- ----- --- --- ------ -------- ----- --- ------ ----- --<br>----- ----- ---------- --- --- ------ ------ ---- -- ------<br>------- --- ------ ----- --- left ------- -- ---- --- --<br>------- ------,186671.12000001362,186666.90000001108,186203.515,186203.4650000278,186220.141,186685.669,,48,left
screen,html.Screen,2_1_1_1_49,2021-04-24T14:51:35.889Z,,,,,,,,,,,,,,,,,54,,,,,,,,,,,,,,485.31099999533035,,response,,,,100,,,,,,,Space,keypress(Space),,,,,,,,-- --- ---- --- ------ ----- ------- ---- -- --- ------- --<br>------- ---------- ------ -- ----- -- ----- -- ---- ------<br>--- ----- --- --- ------ -------- ----- --- ------ ----- --<br>----- ----- ---------- --- --- ------ ------ ---- -- ------<br>------- --- ------ ----- --- ---- without -- ---- --- --<br>------- ------,187177.25000000792,187170.97999999532,186669.043,186672.17000003438,186685.669,187184.449,,49,without
screen,html.Screen,2_1_1_1_50,2021-04-24T14:51:36.423Z,,,,,,,,,,,,,,,,,54,,,,,,,,,,,,,,522.4760000058741,,response,,,,100,,,,,,,Space,keypress(Space),,,,,,,,-- --- ---- --- ------ ----- ------- ---- -- --- ------- --<br>------- ---------- ------ -- ----- -- ----- -- ---- ------<br>--- ----- --- --- ------ -------- ----- --- ------ ----- --<br>----- ----- ---------- --- --- ------ ------ ---- -- ------<br>------- --- ------ ----- --- ---- ------- an ---- --- --<br>------- ------,187711.0349999857,187706.92500000587,187167.823,187177.36999999033,187184.449,187716.481,,50,an
screen,html.Screen,2_1_1_1_51,2021-04-24T14:51:38.130Z,,,,,,,,,,,,,,,,,54,,,,,,,,,,,,,,1694.4239999970014,,response,,,,100,,,,,,,Space,keypress(Space),,,,,,,,-- --- ---- --- ------ ----- ------- ---- -- --- ------- --<br>------- ---------- ------ -- ----- -- ----- -- ---- ------<br>--- ----- --- --- ------ -------- ----- --- ------ ----- --<br>----- ----- ---------- --- --- ------ ------ ---- -- ------<br>------- --- ------ ----- --- ---- ------- -- easy --- --<br>------- ------,189418.2499999879,189410.904999997,187699.855,187711.16499998607,187716.481,189428.959,,51,easy
screen,html.Screen,2_1_1_1_52,2021-04-24T14:51:38.687Z,,,,,,,,,,,,,,,,,54,,,,,,,,,,,,,,542.0160000038159,,response,,,,100,,,,,,,Space,keypress(Space),,,,,,,,-- --- ---- --- ------ ----- ------- ---- -- --- ------- --<br>------- ---------- ------ -- ----- -- ----- -- ---- ------<br>--- ----- --- --- ------ -------- ----- --- ------ ----- --<br>----- ----- ---------- --- --- ------ ------ ---- -- ------<br>------- --- ------ ----- --- ---- ------- -- ---- way --<br>------- ------,189974.680000043,189970.97500000382,189412.333,189418.37000002852,189428.959,189977.617,,52,way
screen,html.Screen,2_1_1_1_53,2021-04-24T14:51:39.169Z,,,,,,,,,,,,,,,,,54,,,,,,,,,,,,,,473.2979999939853,,response,,,,100,,,,,,,Space,keypress(Space),,,,,,,,-- --- ---- --- ------ ----- ------- ---- -- --- ------- --<br>------- ---------- ------ -- ----- -- ----- -- ---- ------<br>--- ----- --- --- ------ -------- ----- --- ------ ----- --<br>----- ----- ---------- --- --- ------ ------ ---- -- ------<br>------- --- ------ ----- --- ---- ------- -- ---- --- of<br>------- ------,190456.89500001026,190450.91499999398,189960.991,189974.80000002543,189977.617,190459.771,,53,of
screen,html.Screen,2_1_1_1_54,2021-04-24T14:51:39.687Z,,,,,,,,,,,,,,,,,54,,,,,,,,,,,,,,511.11400001699803,,response,,,,100,,,,,,,Space,keypress(Space),,,,,,,,-- --- ---- --- ------ ----- ------- ---- -- --- ------- --<br>------- ---------- ------ -- ----- -- ----- -- ---- ------<br>--- ----- --- --- ------ -------- ----- --- ------ ----- --<br>----- ----- ---------- --- --- ------ ------ ---- -- ------<br>------- --- ------ ----- --- ---- ------- -- ---- --- --<br>raising ------,190974.81000004336,190970.885000017,190443.145,190457.01000001281,190459.771,190991.803,,54,raising
screen,html.Screen,2_1_1_1_55,2021-04-24T14:51:40.321Z,,,,,,,,,,,,,,,,,54,,,,,,,,,,,,,,611.1770000251126,,response,,,,100,,,,,,,Space,keypress(Space),,,,,,,,-- --- ---- --- ------ ----- ------- ---- -- --- ------- --<br>------- ---------- ------ -- ----- -- ----- -- ---- ------<br>--- ----- --- --- ------ -------- ----- --- ------ ----- --<br>----- ----- ---------- --- --- ------ ------ ---- -- ------<br>------- --- ------ ----- --- ---- ------- -- ---- --- --<br>------- money.,191609.57000002963,191602.98000002513,190975.177,190974.94500002358,190991.803,191623.591,,55,money.
Item 100,flow.Loop,2_1_1_1,2021-04-24T14:51:40.322Z,,,,,,,,,,,,,,,,,,,,,,,,,,,,,,,28328.629000025132,,completion,,,,,C,,,,,,,,,,,silence,,,,,191609.79499999667,191602.98000002513,163257.725,163259.1250000405,163274.351,191623.591,,,
Question 1,html.Screen,2_1_1_2,2021-04-24T14:51:46.048Z,,,,,,,,,,,,,,,,,,,,,,,,,,,,true,TRUE,,5710.379000036075,,response,,,,100,C,,,,,,TRUE,click #choice-1,,,,silence,,,,,197336.2550000311,197333.97000003606,191606.965,191609.8850000417,191623.591,197343.749,,,
Question 2,html.Screen,2_1_1_3,2021-04-24T14:51:48.584Z,,,,,,,,,,,,,,,,,,,,,,,,,,,,true,FALSE,,2526.1410000308533,,response,,,,100,C,,,,,,FALSE,click #choice-2,,,,silence,,,,,199872.16999998782,199869.89000003086,197327.123,197336.37000003364,197343.749,199887.527,,,
Item 100,flow.Sequence,2_1_1,2021-04-24T14:51:48.584Z,,,,,,,,,,,,,,,,,,,,,,,,,,,,,,,46588.58600003086,,completion,,,,,,,,,,,,,,,,,,,,,199872.38499999512,199869.89000003086,153264.678,153277.63000002597,153281.304,199887.527,,,
End of Practice,html.Page,2_1_2,2021-04-24T14:51:51.190Z,,,,,,,,,,,,,,,,,,,,,,,,,,,,,,,2590.8379999881145,,form submission,,,,,,,,,,,,,,,,,,,,,202478.6000000313,202478.36499998812,199870.901,199872.48000002,199887.527,202481.183,,,
Practice,flow.Sequence,2_1,2021-04-24T14:51:51.190Z,,,,,,,,,,,,,,,,,,,,,,,,,,,,,,,94407.74499998812,,completion,,,,,,,,,,,,,,,,,,,,,202478.78000000492,202478.36499998812,108053.994,108056.11000000499,108070.62,202481.183,,,
Trap_instruction,html.Page,2_2_0,2021-04-24T14:52:02.222Z,,,,,,,,,,,,,,,,,,,,,,,,,,,,,,,11028.92700003201,,form submission,,,,,,,,,,,,,,,,,,,,,213510.34999999683,213510.110000032,202464.557,202478.9050000254,202481.183,213520.847,,,
trap_trial,html.Screen,2_2_1,2021-04-24T14:52:05.928Z,,,,,,,,,,,,,,,,,,,,,,,,,,,,true,1,,3692.9680000246153,,response,,,,,,,,,,,1,click #choice-1,,,,,,,,,217216.34500002256,217213.81500002462,213504.221,213510.46499999939,213520.847,217230.305,,,
end of trap trial,html.Page,2_2_2,2021-04-24T14:52:07.668Z,,,,,,,,,,,,,,,,,,,,,,,,,,,,,,,1726.2250000249478,,form submission,,,,,,,,,,,,,,,,,,,,,218956.8600000348,218956.53000002494,217213.679,217216.48500004085,217230.305,218959.409,,,
Trap 1,flow.Sequence,2_2,2021-04-24T14:52:07.668Z,,,,,,,,,,,,,,,,,,,,,,,,,,,,,,,16475.34700002495,,completion,,,,,,,,,,,,,,,,,,,,,218957.1200000355,218956.53000002494,202464.557,202478.86500001187,202481.183,218959.409,,,
Standby,html.Page,2_3_0,2021-04-24T14:52:15.653Z,,,,,,,,,,,,,,,,,,,,,,,,,,,,,,,7997.106,,timeout,,,,,,,,,,,,,,,,,,,,,226942.0500000124,226939.889,218942.783,218957.2749999934,218959.409,226956.515,,,
Holding screen,html.Screen,2_3_1_0_0,2021-04-24T14:52:22.653Z,,,,,,,,,,,,,,,,,,,,,,,,,,,,,,,7000.790999999997,,timeout,,,,,,,,,,,,,,,,,,,,,233941.9099999941,233940.68,226939.889,226942.26000003982,226956.515,233957.306,,,
screen,html.Screen,2_3_1_0_1_0,2021-04-24T14:52:23.512Z,,,,,,,,,,,,,,,,,51,,,,,,,,,,,,,,837.4940000323986,,response,,,,13,C,,,,,,Space,keypress(Space),,,,instrumental,,,,American -------- --- --- ---- --- --- ------ -- --------<br>---- --------- --- ------- ------------ ---------- ---------<br>--- ---------- ------- ---------- ------- -- -------- ----<br>---- --- ------ ----- ------ -- ---- --- ----- -- - -------<br>-------- -- --- --- -- ----- ----------- ----- -----------<br>---- --- ---------- --- ---- --- -- ----------,234800.92499998864,234794.8000000324,233940.68,233942.17500003288,233957.306,234805.232,,0,American
screen,html.Screen,2_3_1_0_1_1,2021-04-24T14:52:23.890Z,,,,,,,,,,,,,,,,,51,,,,,,,,,,,,,,365.7280000176688,,response,,,,13,C,,,,,,Space,keypress(Space),,,,instrumental,,,,-------- industry --- --- ---- --- --- ------ -- --------<br>---- --------- --- ------- ------------ ---------- ---------<br>--- ---------- ------- ---------- ------- -- -------- ----<br>---- --- ------ ----- ------ -- ---- --- ----- -- - -------<br>-------- -- --- --- -- ----- ----------- ----- -----------<br>---- --- ---------- --- ---- --- -- ----------,235178.9899999858,235170.96000001766,234788.606,234801.06500000693,234805.232,235187.63,,1,industry
screen,html.Screen,2_3_1_0_1_2,2021-04-24T14:52:24.214Z,,,,,,,,,,,,,,,,,51,,,,,,,,,,,,,,311.2500000282889,,response,,,,13,C,,,,,,Space,keypress(Space),,,,instrumental,,,,-------- -------- may --- ---- --- --- ------ -- --------<br>---- --------- --- ------- ------------ ---------- ---------<br>--- ---------- ------- ---------- ------- -- -------- ----<br>---- --- ------ ----- ------ -- ---- --- ----- -- - -------<br>-------- -- --- --- -- ----- ----------- ----- -----------<br>---- --- ---------- --- ---- --- -- ----------,235502.67000001622,235498.8800000283,235171.004,235179.13000000408,235187.63,235503.524,,2,may
screen,html.Screen,2_3_1_0_1_3,2021-04-24T14:52:24.578Z,,,,,,,,,,,,,,,,,51,,,,,,,,,,,,,,355.4560000190686,,response,,,,13,C,,,,,,Space,keypress(Space),,,,instrumental,,,,-------- -------- --- not ---- --- --- ------ -- --------<br>---- --------- --- ------- ------------ ---------- ---------<br>--- ---------- ------- ---------- ------- -- -------- ----<br>---- --- ------ ----- ------ -- ---- --- ----- -- - -------<br>-------- -- --- --- -- ----- ----------- ----- -----------<br>---- --- ---------- --- ---- --- -- ----------,235866.9949999894,235858.98000001907,235486.898,235502.78999999864,235503.524,235869.296,,3,not
screen,html.Screen,2_3_1_0_1_4,2021-04-24T14:52:24.902Z,,,,,,,,,,,,,,,,,51,,,,,,,,,,,,,,317.6640000209154,,response,,,,13,C,,,,,,Space,keypress(Space),,,,instrumental,,,,-------- -------- --- --- know --- --- ------ -- --------<br>---- --------- --- ------- ------------ ---------- ---------<br>--- ---------- ------- ---------- ------- -- -------- ----<br>---- --- ------ ----- ------ -- ---- --- ----- -- - -------<br>-------- -- --- --- -- ----- ----------- ----- -----------<br>---- --- ---------- --- ---- --- -- ----------,236191.44500000402,236186.96000002092,235852.67,235867.1350000077,235869.296,236201.816,,4,know
screen,html.Screen,2_3_1_0_1_5,2021-04-24T14:52:25.273Z,,,,,,,,,,,,,,,,,51,,,,,,,,,,,,,,353.18399999302346,,response,,,,13,C,,,,,,Space,keypress(Space),,,,instrumental,,,,"-------- -------- --- --- ---- it, --- ------ -- --------<br>---- --------- --- ------- ------------ ---------- ---------<br>--- ---------- ------- ---------- ------- -- -------- ----<br>---- --- ------ ----- ------ -- ---- --- ----- -- - -------<br>-------- -- --- --- -- ----- ----------- ----- -----------<br>---- --- ---------- --- ---- --- -- ----------",236562.024999992,236554.99999999302,236185.19,236191.59500004025,236201.816,236567.588,,5,"it,"
screen,html.Screen,2_3_1_0_1_6,2021-04-24T14:52:25.582Z,,,,,,,,,,,,,,,,,51,,,,,,,,,,,,,,299.37699999380857,,response,,,,13,C,,,,,,Space,keypress(Space),,,,instrumental,,,,-------- -------- --- --- ---- --- but ------ -- --------<br>---- --------- --- ------- ------------ ---------- ---------<br>--- ---------- ------- ---------- ------- -- -------- ----<br>---- --- ------ ----- ------ -- ---- --- ----- -- - -------<br>-------- -- --- --- -- ----- ----------- ----- -----------<br>---- --- ---------- --- ---- --- -- ----------,236870.70999998832,236866.9649999938,236550.962,236562.15499999234,236567.588,236883.482,,6,but
screen,html.Screen,2_3_1_0_1_7,2021-04-24T14:52:25.944Z,,,,,,,,,,,,,,,,,51,,,,,,,,,,,,,,343.3980000310985,,response,,,,13,C,,,,,,Space,keypress(Space),,,,instrumental,,,,-------- -------- --- --- ---- --- --- debate -- --------<br>---- --------- --- ------- ------------ ---------- ---------<br>--- ---------- ------- ---------- ------- -- -------- ----<br>---- --- ------ ----- ------ -- ---- --- ----- -- - -------<br>-------- -- --- --- -- ----- ----------- ----- -----------<br>---- --- ---------- --- ---- --- -- ----------,237233.47999999532,237226.8800000311,236866.856,236870.93999999342,236883.482,237249.254,,7,debate
screen,html.Screen,2_3_1_0_1_8,2021-04-24T14:52:26.317Z,,,,,,,,,,,,,,,,,51,,,,,,,,,,,,,,353.57100000904757,,response,,,,13,C,,,,,,Space,keypress(Space),,,,instrumental,,,,-------- -------- --- --- ---- --- --- ------ in --------<br>---- --------- --- ------- ------------ ---------- ---------<br>--- ---------- ------- ---------- ------- -- -------- ----<br>---- --- ------ ----- ------ -- ---- --- ----- -- - -------<br>-------- -- --- --- -- ----- ----------- ----- -----------<br>---- --- ---------- --- ---- --- -- ----------,237606.4999999944,237602.82500000903,237232.628,237233.61500003375,237249.254,237615.026,,8,in
screen,html.Screen,2_3_1_0_1_9,2021-04-24T14:52:26.672Z,,,,,,,,,,,,,,,,,51,,,,,,,,,,,,,,339.9740000162856,,response,,,,13,C,,,,,,Space,keypress(Space),,,,instrumental,,,,-------- -------- --- --- ---- --- --- ------ -- Congress<br>---- --------- --- ------- ------------ ---------- ---------<br>--- ---------- ------- ---------- ------- -- -------- ----<br>---- --- ------ ----- ------ -- ---- --- ----- -- - -------<br>-------- -- --- --- -- ----- ----------- ----- -----------<br>---- --- ---------- --- ---- --- -- ----------,237961.45000000251,237955.0000000163,237598.4,237606.6100000171,237615.026,237965.051,,9,Congress
screen,html.Screen,2_3_1_0_1_10,2021-04-24T14:52:27.062Z,,,,,,,,,,,,,,,,,51,,,,,,,,,,,,,,381.8890000176325,,response,,,,13,C,,,,,,Space,keypress(Space),,,,instrumental,,,,-------- -------- --- --- ---- --- --- ------ -- --------<br>over --------- --- ------- ------------ ---------- ---------<br>--- ---------- ------- ---------- ------- -- -------- ----<br>---- --- ------ ----- ------ -- ---- --- ----- -- - -------<br>-------- -- --- --- -- ----- ----------- ----- -----------<br>---- --- ---------- --- ---- --- -- ----------,238350.7700000191,238346.94000001764,237948.425,237961.57000004314,237965.051,238364.075,,10,over
screen,html.Screen,2_3_1_0_1_11,2021-04-24T14:52:27.400Z,,,,,,,,,,,,,,,,,51,,,,,,,,,,,,,,318.82999999419553,,response,,,,13,C,,,,,,Space,keypress(Space),,,,instrumental,,,,-------- -------- --- --- ---- --- --- ------ -- --------<br>---- reforming --- ------- ------------ ---------- ---------<br>--- ---------- ------- ---------- ------- -- -------- ----<br>---- --- ------ ----- ------ -- ---- --- ----- -- - -------<br>-------- -- --- --- -- ----- ----------- ----- -----------<br>---- --- ---------- --- ---- --- -- ----------,238689.20000002254,238682.9049999942,238347.449,238350.88500002166,238364.075,238696.595,,11,reforming
screen,html.Screen,2_3_1_0_1_12,2021-04-24T14:52:27.830Z,,,,,,,,,,,,,,,,,51,,,,,,,,,,,,,,418.30499998593586,,response,,,,13,C,,,,,,Space,keypress(Space),,,,instrumental,,,,-------- -------- --- --- ---- --- --- ------ -- --------<br>---- --------- the ------- ------------ ---------- ---------<br>--- ---------- ------- ---------- ------- -- -------- ----<br>---- --- ------ ----- ------ -- ---- --- ----- -- - -------<br>-------- -- --- --- -- ----- ----------- ----- -----------<br>---- --- ---------- --- ---- --- -- ----------,239118.77500003902,239114.89999998594,238679.969,238689.3150000251,238696.595,239128.871,,12,the
screen,html.Screen,2_3_1_0_1_13,2021-04-24T14:52:28.164Z,,,,,,,,,,,,,,,,,51,,,,,,,,,,,,,,314.093999994715,,response,,,,13,C,,,,,,Space,keypress(Space),,,,instrumental,,,,-------- -------- --- --- ---- --- --- ------ -- --------<br>---- --------- --- federal ------------ ---------- ---------<br>--- ---------- ------- ---------- ------- -- -------- ----<br>---- --- ------ ----- ------ -- ---- --- ----- -- - -------<br>-------- -- --- --- -- ----- ----------- ----- -----------<br>---- --- ---------- --- ---- --- -- ----------,239453.00500001758,239442.96499999473,239112.245,239118.89500002144,239128.871,239461.391,,13,federal
screen,html.Screen,2_3_1_0_1_14,2021-04-24T14:52:28.566Z,,,,,,,,,,,,,,,,,51,,,,,,,,,,,,,,389.4990000015241,,response,,,,13,C,,,,,,Space,keypress(Space),,,,instrumental,,,,-------- -------- --- --- ---- --- --- ------ -- --------<br>---- --------- --- ------- government's ---------- ---------<br>--- ---------- ------- ---------- ------- -- -------- ----<br>---- --- ------ ----- ------ -- ---- --- ----- -- - -------<br>-------- -- --- --- -- ----- ----------- ----- -----------<br>---- --- ---------- --- ---- --- -- ----------,239855.20500002895,239850.89000000153,239444.765,239453.1399999978,239461.391,239860.415,,14,government's
screen,html.Screen,2_3_1_0_1_15,2021-04-24T14:52:28.929Z,,,,,,,,,,,,,,,,,51,,,,,,,,,,,,,,350.4749999875494,,response,,,,13,C,,,,,,Space,keypress(Space),,,,instrumental,,,,-------- -------- --- --- ---- --- --- ------ -- --------<br>---- --------- --- ------- ------------ regulatory ---------<br>--- ---------- ------- ---------- ------- -- -------- ----<br>---- --- ------ ----- ------ -- ---- --- ----- -- - -------<br>-------- -- --- --- -- ----- ----------- ----- -----------<br>---- --- ---------- --- ---- --- -- ----------,240217.88000001106,240210.88999998756,239843.789,239855.32999999123,239860.415,240226.187,,15,regulatory
screen,html.Screen,2_3_1_0_1_16,2021-04-24T14:52:29.392Z,,,,,,,,,,,,,,,,,51,,,,,,,,,,,,,,448.7880000308214,,response,,,,13,C,,,,,,Space,keypress(Space),,,,instrumental,,,,-------- -------- --- --- ---- --- --- ------ -- --------<br>---- --------- --- ------- ------------ ---------- apparatus<br>--- ---------- ------- ---------- ------- -- -------- ----<br>---- --- ------ ----- ------ -- ---- --- ----- -- - -------<br>-------- -- --- --- -- ----- ----------- ----- -----------<br>---- --- ---------- --- ---- --- -- ----------,240680.64000003505,240674.97500003083,240209.561,240217.99999999348,240226.187,240691.715,,16,apparatus
screen,html.Screen,2_3_1_0_1_17,2021-04-24T14:52:29.752Z,,,,,,,,,,,,,,,,,51,,,,,,,,,,,,,,343.17000003004796,,response,,,,13,C,,,,,,Space,keypress(Space),,,,instrumental,,,,-------- -------- --- --- ---- --- --- ------ -- --------<br>---- --------- --- ------- ------------ ---------- ---------<br>may ---------- ------- ---------- ------- -- -------- ----<br>---- --- ------ ----- ------ -- ---- --- ----- -- - -------<br>-------- -- --- --- -- ----- ----------- ----- -----------<br>---- --- ---------- --- ---- --- -- ----------,241040.97999999067,241034.88500003004,240675.089,240680.7700000354,240691.715,241057.487,,17,may
screen,html.Screen,2_3_1_0_1_18,2021-04-24T14:52:30.126Z,,,,,,,,,,,,,,,,,51,,,,,,,,,,,,,,353.32800001019496,,response,,,,13,C,,,,,,Space,keypress(Space),,,,instrumental,,,,-------- -------- --- --- ---- --- --- ------ -- --------<br>---- --------- --- ------- ------------ ---------- ---------<br>--- profoundly ------- ---------- ------- -- -------- ----<br>---- --- ------ ----- ------ -- ---- --- ----- -- - -------<br>-------- -- --- --- -- ----- ----------- ----- -----------<br>---- --- ---------- --- ---- --- -- ----------,241415.00500001712,241410.8150000102,241040.861,241041.09499999322,241057.487,241423.259,,18,profoundly
screen,html.Screen,2_3_1_0_1_19,2021-04-24T14:52:30.464Z,,,,,,,,,,,,,,,,,51,,,,,,,,,,,,,,323.6310000094527,,response,,,,13,C,,,,,,Space,keypress(Space),,,,instrumental,,,,-------- -------- --- --- ---- --- --- ------ -- --------<br>---- --------- --- ------- ------------ ---------- ---------<br>--- ---------- improve ---------- ------- -- -------- ----<br>---- --- ------ ----- ------ -- ---- --- ----- -- - -------<br>-------- -- --- --- -- ----- ----------- ----- -----------<br>---- --- ---------- --- ---- --- -- ----------,241753.3350000158,241746.89000000944,241406.633,241415.13999999734,241423.259,241755.779,,19,improve
screen,html.Screen,2_3_1_0_1_20,2021-04-24T14:52:30.726Z,,,,,,,,,,,,,,,,,51,,,,,,,,,,,,,,255.08600001837476,,response,,,,13,C,,,,,,Space,keypress(Space),,,,instrumental,,,,-------- -------- --- --- ---- --- --- ------ -- --------<br>---- --------- --- ------- ------------ ---------- ---------<br>--- ---------- ------- companies' ------- -- -------- ----<br>---- --- ------ ----- ------ -- ---- --- ----- -- - -------<br>-------- -- --- --- -- ----- ----------- ----- -----------<br>---- --- ---------- --- ---- --- -- ----------,242015.00499999383,242010.86500001838,241739.153,241753.45000001835,241755.779,242021.795,,20,companies'
screen,html.Screen,2_3_1_0_1_21,2021-04-24T14:52:31.193Z,,,,,,,,,,,,,,,,,51,,,,,,,,,,,,,,453.05499999868334,,response,,,,13,C,,,,,,Space,keypress(Space),,,,instrumental,,,,-------- -------- --- --- ---- --- --- ------ -- --------<br>---- --------- --- ------- ------------ ---------- ---------<br>--- ---------- ------- ---------- ability -- -------- ----<br>---- --- ------ ----- ------ -- ---- --- ----- -- - -------<br>-------- -- --- --- -- ----- ----------- ----- -----------<br>---- --- ---------- --- ---- --- -- ----------,242482.1799999918,242474.8499999987,242005.169,242015.13000001432,242021.795,242487.323,,21,ability
screen,html.Screen,2_3_1_0_1_22,2021-04-24T14:52:31.597Z,,,,,,,,,,,,,,,,,51,,,,,,,,,,,,,,395.5520000102406,,response,,,,13,C,,,,,,Space,keypress(Space),,,,instrumental,,,,-------- -------- --- --- ---- --- --- ------ -- --------<br>---- --------- --- ------- ------------ ---------- ---------<br>--- ---------- ------- ---------- ------- to -------- ----<br>---- --- ------ ----- ------ -- ---- --- ----- -- - -------<br>-------- -- --- --- -- ----- ----------- ----- -----------<br>---- --- ---------- --- ---- --- -- ----------,242886.5700000315,242882.87500001024,242470.697,242482.30999999214,242487.323,242902.973,,22,to
screen,html.Screen,2_3_1_0_1_23,2021-04-24T14:52:31.969Z,,,,,,,,,,,,,,,,,51,,,,,,,,,,,,,,347.87200003140606,,response,,,,13,C,,,,,,Space,keypress(Space),,,,instrumental,,,,-------- -------- --- --- ---- --- --- ------ -- --------<br>---- --------- --- ------- ------------ ---------- ---------<br>--- ---------- ------- ---------- ------- -- survive. ----<br>---- --- ------ ----- ------ -- ---- --- ----- -- - -------<br>-------- -- --- --- -- ----- ----------- ----- -----------<br>---- --- ---------- --- ---- --- -- ----------,243257.85500003258,243250.8450000314,242886.347,242886.6900000139,242902.973,243268.745,,23,survive.
screen,html.Screen,2_3_1_0_1_24,2021-04-24T14:52:32.478Z,,,,,,,,,,,,,,,,,51,,,,,,,,,,,,,,494.17500000831205,,response,,,,13,C,,,,,,Space,keypress(Space),,,,instrumental,,,,-------- -------- --- --- ---- --- --- ------ -- --------<br>---- --------- --- ------- ------------ ---------- ---------<br>--- ---------- ------- ---------- ------- -- -------- This<br>---- --- ------ ----- ------ -- ---- --- ----- -- - -------<br>-------- -- --- --- -- ----- ----------- ----- -----------<br>---- --- ---------- --- ---- --- -- ----------,243767.40000001155,243762.9200000083,243252.119,243257.9900000128,243268.745,243784.151,,24,This
screen,html.Screen,2_3_1_0_1_25,2021-04-24T14:52:32.921Z,,,,,,,,,,,,,,,,,51,,,,,,,,,,,,,,418.6589999879361,,response,,,,13,C,,,,,,Space,keypress(Space),,,,instrumental,,,,-------- -------- --- --- ---- --- --- ------ -- --------<br>---- --------- --- ------- ------------ ---------- ---------<br>--- ---------- ------- ---------- ------- -- -------- ----<br>week --- ------ ----- ------ -- ---- --- ----- -- - -------<br>-------- -- --- --- -- ----- ----------- ----- -----------<br>---- --- ---------- --- ---- --- -- ----------,244210.22000000812,244202.80999998795,243767.525,243767.5300000119,243784.151,244216.427,,25,week
screen,html.Screen,2_3_1_0_1_26,2021-04-24T14:52:33.446Z,,,,,,,,,,,,,,,,,51,,,,,,,,,,,,,,514.4730000241252,,response,,,,13,C,,,,,,Space,keypress(Space),,,,instrumental,,,,-------- -------- --- --- ---- --- --- ------ -- --------<br>---- --------- --- ------- ------------ ---------- ---------<br>--- ---------- ------- ---------- ------- -- -------- ----<br>---- the ------ ----- ------ -- ---- --- ----- -- - -------<br>-------- -- --- --- -- ----- ----------- ----- -----------<br>---- --- ---------- --- ---- --- -- ----------,244735.59500003466,244730.90000002412,244199.801,244210.35499998834,244216.427,244748.459,,26,the
screen,html.Screen,2_3_1_0_1_27,2021-04-24T14:52:33.832Z,,,,,,,,,,,,,,,,,51,,,,,,,,,,,,,,366.3910000126634,,response,,,,13,C,,,,,,Space,keypress(Space),,,,instrumental,,,,-------- -------- --- --- ---- --- --- ------ -- --------<br>---- --------- --- ------- ------------ ---------- ---------<br>--- ---------- ------- ---------- ------- -- -------- ----<br>---- --- Senate ----- ------ -- ---- --- ----- -- - -------<br>-------- -- --- --- -- ----- ----------- ----- -----------<br>---- --- ---------- --- ---- --- -- ----------,245121.51999998605,245114.85000001267,244731.833,244735.74000003282,244748.459,245130.857,,27,Senate
screen,html.Screen,2_3_1_0_1_28,2021-04-24T14:52:34.349Z,,,,,,,,,,,,,,,,,51,,,,,,,,,,,,,,504.11300001372,,response,,,,13,C,,,,,,Space,keypress(Space),,,,instrumental,,,,-------- -------- --- --- ---- --- --- ------ -- --------<br>---- --------- --- ------- ------------ ---------- ---------<br>--- ---------- ------- ---------- ------- -- -------- ----<br>---- --- ------ seems ------ -- ---- --- ----- -- - -------<br>-------- -- --- --- -- ----- ----------- ----- -----------<br>---- --- ---------- --- ---- --- -- ----------,245638.6449999991,245634.9700000137,245114.231,245122.00000003213,245130.857,245646.263,,28,seems
screen,html.Screen,2_3_1_0_1_29,2021-04-24T14:52:34.729Z,,,,,,,,,,,,,,,,,51,,,,,,,,,,,,,,364.71200004106504,,response,,,,13,C,,,,,,Space,keypress(Space),,,,instrumental,,,,-------- -------- --- --- ---- --- --- ------ -- --------<br>---- --------- --- ------- ------------ ---------- ---------<br>--- ---------- ------- ---------- ------- -- -------- ----<br>---- --- ------ ----- poised -- ---- --- ----- -- - -------<br>-------- -- --- --- -- ----- ----------- ----- -----------<br>---- --- ---------- --- ---- --- -- ----------,246018.12500000233,246010.97500004107,245629.637,245638.9349999954,245646.263,246028.661,,29,poised
screen,html.Screen,2_3_1_0_1_30,2021-04-24T14:52:35.166Z,,,,,,,,,,,,,,,,,51,,,,,,,,,,,,,,422.2190000185219,,response,,,,13,C,,,,,,Space,keypress(Space),,,,instrumental,,,,-------- -------- --- --- ---- --- --- ------ -- --------<br>---- --------- --- ------- ------------ ---------- ---------<br>--- ---------- ------- ---------- ------- -- -------- ----<br>---- --- ------ ----- ------ to ---- --- ----- -- - -------<br>-------- -- --- --- -- ----- ----------- ----- -----------<br>---- --- ---------- --- ---- --- -- ----------,246454.79500002693,246450.88000001851,246012.035,246018.24500004295,246028.661,246460.937,,30,to
screen,html.Screen,2_3_1_0_1_31,2021-04-24T14:52:35.544Z,,,,,,,,,,,,,,,,,51,,,,,,,,,,,,,,365.92300003013224,,response,,,,13,C,,,,,,Space,keypress(Space),,,,instrumental,,,,-------- -------- --- --- ---- --- --- ------ -- --------<br>---- --------- --- ------- ------------ ---------- ---------<br>--- ---------- ------- ---------- ------- -- -------- ----<br>---- --- ------ ----- ------ -- join --- ----- -- - -------<br>-------- -- --- --- -- ----- ----------- ----- -----------<br>---- --- ---------- --- ---- --- -- ----------,246833.49500002805,246826.86000003014,246444.311,246454.96500004083,246460.937,246843.335,,31,join
screen,html.Screen,2_3_1_0_1_32,2021-04-24T14:52:35.918Z,,,,,,,,,,,,,,,,,51,,,,,,,,,,,,,,359.63500004212256,,response,,,,13,C,,,,,,Space,keypress(Space),,,,instrumental,,,,-------- -------- --- --- ---- --- --- ------ -- --------<br>---- --------- --- ------- ------------ ---------- ---------<br>--- ---------- ------- ---------- ------- -- -------- ----<br>---- --- ------ ----- ------ -- ---- the ----- -- - -------<br>-------- -- --- --- -- ----- ----------- ----- -----------<br>---- --- ---------- --- ---- --- -- ----------,247207.3500000406,247202.9700000421,246826.709,246833.6250000284,246843.335,247209.107,,32,the
screen,html.Screen,2_3_1_0_1_33,2021-04-24T14:52:36.321Z,,,,,,,,,,,,,,,,,51,,,,,,,,,,,,,,393.80300001599244,,response,,,,13,C,,,,,,Space,keypress(Space),,,,instrumental,,,,-------- -------- --- --- ---- --- --- ------ -- --------<br>---- --------- --- ------- ------------ ---------- ---------<br>--- ---------- ------- ---------- ------- -- -------- ----<br>---- --- ------ ----- ------ -- ---- --- House -- - -------<br>-------- -- --- --- -- ----- ----------- ----- -----------<br>---- --- ---------- --- ---- --- -- ----------,247610.35000003176,247602.91000001598,247192.481,247207.47000002302,247209.107,247624.757,,33,House
screen,html.Screen,2_3_1_0_1_34,2021-04-24T14:52:36.661Z,,,,,,,,,,,,,,,,,51,,,,,,,,,,,,,,322.2030000302184,,response,,,,13,C,,,,,,Space,keypress(Space),,,,instrumental,,,,-------- -------- --- --- ---- --- --- ------ -- --------<br>---- --------- --- ------- ------------ ---------- ---------<br>--- ---------- ------- ---------- ------- -- -------- ----<br>---- --- ------ ----- ------ -- ---- --- ----- in - -------<br>-------- -- --- --- -- ----- ----------- ----- -----------<br>---- --- ---------- --- ---- --- -- ----------,247950.70500002475,247946.96000003023,247608.131,247610.56500003906,247624.757,247957.277,,34,in
screen,html.Screen,2_3_1_0_1_35,2021-04-24T14:52:37.121Z,,,,,,,,,,,,,,,,,51,,,,,,,,,,,,,,445.6830000358168,,response,,,,13,C,,,,,,Space,keypress(Space),,,,instrumental,,,,-------- -------- --- --- ---- --- --- ------ -- --------<br>---- --------- --- ------- ------------ ---------- ---------<br>--- ---------- ------- ---------- ------- -- -------- ----<br>---- --- ------ ----- ------ -- ---- --- ----- -- a -------<br>-------- -- --- --- -- ----- ----------- ----- -----------<br>---- --- ---------- --- ---- --- -- ----------,248410.429999989,248402.96000003582,247940.651,247950.82500000717,247957.277,248423.738,,35,a
screen,html.Screen,2_3_1_0_1_36,2021-04-24T14:52:37.533Z,,,,,,,,,,,,,,,,,51,,,,,,,,,,,,,,395.15700003306847,,response,,,,13,C,,,,,,Space,keypress(Space),,,,instrumental,,,,-------- -------- --- --- ---- --- --- ------ -- --------<br>---- --------- --- ------- ------------ ---------- ---------<br>--- ---------- ------- ---------- ------- -- -------- ----<br>---- --- ------ ----- ------ -- ---- --- ----- -- - massive<br>-------- -- --- --- -- ----- ----------- ----- -----------<br>---- --- ---------- --- ---- --- -- ----------,248822.4700000137,248818.89500003308,248407.112,248410.55999998935,248423.738,248839.388,,36,massive
