sender,sender_type,sender_id,timestamp,meta,,Blues,Classical,Country,Dance,Electronic,Folk,Gospel,Hip-Hop,Jazz,Latin,Musical/Film,New-age,Pop,Prolific_id,Provo_ID,R&B,Rap,Reggae,Religious,Rock,Soul,Swing,Traditional,age,artist_name,correct,correctResponse,distraction,duration,education,ended_on,familiarity,gender,headphone_check_performance,item,list,music_frequency,offensiveness,pleasantness,position_correct,preference,response,response_action,snippet_file,song_name,song_rating,sound,stimulus_1,stimulus_2,stimulus_3,text,time_commit,time_end,time_render,time_run,time_show,time_switch,url,word,word_ID
Prolific ID,html.Form,0,2021-04-24T14:05:00.782Z,"{""labjs_version"":""20.2.2"",""labjs_build"":{""flavor"":""production"",""commit"":""a25486e0c714a0ae2ce03ff94b7bb6896854dcfa""},""location"":""https://run.pavlovia.org/mvasilev/prolific_music_b/"",""userAgent"":""Mozilla/5.0 (Windows NT 10.0; Win64; x64) AppleWebKit/537.36 (KHTML, like Gecko) Chrome/90.0.4430.85 Safari/537.36"",""platform"":""Win32"",""language"":""en-GB"",""locale"":""en-GB"",""timeZone"":""Europe/London"",""timezoneOffset"":-60,""screen_width"":1366,""screen_height"":768,""scroll_width"":1366,""scroll_height"":609,""window_innerWidth"":1366,""window_innerHeight"":657,""devicePixelRatio"":1}",,,,,,,,,,,,,,,5f01dbf0f5ef5d052ced1135,,,,,,,,,,,,,,,4013.9609999998866,,form submission,,,,,,,,,,,,,,,,,,,,,42351.79500000049,42350.954999999885,38303.662,31638.87000000068,38336.994,42604.673,{},,
Introduction,html.Screen,1_0,2021-04-24T14:05:05.576Z,,,,,,,,,,,,,,,,,,,,,,,,,,,,,,,4537.527000000227,,response,,,,,,,,,,,continue,click button,,,,,,,,,47146.404999999504,47142.20000000023,42338.017,42352.82999999981,42604.673,47222.159,,,
Volume calibration,html.Screen,1_1,2021-04-24T14:05:39.268Z,,,,,,,,,,,,,,,,,,,,,,,,,,,,,,,33610.311000001195,,response,,,,,,,,,,,continue,click button,,,,,,,,,80838.51500000128,80832.4700000012,47138.829,47146.79000000069,47222.159,80847.606,,,
Task instructions,html.Screen,1_2,2021-04-24T14:05:44.819Z,,,,,,,,,,,,,,,,,,,,,,,,,,,,,,,5539.224000001283,,response,,,,,,,,,,,continue,click button,,,,,,,,,86388.825,86386.83000000128,80830.94,80838.76500000042,80847.606,86398.898,,,
Sounds,html.Screen,1_3_0_0,2021-04-24T14:05:49.066Z,,,,,,,,,,,,,,,,,,,,,,,,,,,,,,,4250.332999999999,,timeout,,,,,,,,,3,,,,,,,,I,O,S,,90636.08999999997,90632.565,86382.232,86389.2250000008,86398.898,90649.231,,,
Judgement,html.Screen,1_3_0_1,2021-04-24T14:05:57.585Z,,,,,,,,,,,,,,,,,,,,,,,,,,,,true,3,,8504.029000000955,,response,,,,,,,,,3,,3,click #choice-3,,,,,I,O,S,,99154.8500000008,99153.26000000096,90632.565,90636.33000000118,90649.231,99168.805,,,
Trial,flow.Sequence,1_3_0,2021-04-24T14:05:57.589Z,,,,,,,,,,,,,,,,,,,,,,,,,,,,,,,12754.362000000954,,completion,,,,,,,,,3,,,,,,,,I,O,S,,99158.60500000053,99153.26000000096,86382.232,86389.14000000113,86398.898,99168.805,,,
Sounds,html.Screen,1_3_1_0,2021-04-24T14:06:01.835Z,,,,,,,,,,,,,,,,,,,,,,,,,,,,,,,4250.12000000001,,timeout,,,,,,,,,3,,,,,,,,O,I,S,,103404.84000000106,103402.259,99152.139,99158.98000000016,99168.805,103418.925,,,
Judgement,html.Screen,1_3_1_1,2021-04-24T14:06:03.213Z,,,,,,,,,,,,,,,,,,,,,,,,,,,,true,3,,1363.0300000003772,,response,,,,,,,,,3,,3,click #choice-3,,,,,O,I,S,,104783.41,104781.95500000038,103402.259,103405.22000000055,103418.925,104786.49,,,
Trial,flow.Sequence,1_3_1,2021-04-24T14:06:03.214Z,,,,,,,,,,,,,,,,,,,,,,,,,,,,,,,5613.150000000387,,completion,,,,,,,,,3,,,,,,,,O,I,S,,104783.73500000089,104781.95500000038,99152.139,99158.87500000099,99168.805,104786.49,,,
Sounds,html.Screen,1_3_2_0,2021-04-24T14:06:07.454Z,,,,,,,,,,,,,,,,,,,,,,,,,,,,,,,4250.307000000001,,timeout,,,,,,,,,1,,,,,,,,S,O,I,,109023.90000000014,109020.131,104769.824,104784.00499999952,104786.49,109036.797,,,
Judgement,html.Screen,1_3_2_1,2021-04-24T14:06:08.354Z,,,,,,,,,,,,,,,,,,,,,,,,,,,,true,1,,885.7130000003235,,response,,,,,,,,,1,,1,click #choice-1,,,,,S,O,I,,109924.11999999968,109922.51000000033,109020.131,109024.3100000007,109036.797,109938.125,,,
Trial,flow.Sequence,1_3_2,2021-04-24T14:06:08.354Z,,,,,,,,,,,,,,,,,,,,,,,,,,,,,,,5136.020000000324,,completion,,,,,,,,,1,,,,,,,,S,O,I,,109924.47999999968,109922.51000000033,104769.824,104783.9100000001,104786.49,109938.125,,,
Sounds,html.Screen,1_3_3_0,2021-04-24T14:06:12.603Z,,,,,,,,,,,,,,,,,,,,,,,,,,,,,,,4250.093999999997,,timeout,,,,,,,,,2,,,,,,,,I,S,O,,114173.45000000023,114171.553,109921.459,109924.75999999988,109938.125,114188.219,,,
Judgement,html.Screen,1_3_3_1,2021-04-24T14:06:13.212Z,,,,,,,,,,,,,,,,,,,,,,,,,,,,true,2,,592.8110000001034,,response,,,,,,,,,2,,2,click #choice-2,,,,,I,S,O,,114782.45500000048,114781.0300000001,114171.553,114173.62500000127,114188.219,114789.335,,,
Trial,flow.Sequence,1_3_3,2021-04-24T14:06:13.213Z,,,,,,,,,,,,,,,,,,,,,,,,,,,,,,,4842.905000000101,,completion,,,,,,,,,2,,,,,,,,I,S,O,,114782.82000000036,114781.0300000001,109921.459,109924.68499999995,109938.125,114789.335,,,
Sounds,html.Screen,1_3_4_0,2021-04-24T14:06:17.456Z,,,,,,,,,,,,,,,,,,,,,,,,,,,,,,,4249.9909999999945,,timeout,,,,,,,,,1,,,,,,,,S,I,O,,119025.56499999992,119022.66,114772.669,114783.04500000013,114789.335,119039.326,,,
Judgement,html.Screen,1_3_4_1,2021-04-24T14:06:18.109Z,,,,,,,,,,,,,,,,,,,,,,,,,,,,true,1,,637.8740000000835,,response,,,,,,,,,1,,1,click #choice-1,,,,,S,I,O,,119679.00000000009,119677.20000000008,119022.66,119026.34000000035,119039.326,119690.546,,,
Trial,flow.Sequence,1_3_4,2021-04-24T14:06:18.109Z,,,,,,,,,,,,,,,,,,,,,,,,,,,,,,,4887.865000000078,,completion,,,,,,,,,1,,,,,,,,S,I,O,,119679.27000000054,119677.20000000008,114772.669,114782.95500000058,114789.335,119690.546,,,
Sounds,html.Screen,1_3_5_0,2021-04-24T14:06:22.356Z,,,,,,,,,,,,,,,,,,,,,,,,,,,,,,,4250.051999999996,,timeout,,,,,,,,,2,,,,,,,,O,S,I,,123925.6349999996,123923.932,119673.88,119679.46500000107,119690.546,123940.598,,,
Judgement,html.Screen,1_3_5_1,2021-04-24T14:06:23.004Z,,,,,,,,,,,,,,,,,,,,,,,,,,,,true,2,,631.4169999997393,,response,,,,,,,,,2,,2,click #choice-2,,,,,O,S,I,,124573.69000000108,124572.01499999974,123923.932,123925.96500000036,123940.598,124591.707,,,
Trial,flow.Sequence,1_3_5,2021-04-24T14:06:23.004Z,,,,,,,,,,,,,,,,,,,,,,,,,,,,,,,4881.468999999735,,completion,,,,,,,,,2,,,,,,,,O,S,I,,124574.01500000014,124572.01499999974,119673.88,119679.40500000077,119690.546,124591.707,,,
Task,flow.Loop,1_3,2021-04-24T14:06:23.014Z,,,,,,,,,,,,,,,,,,,,,,,,,,,,,,,38173.11699999974,,completion,,,1,,,,,,,,,,,,,,,,,,124583.59000000019,124572.01499999974,86382.232,86389.04999999977,86398.898,124591.707,,,
Trap,html.Screen,1_4,2021-04-24T14:06:23.017Z,,,,,,,,,,,,,,,,,,,,,,,,,,,,,,,NaN,,skipped,,,,,,,,,,,,,,,,,,,,,124587.5100000012,124572.01499999974,,124587.06999999958,,124591.707,,,
Thanks,html.Screen,1_5,2021-04-24T14:06:27.164Z,,,,,,,,,,,,,,,,,,,,,,,,,,,,,,,4141.377999999851,,response,,,,,,,,,,,continue,click button,,,,,,,,,128734.52499999985,128733.08499999985,124558.375,124587.77999999984,124591.707,142763.091,,,
Headphone screening,flow.Sequence,1,2021-04-24T14:06:27.165Z,,,,,,,,,,,,,,,,,,,,,,,,,,,,,,,86128.41199999984,,completion,,,,,,,,,,,,,,,,,,,,,128734.8149999998,128733.08499999985,42338.017,42352.74500000014,42604.673,142763.091,,,
Instructions,html.Page,2_0,2021-04-24T14:08:04.373Z,,,,,,,,,,,,,,,,,,,,,,,,,,,,,,,83180.14900000053,,form submission,,,,,,,,,,,,,,,,,,,,,225943.5649999996,225943.24000000051,142479.368,142763.06000000113,142763.091,225950.442,,,
Holding screen,html.Screen,2_1_0_0,2021-04-24T14:08:14.367Z,,,,,,,,,,,,,,,,,,,,,,,,,,,,,,,10135.599999999977,,timeout,,,,,,,,,,,,,,,,,,,,,235937.7999999997,235936.048,225933.776,225943.8650000011,225950.442,236086.042,,,
screen,html.Screen,2_1_0_1_0,2021-04-24T14:08:15.622Z,,,,,,,,,,,,,,,,,53,,,,,,,,,,,,,,1099.302999999869,,response,,,,99,,,,,,,Space,keypress(Space),,,,,,,,When -- ----- -- ------ - ------- --- ----------<br>------------- ------ ------ ---- ---- ------- ----- -- ----<br>-------- ------- -- ---------- --- - --- ----- ----- ----<br>---- --- --- ----- --- ---- ---- ------- ----- ---- -------<br>--- --- -- ----- -- --- ---- -- --- ---- -- ------ ------<br>--- ----- -- ----,237192.51500000065,237185.34499999986,235936.048,235938.325000001,236086.042,237202.921,,0,When
screen,html.Screen,2_1_0_1_1,2021-04-24T14:08:16.336Z,,,,,,,,,,,,,,,,,53,,,,,,,,,,,,,,701.8690000005008,,response,,,,99,,,,,,,Space,keypress(Space),,,,,,,,---- it ----- -- ------ - ------- --- ----------<br>------------- ------ ------ ---- ---- ------- ----- -- ----<br>-------- ------- -- ---------- --- - --- ----- ----- ----<br>---- --- --- ----- --- ---- ---- ------- ----- ---- -------<br>--- --- -- ----- -- --- ---- -- --- ---- -- ------ ------<br>--- ----- -- ----,237906.95500000037,237904.7900000005,237186.255,237192.93500000093,237202.921,237919.854,,1,it
screen,html.Screen,2_1_0_1_2,2021-04-24T14:08:16.881Z,,,,,,,,,,,,,,,,,53,,,,,,,,,,,,,,528.9860000009357,,response,,,,99,,,,,,,Space,keypress(Space),,,,,,,,---- -- comes -- ------ - ------- --- ----------<br>------------- ------ ------ ---- ---- ------- ----- -- ----<br>-------- ------- -- ---------- --- - --- ----- ----- ----<br>---- --- --- ----- --- ---- ---- ------- ----- ---- -------<br>--- --- -- ----- -- --- ---- -- --- ---- -- ------ ------<br>--- ----- -- ----,238451.11499999985,238448.84000000093,237903.188,237907.31500000038,237919.854,238453.338,,2,comes
screen,html.Screen,2_1_0_1_3,2021-04-24T14:08:17.409Z,,,,,,,,,,,,,,,,,53,,,,,,,,,,,,,,523.5669999995444,,response,,,,99,,,,,,,Space,keypress(Space),,,,,,,,---- -- ----- to ------ - ------- --- ----------<br>------------- ------ ------ ---- ---- ------- ----- -- ----<br>-------- ------- -- ---------- --- - --- ----- ----- ----<br>---- --- --- ----- --- ---- ---- ------- ----- ---- -------<br>--- --- -- ----- -- --- ---- -- --- ---- -- ------ ------<br>--- ----- -- ----,238979.1349999996,238976.90499999953,238436.672,238451.47999999972,238453.338,238987.005,,3,to
screen,html.Screen,2_1_0_1_4,2021-04-24T14:08:17.921Z,,,,,,,,,,,,,,,,,53,,,,,,,,,,,,,,501.8900000004214,,response,,,,99,,,,,,,Space,keypress(Space),,,,,,,,---- -- ----- -- having - ------- --- ----------<br>------------- ------ ------ ---- ---- ------- ----- -- ----<br>-------- ------- -- ---------- --- - --- ----- ----- ----<br>---- --- --- ----- --- ---- ---- ------- ----- ---- -------<br>--- --- -- ----- -- --- ---- -- --- ---- -- ------ ------<br>--- ----- -- ----,239491.08499999967,239488.89500000043,238970.339,238979.4899999997,238987.005,239503.916,,4,having
screen,html.Screen,2_1_0_1_5,2021-04-24T14:08:18.465Z,,,,,,,,,,,,,,,,,53,,,,,,,,,,,,,,528.9939999999187,,response,,,,99,,,,,,,Space,keypress(Space),,,,,,,,---- -- ----- -- ------ a ------- --- ----------<br>------------- ------ ------ ---- ---- ------- ----- -- ----<br>-------- ------- -- ---------- --- - --- ----- ----- ----<br>---- --- --- ----- --- ---- ---- ------- ----- ---- -------<br>--- --- -- ----- -- --- ---- -- --- ---- -- ------ ------<br>--- ----- -- ----,240035.06500000003,240032.90999999992,239487.25,239491.4600000011,239503.916,240037.373,,5,a
screen,html.Screen,2_1_0_1_6,2021-04-24T14:08:18.977Z,,,,,,,,,,,,,,,,,53,,,,,,,,,,,,,,507.5170000010403,,response,,,,99,,,,,,,Space,keypress(Space),,,,,,,,---- -- ----- -- ------ - lasting --- ----------<br>------------- ------ ------ ---- ---- ------- ----- -- ----<br>-------- ------- -- ---------- --- - --- ----- ----- ----<br>---- --- --- ----- --- ---- ---- ------- ----- ---- -------<br>--- --- -- ----- -- --- ---- -- --- ---- -- ------ ------<br>--- ----- -- ----,240547.07000000053,240544.89000000103,240020.707,240035.42000000016,240037.373,240554.045,,6,lasting
screen,html.Screen,2_1_0_1_7,2021-04-24T14:08:19.408Z,,,,,,,,,,,,,,,,,53,,,,,,,,,,,,,,422.6550000010466,,response,,,,99,,,,,,,Space,keypress(Space),,,,,,,,---- -- ----- -- ------ - ------- and ----------<br>------------- ------ ------ ---- ---- ------- ----- -- ----<br>-------- ------- -- ---------- --- - --- ----- ----- ----<br>---- --- --- ----- --- ---- ---- ------- ----- ---- -------<br>--- --- -- ----- -- --- ---- -- --- ---- -- ------ ------<br>--- ----- -- ----,240978.90000000008,240976.70000000106,240537.379,240547.42500000066,240554.045,240987.586,,7,and
screen,html.Screen,2_1_0_1_8,2021-04-24T14:08:19.921Z,,,,,,,,,,,,,,,,,53,,,,,,,,,,,,,,501.3740000005928,,response,,,,99,,,,,,,Space,keypress(Space),,,,,,,,---- -- ----- -- ------ - ------- --- fulfilling<br>------------- ------ ------ ---- ---- ------- ----- -- ----<br>-------- ------- -- ---------- --- - --- ----- ----- ----<br>---- --- --- ----- --- ---- ---- ------- ----- ---- -------<br>--- --- -- ----- -- --- ---- -- --- ---- -- ------ ------<br>--- ----- -- ----,241491.2000000004,241488.9600000006,240970.92,240979.24500000046,240987.586,241504.27,,8,fulfilling
screen,html.Screen,2_1_0_1_9,2021-04-24T14:08:21.441Z,,,,,,,,,,,,,,,,,53,,,,,,,,,,,,,,1504.6400000004796,,response,,,,99,,,,,,,Space,keypress(Space),,,,,,,,"---- -- ----- -- ------ - ------- --- ----------<br>relationship, ------ ------ ---- ---- ------- ----- -- ----<br>-------- ------- -- ---------- --- - --- ----- ----- ----<br>---- --- --- ----- --- ---- ---- ------- ----- ---- -------<br>--- --- -- ----- -- --- ---- -- --- ---- -- ------ ------<br>--- ----- -- ----",243011.07000000047,243008.91000000047,241487.604,241491.5600000004,241504.27,243021.142,,9,"relationship,"
screen,html.Screen,2_1_0_1_10,2021-04-24T14:08:21.873Z,,,,,,,,,,,,,,,,,53,,,,,,,,,,,,,,419.8080000001646,,response,,,,99,,,,,,,Space,keypress(Space),,,,,,,,---- -- ----- -- ------ - ------- --- ----------<br>------------- common ------ ---- ---- ------- ----- -- ----<br>-------- ------- -- ---------- --- - --- ----- ----- ----<br>---- --- --- ----- --- ---- ---- ------- ----- ---- -------<br>--- --- -- ----- -- --- ---- -- --- ---- -- ------ ------<br>--- ----- -- ----,243443.17500000034,243440.95000000016,243004.476,243011.44000000024,243021.142,243454.517,,10,common
screen,html.Screen,2_1_0_1_11,2021-04-24T14:08:22.208Z,,,,,,,,,,,,,,,,,53,,,,,,,,,,,,,,322.33800000007614,,response,,,,99,,,,,,,Space,keypress(Space),,,,,,,,---- -- ----- -- ------ - ------- --- ----------<br>------------- ------ wisdom ---- ---- ------- ----- -- ----<br>-------- ------- -- ---------- --- - --- ----- ----- ----<br>---- --- --- ----- --- ---- ---- ------- ----- ---- -------<br>--- --- -- ----- -- --- ---- -- --- ---- -- ------ ------<br>--- ----- -- ----,243778.60499999952,243776.85500000007,243437.851,243443.51000000097,243454.517,243788.447,,11,wisdom
screen,html.Screen,2_1_0_1_12,2021-04-24T14:08:22.577Z,,,,,,,,,,,,,,,,,53,,,,,,,,,,,,,,356.47800000052666,,response,,,,99,,,,,,,Space,keypress(Space),,,,,,,,---- -- ----- -- ------ - ------- --- ----------<br>------------- ------ ------ says ---- ------- ----- -- ----<br>-------- ------- -- ---------- --- - --- ----- ----- ----<br>---- --- --- ----- --- ---- ---- ------- ----- ---- -------<br>--- --- -- ----- -- --- ---- -- --- ---- -- ------ ------<br>--- ----- -- ----,244147.13500000106,244144.9250000005,243771.781,243778.945,243788.447,244155.113,,12,says
screen,html.Screen,2_1_0_1_13,2021-04-24T14:08:22.880Z,,,,,,,,,,,,,,,,,53,,,,,,,,,,,,,,293.6670000005979,,response,,,,99,,,,,,,Space,keypress(Space),,,,,,,,---- -- ----- -- ------ - ------- --- ----------<br>------------- ------ ------ ---- that ------- ----- -- ----<br>-------- ------- -- ---------- --- - --- ----- ----- ----<br>---- --- --- ----- --- ---- ---- ------- ----- ---- -------<br>--- --- -- ----- -- --- ---- -- --- ---- -- ------ ------<br>--- ----- -- ----,244450.44000000053,244448.7800000006,244138.447,244147.46500000003,244155.113,244455.13,,13,that
screen,html.Screen,2_1_0_1_14,2021-04-24T14:08:23.135Z,,,,,,,,,,,,,,,,,53,,,,,,,,,,,,,,249.44499999974505,,response,,,,99,,,,,,,Space,keypress(Space),,,,,,,,---- -- ----- -- ------ - ------- --- ----------<br>------------- ------ ------ ---- ---- feeling ----- -- ----<br>-------- ------- -- ---------- --- - --- ----- ----- ----<br>---- --- --- ----- --- ---- ---- ------- ----- ---- -------<br>--- --- -- ----- -- --- ---- -- --- ---- -- ------ ------<br>--- ----- -- ----,244705.89500000095,244704.57499999975,244438.464,244450.7900000008,244455.13,244721.9,,14,feeling
screen,html.Screen,2_1_0_1_15,2021-04-24T14:08:23.359Z,,,,,,,,,,,,,,,,,53,,,,,,,,,,,,,,206.13000000096508,,response,,,,99,,,,,,,Space,keypress(Space),,,,,,,,---- -- ----- -- ------ - ------- --- ----------<br>------------- ------ ------ ---- ---- ------- close -- ----<br>-------- ------- -- ---------- --- - --- ----- ----- ----<br>---- --- --- ----- --- ---- ---- ------- ----- ---- -------<br>--- --- -- ----- -- --- ---- -- --- ---- -- ------ ------<br>--- ----- -- ----,244929.14500000008,244928.03000000096,244705.234,244706.26000000082,244721.9,244938.76,,15,close
screen,html.Screen,2_1_0_1_16,2021-04-24T14:08:23.857Z,,,,,,,,,,,,,,,,,53,,,,,,,,,,,,,,486.144999999844,,response,,,,99,,,,,,,Space,keypress(Space),,,,,,,,---- -- ----- -- ------ - ------- --- ----------<br>------------- ------ ------ ---- ---- ------- ----- to ----<br>-------- ------- -- ---------- --- - --- ----- ----- ----<br>---- --- --- ----- --- ---- ---- ------- ----- ---- -------<br>--- --- -- ----- -- --- ---- -- --- ---- -- ------ ------<br>--- ----- -- ----,245427.06999999972,245424.90499999985,244922.094,244929.3550000002,244938.76,245438.659,,16,to
screen,html.Screen,2_1_0_1_17,2021-04-24T14:08:24.433Z,,,,,,,,,,,,,,,,,53,,,,,,,,,,,,,,562.2510000006587,,response,,,,99,,,,,,,Space,keypress(Space),,,,,,,,---- -- ----- -- ------ - ------- --- ----------<br>------------- ------ ------ ---- ---- ------- ----- -- your<br>-------- ------- -- ---------- --- - --- ----- ----- ----<br>---- --- --- ----- --- ---- ---- ------- ----- ---- -------<br>--- --- -- ----- -- --- ---- -- --- ---- -- ------ ------<br>--- ----- -- ----,246003.09999999992,246000.91000000067,245421.993,245427.42999999973,245438.659,246005.475,,17,your
screen,html.Screen,2_1_0_1_18,2021-04-24T14:08:24.929Z,,,,,,,,,,,,,,,,,53,,,,,,,,,,,,,,491.42500000007567,,response,,,,99,,,,,,,Space,keypress(Space),,,,,,,,---- -- ----- -- ------ - ------- --- ----------<br>------------- ------ ------ ---- ---- ------- ----- -- ----<br>romantic ------- -- ---------- --- - --- ----- ----- ----<br>---- --- --- ----- --- ---- ---- ------- ----- ---- -------<br>--- --- -- ----- -- --- ---- -- --- ---- -- ------ ------<br>--- ----- -- ----,246499.1050000008,246496.90000000008,245988.809,246003.4649999998,246005.475,246505.735,,18,romantic
screen,html.Screen,2_1_0_1_19,2021-04-24T14:08:25.361Z,,,,,,,,,,,,,,,,,53,,,,,,,,,,,,,,423.1700000006822,,response,,,,99,,,,,,,Space,keypress(Space),,,,,,,,---- -- ----- -- ------ - ------- --- ----------<br>------------- ------ ------ ---- ---- ------- ----- -- ----<br>-------- partner -- ---------- --- - --- ----- ----- ----<br>---- --- --- ----- --- ---- ---- ------- ----- ---- -------<br>--- --- -- ----- -- --- ---- -- --- ---- -- ------ ------<br>--- ----- -- ----,246931.08500000017,246928.90500000067,246489.069,246499.4600000009,246505.735,246939.085,,19,partner
screen,html.Screen,2_1_0_1_20,2021-04-24T14:08:25.793Z,,,,,,,,,,,,,,,,,53,,,,,,,,,,,,,,422.2900000004156,,response,,,,99,,,,,,,Space,keypress(Space),,,,,,,,---- -- ----- -- ------ - ------- --- ----------<br>------------- ------ ------ ---- ---- ------- ----- -- ----<br>-------- ------- is ---------- --- - --- ----- ----- ----<br>---- --- --- ----- --- ---- ---- ------- ----- ---- -------<br>--- --- -- ----- -- --- ---- -- --- ---- -- ------ ------<br>--- ----- -- ----,247363.54000000027,247361.3750000004,246922.419,246931.45000000004,246939.085,247372.543,,20,is
screen,html.Screen,2_1_0_1_21,2021-04-24T14:08:26.240Z,,,,,,,,,,,,,,,,,53,,,,,,,,,,,,,,436.0620000001509,,response,,,,99,,,,,,,Space,keypress(Space),,,,,,,,---- -- ----- -- ------ - ------- --- ----------<br>------------- ------ ------ ---- ---- ------- ----- -- ----<br>-------- ------- -- paramount. --- - --- ----- ----- ----<br>---- --- --- ----- --- ---- ---- ------- ----- ---- -------<br>--- --- -- ----- -- --- ---- -- --- ---- -- ------ ------<br>--- ----- -- ----,247810.00500000117,247808.60500000016,247355.877,247363.8800000008,247372.543,247822.458,,21,paramount.
screen,html.Screen,2_1_0_1_22,2021-04-24T14:08:27.791Z,,,,,,,,,,,,,,,,,53,,,,,,,,,,,,,,1538.2570000007108,,response,,,,99,,,,,,,Space,keypress(Space),,,,,,,,---- -- ----- -- ------ - ------- --- ----------<br>------------- ------ ------ ---- ---- ------- ----- -- ----<br>-------- ------- -- ---------- But - --- ----- ----- ----<br>---- --- --- ----- --- ---- ---- ------- ----- ---- -------<br>--- --- -- ----- -- --- ---- -- --- ---- -- ------ ------<br>--- ----- -- ----,249361.80500000046,249360.71500000072,247805.792,247810.37500000093,247822.458,249372.729,,22,But
screen,html.Screen,2_1_0_1_23,2021-04-24T14:08:28.447Z,,,,,,,,,,,,,,,,,53,,,,,,,,,,,,,,643.3960000001243,,response,,,,99,,,,,,,Space,keypress(Space),,,,,,,,---- -- ----- -- ------ - ------- --- ----------<br>------------- ------ ------ ---- ---- ------- ----- -- ----<br>-------- ------- -- ---------- --- a --- ----- ----- ----<br>---- --- --- ----- --- ---- ---- ------- ----- ---- -------<br>--- --- -- ----- -- --- ---- -- --- ---- -- ------ ------<br>--- ----- -- ----,250017.30500000122,250016.12500000012,249356.063,249362.02500000037,249372.729,250022.743,,23,a
screen,html.Screen,2_1_0_1_24,2021-04-24T14:08:29.104Z,,,,,,,,,,,,,,,,,53,,,,,,,,,,,,,,650.037000000797,,response,,,,99,,,,,,,Space,keypress(Space),,,,,,,,---- -- ----- -- ------ - ------- --- ----------<br>------------- ------ ------ ---- ---- ------- ----- -- ----<br>-------- ------- -- ---------- --- - new ----- ----- ----<br>---- --- --- ----- --- ---- ---- ------- ----- ---- -------<br>--- --- -- ----- -- --- ---- -- --- ---- -- ------ ------<br>--- ----- -- ----,250674.40999999963,250672.78000000078,250006.077,250017.52000000124,250022.743,250689.841,,24,new
screen,html.Screen,2_1_0_1_25,2021-04-24T14:08:30.352Z,,,,,,,,,,,,,,,,,53,,,,,,,,,,,,,,1230.953999999998,,response,,,,99,,,,,,,Space,keypress(Space),,,,,,,,---- -- ----- -- ------ - ------- --- ----------<br>------------- ------ ------ ---- ---- ------- ----- -- ----<br>-------- ------- -- ---------- --- - --- study ----- ----<br>---- --- --- ----- --- ---- ---- ------- ----- ---- -------<br>--- --- -- ----- -- --- ---- -- --- ---- -- ------ ------<br>--- ----- -- ----,251922.98500000106,251920.79499999998,250673.175,250674.75000000012,250689.841,251939.975,,25,study
screen,html.Screen,2_1_0_1_26,2021-04-24T14:08:31.025Z,,,,,,,,,,,,,,,,,53,,,,,,,,,,,,,,653.4199999998673,,response,,,,99,,,,,,,Space,keypress(Space),,,,,,,,---- -- ----- -- ------ - ------- --- ----------<br>------------- ------ ------ ---- ---- ------- ----- -- ----<br>-------- ------- -- ---------- --- - --- ----- finds ----<br>---- --- --- ----- --- ---- ---- ------- ----- ---- -------<br>--- --- -- ----- -- --- ---- -- --- ---- -- ------ ------<br>--- ----- -- ----,252595.25500000018,252593.39499999987,251923.309,251923.3400000012,251939.975,252606.799,,26,finds
screen,html.Screen,2_1_0_1_27,2021-04-24T14:08:31.633Z,,,,,,,,,,,,,,,,,53,,,,,,,,,,,,,,594.1410000006435,,response,,,,99,,,,,,,Space,keypress(Space),,,,,,,,---- -- ----- -- ------ - ------- --- ----------<br>------------- ------ ------ ---- ---- ------- ----- -- ----<br>-------- ------- -- ---------- --- - --- ----- ----- that<br>---- --- --- ----- --- ---- ---- ------- ----- ---- -------<br>--- --- -- ----- -- --- ---- -- --- ---- -- ------ ------<br>--- ----- -- ----,253203.52000000095,253200.94000000064,252590.133,252595.68500000023,252606.799,253207.179,,27,that
screen,html.Screen,2_1_0_1_28,2021-04-24T14:08:32.945Z,,,,,,,,,,,,,,,,,53,,,,,,,,,,,,,,1305.7560000006342,,response,,,,99,,,,,,,Space,keypress(Space),,,,,,,,---- -- ----- -- ------ - ------- --- ----------<br>------------- ------ ------ ---- ---- ------- ----- -- ----<br>-------- ------- -- ---------- --- - --- ----- ----- ----<br>it's --- --- ----- --- ---- ---- ------- ----- ---- -------<br>--- --- -- ----- -- --- ---- -- --- ---- -- ------ ------<br>--- ----- -- ----,254515.09000000078,254512.93500000064,253190.513,253203.84999999986,253207.179,254524.073,,28,it's
screen,html.Screen,2_1_0_1_29,2021-04-24T14:08:33.599Z,,,,,,,,,,,,,,,,,53,,,,,,,,,,,,,,644.2169999996258,,response,,,,99,,,,,,,Space,keypress(Space),,,,,,,,---- -- ----- -- ------ - ------- --- ----------<br>------------- ------ ------ ---- ---- ------- ----- -- ----<br>-------- ------- -- ---------- --- - --- ----- ----- ----<br>---- not --- ----- --- ---- ---- ------- ----- ---- -------<br>--- --- -- ----- -- --- ---- -- --- ---- -- ------ ------<br>--- ----- -- ----,255169.2550000007,255168.28999999963,254507.407,254515.44000000105,254524.073,255174.244,,29,not
screen,html.Screen,2_1_0_1_30,2021-04-24T14:08:34.096Z,,,,,,,,,,,,,,,,,53,,,,,,,,,,,,,,490.5360000009532,,response,,,,99,,,,,,,Space,keypress(Space),,,,,,,,---- -- ----- -- ------ - ------- --- ----------<br>------------- ------ ------ ---- ---- ------- ----- -- ----<br>-------- ------- -- ---------- --- - --- ----- ----- ----<br>---- --- how ----- --- ---- ---- ------- ----- ---- -------<br>--- --- -- ----- -- --- ---- -- --- ---- -- ------ ------<br>--- ----- -- ----,255666.42500000127,255664.78000000096,255157.578,255169.4349999998,255174.244,255674.545,,30,how
screen,html.Screen,2_1_0_1_31,2021-04-24T14:08:34.529Z,,,,,,,,,,,,,,,,,53,,,,,,,,,,,,,,422.37000000008265,,response,,,,99,,,,,,,Space,keypress(Space),,,,,,,,---- -- ----- -- ------ - ------- --- ----------<br>------------- ------ ------ ---- ---- ------- ----- -- ----<br>-------- ------- -- ---------- --- - --- ----- ----- ----<br>---- --- --- close --- ---- ---- ------- ----- ---- -------<br>--- --- -- ----- -- --- ---- -- --- ---- -- ------ ------<br>--- ----- -- ----,256099.14000000025,256096.9150000001,255657.879,255666.76000000007,255674.545,256108.042,,31,close
screen,html.Screen,2_1_0_1_32,2021-04-24T14:08:34.832Z,,,,,,,,,,,,,,,,,53,,,,,,,,,,,,,,292.7830000006361,,response,,,,99,,,,,,,Space,keypress(Space),,,,,,,,---- -- ----- -- ------ - ------- --- ----------<br>------------- ------ ------ ---- ---- ------- ----- -- ----<br>-------- ------- -- ---------- --- - --- ----- ----- ----<br>---- --- --- ----- you ---- ---- ------- ----- ---- -------<br>--- --- -- ----- -- --- ---- -- --- ---- -- ------ ------<br>--- ----- -- ----,256402.8049999997,256400.82500000062,256091.376,256099.4950000004,256108.042,256408.087,,32,you
screen,html.Screen,2_1_0_1_33,2021-04-24T14:08:35.201Z,,,,,,,,,,,,,,,,,53,,,,,,,,,,,,,,360.8280000005616,,response,,,,99,,,,,,,Space,keypress(Space),,,,,,,,---- -- ----- -- ------ - ------- --- ----------<br>------------- ------ ------ ---- ---- ------- ----- -- ----<br>-------- ------- -- ---------- --- - --- ----- ----- ----<br>---- --- --- ----- --- feel ---- ------- ----- ---- -------<br>--- --- -- ----- -- --- ---- -- --- ---- -- ------ ------<br>--- ----- -- ----,256771.0700000007,256768.91500000056,256391.421,256403.29500000007,256408.087,256775.019,,33,feel
screen,html.Screen,2_1_0_1_34,2021-04-24T14:08:35.505Z,,,,,,,,,,,,,,,,,53,,,,,,,,,,,,,,297.6810000006226,,response,,,,99,,,,,,,Space,keypress(Space),,,,,,,,---- -- ----- -- ------ - ------- --- ----------<br>------------- ------ ------ ---- ---- ------- ----- -- ----<br>-------- ------- -- ---------- --- - --- ----- ----- ----<br>---- --- --- ----- --- ---- that ------- ----- ---- -------<br>--- --- -- ----- -- --- ---- -- --- ---- -- ------ ------<br>--- ----- -- ----,257075.12500000122,257072.70000000062,256758.353,256771.4300000007,256775.019,257091.605,,34,that
screen,html.Screen,2_1_0_1_35,2021-04-24T14:08:35.825Z,,,,,,,,,,,,,,,,,53,,,,,,,,,,,,,,301.735000000539,,response,,,,99,,,,,,,Space,keypress(Space),,,,,,,,---- -- ----- -- ------ - ------- --- ----------<br>------------- ------ ------ ---- ---- ------- ----- -- ----<br>-------- ------- -- ---------- --- - --- ----- ----- ----<br>---- --- --- ----- --- ---- ---- matters ----- ---- -------<br>--- --- -- ----- -- --- ---- -- --- ---- -- ------ ------<br>--- ----- -- ----,257395.5100000003,257393.34000000055,257074.939,257075.4649999999,257091.605,257408.354,,35,matters
screen,html.Screen,2_1_0_1_36,2021-04-24T14:08:36.128Z,,,,,,,,,,,,,,,,,53,,,,,,,,,,,,,,288.44599999970524,,response,,,,99,,,,,,,Space,keypress(Space),,,,,,,,"---- -- ----- -- ------ - ------- --- ----------<br>------------- ------ ------ ---- ---- ------- ----- -- ----<br>-------- ------- -- ---------- --- - --- ----- ----- ----<br>---- --- --- ----- --- ---- ---- ------- most, ---- -------<br>--- --- -- ----- -- --- ---- -- --- ---- -- ------ ------<br>--- ----- -- ----",257698.83000000118,257696.7999999997,257391.688,257397.5650000011,257408.354,257708.443,,36,"most,"
screen,html.Screen,2_1_0_1_37,2021-04-24T14:08:36.641Z,,,,,,,,,,,,,,,,,53,,,,,,,,,,,,,,500.5120000000752,,response,,,,99,,,,,,,Space,keypress(Space),,,,,,,,---- -- ----- -- ------ - ------- --- ----------<br>------------- ------ ------ ---- ---- ------- ----- -- ----<br>-------- ------- -- ---------- --- - --- ----- ----- ----<br>---- --- --- ----- --- ---- ---- ------- ----- it's -------<br>--- --- -- ----- -- --- ---- -- --- ---- -- ------ ------<br>--- ----- -- ----,258211.08500000084,258208.95500000007,257691.777,257699.26000000123,257708.443,258225.298,,37,it's
screen,html.Screen,2_1_0_1_38,2021-04-24T14:08:37.073Z,,,,,,,,,,,,,,,,,53,,,,,,,,,,,,,,415.61699999994016,,response,,,,99,,,,,,,Space,keypress(Space),,,,,,,,---- -- ----- -- ------ - ------- --- ----------<br>------------- ------ ------ ---- ---- ------- ----- -- ----<br>-------- ------- -- ---------- --- - --- ----- ----- ----<br>---- --- --- ----- --- ---- ---- ------- ----- ---- whether<br>--- --- -- ----- -- --- ---- -- --- ---- -- ------ ------<br>--- ----- -- ----,258643.1850000008,258640.91499999995,258208.632,258211.41499999975,258225.298,258658.692,,38,whether
screen,html.Screen,2_1_0_1_39,2021-04-24T14:08:37.489Z,,,,,,,,,,,,,,,,,53,,,,,,,,,,,,,,398.23300000076415,,response,,,,99,,,,,,,Space,keypress(Space),,,,,,,,---- -- ----- -- ------ - ------- --- ----------<br>------------- ------ ------ ---- ---- ------- ----- -- ----<br>-------- ------- -- ---------- --- - --- ----- ----- ----<br>---- --- --- ----- --- ---- ---- ------- ----- ---- -------<br>you --- -- ----- -- --- ---- -- --- ---- -- ------ ------<br>--- ----- -- ----,259059.0800000009,259056.92500000077,258642.026,258643.5199999996,258658.692,259075.371,,39,you
screen,html.Screen,2_1_0_1_40,2021-04-24T14:08:37.824Z,,,,,,,,,,,,,,,,,53,,,,,,,,,,,,,,317.43400000131805,,response,,,,99,,,,,,,Space,keypress(Space),,,,,,,,---- -- ----- -- ------ - ------- --- ----------<br>------------- ------ ------ ---- ---- ------- ----- -- ----<br>-------- ------- -- ---------- --- - --- ----- ----- ----<br>---- --- --- ----- --- ---- ---- ------- ----- ---- -------<br>--- are -- ----- -- --- ---- -- --- ---- -- ------ ------<br>--- ----- -- ----,259394.48000000085,259392.80500000133,259058.705,259059.40000000008,259075.371,259408.874,,40,are
screen,html.Screen,2_1_0_1_41,2021-04-24T14:08:38.143Z,,,,,,,,,,,,,,,,,53,,,,,,,,,,,,,,303.5260000003327,,response,,,,99,,,,,,,Space,keypress(Space),,,,,,,,---- -- ----- -- ------ - ------- --- ----------<br>------------- ------ ------ ---- ---- ------- ----- -- ----<br>-------- ------- -- ---------- --- - --- ----- ----- ----<br>---- --- --- ----- --- ---- ---- ------- ----- ---- -------<br>--- --- as ----- -- --- ---- -- --- ---- -- ------ ------<br>--- ----- -- ----,259713.68000000075,259712.40000000034,259392.208,259394.79000000027,259408.874,259725.704,,41,as
screen,html.Screen,2_1_0_1_42,2021-04-24T14:08:38.448Z,,,,,,,,,,,,,,,,,53,,,,,,,,,,,,,,291.1810000009136,,response,,,,99,,,,,,,Space,keypress(Space),,,,,,,,---- -- ----- -- ------ - ------- --- ----------<br>------------- ------ ------ ---- ---- ------- ----- -- ----<br>-------- ------- -- ---------- --- - --- ----- ----- ----<br>---- --- --- ----- --- ---- ---- ------- ----- ---- -------<br>--- --- -- close -- --- ---- -- --- ---- -- ------ ------<br>--- ----- -- ----,260018.5650000003,260016.8850000009,259709.038,259713.9900000002,259725.704,260025.746,,42,close
screen,html.Screen,2_1_0_1_43,2021-04-24T14:08:38.736Z,,,,,,,,,,,,,,,,,53,,,,,,,,,,,,,,279.0140000008687,,response,,,,99,,,,,,,Space,keypress(Space),,,,,,,,---- -- ----- -- ------ - ------- --- ----------<br>------------- ------ ------ ---- ---- ------- ----- -- ----<br>-------- ------- -- ---------- --- - --- ----- ----- ----<br>---- --- --- ----- --- ---- ---- ------- ----- ---- -------<br>--- --- -- ----- as --- ---- -- --- ---- -- ------ ------<br>--- ----- -- ----,260306.1150000012,260304.76000000088,260009.08,260018.87499999977,260025.746,260309.142,,43,as
screen,html.Screen,2_1_0_1_44,2021-04-24T14:08:39.056Z,,,,,,,,,,,,,,,,,53,,,,,,,,,,,,,,315.753000000841,,response,,,,99,,,,,,,Space,keypress(Space),,,,,,,,---- -- ----- -- ------ - ------- --- ----------<br>------------- ------ ------ ---- ---- ------- ----- -- ----<br>-------- ------- -- ---------- --- - --- ----- ----- ----<br>---- --- --- ----- --- ---- ---- ------- ----- ---- -------<br>--- --- -- ----- -- you ---- -- --- ---- -- ------ ------<br>--- ----- -- ----,260626.06000000052,260624.89500000083,260292.476,260306.4549999999,260309.142,260642.553,,44,you
screen,html.Screen,2_1_0_1_45,2021-04-24T14:08:39.361Z,,,,,,,,,,,,,,,,,53,,,,,,,,,,,,,,286.4820000010077,,response,,,,99,,,,,,,Space,keypress(Space),,,,,,,,---- -- ----- -- ------ - ------- --- ----------<br>------------- ------ ------ ---- ---- ------- ----- -- ----<br>-------- ------- -- ---------- --- - --- ----- ----- ----<br>---- --- --- ----- --- ---- ---- ------- ----- ---- -------<br>--- --- -- ----- -- --- want -- --- ---- -- ------ ------<br>--- ----- -- ----,260931.0999999998,260929.03500000102,260625.887,260626.3799999997,260642.553,260942.598,,45,want
screen,html.Screen,2_1_0_1_46,2021-04-24T14:08:39.664Z,,,,,,,,,,,,,,,,,53,,,,,,,,,,,,,,290.2769999997108,,response,,,,99,,,,,,,Space,keypress(Space),,,,,,,,---- -- ----- -- ------ - ------- --- ----------<br>------------- ------ ------ ---- ---- ------- ----- -- ----<br>-------- ------- -- ---------- --- - --- ----- ----- ----<br>---- --- --- ----- --- ---- ---- ------- ----- ---- -------<br>--- --- -- ----- -- --- ---- to --- ---- -- ------ ------<br>--- ----- -- ----,261234.44000000018,261232.8749999997,260925.932,260931.45000000004,260942.598,261242.681,,46,to
screen,html.Screen,2_1_0_1_47,2021-04-24T14:08:39.983Z,,,,,,,,,,,,,,,,,53,,,,,,,,,,,,,,310.0590000009688,,response,,,,99,,,,,,,Space,keypress(Space),,,,,,,,"---- -- ----- -- ------ - ------- --- ----------<br>------------- ------ ------ ---- ---- ------- ----- -- ----<br>-------- ------- -- ---------- --- - --- ----- ----- ----<br>---- --- --- ----- --- ---- ---- ------- ----- ---- -------<br>--- --- -- ----- -- --- ---- -- be, ---- -- ------ ------<br>--- ----- -- ----",261553.93999999977,261552.74000000098,261226.015,261234.735,261242.681,261559.543,,47,"be,"
screen,html.Screen,2_1_0_1_48,2021-04-24T14:08:40.353Z,,,,,,,,,,,,,,,,,53,,,,,,,,,,,,,,361.3620000008377,,response,,,,99,,,,,,,Space,keypress(Space),,,,,,,,---- -- ----- -- ------ - ------- --- ----------<br>------------- ------ ------ ---- ---- ------- ----- -- ----<br>-------- ------- -- ---------- --- - --- ----- ----- ----<br>---- --- --- ----- --- ---- ---- ------- ----- ---- -------<br>--- --- -- ----- -- --- ---- -- --- even -- ------ ------<br>--- ----- -- ----,261923.08000000048,261920.90500000084,261542.877,261554.25000000105,261559.543,261926.368,,48,even
screen,html.Screen,2_1_0_1_49,2021-04-24T14:08:40.800Z,,,,,,,,,,,,,,,,,53,,,,,,,,,,,,,,442.1669999996375,,response,,,,99,,,,,,,Space,keypress(Space),,,,,,,,---- -- ----- -- ------ - ------- --- ----------<br>------------- ------ ------ ---- ---- ------- ----- -- ----<br>-------- ------- -- ---------- --- - --- ----- ----- ----<br>---- --- --- ----- --- ---- ---- ------- ----- ---- -------<br>--- --- -- ----- -- --- ---- -- --- ---- if ------ ------<br>--- ----- -- ----,262370.18499999976,262368.5349999996,261909.702,261923.38500000007,261926.368,262376.333,,49,if
screen,html.Screen,2_1_0_1_50,2021-04-24T14:08:41.087Z,,,,,,,,,,,,,,,,,53,,,,,,,,,,,,,,280.33200000046054,,response,,,,99,,,,,,,Space,keypress(Space),,,,,,,,---- -- ----- -- ------ - ------- --- ----------<br>------------- ------ ------ ---- ---- ------- ----- -- ----<br>-------- ------- -- ---------- --- - --- ----- ----- ----<br>---- --- --- ----- --- ---- ---- ------- ----- ---- -------<br>--- --- -- ----- -- --- ---- -- --- ---- -- that's ------<br>--- ----- -- ----,262657.8300000001,262656.66500000044,262359.667,262370.4799999996,262376.333,262659.551,,50,that's
screen,html.Screen,2_1_0_1_51,2021-04-24T14:08:41.440Z,,,,,,,,,,,,,,,,,53,,,,,,,,,,,,,,349.23399999999674,,response,,,,99,,,,,,,Space,keypress(Space),,,,,,,,---- -- ----- -- ------ - ------- --- ----------<br>------------- ------ ------ ---- ---- ------- ----- -- ----<br>-------- ------- -- ---------- --- - --- ----- ----- ----<br>---- --- --- ----- --- ---- ---- ------- ----- ---- -------<br>--- --- -- ----- -- --- ---- -- --- ---- -- ------ really<br>--- ----- -- ----,263010.51000000007,263008.785,262642.885,262658.12499999994,262659.551,263026.505,,51,really
screen,html.Screen,2_1_0_1_52,2021-04-24T14:08:41.792Z,,,,,,,,,,,,,,,,,53,,,,,,,,,,,,,,334.33000000129687,,response,,,,99,,,,,,,Space,keypress(Space),,,,,,,,---- -- ----- -- ------ - ------- --- ----------<br>------------- ------ ------ ---- ---- ------- ----- -- ----<br>-------- ------- -- ---------- --- - --- ----- ----- ----<br>---- --- --- ----- --- ---- ---- ------- ----- ---- -------<br>--- --- -- ----- -- --- ---- -- --- ---- -- ------ ------<br>not ----- -- ----,263362.97999999986,263360.8350000013,263009.839,263010.80000000005,263026.505,263376.43,,52,not
screen,html.Screen,2_1_0_1_53,2021-04-24T14:08:42.096Z,,,,,,,,,,,,,,,,,53,,,,,,,,,,,,,,288.4049999996205,,response,,,,99,,,,,,,Space,keypress(Space),,,,,,,,---- -- ----- -- ------ - ------- --- ----------<br>------------- ------ ------ ---- ---- ------- ----- -- ----<br>-------- ------- -- ---------- --- - --- ----- ----- ----<br>---- --- --- ----- --- ---- ---- ------- ----- ---- -------<br>--- --- -- ----- -- --- ---- -- --- ---- -- ------ ------<br>--- close -- ----,263666.4149999997,263664.8349999996,263359.764,263363.2749999997,263376.43,263676.588,,53,close
screen,html.Screen,2_1_0_1_54,2021-04-24T14:08:42.449Z,,,,,,,,,,,,,,,,,53,,,,,,,,,,,,,,340.32700000016484,,response,,,,99,,,,,,,Space,keypress(Space),,,,,,,,---- -- ----- -- ------ - ------- --- ----------<br>------------- ------ ------ ---- ---- ------- ----- -- ----<br>-------- ------- -- ---------- --- - --- ----- ----- ----<br>---- --- --- ----- --- ---- ---- ------- ----- ---- -------<br>--- --- -- ----- -- --- ---- -- --- ---- -- ------ ------<br>--- ----- at ----,264019.0949999996,264016.91500000015,263659.922,263666.7049999996,263676.588,264026.689,,54,at
screen,html.Screen,2_1_0_1_55,2021-04-24T14:08:42.880Z,,,,,,,,,,,,,,,,,53,,,,,,,,,,,,,,422.0810000008787,,response,,,,99,,,,,,,Space,keypress(Space),,,,,,,,---- -- ----- -- ------ - ------- --- ----------<br>------------- ------ ------ ---- ---- ------- ----- -- ----<br>-------- ------- -- ---------- --- - --- ----- ----- ----<br>---- --- --- ----- --- ---- ---- ------- ----- ---- -------<br>--- --- -- ----- -- --- ---- -- --- ---- -- ------ ------<br>--- ----- -- all.,264450.32999999967,264448.7700000009,264010.023,264019.4100000008,264026.689,264460.188,,55,all.
Item 99,flow.Loop,2_1_0_1,2021-04-24T14:08:42.880Z,,,,,,,,,,,,,,,,,,,,,,,,,,,,,,,28362.728000000905,,completion,,,,,B,,,,,,,,,,,silence,,,,,264450.9049999997,264448.7700000009,235936.048,235938.14999999997,236086.042,264460.188,,,
Question 1,html.Screen,2_1_0_2,2021-04-24T14:08:49.741Z,,,,,,,,,,,,,,,,,,,,,,,,,,,,true,FALSE,,6849.342000000412,,response,,,,99,B,,,,,,FALSE,click #choice-2,,,,silence,,,,,271311.17500000075,271309.53000000044,264443.522,264451.1999999995,264460.188,271311.699,,,
Question 2,html.Screen,2_1_0_3,2021-04-24T14:08:56.596Z,,,,,,,,,,,,,,,,,,,,,,,,,,,,true,TRUE,,6853.316000000457,,response,,,,99,B,,,,,,TRUE,click #choice-1,,,,silence,,,,,278166.6949999999,278165.0150000005,271295.033,271311.3950000006,271311.699,278180.074,,,
Item 99,flow.Sequence,2_1_0,2021-04-24T14:08:56.597Z,,,,,,,,,,,,,,,,,,,,,,,,,,,,,,,52214.57300000047,,completion,,,,,,,,,,,,,,,,,,,,,278167.12000000005,278165.0150000005,225933.776,225943.81000000067,225950.442,278180.074,,,
Holding screen,html.Screen,2_1_1_0,2021-04-24T14:09:06.597Z,,,,,,,,,,,,,,,,,,,,,,,,,,,,,,,10002.252999999968,,timeout,,,,,,,,,,,,,,,,,,,,,288167.44500000094,288165.661,278163.408,278167.36000000127,278180.074,288182.327,,,
screen,html.Screen,2_1_1_1_0,2021-04-24T14:09:08.563Z,,,,,,,,,,,,,,,,,54,,,,,,,,,,,,,,1946.9030000004568,,response,,,,100,,,,,,,Space,keypress(Space),,,,,,,,At --- ---- --- ------ ----- ------- ---- -- --- ------- --<br>------- ---------- ------ -- ----- -- ----- -- ---- ------<br>--- ----- --- --- ------ -------- ----- --- ------ ----- --<br>----- ----- ---------- --- --- ------ ------ ---- -- ------<br>------- --- ------ ----- --- ---- ------- -- ---- --- --<br>------- ------,290133.9250000001,290129.23000000045,288165.661,288167.8499999998,288182.327,290132.621,,0,At
screen,html.Screen,2_1_1_1_1,2021-04-24T14:09:09.713Z,,,,,,,,,,,,,,,,,54,,,,,,,,,,,,,,1148.353999999701,,response,,,,100,,,,,,,Space,keypress(Space),,,,,,,,-- the ---- --- ------ ----- ------- ---- -- --- ------- --<br>------- ---------- ------ -- ----- -- ----- -- ---- ------<br>--- ----- --- --- ------ -------- ----- --- ------ ----- --<br>----- ----- ---------- --- --- ------ ------ ---- -- ------<br>------- --- ------ ----- --- ---- ------- -- ---- --- --<br>------- ------,291283.1900000001,291280.9749999997,290115.955,290134.3300000008,290132.621,291299.526,,1,the
screen,html.Screen,2_1_1_1_2,2021-04-24T14:09:10.641Z,,,,,,,,,,,,,,,,,54,,,,,,,,,,,,,,909.3840000011842,,response,,,,100,,,,,,,Space,keypress(Space),,,,,,,,-- --- time --- ------ ----- ------- ---- -- --- ------- --<br>------- ---------- ------ -- ----- -- ----- -- ---- ------<br>--- ----- --- --- ------ -------- ----- --- ------ ----- --<br>----- ----- ---------- --- --- ------ ------ ---- -- ------<br>------- --- ------ ----- --- ---- ------- -- ---- --- --<br>------- ------,292211.11500000005,292208.9100000012,291282.86,291283.49999999953,291299.526,292216.771,,2,time
screen,html.Screen,2_1_1_1_3,2021-04-24T14:09:11.265Z,,,,,,,,,,,,,,,,,54,,,,,,,,,,,,,,616.099000000162,,response,,,,100,,,,,,,Space,keypress(Space),,,,,,,,-- --- ---- the ------ ----- ------- ---- -- --- ------- --<br>------- ---------- ------ -- ----- -- ----- -- ---- ------<br>--- ----- --- --- ------ -------- ----- --- ------ ----- --<br>----- ----- ---------- --- --- ------ ------ ---- -- ------<br>------- --- ------ ----- --- ---- ------- -- ---- --- --<br>------- ------,292834.97499999974,292832.87000000017,292200.105,292211.44000000093,292216.771,292850.435,,3,the
screen,html.Screen,2_1_1_1_4,2021-04-24T14:09:11.649Z,,,,,,,,,,,,,,,,,54,,,,,,,,,,,,,,366.52499999973224,,response,,,,100,,,,,,,Space,keypress(Space),,,,,,,,-- --- ---- --- French ----- ------- ---- -- --- ------- --<br>------- ---------- ------ -- ----- -- ----- -- ---- ------<br>--- ----- --- --- ------ -------- ----- --- ------ ----- --<br>----- ----- ---------- --- --- ------ ------ ---- -- ------<br>------- --- ------ ----- --- ---- ------- -- ---- --- --<br>------- ------,293219.0750000009,293216.95999999973,292833.769,292835.285000001,292850.435,293233.901,,4,French
screen,html.Screen,2_1_1_1_5,2021-04-24T14:09:12.048Z,,,,,,,,,,,,,,,,,54,,,,,,,,,,,,,,382.8790000002482,,response,,,,100,,,,,,,Space,keypress(Space),,,,,,,,-- --- ---- --- ------ crown ------- ---- -- --- ------- --<br>------- ---------- ------ -- ----- -- ----- -- ---- ------<br>--- ----- --- --- ------ -------- ----- --- ------ ----- --<br>----- ----- ---------- --- --- ------ ------ ---- -- ------<br>------- --- ------ ----- --- ---- ------- -- ---- --- --<br>------- ------,293618.0199999999,293616.78000000026,293217.235,293219.39999999997,293233.901,293633.938,,5,crown
screen,html.Screen,2_1_1_1_6,2021-04-24T14:09:12.465Z,,,,,,,,,,,,,,,,,54,,,,,,,,,,,,,,399.0170000005746,,response,,,,100,,,,,,,Space,keypress(Space),,,,,,,,-- --- ---- --- ------ ----- secured ---- -- --- ------- --<br>------- ---------- ------ -- ----- -- ----- -- ---- ------<br>--- ----- --- --- ------ -------- ----- --- ------ ----- --<br>----- ----- ---------- --- --- ------ ------ ---- -- ------<br>------- --- ------ ----- --- ---- ------- -- ---- --- --<br>------- ------,294035.06500000006,294032.9550000006,293617.272,293618.3149999997,293633.938,294050.906,,6,secured
screen,html.Screen,2_1_1_1_7,2021-04-24T14:09:12.912Z,,,,,,,,,,,,,,,,,54,,,,,,,,,,,,,,430.0189999997965,,response,,,,100,,,,,,,Space,keypress(Space),,,,,,,,-- --- ---- --- ------ ----- ------- much -- --- ------- --<br>------- ---------- ------ -- ----- -- ----- -- ---- ------<br>--- ----- --- --- ------ -------- ----- --- ------ ----- --<br>----- ----- ---------- --- --- ------ ------ ---- -- ------<br>------- --- ------ ----- --- ---- ------- -- ---- --- --<br>------- ------,294482.6100000009,294480.9249999998,294034.24,294035.38500000106,294050.906,294500.87,,7,much
screen,html.Screen,2_1_1_1_8,2021-04-24T14:09:13.296Z,,,,,,,,,,,,,,,,,54,,,,,,,,,,,,,,364.13499999966007,,response,,,,100,,,,,,,Space,keypress(Space),,,,,,,,-- --- ---- --- ------ ----- ------- ---- of --- ------- --<br>------- ---------- ------ -- ----- -- ----- -- ---- ------<br>--- ----- --- --- ------ -------- ----- --- ------ ----- --<br>----- ----- ---------- --- --- ------ ------ ---- -- ------<br>------- --- ------ ----- --- ---- ------- -- ---- --- --<br>------- ------,294866.14499999996,294865.00499999966,294484.204,294482.895000001,294500.87,294867.758,,8,of
screen,html.Screen,2_1_1_1_9,2021-04-24T14:09:13.696Z,,,,,,,,,,,,,,,,,54,,,,,,,,,,,,,,397.09199999959674,,response,,,,100,,,,,,,Space,keypress(Space),,,,,,,,-- --- ---- --- ------ ----- ------- ---- -- its ------- --<br>------- ---------- ------ -- ----- -- ----- -- ---- ------<br>--- ----- --- --- ------ -------- ----- --- ------ ----- --<br>----- ----- ---------- --- --- ------ ------ ---- -- ------<br>------- --- ------ ----- --- ---- ------- -- ---- --- --<br>------- ------,295266.450000001,295264.84999999957,294851.092,294866.44499999966,294867.758,295267.899,,9,its
screen,html.Screen,2_1_1_1_10,2021-04-24T14:09:14.033Z,,,,,,,,,,,,,,,,,54,,,,,,,,,,,,,,332.8459999997867,,response,,,,100,,,,,,,Space,keypress(Space),,,,,,,,-- --- ---- --- ------ ----- ------- ---- -- --- revenue --<br>------- ---------- ------ -- ----- -- ----- -- ---- ------<br>--- ----- --- --- ------ -------- ----- --- ------ ----- --<br>----- ----- ---------- --- --- ------ ------ ---- -- ------<br>------- --- ------ ----- --- ---- ------- -- ---- --- --<br>------- ------,295603.65000000095,295600.74499999976,295251.233,295266.7450000008,295267.899,295618.003,,10,revenue
screen,html.Screen,2_1_1_1_11,2021-04-24T14:09:14.416Z,,,,,,,,,,,,,,,,,54,,,,,,,,,,,,,,366.8570000004256,,response,,,,100,,,,,,,Space,keypress(Space),,,,,,,,-- --- ---- --- ------ ----- ------- ---- -- --- ------- by<br>------- ---------- ------ -- ----- -- ----- -- ---- ------<br>--- ----- --- --- ------ -------- ----- --- ------ ----- --<br>----- ----- ---------- --- --- ------ ------ ---- -- ------<br>------- --- ------ ----- --- ---- ------- -- ---- --- --<br>------- ------,295986.54999999964,295984.86000000045,295601.337,295603.96000000037,295618.003,296001.229,,11,by
screen,html.Screen,2_1_1_1_12,2021-04-24T14:09:16.369Z,,,,,,,,,,,,,,,,,54,,,,,,,,,,,,,,1935.7510000003967,,response,,,,100,,,,,,,Space,keypress(Space),,,,,,,,-- --- ---- --- ------ ----- ------- ---- -- --- ------- --<br>issuing ---------- ------ -- ----- -- ----- -- ---- ------<br>--- ----- --- --- ------ -------- ----- --- ------ ----- --<br>----- ----- ---------- --- --- ------ ------ ---- -- ------<br>------- --- ------ ----- --- ---- ------- -- ---- --- --<br>------- ------,297939.1400000004,297936.9800000004,295984.563,295986.84500000125,296001.229,297951.359,,12,issuing
screen,html.Screen,2_1_1_1_13,2021-04-24T14:09:16.736Z,,,,,,,,,,,,,,,,,54,,,,,,,,,,,,,,353.5259999995469,,response,,,,100,,,,,,,Space,keypress(Space),,,,,,,,-- --- ---- --- ------ ----- ------- ---- -- --- ------- --<br>------- government ------ -- ----- -- ----- -- ---- ------<br>--- ----- --- --- ------ -------- ----- --- ------ ----- --<br>----- ----- ---------- --- --- ------ ------ ---- -- ------<br>------- --- ------ ----- --- ---- ------- -- ---- --- --<br>------- ------,298306.57000000065,298304.88499999954,297934.693,297939.4549999997,297951.359,298318.214,,13,government
screen,html.Screen,2_1_1_1_14,2021-04-24T14:09:17.105Z,,,,,,,,,,,,,,,,,54,,,,,,,,,,,,,,354.8760000002221,,response,,,,100,,,,,,,Space,keypress(Space),,,,,,,,-- --- ---- --- ------ ----- ------- ---- -- --- ------- --<br>------- ---------- bonds. -- ----- -- ----- -- ---- ------<br>--- ----- --- --- ------ -------- ----- --- ------ ----- --<br>----- ----- ---------- --- --- ------ ------ ---- -- ------<br>------- --- ------ ----- --- ---- ------- -- ---- --- --<br>------- ------,298675.2950000009,298673.0900000002,298301.548,298306.86000000057,298318.214,298685.354,,14,bonds.
screen,html.Screen,2_1_1_1_15,2021-04-24T14:09:18.897Z,,,,,,,,,,,,,,,,,54,,,,,,,,,,,,,,1780.0510000008508,,response,,,,100,,,,,,,Space,keypress(Space),,,,,,,,-- --- ---- --- ------ ----- ------- ---- -- --- ------- --<br>------- ---------- ------ In ----- -- ----- -- ---- ------<br>--- ----- --- --- ------ -------- ----- --- ------ ----- --<br>----- ----- ---------- --- --- ------ ------ ---- -- ------<br>------- --- ------ ----- --- ---- ------- -- ---- --- --<br>------- ------,300467.67,300465.40500000084,298668.688,298675.5950000006,298685.354,300485.461,,15,In
screen,html.Screen,2_1_1_1_16,2021-04-24T14:09:19.349Z,,,,,,,,,,,,,,,,,54,,,,,,,,,,,,,,427.2640000001411,,response,,,,100,,,,,,,Space,keypress(Space),,,,,,,,"-- --- ---- --- ------ ----- ------- ---- -- --- ------- --<br>------- ---------- ------ -- 1727, -- ----- -- ---- ------<br>--- ----- --- --- ------ -------- ----- --- ------ ----- --<br>----- ----- ---------- --- --- ------ ------ ---- -- ------<br>------- --- ------ ----- --- ---- ------- -- ---- --- --<br>------- ------",300919.2700000003,300912.72500000015,300468.795,300467.95999999996,300485.461,300935.467,,16,"1727,"
screen,html.Screen,2_1_1_1_17,2021-04-24T14:09:20.449Z,,,,,,,,,,,,,,,,,54,,,,,,,,,,,,,,1081.5329999998212,,response,,,,100,,,,,,,Space,keypress(Space),,,,,,,,-- --- ---- --- ------ ----- ------- ---- -- --- ------- --<br>------- ---------- ------ -- ----- in ----- -- ---- ------<br>--- ----- --- --- ------ -------- ----- --- ------ ----- --<br>----- ----- ---------- --- --- ------ ------ ---- -- ------<br>------- --- ------ ----- --- ---- ------- -- ---- --- --<br>------- ------,302019.1649999997,302016.9999999998,300918.801,300919.42500000005,300935.467,302035.977,,17,in
screen,html.Screen,2_1_1_1_18,2021-04-24T14:09:20.961Z,,,,,,,,,,,,,,,,,54,,,,,,,,,,,,,,492.88800000021,,response,,,,100,,,,,,,Space,keypress(Space),,,,,,,,-- --- ---- --- ------ ----- ------- ---- -- --- ------- --<br>------- ---------- ------ -- ----- -- order -- ---- ------<br>--- ----- --- --- ------ -------- ----- --- ------ ----- --<br>----- ----- ---------- --- --- ------ ------ ---- -- ------<br>------- --- ------ ----- --- ---- ------- -- ---- --- --<br>------- ------,302530.98500000127,302528.8650000002,302019.311,302019.4700000011,302035.977,302535.924,,18,order
screen,html.Screen,2_1_1_1_19,2021-04-24T14:09:21.345Z,,,,,,,,,,,,,,,,,54,,,,,,,,,,,,,,377.0510000010836,,response,,,,100,,,,,,,Space,keypress(Space),,,,,,,,-- --- ---- --- ------ ----- ------- ---- -- --- ------- --<br>------- ---------- ------ -- ----- -- ----- to ---- ------<br>--- ----- --- --- ------ -------- ----- --- ------ ----- --<br>----- ----- ---------- --- --- ------ ------ ---- -- ------<br>------- --- ------ ----- --- ---- ------- -- ---- --- --<br>------- ------,302915.1300000012,302912.9750000011,302519.258,302531.2750000012,302535.924,302919.695,,19,to
screen,html.Screen,2_1_1_1_20,2021-04-24T14:09:21.665Z,,,,,,,,,,,,,,,,,54,,,,,,,,,,,,,,313.2900000005611,,response,,,,100,,,,,,,Space,keypress(Space),,,,,,,,-- --- ---- --- ------ ----- ------- ---- -- --- ------- --<br>------- ---------- ------ -- ----- -- ----- -- save ------<br>--- ----- --- --- ------ -------- ----- --- ------ ----- --<br>----- ----- ---------- --- --- ------ ------ ---- -- ------<br>------- --- ------ ----- --- ---- ------- -- ---- --- --<br>------- ------,303235.2150000006,303232.98500000057,302903.029,302915.44500000053,302919.695,303253.282,,20,save
screen,html.Screen,2_1_1_1_21,2021-04-24T14:09:21.920Z,,,,,,,,,,,,,,,,,54,,,,,,,,,,,,,,235.87300000112737,,response,,,,100,,,,,,,Space,keypress(Space),,,,,,,,"-- --- ---- --- ------ ----- ------- ---- -- --- ------- --<br>------- ---------- ------ -- ----- -- ----- -- ---- money,<br>--- ----- --- --- ------ -------- ----- --- ------ ----- --<br>----- ----- ---------- --- --- ------ ------ ---- -- ------<br>------- --- ------ ----- --- ---- ------- -- ---- --- --<br>------- ------",303490.7750000002,303489.15500000113,303236.616,303235.525,303253.282,303503.341,,21,"money,"
screen,html.Screen,2_1_1_1_22,2021-04-24T14:09:23.681Z,,,,,,,,,,,,,,,,,54,,,,,,,,,,,,,,1745.6539999999222,,response,,,,100,,,,,,,Space,keypress(Space),,,,,,,,-- --- ---- --- ------ ----- ------- ---- -- --- ------- --<br>------- ---------- ------ -- ----- -- ----- -- ---- ------<br>the ----- --- --- ------ -------- ----- --- ------ ----- --<br>----- ----- ---------- --- --- ------ ------ ---- -- ------<br>------- --- ------ ----- --- ---- ------- -- ---- --- --<br>------- ------,305251.1400000003,305248.99499999994,303486.675,303491.07000000007,303503.341,305253.327,,22,the
screen,html.Screen,2_1_1_1_23,2021-04-24T14:09:24.097Z,,,,,,,,,,,,,,,,,54,,,,,,,,,,,,,,411.5280000009225,,response,,,,100,,,,,,,Space,keypress(Space),,,,,,,,-- --- ---- --- ------ ----- ------- ---- -- --- ------- --<br>------- ---------- ------ -- ----- -- ----- -- ---- ------<br>--- state --- --- ------ -------- ----- --- ------ ----- --<br>----- ----- ---------- --- --- ------ ------ ---- -- ------<br>------- --- ------ ----- --- ---- ------- -- ---- --- --<br>------- ------,305666.9600000005,305664.8550000009,305236.661,305251.4499999997,305253.327,305669.996,,23,state
screen,html.Screen,2_1_1_1_24,2021-04-24T14:09:24.384Z,,,,,,,,,,,,,,,,,54,,,,,,,,,,,,,,282.8489999998128,,response,,,,100,,,,,,,Space,keypress(Space),,,,,,,,-- --- ---- --- ------ ----- ------- ---- -- --- ------- --<br>------- ---------- ------ -- ----- -- ----- -- ---- ------<br>--- ----- cut --- ------ -------- ----- --- ------ ----- --<br>----- ----- ---------- --- --- ------ ------ ---- -- ------<br>------- --- ------ ----- --- ---- ------- -- ---- --- --<br>------- ------,305954.5400000006,305952.8449999998,305653.33,305667.2699999999,305669.996,305970.478,,24,cut
screen,html.Screen,2_1_1_1_25,2021-04-24T14:09:24.576Z,,,,,,,,,,,,,,,,,54,,,,,,,,,,,,,,174.3120000002673,,response,,,,100,,,,,,,Space,keypress(Space),,,,,,,,-- --- ---- --- ------ ----- ------- ---- -- --- ------- --<br>------- ---------- ------ -- ----- -- ----- -- ---- ------<br>--- ----- --- the ------ -------- ----- --- ------ ----- --<br>----- ----- ---------- --- --- ------ ------ ---- -- ------<br>------- --- ------ ----- --- ---- ------- -- ---- --- --<br>------- ------,306145.9450000002,306144.79000000027,305953.812,305954.8300000006,305970.478,306154.049,,25,the
screen,html.Screen,2_1_1_1_26,2021-04-24T14:09:24.736Z,,,,,,,,,,,,,,,,,54,,,,,,,,,,,,,,150.71100000088336,,response,,,,100,,,,,,,Space,keypress(Space),,,,,,,,-- --- ---- --- ------ ----- ------- ---- -- --- ------- --<br>------- ---------- ------ -- ----- -- ----- -- ---- ------<br>--- ----- --- --- bonds' -------- ----- --- ------ ----- --<br>----- ----- ---------- --- --- ------ ------ ---- -- ------<br>------- --- ------ ----- --- ---- ------- -- ---- --- --<br>------- ------,306306.30500000005,306304.7600000009,306137.383,306146.2449999999,306154.049,306320.689,,26,bonds'
screen,html.Screen,2_1_1_1_27,2021-04-24T14:09:25.857Z,,,,,,,,,,,,,,,,,54,,,,,,,,,,,,,,1104.311000001093,,response,,,,100,,,,,,,Space,keypress(Space),,,,,,,,-- --- ---- --- ------ ----- ------- ---- -- --- ------- --<br>------- ---------- ------ -- ----- -- ----- -- ---- ------<br>--- ----- --- --- ------ interest ----- --- ------ ----- --<br>----- ----- ---------- --- --- ------ ------ ---- -- ------<br>------- --- ------ ----- --- ---- ------- -- ---- --- --<br>------- ------,307427.13,307425.0000000011,306304.023,306306.6350000008,306320.689,307437.471,,27,interest
screen,html.Screen,2_1_1_1_28,2021-04-24T14:09:26.336Z,,,,,,,,,,,,,,,,,54,,,,,,,,,,,,,,467.2390000006999,,response,,,,100,,,,,,,Space,keypress(Space),,,,,,,,-- --- ---- --- ------ ----- ------- ---- -- --- ------- --<br>------- ---------- ------ -- ----- -- ----- -- ---- ------<br>--- ----- --- --- ------ -------- rate. --- ------ ----- --<br>----- ----- ---------- --- --- ------ ------ ---- -- ------<br>------- --- ------ ----- --- ---- ------- -- ---- --- --<br>------- ------,307906.02500000026,307904.7100000007,307420.805,307427.48500000016,307437.471,307920.738,,28,rate.
screen,html.Screen,2_1_1_1_29,2021-04-24T14:09:28.991Z,,,,,,,,,,,,,,,,,54,,,,,,,,,,,,,,2639.6019999999553,,response,,,,100,,,,,,,Space,keypress(Space),,,,,,,,-- --- ---- --- ------ ----- ------- ---- -- --- ------- --<br>------- ---------- ------ -- ----- -- ----- -- ---- ------<br>--- ----- --- --- ------ -------- ----- The ------ ----- --<br>----- ----- ---------- --- --- ------ ------ ---- -- ------<br>------- --- ------ ----- --- ---- ------- -- ---- --- --<br>------- ------,310561.35,310560.33999999997,307904.072,307906.3150000002,307920.738,310571.039,,29,The
screen,html.Screen,2_1_1_1_30,2021-04-24T14:09:29.375Z,,,,,,,,,,,,,,,,,54,,,,,,,,,,,,,,373.0959999997285,,response,,,,100,,,,,,,Space,keypress(Space),,,,,,,,-- --- ---- --- ------ ----- ------- ---- -- --- ------- --<br>------- ---------- ------ -- ----- -- ----- -- ---- ------<br>--- ----- --- --- ------ -------- ----- --- market ----- --<br>----- ----- ---------- --- --- ------ ------ ---- -- ------<br>------- --- ------ ----- --- ---- ------- -- ---- --- --<br>------- ------,310945.4000000005,310944.1349999997,310554.373,310561.53500000073,310571.039,310954.376,,30,market
screen,html.Screen,2_1_1_1_31,2021-04-24T14:09:29.759Z,,,,,,,,,,,,,,,,,54,,,,,,,,,,,,,,373.9240000010468,,response,,,,100,,,,,,,Space,keypress(Space),,,,,,,,-- --- ---- --- ------ ----- ------- ---- -- --- ------- --<br>------- ---------- ------ -- ----- -- ----- -- ---- ------<br>--- ----- --- --- ------ -------- ----- --- ------ value --<br>----- ----- ---------- --- --- ------ ------ ---- -- ------<br>------- --- ------ ----- --- ---- ------- -- ---- --- --<br>------- ------,311329.50999999954,311328.30000000104,310937.71,310945.635,310954.376,311338.382,,31,value
screen,html.Screen,2_1_1_1_32,2021-04-24T14:09:30.240Z,,,,,,,,,,,,,,,,,54,,,,,,,,,,,,,,470.58800000004703,,response,,,,100,,,,,,,Space,keypress(Space),,,,,,,,-- --- ---- --- ------ ----- ------- ---- -- --- ------- --<br>------- ---------- ------ -- ----- -- ----- -- ---- ------<br>--- ----- --- --- ------ -------- ----- --- ------ ----- of<br>----- ----- ---------- --- --- ------ ------ ---- -- ------<br>------- --- ------ ----- --- ---- ------- -- ---- --- --<br>------- ------,311810.6000000007,311808.97000000003,311321.716,311329.75500000064,311338.382,311821.912,,32,of
screen,html.Screen,2_1_1_1_33,2021-04-24T14:09:30.737Z,,,,,,,,,,,,,,,,,54,,,,,,,,,,,,,,483.07300000067335,,response,,,,100,,,,,,,Space,keypress(Space),,,,,,,,-- --- ---- --- ------ ----- ------- ---- -- --- ------- --<br>------- ---------- ------ -- ----- -- ----- -- ---- ------<br>--- ----- --- --- ------ -------- ----- --- ------ ----- --<br>these ----- ---------- --- --- ------ ------ ---- -- ------<br>------- --- ------ ----- --- ---- ------- -- ---- --- --<br>------- ------,312307.2400000001,312304.9850000007,311805.246,311810.9000000004,311821.912,312321.867,,33,these
screen,html.Screen,2_1_1_1_34,2021-04-24T14:09:31.168Z,,,,,,,,,,,,,,,,,54,,,,,,,,,,,,,,414.9629999998142,,response,,,,100,,,,,,,Space,keypress(Space),,,,,,,,-- --- ---- --- ------ ----- ------- ---- -- --- ------- --<br>------- ---------- ------ -- ----- -- ----- -- ---- ------<br>--- ----- --- --- ------ -------- ----- --- ------ ----- --<br>----- bonds ---------- --- --- ------ ------ ---- -- ------<br>------- --- ------ ----- --- ---- ------- -- ---- --- --<br>------- ------,312738.0350000003,312736.82999999984,312305.201,312307.5499999995,312321.867,312755.349,,34,bonds
screen,html.Screen,2_1_1_1_35,2021-04-24T14:09:34.735Z,,,,,,,,,,,,,,,,,54,,,,,,,,,,,,,,3548.856000000378,,response,,,,100,,,,,,,Space,keypress(Space),,,,,,,,"-- --- ---- --- ------ ----- ------- ---- -- --- ------- --<br>------- ---------- ------ -- ----- -- ----- -- ---- ------<br>--- ----- --- --- ------ -------- ----- --- ------ ----- --<br>----- ----- plummeted, --- --- ------ ------ ---- -- ------<br>------- --- ------ ----- --- ---- ------- -- ---- --- --<br>------- ------",316305.15000000014,316304.20500000037,312738.683,312738.34499999974,312755.349,316322.135,,35,"plummeted,"
screen,html.Screen,2_1_1_1_36,2021-04-24T14:09:36.977Z,,,,,,,,,,,,,,,,,54,,,,,,,,,,,,,,2222.869999999937,,response,,,,100,,,,,,,Space,keypress(Space),,,,,,,,-- --- ---- --- ------ ----- ------- ---- -- --- ------- --<br>------- ---------- ------ -- ----- -- ----- -- ---- ------<br>--- ----- --- --- ------ -------- ----- --- ------ ----- --<br>----- ----- ---------- and --- ------ ------ ---- -- ------<br>------- --- ------ ----- --- ---- ------- -- ---- --- --<br>------- ------,318547.1150000012,318545.00499999995,316305.469,316305.3049999999,316322.135,318555.632,,36,and
screen,html.Screen,2_1_1_1_37,2021-04-24T14:09:38.047Z,,,,,,,,,,,,,,,,,54,,,,,,,,,,,,,,1060.732999999891,,response,,,,100,,,,,,,Space,keypress(Space),,,,,,,,-- --- ---- --- ------ ----- ------- ---- -- --- ------- --<br>------- ---------- ------ -- ----- -- ----- -- ---- ------<br>--- ----- --- --- ------ -------- ----- --- ------ ----- --<br>----- ----- ---------- --- the ------ ------ ---- -- ------<br>------- --- ------ ----- --- ---- ------- -- ---- --- --<br>------- ------,319617.27000000066,319616.3649999999,318538.966,318547.4250000006,318555.632,319623.069,,37,the
screen,html.Screen,2_1_1_1_38,2021-04-24T14:09:38.881Z,,,,,,,,,,,,,,,,,54,,,,,,,,,,,,,,825.9760000011884,,response,,,,100,,,,,,,Space,keypress(Space),,,,,,,,-- --- ---- --- ------ ----- ------- ---- -- --- ------- --<br>------- ---------- ------ -- ----- -- ----- -- ---- ------<br>--- ----- --- --- ------ -------- ----- --- ------ ----- --<br>----- ----- ---------- --- --- market ------ ---- -- ------<br>------- --- ------ ----- --- ---- ------- -- ---- --- --<br>------- ------,320451.1500000008,320449.0450000012,319606.403,319617.4350000001,319623.069,320457.074,,38,market
screen,html.Screen,2_1_1_1_39,2021-04-24T14:09:39.807Z,,,,,,,,,,,,,,,,,54,,,,,,,,,,,,,,919.4810000007274,,response,,,,100,,,,,,,Space,keypress(Space),,,,,,,,-- --- ---- --- ------ ----- ------- ---- -- --- ------- --<br>------- ---------- ------ -- ----- -- ----- -- ---- ------<br>--- ----- --- --- ------ -------- ----- --- ------ ----- --<br>----- ----- ---------- --- --- ------ became ---- -- ------<br>------- --- ------ ----- --- ---- ------- -- ---- --- --<br>------- ------,321377.43000000046,321376.55500000075,320440.408,320451.45500000037,320457.074,321390.747,,39,became
screen,html.Screen,2_1_1_1_40,2021-04-24T14:09:41.969Z,,,,,,,,,,,,,,,,,54,,,,,,,,,,,,,,2146.2679999999236,,response,,,,100,,,,,,,Space,keypress(Space),,,,,,,,-- --- ---- --- ------ ----- ------- ---- -- --- ------- --<br>------- ---------- ------ -- ----- -- ----- -- ---- ------<br>--- ----- --- --- ------ -------- ----- --- ------ ----- --<br>----- ----- ---------- --- --- ------ ------ wary -- ------<br>------- --- ------ ----- --- ---- ------- -- ---- --- --<br>------- ------,323539.17000000004,323537.0149999999,321374.081,321377.6350000007,321390.747,323540.857,,40,wary
screen,html.Screen,2_1_1_1_41,2021-04-24T14:09:43.184Z,,,,,,,,,,,,,,,,,54,,,,,,,,,,,,,,1212.2030000009108,,response,,,,100,,,,,,,Space,keypress(Space),,,,,,,,-- --- ---- --- ------ ----- ------- ---- -- --- ------- --<br>------- ---------- ------ -- ----- -- ----- -- ---- ------<br>--- ----- --- --- ------ -------- ----- --- ------ ----- --<br>----- ----- ---------- --- --- ------ ------ ---- of ------<br>------- --- ------ ----- --- ---- ------- -- ---- --- --<br>------- ------,324754.2200000007,324753.0600000009,323524.191,323539.48500000115,323540.857,324757.76,,41,of
screen,html.Screen,2_1_1_1_42,2021-04-24T14:09:44.112Z,,,,,,,,,,,,,,,,,54,,,,,,,,,,,,,,923.2049999995506,,response,,,,100,,,,,,,Space,keypress(Space),,,,,,,,-- --- ---- --- ------ ----- ------- ---- -- --- ------- --<br>------- ---------- ------ -- ----- -- ----- -- ---- ------<br>--- ----- --- --- ------ -------- ----- --- ------ ----- --<br>----- ----- ---------- --- --- ------ ------ ---- -- French<br>------- --- ------ ----- --- ---- ------- -- ---- --- --<br>------- ------,325682.5550000012,325680.96499999956,324741.094,324754.52500000026,324757.76,325691.703,,42,French
screen,html.Screen,2_1_1_1_43,2021-04-24T14:09:45.713Z,,,,,,,,,,,,,,,,,54,,,,,,,,,,,,,,1589.3170000003884,,response,,,,100,,,,,,,Space,keypress(Space),,,,,,,,-- --- ---- --- ------ ----- ------- ---- -- --- ------- --<br>------- ---------- ------ -- ----- -- ----- -- ---- ------<br>--- ----- --- --- ------ -------- ----- --- ------ ----- --<br>----- ----- ---------- --- --- ------ ------ ---- -- ------<br>credit. --- ------ ----- --- ---- ------- -- ---- --- --<br>------- ------,327283.1750000005,327281.02000000037,325675.037,325682.8450000012,325691.703,327292.132,,43,credit.
screen,html.Screen,2_1_1_1_44,2021-04-24T14:09:46.673Z,,,,,,,,,,,,,,,,,54,,,,,,,,,,,,,,948.8980000010924,,response,,,,100,,,,,,,Space,keypress(Space),,,,,,,,-- --- ---- --- ------ ----- ------- ---- -- --- ------- --<br>------- ---------- ------ -- ----- -- ----- -- ---- ------<br>--- ----- --- --- ------ -------- ----- --- ------ ----- --<br>----- ----- ---------- --- --- ------ ------ ---- -- ------<br>------- The ------ ----- --- ---- ------- -- ---- --- --<br>------- ------,328243.2200000003,328241.0300000011,327275.466,327284.04000000044,327292.132,328258.894,,44,The
screen,html.Screen,2_1_1_1_45,2021-04-24T14:09:47.201Z,,,,,,,,,,,,,,,,,54,,,,,,,,,,,,,,510.18600000004517,,response,,,,100,,,,,,,Space,keypress(Space),,,,,,,,-- --- ---- --- ------ ----- ------- ---- -- --- ------- --<br>------- ---------- ------ -- ----- -- ----- -- ---- ------<br>--- ----- --- --- ------ -------- ----- --- ------ ----- --<br>----- ----- ---------- --- --- ------ ------ ---- -- ------<br>------- --- French ----- --- ---- ------- -- ---- --- --<br>------- ------,328771.25999999954,328769.08,328242.228,328243.5349999996,328258.894,328776.082,,45,French
screen,html.Screen,2_1_1_1_46,2021-04-24T14:09:47.585Z,,,,,,,,,,,,,,,,,54,,,,,,,,,,,,,,376.91800000023795,,response,,,,100,,,,,,,Space,keypress(Space),,,,,,,,-- --- ---- --- ------ ----- ------- ---- -- --- ------- --<br>------- ---------- ------ -- ----- -- ----- -- ---- ------<br>--- ----- --- --- ------ -------- ----- --- ------ ----- --<br>----- ----- ---------- --- --- ------ ------ ---- -- ------<br>------- --- ------ state --- ---- ------- -- ---- --- --<br>------- ------,329155.1149999996,329153.00000000023,328759.416,328771.6550000005,328776.082,329159.559,,46,state
screen,html.Screen,2_1_1_1_47,2021-04-24T14:09:47.904Z,,,,,,,,,,,,,,,,,54,,,,,,,,,,,,,,313.2259999999078,,response,,,,100,,,,,,,Space,keypress(Space),,,,,,,,-- --- ---- --- ------ ----- ------- ---- -- --- ------- --<br>------- ---------- ------ -- ----- -- ----- -- ---- ------<br>--- ----- --- --- ------ -------- ----- --- ------ ----- --<br>----- ----- ---------- --- --- ------ ------ ---- -- ------<br>------- --- ------ ----- was ---- ------- -- ---- --- --<br>------- ------,329474.88499999966,329472.7849999999,329142.893,329155.4300000007,329159.559,329492.93,,47,was
screen,html.Screen,2_1_1_1_48,2021-04-24T14:09:48.224Z,,,,,,,,,,,,,,,,,54,,,,,,,,,,,,,,300.06999999965774,,response,,,,100,,,,,,,Space,keypress(Space),,,,,,,,-- --- ---- --- ------ ----- ------- ---- -- --- ------- --<br>------- ---------- ------ -- ----- -- ----- -- ---- ------<br>--- ----- --- --- ------ -------- ----- --- ------ ----- --<br>----- ----- ---------- --- --- ------ ------ ---- -- ------<br>------- --- ------ ----- --- left ------- -- ---- --- --<br>------- ------,329794.315000001,329792.99999999965,329476.264,329475.1800000013,329492.93,329809.82,,48,left
screen,html.Screen,2_1_1_1_49,2021-04-24T14:09:48.560Z,,,,,,,,,,,,,,,,,54,,,,,,,,,,,,,,318.9500000011758,,response,,,,100,,,,,,,Space,keypress(Space),,,,,,,,-- --- ---- --- ------ ----- ------- ---- -- --- ------- --<br>------- ---------- ------ -- ----- -- ----- -- ---- ------<br>--- ----- --- --- ------ -------- ----- --- ------ ----- --<br>----- ----- ---------- --- --- ------ ------ ---- -- ------<br>------- --- ------ ----- --- ---- without -- ---- --- --<br>------- ------,330130.31500000035,330128.7700000012,329793.154,329794.6350000002,329809.82,330143.168,,49,without
screen,html.Screen,2_1_1_1_50,2021-04-24T14:09:48.913Z,,,,,,,,,,,,,,,,,54,,,,,,,,,,,,,,337.7669999995851,,response,,,,100,,,,,,,Space,keypress(Space),,,,,,,,-- --- ---- --- ------ ----- ------- ---- -- --- ------- --<br>------- ---------- ------ -- ----- -- ----- -- ---- ------<br>--- ----- --- --- ------ -------- ----- --- ------ ----- --<br>----- ----- ---------- --- --- ------ ------ ---- -- ------<br>------- --- ------ ----- --- ---- ------- an ---- --- --<br>------- ------,330483.10500000115,330480.9349999996,330126.502,330130.67000000045,330143.168,330493.212,,50,an
screen,html.Screen,2_1_1_1_51,2021-04-24T14:09:49.296Z,,,,,,,,,,,,,,,,,54,,,,,,,,,,,,,,371.55300000024727,,response,,,,100,,,,,,,Space,keypress(Space),,,,,,,,-- --- ---- --- ------ ----- ------- ---- -- --- ------- --<br>------- ---------- ------ -- ----- -- ----- -- ---- ------<br>--- ----- --- --- ------ -------- ----- --- ------ ----- --<br>----- ----- ---------- --- --- ------ ------ ---- -- ------<br>------- --- ------ ----- --- ---- ------- -- easy --- --<br>------- ------,330866.0200000013,330864.76500000025,330476.546,330483.4150000006,330493.212,330876.807,,51,easy
screen,html.Screen,2_1_1_1_52,2021-04-24T14:09:49.665Z,,,,,,,,,,,,,,,,,54,,,,,,,,,,,,,,356.19800000009127,,response,,,,100,,,,,,,Space,keypress(Space),,,,,,,,-- --- ---- --- ------ ----- ------- ---- -- --- ------- --<br>------- ---------- ------ -- ----- -- ----- -- ---- ------<br>--- ----- --- --- ------ -------- ----- --- ------ ----- --<br>----- ----- ---------- --- --- ------ ------ ---- -- ------<br>------- --- ------ ----- --- ---- ------- -- ---- way --<br>------- ------,331235.10999999964,331233.00500000006,330860.141,330866.3250000009,330876.807,331243.361,,52,way
screen,html.Screen,2_1_1_1_53,2021-04-24T14:09:50.063Z,,,,,,,,,,,,,,,,,54,,,,,,,,,,,,,,389.1690000008093,,response,,,,100,,,,,,,Space,keypress(Space),,,,,,,,-- --- ---- --- ------ ----- ------- ---- -- --- ------- --<br>------- ---------- ------ -- ----- -- ----- -- ---- ------<br>--- ----- --- --- ------ -------- ----- --- ------ ----- --<br>----- ----- ---------- --- --- ------ ------ ---- -- ------<br>------- --- ------ ----- --- ---- ------- -- ---- --- of<br>------- ------,331633.7299999996,331632.5300000008,331226.695,331235.42000000086,331243.361,331643.572,,53,of
screen,html.Screen,2_1_1_1_54,2021-04-24T14:09:50.625Z,,,,,,,,,,,,,,,,,54,,,,,,,,,,,,,,549.4430000007269,,response,,,,100,,,,,,,Space,keypress(Space),,,,,,,,-- --- ---- --- ------ ----- ------- ---- -- --- ------- --<br>------- ---------- ------ -- ----- -- ----- -- ---- ------<br>--- ----- --- --- ------ -------- ----- --- ------ ----- --<br>----- ----- ---------- --- --- ------ ------ ---- -- ------<br>------- --- ------ ----- --- ---- ------- -- ---- --- --<br>raising ------,332195.13000000006,332193.0150000007,331626.906,331633.8850000011,331643.572,332210.385,,54,raising
screen,html.Screen,2_1_1_1_55,2021-04-24T14:09:51.825Z,,,,,,,,,,,,,,,,,54,,,,,,,,,,,,,,1182.4749999999185,,response,,,,100,,,,,,,Space,keypress(Space),,,,,,,,-- --- ---- --- ------ ----- ------- ---- -- --- ------- --<br>------- ---------- ------ -- ----- -- ----- -- ---- ------<br>--- ----- --- --- ------ -------- ----- --- ------ ----- --<br>----- ----- ---------- --- --- ------ ------ ---- -- ------<br>------- --- ------ ----- --- ---- ------- -- ---- --- --<br>------- money.,333395.0249999998,333392.8599999999,332193.719,332195.44000000134,332210.385,333410.42,,55,money.
Item 100,flow.Loop,2_1_1_1,2021-04-24T14:09:51.825Z,,,,,,,,,,,,,,,,,,,,,,,,,,,,,,,45210.53299999994,,completion,,,,,B,,,,,,,,,,,silence,,,,,333395.5750000005,333392.8599999999,288165.661,288167.73000000103,288182.327,333410.42,,,
Question 1,html.Screen,2_1_1_2,2021-04-24T14:09:55.204Z,,,,,,,,,,,,,,,,,,,,,,,,,,,,true,TRUE,,3362.955000000715,,response,,,,100,B,,,,,,TRUE,click #choice-1,,,,silence,,,,,336774.9299999996,336773.3750000007,333393.754,333395.8500000008,333410.42,336777.993,,,
Question 2,html.Screen,2_1_1_3,2021-04-24T14:09:58.166Z,,,,,,,,,,,,,,,,,,,,,,,,,,,,true,FALSE,,2956.867000000435,,response,,,,100,B,,,,,,FALSE,click #choice-2,,,,silence,,,,,339736.64500000083,339734.86000000045,336761.327,336775.1100000005,336777.993,339745.515,,,
Item 100,flow.Sequence,2_1_1,2021-04-24T14:09:58.166Z,,,,,,,,,,,,,,,,,,,,,,,,,,,,,,,61554.78600000043,,completion,,,,,,,,,,,,,,,,,,,,,339736.9150000013,339734.86000000045,278163.408,278167.2900000012,278180.074,339745.515,,,
End of Practice,html.Page,2_1_2,2021-04-24T14:10:02.280Z,,,,,,,,,,,,,,,,,,,,,,,,,,,,,,,4104.745000001043,,form submission,,,,,,,,,,,,,,,,,,,,,343850.62500000093,343850.26000000106,339728.849,339737.0549999996,339745.515,343863.325,,,
Practice,flow.Sequence,2_1,2021-04-24T14:10:02.280Z,,,,,,,,,,,,,,,,,,,,,,,,,,,,,,,117899.81800000105,,completion,,,,,,,,,,,,,,,,,,,,,343850.8750000001,343850.26000000106,225933.776,225943.75000000035,225950.442,343863.325,,,
Trap_instruction,html.Page,2_2_0,2021-04-24T14:10:06.989Z,,,,,,,,,,,,,,,,,,,,,,,,,,,,,,,4696.145000000135,,form submission,,,,,,,,,,,,,,,,,,,,,348559.79500000103,348559.47000000015,343846.659,343851.04500000126,343863.325,348631.029,,,
trap_trial,html.Screen,2_2_1,2021-04-24T14:10:12.374Z,,,,,,,,,,,,,,,,,,,,,,,,,,,,true,1,,5312.256000001216,,response,,,,,,,,,,,1,click #choice-1,,,,,,,,,353944.6950000001,353943.2850000012,348547.699,348559.98,348631.029,353947.742,,,
end of trap trial,html.Page,2_2_2,2021-04-24T14:10:16.719Z,,,,,,,,,,,,,,,,,,,,,,,,,,,,,,,4341.278000000108,,form submission,,,,,,,,,,,,,,,,,,,,,358289.3550000008,358289.02000000014,353931.076,353944.9249999998,353947.742,358300.062,,,
Trap 1,flow.Sequence,2_2,2021-04-24T14:10:16.719Z,,,,,,,,,,,,,,,,,,,,,,,,,,,,,,,14425.695000000123,,completion,,,,,,,,,,,,,,,,,,,,,358289.6300000011,358289.02000000014,343846.659,343850.9900000008,343863.325,358300.062,,,
Standby,html.Page,2_3_0,2021-04-24T14:10:24.714Z,,,,,,,,,,,,,,,,,,,,,,,,,,,,,,,7999.896999999997,,timeout,,,,,,,,,,,,,,,,,,,,,366284.1750000007,366283.293,358283.396,358289.84500000114,358300.062,366299.959,,,
Holding screen,html.Screen,2_3_1_0_0,2021-04-24T14:10:31.718Z,,,,,,,,,,,,,,,,,,,,,,,,,,,,,,,7003.623000000021,,timeout,,,,,,,,,,,,,,,,,,,,,373288.5000000006,373286.916,366283.293,366284.4349999996,366299.959,373303.582,,,
screen,html.Screen,2_3_1_0_1_0,2021-04-24T14:10:34.769Z,,,,,,,,,,,,,,,,,48,,,,,,,,,,,,,,3033.6130000000703,,response,,,,10,B,,,,,,Space,keypress(Space),,,,lyrical,,,,As -- --- ------ ------- --------- ----------- --------<br>--------- -------- --- ------- -- ------- ---- -- ------<br>-- --- -------- -------- ---------- ---- ---- ---- ------<br>-- --------- -- ---- -- --- -- --- ------- -- - -----<br>---------- -- -- -- ---- ----- -- ------ -- --- ------<br>-------,376339.7050000003,376337.19500000007,373286.916,373288.98000000115,373303.582,376353.749,,0,As
screen,html.Screen,2_3_1_0_1_1,2021-04-24T14:10:35.296Z,,,,,,,,,,,,,,,,,48,,,,,,,,,,,,,,511.0760000005248,,response,,,,10,B,,,,,,Space,keypress(Space),,,,lyrical,,,,-- in --- ------ ------- --------- ----------- --------<br>--------- -------- --- ------- -- ------- ---- -- ------<br>-- --- -------- -------- ---------- ---- ---- ---- ------<br>-- --------- -- ---- -- --- -- --- ------- -- - -----<br>---------- -- -- -- ---- ----- -- ------ -- --- ------<br>-------,376866.39500000095,376864.82500000054,376337.083,376340.0500000007,376353.749,376870.855,,1,in
screen,html.Screen,2_3_1_0_1_2,2021-04-24T14:10:35.648Z,,,,,,,,,,,,,,,,,48,,,,,,,,,,,,,,345.9750000012573,,response,,,,10,B,,,,,,Space,keypress(Space),,,,lyrical,,,,-- -- the ------ ------- --------- ----------- --------<br>--------- -------- --- ------- -- ------- ---- -- ------<br>-- --- -------- -------- ---------- ---- ---- ---- ------<br>-- --------- -- ---- -- --- -- --- ------- -- - -----<br>---------- -- -- -- ---- ----- -- ------ -- --- ------<br>-------,377218.48500000127,377216.83000000124,376854.189,376866.68500000087,376870.855,377221.616,,2,the
screen,html.Screen,2_3_1_0_1_3,2021-04-24T14:10:35.968Z,,,,,,,,,,,,,,,,,48,,,,,,,,,,,,,,315.0890000004438,,response,,,,10,B,,,,,,Space,keypress(Space),,,,lyrical,,,,-- -- --- United ------- --------- ----------- --------<br>--------- -------- --- ------- -- ------- ---- -- ------<br>-- --- -------- -------- ---------- ---- ---- ---- ------<br>-- --------- -- ---- -- --- -- --- ------- -- - -----<br>---------- -- -- -- ---- ----- -- ------ -- --- ------<br>-------,377538.0750000004,377536.7050000004,377204.95,377218.88500000024,377221.616,377554.995,,3,United
screen,html.Screen,2_3_1_0_1_4,2021-04-24T14:10:36.336Z,,,,,,,,,,,,,,,,,48,,,,,,,,,,,,,,349.85000000090804,,response,,,,10,B,,,,,,Space,keypress(Space),,,,lyrical,,,,"-- -- --- ------ States, --------- ----------- --------<br>--------- -------- --- ------- -- ------- ---- -- ------<br>-- --- -------- -------- ---------- ---- ---- ---- ------<br>-- --------- -- ---- -- --- -- --- ------- -- - -----<br>---------- -- -- -- ---- ----- -- ------ -- --- ------<br>-------",377906.40999999957,377904.8450000009,377538.329,377538.3750000001,377554.995,377921.792,,4,"States,"
screen,html.Screen,2_3_1_0_1_5,2021-04-24T14:10:36.721Z,,,,,,,,,,,,,,,,,48,,,,,,,,,,,,,,367.52799999981653,,response,,,,10,B,,,,,,Space,keypress(Space),,,,lyrical,,,,-- -- --- ------ ------- Colombian ----------- --------<br>--------- -------- --- ------- -- ------- ---- -- ------<br>-- --- -------- -------- ---------- ---- ---- ---- ------<br>-- --------- -- ---- -- --- -- --- ------- -- - -----<br>---------- -- -- -- ---- ----- -- ------ -- --- ------<br>-------,378291.8900000004,378289.31999999983,377905.126,377906.7100000011,377921.792,378305.161,,5,Colombian
screen,html.Screen,2_3_1_0_1_6,2021-04-24T14:10:37.153Z,,,,,,,,,,,,,,,,,48,,,,,,,,,,,,,,415.86900000058813,,response,,,,10,B,,,,,,Space,keypress(Space),,,,lyrical,,,,-- -- --- ------ ------- --------- legislation --------<br>--------- -------- --- ------- -- ------- ---- -- ------<br>-- --- -------- -------- ---------- ---- ---- ---- ------<br>-- --------- -- ---- -- --- -- --- ------- -- - -----<br>---------- -- -- -- ---- ----- -- ------ -- --- ------<br>-------,378723.4349999999,378721.0300000006,378288.495,378292.1800000004,378305.161,378738.613,,6,legislation
screen,html.Screen,2_3_1_0_1_7,2021-04-24T14:10:37.601Z,,,,,,,,,,,,,,,,,48,,,,,,,,,,,,,,430.3919999997597,,response,,,,10,B,,,,,,Space,keypress(Space),,,,lyrical,,,,-- -- --- ------ ------- --------- ----------- requires<br>--------- -------- --- ------- -- ------- ---- -- ------<br>-- --- -------- -------- ---------- ---- ---- ---- ------<br>-- --------- -- ---- -- --- -- --- ------- -- - -----<br>---------- -- -- -- ---- ----- -- ------ -- --- ------<br>-------,379171.6749999996,379169.0049999998,378721.947,378723.7349999996,378738.613,379188.803,,7,requires
screen,html.Screen,2_3_1_0_1_8,2021-04-24T14:10:38.256Z,,,,,,,,,,,,,,,,,48,,,,,,,,,,,,,,636.0219999997062,,response,,,,10,B,,,,,,Space,keypress(Space),,,,lyrical,,,,-- -- --- ------ ------- --------- ----------- --------<br>travelers -------- --- ------- -- ------- ---- -- ------<br>-- --- -------- -------- ---------- ---- ---- ---- ------<br>-- --------- -- ---- -- --- -- --- ------- -- - -----<br>---------- -- -- -- ---- ----- -- ------ -- --- ------<br>-------,379826.15500000067,379824.8249999997,379172.137,379171.96499999956,379188.803,379838.73,,8,travelers
screen,html.Screen,2_3_1_0_1_9,2021-04-24T14:10:38.674Z,,,,,,,,,,,,,,,,,48,,,,,,,,,,,,,,402.27499999990687,,response,,,,10,B,,,,,,Space,keypress(Space),,,,lyrical,,,,-- -- --- ------ ------- --------- ----------- --------<br>--------- entering --- ------- -- ------- ---- -- ------<br>-- --- -------- -------- ---------- ---- ---- ---- ------<br>-- --------- -- ---- -- --- -- --- ------- -- - -----<br>---------- -- -- -- ---- ----- -- ------ -- --- ------<br>-------,380244.0399999996,380241.0049999999,379822.064,379826.45500000037,379838.73,380255.606,,9,entering
screen,html.Screen,2_3_1_0_1_10,2021-04-24T14:10:39.136Z,,,,,,,,,,,,,,,,,48,,,,,,,,,,,,,,449.2240000005695,,response,,,,10,B,,,,,,Space,keypress(Space),,,,lyrical,,,,-- -- --- ------ ------- --------- ----------- --------<br>--------- -------- the ------- -- ------- ---- -- ------<br>-- --- -------- -------- ---------- ---- ---- ---- ------<br>-- --------- -- ---- -- --- -- --- ------- -- - -----<br>---------- -- -- -- ---- ----- -- ------ -- --- ------<br>-------,380706.40500000084,380704.8300000006,380238.94,380244.38999999984,380255.606,380722.5,,10,the
screen,html.Screen,2_3_1_0_1_11,2021-04-24T14:10:39.761Z,,,,,,,,,,,,,,,,,48,,,,,,,,,,,,,,606.9000000005472,,response,,,,10,B,,,,,,Space,keypress(Space),,,,lyrical,,,,-- -- --- ------ ------- --------- ----------- --------<br>--------- -------- --- country -- ------- ---- -- ------<br>-- --- -------- -------- ---------- ---- ---- ---- ------<br>-- --------- -- ---- -- --- -- --- ------- -- - -----<br>---------- -- -- -- ---- ----- -- ------ -- --- ------<br>-------,381331.9900000006,381329.40000000055,380705.834,380706.70500000054,380722.5,381339.138,,11,country
screen,html.Screen,2_3_1_0_1_12,2021-04-24T14:10:41.408Z,,,,,,,,,,,,,,,,,48,,,,,,,,,,,,,,1637.6919999996317,,response,,,,10,B,,,,,,Space,keypress(Space),,,,lyrical,,,,-- -- --- ------ ------- --------- ----------- --------<br>--------- -------- --- ------- to ------- ---- -- ------<br>-- --- -------- -------- ---------- ---- ---- ---- ------<br>-- --------- -- ---- -- --- -- --- ------- -- - -----<br>---------- -- -- -- ---- ----- -- ------ -- --- ------<br>-------,382978.46500000014,382976.8299999996,381322.472,381332.28000000055,381339.138,382989.405,,12,to
screen,html.Screen,2_3_1_0_1_13,2021-04-24T14:10:42.416Z,,,,,,,,,,,,,,,,,48,,,,,,,,,,,,,,995.4799999998068,,response,,,,10,B,,,,,,Space,keypress(Space),,,,lyrical,,,,-- -- --- ------ ------- --------- ----------- --------<br>--------- -------- --- ------- -- declare ---- -- ------<br>-- --- -------- -------- ---------- ---- ---- ---- ------<br>-- --------- -- ---- -- --- -- --- ------- -- - -----<br>---------- -- -- -- ---- ----- -- ------ -- --- ------<br>-------,383986.5750000008,383984.88499999983,382972.739,382978.8700000008,382989.405,383989.324,,13,declare
screen,html.Screen,2_3_1_0_1_14,2021-04-24T14:10:43.024Z,,,,,,,,,,,,,,,,,48,,,,,,,,,,,,,,603.8410000001895,,response,,,,10,B,,,,,,Space,keypress(Space),,,,lyrical,,,,-- -- --- ------ ------- --------- ----------- --------<br>--------- -------- --- ------- -- ------- cash -- ------<br>-- --- -------- -------- ---------- ---- ---- ---- ------<br>-- --------- -- ---- -- --- -- --- ------- -- - -----<br>---------- -- -- -- ---- ----- -- ------ -- --- ------<br>-------,384594.3299999999,384593.1650000002,383972.658,383986.86500000075,383989.324,384606.547,,14,cash
screen,html.Screen,2_3_1_0_1_15,2021-04-24T14:10:43.807Z,,,,,,,,,,,,,,,,,48,,,,,,,,,,,,,,770.1480000008014,,response,,,,10,B,,,,,,Space,keypress(Space),,,,lyrical,,,,-- -- --- ------ ------- --------- ----------- --------<br>--------- -------- --- ------- -- ------- ---- in ------<br>-- --- -------- -------- ---------- ---- ---- ---- ------<br>-- --------- -- ---- -- --- -- --- ------- -- - -----<br>---------- -- -- -- ---- ----- -- ------ -- --- ------<br>-------,385377.9100000011,385376.6950000008,384589.881,384594.6249999997,384606.547,385390.137,,15,in
screen,html.Screen,2_3_1_0_1_16,2021-04-24T14:10:44.464Z,,,,,,,,,,,,,,,,,48,,,,,,,,,,,,,,643.1280000000261,,response,,,,10,B,,,,,,Space,keypress(Space),,,,lyrical,,,,-- -- --- ------ ------- --------- ----------- --------<br>--------- -------- --- ------- -- ------- ---- -- excess<br>-- --- -------- -------- ---------- ---- ---- ---- ------<br>-- --------- -- ---- -- --- -- --- ------- -- - -----<br>---------- -- -- -- ---- ----- -- ------ -- --- ------<br>-------,386034.88000000105,386033.265,385373.471,385378.2600000013,385390.137,386040.258,,16,excess
screen,html.Screen,2_3_1_0_1_17,2021-04-24T14:10:45.216Z,,,,,,,,,,,,,,,,,48,,,,,,,,,,,,,,745.0419999996084,,response,,,,10,B,,,,,,Space,keypress(Space),,,,lyrical,,,,-- -- --- ------ ------- --------- ----------- --------<br>--------- -------- --- ------- -- ------- ---- -- ------<br>of --- -------- -------- ---------- ---- ---- ---- ------<br>-- --------- -- ---- -- --- -- --- ------- -- - -----<br>---------- -- -- -- ---- ----- -- ------ -- --- ------<br>-------,386786.61000000103,386785.2999999996,386023.592,386035.17500000086,386040.258,386790.478,,17,of
screen,html.Screen,2_3_1_0_1_18,2021-04-24T14:10:45.905Z,,,,,,,,,,,,,,,,,48,,,,,,,,,,,,,,682.8620000004303,,response,,,,10,B,,,,,,Space,keypress(Space),,,,lyrical,,,,-- -- --- ------ ------- --------- ----------- --------<br>--------- -------- --- ------- -- ------- ---- -- ------<br>-- ten -------- -------- ---------- ---- ---- ---- ------<br>-- --------- -- ---- -- --- -- --- ------- -- - -----<br>---------- -- -- -- ---- ----- -- ------ -- --- ------<br>-------,387475.23999999976,387473.34000000043,386773.812,386786.90500000084,386790.478,387490.643,,18,ten
screen,html.Screen,2_3_1_0_1_19,2021-04-24T14:10:46.753Z,,,,,,,,,,,,,,,,,48,,,,,,,,,,,,,,830.4070000004722,,response,,,,10,B,,,,,,Space,keypress(Space),,,,lyrical,,,,-- -- --- ------ ------- --------- ----------- --------<br>--------- -------- --- ------- -- ------- ---- -- ------<br>-- --- thousand -------- ---------- ---- ---- ---- ------<br>-- --------- -- ---- -- --- -- --- ------- -- - -----<br>---------- -- -- -- ---- ----- -- ------ -- --- ------<br>-------,388323.7349999999,388321.05000000045,387473.977,387475.5299999997,387490.643,388340.765,,19,thousand
screen,html.Screen,2_3_1_0_1_20,2021-04-24T14:10:47.328Z,,,,,,,,,,,,,,,,,48,,,,,,,,,,,,,,556.0250000006636,,response,,,,10,B,,,,,,Space,keypress(Space),,,,lyrical,,,,-- -- --- ------ ------- --------- ----------- --------<br>--------- -------- --- ------- -- ------- ---- -- ------<br>-- --- -------- dollars. ---------- ---- ---- ---- ------<br>-- --------- -- ---- -- --- -- --- ------- -- - -----<br>---------- -- -- -- ---- ----- -- ------ -- --- ------<br>-------,388898.1000000003,388896.7900000007,388324.099,388324.0249999999,388340.765,388907.572,,20,dollars.
screen,html.Screen,2_3_1_0_1_21,2021-04-24T14:10:48.272Z,,,,,,,,,,,,,,,,,48,,,,,,,,,,,,,,933.253000001132,,response,,,,10,B,,,,,,Space,keypress(Space),,,,lyrical,,,,-- -- --- ------ ------- --------- ----------- --------<br>--------- -------- --- ------- -- ------- ---- -- ------<br>-- --- -------- -------- Concealing ---- ---- ---- ------<br>-- --------- -- ---- -- --- -- --- ------- -- - -----<br>---------- -- -- -- ---- ----- -- ------ -- --- ------<br>-------,389842.3199999997,389840.8250000011,388890.906,388898.4149999997,388907.572,389857.804,,21,Concealing
screen,html.Screen,2_3_1_0_1_22,2021-04-24T14:10:49.568Z,,,,,,,,,,,,,,,,,48,,,,,,,,,,,,,,1278.9860000004992,,response,,,,10,B,,,,,,Space,keypress(Space),,,,lyrical,,,,-- -- --- ------ ------- --------- ----------- --------<br>--------- -------- --- ------- -- ------- ---- -- ------<br>-- --- -------- -------- ---------- more ---- ---- ------<br>-- --------- -- ---- -- --- -- --- ------- -- - -----<br>---------- -- -- -- ---- ----- -- ------ -- --- ------<br>-------,391138.5499999997,391136.7900000005,389841.138,389842.6149999996,389857.804,391141.414,,22,more
screen,html.Screen,2_3_1_0_1_23,2021-04-24T14:10:50.367Z,,,,,,,,,,,,,,,,,48,,,,,,,,,,,,,,794.940999999817,,response,,,,10,B,,,,,,Space,keypress(Space),,,,lyrical,,,,-- -- --- ------ ------- --------- ----------- --------<br>--------- -------- --- ------- -- ------- ---- -- ------<br>-- --- -------- -------- ---------- ---- than ---- ------<br>-- --------- -- ---- -- --- -- --- ------- -- - -----<br>---------- -- -- -- ---- ----- -- ------ -- --- ------<br>-------,391937.460000001,391936.3549999998,391124.748,391139.00000000105,391141.414,391941.639,,23,than
screen,html.Screen,2_3_1_0_1_24,2021-04-24T14:10:50.895Z,,,,,,,,,,,,,,,,,48,,,,,,,,,,,,,,522.6660000013071,,response,,,,10,B,,,,,,Space,keypress(Space),,,,lyrical,,,,-- -- --- ------ ------- --------- ----------- --------<br>--------- -------- --- ------- -- ------- ---- -- ------<br>-- --- -------- -------- ---------- ---- ---- that ------<br>-- --------- -- ---- -- --- -- --- ------- -- - -----<br>---------- -- -- -- ---- ----- -- ------ -- --- ------<br>-------,392465.5149999999,392464.30500000133,391924.973,391937.64000000013,391941.639,392475.326,,24,that
screen,html.Screen,2_3_1_0_1_25,2021-04-24T14:10:51.503Z,,,,,,,,,,,,,,,,,48,,,,,,,,,,,,,,597.0240000003832,,response,,,,10,B,,,,,,Space,keypress(Space),,,,lyrical,,,,-- -- --- ------ ------- --------- ----------- --------<br>--------- -------- --- ------- -- ------- ---- -- ------<br>-- --- -------- -------- ---------- ---- ---- ---- amount<br>-- --------- -- ---- -- --- -- --- ------- -- - -----<br>---------- -- -- -- ---- ----- -- ------ -- --- ------<br>-------,393073.2650000009,393072.3500000004,392458.66,392465.6900000009,392475.326,393075.524,,25,amount
screen,html.Screen,2_3_1_0_1_26,2021-04-24T14:10:52.033Z,,,,,,,,,,,,,,,,,48,,,,,,,,,,,,,,525.3810000011581,,response,,,,10,B,,,,,,Space,keypress(Space),,,,lyrical,,,,-- -- --- ------ ------- --------- ----------- --------<br>--------- -------- --- ------- -- ------- ---- -- ------<br>-- --- -------- -------- ---------- ---- ---- ---- ------<br>to --------- -- ---- -- --- -- --- ------- -- - -----<br>---------- -- -- -- ---- ----- -- ------ -- --- ------<br>-------,393603.4550000004,393600.90500000113,393058.858,393073.4200000006,393075.524,393608.957,,26,to
screen,html.Screen,2_3_1_0_1_27,2021-04-24T14:10:52.624Z,,,,,,,,,,,,,,,,,48,,,,,,,,,,,,,,584.1880000010715,,response,,,,10,B,,,,,,Space,keypress(Space),,,,lyrical,,,,-- -- --- ------ ------- --------- ----------- --------<br>--------- -------- --- ------- -- ------- ---- -- ------<br>-- --- -------- -------- ---------- ---- ---- ---- ------<br>-- transport -- ---- -- --- -- --- ------- -- - -----<br>---------- -- -- -- ---- ----- -- ------ -- --- ------<br>-------,394194.7650000002,394193.14500000107,393592.291,393603.74500000034,393608.957,394209.153,,27,transport
screen,html.Screen,2_3_1_0_1_28,2021-04-24T14:10:53.088Z,,,,,,,,,,,,,,,,,48,,,,,,,,,,,,,,447.6370000009192,,response,,,,10,B,,,,,,Space,keypress(Space),,,,lyrical,,,,-- -- --- ------ ------- --------- ----------- --------<br>--------- -------- --- ------- -- ------- ---- -- ------<br>-- --- -------- -------- ---------- ---- ---- ---- ------<br>-- --------- it ---- -- --- -- --- ------- -- - -----<br>---------- -- -- -- ---- ----- -- ------ -- --- ------<br>-------,394658.13999999955,394656.7900000009,394192.487,394195.06,394209.153,394675.893,,28,it
screen,html.Screen,2_3_1_0_1_29,2021-04-24T14:10:53.696Z,,,,,,,,,,,,,,,,,48,,,,,,,,,,,,,,589.0020000002696,,response,,,,10,B,,,,,,Space,keypress(Space),,,,lyrical,,,,-- -- --- ------ ------- --------- ----------- --------<br>--------- -------- --- ------- -- ------- ---- -- ------<br>-- --- -------- -------- ---------- ---- ---- ---- ------<br>-- --------- -- into -- --- -- --- ------- -- - -----<br>---------- -- -- -- ---- ----- -- ------ -- --- ------<br>-------,395266.4700000005,395264.89500000025,394659.227,394658.44500000094,394675.893,395275.913,,29,into
screen,html.Screen,2_3_1_0_1_30,2021-04-24T14:10:54.193Z,,,,,,,,,,,,,,,,,48,,,,,,,,,,,,,,484.98700000112876,,response,,,,10,B,,,,,,Space,keypress(Space),,,,lyrical,,,,-- -- --- ------ ------- --------- ----------- --------<br>--------- -------- --- ------- -- ------- ---- -- ------<br>-- --- -------- -------- ---------- ---- ---- ---- ------<br>-- --------- -- ---- or --- -- --- ------- -- - -----<br>---------- -- -- -- ---- ----- -- ------ -- --- ------<br>-------,395763.5250000003,395760.90000000113,395259.247,395266.7650000003,395275.913,395776.086,,30,or
screen,html.Screen,2_3_1_0_1_31,2021-04-24T14:10:54.768Z,,,,,,,,,,,,,,,,,48,,,,,,,,,,,,,,560.7740000012564,,response,,,,10,B,,,,,,Space,keypress(Space),,,,lyrical,,,,-- -- --- ------ ------- --------- ----------- --------<br>--------- -------- --- ------- -- ------- ---- -- ------<br>-- --- -------- -------- ---------- ---- ---- ---- ------<br>-- --------- -- ---- -- out -- --- ------- -- - -----<br>---------- -- -- -- ---- ----- -- ------ -- --- ------<br>-------,396338.96500000084,396336.86000000127,395759.42,395763.8200000001,395776.086,396342.959,,31,out
screen,html.Screen,2_3_1_0_1_32,2021-04-24T14:10:55.216Z,,,,,,,,,,,,,,,,,48,,,,,,,,,,,,,,441.87600000039674,,response,,,,10,B,,,,,,Space,keypress(Space),,,,lyrical,,,,-- -- --- ------ ------- --------- ----------- --------<br>--------- -------- --- ------- -- ------- ---- -- ------<br>-- --- -------- -------- ---------- ---- ---- ---- ------<br>-- --------- -- ---- -- --- of --- ------- -- - -----<br>---------- -- -- -- ---- ----- -- ------ -- --- ------<br>-------,396786.4250000002,396784.83500000037,396326.293,396339.3250000008,396342.959,396793.066,,32,of
screen,html.Screen,2_3_1_0_1_33,2021-04-24T14:10:55.889Z,,,,,,,,,,,,,,,,,48,,,,,,,,,,,,,,664.2389999999432,,response,,,,10,B,,,,,,Space,keypress(Space),,,,lyrical,,,,-- -- --- ------ ------- --------- ----------- --------<br>--------- -------- --- ------- -- ------- ---- -- ------<br>-- --- -------- -------- ---------- ---- ---- ---- ------<br>-- --------- -- ---- -- --- -- the ------- -- - -----<br>---------- -- -- -- ---- ----- -- ------ -- --- ------<br>-------,397459.10999999975,397457.30499999993,396776.4,396786.7150000002,396793.066,397476.586,,33,the
screen,html.Screen,2_3_1_0_1_34,2021-04-24T14:10:56.447Z,,,,,,,,,,,,,,,,,48,,,,,,,,,,,,,,539.7490000002435,,response,,,,10,B,,,,,,Space,keypress(Space),,,,lyrical,,,,-- -- --- ------ ------- --------- ----------- --------<br>--------- -------- --- ------- -- ------- ---- -- ------<br>-- --- -------- -------- ---------- ---- ---- ---- ------<br>-- --------- -- ---- -- --- -- --- country -- - -----<br>---------- -- -- -- ---- ----- -- ------ -- --- ------<br>-------,398017.26000000053,398016.33500000025,397459.92,397459.4749999996,397476.586,398026.573,,34,country
screen,html.Screen,2_3_1_0_1_35,2021-04-24T14:10:57.041Z,,,,,,,,,,,,,,,,,48,,,,,,,,,,,,,,582.4070000009378,,response,,,,10,B,,,,,,Space,keypress(Space),,,,lyrical,,,,-- -- --- ------ ------- --------- ----------- --------<br>--------- -------- --- ------- -- ------- ---- -- ------<br>-- --- -------- -------- ---------- ---- ---- ---- ------<br>-- --------- -- ---- -- --- -- --- ------- is - -----<br>---------- -- -- -- ---- ----- -- ------ -- --- ------<br>-------,398611.6949999996,398608.9800000009,398009.907,398017.41500000027,398026.573,398626.807,,35,is
screen,html.Screen,2_3_1_0_1_36,2021-04-24T14:10:57.632Z,,,,,,,,,,,,,,,,,48,,,,,,,,,,,,,,573.7930000001215,,response,,,,10,B,,,,,,Space,keypress(Space),,,,lyrical,,,,-- -- --- ------ ------- --------- ----------- --------<br>--------- -------- --- ------- -- ------- ---- -- ------<br>-- --- -------- -------- ---------- ---- ---- ---- ------<br>-- --------- -- ---- -- --- -- --- ------- -- a -----<br>---------- -- -- -- ---- ----- -- ------ -- --- ------<br>-------,399202.10000000044,399200.6000000001,398610.141,398612.000000001,398626.807,399210.312,,36,a
screen,html.Screen,2_3_1_0_1_37,2021-04-24T14:10:58.368Z,,,,,,,,,,,,,,,,,48,,,,,,,,,,,,,,726.6330000013113,,response,,,,10,B,,,,,,Space,keypress(Space),,,,lyrical,,,,-- -- --- ------ ------- --------- ----------- --------<br>--------- -------- --- ------- -- ------- ---- -- ------<br>-- --- -------- -------- ---------- ---- ---- ---- ------<br>-- --------- -- ---- -- --- -- --- ------- -- - crime<br>---------- -- -- -- ---- ----- -- ------ -- --- ------<br>-------,399938.78500000027,399936.9450000013,399193.646,399202.40000000014,399210.312,399943.814,,37,crime
screen,html.Screen,2_3_1_0_1_38,2021-04-24T14:10:58.881Z,,,,,,,,,,,,,,,,,48,,,,,,,,,,,,,,505.231000001193,,response,,,,10,B,,,,,,Space,keypress(Space),,,,lyrical,,,,-- -- --- ------ ------- --------- ----------- --------<br>--------- -------- --- ------- -- ------- ---- -- ------<br>-- --- -------- -------- ---------- ---- ---- ---- ------<br>-- --------- -- ---- -- --- -- --- ------- -- - -----<br>punishable -- -- -- ---- ----- -- ------ -- --- ------<br>-------,400451.7200000009,400449.0450000012,399927.148,399939.1649999998,399943.814,400460.599,,38,punishable
screen,html.Screen,2_3_1_0_1_39,2021-04-24T14:10:59.376Z,,,,,,,,,,,,,,,,,48,,,,,,,,,,,,,,484.2760000010603,,response,,,,10,B,,,,,,Space,keypress(Space),,,,lyrical,,,,-- -- --- ------ ------- --------- ----------- --------<br>--------- -------- --- ------- -- ------- ---- -- ------<br>-- --- -------- -------- ---------- ---- ---- ---- ------<br>-- --------- -- ---- -- --- -- --- ------- -- - -----<br>---------- by -- -- ---- ----- -- ------ -- --- ------<br>-------,400946.4550000011,400944.87500000105,400443.933,400452.0100000009,400460.599,400960.786,,39,by
screen,html.Screen,2_3_1_0_1_40,2021-04-24T14:10:59.808Z,,,,,,,,,,,,,,,,,48,,,,,,,,,,,,,,416.08400000003166,,response,,,,10,B,,,,,,Space,keypress(Space),,,,lyrical,,,,-- -- --- ------ ------- --------- ----------- --------<br>--------- -------- --- ------- -- ------- ---- -- ------<br>-- --- -------- -------- ---------- ---- ---- ---- ------<br>-- --------- -- ---- -- --- -- --- ------- -- - -----<br>---------- -- up -- ---- ----- -- ------ -- --- ------<br>-------,401378.5250000001,401376.87000000005,400944.12,400946.7550000008,400960.786,401394.152,,40,up
screen,html.Screen,2_3_1_0_1_41,2021-04-24T14:11:00.208Z,,,,,,,,,,,,,,,,,48,,,,,,,,,,,,,,382.64799999963725,,response,,,,10,B,,,,,,Space,keypress(Space),,,,lyrical,,,,-- -- --- ------ ------- --------- ----------- --------<br>--------- -------- --- ------- -- ------- ---- -- ------<br>-- --- -------- -------- ---------- ---- ---- ---- ------<br>-- --------- -- ---- -- --- -- --- ------- -- - -----<br>---------- -- -- to ---- ----- -- ------ -- --- ------<br>-------,401778.1900000009,401776.79999999964,401377.486,401378.93000000075,401394.152,401794.298,,41,to
