sender,sender_type,sender_id,timestamp,meta,,Blues,Classical,Country,Dance,Electronic,Folk,Gospel,Hip-Hop,Jazz,Latin,Musical/Film,New-age,Pop,Prolific_id,Provo_ID,R&B,Rap,Reggae,Religious,Rock,Soul,Swing,Traditional,age,artist_name,correct,correctResponse,distraction,duration,education,ended_on,familiarity,gender,headphone_check_performance,item,list,music_frequency,offensiveness,pleasantness,position_correct,preference,response,response_action,snippet_file,song_name,song_rating,sound,stimulus_1,stimulus_2,stimulus_3,text,time_commit,time_end,time_render,time_run,time_show,time_switch,url,word,word_ID
Prolific ID,html.Form,0,2021-04-24T12:29:27.081Z,"{""labjs_version"":""20.2.2"",""labjs_build"":{""flavor"":""production"",""commit"":""a25486e0c714a0ae2ce03ff94b7bb6896854dcfa""},""location"":""https://run.pavlovia.org/mvasilev/prolific_music_a/"",""userAgent"":""Mozilla/5.0 (Macintosh; Intel Mac OS X 10_15_5) AppleWebKit/537.36 (KHTML, like Gecko) Chrome/89.0.4389.114 Safari/537.36"",""platform"":""MacIntel"",""language"":""en-GB"",""locale"":""en-GB"",""timeZone"":""Europe/London"",""timezoneOffset"":-60,""screen_width"":1680,""screen_height"":1050,""scroll_width"":1680,""scroll_height"":868,""window_innerWidth"":1680,""window_innerHeight"":916,""devicePixelRatio"":2}",,,,,,,,,,,,,,,602036a3e37c955d830d2356,,,,,,,,,,,,,,,4044.89800000123,,form submission,,,,,,,,,,,,,,,,,,,,,11448.205000022426,11447.82000000123,7386.256,7397.02999999281,7402.922,11460.466,{},,
Introduction,html.Screen,1_0,2021-04-24T12:29:34.067Z,,,,,,,,,,,,,,,,,,,,,,,,,,,,,,,6970.128999983441,,response,,,,,,,,,,,continue,click button,,,,,,,,,18434.545000025537,18430.59499998344,11443.8,11448.480000020936,11460.466,18443.52,,,
Volume calibration,html.Screen,1_1,2021-04-24T12:29:56.048Z,,,,,,,,,,,,,,,,,,,,,,,,,,,,,,,21966.939999984595,,response,,,,,,,,,,,continue,click button,,,,,,,,,40415.31999997096,40410.459999984596,18426.854,18434.729999979027,18443.52,40425.704,,,
Task instructions,html.Screen,1_2,2021-04-24T12:30:13.463Z,,,,,,,,,,,,,,,,,,,,,,,,,,,,,,,17402.261000004044,,response,,,,,,,,,,,continue,click button,,,,,,,,,57830.394999997225,57827.96500000404,40409.038,40415.43499997351,40425.704,57837.236,,,
Sounds,html.Screen,1_3_0_0,2021-04-24T12:30:17.707Z,,,,,,,,,,,,,,,,,,,,,,,,,,,,,,,4249.830000000002,,timeout,,,,,,,,,2,,,,,,,,O,S,I,,62074.87999997102,62070.4,57820.57,57830.68499999354,57837.236,62087.066,,,
Judgement,html.Screen,1_3_0_1,2021-04-24T12:30:19.122Z,,,,,,,,,,,,,,,,,,,,,,,,,,,,true,2,,1400.1589999898497,,response,,,,,,,,,2,,2,click #choice-2,,,,,O,S,I,,63489.950000017416,63487.22499998985,62070.4,62075.04999998491,62087.066,63504.976,,,
Trial,flow.Sequence,1_3_0,2021-04-24T12:30:19.123Z,,,,,,,,,,,,,,,,,,,,,,,,,,,,,,,5649.988999989851,,completion,,,,,,,,,2,,,,,,,,O,S,I,,63490.3199999826,63487.22499998985,57820.57,57830.61499998439,57837.236,63504.976,,,
Sounds,html.Screen,1_3_1_0,2021-04-24T12:30:23.373Z,,,,,,,,,,,,,,,,,,,,,,,,,,,,,,,4249.8299999999945,,timeout,,,,,,,,,2,,,,,,,,I,S,O,,67740.57500000345,67738.14,63488.31,63490.4899999965,63504.976,67754.806,,,
Judgement,html.Screen,1_3_1_1,2021-04-24T12:30:24.467Z,,,,,,,,,,,,,,,,,,,,,,,,,,,,true,2,,1078.059000003952,,response,,,,,,,,,2,,2,click #choice-2,,,,,I,S,O,,68834.97999998508,68832.86500000395,67738.14,67740.80500000855,67754.806,68838.096,,,
Trial,flow.Sequence,1_3_1,2021-04-24T12:30:24.467Z,,,,,,,,,,,,,,,,,,,,,,,,,,,,,,,5327.889000003946,,completion,,,,,,,,,2,,,,,,,,I,S,O,,68835.16000001691,68832.86500000395,63488.31,63490.434999985155,63504.976,68838.096,,,
Sounds,html.Screen,1_3_2_0,2021-04-24T12:30:28.706Z,,,,,,,,,,,,,,,,,,,,,,,,,,,,,,,4249.830000000002,,timeout,,,,,,,,,3,,,,,,,,I,O,S,,73073.86499998393,73071.26,68821.43,68835.27999999933,68838.096,73087.926,,,
Judgement,html.Screen,1_3_2_1,2021-04-24T12:30:29.296Z,,,,,,,,,,,,,,,,,,,,,,,,,,,,true,3,,573.5240000141494,,response,,,,,,,,,3,,3,click #choice-3,,,,,I,O,S,,73663.28500001691,73661.45000001416,73071.26,73074.05499997549,73087.926,73675.908,,,
Trial,flow.Sequence,1_3_2,2021-04-24T12:30:29.296Z,,,,,,,,,,,,,,,,,,,,,,,,,,,,,,,4823.354000014151,,completion,,,,,,,,,3,,,,,,,,I,O,S,,73663.57500001322,73661.45000001416,68821.43,68835.23500000592,68838.096,73675.908,,,
Sounds,html.Screen,1_3_3_0,2021-04-24T12:30:33.543Z,,,,,,,,,,,,,,,,,,,,,,,,,,,,,,,4249.830000000002,,timeout,,,,,,,,,1,,,,,,,,S,O,I,,77910.35499999998,77909.072,73659.242,73663.72999997111,73675.908,77925.738,,,
Judgement,html.Screen,1_3_3_1,2021-04-24T12:30:34.023Z,,,,,,,,,,,,,,,,,,,,,,,,,,,,true,1,,463.1269999862561,,response,,,,,,,,,1,,1,click #choice-1,,,,,S,O,I,,78390.73500002269,78388.86499998625,77909.072,77910.4749999824,77925.738,78392.386,,,
Trial,flow.Sequence,1_3_3,2021-04-24T12:30:34.023Z,,,,,,,,,,,,,,,,,,,,,,,,,,,,,,,4712.956999986258,,completion,,,,,,,,,1,,,,,,,,S,O,I,,78390.92999999411,78388.86499998625,73659.242,73663.6699999799,73675.908,78392.386,,,
Sounds,html.Screen,1_3_4_0,2021-04-24T12:30:38.259Z,,,,,,,,,,,,,,,,,,,,,,,,,,,,,,,4249.830000000002,,timeout,,,,,,,,,3,,,,,,,,O,I,S,,82626.99499999871,82625.55,78375.72,78391.07499999227,78392.386,82642.216,,,
Judgement,html.Screen,1_3_4_1,2021-04-24T12:30:38.847Z,,,,,,,,,,,,,,,,,,,,,,,,,,,,true,3,,569.9039999819506,,response,,,,,,,,,3,,3,click #choice-3,,,,,O,I,S,,83214.37000000151,83212.11999998195,82625.55,82627.11499998113,82642.216,83225.526,,,
Trial,flow.Sequence,1_3_4,2021-04-24T12:30:38.847Z,,,,,,,,,,,,,,,,,,,,,,,,,,,,,,,4819.733999981952,,completion,,,,,,,,,3,,,,,,,,O,I,S,,83214.56499997294,83212.11999998195,78375.72,78391.01500000106,78392.386,83225.526,,,
Sounds,html.Screen,1_3_5_0,2021-04-24T12:30:43.099Z,,,,,,,,,,,,,,,,,,,,,,,,,,,,,,,4256.482000000004,,timeout,,,,,,,,,1,,,,,,,,S,I,O,,87466.89500001958,87465.342,83208.86,83214.68999999342,83225.526,87482.008,,,
Judgement,html.Screen,1_3_5_1,2021-04-24T12:30:43.591Z,,,,,,,,,,,,,,,,,,,,,,,,,,,,true,1,,474.76699996963725,,response,,,,,,,,,1,,1,click #choice-1,,,,,S,I,O,,87959.0249999892,87956.77499996964,87465.342,87467.08500001114,87482.008,87965.322,,,
Trial,flow.Sequence,1_3_5,2021-04-24T12:30:43.591Z,,,,,,,,,,,,,,,,,,,,,,,,,,,,,,,4731.248999969641,,completion,,,,,,,,,1,,,,,,,,S,I,O,,87959.2100000009,87956.77499996964,83208.86,83214.64999997988,83225.526,87965.322,,,
Task,flow.Loop,1_3,2021-04-24T12:30:43.596Z,,,,,,,,,,,,,,,,,,,,,,,,,,,,,,,30119.53899996964,,completion,,,1,,,,,,,,,,,,,,,,,,87963.50499999244,87956.77499996964,57820.57,57830.53999999538,57837.236,87965.322,,,
Trap,html.Screen,1_4,2021-04-24T12:30:43.598Z,,,,,,,,,,,,,,,,,,,,,,,,,,,,,,,NaN,,skipped,,,,,,,,,,,,,,,,,,,,,87965.62500001164,87956.77499996964,,87965.51999996882,,87965.322,,,
Thanks,html.Screen,1_5,2021-04-24T12:31:04.320Z,,,,,,,,,,,,,,,,,,,,,,,,,,,,,,,20720.673000007097,,response,,,,,,,,,,,continue,click button,,,,,,,,,108687.37499997951,108685.9950000071,87948.656,87965.71999997832,87965.322,112792.794,,,
Headphone screening,flow.Sequence,1,2021-04-24T12:31:04.320Z,,,,,,,,,,,,,,,,,,,,,,,,,,,,,,,97225.5290000071,,completion,,,,,,,,,,,,,,,,,,,,,108687.5299999956,108685.9950000071,11443.8,11448.450000025332,11460.466,112792.794,,,
Instructions,html.Page,2_0,2021-04-24T12:31:32.689Z,,,,,,,,,,,,,,,,,,,,,,,,,,,,,,,24263.64099997678,,form submission,,,,,,,,,,,,,,,,,,,,,137056.68999999762,137056.43499997677,112776.128,112776.2099999818,112792.794,137069.601,,,
Holding screen,html.Screen,2_1_0_0,2021-04-24T12:31:42.679Z,,,,,,,,,,,,,,,,,,,,,,,,,,,,,,,9992.087,,timeout,,,,,,,,,,,,,,,,,,,,,147046.8450000044,147045.022,137052.935,137056.89499998698,137069.601,147061.688,,,
screen,html.Screen,2_1_0_1_0,2021-04-24T12:31:43.344Z,,,,,,,,,,,,,,,,,53,,,,,,,,,,,,,,645.9919999922568,,response,,,,99,,,,,,,Space,keypress(Space),,,,,,,,When -- ----- -- ------ - ------- --- ----------<br>------------- ------ ------ ---- ---- ------- ----- -- ----<br>-------- ------- -- ---------- --- - --- ----- ----- ----<br>---- --- --- ----- --- ---- ---- ------- ----- ---- -------<br>--- --- -- ----- -- --- ---- -- --- ---- -- ------ ------<br>--- ----- -- ----,147712.4649999896,147707.67999999225,147045.022,147047.1350000007,147061.688,147728.328,,0,When
screen,html.Screen,2_1_0_1_1,2021-04-24T12:31:43.784Z,,,,,,,,,,,,,,,,,53,,,,,,,,,,,,,,420.02700001207995,,response,,,,99,,,,,,,Space,keypress(Space),,,,,,,,---- it ----- -- ------ - ------- --- ----------<br>------------- ------ ------ ---- ---- ------- ----- -- ----<br>-------- ------- -- ---------- --- - --- ----- ----- ----<br>---- --- --- ----- --- ---- ---- ------- ----- ---- -------<br>--- --- -- ----- -- --- ---- -- --- ---- -- ------ ------<br>--- ----- -- ----,148152.37500000512,148148.3550000121,147711.662,147712.58499997202,147728.328,148165.966,,1,it
screen,html.Screen,2_1_0_1_2,2021-04-24T12:31:44.285Z,,,,,,,,,,,,,,,,,53,,,,,,,,,,,,,,482.289000007353,,response,,,,99,,,,,,,Space,keypress(Space),,,,,,,,---- -- comes -- ------ - ------- --- ----------<br>------------- ------ ------ ---- ---- ------- ----- -- ----<br>-------- ------- -- ---------- --- - --- ----- ----- ----<br>---- --- --- ----- --- ---- ---- ------- ----- ---- -------<br>--- --- -- ----- -- --- ---- -- --- ---- -- ------ ------<br>--- ----- -- ----,148653.0700000003,148648.25500000734,148149.3,148152.49499998754,148165.966,148665.946,,2,comes
screen,html.Screen,2_1_0_1_3,2021-04-24T12:31:44.641Z,,,,,,,,,,,,,,,,,53,,,,,,,,,,,,,,338.4290000186302,,response,,,,99,,,,,,,Space,keypress(Space),,,,,,,,---- -- ----- to ------ - ------- --- ----------<br>------------- ------ ------ ---- ---- ------- ----- -- ----<br>-------- ------- -- ---------- --- - --- ----- ----- ----<br>---- --- --- ----- --- ---- ---- ------- ----- ---- -------<br>--- --- -- ----- -- --- ---- -- --- ---- -- ------ ------<br>--- ----- -- ----,149008.54000000982,149004.37500001863,148649.28,148653.18500000285,148665.946,149015.932,,3,to
screen,html.Screen,2_1_0_1_4,2021-04-24T12:31:45.017Z,,,,,,,,,,,,,,,,,53,,,,,,,,,,,,,,365.36800000819494,,response,,,,99,,,,,,,Space,keypress(Space),,,,,,,,---- -- ----- -- having - ------- --- ----------<br>------------- ------ ------ ---- ---- ------- ----- -- ----<br>-------- ------- -- ---------- --- - --- ----- ----- ----<br>---- --- --- ----- --- ---- ---- ------- ----- ---- -------<br>--- --- -- ----- -- --- ---- -- --- ---- -- ------ ------<br>--- ----- -- ----,149384.91999998223,149381.3000000082,148999.266,149008.64000001457,149015.932,149399.25,,4,having
screen,html.Screen,2_1_0_1_5,2021-04-24T12:31:45.647Z,,,,,,,,,,,,,,,,,53,,,,,,,,,,,,,,611.7750000143424,,response,,,,99,,,,,,,Space,keypress(Space),,,,,,,,---- -- ----- -- ------ a ------- --- ----------<br>------------- ------ ------ ---- ---- ------- ----- -- ----<br>-------- ------- -- ---------- --- - --- ----- ----- ----<br>---- --- --- ----- --- ---- ---- ------- ----- ---- -------<br>--- --- -- ----- -- --- ---- -- --- ---- -- ------ ------<br>--- ----- -- ----,150015.2099999832,150011.02500001434,149382.584,149385.01500000712,149399.25,150015.892,,5,a
screen,html.Screen,2_1_0_1_6,2021-04-24T12:31:46.106Z,,,,,,,,,,,,,,,,,53,,,,,,,,,,,,,,453.363000003621,,response,,,,99,,,,,,,Space,keypress(Space),,,,,,,,---- -- ----- -- ------ - lasting --- ----------<br>------------- ------ ------ ---- ---- ------- ----- -- ----<br>-------- ------- -- ---------- --- - --- ----- ----- ----<br>---- --- --- ----- --- ---- ---- ------- ----- ---- -------<br>--- --- -- ----- -- --- ---- -- --- ---- -- ------ ------<br>--- ----- -- ----,150473.72499998892,150469.2550000036,149999.226,150015.33000002382,150015.892,150482.54,,6,lasting
screen,html.Screen,2_1_0_1_7,2021-04-24T12:31:46.486Z,,,,,,,,,,,,,,,,,53,,,,,,,,,,,,,,367.7049999796145,,response,,,,99,,,,,,,Space,keypress(Space),,,,,,,,---- -- ----- -- ------ - ------- and ----------<br>------------- ------ ------ ---- ---- ------- ----- -- ----<br>-------- ------- -- ---------- --- - --- ----- ----- ----<br>---- --- --- ----- --- ---- ---- ------- ----- ---- -------<br>--- --- -- ----- -- --- ---- -- --- ---- -- ------ ------<br>--- ----- -- ----,150853.56999997748,150850.24499997962,150465.874,150473.84499997133,150482.54,150865.858,,7,and
screen,html.Screen,2_1_0_1_8,2021-04-24T12:31:46.853Z,,,,,,,,,,,,,,,,,53,,,,,,,,,,,,,,352.43699996965006,,response,,,,99,,,,,,,Space,keypress(Space),,,,,,,,---- -- ----- -- ------ - ------- --- fulfilling<br>------------- ------ ------ ---- ---- ------- ----- -- ----<br>-------- ------- -- ---------- --- - --- ----- ----- ----<br>---- --- --- ----- --- ---- ---- ------- ----- ---- -------<br>--- --- -- ----- -- --- ---- -- --- ---- -- ------ ------<br>--- ----- -- ----,151221.04999999283,151218.29499996966,150849.192,150853.6600000225,150865.858,151232.51,,8,fulfilling
screen,html.Screen,2_1_0_1_9,2021-04-24T12:31:47.259Z,,,,,,,,,,,,,,,,,53,,,,,,,,,,,,,,390.7599999818485,,response,,,,99,,,,,,,Space,keypress(Space),,,,,,,,"---- -- ----- -- ------ - ------- --- ----------<br>relationship, ------ ------ ---- ---- ------- ----- -- ----<br>-------- ------- -- ---------- --- - --- ----- ----- ----<br>---- --- --- ----- --- ---- ---- ------- ----- ---- -------<br>--- --- -- ----- -- --- ---- -- --- ---- -- ------ ------<br>--- ----- -- ----",151627.34000000637,151623.26999998186,151215.844,151221.1300000199,151232.51,151632.494,,9,"relationship,"
screen,html.Screen,2_1_0_1_10,2021-04-24T12:31:47.868Z,,,,,,,,,,,,,,,,,53,,,,,,,,,,,,,,599.6360000185086,,response,,,,99,,,,,,,Space,keypress(Space),,,,,,,,---- -- ----- -- ------ - ------- --- ----------<br>------------- common ------ ---- ---- ------- ----- -- ----<br>-------- ------- -- ---------- --- - --- ----- ----- ----<br>---- --- --- ----- --- ---- ---- ------- ----- ---- -------<br>--- --- -- ----- -- --- ---- -- --- ---- -- ------ ------<br>--- ----- -- ----,152235.77999998815,152232.13000001851,151615.828,151627.4599999888,151632.494,152249.136,,10,common
screen,html.Screen,2_1_0_1_11,2021-04-24T12:31:48.286Z,,,,,,,,,,,,,,,,,53,,,,,,,,,,,,,,401.01899998117005,,response,,,,99,,,,,,,Space,keypress(Space),,,,,,,,---- -- ----- -- ------ - ------- --- ----------<br>------------- ------ wisdom ---- ---- ------- ----- -- ----<br>-------- ------- -- ---------- --- - --- ----- ----- ----<br>---- --- --- ----- --- ---- ---- ------- ----- ---- -------<br>--- --- -- ----- -- --- ---- -- --- ---- -- ------ ------<br>--- ----- -- ----,152654.114999983,152650.15499998117,152232.47,152235.8649999951,152249.136,152665.786,,11,wisdom
screen,html.Screen,2_1_0_1_12,2021-04-24T12:31:48.797Z,,,,,,,,,,,,,,,,,53,,,,,,,,,,,,,,495.38900001565344,,response,,,,99,,,,,,,Space,keypress(Space),,,,,,,,---- -- ----- -- ------ - ------- --- ----------<br>------------- ------ ------ says ---- ------- ----- -- ----<br>-------- ------- -- ---------- --- - --- ----- ----- ----<br>---- --- --- ----- --- ---- ---- ------- ----- ---- -------<br>--- --- -- ----- -- --- ---- -- --- ---- -- ------ ------<br>--- ----- -- ----,153165.18000001088,153161.17500001565,152649.12,152654.23500002362,152665.786,153165.766,,12,says
screen,html.Screen,2_1_0_1_13,2021-04-24T12:31:49.239Z,,,,,,,,,,,,,,,,,53,,,,,,,,,,,,,,436.4340000230004,,response,,,,99,,,,,,,Space,keypress(Space),,,,,,,,---- -- ----- -- ------ - ------- --- ----------<br>------------- ------ ------ ---- that ------- ----- -- ----<br>-------- ------- -- ---------- --- - --- ----- ----- ----<br>---- --- --- ----- --- ---- ---- ------- ----- ---- -------<br>--- --- -- ----- -- --- ---- -- --- ---- -- ------ ------<br>--- ----- -- ----,153606.96000000462,153602.200000023,153149.1,153165.30499997316,153165.766,153615.748,,13,that
screen,html.Screen,2_1_0_1_14,2021-04-24T12:31:49.686Z,,,,,,,,,,,,,,,,,53,,,,,,,,,,,,,,434.45199999786564,,response,,,,99,,,,,,,Space,keypress(Space),,,,,,,,---- -- ----- -- ------ - ------- --- ----------<br>------------- ------ ------ ---- ---- feeling ----- -- ----<br>-------- ------- -- ---------- --- - --- ----- ----- ----<br>---- --- --- ----- --- ---- ---- ------- ----- ---- -------<br>--- --- -- ----- -- --- ---- -- --- ---- -- ------ ------<br>--- ----- -- ----,154054.14999998175,154050.19999999786,153599.082,153607.07999998704,153615.748,154065.73,,14,feeling
screen,html.Screen,2_1_0_1_15,2021-04-24T12:31:50.107Z,,,,,,,,,,,,,,,,,53,,,,,,,,,,,,,,405.2150000082038,,response,,,,99,,,,,,,Space,keypress(Space),,,,,,,,---- -- ----- -- ------ - ------- --- ----------<br>------------- ------ ------ ---- ---- ------- close -- ----<br>-------- ------- -- ---------- --- - --- ----- ----- ----<br>---- --- --- ----- --- ---- ---- ------- ----- ---- -------<br>--- --- -- ----- -- --- ---- -- --- ---- -- ------ ------<br>--- ----- -- ----,154474.7099999804,154470.9450000082,154049.064,154054.27000002237,154065.73,154482.38,,15,close
screen,html.Screen,2_1_0_1_16,2021-04-24T12:31:50.459Z,,,,,,,,,,,,,,,,,53,,,,,,,,,,,,,,341.71000000915956,,response,,,,99,,,,,,,Space,keypress(Space),,,,,,,,---- -- ----- -- ------ - ------- --- ----------<br>------------- ------ ------ ---- ---- ------- ----- to ----<br>-------- ------- -- ---------- --- - --- ----- ----- ----<br>---- --- --- ----- --- ---- ---- ------- ----- ---- -------<br>--- --- -- ----- -- --- ---- -- --- ---- -- ------ ------<br>--- ----- -- ----,154827.0800000173,154824.09000000916,154465.714,154474.83000002103,154482.38,154832.366,,16,to
screen,html.Screen,2_1_0_1_17,2021-04-24T12:31:50.817Z,,,,,,,,,,,,,,,,,53,,,,,,,,,,,,,,348.73399998704554,,response,,,,99,,,,,,,Space,keypress(Space),,,,,,,,---- -- ----- -- ------ - ------- --- ----------<br>------------- ------ ------ ---- ---- ------- ----- -- your<br>-------- ------- -- ---------- --- - --- ----- ----- ----<br>---- --- --- ----- --- ---- ---- ------- ----- ---- -------<br>--- --- -- ----- -- --- ---- -- --- ---- -- ------ ------<br>--- ----- -- ----,155185.01499999547,155181.09999998705,154815.7,154827.17499998398,154832.366,155199.018,,17,your
screen,html.Screen,2_1_0_1_18,2021-04-24T12:31:51.248Z,,,,,,,,,,,,,,,,,53,,,,,,,,,,,,,,413.2219999876397,,response,,,,99,,,,,,,Space,keypress(Space),,,,,,,,---- -- ----- -- ------ - ------- --- ----------<br>------------- ------ ------ ---- ---- ------- ----- -- ----<br>romantic ------- -- ---------- --- - --- ----- ----- ----<br>---- --- --- ----- --- ---- ---- ------- ----- ---- -------<br>--- --- -- ----- -- --- ---- -- --- ---- -- ------ ------<br>--- ----- -- ----,155616.31000001216,155612.23999998765,155182.352,155185.11000002036,155199.018,155632.334,,18,romantic
screen,html.Screen,2_1_0_1_19,2021-04-24T12:31:51.619Z,,,,,,,,,,,,,,,,,53,,,,,,,,,,,,,,351.57099997185287,,response,,,,99,,,,,,,Space,keypress(Space),,,,,,,,---- -- ----- -- ------ - ------- --- ----------<br>------------- ------ ------ ---- ---- ------- ----- -- ----<br>-------- partner -- ---------- --- - --- ----- ----- ----<br>---- --- --- ----- --- ---- ---- ------- ----- ---- -------<br>--- --- -- ----- -- --- ---- -- --- ---- -- ------ ------<br>--- ----- -- ----,155986.68999999063,155983.90499997186,155615.668,155616.42999999458,155632.334,155998.986,,19,partner
screen,html.Screen,2_1_0_1_20,2021-04-24T12:31:52.003Z,,,,,,,,,,,,,,,,,53,,,,,,,,,,,,,,368.0839999784075,,response,,,,99,,,,,,,Space,keypress(Space),,,,,,,,---- -- ----- -- ------ - ------- --- ----------<br>------------- ------ ------ ---- ---- ------- ----- -- ----<br>-------- ------- is ---------- --- - --- ----- ----- ----<br>---- --- --- ----- --- ---- ---- ------- ----- ---- -------<br>--- --- -- ----- -- --- ---- -- --- ---- -- ------ ------<br>--- ----- -- ----,156370.5450000125,156367.0699999784,155982.32,155986.79499997525,155998.986,156382.304,,20,is
screen,html.Screen,2_1_0_1_21,2021-04-24T12:31:52.435Z,,,,,,,,,,,,,,,,,53,,,,,,,,,,,,,,416.7409999924712,,response,,,,99,,,,,,,Space,keypress(Space),,,,,,,,---- -- ----- -- ------ - ------- --- ----------<br>------------- ------ ------ ---- ---- ------- ----- -- ----<br>-------- ------- -- paramount. --- - --- ----- ----- ----<br>---- --- --- ----- --- ---- ---- ------- ----- ---- -------<br>--- --- -- ----- -- --- ---- -- --- ---- -- ------ ------<br>--- ----- -- ----,156802.94000002323,156799.04499999247,156365.638,156370.63999997918,156382.304,156815.62,,21,paramount.
screen,html.Screen,2_1_0_1_22,2021-04-24T12:31:52.897Z,,,,,,,,,,,,,,,,,53,,,,,,,,,,,,,,445.41499997407664,,response,,,,99,,,,,,,Space,keypress(Space),,,,,,,,---- -- ----- -- ------ - ------- --- ----------<br>------------- ------ ------ ---- ---- ------- ----- -- ----<br>-------- ------- -- ---------- But - --- ----- ----- ----<br>---- --- --- ----- --- ---- ---- ------- ----- ---- -------<br>--- --- -- ----- -- --- ---- -- --- ---- -- ------ ------<br>--- ----- -- ----,157264.84999997774,157261.03499997407,156798.954,156803.06000000564,156815.62,157265.602,,22,But
screen,html.Screen,2_1_0_1_23,2021-04-24T12:31:53.293Z,,,,,,,,,,,,,,,,,53,,,,,,,,,,,,,,391.5179999889224,,response,,,,99,,,,,,,Space,keypress(Space),,,,,,,,---- -- ----- -- ------ - ------- --- ----------<br>------------- ------ ------ ---- ---- ------- ----- -- ----<br>-------- ------- -- ---------- --- a --- ----- ----- ----<br>---- --- --- ----- --- ---- ---- ------- ----- ---- -------<br>--- --- -- ----- -- --- ---- -- --- ---- -- ------ ------<br>--- ----- -- ----,157660.9949999838,157657.11999998894,157248.936,157264.9649999803,157265.602,157665.586,,23,a
screen,html.Screen,2_1_0_1_24,2021-04-24T12:31:54.553Z,,,,,,,,,,,,,,,,,53,,,,,,,,,,,,,,1252.3540000139037,,response,,,,99,,,,,,,Space,keypress(Space),,,,,,,,---- -- ----- -- ------ - ------- --- ----------<br>------------- ------ ------ ---- ---- ------- ----- -- ----<br>-------- ------- -- ---------- --- - new ----- ----- ----<br>---- --- --- ----- --- ---- ---- ------- ----- ---- -------<br>--- --- -- ----- -- --- ---- -- --- ---- -- ------ ------<br>--- ----- -- ----,158921.39500001213,158917.9400000139,157648.92,157661.1799999955,157665.586,158921.854,,24,new
screen,html.Screen,2_1_0_1_25,2021-04-24T12:31:55.072Z,,,,,,,,,,,,,,,,,53,,,,,,,,,,,,,,515.1759999718633,,response,,,,99,,,,,,,Space,keypress(Space),,,,,,,,---- -- ----- -- ------ - ------- --- ----------<br>------------- ------ ------ ---- ---- ------- ----- -- ----<br>-------- ------- -- ---------- --- - --- study ----- ----<br>---- --- --- ----- --- ---- ---- ------- ----- ---- -------<br>--- --- -- ----- -- --- ---- -- --- ---- -- ------ ------<br>--- ----- -- ----,159440.47500001034,159437.02999997186,158905.188,158921.4899999788,158921.854,159455.166,,25,study
screen,html.Screen,2_1_0_1_26,2021-04-24T12:31:55.549Z,,,,,,,,,,,,,,,,,53,,,,,,,,,,,,,,457.9190000074159,,response,,,,99,,,,,,,Space,keypress(Space),,,,,,,,---- -- ----- -- ------ - ------- --- ----------<br>------------- ------ ------ ---- ---- ------- ----- -- ----<br>-------- ------- -- ---------- --- - --- ----- finds ----<br>---- --- --- ----- --- ---- ---- ------- ----- ---- -------<br>--- --- -- ----- -- --- ---- -- --- ---- -- ------ ------<br>--- ----- -- ----,159916.7749999906,159913.0850000074,159438.5,159440.56499999715,159455.166,159921.814,,26,finds
screen,html.Screen,2_1_0_1_27,2021-04-24T12:31:55.926Z,,,,,,,,,,,,,,,,,53,,,,,,,,,,,,,,368.98600001703016,,response,,,,99,,,,,,,Space,keypress(Space),,,,,,,,---- -- ----- -- ------ - ------- --- ----------<br>------------- ------ ------ ---- ---- ------- ----- -- ----<br>-------- ------- -- ---------- --- - --- ----- ----- that<br>---- --- --- ----- --- ---- ---- ------- ----- ---- -------<br>--- --- -- ----- -- --- ---- -- --- ---- -- ------ ------<br>--- ----- -- ----,160294.3099999684,160290.80000001704,159905.148,159916.87000001548,159921.814,160305.132,,27,that
screen,html.Screen,2_1_0_1_28,2021-04-24T12:31:56.362Z,,,,,,,,,,,,,,,,,53,,,,,,,,,,,,,,420.9229999773379,,response,,,,99,,,,,,,Space,keypress(Space),,,,,,,,---- -- ----- -- ------ - ------- --- ----------<br>------------- ------ ------ ---- ---- ------- ----- -- ----<br>-------- ------- -- ---------- --- - --- ----- ----- ----<br>it's --- --- ----- --- ---- ---- ------- ----- ---- -------<br>--- --- -- ----- -- --- ---- -- --- ---- -- ------ ------<br>--- ----- -- ----,160729.9050000147,160726.05499997735,160288.466,160294.9549999903,160305.132,160738.448,,28,it's
screen,html.Screen,2_1_0_1_29,2021-04-24T12:31:56.746Z,,,,,,,,,,,,,,,,,53,,,,,,,,,,,,,,370.5470000168716,,response,,,,99,,,,,,,Space,keypress(Space),,,,,,,,---- -- ----- -- ------ - ------- --- ----------<br>------------- ------ ------ ---- ---- ------- ----- -- ----<br>-------- ------- -- ---------- --- - --- ----- ----- ----<br>---- not --- ----- --- ---- ---- ------- ----- ---- -------<br>--- --- -- ----- -- --- ---- -- --- ---- -- ------ ------<br>--- ----- -- ----,161113.9700000058,161108.99500001688,160721.782,160730.03500001505,160738.448,161121.766,,29,not
screen,html.Screen,2_1_0_1_30,2021-04-24T12:31:57.200Z,,,,,,,,,,,,,,,,,53,,,,,,,,,,,,,,442.25899997056695,,response,,,,99,,,,,,,Space,keypress(Space),,,,,,,,---- -- ----- -- ------ - ------- --- ----------<br>------------- ------ ------ ---- ---- ------- ----- -- ----<br>-------- ------- -- ---------- --- - --- ----- ----- ----<br>---- --- how ----- --- ---- ---- ------- ----- ---- -------<br>--- --- -- ----- -- --- ---- -- --- ---- -- ------ ------<br>--- ----- -- ----,161567.76499998523,161564.02499997057,161105.1,161114.07000001054,161121.766,161571.748,,30,how
screen,html.Screen,2_1_0_1_31,2021-04-24T12:31:57.647Z,,,,,,,,,,,,,,,,,53,,,,,,,,,,,,,,439.0669999869133,,response,,,,99,,,,,,,Space,keypress(Space),,,,,,,,---- -- ----- -- ------ - ------- --- ----------<br>------------- ------ ------ ---- ---- ------- ----- -- ----<br>-------- ------- -- ---------- --- - --- ----- ----- ----<br>---- --- --- close --- ---- ---- ------- ----- ---- -------<br>--- --- -- ----- -- --- ---- -- --- ---- -- ------ ------<br>--- ----- -- ----,162015.00499999383,162010.8149999869,161555.082,161567.86999996984,161571.748,162021.73,,31,close
screen,html.Screen,2_1_0_1_32,2021-04-24T12:31:58.135Z,,,,,,,,,,,,,,,,,53,,,,,,,,,,,,,,478.2849999977916,,response,,,,99,,,,,,,Space,keypress(Space),,,,,,,,---- -- ----- -- ------ - ------- --- ----------<br>------------- ------ ------ ---- ---- ------- ----- -- ----<br>-------- ------- -- ---------- --- - --- ----- ----- ----<br>---- --- --- ----- you ---- ---- ------- ----- ---- -------<br>--- --- -- ----- -- --- ---- -- --- ---- -- ------ ------<br>--- ----- -- ----,162503.49999999162,162500.0149999978,162005.064,162015.11500001652,162021.73,162505.044,,32,you
screen,html.Screen,2_1_0_1_33,2021-04-24T12:31:58.872Z,,,,,,,,,,,,,,,,,53,,,,,,,,,,,,,,731.846000000136,,response,,,,99,,,,,,,Space,keypress(Space),,,,,,,,---- -- ----- -- ------ - ------- --- ----------<br>------------- ------ ------ ---- ---- ------- ----- -- ----<br>-------- ------- -- ---------- --- - --- ----- ----- ----<br>---- --- --- ----- --- feel ---- ------- ----- ---- -------<br>--- --- -- ----- -- --- ---- -- --- ---- -- ------ ------<br>--- ----- -- ----,163239.89500000607,163236.89000000013,162488.378,162503.5800000187,162505.044,163255.014,,33,feel
screen,html.Screen,2_1_0_1_34,2021-04-24T12:31:59.495Z,,,,,,,,,,,,,,,,,53,,,,,,,,,,,,,,603.7060000183701,,response,,,,99,,,,,,,Space,keypress(Space),,,,,,,,---- -- ----- -- ------ - ------- --- ----------<br>------------- ------ ------ ---- ---- ------- ----- -- ----<br>-------- ------- -- ---------- --- - --- ----- ----- ----<br>---- --- --- ----- --- ---- that ------- ----- ---- -------<br>--- --- -- ----- -- --- ---- -- --- ---- -- ------ ------<br>--- ----- -- ----,163862.62500000885,163858.72000001837,163238.348,163239.98499999288,163255.014,163871.656,,34,that
screen,html.Screen,2_1_0_1_35,2021-04-24T12:31:59.937Z,,,,,,,,,,,,,,,,,53,,,,,,,,,,,,,,428.2790000172972,,response,,,,99,,,,,,,Space,keypress(Space),,,,,,,,---- -- ----- -- ------ - ------- --- ----------<br>------------- ------ ------ ---- ---- ------- ----- -- ----<br>-------- ------- -- ---------- --- - --- ----- ----- ----<br>---- --- --- ----- --- ---- ---- matters ----- ---- -------<br>--- --- -- ----- -- --- ---- -- --- ---- -- ------ ------<br>--- ----- -- ----,164304.54500002088,164299.93500001729,163854.99,163862.7400000114,163871.656,164321.638,,35,matters
screen,html.Screen,2_1_0_1_36,2021-04-24T12:32:00.483Z,,,,,,,,,,,,,,,,,53,,,,,,,,,,,,,,525.2720000220288,,response,,,,99,,,,,,,Space,keypress(Space),,,,,,,,"---- -- ----- -- ------ - ------- --- ----------<br>------------- ------ ------ ---- ---- ------- ----- -- ----<br>-------- ------- -- ---------- --- - --- ----- ----- ----<br>---- --- --- ----- --- ---- ---- ------- most, ---- -------<br>--- --- -- ----- -- --- ---- -- --- ---- -- ------ ------<br>--- ----- -- ----",164851.07500001322,164846.91000002204,164304.972,164304.66000002343,164321.638,164854.95,,36,"most,"
screen,html.Screen,2_1_0_1_37,2021-04-24T12:32:00.995Z,,,,,,,,,,,,,,,,,53,,,,,,,,,,,,,,503.8799999828334,,response,,,,99,,,,,,,Space,keypress(Space),,,,,,,,---- -- ----- -- ------ - ------- --- ----------<br>------------- ------ ------ ---- ---- ------- ----- -- ----<br>-------- ------- -- ---------- --- - --- ----- ----- ----<br>---- --- --- ----- --- ---- ---- ------- ----- it's -------<br>--- --- -- ----- -- --- ---- -- --- ---- -- ------ ------<br>--- ----- -- ----,165363.07500000112,165358.82999998285,164838.284,164851.1849999777,164854.95,165371.596,,37,it's
screen,html.Screen,2_1_0_1_38,2021-04-24T12:32:01.548Z,,,,,,,,,,,,,,,,,53,,,,,,,,,,,,,,540.2839999705611,,response,,,,99,,,,,,,Space,keypress(Space),,,,,,,,---- -- ----- -- ------ - ------- --- ----------<br>------------- ------ ------ ---- ---- ------- ----- -- ----<br>-------- ------- -- ---------- --- - --- ----- ----- ----<br>---- --- --- ----- --- ---- ---- ------- ----- ---- whether<br>--- --- -- ----- -- --- ---- -- --- ---- -- ------ ------<br>--- ----- -- ----,165915.60000000754,165911.87999997055,165354.93,165363.19000000367,165371.596,165921.574,,38,whether
screen,html.Screen,2_1_0_1_39,2021-04-24T12:32:01.961Z,,,,,,,,,,,,,,,,,53,,,,,,,,,,,,,,403.2459999798157,,response,,,,99,,,,,,,Space,keypress(Space),,,,,,,,---- -- ----- -- ------ - ------- --- ----------<br>------------- ------ ------ ---- ---- ------- ----- -- ----<br>-------- ------- -- ---------- --- - --- ----- ----- ----<br>---- --- --- ----- --- ---- ---- ------- ----- ---- -------<br>you --- -- ----- -- --- ---- -- --- ---- -- ------ ------<br>--- ----- -- ----,166328.61999998568,166324.8199999798,165904.908,165915.70999997202,165921.574,166338.224,,39,you
screen,html.Screen,2_1_0_1_40,2021-04-24T12:32:02.479Z,,,,,,,,,,,,,,,,,53,,,,,,,,,,,,,,505.5810000113561,,response,,,,99,,,,,,,Space,keypress(Space),,,,,,,,---- -- ----- -- ------ - ------- --- ----------<br>------------- ------ ------ ---- ---- ------- ----- -- ----<br>-------- ------- -- ---------- --- - --- ----- ----- ----<br>---- --- --- ----- --- ---- ---- ------- ----- ---- -------<br>--- are -- ----- -- --- ---- -- --- ---- -- ------ ------<br>--- ----- -- ----,166847.17999998247,166843.80500001134,166321.558,166328.7099999725,166338.224,166854.87,,40,are
screen,html.Screen,2_1_0_1_41,2021-04-24T12:32:03.513Z,,,,,,,,,,,,,,,,,53,,,,,,,,,,,,,,1021.8450000203447,,response,,,,99,,,,,,,Space,keypress(Space),,,,,,,,---- -- ----- -- ------ - ------- --- ----------<br>------------- ------ ------ ---- ---- ------- ----- -- ----<br>-------- ------- -- ---------- --- - --- ----- ----- ----<br>---- --- --- ----- --- ---- ---- ------- ----- ---- -------<br>--- --- as ----- -- --- ---- -- --- ---- -- ------ ------<br>--- ----- -- ----,167880.66000002436,167876.71500002034,166838.204,166847.26000000956,166854.87,167888.162,,41,as
screen,html.Screen,2_1_0_1_42,2021-04-24T12:32:04.041Z,,,,,,,,,,,,,,,,,53,,,,,,,,,,,,,,517.4780000117607,,response,,,,99,,,,,,,Space,keypress(Space),,,,,,,,---- -- ----- -- ------ - ------- --- ----------<br>------------- ------ ------ ---- ---- ------- ----- -- ----<br>-------- ------- -- ---------- --- - --- ----- ----- ----<br>---- --- --- ----- --- ---- ---- ------- ----- ---- -------<br>--- --- -- close -- --- ---- -- --- ---- -- ------ ------<br>--- ----- -- ----,168409.0899999719,168405.64000001177,167871.496,167880.78000000678,167888.162,168421.474,,42,close
screen,html.Screen,2_1_0_1_43,2021-04-24T12:32:04.409Z,,,,,,,,,,,,,,,,,53,,,,,,,,,,,,,,351.48599997296697,,response,,,,99,,,,,,,Space,keypress(Space),,,,,,,,---- -- ----- -- ------ - ------- --- ----------<br>------------- ------ ------ ---- ---- ------- ----- -- ----<br>-------- ------- -- ---------- --- - --- ----- ----- ----<br>---- --- --- ----- --- ---- ---- ------- ----- ---- -------<br>--- --- -- ----- as --- ---- -- --- ---- -- ------ ------<br>--- ----- -- ----,168776.81999997003,168772.95999997295,168404.808,168409.169999999,168421.474,168793.324,,43,as
screen,html.Screen,2_1_0_1_44,2021-04-24T12:32:04.830Z,,,,,,,,,,,,,,,,,53,,,,,,,,,,,,,,400.4610000104003,,response,,,,99,,,,,,,Space,keypress(Space),,,,,,,,---- -- ----- -- ------ - ------- --- ----------<br>------------- ------ ------ ---- ---- ------- ----- -- ----<br>-------- ------- -- ---------- --- - --- ----- ----- ----<br>---- --- --- ----- --- ---- ---- ------- ----- ---- -------<br>--- --- -- ----- -- you ---- -- --- ---- -- ------ ------<br>--- ----- -- ----,169197.96499999939,169193.7850000104,168776.658,168776.92999999272,168793.324,169209.974,,44,you
screen,html.Screen,2_1_0_1_45,2021-04-24T12:32:05.211Z,,,,,,,,,,,,,,,,,53,,,,,,,,,,,,,,364.1860000183224,,response,,,,99,,,,,,,Space,keypress(Space),,,,,,,,---- -- ----- -- ------ - ------- --- ----------<br>------------- ------ ------ ---- ---- ------- ----- -- ----<br>-------- ------- -- ---------- --- - --- ----- ----- ----<br>---- --- --- ----- --- ---- ---- ------- ----- ---- -------<br>--- --- -- ----- -- --- want -- --- ---- -- ------ ------<br>--- ----- -- ----,169578.600000008,169574.1600000183,169193.308,169198.069999984,169209.974,169593.292,,45,want
screen,html.Screen,2_1_0_1_46,2021-04-24T12:32:05.597Z,,,,,,,,,,,,,,,,,53,,,,,,,,,,,,,,368.56300000139163,,response,,,,99,,,,,,,Space,keypress(Space),,,,,,,,---- -- ----- -- ------ - ------- --- ----------<br>------------- ------ ------ ---- ---- ------- ----- -- ----<br>-------- ------- -- ---------- --- - --- ----- ----- ----<br>---- --- --- ----- --- ---- ---- ------- ----- ---- -------<br>--- --- -- ----- -- --- ---- to --- ---- -- ------ ------<br>--- ----- -- ----,169965.354999993,169961.85500000138,169576.626,169578.7099999725,169593.292,169976.61,,46,to
screen,html.Screen,2_1_0_1_47,2021-04-24T12:32:05.915Z,,,,,,,,,,,,,,,,,53,,,,,,,,,,,,,,303.20999999612104,,response,,,,99,,,,,,,Space,keypress(Space),,,,,,,,"---- -- ----- -- ------ - ------- --- ----------<br>------------- ------ ------ ---- ---- ------- ----- -- ----<br>-------- ------- -- ---------- --- - --- ----- ----- ----<br>---- --- --- ----- --- ---- ---- ------- ----- ---- -------<br>--- --- -- ----- -- --- ---- -- be, ---- -- ------ ------<br>--- ----- -- ----",170283.38999999687,170279.8199999961,169959.944,169965.43500002008,169976.61,170293.264,,47,"be,"
screen,html.Screen,2_1_0_1_48,2021-04-24T12:32:06.539Z,,,,,,,,,,,,,,,,,53,,,,,,,,,,,,,,609.5560000175319,,response,,,,99,,,,,,,Space,keypress(Space),,,,,,,,---- -- ----- -- ------ - ------- --- ----------<br>------------- ------ ------ ---- ---- ------- ----- -- ----<br>-------- ------- -- ---------- --- - --- ----- ----- ----<br>---- --- --- ----- --- ---- ---- ------- ----- ---- -------<br>--- --- -- ----- -- --- ---- -- --- even -- ------ ------<br>--- ----- -- ----,170907.51499996986,170902.82000001753,170276.598,170283.47500000382,170293.264,170909.906,,48,even
screen,html.Screen,2_1_0_1_49,2021-04-24T12:32:06.832Z,,,,,,,,,,,,,,,,,53,,,,,,,,,,,,,,285.829000015714,,response,,,,99,,,,,,,Space,keypress(Space),,,,,,,,---- -- ----- -- ------ - ------- --- ----------<br>------------- ------ ------ ---- ---- ------- ----- -- ----<br>-------- ------- -- ---------- --- - --- ----- ----- ----<br>---- --- --- ----- --- ---- ---- ------- ----- ---- -------<br>--- --- -- ----- -- --- ---- -- --- ---- if ------ ------<br>--- ----- -- ----,171199.58499999484,171195.7350000157,170893.24,170907.62000001268,170909.906,171209.894,,49,if
screen,html.Screen,2_1_0_1_50,2021-04-24T12:32:07.271Z,,,,,,,,,,,,,,,,,53,,,,,,,,,,,,,,425.9710000183841,,response,,,,99,,,,,,,Space,keypress(Space),,,,,,,,---- -- ----- -- ------ - ------- --- ----------<br>------------- ------ ------ ---- ---- ------- ----- -- ----<br>-------- ------- -- ---------- --- - --- ----- ----- ----<br>---- --- --- ----- --- ---- ---- ------- ----- ---- -------<br>--- --- -- ----- -- --- ---- -- --- ---- -- that's ------<br>--- ----- -- ----,171638.58999998774,171635.86500001838,171193.228,171199.68999997946,171209.894,171643.21,,50,that's
screen,html.Screen,2_1_0_1_51,2021-04-24T12:32:07.663Z,,,,,,,,,,,,,,,,,53,,,,,,,,,,,,,,384.3299999809533,,response,,,,99,,,,,,,Space,keypress(Space),,,,,,,,---- -- ----- -- ------ - ------- --- ----------<br>------------- ------ ------ ---- ---- ------- ----- -- ----<br>-------- ------- -- ---------- --- - --- ----- ----- ----<br>---- --- --- ----- --- ---- ---- ------- ----- ---- -------<br>--- --- -- ----- -- --- ---- -- --- ---- -- ------ really<br>--- ----- -- ----,172030.61000001617,172027.53999998095,171626.544,171638.66499997675,171643.21,172043.194,,51,really
screen,html.Screen,2_1_0_1_52,2021-04-24T12:32:08.073Z,,,,,,,,,,,,,,,,,53,,,,,,,,,,,,,,395.35099998270744,,response,,,,99,,,,,,,Space,keypress(Space),,,,,,,,---- -- ----- -- ------ - ------- --- ----------<br>------------- ------ ------ ---- ---- ------- ----- -- ----<br>-------- ------- -- ---------- --- - --- ----- ----- ----<br>---- --- --- ----- --- ---- ---- ------- ----- ---- -------<br>--- --- -- ----- -- --- ---- -- --- ---- -- ------ ------<br>not ----- -- ----,172441.38500001281,172438.5449999827,172026.528,172030.70499998285,172043.194,172443.178,,52,not
screen,html.Screen,2_1_0_1_53,2021-04-24T12:32:08.540Z,,,,,,,,,,,,,,,,,53,,,,,,,,,,,,,,460.6120000111987,,response,,,,99,,,,,,,Space,keypress(Space),,,,,,,,---- -- ----- -- ------ - ------- --- ----------<br>------------- ------ ------ ---- ---- ------- ----- -- ----<br>-------- ------- -- ---------- --- - --- ----- ----- ----<br>---- --- --- ----- --- ---- ---- ------- ----- ---- -------<br>--- --- -- ----- -- --- ---- -- --- ---- -- ------ ------<br>--- close -- ----,172907.72000001743,172903.7900000112,172426.512,172441.47499999963,172443.178,172909.826,,53,close
screen,html.Screen,2_1_0_1_54,2021-04-24T12:32:08.938Z,,,,,,,,,,,,,,,,,53,,,,,,,,,,,,,,392.66399997274857,,response,,,,99,,,,,,,Space,keypress(Space),,,,,,,,---- -- ----- -- ------ - ------- --- ----------<br>------------- ------ ------ ---- ---- ------- ----- -- ----<br>-------- ------- -- ---------- --- - --- ----- ----- ----<br>---- --- --- ----- --- ---- ---- ------- ----- ---- -------<br>--- --- -- ----- -- --- ---- -- --- ---- -- ------ ------<br>--- ----- at ----,173305.65499997465,173302.48999997275,172893.16,172907.8299999819,172909.826,173309.81,,54,at
screen,html.Screen,2_1_0_1_55,2021-04-24T12:32:09.118Z,,,,,,,,,,,,,,,,,53,,,,,,,,,,,,,,172.84499999979744,,response,,,,99,,,,,,,Space,keypress(Space),,,,,,,,---- -- ----- -- ------ - ------- --- ----------<br>------------- ------ ------ ---- ---- ------- ----- -- ----<br>-------- ------- -- ---------- --- - --- ----- ----- ----<br>---- --- --- ----- --- ---- ---- ------- ----- ---- -------<br>--- --- -- ----- -- --- ---- -- --- ---- -- ------ ------<br>--- ----- -- all.,173486.50499997893,173482.6549999998,173293.144,173305.74500001967,173309.81,173493.136,,55,all.
Item 99,flow.Loop,2_1_0_1,2021-04-24T12:32:09.119Z,,,,,,,,,,,,,,,,,,,,,,,,,,,,,,,26420.9669999998,,completion,,,,,A,,,,,,,,,,,silence,,,,,173486.73000000417,173482.6549999998,147045.022,147047.0450000139,147061.688,173493.136,,,
Question 1,html.Screen,2_1_0_2,2021-04-24T12:32:18.739Z,,,,,,,,,,,,,,,,,,,,,,,,,,,,true,FALSE,,9612.074000008812,,response,,,,99,A,,,,,,FALSE,click #choice-2,,,,silence,,,,,183106.84999998193,183105.2100000088,173476.47,173486.83000000892,173493.136,183131.596,,,
Question 2,html.Screen,2_1_0_3,2021-04-24T12:32:21.950Z,,,,,,,,,,,,,,,,,,,,,,,,,,,,true,TRUE,,3185.119000022678,,response,,,,99,A,,,,,,TRUE,click #choice-1,,,,silence,,,,,186318.58999998076,186316.71500002267,183114.93,183106.95500002475,183131.596,186331.468,,,
Item 99,flow.Sequence,2_1_0,2021-04-24T12:32:21.951Z,,,,,,,,,,,,,,,,,,,,,,,,,,,,,,,49247.11400002267,,completion,,,,,,,,,,,,,,,,,,,,,186318.77499999246,186316.71500002267,137052.935,137056.86499999138,137069.601,186331.468,,,
Holding screen,html.Screen,2_1_1_0,2021-04-24T12:32:31.955Z,,,,,,,,,,,,,,,,,,,,,,,,,,,,,,,10005.198000000004,,timeout,,,,,,,,,,,,,,,,,,,,,196322.6700000232,196320,186314.802,186318.90000001295,186331.468,196336.666,,,
screen,html.Screen,2_1_1_1_0,2021-04-24T12:32:33.208Z,,,,,,,,,,,,,,,,,54,,,,,,,,,,,,,,1235.2290000009525,,response,,,,100,,,,,,,Space,keypress(Space),,,,,,,,At --- ---- --- ------ ----- ------- ---- -- --- ------- --<br>------- ---------- ------ -- ----- -- ----- -- ---- ------<br>--- ----- --- --- ------ -------- ----- --- ------ ----- --<br>----- ----- ---------- --- --- ------ ------ ---- -- ------<br>------- --- ------ ----- --- ---- ------- -- ---- --- --<br>------- ------,197575.7899999735,197571.89500000095,196320,196322.80500000343,196336.666,197586.616,,0,At
screen,html.Screen,2_1_1_1_1,2021-04-24T12:32:33.638Z,,,,,,,,,,,,,,,,,54,,,,,,,,,,,,,,415.88899998218403,,response,,,,100,,,,,,,Space,keypress(Space),,,,,,,,-- the ---- --- ------ ----- ------- ---- -- --- ------- --<br>------- ---------- ------ -- ----- -- ----- -- ---- ------<br>--- ----- --- --- ------ -------- ----- --- ------ ----- --<br>----- ----- ---------- --- --- ------ ------ ---- -- ------<br>------- --- ------ ----- --- ---- ------- -- ---- --- --<br>------- ------,198006.1899999855,198002.5049999822,197569.95,197575.87499998044,197586.616,198019.932,,1,the
screen,html.Screen,2_1_1_1_2,2021-04-24T12:32:34.061Z,,,,,,,,,,,,,,,,,54,,,,,,,,,,,,,,404.5329999891401,,response,,,,100,,,,,,,Space,keypress(Space),,,,,,,,-- --- time --- ------ ----- ------- ---- -- --- ------- --<br>------- ---------- ------ -- ----- -- ----- -- ---- ------<br>--- ----- --- --- ------ -------- ----- --- ------ ----- --<br>----- ----- ---------- --- --- ------ ------ ---- -- ------<br>------- --- ------ ----- --- ---- ------- -- ---- --- --<br>------- ------,198429.14500000188,198424.46499998914,198003.266,198006.28999999026,198019.932,198436.582,,2,time
screen,html.Screen,2_1_1_1_3,2021-04-24T12:32:34.488Z,,,,,,,,,,,,,,,,,54,,,,,,,,,,,,,,416.05799999734154,,response,,,,100,,,,,,,Space,keypress(Space),,,,,,,,-- --- ---- the ------ ----- ------- ---- -- --- ------- --<br>------- ---------- ------ -- ----- -- ----- -- ---- ------<br>--- ----- --- --- ------ -------- ----- --- ------ ----- --<br>----- ----- ---------- --- --- ------ ------ ---- -- ------<br>------- --- ------ ----- --- ---- ------- -- ---- --- --<br>------- ------,198856.32999998052,198852.63999999734,198419.916,198429.2499999865,198436.582,198869.898,,3,the
screen,html.Screen,2_1_1_1_4,2021-04-24T12:32:34.845Z,,,,,,,,,,,,,,,,,54,,,,,,,,,,,,,,339.5720000016154,,response,,,,100,,,,,,,Space,keypress(Space),,,,,,,,-- --- ---- --- French ----- ------- ---- -- --- ------- --<br>------- ---------- ------ -- ----- -- ----- -- ---- ------<br>--- ----- --- --- ------ -------- ----- --- ------ ----- --<br>----- ----- ---------- --- --- ------ ------ ---- -- ------<br>------- --- ------ ----- --- ---- ------- -- ---- --- --<br>------- ------,199213.32999999868,199209.4700000016,198853.232,198856.42000002554,198869.898,199219.884,,4,French
screen,html.Screen,2_1_1_1_5,2021-04-24T12:32:35.507Z,,,,,,,,,,,,,,,,,54,,,,,,,,,,,,,,650.670999972237,,response,,,,100,,,,,,,Space,keypress(Space),,,,,,,,-- --- ---- --- ------ crown ------- ---- -- --- ------- --<br>------- ---------- ------ -- ----- -- ----- -- ---- ------<br>--- ----- --- --- ------ -------- ----- --- ------ ----- --<br>----- ----- ---------- --- --- ------ ------ ---- -- ------<br>------- --- ------ ----- --- ---- ------- -- ---- --- --<br>------- ------,199875.43499999447,199870.55499997223,199203.218,199213.43000000343,199219.884,199886.524,,5,crown
screen,html.Screen,2_1_1_1_6,2021-04-24T12:32:35.859Z,,,,,,,,,,,,,,,,,54,,,,,,,,,,,,,,335.8559999919671,,response,,,,100,,,,,,,Space,keypress(Space),,,,,,,,-- --- ---- --- ------ ----- secured ---- -- --- ------- --<br>------- ---------- ------ -- ----- -- ----- -- ---- ------<br>--- ----- --- --- ------ -------- ----- --- ------ ----- --<br>----- ----- ---------- --- --- ------ ------ ---- -- ------<br>------- --- ------ ----- --- ---- ------- -- ---- --- --<br>------- ------,200226.77999996813,200222.37999999197,199869.858,199875.54500001715,199886.524,200236.51,,6,secured
screen,html.Screen,2_1_1_1_7,2021-04-24T12:32:36.222Z,,,,,,,,,,,,,,,,,54,,,,,,,,,,,,,,350.01999997138046,,response,,,,100,,,,,,,Space,keypress(Space),,,,,,,,-- --- ---- --- ------ ----- ------- much -- --- ------- --<br>------- ---------- ------ -- ----- -- ----- -- ---- ------<br>--- ----- --- --- ------ -------- ----- --- ------ ----- --<br>----- ----- ---------- --- --- ------ ------ ---- -- ------<br>------- --- ------ ----- --- ---- ------- -- ---- --- --<br>------- ------,200590.58000001824,200586.5299999714,200219.844,200226.88500001095,200236.51,200591.398,,7,much
screen,html.Screen,2_1_1_1_8,2021-04-24T12:32:36.694Z,,,,,,,,,,,,,,,,,54,,,,,,,,,,,,,,467.0469999733032,,response,,,,100,,,,,,,Space,keypress(Space),,,,,,,,-- --- ---- --- ------ ----- ------- ---- of --- ------- --<br>------- ---------- ------ -- ----- -- ----- -- ---- ------<br>--- ----- --- --- ------ -------- ----- --- ------ ----- --<br>----- ----- ---------- --- --- ------ ------ ---- -- ------<br>------- --- ------ ----- --- ---- ------- -- ---- --- --<br>------- ------,201062.22999998135,201058.4449999733,200574.732,200590.68500000285,200591.398,201074.712,,8,of
screen,html.Screen,2_1_1_1_9,2021-04-24T12:32:37.101Z,,,,,,,,,,,,,,,,,54,,,,,,,,,,,,,,390.7080000222777,,response,,,,100,,,,,,,Space,keypress(Space),,,,,,,,-- --- ---- --- ------ ----- ------- ---- -- its ------- --<br>------- ---------- ------ -- ----- -- ----- -- ---- ------<br>--- ----- --- --- ------ -------- ----- --- ------ ----- --<br>----- ----- ---------- --- --- ------ ------ ---- -- ------<br>------- --- ------ ----- --- ---- ------- -- ---- --- --<br>------- ------,201469.37000000617,201465.42000002228,201058.046,201062.33500002418,201074.712,201474.696,,9,its
screen,html.Screen,2_1_1_1_10,2021-04-24T12:32:37.481Z,,,,,,,,,,,,,,,,,54,,,,,,,,,,,,,,370.61899998411536,,response,,,,100,,,,,,,Space,keypress(Space),,,,,,,,-- --- ---- --- ------ ----- ------- ---- -- --- revenue --<br>------- ---------- ------ -- ----- -- ----- -- ---- ------<br>--- ----- --- --- ------ -------- ----- --- ------ ----- --<br>----- ----- ---------- --- --- ------ ------ ---- -- ------<br>------- --- ------ ----- --- ---- ------- -- ---- --- --<br>------- ------,201848.82499999367,201845.3149999841,201458.03,201469.47999997064,201474.696,201858.014,,10,revenue
screen,html.Screen,2_1_1_1_11,2021-04-24T12:32:37.875Z,,,,,,,,,,,,,,,,,54,,,,,,,,,,,,,,381.3710000225983,,response,,,,100,,,,,,,Space,keypress(Space),,,,,,,,-- --- ---- --- ------ ----- ------- ---- -- --- ------- by<br>------- ---------- ------ -- ----- -- ----- -- ---- ------<br>--- ----- --- --- ------ -------- ----- --- ------ ----- --<br>----- ----- ---------- --- --- ------ ------ ---- -- ------<br>------- --- ------ ----- --- ---- ------- -- ---- --- --<br>------- ------,202243.3799999999,202239.3850000226,201841.348,201848.90500002075,201858.014,202257.998,,11,by
screen,html.Screen,2_1_1_1_12,2021-04-24T12:32:38.228Z,,,,,,,,,,,,,,,,,54,,,,,,,,,,,,,,334.17200001809397,,response,,,,100,,,,,,,Space,keypress(Space),,,,,,,,-- --- ---- --- ------ ----- ------- ---- -- --- ------- --<br>issuing ---------- ------ -- ----- -- ----- -- ---- ------<br>--- ----- --- --- ------ -------- ----- --- ------ ----- --<br>----- ----- ---------- --- --- ------ ------ ---- -- ------<br>------- --- ------ ----- --- ---- ------- -- ---- --- --<br>------- ------,202596.33999998914,202592.1700000181,202241.332,202243.49000002258,202257.998,202607.984,,12,issuing
screen,html.Screen,2_1_1_1_13,2021-04-24T12:32:38.649Z,,,,,,,,,,,,,,,,,54,,,,,,,,,,,,,,405.3209999712999,,response,,,,100,,,,,,,Space,keypress(Space),,,,,,,,-- --- ---- --- ------ ----- ------- ---- -- --- ------- --<br>------- government ------ -- ----- -- ----- -- ---- ------<br>--- ----- --- --- ------ -------- ----- --- ------ ----- --<br>----- ----- ---------- --- --- ------ ------ ---- -- ------<br>------- --- ------ ----- --- ---- ------- -- ---- --- --<br>------- ------,203017.39499997348,203013.3049999713,202591.318,202596.44499997376,202607.984,203024.634,,13,government
screen,html.Screen,2_1_1_1_14,2021-04-24T12:32:40.259Z,,,,,,,,,,,,,,,,,54,,,,,,,,,,,,,,1598.8809999847726,,response,,,,100,,,,,,,Space,keypress(Space),,,,,,,,-- --- ---- --- ------ ----- ------- ---- -- --- ------- --<br>------- ---------- bonds. -- ----- -- ----- -- ---- ------<br>--- ----- --- --- ------ -------- ----- --- ------ ----- --<br>----- ----- ---------- --- --- ------ ------ ---- -- ------<br>------- --- ------ ----- --- ---- ------- -- ---- --- --<br>------- ------,204627.22999998368,204623.51499998476,203007.968,203017.5000000163,203024.634,204641.236,,14,bonds.
screen,html.Screen,2_1_1_1_15,2021-04-24T12:32:40.670Z,,,,,,,,,,,,,,,,,54,,,,,,,,,,,,,,393.8339999835298,,response,,,,100,,,,,,,Space,keypress(Space),,,,,,,,-- --- ---- --- ------ ----- ------- ---- -- --- ------- --<br>------- ---------- ------ In ----- -- ----- -- ---- ------<br>--- ----- --- --- ------ -------- ----- --- ------ ----- --<br>----- ----- ---------- --- --- ------ ------ ---- -- ------<br>------- --- ------ ----- --- ---- ------- -- ---- --- --<br>------- ------,205037.87499997998,205035.06999998353,204624.57,204627.31000001077,204641.236,205041.22,,15,In
screen,html.Screen,2_1_1_1_16,2021-04-24T12:32:41.124Z,,,,,,,,,,,,,,,,,54,,,,,,,,,,,,,,446.8899999765854,,response,,,,100,,,,,,,Space,keypress(Space),,,,,,,,"-- --- ---- --- ------ ----- ------- ---- -- --- ------- --<br>------- ---------- ------ -- 1727, -- ----- -- ---- ------<br>--- ----- --- --- ------ -------- ----- --- ------ ----- --<br>----- ----- ---------- --- --- ------ ------ ---- -- ------<br>------- --- ------ ----- --- ---- ------- -- ---- --- --<br>------- ------",205492.00500000734,205488.1099999766,205024.554,205037.965000025,205041.22,205507.868,,16,"1727,"
screen,html.Screen,2_1_1_1_17,2021-04-24T12:32:41.903Z,,,,,,,,,,,,,,,,,54,,,,,,,,,,,,,,759.4720000203524,,response,,,,100,,,,,,,Space,keypress(Space),,,,,,,,-- --- ---- --- ------ ----- ------- ---- -- --- ------- --<br>------- ---------- ------ -- ----- in ----- -- ---- ------<br>--- ----- --- --- ------ -------- ----- --- ------ ----- --<br>----- ----- ---------- --- --- ------ ------ ---- -- ------<br>------- --- ------ ----- --- ---- ------- -- ---- --- --<br>------- ------,206271.1700000218,206267.34000002034,205491.202,205492.10999999195,205507.868,206274.504,,17,in
screen,html.Screen,2_1_1_1_18,2021-04-24T12:32:42.392Z,,,,,,,,,,,,,,,,,54,,,,,,,,,,,,,,481.7909999701369,,response,,,,100,,,,,,,Space,keypress(Space),,,,,,,,-- --- ---- --- ------ ----- ------- ---- -- --- ------- --<br>------- ---------- ------ -- ----- -- order -- ---- ------<br>--- ----- --- --- ------ -------- ----- --- ------ ----- --<br>----- ----- ---------- --- --- ------ ------ ---- -- ------<br>------- --- ------ ----- --- ---- ------- -- ---- --- --<br>------- ------,206760.10000001406,206756.29499997012,206257.838,206271.27500000643,206274.504,206774.484,,18,order
screen,html.Screen,2_1_1_1_19,2021-04-24T12:32:42.935Z,,,,,,,,,,,,,,,,,54,,,,,,,,,,,,,,524.7710000199149,,response,,,,100,,,,,,,Space,keypress(Space),,,,,,,,-- --- ---- --- ------ ----- ------- ---- -- --- ------- --<br>------- ---------- ------ -- ----- -- ----- to ---- ------<br>--- ----- --- --- ------ -------- ----- --- ------ ----- --<br>----- ----- ---------- --- --- ------ ------ ---- -- ------<br>------- --- ------ ----- --- ---- ------- -- ---- --- --<br>------- ------,207303.6050000228,207299.2550000199,206757.818,206760.185000021,206774.484,207307.796,,19,to
screen,html.Screen,2_1_1_1_20,2021-04-24T12:32:43.330Z,,,,,,,,,,,,,,,,,54,,,,,,,,,,,,,,386.4589999803284,,response,,,,100,,,,,,,Space,keypress(Space),,,,,,,,-- --- ---- --- ------ ----- ------- ---- -- --- ------- --<br>------- ---------- ------ -- ----- -- ----- -- save ------<br>--- ----- --- --- ------ -------- ----- --- ------ ----- --<br>----- ----- ---------- --- --- ------ ------ ---- -- ------<br>------- --- ------ ----- --- ---- ------- -- ---- --- --<br>------- ------,207698.52500001434,207694.25499998033,207291.13,207303.71499998728,207307.796,207707.78,,20,save
screen,html.Screen,2_1_1_1_21,2021-04-24T12:32:43.737Z,,,,,,,,,,,,,,,,,54,,,,,,,,,,,,,,393.49500002272543,,response,,,,100,,,,,,,Space,keypress(Space),,,,,,,,"-- --- ---- --- ------ ----- ------- ---- -- --- ------- --<br>------- ---------- ------ -- ----- -- ----- -- ---- money,<br>--- ----- --- --- ------ -------- ----- --- ------ ----- --<br>----- ----- ---------- --- --- ------ ------ ---- -- ------<br>------- --- ------ ----- --- ---- ------- -- ---- --- --<br>------- ------",208105.12500000186,208101.27500002272,207691.114,207698.62999999896,207707.78,208107.764,,21,"money,"
screen,html.Screen,2_1_1_1_22,2021-04-24T12:32:44.364Z,,,,,,,,,,,,,,,,,54,,,,,,,,,,,,,,620.5060000214435,,response,,,,100,,,,,,,Space,keypress(Space),,,,,,,,-- --- ---- --- ------ ----- ------- ---- -- --- ------- --<br>------- ---------- ------ -- ----- -- ----- -- ---- ------<br>the ----- --- --- ------ -------- ----- --- ------ ----- --<br>----- ----- ---------- --- --- ------ ------ ---- -- ------<br>------- --- ------ ----- --- ---- ------- -- ---- --- --<br>------- ------,208732.23500000313,208728.27000002144,208091.098,208105.23500002455,208107.764,208741.072,,22,the
screen,html.Screen,2_1_1_1_23,2021-04-24T12:32:44.663Z,,,,,,,,,,,,,,,,,54,,,,,,,,,,,,,,286.1580000069807,,response,,,,100,,,,,,,Space,keypress(Space),,,,,,,,-- --- ---- --- ------ ----- ------- ---- -- --- ------- --<br>------- ---------- ------ -- ----- -- ----- -- ---- ------<br>--- state --- --- ------ -------- ----- --- ------ ----- --<br>----- ----- ---------- --- --- ------ ------ ---- -- ------<br>------- --- ------ ----- --- ---- ------- -- ---- --- --<br>------- ------,209031.29000001354,209027.23000000697,208724.406,208732.33999998774,208741.072,209041.06,,23,state
screen,html.Screen,2_1_1_1_24,2021-04-24T12:32:45.107Z,,,,,,,,,,,,,,,,,54,,,,,,,,,,,,,,430.24500001367414,,response,,,,100,,,,,,,Space,keypress(Space),,,,,,,,-- --- ---- --- ------ ----- ------- ---- -- --- ------- --<br>------- ---------- ------ -- ----- -- ----- -- ---- ------<br>--- ----- cut --- ------ -------- ----- --- ------ ----- --<br>----- ----- ---------- --- --- ------ ------ ---- -- ------<br>------- --- ------ ----- --- ---- ------- -- ---- --- --<br>------- ------,209475.05499998806,209471.30500001367,209024.394,209031.39999997802,209041.06,209491.042,,24,cut
screen,html.Screen,2_1_1_1_25,2021-04-24T12:32:45.484Z,,,,,,,,,,,,,,,,,54,,,,,,,,,,,,,,358.1629999768047,,response,,,,100,,,,,,,Space,keypress(Space),,,,,,,,-- --- ---- --- ------ ----- ------- ---- -- --- ------- --<br>------- ---------- ------ -- ----- -- ----- -- ---- ------<br>--- ----- --- the ------ -------- ----- --- ------ ----- --<br>----- ----- ---------- --- --- ------ ------ ---- -- ------<br>------- --- ------ ----- --- ---- ------- -- ---- --- --<br>------- ------,209852.65000001527,209849.2049999768,209474.376,209475.16500001075,209491.042,209857.694,,25,the
screen,html.Screen,2_1_1_1_26,2021-04-24T12:32:45.807Z,,,,,,,,,,,,,,,,,54,,,,,,,,,,,,,,313.50100000263774,,response,,,,100,,,,,,,Space,keypress(Space),,,,,,,,-- --- ---- --- ------ ----- ------- ---- -- --- ------- --<br>------- ---------- ------ -- ----- -- ----- -- ---- ------<br>--- ----- --- --- bonds' -------- ----- --- ------ ----- --<br>----- ----- ---------- --- --- ------ ------ ---- -- ------<br>------- --- ------ ----- --- ---- ------- -- ---- --- --<br>------- ------,210175.05000001984,210171.19500000263,209841.028,209852.72500000428,209857.694,210191.014,,26,bonds'
screen,html.Screen,2_1_1_1_27,2021-04-24T12:32:46.202Z,,,,,,,,,,,,,,,,,54,,,,,,,,,,,,,,375.21100001686136,,response,,,,100,,,,,,,Space,keypress(Space),,,,,,,,-- --- ---- --- ------ ----- ------- ---- -- --- ------- --<br>------- ---------- ------ -- ----- -- ----- -- ---- ------<br>--- ----- --- --- ------ interest ----- --- ------ ----- --<br>----- ----- ---------- --- --- ------ ------ ---- -- ------<br>------- --- ------ ----- --- ---- ------- -- ---- --- --<br>------- ------,210570.05500001833,210566.22500001686,210174.348,210175.14000000665,210191.014,210574.332,,27,interest
screen,html.Screen,2_1_1_1_28,2021-04-24T12:32:46.568Z,,,,,,,,,,,,,,,,,54,,,,,,,,,,,,,,357.85800002136966,,response,,,,100,,,,,,,Space,keypress(Space),,,,,,,,-- --- ---- --- ------ ----- ------- ---- -- --- ------- --<br>------- ---------- ------ -- ----- -- ----- -- ---- ------<br>--- ----- --- --- ------ -------- rate. --- ------ ----- --<br>----- ----- ---------- --- --- ------ ------ ---- -- ------<br>------- --- ------ ----- --- ---- ------- -- ---- --- --<br>------- ------,210936.1149999895,210932.19000002136,210557.666,210570.15500002308,210574.332,210947.28,,28,rate.
screen,html.Screen,2_1_1_1_29,2021-04-24T12:32:46.921Z,,,,,,,,,,,,,,,,,54,,,,,,,,,,,,,,337.93000000182656,,response,,,,100,,,,,,,Space,keypress(Space),,,,,,,,-- --- ---- --- ------ ----- ------- ---- -- --- ------- --<br>------- ---------- ------ -- ----- -- ----- -- ---- ------<br>--- ----- --- --- ------ -------- ----- The ------ ----- --<br>----- ----- ---------- --- --- ------ ------ ---- -- ------<br>------- --- ------ ----- --- ---- ------- -- ---- --- --<br>------- ------,211289.08999997657,211285.21000000183,210930.614,210936.2250000122,210947.28,211297.266,,29,The
screen,html.Screen,2_1_1_1_30,2021-04-24T12:32:47.361Z,,,,,,,,,,,,,,,,,54,,,,,,,,,,,,,,427.903999990609,,response,,,,100,,,,,,,Space,keypress(Space),,,,,,,,-- --- ---- --- ------ ----- ------- ---- -- --- ------- --<br>------- ---------- ------ -- ----- -- ----- -- ---- ------<br>--- ----- --- --- ------ -------- ----- --- market ----- --<br>----- ----- ---------- --- --- ------ ------ ---- -- ------<br>------- --- ------ ----- --- ---- ------- -- ---- --- --<br>------- ------,211729.04000000563,211725.1699999906,211280.6,211289.1950000194,211297.266,211730.582,,30,market
screen,html.Screen,2_1_1_1_31,2021-04-24T12:32:47.648Z,,,,,,,,,,,,,,,,,54,,,,,,,,,,,,,,281.6329999951995,,response,,,,100,,,,,,,Space,keypress(Space),,,,,,,,-- --- ---- --- ------ ----- ------- ---- -- --- ------- --<br>------- ---------- ------ -- ----- -- ----- -- ---- ------<br>--- ----- --- --- ------ -------- ----- --- ------ value --<br>----- ----- ---------- --- --- ------ ------ ---- -- ------<br>------- --- ------ ----- --- ---- ------- -- ---- --- --<br>------- ------,212016.0100000212,212012.2149999952,211713.916,211729.14499999024,211730.582,212030.57,,31,value
screen,html.Screen,2_1_1_1_32,2021-04-24T12:32:48.030Z,,,,,,,,,,,,,,,,,54,,,,,,,,,,,,,,364.3450000116718,,response,,,,100,,,,,,,Space,keypress(Space),,,,,,,,-- --- ---- --- ------ ----- ------- ---- -- --- ------- --<br>------- ---------- ------ -- ----- -- ----- -- ---- ------<br>--- ----- --- --- ------ -------- ----- --- ------ ----- of<br>----- ----- ---------- --- --- ------ ------ ---- -- ------<br>------- --- ------ ----- --- ---- ------- -- ---- --- --<br>------- ------,212398.7049999996,212394.91500001168,212013.904,212016.11999998568,212030.57,212413.888,,32,of
screen,html.Screen,2_1_1_1_33,2021-04-24T12:32:48.355Z,,,,,,,,,,,,,,,,,54,,,,,,,,,,,,,,305.1569999761705,,response,,,,100,,,,,,,Space,keypress(Space),,,,,,,,-- --- ---- --- ------ ----- ------- ---- -- --- ------- --<br>------- ---------- ------ -- ----- -- ----- -- ---- ------<br>--- ----- --- --- ------ -------- ----- --- ------ ----- --<br>these ----- ---------- --- --- ------ ------ ---- -- ------<br>------- --- ------ ----- --- ---- ------- -- ---- --- --<br>------- ------,212722.81000000658,212719.04499997618,212397.222,212398.80999998422,212413.888,212730.542,,33,these
screen,html.Screen,2_1_1_1_34,2021-04-24T12:32:48.723Z,,,,,,,,,,,,,,,,,54,,,,,,,,,,,,,,356.55800000429736,,response,,,,100,,,,,,,Space,keypress(Space),,,,,,,,-- --- ---- --- ------ ----- ------- ---- -- --- ------- --<br>------- ---------- ------ -- ----- -- ----- -- ---- ------<br>--- ----- --- --- ------ -------- ----- --- ------ ----- --<br>----- bonds ---------- --- --- ------ ------ ---- -- ------<br>------- --- ------ ----- --- ---- ------- -- ---- --- --<br>------- ------,213091.07999998378,213087.10000000428,212713.876,212722.91999997105,212730.542,213097.194,,34,bonds
screen,html.Screen,2_1_1_1_35,2021-04-24T12:32:49.053Z,,,,,,,,,,,,,,,,,54,,,,,,,,,,,,,,319.8760000249895,,response,,,,100,,,,,,,Space,keypress(Space),,,,,,,,"-- --- ---- --- ------ ----- ------- ---- -- --- ------- --<br>------- ---------- ------ -- ----- -- ----- -- ---- ------<br>--- ----- --- --- ------ -------- ----- --- ------ ----- --<br>----- ----- plummeted, --- --- ------ ------ ---- -- ------<br>------- --- ------ ----- --- ---- ------- -- ---- --- --<br>------- ------",213421.70000000624,213417.07000002498,213080.528,213091.1849999684,213097.194,213430.514,,35,"plummeted,"
screen,html.Screen,2_1_1_1_36,2021-04-24T12:32:49.467Z,,,,,,,,,,,,,,,,,54,,,,,,,,,,,,,,401.55100002416293,,response,,,,100,,,,,,,Space,keypress(Space),,,,,,,,-- --- ---- --- ------ ----- ------- ---- -- --- ------- --<br>------- ---------- ------ -- ----- -- ----- -- ---- ------<br>--- ----- --- --- ------ -------- ----- --- ------ ----- --<br>----- ----- ---------- and --- ------ ------ ---- -- ------<br>------- --- ------ ----- --- ---- ------- -- ---- --- --<br>------- ------,213835.0699999719,213832.06500002416,213413.848,213421.80999997072,213430.514,213847.164,,36,and
screen,html.Screen,2_1_1_1_37,2021-04-24T12:32:49.831Z,,,,,,,,,,,,,,,,,54,,,,,,,,,,,,,,348.0259999985574,,response,,,,100,,,,,,,Space,keypress(Space),,,,,,,,-- --- ---- --- ------ ----- ------- ---- -- --- ------- --<br>------- ---------- ------ -- ----- -- ----- -- ---- ------<br>--- ----- --- --- ------ -------- ----- --- ------ ----- --<br>----- ----- ---------- --- the ------ ------ ---- -- ------<br>------- --- ------ ----- --- ---- ------- -- ---- --- --<br>------- ------,214199.02000000002,214195.18999999855,213830.498,213835.15499997884,213847.164,214213.816,,37,the
screen,html.Screen,2_1_1_1_38,2021-04-24T12:32:50.169Z,,,,,,,,,,,,,,,,,54,,,,,,,,,,,,,,319.22899998922367,,response,,,,100,,,,,,,Space,keypress(Space),,,,,,,,-- --- ---- --- ------ ----- ------- ---- -- --- ------- --<br>------- ---------- ------ -- ----- -- ----- -- ---- ------<br>--- ----- --- --- ------ -------- ----- --- ------ ----- --<br>----- ----- ---------- --- --- market ------ ---- -- ------<br>------- --- ------ ----- --- ---- ------- -- ---- --- --<br>------- ------,214536.87999997055,214533.04499998922,214197.15,214199.1300000227,214213.816,214547.136,,38,market
screen,html.Screen,2_1_1_1_39,2021-04-24T12:32:50.478Z,,,,,,,,,,,,,,,,,54,,,,,,,,,,,,,,294.9640000089421,,response,,,,100,,,,,,,Space,keypress(Space),,,,,,,,-- --- ---- --- ------ ----- ------- ---- -- --- ------- --<br>------- ---------- ------ -- ----- -- ----- -- ---- ------<br>--- ----- --- --- ------ -------- ----- --- ------ ----- --<br>----- ----- ---------- --- --- ------ became ---- -- ------<br>------- --- ------ ----- --- ---- ------- -- ---- --- --<br>------- ------,214845.94999998808,214842.10000000894,214530.47,214536.97000001557,214547.136,214847.124,,39,became
screen,html.Screen,2_1_1_1_40,2021-04-24T12:32:50.766Z,,,,,,,,,,,,,,,,,54,,,,,,,,,,,,,,283.7110000181128,,response,,,,100,,,,,,,Space,keypress(Space),,,,,,,,-- --- ---- --- ------ ----- ------- ---- -- --- ------- --<br>------- ---------- ------ -- ----- -- ----- -- ---- ------<br>--- ----- --- --- ------ -------- ----- --- ------ ----- --<br>----- ----- ---------- --- --- ------ ------ wary -- ------<br>------- --- ------ ----- --- ---- ------- -- ---- --- --<br>------- ------,215134.65500000166,215130.83500001812,214830.458,214846.04999999283,214847.124,215147.112,,40,wary
screen,html.Screen,2_1_1_1_41,2021-04-24T12:32:51.110Z,,,,,,,,,,,,,,,,,54,,,,,,,,,,,,,,326.7680000050168,,response,,,,100,,,,,,,Space,keypress(Space),,,,,,,,-- --- ---- --- ------ ----- ------- ---- -- --- ------- --<br>------- ---------- ------ -- ----- -- ----- -- ---- ------<br>--- ----- --- --- ------ -------- ----- --- ------ ----- --<br>----- ----- ---------- --- --- ------ ------ ---- of ------<br>------- --- ------ ----- --- ---- ------- -- ---- --- --<br>------- ------,215478.14500000095,215473.880000005,215130.446,215134.76500002434,215147.112,215480.432,,41,of
screen,html.Screen,2_1_1_1_42,2021-04-24T12:32:51.460Z,,,,,,,,,,,,,,,,,54,,,,,,,,,,,,,,343.5479999864765,,response,,,,100,,,,,,,Space,keypress(Space),,,,,,,,-- --- ---- --- ------ ----- ------- ---- -- --- ------- --<br>------- ---------- ------ -- ----- -- ----- -- ---- ------<br>--- ----- --- --- ------ -------- ----- --- ------ ----- --<br>----- ----- ---------- --- --- ------ ------ ---- -- French<br>------- --- ------ ----- --- ---- ------- -- ---- --- --<br>------- ------,215827.74999999674,215823.97999998648,215463.766,215478.25500002364,215480.432,215830.418,,42,French
screen,html.Screen,2_1_1_1_43,2021-04-24T12:32:51.881Z,,,,,,,,,,,,,,,,,54,,,,,,,,,,,,,,414.6969999978901,,response,,,,100,,,,,,,Space,keypress(Space),,,,,,,,-- --- ---- --- ------ ----- ------- ---- -- --- ------- --<br>------- ---------- ------ -- ----- -- ----- -- ---- ------<br>--- ----- --- --- ------ -------- ----- --- ------ ----- --<br>----- ----- ---------- --- --- ------ ------ ---- -- ------<br>credit. --- ------ ----- --- ---- ------- -- ---- --- --<br>------- ------,216248.9100000239,216245.1149999979,215813.752,215827.8649999993,215830.418,216263.734,,43,credit.
screen,html.Screen,2_1_1_1_44,2021-04-24T12:32:52.542Z,,,,,,,,,,,,,,,,,54,,,,,,,,,,,,,,642.2459999813582,,response,,,,100,,,,,,,Space,keypress(Space),,,,,,,,-- --- ---- --- ------ ----- ------- ---- -- --- ------- --<br>------- ---------- ------ -- ----- -- ----- -- ---- ------<br>--- ----- --- --- ------ -------- ----- --- ------ ----- --<br>----- ----- ---------- --- --- ------ ------ ---- -- ------<br>------- The ------ ----- --- ---- ------- -- ---- --- --<br>------- ------,216909.76499998942,216905.97999998135,216247.068,216249.01999998838,216263.734,216913.708,,44,The
screen,html.Screen,2_1_1_1_45,2021-04-24T12:32:52.800Z,,,,,,,,,,,,,,,,,54,,,,,,,,,,,,,,250.31200002561673,,response,,,,100,,,,,,,Space,keypress(Space),,,,,,,,-- --- ---- --- ------ ----- ------- ---- -- --- ------- --<br>------- ---------- ------ -- ----- -- ----- -- ---- ------<br>--- ----- --- --- ------ -------- ----- --- ------ ----- --<br>----- ----- ---------- --- --- ------ ------ ---- -- ------<br>------- --- French ----- --- ---- ------- -- ---- --- --<br>------- ------,217168.08999999193,217164.02000002563,216897.042,216909.8750000121,216913.708,217180.364,,45,French
screen,html.Screen,2_1_1_1_46,2021-04-24T12:32:53.121Z,,,,,,,,,,,,,,,,,54,,,,,,,,,,,,,,305.6560000111931,,response,,,,100,,,,,,,Space,keypress(Space),,,,,,,,-- --- ---- --- ------ ----- ------- ---- -- --- ------- --<br>------- ---------- ------ -- ----- -- ----- -- ---- ------<br>--- ----- --- --- ------ -------- ----- --- ------ ----- --<br>----- ----- ---------- --- --- ------ ------ ---- -- ------<br>------- --- ------ state --- ---- ------- -- ---- --- --<br>------- ------,217489.54999999842,217486.0200000112,217163.698,217168.19499997655,217180.364,217497.018,,46,state
screen,html.Screen,2_1_1_1_47,2021-04-24T12:32:53.411Z,,,,,,,,,,,,,,,,,54,,,,,,,,,,,,,,277.9970000210742,,response,,,,100,,,,,,,Space,keypress(Space),,,,,,,,-- --- ---- --- ------ ----- ------- ---- -- --- ------- --<br>------- ---------- ------ -- ----- -- ----- -- ---- ------<br>--- ----- --- --- ------ -------- ----- --- ------ ----- --<br>----- ----- ---------- --- --- ------ ------ ---- -- ------<br>------- --- ------ ----- was ---- ------- -- ---- --- --<br>------- ------,217779.08000000753,217775.01500002109,217480.352,217489.6300000255,217497.018,217780.34,,47,was
screen,html.Screen,2_1_1_1_48,2021-04-24T12:32:53.713Z,,,,,,,,,,,,,,,,,54,,,,,,,,,,,,,,297.6350000219827,,response,,,,100,,,,,,,Space,keypress(Space),,,,,,,,-- --- ---- --- ------ ----- ------- ---- -- --- ------- --<br>------- ---------- ------ -- ----- -- ----- -- ---- ------<br>--- ----- --- --- ------ -------- ----- --- ------ ----- --<br>----- ----- ---------- --- --- ------ ------ ---- -- ------<br>------- --- ------ ----- --- left ------- -- ---- --- --<br>------- ------,218080.92999999644,218077.97500002198,217763.674,217779.16500001447,217780.34,218096.994,,48,left
screen,html.Screen,2_1_1_1_49,2021-04-24T12:32:54.801Z,,,,,,,,,,,,,,,,,54,,,,,,,,,,,,,,1067.9810000215075,,response,,,,100,,,,,,,Space,keypress(Space),,,,,,,,-- --- ---- --- ------ ----- ------- ---- -- --- ------- --<br>------- ---------- ------ -- ----- -- ----- -- ---- ------<br>--- ----- --- --- ------ -------- ----- --- ------ ----- --<br>----- ----- ---------- --- --- ------ ------ ---- -- ------<br>------- --- ------ ----- --- ---- without -- ---- --- --<br>------- ------,219169.09999999916,219164.9750000215,218080.328,218081.01999998325,218096.994,219180.284,,49,without
screen,html.Screen,2_1_1_1_50,2021-04-24T12:32:55.118Z,,,,,,,,,,,,,,,,,54,,,,,,,,,,,,,,301.75099999361555,,response,,,,100,,,,,,,Space,keypress(Space),,,,,,,,-- --- ---- --- ------ ----- ------- ---- -- --- ------- --<br>------- ---------- ------ -- ----- -- ----- -- ---- ------<br>--- ----- --- --- ------ -------- ----- --- ------ ----- --<br>----- ----- ---------- --- --- ------ ------ ---- -- ------<br>------- --- ------ ----- --- ---- ------- an ---- --- --<br>------- ------,219486.2650000141,219482.03499999363,219163.618,219169.21000002185,219180.284,219496.938,,50,an
screen,html.Screen,2_1_1_1_51,2021-04-24T12:32:55.473Z,,,,,,,,,,,,,,,,,54,,,,,,,,,,,,,,340.8520000196004,,response,,,,100,,,,,,,Space,keypress(Space),,,,,,,,-- --- ---- --- ------ ----- ------- ---- -- --- ------- --<br>------- ---------- ------ -- ----- -- ----- -- ---- ------<br>--- ----- --- --- ------ -------- ----- --- ------ ----- --<br>----- ----- ---------- --- --- ------ ------ ---- -- ------<br>------- --- ------ ----- --- ---- ------- -- easy --- --<br>------- ------,219841.66999999434,219837.7900000196,219480.272,219486.36999999871,219496.938,219846.924,,51,easy
screen,html.Screen,2_1_1_1_52,2021-04-24T12:32:55.880Z,,,,,,,,,,,,,,,,,54,,,,,,,,,,,,,,397.78599999903236,,response,,,,100,,,,,,,Space,keypress(Space),,,,,,,,-- --- ---- --- ------ ----- ------- ---- -- --- ------- --<br>------- ---------- ------ -- ----- -- ----- -- ---- ------<br>--- ----- --- --- ------ -------- ----- --- ------ ----- --<br>----- ----- ---------- --- --- ------ ------ ---- -- ------<br>------- --- ------ ----- --- ---- ------- -- ---- way --<br>------- ------,220248.49999998696,220244.70999999903,219830.258,219841.76500001922,219846.924,220263.574,,52,way
screen,html.Screen,2_1_1_1_53,2021-04-24T12:32:56.249Z,,,,,,,,,,,,,,,,,54,,,,,,,,,,,,,,349.50599998098915,,response,,,,100,,,,,,,Space,keypress(Space),,,,,,,,-- --- ---- --- ------ ----- ------- ---- -- --- ------- --<br>------- ---------- ------ -- ----- -- ----- -- ---- ------<br>--- ----- --- --- ------ -------- ----- --- ------ ----- --<br>----- ----- ---------- --- --- ------ ------ ---- -- ------<br>------- --- ------ ----- --- ---- ------- -- ---- --- of<br>------- ------,220617.03000002308,220613.07999998098,220246.908,220248.60499997158,220263.574,220630.226,,53,of
screen,html.Screen,2_1_1_1_54,2021-04-24T12:32:56.707Z,,,,,,,,,,,,,,,,,54,,,,,,,,,,,,,,441.79900000130874,,response,,,,100,,,,,,,Space,keypress(Space),,,,,,,,-- --- ---- --- ------ ----- ------- ---- -- --- ------- --<br>------- ---------- ------ -- ----- -- ----- -- ---- ------<br>--- ----- --- --- ------ -------- ----- --- ------ ----- --<br>----- ----- ---------- --- --- ------ ------ ---- -- ------<br>------- --- ------ ----- --- ---- ------- -- ---- --- --<br>raising ------,221075.33999998122,221072.0250000013,220613.56,220617.13999998756,220630.226,221086.843,,54,raising
screen,html.Screen,2_1_1_1_55,2021-04-24T12:32:57.282Z,,,,,,,,,,,,,,,,,54,,,,,,,,,,,,,,559.1970000214642,,response,,,,100,,,,,,,Space,keypress(Space),,,,,,,,-- --- ---- --- ------ ----- ------- ---- -- --- ------- --<br>------- ---------- ------ -- ----- -- ----- -- ---- ------<br>--- ----- --- --- ------ -------- ----- --- ------ ----- --<br>----- ----- ---------- --- --- ------ ------ ---- -- ------<br>------- --- ------ ----- --- ---- ------- -- ---- --- --<br>------- money.,221650.1799999969,221646.04000002146,221070.177,221075.4200000083,221086.843,221653.487,,55,money.
Item 100,flow.Loop,2_1_1_1,2021-04-24T12:32:57.282Z,,,,,,,,,,,,,,,,,,,,,,,,,,,,,,,25309.37400002146,,completion,,,,,A,,,,,,,,,,,silence,,,,,221650.3650000086,221646.04000002146,196320,196322.76999996975,196336.666,221653.487,,,
Question 1,html.Screen,2_1_1_2,2021-04-24T12:33:00.300Z,,,,,,,,,,,,,,,,,,,,,,,,,,,,true,TRUE,,3012.482999972737,,response,,,,100,A,,,,,,TRUE,click #choice-1,,,,silence,,,,,224668.53500000434,224665.96999997273,221636.821,221650.44499997748,221653.487,224686.699,,,
Question 2,html.Screen,2_1_1_3,2021-04-24T12:33:04.507Z,,,,,,,,,,,,,,,,,,,,,,,,,,,,true,FALSE,,4185.94100001597,,response,,,,100,A,,,,,,FALSE,click #choice-2,,,,silence,,,,,228874.8950000154,228872.64000001596,224670.033,224668.6500000069,224686.699,228886.531,,,
Item 100,flow.Sequence,2_1_1,2021-04-24T12:33:04.507Z,,,,,,,,,,,,,,,,,,,,,,,,,,,,,,,42541.17200001597,,completion,,,,,,,,,,,,,,,,,,,,,228875.0599999912,228872.64000001596,186314.802,186318.86499997927,186331.468,228886.531,,,
End of Practice,html.Page,2_1_2,2021-04-24T12:33:08.662Z,,,,,,,,,,,,,,,,,,,,,,,,,,,,,,,4143.998999989097,,form submission,,,,,,,,,,,,,,,,,,,,,233030.73499997845,233030.52999998908,228869.865,228875.1400000183,228886.531,233031.572,,,
Practice,flow.Sequence,2_1,2021-04-24T12:33:08.663Z,,,,,,,,,,,,,,,,,,,,,,,,,,,,,,,95960.92899998909,,completion,,,,,,,,,,,,,,,,,,,,,233030.9099999722,233030.52999998908,137052.935,137056.82499997783,137069.601,233031.572,,,
Trap_instruction,html.Page,2_2_0,2021-04-24T12:33:12.452Z,,,,,,,,,,,,,,,,,,,,,,,,,,,,,,,3788.7030000055092,,form submission,,,,,,,,,,,,,,,,,,,,,236820.475000015,236820.2750000055,233014.906,233031.01500001503,233031.572,236831.42,,,
trap_trial,html.Screen,2_2_1,2021-04-24T12:33:15.063Z,,,,,,,,,,,,,,,,,,,,,,,,,,,,true,1,,2598.1449999985343,,response,,,,,,,,,,,1,click #choice-1,,,,,,,,,239431.80500000017,239429.56499999855,236814.754,236820.5799999996,236831.42,239447.982,,,
end of trap trial,html.Page,2_2_2,2021-04-24T12:33:16.570Z,,,,,,,,,,,,,,,,,,,,,,,,,,,,,,,1490.4579999980924,,form submission,,,,,,,,,,,,,,,,,,,,,240938.65000002552,240938.43999999808,239431.316,239431.92499998258,239447.982,240947.922,,,
Trap 1,flow.Sequence,2_2,2021-04-24T12:33:16.570Z,,,,,,,,,,,,,,,,,,,,,,,,,,,,,,,7906.867999998096,,completion,,,,,,,,,,,,,,,,,,,,,240938.8049999834,240938.43999999808,233014.906,233030.98500001943,233031.572,240947.922,,,
Standby,html.Page,2_3_0,2021-04-24T12:33:24.564Z,,,,,,,,,,,,,,,,,,,,,,,,,,,,,,,7999.680000000022,,timeout,,,,,,,,,,,,,,,,,,,,,248932.8300000052,248930.936,240931.256,240938.91999998596,240947.922,248947.602,,,
Holding screen,html.Screen,2_3_1_0_0,2021-04-24T12:33:31.575Z,,,,,,,,,,,,,,,,,,,,,,,,,,,,,,,7008.123999999982,,timeout,,,,,,,,,,,,,,,,,,,,,255943.02000000607,255939.06,248930.936,248933.0900000059,248947.602,255955.726,,,
screen,html.Screen,2_3_1_0_1_0,2021-04-24T12:33:32.440Z,,,,,,,,,,,,,,,,,15,,,,,,,,,,,,,,848.0690000143659,,response,,,,7,A,,,,,,Space,keypress(Space),,,,silence,,,,Greg --------- ---------- - --- ------- -- --- ------------<br>----- -- -------- ------- ---- ------ - -------- ---- -----<br>--- ------- ---- -- --- -------- --- - ----- ------ ---- --<br>-------- --- -------- -------- --- -------- ---- -- ----- -<br>-------- ---- --- ---------- --------- -- ------- ------ -<br>--------- ----- -----,256808.4599999711,256803.79500001436,255939.06,255943.16500000423,255955.726,256822.358,,0,Greg
screen,html.Screen,2_3_1_0_1_1,2021-04-24T12:33:33.076Z,,,,,,,,,,,,,,,,,15,,,,,,,,,,,,,,618.8469999809749,,response,,,,7,A,,,,,,Space,keypress(Space),,,,silence,,,,"---- Anderson, ---------- - --- ------- -- --- ------------<br>----- -- -------- ------- ---- ------ - -------- ---- -----<br>--- ------- ---- -- --- -------- --- - ----- ------ ---- --<br>-------- --- -------- -------- --- -------- ---- -- ----- -<br>-------- ---- --- ---------- --------- -- ------- ------ -<br>--------- ----- -----",257444.14500001585,257441.20499998098,256805.692,256808.55999997584,256822.358,257455.666,,1,"Anderson,"
screen,html.Screen,2_3_1_0_1_2,2021-04-24T12:33:33.654Z,,,,,,,,,,,,,,,,,15,,,,,,,,,,,,,,562.7740000143822,,response,,,,7,A,,,,,,Space,keypress(Space),,,,silence,,,,---- --------- considered - --- ------- -- --- ------------<br>----- -- -------- ------- ---- ------ - -------- ---- -----<br>--- ------- ---- -- --- -------- --- - ----- ------ ---- --<br>-------- --- -------- -------- --- -------- ---- -- ----- -<br>-------- ---- --- ---------- --------- -- ------- ------ -<br>--------- ----- -----,258022.36000000266,258018.44000001438,257439,257444.22499998473,257455.666,258038.976,,2,considered
screen,html.Screen,2_3_1_0_1_3,2021-04-24T12:33:34.026Z,,,,,,,,,,,,,,,,,15,,,,,,,,,,,,,,351.41899999490124,,response,,,,7,A,,,,,,Space,keypress(Space),,,,silence,,,,---- --------- ---------- a --- ------- -- --- ------------<br>----- -- -------- ------- ---- ------ - -------- ---- -----<br>--- ------- ---- -- --- -------- --- - ----- ------ ---- --<br>-------- --- -------- -------- --- -------- ---- -- ----- -<br>-------- ---- --- ---------- --------- -- ------- ------ -<br>--------- ----- -----,258394.1900000209,258390.3949999949,258022.31,258022.46499998728,258038.976,258405.628,,3,a
screen,html.Screen,2_3_1_0_1_4,2021-04-24T12:33:34.360Z,,,,,,,,,,,,,,,,,15,,,,,,,,,,,,,,318.7669999683567,,response,,,,7,A,,,,,,Space,keypress(Space),,,,silence,,,,---- --------- ---------- - key ------- -- --- ------------<br>----- -- -------- ------- ---- ------ - -------- ---- -----<br>--- ------- ---- -- --- -------- --- - ----- ------ ---- --<br>-------- --- -------- -------- --- -------- ---- -- ----- -<br>-------- ---- --- ---------- --------- -- ------- ------ -<br>--------- ----- -----,258728.14999998081,258724.39499996835,258388.962,258394.29999998538,258405.628,258738.948,,4,key
screen,html.Screen,2_3_1_0_1_5,2021-04-24T12:33:34.782Z,,,,,,,,,,,,,,,,,15,,,,,,,,,,,,,,406.4669999772159,,response,,,,7,A,,,,,,Space,keypress(Space),,,,silence,,,,---- --------- ---------- - --- witness -- --- ------------<br>----- -- -------- ------- ---- ------ - -------- ---- -----<br>--- ------- ---- -- --- -------- --- - ----- ------ ---- --<br>-------- --- -------- -------- --- -------- ---- -- ----- -<br>-------- ---- --- ---------- --------- -- ------- ------ -<br>--------- ----- -----,259150.13999998337,259145.41499997722,258722.282,258728.24000002583,258738.948,259155.598,,5,witness
screen,html.Screen,2_3_1_0_1_6,2021-04-24T12:33:35.288Z,,,,,,,,,,,,,,,,,15,,,,,,,,,,,,,,497.4169999889564,,response,,,,7,A,,,,,,Space,keypress(Space),,,,silence,,,,---- --------- ---------- - --- ------- by --- ------------<br>----- -- -------- ------- ---- ------ - -------- ---- -----<br>--- ------- ---- -- --- -------- --- - ----- ------ ---- --<br>-------- --- -------- -------- --- -------- ---- -- ----- -<br>-------- ---- --- ---------- --------- -- ------- ------ -<br>--------- ----- -----,259656.75999998348,259653.01499998895,259138.932,259150.25000000605,259155.598,259672.244,,6,by
screen,html.Screen,2_3_1_0_1_7,2021-04-24T12:33:35.678Z,,,,,,,,,,,,,,,,,15,,,,,,,,,,,,,,370.0709999696701,,response,,,,7,A,,,,,,Space,keypress(Space),,,,silence,,,,---- --------- ---------- - --- ------- -- the ------------<br>----- -- -------- ------- ---- ------ - -------- ---- -----<br>--- ------- ---- -- --- -------- --- - ----- ------ ---- --<br>-------- --- -------- -------- --- -------- ---- -- ----- -<br>-------- ---- --- ---------- --------- -- ------- ------ -<br>--------- ----- -----,260046.1699999869,260042.31499996968,259655.578,259656.8649999681,259672.244,260060.767,,7,the
screen,html.Screen,2_3_1_0_1_8,2021-04-24T12:33:36.035Z,,,,,,,,,,,,,,,,,15,,,,,,,,,,,,,,338.49299997650087,,response,,,,7,A,,,,,,Space,keypress(Space),,,,silence,,,,"---- --------- ---------- - --- ------- -- --- prosecution,<br>----- -- -------- ------- ---- ------ - -------- ---- -----<br>--- ------- ---- -- --- -------- --- - ----- ------ ---- --<br>-------- --- -------- -------- --- -------- ---- -- ----- -<br>-------- ---- --- ---------- --------- -- ------- ------ -<br>--------- ----- -----",260403.55499996804,260399.2599999765,260044.101,260046.2749999715,260060.767,260410.753,,8,"prosecution,"
screen,html.Screen,2_3_1_0_1_9,2021-04-24T12:33:36.545Z,,,,,,,,,,,,,,,,,15,,,,,,,,,,,,,,498.64200002423604,,response,,,,7,A,,,,,,Space,keypress(Space),,,,silence,,,,---- --------- ---------- - --- ------- -- --- ------------<br>vowed -- -------- ------- ---- ------ - -------- ---- -----<br>--- ------- ---- -- --- -------- --- - ----- ------ ---- --<br>-------- --- -------- -------- --- -------- ---- -- ----- -<br>-------- ---- --- ---------- --------- -- ------- ------ -<br>--------- ----- -----,260913.6099999887,260909.39500002423,260394.087,260403.6699999706,260410.753,260927.399,,9,vowed
screen,html.Screen,2_3_1_0_1_10,2021-04-24T12:33:36.967Z,,,,,,,,,,,,,,,,,15,,,,,,,,,,,,,,404.0160000223841,,response,,,,7,A,,,,,,Space,keypress(Space),,,,silence,,,,---- --------- ---------- - --- ------- -- --- ------------<br>----- he -------- ------- ---- ------ - -------- ---- -----<br>--- ------- ---- -- --- -------- --- - ----- ------ ---- --<br>-------- --- -------- -------- --- -------- ---- -- ----- -<br>-------- ---- --- ---------- --------- -- ------- ------ -<br>--------- ----- -----,261335.13999998104,261331.4150000224,260910.733,260913.6849999777,260927.399,261344.049,,10,he
screen,html.Screen,2_3_1_0_1_11,2021-04-24T12:33:37.299Z,,,,,,,,,,,,,,,,,15,,,,,,,,,,,,,,319.2660000125179,,response,,,,7,A,,,,,,Space,keypress(Space),,,,silence,,,,---- --------- ---------- - --- ------- -- --- ------------<br>----- -- wouldn't ------- ---- ------ - -------- ---- -----<br>--- ------- ---- -- --- -------- --- - ----- ------ ---- --<br>-------- --- -------- -------- --- -------- ---- -- ----- -<br>-------- ---- --- ---------- --------- -- ------- ------ -<br>--------- ----- -----,261667.02499997336,261663.31500001252,261327.383,261335.23000002606,261344.049,261677.369,,11,wouldn't
screen,html.Screen,2_3_1_0_1_12,2021-04-24T12:33:38.587Z,,,,,,,,,,,,,,,,,15,,,,,,,,,,,,,,1274.9460000022664,,response,,,,7,A,,,,,,Space,keypress(Space),,,,silence,,,,---- --------- ---------- - --- ------- -- --- ------------<br>----- -- -------- testify ---- ------ - -------- ---- -----<br>--- ------- ---- -- --- -------- --- - ----- ------ ---- --<br>-------- --- -------- -------- --- -------- ---- -- ----- -<br>-------- ---- --- ---------- --------- -- ------- ------ -<br>--------- ----- -----,262955.74499998474,262952.3150000023,261660.703,261667.145000014,261677.369,262960.651,,12,testify
screen,html.Screen,2_3_1_0_1_13,2021-04-24T12:33:38.977Z,,,,,,,,,,,,,,,,,15,,,,,,,,,,,,,,380.69900000240887,,response,,,,7,A,,,,,,Space,keypress(Space),,,,silence,,,,---- --------- ---------- - --- ------- -- --- ------------<br>----- -- -------- ------- when ------ - -------- ---- -----<br>--- ------- ---- -- --- -------- --- - ----- ------ ---- --<br>-------- --- -------- -------- --- -------- ---- -- ----- -<br>-------- ---- --- ---------- --------- -- ------- ------ -<br>--------- ----- -----,263345.22999997716,263341.3500000024,262943.985,262955.8299999917,262960.651,263360.635,,13,when
screen,html.Screen,2_3_1_0_1_14,2021-04-24T12:33:39.351Z,,,,,,,,,,,,,,,,,15,,,,,,,,,,,,,,354.6099999703001,,response,,,,7,A,,,,,,Space,keypress(Space),,,,silence,,,,---- --------- ---------- - --- ------- -- --- ------------<br>----- -- -------- ------- ---- served - -------- ---- -----<br>--- ------- ---- -- --- -------- --- - ----- ------ ---- --<br>-------- --- -------- -------- --- -------- ---- -- ----- -<br>-------- ---- --- ---------- --------- -- ------- ------ -<br>--------- ----- -----,263719.18999997433,263715.2449999703,263343.969,263345.33500002,263360.635,263727.287,,14,served
screen,html.Screen,2_3_1_0_1_15,2021-04-24T12:33:39.774Z,,,,,,,,,,,,,,,,,15,,,,,,,,,,,,,,411.74300002027303,,response,,,,7,A,,,,,,Space,keypress(Space),,,,silence,,,,---- --------- ---------- - --- ------- -- --- ------------<br>----- -- -------- ------- ---- ------ a -------- ---- -----<br>--- ------- ---- -- --- -------- --- - ----- ------ ---- --<br>-------- --- -------- -------- --- -------- ---- -- ----- -<br>-------- ---- --- ---------- --------- -- ------- ------ -<br>--------- ----- -----,264142.83000002615,264139.0300000203,263710.621,263719.299999997,263727.287,264143.937,,15,a
screen,html.Screen,2_3_1_0_1_16,2021-04-24T12:33:40.150Z,,,,,,,,,,,,,,,,,15,,,,,,,,,,,,,,370.36299998074537,,response,,,,7,A,,,,,,Space,keypress(Space),,,,silence,,,,---- --------- ---------- - --- ------- -- --- ------------<br>----- -- -------- ------- ---- ------ - subpoena ---- -----<br>--- ------- ---- -- --- -------- --- - ----- ------ ---- --<br>-------- --- -------- -------- --- -------- ---- -- ----- -<br>-------- ---- --- ---------- --------- -- ------- ------ -<br>--------- ----- -----,264518.2700000005,264514.2999999807,264127.271,264142.92000001296,264143.937,264527.255,,16,subpoena
screen,html.Screen,2_3_1_0_1_17,2021-04-24T12:33:40.593Z,,,,,,,,,,,,,,,,,15,,,,,,,,,,,,,,428.98499997041654,,response,,,,7,A,,,,,,Space,keypress(Space),,,,silence,,,,---- --------- ---------- - --- ------- -- --- ------------<br>----- -- -------- ------- ---- ------ - -------- last -----<br>--- ------- ---- -- --- -------- --- - ----- ------ ---- --<br>-------- --- -------- -------- --- -------- ---- -- ----- -<br>-------- ---- --- ---------- --------- -- ------- ------ -<br>--------- ----- -----,264961.04500000365,264956.2399999704,264510.589,264518.3749999851,264527.255,264977.237,,17,last
screen,html.Screen,2_3_1_0_1_18,2021-04-24T12:33:40.978Z,,,,,,,,,,,,,,,,,15,,,,,,,,,,,,,,364.927999979991,,response,,,,7,A,,,,,,Space,keypress(Space),,,,silence,,,,---- --------- ---------- - --- ------- -- --- ------------<br>----- -- -------- ------- ---- ------ - -------- ---- week.<br>--- ------- ---- -- --- -------- --- - ----- ------ ---- --<br>-------- --- -------- -------- --- -------- ---- -- ----- -<br>-------- ---- --- ---------- --------- -- ------- ------ -<br>--------- ----- -----,265346.07500000857,265342.16499998,264960.571,264961.14999998827,264977.237,265360.555,,18,week.
screen,html.Screen,2_3_1_0_1_19,2021-04-24T12:33:41.721Z,,,,,,,,,,,,,,,,,15,,,,,,,,,,,,,,724.684999985795,,response,,,,7,A,,,,,,Space,keypress(Space),,,,silence,,,,---- --------- ---------- - --- ------- -- --- ------------<br>----- -- -------- ------- ---- ------ - -------- ---- -----<br>His ------- ---- -- --- -------- --- - ----- ------ ---- --<br>-------- --- -------- -------- --- -------- ---- -- ----- -<br>-------- ---- --- ---------- --------- -- ------- ------ -<br>--------- ----- -----,266089.0350000118,266085.2399999858,265343.889,265346.1799999932,265360.555,266093.859,,19,His
screen,html.Screen,2_3_1_0_1_20,2021-04-24T12:33:42.045Z,,,,,,,,,,,,,,,,,15,,,,,,,,,,,,,,316.3409999838914,,response,,,,7,A,,,,,,Space,keypress(Space),,,,silence,,,,---- --------- ---------- - --- ------- -- --- ------------<br>----- -- -------- ------- ---- ------ - -------- ---- -----<br>--- lawyers ---- -- --- -------- --- - ----- ------ ---- --<br>-------- --- -------- -------- --- -------- ---- -- ----- -<br>-------- ---- --- ---------- --------- -- ------- ------ -<br>--------- ----- -----,266413.67999999784,266410.1999999839,266077.193,266089.1399999964,266093.859,266427.179,,20,lawyers
screen,html.Screen,2_3_1_0_1_21,2021-04-24T12:33:42.389Z,,,,,,,,,,,,,,,,,15,,,,,,,,,,,,,,326.9559999955818,,response,,,,7,A,,,,,,Space,keypress(Space),,,,silence,,,,---- --------- ---------- - --- ------- -- --- ------------<br>----- -- -------- ------- ---- ------ - -------- ---- -----<br>--- ------- said -- --- -------- --- - ----- ------ ---- --<br>-------- --- -------- -------- --- -------- ---- -- ----- -<br>-------- ---- --- ---------- --------- -- ------- ------ -<br>--------- ----- -----,266757.900000026,266754.1349999956,266410.513,266413.7650000048,266427.179,266760.499,,21,said
screen,html.Screen,2_3_1_0_1_22,2021-04-24T12:33:42.914Z,,,,,,,,,,,,,,,,,15,,,,,,,,,,,,,,519.391000005242,,response,,,,7,A,,,,,,Space,keypress(Space),,,,silence,,,,---- --------- ---------- - --- ------- -- --- ------------<br>----- -- -------- ------- ---- ------ - -------- ---- -----<br>--- ------- ---- he --- -------- --- - ----- ------ ---- --<br>-------- --- -------- -------- --- -------- ---- -- ----- -<br>-------- ---- --- ---------- --------- -- ------- ------ -<br>--------- ----- -----,267282.23999997135,267279.89000000525,266743.833,266758.00999999046,266760.499,267293.811,,22,he
screen,html.Screen,2_3_1_0_1_23,2021-04-24T12:33:43.228Z,,,,,,,,,,,,,,,,,15,,,,,,,,,,,,,,298.36399999796413,,response,,,,7,A,,,,,,Space,keypress(Space),,,,silence,,,,---- --------- ---------- - --- ------- -- --- ------------<br>----- -- -------- ------- ---- ------ - -------- ---- -----<br>--- ------- ---- -- was -------- --- - ----- ------ ---- --<br>-------- --- -------- -------- --- -------- ---- -- ----- -<br>-------- ---- --- ---------- --------- -- ------- ------ -<br>--------- ----- -----,267595.960000006,267592.17499999795,267277.145,267282.31500001857,267293.811,267610.465,,23,was
screen,html.Screen,2_3_1_0_1_24,2021-04-24T12:33:43.558Z,,,,,,,,,,,,,,,,,15,,,,,,,,,,,,,,312.7650000148569,,response,,,,7,A,,,,,,Space,keypress(Space),,,,silence,,,,---- --------- ---------- - --- ------- -- --- ------------<br>----- -- -------- ------- ---- ------ - -------- ---- -----<br>--- ------- ---- -- --- prepared --- - ----- ------ ---- --<br>-------- --- -------- -------- --- -------- ---- -- ----- -<br>-------- ---- --- ---------- --------- -- ------- ------ -<br>--------- ----- -----,267926.8499999889,267923.2300000149,267593.799,267596.0699999705,267610.465,267943.785,,24,prepared
screen,html.Screen,2_3_1_0_1_25,2021-04-24T12:33:43.909Z,,,,,,,,,,,,,,,,,15,,,,,,,,,,,,,,330.4149999853107,,response,,,,7,A,,,,,,Space,keypress(Space),,,,silence,,,,---- --------- ---------- - --- ------- -- --- ------------<br>----- -- -------- ------- ---- ------ - -------- ---- -----<br>--- ------- ---- -- --- -------- for - ----- ------ ---- --<br>-------- --- -------- -------- --- -------- ---- -- ----- -<br>-------- ---- --- ---------- --------- -- ------- ------ -<br>--------- ----- -----,268277.35499996925,268274.1999999853,267927.119,267926.93499999586,267943.785,268293.771,,25,for
screen,html.Screen,2_3_1_0_1_26,2021-04-24T12:33:44.245Z,,,,,,,,,,,,,,,,,15,,,,,,,,,,,,,,316.328999990772,,response,,,,7,A,,,,,,Space,keypress(Space),,,,silence,,,,---- --------- ---------- - --- ------- -- --- ------------<br>----- -- -------- ------- ---- ------ - -------- ---- -----<br>--- ------- ---- -- --- -------- --- a ----- ------ ---- --<br>-------- --- -------- -------- --- -------- ---- -- ----- -<br>-------- ---- --- ---------- --------- -- ------- ------ -<br>--------- ----- -----,268613.88499999885,268610.0999999908,268277.105,268277.4399999762,268293.771,268627.091,,26,a
screen,html.Screen,2_3_1_0_1_27,2021-04-24T12:33:44.550Z,,,,,,,,,,,,,,,,,15,,,,,,,,,,,,,,288.8589999950491,,response,,,,7,A,,,,,,Space,keypress(Space),,,,silence,,,,---- --------- ---------- - --- ------- -- --- ------------<br>----- -- -------- ------- ---- ------ - -------- ---- -----<br>--- ------- ---- -- --- -------- --- - third ------ ---- --<br>-------- --- -------- -------- --- -------- ---- -- ----- -<br>-------- ---- --- ---------- --------- -- ------- ------ -<br>--------- ----- -----,268918.92999998527,268915.94999999506,268610.425,268613.99500002153,268627.091,268927.079,,27,third
screen,html.Screen,2_3_1_0_1_28,2021-04-24T12:33:44.857Z,,,,,,,,,,,,,,,,,15,,,,,,,,,,,,,,294.99599999783095,,response,,,,7,A,,,,,,Space,keypress(Space),,,,silence,,,,---- --------- ---------- - --- ------- -- --- ------------<br>----- -- -------- ------- ---- ------ - -------- ---- -----<br>--- ------- ---- -- --- -------- --- - ----- prison ---- --<br>-------- --- -------- -------- --- -------- ---- -- ----- -<br>-------- ---- --- ---------- --------- -- ------- ------ -<br>--------- ----- -----,269225.90499999933,269222.07499999786,268910.413,268919.02500001015,268927.079,269227.067,,28,prison
screen,html.Screen,2_3_1_0_1_29,2021-04-24T12:33:45.130Z,,,,,,,,,,,,,,,,,15,,,,,,,,,,,,,,268.1129999689874,,response,,,,7,A,,,,,,Space,keypress(Space),,,,silence,,,,---- --------- ---------- - --- ------- -- --- ------------<br>----- -- -------- ------- ---- ------ - -------- ---- -----<br>--- ------- ---- -- --- -------- --- - ----- ------ stay --<br>-------- --- -------- -------- --- -------- ---- -- ----- -<br>-------- ---- --- ---------- --------- -- ------- ------ -<br>--------- ----- -----,269498.82500001695,269495.17999996897,269210.401,269226.00999998394,269227.067,269510.389,,29,stay
screen,html.Screen,2_3_1_0_1_30,2021-04-24T12:33:45.574Z,,,,,,,,,,,,,,,,,15,,,,,,,,,,,,,,428.530999985931,,response,,,,7,A,,,,,,Space,keypress(Space),,,,silence,,,,---- --------- ---------- - --- ------- -- --- ------------<br>----- -- -------- ------- ---- ------ - -------- ---- -----<br>--- ------- ---- -- --- -------- --- - ----- ------ ---- to<br>-------- --- -------- -------- --- -------- ---- -- ----- -<br>-------- ---- --- ---------- --------- -- ------- ------ -<br>--------- ----- -----,269942.38999998197,269938.91999998596,269493.723,269498.9100000239,269510.389,269948.924,,30,to
screen,html.Screen,2_3_1_0_1_31,2021-04-24T12:33:45.906Z,,,,,,,,,,,,,,,,,15,,,,,,,,,,,,,,322.22599998593796,,response,,,,7,A,,,,,,Space,keypress(Space),,,,silence,,,,---- --------- ---------- - --- ------- -- --- ------------<br>----- -- -------- ------- ---- ------ - -------- ---- -----<br>--- ------- ---- -- --- -------- --- - ----- ------ ---- --<br>maintain --- -------- -------- --- -------- ---- -- ----- -<br>-------- ---- --- ---------- --------- -- ------- ------ -<br>--------- ----- -----,270274.0299999714,270271.14999998594,269932.258,269942.4799999688,269948.924,270282.244,,31,maintain
screen,html.Screen,2_3_1_0_1_32,2021-04-24T12:33:46.261Z,,,,,,,,,,,,,,,,,15,,,,,,,,,,,,,,343.7109999958775,,response,,,,7,A,,,,,,Space,keypress(Space),,,,silence,,,,---- --------- ---------- - --- ------- -- --- ------------<br>----- -- -------- ------- ---- ------ - -------- ---- -----<br>--- ------- ---- -- --- -------- --- - ----- ------ ---- --<br>-------- his -------- -------- --- -------- ---- -- ----- -<br>-------- ---- --- ---------- --------- -- ------- ------ -<br>--------- ----- -----,270629.4600000256,270625.9549999959,270265.578,270274.1200000164,270282.244,270632.23,,32,his
screen,html.Screen,2_3_1_0_1_33,2021-04-24T12:33:46.965Z,,,,,,,,,,,,,,,,,15,,,,,,,,,,,,,,698.6550000030547,,response,,,,7,A,,,,,,Space,keypress(Space),,,,silence,,,,---- --------- ---------- - --- ------- -- --- ------------<br>----- -- -------- ------- ---- ------ - -------- ---- -----<br>--- ------- ---- -- --- -------- --- - ----- ------ ---- --<br>-------- --- silence. -------- --- -------- ---- -- ----- -<br>-------- ---- --- ---------- --------- -- ------- ------ -<br>--------- ----- -----,271333.75499997055,271330.88500000304,270615.564,270629.580000008,270632.23,271348.868,,33,silence.
screen,html.Screen,2_3_1_0_1_34,2021-04-24T12:33:47.312Z,,,,,,,,,,,,,,,,,15,,,,,,,,,,,,,,328.19699999620207,,response,,,,7,A,,,,,,Space,keypress(Space),,,,silence,,,,---- --------- ---------- - --- ------- -- --- ------------<br>----- -- -------- ------- ---- ------ - -------- ---- -----<br>--- ------- ---- -- --- -------- --- - ----- ------ ---- --<br>-------- --- -------- Anderson --- -------- ---- -- ----- -<br>-------- ---- --- ---------- --------- -- ------- ------ -<br>--------- ----- -----,271680.87500002,271677.0649999962,271332.202,271333.8399999775,271348.868,271682.188,,34,Anderson
screen,html.Screen,2_3_1_0_1_35,2021-04-24T12:33:47.678Z,,,,,,,,,,,,,,,,,15,,,,,,,,,,,,,,360.67199998680735,,response,,,,7,A,,,,,,Space,keypress(Space),,,,silence,,,,---- --------- ---------- - --- ------- -- --- ------------<br>----- -- -------- ------- ---- ------ - -------- ---- -----<br>--- ------- ---- -- --- -------- --- - ----- ------ ---- --<br>-------- --- -------- -------- was -------- ---- -- ----- -<br>-------- ---- --- ---------- --------- -- ------- ------ -<br>--------- ----- -----,272046.87999997986,272042.85999998683,271665.522,271680.9849999845,271682.188,272048.84,,35,was
screen,html.Screen,2_3_1_0_1_36,2021-04-24T12:33:48.208Z,,,,,,,,,,,,,,,,,15,,,,,,,,,,,,,,523.0800000166637,,response,,,,7,A,,,,,,Space,keypress(Space),,,,silence,,,,---- --------- ---------- - --- ------- -- --- ------------<br>----- -- -------- ------- ---- ------ - -------- ---- -----<br>--- ------- ---- -- --- -------- --- - ----- ------ ---- --<br>-------- --- -------- -------- --- released ---- -- ----- -<br>-------- ---- --- ---------- --------- -- ------- ------ -<br>--------- ----- -----,272576.08999998774,272571.9200000167,272032.174,272046.9850000227,272048.84,272582.152,,36,released
screen,html.Screen,2_3_1_0_1_37,2021-04-24T12:33:48.507Z,,,,,,,,,,,,,,,,,15,,,,,,,,,,,,,,290.6429999738466,,response,,,,7,A,,,,,,Space,keypress(Space),,,,silence,,,,---- --------- ---------- - --- ------- -- --- ------------<br>----- -- -------- ------- ---- ------ - -------- ---- -----<br>--- ------- ---- -- --- -------- --- - ----- ------ ---- --<br>-------- --- -------- -------- --- -------- July -- ----- -<br>-------- ---- --- ---------- --------- -- ------- ------ -<br>--------- ----- -----,272875.784999982,272872.79499997385,272565.486,272576.19499997236,272582.152,272882.14,,37,July
screen,html.Screen,2_3_1_0_1_38,2021-04-24T12:33:48.862Z,,,,,,,,,,,,,,,,,15,,,,,,,,,,,,,,344.64999998605344,,response,,,,7,A,,,,,,Space,keypress(Space),,,,silence,,,,---- --------- ---------- - --- ------- -- --- ------------<br>----- -- -------- ------- ---- ------ - -------- ---- -----<br>--- ------- ---- -- --- -------- --- - ----- ------ ---- --<br>-------- --- -------- -------- --- -------- ---- 20 ----- -<br>-------- ---- --- ---------- --------- -- ------- ------ -<br>--------- ----- -----,273230.57000001427,273226.78999998607,272865.474,272875.8749999688,272882.14,273232.126,,38,20
