sender,sender_type,sender_id,timestamp,meta,,Blues,Classical,Country,Dance,Electronic,Folk,Gospel,Hip-Hop,Jazz,Latin,Musical/Film,New-age,Pop,Prolific_id,Provo_ID,R&B,Rap,Reggae,Religious,Rock,Soul,Swing,Traditional,age,artist_name,correct,correctResponse,distraction,duration,education,ended_on,familiarity,gender,headphone_check_performance,item,list,music_frequency,offensiveness,pleasantness,position_correct,preference,response,response_action,snippet_file,song_name,song_rating,sound,stimulus_1,stimulus_2,stimulus_3,text,time_commit,time_end,time_render,time_run,time_show,time_switch,url,word,word_ID
Prolific ID,html.Form,0,2021-04-24T14:03:00.866Z,"{""labjs_version"":""20.2.2"",""labjs_build"":{""flavor"":""production"",""commit"":""a25486e0c714a0ae2ce03ff94b7bb6896854dcfa""},""location"":""https://run.pavlovia.org/mvasilev/prolific_music_b/"",""userAgent"":""Mozilla/5.0 (Windows NT 10.0; Win64; x64) AppleWebKit/537.36 (KHTML, like Gecko) Chrome/90.0.4430.85 Safari/537.36"",""platform"":""Win32"",""language"":""en-US"",""locale"":""en-US"",""timeZone"":""Europe/London"",""timezoneOffset"":-60,""screen_width"":1920,""screen_height"":1080,""scroll_width"":1920,""scroll_height"":893,""window_innerWidth"":1920,""window_innerHeight"":941,""devicePixelRatio"":1}",,,,,,,,,,,,,,,5eb2b9988b63a203600b503d,,,,,,,,,,,,,,,2331.23199999817,,form submission,,,,,,,,,,,,,,,,,,,,,13868.470000001253,13868.15999999817,11503.567,11518.660000001546,11536.928,13870.289,{},,
Introduction,html.Screen,1_0,2021-04-24T14:03:03.844Z,,,,,,,,,,,,,,,,,,,,,,,,,,,,,,,2974.3759999968934,,response,,,,,,,,,,,continue,click button,,,,,,,,,16846.234999989974,16844.664999996894,13853.642,13868.699999991804,13870.289,16870.353,,,
Volume calibration,html.Screen,1_1,2021-04-24T14:03:23.124Z,,,,,,,,,,,,,,,,,,,,,,,,,,,,,,,19253.831999993305,,response,,,,,,,,,,,continue,click button,,,,,,,,,36126.015000001644,36124.184999993304,16853.775,16846.36499999033,16870.353,36137.256,,,
Task instructions,html.Screen,1_2,2021-04-24T14:03:33.446Z,,,,,,,,,,,,,,,,,,,,,,,,,,,,,,,10310.604000000218,,response,,,,,,,,,,,continue,click button,,,,,,,,,46448.52499999979,46447.86000000022,36120.534,36126.09999999404,36137.256,46470.589,,,
Sounds,html.Screen,1_3_0_0,2021-04-24T14:03:37.703Z,,,,,,,,,,,,,,,,,,,,,,,,,,,,,,,4250.012999999999,,timeout,,,,,,,,,2,,,,,,,,O,S,I,,50705.39999999164,50704.008,46453.905,46448.71499999135,46470.589,50720.602,,,
Judgement,html.Screen,1_3_0_1,2021-04-24T14:03:39.263Z,,,,,,,,,,,,,,,,,,,,,,,,,,,,true,2,,1544.092999990753,,response,,,,,,,,,2,,2,click #choice-2,,,,,O,S,I,,52265.4099999927,52264.69499999075,50704.008,50705.50999999978,50720.602,52270.749,,,
Trial,flow.Sequence,1_3_0,2021-04-24T14:03:39.263Z,,,,,,,,,,,,,,,,,,,,,,,,,,,,,,,5794.105999990752,,completion,,,,,,,,,2,,,,,,,,O,S,I,,52265.65999999002,52264.69499999075,46453.905,46448.66499998898,46470.589,52270.749,,,
Sounds,html.Screen,1_3_1_0,2021-04-24T14:03:43.502Z,,,,,,,,,,,,,,,,,,,,,,,,,,,,,,,4249.956999999995,,timeout,,,,,,,,,1,,,,,,,,S,I,O,,56504.47499999427,56503.989,52254.087,52265.77499999257,52270.749,56520.706,,,
Judgement,html.Screen,1_3_1_1,2021-04-24T14:03:43.943Z,,,,,,,,,,,,,,,,,,,,,,,,,,,,true,1,,423.9639999971332,,response,,,,,,,,,1,,1,click #choice-1,,,,,S,I,O,,56945.309999995516,56944.66999999713,56503.989,56504.56999999005,56520.706,56954.122,,,
Trial,flow.Sequence,1_3_1,2021-04-24T14:03:43.943Z,,,,,,,,,,,,,,,,,,,,,,,,,,,,,,,4673.920999997128,,completion,,,,,,,,,1,,,,,,,,S,I,O,,56945.449999999255,56944.66999999713,52254.087,52265.74000000255,52270.749,56954.122,,,
Sounds,html.Screen,1_3_2_0,2021-04-24T14:03:48.186Z,,,,,,,,,,,,,,,,,,,,,,,,,,,,,,,4250.002,,timeout,,,,,,,,,2,,,,,,,,I,S,O,,61187.864999999874,61187.372,56937.521,56945.54999998945,56954.122,61204.124,,,
Judgement,html.Screen,1_3_2_1,2021-04-24T14:03:48.600Z,,,,,,,,,,,,,,,,,,,,,,,,,,,,true,2,,397.4659999911164,,response,,,,,,,,,2,,2,click #choice-2,,,,,I,S,O,,61602.129999999306,61601.58999999112,61187.372,61187.94499999785,61204.124,61620.666,,,
Trial,flow.Sequence,1_3_2,2021-04-24T14:03:48.600Z,,,,,,,,,,,,,,,,,,,,,,,,,,,,,,,4647.467999991117,,completion,,,,,,,,,2,,,,,,,,I,S,O,,61602.26999998849,61601.58999999112,56937.521,56945.51999999385,56954.122,61620.666,,,
Sounds,html.Screen,1_3_3_0,2021-04-24T14:03:52.853Z,,,,,,,,,,,,,,,,,,,,,,,,,,,,,,,4250.298999999999,,timeout,,,,,,,,,3,,,,,,,,O,I,S,,65854.89499999676,65854.293,61603.986,61602.36499999883,61620.666,65870.965,,,
Judgement,html.Screen,1_3_3_1,2021-04-24T14:03:53.242Z,,,,,,,,,,,,,,,,,,,,,,,,,,,,true,3,,372.82499999317224,,response,,,,,,,,,3,,3,click #choice-3,,,,,O,I,S,,66244.37999998918,66243.78999999317,65854.293,65854.98999999254,65870.965,66254.299,,,
Trial,flow.Sequence,1_3_3,2021-04-24T14:03:53.242Z,,,,,,,,,,,,,,,,,,,,,,,,,,,,,,,4623.123999993171,,completion,,,,,,,,,3,,,,,,,,O,I,S,,66244.52500000189,66243.78999999317,61603.986,61602.33499998867,61620.666,66254.299,,,
Sounds,html.Screen,1_3_4_0,2021-04-24T14:03:57.486Z,,,,,,,,,,,,,,,,,,,,,,,,,,,,,,,4249.812999999995,,timeout,,,,,,,,,1,,,,,,,,S,O,I,,70487.95999999857,70487.434,66237.635,66244.61999999767,66254.299,70504.112,,,
Judgement,html.Screen,1_3_4_1,2021-04-24T14:03:57.859Z,,,,,,,,,,,,,,,,,,,,,,,,,,,,true,1,,356.7229999995034,,response,,,,,,,,,1,,1,click #choice-1,,,,,S,O,I,,70861.52999999467,70860.8349999995,70487.434,70488.04499999096,70504.112,70870.909,,,
Trial,flow.Sequence,1_3_4,2021-04-24T14:03:57.859Z,,,,,,,,,,,,,,,,,,,,,,,,,,,,,,,4606.535999999498,,completion,,,,,,,,,1,,,,,,,,S,O,I,,70861.67499999283,70860.8349999995,66237.635,66244.59000000206,66254.299,70870.909,,,
Sounds,html.Screen,1_3_5_0,2021-04-24T14:04:02.102Z,,,,,,,,,,,,,,,,,,,,,,,,,,,,,,,4249.894,,timeout,,,,,,,,,3,,,,,,,,I,O,S,,75104.47999999451,75104.076,70854.122,70861.76999998861,70870.909,75120.803,,,
Judgement,html.Screen,1_3_5_1,2021-04-24T14:04:02.416Z,,,,,,,,,,,,,,,,,,,,,,,,,,,,true,3,,296.89699999087316,,response,,,,,,,,,3,,3,click #choice-3,,,,,I,O,S,,75418.30499999924,75417.69999999087,75104.076,75104.56500000146,75120.803,75437.53,,,
Trial,flow.Sequence,1_3_5,2021-04-24T14:04:02.416Z,,,,,,,,,,,,,,,,,,,,,,,,,,,,,,,4546.790999990873,,completion,,,,,,,,,3,,,,,,,,I,O,S,,75418.43499999959,75417.69999999087,70854.122,70861.74500000197,70870.909,75437.53,,,
Task,flow.Loop,1_3,2021-04-24T14:04:02.419Z,,,,,,,,,,,,,,,,,,,,,,,,,,,,,,,28947.110999990873,,completion,,,1,,,,,,,,,,,,,,,,,,75420.88999999396,75417.69999999087,46453.905,46448.61999999557,46470.589,75437.53,,,
Trap,html.Screen,1_4,2021-04-24T14:04:02.420Z,,,,,,,,,,,,,,,,,,,,,,,,,,,,,,,NaN,,skipped,,,,,,,,,,,,,,,,,,,,,75422.34999999346,75417.69999999087,,75422.26999999548,,75437.53,,,
Thanks,html.Screen,1_5,2021-04-24T14:04:07.005Z,,,,,,,,,,,,,,,,,,,,,,,,,,,,,,,4569.140000002488,,response,,,,,,,,,,,continue,click button,,,,,,,,,80007.33500000206,80006.67000000249,75420.82,75422.4350000004,75437.53,84154.169,,,
Headphone screening,flow.Sequence,1,2021-04-24T14:04:07.005Z,,,,,,,,,,,,,,,,,,,,,,,,,,,,,,,66136.38100000248,,completion,,,,,,,,,,,,,,,,,,,,,80007.46500000241,80006.67000000249,13853.642,13868.6699999962,13870.289,84154.169,,,
Instructions,html.Page,2_0,2021-04-24T14:04:30.528Z,,,,,,,,,,,,,,,,,,,,,,,,,,,,,,,19375.58100000152,,form submission,,,,,,,,,,,,,,,,,,,,,103530.09499999462,103529.75000000151,84137.557,84132.36499999766,84154.169,103537.712,,,
Holding screen,html.Screen,2_1_0_0,2021-04-24T14:04:40.519Z,,,,,,,,,,,,,,,,,,,,,,,,,,,,,,,10000.085999999996,,timeout,,,,,,,,,,,,,,,,,,,,,113521.42999999342,113521.1,103521.047,103530.26499999396,103537.712,113537.798,,,
screen,html.Screen,2_1_0_1_0,2021-04-24T14:04:43.057Z,,,,,,,,,,,,,,,,,53,,,,,,,,,,,,,,2520.42700000068,,response,,,,99,,,,,,,Space,keypress(Space),,,,,,,,When -- ----- -- ------ - ------- --- ----------<br>------------- ------ ------ ---- ---- ------- ----- -- ----<br>-------- ------- -- ---------- --- - --- ----- ----- ----<br>---- --- --- ----- --- ---- ---- ------- ----- ---- -------<br>--- --- -- ----- -- --- ---- -- --- ---- -- ------ ------<br>--- ----- -- ----,116059.73999999696,116058.22500000068,113521.1,113521.56500000274,113537.798,116071.15,,0,When
screen,html.Screen,2_1_0_1_1,2021-04-24T14:04:44.088Z,,,,,,,,,,,,,,,,,53,,,,,,,,,,,,,,1018.5799999924202,,response,,,,99,,,,,,,Space,keypress(Space),,,,,,,,---- it ----- -- ------ - ------- --- ----------<br>------------- ------ ------ ---- ---- ------- ----- -- ----<br>-------- ------- -- ---------- --- - --- ----- ----- ----<br>---- --- --- ----- --- ---- ---- ------- ----- ---- -------<br>--- --- -- ----- -- --- ---- -- --- ---- -- ------ ------<br>--- ----- -- ----,117090.19499999704,117089.72999999241,116054.327,116059.84999999055,116071.15,117104.531,,1,it
screen,html.Screen,2_1_0_1_2,2021-04-24T14:04:44.752Z,,,,,,,,,,,,,,,,,53,,,,,,,,,,,,,,649.0539999985631,,response,,,,99,,,,,,,Space,keypress(Space),,,,,,,,---- -- comes -- ------ - ------- --- ----------<br>------------- ------ ------ ---- ---- ------- ----- -- ----<br>-------- ------- -- ---------- --- - --- ----- ----- ----<br>---- --- --- ----- --- ---- ---- ------- ----- ---- -------<br>--- --- -- ----- -- --- ---- -- --- ---- -- ------ ------<br>--- ----- -- ----,117754.00000000081,117753.58499999857,117088.001,117090.27999998943,117104.531,117754.603,,2,comes
screen,html.Screen,2_1_0_1_3,2021-04-24T14:04:45.416Z,,,,,,,,,,,,,,,,,53,,,,,,,,,,,,,,662.8619999913499,,response,,,,99,,,,,,,Space,keypress(Space),,,,,,,,---- -- ----- to ------ - ------- --- ----------<br>------------- ------ ------ ---- ---- ------- ----- -- ----<br>-------- ------- -- ---------- --- - --- ----- ----- ----<br>---- --- --- ----- --- ---- ---- ------- ----- ---- -------<br>--- --- -- ----- -- --- ---- -- --- ---- -- ------ ------<br>--- ----- -- ----,118417.86999999022,118417.46499999135,117737.829,117754.13999999,117754.603,118421.148,,3,to
screen,html.Screen,2_1_0_1_4,2021-04-24T14:04:45.968Z,,,,,,,,,,,,,,,,,53,,,,,,,,,,,,,,548.6069999982574,,response,,,,99,,,,,,,Space,keypress(Space),,,,,,,,---- -- ----- -- having - ------- --- ----------<br>------------- ------ ------ ---- ---- ------- ----- -- ----<br>-------- ------- -- ---------- --- - --- ----- ----- ----<br>---- --- --- ----- --- ---- ---- ------- ----- ---- -------<br>--- --- -- ----- -- --- ---- -- --- ---- -- ------ ------<br>--- ----- -- ----,118970.2549999929,118969.75499999826,118404.442,118417.95499999716,118421.148,118989.149,,4,having
screen,html.Screen,2_1_0_1_5,2021-04-24T14:04:46.488Z,,,,,,,,,,,,,,,,,53,,,,,,,,,,,,,,500.671000002505,,response,,,,99,,,,,,,Space,keypress(Space),,,,,,,,---- -- ----- -- ------ a ------- --- ----------<br>------------- ------ ------ ---- ---- ------- ----- -- ----<br>-------- ------- -- ---------- --- - --- ----- ----- ----<br>---- --- --- ----- --- ---- ---- ------- ----- ---- -------<br>--- --- -- ----- -- --- ---- -- --- ---- -- ------ ------<br>--- ----- -- ----,119490.27999999817,119489.82000000251,118954.474,118970.33499999088,118989.149,119504.548,,5,a
screen,html.Screen,2_1_0_1_6,2021-04-24T14:04:46.992Z,,,,,,,,,,,,,,,,,53,,,,,,,,,,,,,,489.0669999994134,,response,,,,99,,,,,,,Space,keypress(Space),,,,,,,,---- -- ----- -- ------ - lasting --- ----------<br>------------- ------ ------ ---- ---- ------- ----- -- ----<br>-------- ------- -- ---------- --- - --- ----- ----- ----<br>---- --- --- ----- --- ---- ---- ------- ----- ---- -------<br>--- --- -- ----- -- --- ---- -- --- ---- -- ------ ------<br>--- ----- -- ----,119994.07499999506,119993.61499999941,119488.103,119490.36499999056,119504.548,120004.506,,6,lasting
screen,html.Screen,2_1_0_1_7,2021-04-24T14:04:47.519Z,,,,,,,,,,,,,,,,,53,,,,,,,,,,,,,,517.1439999951399,,response,,,,99,,,,,,,Space,keypress(Space),,,,,,,,---- -- ----- -- ------ - ------- and ----------<br>------------- ------ ------ ---- ---- ------- ----- -- ----<br>-------- ------- -- ---------- --- - --- ----- ----- ----<br>---- --- --- ----- --- ---- ---- ------- ----- ---- -------<br>--- --- -- ----- -- --- ---- -- --- ---- -- ------ ------<br>--- ----- -- ----,120522.11499999976,120521.64999999513,119987.949,119994.16499999643,120004.506,120537.797,,7,and
screen,html.Screen,2_1_0_1_8,2021-04-24T14:04:48.008Z,,,,,,,,,,,,,,,,,53,,,,,,,,,,,,,,472.02800000099523,,response,,,,99,,,,,,,Space,keypress(Space),,,,,,,,---- -- ----- -- ------ - ------- --- fulfilling<br>------------- ------ ------ ---- ---- ------- ----- -- ----<br>-------- ------- -- ---------- --- - --- ----- ----- ----<br>---- --- --- ----- --- ---- ---- ------- ----- ---- -------<br>--- --- -- ----- -- --- ---- -- --- ---- -- ------ ------<br>--- ----- -- ----,121010.25999999547,121009.825000001,120521.135,120522.22499999334,120537.797,121021.307,,8,fulfilling
screen,html.Screen,2_1_0_1_9,2021-04-24T14:04:48.767Z,,,,,,,,,,,,,,,,,53,,,,,,,,,,,,,,747.7079999980342,,response,,,,99,,,,,,,Space,keypress(Space),,,,,,,,"---- -- ----- -- ------ - ------- --- ----------<br>relationship, ------ ------ ---- ---- ------- ----- -- ----<br>-------- ------- -- ---------- --- - --- ----- ----- ----<br>---- --- --- ----- --- ---- ---- ------- ----- ---- -------<br>--- --- -- ----- -- --- ---- -- --- ---- -- ------ ------<br>--- ----- -- ----",121769.37999999791,121769.01499999803,121004.468,121010.34500000242,121021.307,121771.139,,9,"relationship,"
screen,html.Screen,2_1_0_1_10,2021-04-24T14:04:49.463Z,,,,,,,,,,,,,,,,,53,,,,,,,,,,,,,,694.6759999886563,,response,,,,99,,,,,,,Space,keypress(Space),,,,,,,,---- -- ----- -- ------ - ------- --- ----------<br>------------- common ------ ---- ---- ------- ----- -- ----<br>-------- ------- -- ---------- --- - --- ----- ----- ----<br>---- --- --- ----- --- ---- ---- ------- ----- ---- -------<br>--- --- -- ----- -- --- ---- -- --- ---- -- ------ ------<br>--- ----- -- ----,122466.16499999072,122465.81499998865,121754.735,121769.4649999903,121771.139,122471.182,,10,common
screen,html.Screen,2_1_0_1_11,2021-04-24T14:04:50.024Z,,,,,,,,,,,,,,,,,53,,,,,,,,,,,,,,554.6479999986768,,response,,,,99,,,,,,,Space,keypress(Space),,,,,,,,---- -- ----- -- ------ - ------- --- ----------<br>------------- ------ wisdom ---- ---- ------- ----- -- ----<br>-------- ------- -- ---------- --- - --- ----- ----- ----<br>---- --- --- ----- --- ---- ---- ------- ----- ---- -------<br>--- --- -- ----- -- --- ---- -- --- ---- -- ------ ------<br>--- ----- -- ----,123026.25499998976,123025.82999999868,122454.543,122466.2449999887,122471.182,123038.096,,11,wisdom
screen,html.Screen,2_1_0_1_12,2021-04-24T14:04:50.520Z,,,,,,,,,,,,,,,,,53,,,,,,,,,,,,,,483.7539999900764,,response,,,,99,,,,,,,Space,keypress(Space),,,,,,,,---- -- ----- -- ------ - ------- --- ----------<br>------------- ------ ------ says ---- ------- ----- -- ----<br>-------- ------- -- ---------- --- - --- ----- ----- ----<br>---- --- --- ----- --- ---- ---- ------- ----- ---- -------<br>--- --- -- ----- -- --- ---- -- --- ---- -- ------ ------<br>--- ----- -- ----,123522.27999999013,123521.84999999008,123021.3,123026.33999999671,123038.096,123538.011,,12,says
screen,html.Screen,2_1_0_1_13,2021-04-24T14:04:50.959Z,,,,,,,,,,,,,,,,,53,,,,,,,,,,,,,,423.6289999940782,,response,,,,99,,,,,,,Space,keypress(Space),,,,,,,,---- -- ----- -- ------ - ------- --- ----------<br>------------- ------ ------ ---- that ------- ----- -- ----<br>-------- ------- -- ---------- --- - --- ----- ----- ----<br>---- --- --- ----- --- ---- ---- ------- ----- ---- -------<br>--- --- -- ----- -- --- ---- -- --- ---- -- ------ ------<br>--- ----- -- ----,123961.99999999953,123961.63999999408,123521.408,123522.3699999915,123538.011,123971.221,,13,that
screen,html.Screen,2_1_0_1_14,2021-04-24T14:04:51.407Z,,,,,,,,,,,,,,,,,53,,,,,,,,,,,,,,438.25900000207184,,response,,,,99,,,,,,,Space,keypress(Space),,,,,,,,---- -- ----- -- ------ - ------- --- ----------<br>------------- ------ ------ ---- ---- feeling ----- -- ----<br>-------- ------- -- ---------- --- - --- ----- ----- ----<br>---- --- --- ----- --- ---- ---- ------- ----- ---- -------<br>--- --- -- ----- -- --- ---- -- --- ---- -- ------ ------<br>--- ----- -- ----,124409.85999999975,124409.48000000208,123954.718,123962.08499999193,123971.221,124421.299,,14,feeling
screen,html.Screen,2_1_0_1_15,2021-04-24T14:04:51.847Z,,,,,,,,,,,,,,,,,53,,,,,,,,,,,,,,428.45099999394733,,response,,,,99,,,,,,,Space,keypress(Space),,,,,,,,---- -- ----- -- ------ - ------- --- ----------<br>------------- ------ ------ ---- ---- ------- close -- ----<br>-------- ------- -- ---------- --- - --- ----- ----- ----<br>---- --- --- ----- --- ---- ---- ------- ----- ---- -------<br>--- --- -- ----- -- --- ---- -- --- ---- -- ------ ------<br>--- ----- -- ----,124850.09999999602,124849.74999999395,124404.541,124409.94499999215,124421.299,124854.556,,15,close
screen,html.Screen,2_1_0_1_16,2021-04-24T14:04:52.271Z,,,,,,,,,,,,,,,,,53,,,,,,,,,,,,,,419.0639999926643,,response,,,,99,,,,,,,Space,keypress(Space),,,,,,,,---- -- ----- -- ------ - ------- --- ----------<br>------------- ------ ------ ---- ---- ------- ----- to ----<br>-------- ------- -- ---------- --- - --- ----- ----- ----<br>---- --- --- ----- --- ---- ---- ------- ----- ---- -------<br>--- --- -- ----- -- --- ---- -- --- ---- -- ------ ------<br>--- ----- -- ----,125273.99999999034,125273.61999999266,124837.867,124850.18999999738,124854.556,125287.937,,16,to
screen,html.Screen,2_1_0_1_17,2021-04-24T14:04:52.680Z,,,,,,,,,,,,,,,,,53,,,,,,,,,,,,,,393.9879999971308,,response,,,,99,,,,,,,Space,keypress(Space),,,,,,,,---- -- ----- -- ------ - ------- --- ----------<br>------------- ------ ------ ---- ---- ------- ----- -- your<br>-------- ------- -- ---------- --- - --- ----- ----- ----<br>---- --- --- ----- --- ---- ---- ------- ----- ---- -------<br>--- --- -- ----- -- --- ---- -- --- ---- -- ------ ------<br>--- ----- -- ----,125682.29499999143,125681.92499999714,125271.234,125274.0899999917,125287.937,125687.892,,17,your
screen,html.Screen,2_1_0_1_18,2021-04-24T14:04:53.159Z,,,,,,,,,,,,,,,,,53,,,,,,,,,,,,,,473.8629999937111,,response,,,,99,,,,,,,Space,keypress(Space),,,,,,,,---- -- ----- -- ------ - ------- --- ----------<br>------------- ------ ------ ---- ---- ------- ----- -- ----<br>romantic ------- -- ---------- --- - --- ----- ----- ----<br>---- --- --- ----- --- ---- ---- ------- ----- ---- -------<br>--- --- -- ----- -- --- ---- -- --- ---- -- ------ ------<br>--- ----- -- ----,126162.11499999918,126161.75499999372,125671.33,125682.37999999837,125687.892,126171.337,,18,romantic
screen,html.Screen,2_1_0_1_19,2021-04-24T14:04:53.727Z,,,,,,,,,,,,,,,,,53,,,,,,,,,,,,,,558.2779999892809,,response,,,,99,,,,,,,Space,keypress(Space),,,,,,,,---- -- ----- -- ------ - ------- --- ----------<br>------------- ------ ------ ---- ---- ------- ----- -- ----<br>-------- partner -- ---------- --- - --- ----- ----- ----<br>---- --- --- ----- --- ---- ---- ------- ----- ---- -------<br>--- --- -- ----- -- --- ---- -- --- ---- -- ------ ------<br>--- ----- -- ----,126729.98999999254,126729.61499998928,126154.656,126162.19999999157,126171.337,126737.917,,19,partner
screen,html.Screen,2_1_0_1_20,2021-04-24T14:04:54.151Z,,,,,,,,,,,,,,,,,53,,,,,,,,,,,,,,415.2329999982758,,response,,,,99,,,,,,,Space,keypress(Space),,,,,,,,---- -- ----- -- ------ - ------- --- ----------<br>------------- ------ ------ ---- ---- ------- ----- -- ----<br>-------- ------- is ---------- --- - --- ----- ----- ----<br>---- --- --- ----- --- ---- ---- ------- ----- ---- -------<br>--- --- -- ----- -- --- ---- -- --- ---- -- ------ ------<br>--- ----- -- ----,127153.54499999376,127153.14999999828,126721.43,126730.06999999052,126737.917,127172.022,,20,is
screen,html.Screen,2_1_0_1_21,2021-04-24T14:04:54.655Z,,,,,,,,,,,,,,,,,53,,,,,,,,,,,,,,484.84799999161623,,response,,,,99,,,,,,,Space,keypress(Space),,,,,,,,---- -- ----- -- ------ - ------- --- ----------<br>------------- ------ ------ ---- ---- ------- ----- -- ----<br>-------- ------- -- paramount. --- - --- ----- ----- ----<br>---- --- --- ----- --- ---- ---- ------- ----- ---- -------<br>--- --- -- ----- -- --- ---- -- --- ---- -- ------ ------<br>--- ----- -- ----,127657.27499999048,127656.86999999161,127137.979,127153.6300000007,127172.022,127671.196,,21,paramount.
screen,html.Screen,2_1_0_1_22,2021-04-24T14:04:55.311Z,,,,,,,,,,,,,,,,,53,,,,,,,,,,,,,,642.4639999998035,,response,,,,99,,,,,,,Space,keypress(Space),,,,,,,,---- -- ----- -- ------ - ------- --- ----------<br>------------- ------ ------ ---- ---- ------- ----- -- ----<br>-------- ------- -- ---------- But - --- ----- ----- ----<br>---- --- --- ----- --- ---- ---- ------- ----- ---- -------<br>--- --- -- ----- -- --- ---- -- --- ---- -- ------ ------<br>--- ----- -- ----,128314.02499999967,128313.6599999998,127654.531,127657.36499999184,127671.196,128321.239,,22,But
screen,html.Screen,2_1_0_1_23,2021-04-24T14:04:55.823Z,,,,,,,,,,,,,,,,,53,,,,,,,,,,,,,,504.535999990243,,response,,,,99,,,,,,,Space,keypress(Space),,,,,,,,---- -- ----- -- ------ - ------- --- ----------<br>------------- ------ ------ ---- ---- ------- ----- -- ----<br>-------- ------- -- ---------- --- a --- ----- ----- ----<br>---- --- --- ----- --- ---- ---- ------- ----- ---- -------<br>--- --- -- ----- -- --- ---- -- --- ---- -- ------ ------<br>--- ----- -- ----,128826.12499999232,128825.77499999024,128304.491,128314.10999999207,128321.239,128838.081,,23,a
screen,html.Screen,2_1_0_1_24,2021-04-24T14:04:56.247Z,,,,,,,,,,,,,,,,,53,,,,,,,,,,,,,,411.46399999875575,,response,,,,99,,,,,,,Space,keypress(Space),,,,,,,,---- -- ----- -- ------ - ------- --- ----------<br>------------- ------ ------ ---- ---- ------- ----- -- ----<br>-------- ------- -- ---------- --- - new ----- ----- ----<br>---- --- --- ----- --- ---- ---- ------- ----- ---- -------<br>--- --- -- ----- -- --- ---- -- --- ---- -- ------ ------<br>--- ----- -- ----,129249.90999999864,129249.54499999876,128821.254,128826.2049999903,128838.081,129254.584,,24,new
screen,html.Screen,2_1_0_1_25,2021-04-24T14:04:56.631Z,,,,,,,,,,,,,,,,,53,,,,,,,,,,,,,,378.8559999905119,,response,,,,99,,,,,,,Space,keypress(Space),,,,,,,,---- -- ----- -- ------ - ------- --- ----------<br>------------- ------ ------ ---- ---- ------- ----- -- ----<br>-------- ------- -- ---------- --- - --- study ----- ----<br>---- --- --- ----- --- ---- ---- ------- ----- ---- -------<br>--- --- -- ----- -- --- ---- -- --- ---- -- ------ ------<br>--- ----- -- ----,129633.82499999716,129633.43999999051,129238.104,129249.99499999103,129254.584,129637.941,,25,study
screen,html.Screen,2_1_0_1_26,2021-04-24T14:04:57.103Z,,,,,,,,,,,,,,,,,53,,,,,,,,,,,,,,467.55399999614747,,response,,,,99,,,,,,,Space,keypress(Space),,,,,,,,---- -- ----- -- ------ - ------- --- ----------<br>------------- ------ ------ ---- ---- ------- ----- -- ----<br>-------- ------- -- ---------- --- - --- ----- finds ----<br>---- --- --- ----- --- ---- ---- ------- ----- ---- -------<br>--- --- -- ----- -- --- ---- -- --- ---- -- ------ ------<br>--- ----- -- ----,130105.92000000179,130105.49499999615,129621.5,129633.91499999852,129637.941,130121.415,,26,finds
screen,html.Screen,2_1_0_1_27,2021-04-24T14:04:57.512Z,,,,,,,,,,,,,,,,,53,,,,,,,,,,,,,,392.8800000008632,,response,,,,99,,,,,,,Space,keypress(Space),,,,,,,,---- -- ----- -- ------ - ------- --- ----------<br>------------- ------ ------ ---- ---- ------- ----- -- ----<br>-------- ------- -- ---------- --- - --- ----- ----- that<br>---- --- --- ----- --- ---- ---- ------- ----- ---- -------<br>--- --- -- ----- -- --- ---- -- --- ---- -- ------ ------<br>--- ----- -- ----,130514.67999999295,130514.29500000086,130104.557,130106.0099999886,130121.415,130521.288,,27,that
screen,html.Screen,2_1_0_1_28,2021-04-24T14:04:57.952Z,,,,,,,,,,,,,,,,,53,,,,,,,,,,,,,,432.60199998976896,,response,,,,99,,,,,,,Space,keypress(Space),,,,,,,,---- -- ----- -- ------ - ------- --- ----------<br>------------- ------ ------ ---- ---- ------- ----- -- ----<br>-------- ------- -- ---------- --- - --- ----- ----- ----<br>it's --- --- ----- --- ---- ---- ------- ----- ---- -------<br>--- --- -- ----- -- --- ---- -- --- ---- -- ------ ------<br>--- ----- -- ----,130954.25499998964,130953.88999998977,130504.598,130514.7649999999,130521.288,130971.305,,28,it's
screen,html.Screen,2_1_0_1_29,2021-04-24T14:04:58.392Z,,,,,,,,,,,,,,,,,53,,,,,,,,,,,,,,422.68499999685446,,response,,,,99,,,,,,,Space,keypress(Space),,,,,,,,---- -- ----- -- ------ - ------- --- ----------<br>------------- ------ ------ ---- ---- ------- ----- -- ----<br>-------- ------- -- ---------- --- - --- ----- ----- ----<br>---- not --- ----- --- ---- ---- ------- ----- ---- -------<br>--- --- -- ----- -- --- ---- -- --- ---- -- ------ ------<br>--- ----- -- ----,131394.33999999892,131393.98999999685,130954.556,130954.33500000217,130971.305,131404.689,,29,not
screen,html.Screen,2_1_0_1_30,2021-04-24T14:04:58.847Z,,,,,,,,,,,,,,,,,53,,,,,,,,,,,,,,444.93099999357946,,response,,,,99,,,,,,,Space,keypress(Space),,,,,,,,---- -- ----- -- ------ - ------- --- ----------<br>------------- ------ ------ ---- ---- ------- ----- -- ----<br>-------- ------- -- ---------- --- - --- ----- ----- ----<br>---- --- how ----- --- ---- ---- ------- ----- ---- -------<br>--- --- -- ----- -- --- ---- -- --- ---- -- ------ ------<br>--- ----- -- ----,131849.95499999786,131849.6199999936,131387.943,131394.42499999132,131404.689,131854.58,,30,how
screen,html.Screen,2_1_0_1_31,2021-04-24T14:04:59.231Z,,,,,,,,,,,,,,,,,53,,,,,,,,,,,,,,379.00999998892075,,response,,,,99,,,,,,,Space,keypress(Space),,,,,,,,---- -- ----- -- ------ - ------- --- ----------<br>------------- ------ ------ ---- ---- ------- ----- -- ----<br>-------- ------- -- ---------- --- - --- ----- ----- ----<br>---- --- --- close --- ---- ---- ------- ----- ---- -------<br>--- --- -- ----- -- --- ---- -- --- ---- -- ------ ------<br>--- ----- -- ----,132233.93000000215,132233.5899999889,131837.893,131850.03499999584,131854.58,132237.933,,31,close
screen,html.Screen,2_1_0_1_32,2021-04-24T14:04:59.679Z,,,,,,,,,,,,,,,,,53,,,,,,,,,,,,,,443.6370000006573,,response,,,,99,,,,,,,Space,keypress(Space),,,,,,,,---- -- ----- -- ------ - ------- --- ----------<br>------------- ------ ------ ---- ---- ------- ----- -- ----<br>-------- ------- -- ---------- --- - --- ----- ----- ----<br>---- --- --- ----- you ---- ---- ------- ----- ---- -------<br>--- --- -- ----- -- --- ---- -- --- ---- -- ------ ------<br>--- ----- -- ----,132682.0149999985,132681.57000000065,132221.292,132234.01499999454,132237.933,132687.959,,32,you
screen,html.Screen,2_1_0_1_33,2021-04-24T14:05:00.095Z,,,,,,,,,,,,,,,,,53,,,,,,,,,,,,,,409.4459999931569,,response,,,,99,,,,,,,Space,keypress(Space),,,,,,,,---- -- ----- -- ------ - ------- --- ----------<br>------------- ------ ------ ---- ---- ------- ----- -- ----<br>-------- ------- -- ---------- --- - --- ----- ----- ----<br>---- --- --- ----- --- feel ---- ------- ----- ---- -------<br>--- --- -- ----- -- --- ---- -- --- ---- -- ------ ------<br>--- ----- -- ----,133097.78499999084,133097.40499999316,132671.229,132682.1149999887,132687.959,133104.632,,33,feel
screen,html.Screen,2_1_0_1_34,2021-04-24T14:05:00.511Z,,,,,,,,,,,,,,,,,53,,,,,,,,,,,,,,409.2629999963974,,response,,,,99,,,,,,,Space,keypress(Space),,,,,,,,---- -- ----- -- ------ - ------- --- ----------<br>------------- ------ ------ ---- ---- ------- ----- -- ----<br>-------- ------- -- ---------- --- - --- ----- ----- ----<br>---- --- --- ----- --- ---- that ------- ----- ---- -------<br>--- --- -- ----- -- --- ---- -- --- ---- -- ------ ------<br>--- ----- -- ----,133514.2349999951,133513.8949999964,133088.004,133097.86999999778,133104.632,133521.327,,34,that
screen,html.Screen,2_1_0_1_35,2021-04-24T14:05:00.895Z,,,,,,,,,,,,,,,,,53,,,,,,,,,,,,,,375.7979999886011,,response,,,,99,,,,,,,Space,keypress(Space),,,,,,,,---- -- ----- -- ------ - ------- --- ----------<br>------------- ------ ------ ---- ---- ------- ----- -- ----<br>-------- ------- -- ---------- --- - --- ----- ----- ----<br>---- --- --- ----- --- ---- ---- matters ----- ---- -------<br>--- --- -- ----- -- --- ---- -- --- ---- -- ------ ------<br>--- ----- -- ----,133897.51999999862,133897.1249999886,133504.593,133514.32999999088,133521.327,133904.767,,35,matters
screen,html.Screen,2_1_0_1_36,2021-04-24T14:05:01.624Z,,,,,,,,,,,,,,,,,53,,,,,,,,,,,,,,721.0379999887664,,response,,,,99,,,,,,,Space,keypress(Space),,,,,,,,"---- -- ----- -- ------ - ------- --- ----------<br>------------- ------ ------ ---- ---- ------- ----- -- ----<br>-------- ------- -- ---------- --- - --- ----- ----- ----<br>---- --- --- ----- --- ---- ---- ------- most, ---- -------<br>--- --- -- ----- -- --- ---- -- --- ---- -- ------ ------<br>--- ----- -- ----",134626.28499999119,134625.80499998876,133887.921,133897.8749999951,133904.767,134638.106,,36,"most,"
screen,html.Screen,2_1_0_1_37,2021-04-24T14:05:02.191Z,,,,,,,,,,,,,,,,,53,,,,,,,,,,,,,,555.4889999897277,,response,,,,99,,,,,,,Space,keypress(Space),,,,,,,,---- -- ----- -- ------ - ------- --- ----------<br>------------- ------ ------ ---- ---- ------- ----- -- ----<br>-------- ------- -- ---------- --- - --- ----- ----- ----<br>---- --- --- ----- --- ---- ---- ------- ----- it's -------<br>--- --- -- ----- -- --- ---- -- --- ---- -- ------ ------<br>--- ----- -- ----,135193.96499999857,135193.59499998973,134621.275,134626.38000000152,134638.106,135204.628,,37,it's
screen,html.Screen,2_1_0_1_38,2021-04-24T14:05:02.863Z,,,,,,,,,,,,,,,,,53,,,,,,,,,,,,,,661.2319999907922,,response,,,,99,,,,,,,Space,keypress(Space),,,,,,,,---- -- ----- -- ------ - ------- --- ----------<br>------------- ------ ------ ---- ---- ------- ----- -- ----<br>-------- ------- -- ---------- --- - --- ----- ----- ----<br>---- --- --- ----- --- ---- ---- ------- ----- ---- whether<br>--- --- -- ----- -- --- ---- -- --- ---- -- ------ ------<br>--- ----- -- ----,135866.22999999963,135865.8599999908,135188.06,135194.04999999097,135204.628,135871.279,,38,whether
screen,html.Screen,2_1_0_1_39,2021-04-24T14:05:03.447Z,,,,,,,,,,,,,,,,,53,,,,,,,,,,,,,,578.3459999938204,,response,,,,99,,,,,,,Space,keypress(Space),,,,,,,,---- -- ----- -- ------ - ------- --- ----------<br>------------- ------ ------ ---- ---- ------- ----- -- ----<br>-------- ------- -- ---------- --- - --- ----- ----- ----<br>---- --- --- ----- --- ---- ---- ------- ----- ---- -------<br>you --- -- ----- -- --- ---- -- --- ---- -- ------ ------<br>--- ----- -- ----,136449.9450000003,136449.62499999383,135854.594,135866.3099999976,135871.279,136454.63,,39,you
screen,html.Screen,2_1_0_1_40,2021-04-24T14:05:04.007Z,,,,,,,,,,,,,,,,,53,,,,,,,,,,,,,,555.0549999972573,,response,,,,99,,,,,,,Space,keypress(Space),,,,,,,,---- -- ----- -- ------ - ------- --- ----------<br>------------- ------ ------ ---- ---- ------- ----- -- ----<br>-------- ------- -- ---------- --- - --- ----- ----- ----<br>---- --- --- ----- --- ---- ---- ------- ----- ---- -------<br>--- are -- ----- -- --- ---- -- --- ---- -- ------ ------<br>--- ----- -- ----,137010.13499998953,137009.68499999726,136437.975,136450.0299999927,136454.63,137021.437,,40,are
screen,html.Screen,2_1_0_1_41,2021-04-24T14:05:04.559Z,,,,,,,,,,,,,,,,,53,,,,,,,,,,,,,,540.2079999943089,,response,,,,99,,,,,,,Space,keypress(Space),,,,,,,,---- -- ----- -- ------ - ------- --- ----------<br>------------- ------ ------ ---- ---- ------- ----- -- ----<br>-------- ------- -- ---------- --- - --- ----- ----- ----<br>---- --- --- ----- --- ---- ---- ------- ----- ---- -------<br>--- --- as ----- -- --- ---- -- --- ---- -- ------ ------<br>--- ----- -- ----,137562.024999992,137561.6449999943,137004.625,137010.21999999648,137021.437,137571.348,,41,as
screen,html.Screen,2_1_0_1_42,2021-04-24T14:05:05.072Z,,,,,,,,,,,,,,,,,53,,,,,,,,,,,,,,502.7269999968121,,response,,,,99,,,,,,,Space,keypress(Space),,,,,,,,---- -- ----- -- ------ - ------- --- ----------<br>------------- ------ ------ ---- ---- ------- ----- -- ----<br>-------- ------- -- ---------- --- - --- ----- ----- ----<br>---- --- --- ----- --- ---- ---- ------- ----- ---- -------<br>--- --- -- close -- --- ---- -- --- ---- -- ------ ------<br>--- ----- -- ----,138074.4849999901,138074.0749999968,137554.856,137562.10499998997,137571.348,138088.01,,42,close
screen,html.Screen,2_1_0_1_43,2021-04-24T14:05:05.511Z,,,,,,,,,,,,,,,,,53,,,,,,,,,,,,,,425.779999997234,,response,,,,99,,,,,,,Space,keypress(Space),,,,,,,,---- -- ----- -- ------ - ------- --- ----------<br>------------- ------ ------ ---- ---- ------- ----- -- ----<br>-------- ------- -- ---------- --- - --- ----- ----- ----<br>---- --- --- ----- --- ---- ---- ------- ----- ---- -------<br>--- --- -- ----- as --- ---- -- --- ---- -- ------ ------<br>--- ----- -- ----,138514.15999999153,138513.78999999724,138071.321,138074.56999999704,138088.01,138521.374,,43,as
screen,html.Screen,2_1_0_1_44,2021-04-24T14:05:05.992Z,,,,,,,,,,,,,,,,,53,,,,,,,,,,,,,,472.45599999214755,,response,,,,99,,,,,,,Space,keypress(Space),,,,,,,,---- -- ----- -- ------ - ------- --- ----------<br>------------- ------ ------ ---- ---- ------- ----- -- ----<br>-------- ------- -- ---------- --- - --- ----- ----- ----<br>---- --- --- ----- --- ---- ---- ------- ----- ---- -------<br>--- --- -- ----- -- you ---- -- --- ---- -- ------ ------<br>--- ----- -- ----,138994.2449999944,138993.82999999216,138504.888,138514.24499999848,138521.374,139004.795,,44,you
screen,html.Screen,2_1_0_1_45,2021-04-24T14:05:06.431Z,,,,,,,,,,,,,,,,,53,,,,,,,,,,,,,,428.6849999924016,,response,,,,99,,,,,,,Space,keypress(Space),,,,,,,,---- -- ----- -- ------ - ------- --- ----------<br>------------- ------ ------ ---- ---- ------- ----- -- ----<br>-------- ------- -- ---------- --- - --- ----- ----- ----<br>---- --- --- ----- --- ---- ---- ------- ----- ---- -------<br>--- --- -- ----- -- --- want -- --- ---- -- ------ ------<br>--- ----- -- ----,139433.83999999787,139433.4799999924,138988.224,138994.33000000136,139004.795,139437.988,,45,want
screen,html.Screen,2_1_0_1_46,2021-04-24T14:05:06.855Z,,,,,,,,,,,,,,,,,53,,,,,,,,,,,,,,419.4619999958668,,response,,,,99,,,,,,,Space,keypress(Space),,,,,,,,---- -- ----- -- ------ - ------- --- ----------<br>------------- ------ ------ ---- ---- ------- ----- -- ----<br>-------- ------- -- ---------- --- - --- ----- ----- ----<br>---- --- --- ----- --- ---- ---- ------- ----- ---- -------<br>--- --- -- ----- -- --- ---- to --- ---- -- ------ ------<br>--- ----- -- ----,139857.79999999795,139857.44999999588,139421.359,139433.92499999027,139437.988,139871.533,,46,to
screen,html.Screen,2_1_0_1_47,2021-04-24T14:05:07.280Z,,,,,,,,,,,,,,,,,53,,,,,,,,,,,,,,410.4769999953569,,response,,,,99,,,,,,,Space,keypress(Space),,,,,,,,"---- -- ----- -- ------ - ------- --- ----------<br>------------- ------ ------ ---- ---- ------- ----- -- ----<br>-------- ------- -- ---------- --- - --- ----- ----- ----<br>---- --- --- ----- --- ---- ---- ------- ----- ---- -------<br>--- --- -- ----- -- --- ---- -- be, ---- -- ------ ------<br>--- ----- -- ----",140282.4549999932,140282.00999999535,139854.622,139857.88499999035,139871.533,140288.016,,47,"be,"
screen,html.Screen,2_1_0_1_48,2021-04-24T14:05:07.719Z,,,,,,,,,,,,,,,,,53,,,,,,,,,,,,,,433.6339999922202,,response,,,,99,,,,,,,Space,keypress(Space),,,,,,,,---- -- ----- -- ------ - ------- --- ----------<br>------------- ------ ------ ---- ---- ------- ----- -- ----<br>-------- ------- -- ---------- --- - --- ----- ----- ----<br>---- --- --- ----- --- ---- ---- ------- ----- ---- -------<br>--- --- -- ----- -- --- ---- -- --- even -- ------ ------<br>--- ----- -- ----,140722.09999999905,140721.64999999222,140271.538,140282.54000000015,140288.016,140738.072,,48,even
screen,html.Screen,2_1_0_1_49,2021-04-24T14:05:08.191Z,,,,,,,,,,,,,,,,,53,,,,,,,,,,,,,,455.76299999823095,,response,,,,99,,,,,,,Space,keypress(Space),,,,,,,,---- -- ----- -- ------ - ------- --- ----------<br>------------- ------ ------ ---- ---- ------- ----- -- ----<br>-------- ------- -- ---------- --- - --- ----- ----- ----<br>---- --- --- ----- --- ---- ---- ------- ----- ---- -------<br>--- --- -- ----- -- --- ---- -- --- ---- if ------ ------<br>--- ----- -- ----,141194.1999999981,141193.83499999822,140721.495,140722.1900000004,140738.072,141204.745,,49,if
screen,html.Screen,2_1_0_1_50,2021-04-24T14:05:08.656Z,,,,,,,,,,,,,,,,,53,,,,,,,,,,,,,,453.09999999427237,,response,,,,99,,,,,,,Space,keypress(Space),,,,,,,,---- -- ----- -- ------ - ------- --- ----------<br>------------- ------ ------ ---- ---- ------- ----- -- ----<br>-------- ------- -- ---------- --- - --- ----- ----- ----<br>---- --- --- ----- --- ---- ---- ------- ----- ---- -------<br>--- --- -- ----- -- --- ---- -- --- ---- -- that's ------<br>--- ----- -- ----,141658.26499999093,141657.84499999427,141188.178,141194.27999999607,141204.745,141671.413,,50,that's
screen,html.Screen,2_1_0_1_51,2021-04-24T14:05:09.080Z,,,,,,,,,,,,,,,,,53,,,,,,,,,,,,,,410.4770000012941,,response,,,,99,,,,,,,Space,keypress(Space),,,,,,,,---- -- ----- -- ------ - ------- --- ----------<br>------------- ------ ------ ---- ---- ------- ----- -- ----<br>-------- ------- -- ---------- --- - --- ----- ----- ----<br>---- --- --- ----- --- ---- ---- ------- ----- ---- -------<br>--- --- -- ----- -- --- ---- -- --- ---- -- ------ really<br>--- ----- -- ----,142082.29999999458,142081.8900000013,141654.819,141658.34999999788,141671.413,142088.124,,51,really
screen,html.Screen,2_1_0_1_52,2021-04-24T14:05:09.534Z,,,,,,,,,,,,,,,,,53,,,,,,,,,,,,,,448.71099999168655,,response,,,,99,,,,,,,Space,keypress(Space),,,,,,,,---- -- ----- -- ------ - ------- --- ----------<br>------------- ------ ------ ---- ---- ------- ----- -- ----<br>-------- ------- -- ---------- --- - --- ----- ----- ----<br>---- --- --- ----- --- ---- ---- ------- ----- ---- -------<br>--- --- -- ----- -- --- ---- -- --- ---- -- ------ ------<br>not ----- -- ----,142537.17999999935,142536.8349999917,142071.568,142082.37999999255,142088.124,142555.307,,52,not
screen,html.Screen,2_1_0_1_53,2021-04-24T14:05:10.063Z,,,,,,,,,,,,,,,,,53,,,,,,,,,,,,,,509.8079999903275,,response,,,,99,,,,,,,Space,keypress(Space),,,,,,,,---- -- ----- -- ------ - ------- --- ----------<br>------------- ------ ------ ---- ---- ------- ----- -- ----<br>-------- ------- -- ---------- --- - --- ----- ----- ----<br>---- --- --- ----- --- ---- ---- ------- ----- ---- -------<br>--- --- -- ----- -- --- ---- -- --- ---- -- ------ ------<br>--- close -- ----,143065.4899999936,143065.11499999033,142521.551,142537.27000000072,142555.307,143071.308,,53,close
screen,html.Screen,2_1_0_1_54,2021-04-24T14:05:10.503Z,,,,,,,,,,,,,,,,,53,,,,,,,,,,,,,,434.056999989989,,response,,,,99,,,,,,,Space,keypress(Space),,,,,,,,---- -- ----- -- ------ - ------- --- ----------<br>------------- ------ ------ ---- ---- ------- ----- -- ----<br>-------- ------- -- ---------- --- - --- ----- ----- ----<br>---- --- --- ----- --- ---- ---- ------- ----- ---- -------<br>--- --- -- ----- -- --- ---- -- --- ---- -- ------ ------<br>--- ----- at ----,143505.71499999205,143505.36499998998,143054.621,143065.57999999495,143071.308,143521.37,,54,at
screen,html.Screen,2_1_0_1_55,2021-04-24T14:05:10.983Z,,,,,,,,,,,,,,,,,53,,,,,,,,,,,,,,464.1799999976065,,response,,,,99,,,,,,,Space,keypress(Space),,,,,,,,---- -- ----- -- ------ - ------- --- ----------<br>------------- ------ ------ ---- ---- ------- ----- -- ----<br>-------- ------- -- ---------- --- - --- ----- ----- ----<br>---- --- --- ----- --- ---- ---- ------- ----- ---- -------<br>--- --- -- ----- -- --- ---- -- --- ---- -- ------ ------<br>--- ----- -- all.,143985.8649999951,143985.5499999976,143504.712,143505.80499999342,143521.37,143988.024,,55,all.
Item 99,flow.Loop,2_1_0_1,2021-04-24T14:05:10.983Z,,,,,,,,,,,,,,,,,,,,,,,,,,,,,,,30447.751999997607,,completion,,,,,B,,,,,,,,,,,silence,,,,,143986.03000000003,143985.5499999976,113521.1,113521.52999999817,113537.798,143988.024,,,
Question 1,html.Screen,2_1_0_2,2021-04-24T14:05:22.539Z,,,,,,,,,,,,,,,,,,,,,,,,,,,,true,FALSE,,11552.960999999632,,response,,,,99,B,,,,,,FALSE,click #choice-2,,,,silence,,,,,155541.58999999345,155540.98499999964,143971.385,143986.11499999242,143988.024,155554.806,,,
Question 2,html.Screen,2_1_0_3,2021-04-24T14:05:30.913Z,,,,,,,,,,,,,,,,,,,,,,,,,,,,true,TRUE,,8360.073999996617,,response,,,,99,B,,,,,,TRUE,click #choice-1,,,,silence,,,,,163915.65499998978,163914.87999999663,155538.228,155541.68499998923,155554.806,163921.495,,,
Item 99,flow.Sequence,2_1_0,2021-04-24T14:05:30.913Z,,,,,,,,,,,,,,,,,,,,,,,,,,,,,,,60377.16799999663,,completion,,,,,,,,,,,,,,,,,,,,,163915.80999999132,163914.87999999663,103521.047,103530.23499999836,103537.712,163921.495,,,
Holding screen,html.Screen,2_1_1_0,2021-04-24T14:05:40.903Z,,,,,,,,,,,,,,,,,,,,,,,,,,,,,,,10000.129000000015,,timeout,,,,,,,,,,,,,,,,,,,,,173905.46999999788,173905.028,163904.943,163915.90500000166,163921.495,173921.624,,,
screen,html.Screen,2_1_1_1_0,2021-04-24T14:05:42.128Z,,,,,,,,,,,,,,,,,54,,,,,,,,,,,,,,1208.4009999912814,,response,,,,100,,,,,,,Space,keypress(Space),,,,,,,,At --- ---- --- ------ ----- ------- ---- -- --- ------- --<br>------- ---------- ------ -- ----- -- ----- -- ---- ------<br>--- ----- --- --- ------ -------- ----- --- ------ ----- --<br>----- ----- ---------- --- --- ------ ------ ---- -- ------<br>------- --- ------ ----- --- ---- ------- -- ---- --- --<br>------- ------,175130.41499999235,175130.0249999913,173905.028,173905.58500000043,173921.624,175138.367,,0,At
screen,html.Screen,2_1_1_1_1,2021-04-24T14:05:42.527Z,,,,,,,,,,,,,,,,,54,,,,,,,,,,,,,,391.4880000006815,,response,,,,100,,,,,,,Space,keypress(Space),,,,,,,,-- the ---- --- ------ ----- ------- ---- -- --- ------- --<br>------- ---------- ------ -- ----- -- ----- -- ---- ------<br>--- ----- --- --- ------ -------- ----- --- ------ ----- --<br>----- ----- ---------- --- --- ------ ------ ---- -- ------<br>------- --- ------ ----- --- ---- ------- -- ---- --- --<br>------- ------,175530.20500000275,175529.85500000068,175121.588,175130.5149999971,175138.367,175538.243,,1,the
screen,html.Screen,2_1_1_1_2,2021-04-24T14:05:42.871Z,,,,,,,,,,,,,,,,,54,,,,,,,,,,,,,,335.3769999984943,,response,,,,100,,,,,,,Space,keypress(Space),,,,,,,,-- --- time --- ------ ----- ------- ---- -- --- ------- --<br>------- ---------- ------ -- ----- -- ----- -- ---- ------<br>--- ----- --- --- ------ -------- ----- --- ------ ----- --<br>----- ----- ---------- --- --- ------ ------ ---- -- ------<br>------- --- ------ ----- --- ---- ------- -- ---- --- --<br>------- ------,175873.98499999836,175873.61999999848,175521.627,175530.29999999853,175538.243,175888.333,,2,time
screen,html.Screen,2_1_1_1_3,2021-04-24T14:05:43.320Z,,,,,,,,,,,,,,,,,54,,,,,,,,,,,,,,433.701999990124,,response,,,,100,,,,,,,Space,keypress(Space),,,,,,,,-- --- ---- the ------ ----- ------- ---- -- --- ------- --<br>------- ---------- ------ -- ----- -- ----- -- ---- ------<br>--- ----- --- --- ------ -------- ----- --- ------ ----- --<br>----- ----- ---------- --- --- ------ ------ ---- -- ------<br>------- --- ------ ----- --- ---- ------- -- ---- --- --<br>------- ------,176322.439999989,176322.03499999014,175871.559,175874.06999999075,175888.333,176338.336,,3,the
screen,html.Screen,2_1_1_1_4,2021-04-24T14:05:43.760Z,,,,,,,,,,,,,,,,,54,,,,,,,,,,,,,,423.5939999932889,,response,,,,100,,,,,,,Space,keypress(Space),,,,,,,,-- --- ---- --- French ----- ------- ---- -- --- ------- --<br>------- ---------- ------ -- ----- -- ----- -- ---- ------<br>--- ----- --- --- ------ -------- ----- --- ------ ----- --<br>----- ----- ---------- --- --- ------ ------ ---- -- ------<br>------- --- ------ ----- --- ---- ------- -- ---- --- --<br>------- ------,176762.38499999454,176761.9299999933,176321.655,176322.52000000153,176338.336,176771.755,,4,French
screen,html.Screen,2_1_1_1_5,2021-04-24T14:05:44.271Z,,,,,,,,,,,,,,,,,54,,,,,,,,,,,,,,501.9350000018021,,response,,,,100,,,,,,,Space,keypress(Space),,,,,,,,-- --- ---- --- ------ crown ------- ---- -- --- ------- --<br>------- ---------- ------ -- ----- -- ----- -- ---- ------<br>--- ----- --- --- ------ -------- ----- --- ------ ----- --<br>----- ----- ---------- --- --- ------ ------ ---- -- ------<br>------- --- ------ ----- --- ---- ------- -- ---- --- --<br>------- ------,177274.02499999152,177273.6900000018,176755.181,176762.46499999252,176771.755,177288.519,,5,crown
screen,html.Screen,2_1_1_1_6,2021-04-24T14:05:44.759Z,,,,,,,,,,,,,,,,,54,,,,,,,,,,,,,,472.9459999886749,,response,,,,100,,,,,,,Space,keypress(Space),,,,,,,,-- --- ---- --- ------ ----- secured ---- -- --- ------- --<br>------- ---------- ------ -- ----- -- ----- -- ---- ------<br>--- ----- --- --- ------ -------- ----- --- ------ ----- --<br>----- ----- ---------- --- --- ------ ------ ---- -- ------<br>------- --- ------ ----- --- ---- ------- -- ---- --- --<br>------- ------,177761.81999999972,177761.46499998868,177271.882,177274.1049999895,177288.519,177771.655,,6,secured
screen,html.Screen,2_1_1_1_7,2021-04-24T14:05:45.311Z,,,,,,,,,,,,,,,,,54,,,,,,,,,,,,,,541.4149999892397,,response,,,,100,,,,,,,Space,keypress(Space),,,,,,,,-- --- ---- --- ------ ----- ------- much -- --- ------- --<br>------- ---------- ------ -- ----- -- ----- -- ---- ------<br>--- ----- --- --- ------ -------- ----- --- ------ ----- --<br>----- ----- ---------- --- --- ------ ------ ---- -- ------<br>------- --- ------ ----- --- ---- ------- -- ---- --- --<br>------- ------,178313.4049999935,178313.06999998924,177755.206,177761.9049999921,177771.655,178321.59,,7,much
screen,html.Screen,2_1_1_1_8,2021-04-24T14:05:45.807Z,,,,,,,,,,,,,,,,,54,,,,,,,,,,,,,,487.73499999471824,,response,,,,100,,,,,,,Space,keypress(Space),,,,,,,,-- --- ---- --- ------ ----- ------- ---- of --- ------- --<br>------- ---------- ------ -- ----- -- ----- -- ---- ------<br>--- ----- --- --- ------ -------- ----- --- ------ ----- --<br>----- ----- ---------- --- --- ------ ------ ---- -- ------<br>------- --- ------ ----- --- ---- ------- -- ---- --- --<br>------- ------,178809.71000000136,178809.32499999471,178304.972,178313.4849999915,178321.59,178821.682,,8,of
screen,html.Screen,2_1_1_1_9,2021-04-24T14:05:46.232Z,,,,,,,,,,,,,,,,,54,,,,,,,,,,,,,,412.1979999997711,,response,,,,100,,,,,,,Space,keypress(Space),,,,,,,,-- --- ---- --- ------ ----- ------- ---- -- its ------- --<br>------- ---------- ------ -- ----- -- ----- -- ---- ------<br>--- ----- --- --- ------ -------- ----- --- ------ ----- --<br>----- ----- ---------- --- --- ------ ------ ---- -- ------<br>------- --- ------ ----- --- ---- ------- -- ---- --- --<br>------- ------,179234.26499999186,179233.87999999977,178804.962,178809.83499999274,178821.682,179238.311,,9,its
screen,html.Screen,2_1_1_1_10,2021-04-24T14:05:46.704Z,,,,,,,,,,,,,,,,,54,,,,,,,,,,,,,,467.50399999390356,,response,,,,100,,,,,,,Space,keypress(Space),,,,,,,,-- --- ---- --- ------ ----- ------- ---- -- --- revenue --<br>------- ---------- ------ -- ----- -- ----- -- ---- ------<br>--- ----- --- --- ------ -------- ----- --- ------ ----- --<br>----- ----- ---------- --- --- ------ ------ ---- -- ------<br>------- --- ------ ----- --- ---- ------- -- ---- --- --<br>------- ------,179706.25999999174,179705.8149999939,179221.815,179234.35499999323,179238.311,179721.896,,10,revenue
screen,html.Screen,2_1_1_1_11,2021-04-24T14:05:47.191Z,,,,,,,,,,,,,,,,,54,,,,,,,,,,,,,,471.70899999310495,,response,,,,100,,,,,,,Space,keypress(Space),,,,,,,,-- --- ---- --- ------ ----- ------- ---- -- --- ------- by<br>------- ---------- ------ -- ----- -- ----- -- ---- ------<br>--- ----- --- --- ------ -------- ----- --- ------ ----- --<br>----- ----- ---------- --- --- ------ ------ ---- -- ------<br>------- --- ------ ----- --- ---- ------- -- ---- --- --<br>------- ------,180194.08499999554,180193.6049999931,179705.227,179706.3449999987,179721.896,180205.092,,11,by
screen,html.Screen,2_1_1_1_12,2021-04-24T14:05:47.792Z,,,,,,,,,,,,,,,,,54,,,,,,,,,,,,,,588.5829999935231,,response,,,,100,,,,,,,Space,keypress(Space),,,,,,,,-- --- ---- --- ------ ----- ------- ---- -- --- ------- --<br>issuing ---------- ------ -- ----- -- ----- -- ---- ------<br>--- ----- --- --- ------ -------- ----- --- ------ ----- --<br>----- ----- ---------- --- --- ------ ------ ---- -- ------<br>------- --- ------ ----- --- ---- ------- -- ---- --- --<br>------- ------,180794.11999999138,180793.67499999353,180188.327,180194.17999999132,180205.092,180805.181,,12,issuing
screen,html.Screen,2_1_1_1_13,2021-04-24T14:05:48.472Z,,,,,,,,,,,,,,,,,54,,,,,,,,,,,,,,668.3439999939583,,response,,,,100,,,,,,,Space,keypress(Space),,,,,,,,-- --- ---- --- ------ ----- ------- ---- -- --- ------- --<br>------- government ------ -- ----- -- ----- -- ---- ------<br>--- ----- --- --- ------ -------- ----- --- ------ ----- --<br>----- ----- ---------- --- --- ------ ------ ---- -- ------<br>------- --- ------ ----- --- ---- ------- -- ---- --- --<br>------- ------,181473.87000000163,181473.52499999397,180788.333,180794.20499999833,180805.181,181488.368,,13,government
screen,html.Screen,2_1_1_1_14,2021-04-24T14:05:48.959Z,,,,,,,,,,,,,,,,,54,,,,,,,,,,,,,,472.87199998964206,,response,,,,100,,,,,,,Space,keypress(Space),,,,,,,,-- --- ---- --- ------ ----- ------- ---- -- --- ------- --<br>------- ---------- bonds. -- ----- -- ----- -- ---- ------<br>--- ----- --- --- ------ -------- ----- --- ------ ----- --<br>----- ----- ---------- --- --- ------ ------ ---- -- ------<br>------- --- ------ ----- --- ---- ------- -- ---- --- --<br>------- ------,181961.58499999729,181961.23999998963,181471.737,181473.95499999402,181488.368,181971.665,,14,bonds.
screen,html.Screen,2_1_1_1_15,2021-04-24T14:05:49.456Z,,,,,,,,,,,,,,,,,54,,,,,,,,,,,,,,485.7999999994936,,response,,,,100,,,,,,,Space,keypress(Space),,,,,,,,-- --- ---- --- ------ ----- ------- ---- -- --- ------- --<br>------- ---------- ------ In ----- -- ----- -- ---- ------<br>--- ----- --- --- ------ -------- ----- --- ------ ----- --<br>----- ----- ---------- --- --- ------ ------ ---- -- ------<br>------- --- ------ ----- --- ---- ------- -- ---- --- --<br>------- ------,182457.819999996,182457.4649999995,181954.974,181961.66999998968,181971.665,182471.713,,15,In
screen,html.Screen,2_1_1_1_16,2021-04-24T14:05:49.944Z,,,,,,,,,,,,,,,,,54,,,,,,,,,,,,,,473.9419999886304,,response,,,,100,,,,,,,Space,keypress(Space),,,,,,,,"-- --- ---- --- ------ ----- ------- ---- -- --- ------- --<br>------- ---------- ------ -- 1727, -- ----- -- ---- ------<br>--- ----- --- --- ------ -------- ----- --- ------ ----- --<br>----- ----- ---------- --- --- ------ ------ ---- -- ------<br>------- --- ------ ----- --- ---- ------- -- ---- --- --<br>------- ------",182946.03500000085,182945.65499998862,182454.963,182457.90500000294,182471.713,182955.127,,16,"1727,"
screen,html.Screen,2_1_1_1_17,2021-04-24T14:05:52.281Z,,,,,,,,,,,,,,,,,54,,,,,,,,,,,,,,2327.1979999928444,,response,,,,100,,,,,,,Space,keypress(Space),,,,,,,,-- --- ---- --- ------ ----- ------- ---- -- --- ------- --<br>------- ---------- ------ -- ----- in ----- -- ---- ------<br>--- ----- --- --- ------ -------- ----- --- ------ ----- --<br>----- ----- ---------- --- --- ------ ------ ---- -- ------<br>------- --- ------ ----- --- ---- ------- -- ---- --- --<br>------- ------,185282.7499999985,185282.32499999285,182938.32,182946.11999999324,182955.127,185288.449,,17,in
screen,html.Screen,2_1_1_1_18,2021-04-24T14:05:52.856Z,,,,,,,,,,,,,,,,,54,,,,,,,,,,,,,,569.2310000009893,,response,,,,100,,,,,,,Space,keypress(Space),,,,,,,,-- --- ---- --- ------ ----- ------- ---- -- --- ------- --<br>------- ---------- ------ -- ----- -- order -- ---- ------<br>--- ----- --- --- ------ -------- ----- --- ------ ----- --<br>----- ----- ---------- --- --- ------ ------ ---- -- ------<br>------- --- ------ ----- --- ---- ------- -- ---- --- --<br>------- ------,185858.04999999527,185857.68000000098,185271.769,185282.83999999985,185288.449,185871.914,,18,order
screen,html.Screen,2_1_1_1_19,2021-04-24T14:05:53.352Z,,,,,,,,,,,,,,,,,54,,,,,,,,,,,,,,481.74099999899045,,response,,,,100,,,,,,,Space,keypress(Space),,,,,,,,-- --- ---- --- ------ ----- ------- ---- -- --- ------- --<br>------- ---------- ------ -- ----- -- ----- to ---- ------<br>--- ----- --- --- ------ -------- ----- --- ------ ----- --<br>----- ----- ---------- --- --- ------ ------ ---- -- ------<br>------- --- ------ ----- --- ---- ------- -- ---- --- --<br>------- ------,186353.97999999986,186353.65499999898,185855.156,185858.12499999884,185871.914,186371.839,,19,to
screen,html.Screen,2_1_1_1_20,2021-04-24T14:05:53.728Z,,,,,,,,,,,,,,,,,54,,,,,,,,,,,,,,358.14599999811617,,response,,,,100,,,,,,,Space,keypress(Space),,,,,,,,-- --- ---- --- ------ ----- ------- ---- -- --- ------- --<br>------- ---------- ------ -- ----- -- ----- -- save ------<br>--- ----- --- --- ------ -------- ----- --- ------ ----- --<br>----- ----- ---------- --- --- ------ ------ ---- -- ------<br>------- --- ------ ----- --- ---- ------- -- ---- --- --<br>------- ------,186730.32999999123,186729.98499999812,186338.382,186354.67499999504,186371.839,186738.563,,20,save
screen,html.Screen,2_1_1_1_21,2021-04-24T14:05:54.128Z,,,,,,,,,,,,,,,,,54,,,,,,,,,,,,,,391.32699999652687,,response,,,,100,,,,,,,Space,keypress(Space),,,,,,,,"-- --- ---- --- ------ ----- ------- ---- -- --- ------- --<br>------- ---------- ------ -- ----- -- ----- -- ---- money,<br>--- ----- --- --- ------ -------- ----- --- ------ ----- --<br>----- ----- ---------- --- --- ------ ------ ---- -- ------<br>------- --- ------ ----- --- ---- ------- -- ---- --- --<br>------- ------",187130.25000000198,187129.88999999652,186721.935,186730.4099999892,186738.563,187138.479,,21,"money,"
screen,html.Screen,2_1_1_1_22,2021-04-24T14:05:54.496Z,,,,,,,,,,,,,,,,,54,,,,,,,,,,,,,,359.1159999934607,,response,,,,100,,,,,,,Space,keypress(Space),,,,,,,,-- --- ---- --- ------ ----- ------- ---- -- --- ------- --<br>------- ---------- ------ -- ----- -- ----- -- ---- ------<br>the ----- --- --- ------ -------- ----- --- ------ ----- --<br>----- ----- ---------- --- --- ------ ------ ---- -- ------<br>------- --- ------ ----- --- ---- ------- -- ---- --- --<br>------- ------,187498.07000000146,187497.59499999345,187121.691,187130.32999999996,187138.479,187505.1,,22,the
screen,html.Screen,2_1_1_1_23,2021-04-24T14:05:54.864Z,,,,,,,,,,,,,,,,,54,,,,,,,,,,,,,,360.5199999968463,,response,,,,100,,,,,,,Space,keypress(Space),,,,,,,,-- --- ---- --- ------ ----- ------- ---- -- --- ------- --<br>------- ---------- ------ -- ----- -- ----- -- ---- ------<br>--- state --- --- ------ -------- ----- --- ------ ----- --<br>----- ----- ---------- --- --- ------ ------ ---- -- ------<br>------- --- ------ ----- --- ---- ------- -- ---- --- --<br>------- ------,187865.96499998996,187865.61999999685,187488.349,187498.14999999944,187505.1,187871.806,,23,state
screen,html.Screen,2_1_1_1_24,2021-04-24T14:05:55.344Z,,,,,,,,,,,,,,,,,54,,,,,,,,,,,,,,473.8689999895578,,response,,,,100,,,,,,,Space,keypress(Space),,,,,,,,-- --- ---- --- ------ ----- ------- ---- -- --- ------- --<br>------- ---------- ------ -- ----- -- ----- -- ---- ------<br>--- ----- cut --- ------ -------- ----- --- ------ ----- --<br>----- ----- ---------- --- --- ------ ------ ---- -- ------<br>------- --- ------ ----- --- ---- ------- -- ---- --- --<br>------- ------,188346.01999999722,188345.67499998957,187854.991,187866.0499999969,187871.806,188355.248,,24,cut
screen,html.Screen,2_1_1_1_25,2021-04-24T14:05:55.720Z,,,,,,,,,,,,,,,,,54,,,,,,,,,,,,,,366.56699999715784,,response,,,,100,,,,,,,Space,keypress(Space),,,,,,,,-- --- ---- --- ------ ----- ------- ---- -- --- ------- --<br>------- ---------- ------ -- ----- -- ----- -- ---- ------<br>--- ----- --- the ------ -------- ----- --- ------ ----- --<br>----- ----- ---------- --- --- ------ ------ ---- -- ------<br>------- --- ------ ----- --- ---- ------- -- ---- --- --<br>------- ------,188722.20999999263,188721.81499999715,188338.539,188346.0999999952,188355.248,188738.451,,25,the
screen,html.Screen,2_1_1_1_26,2021-04-24T14:05:56.120Z,,,,,,,,,,,,,,,,,54,,,,,,,,,,,,,,383.338999990141,,response,,,,100,,,,,,,Space,keypress(Space),,,,,,,,-- --- ---- --- ------ ----- ------- ---- -- --- ------- --<br>------- ---------- ------ -- ----- -- ----- -- ---- ------<br>--- ----- --- --- bonds' -------- ----- --- ------ ----- --<br>----- ----- ---------- --- --- ------ ------ ---- -- ------<br>------- --- ------ ----- --- ---- ------- -- ---- --- --<br>------- ------,189122.22999999358,189121.78999999014,188721.729,188722.2899999906,188738.451,189138.542,,26,bonds'
screen,html.Screen,2_1_1_1_27,2021-04-24T14:05:56.712Z,,,,,,,,,,,,,,,,,54,,,,,,,,,,,,,,575.3679999913147,,response,,,,100,,,,,,,Space,keypress(Space),,,,,,,,-- --- ---- --- ------ ----- ------- ---- -- --- ------- --<br>------- ---------- ------ -- ----- -- ----- -- ---- ------<br>--- ----- --- --- ------ interest ----- --- ------ ----- --<br>----- ----- ---------- --- --- ------ ------ ---- -- ------<br>------- --- ------ ----- --- ---- ------- -- ---- --- --<br>------- ------,189714.32499999355,189713.9099999913,189122.027,189122.31500000053,189138.542,189721.765,,27,interest
screen,html.Screen,2_1_1_1_28,2021-04-24T14:05:57.096Z,,,,,,,,,,,,,,,,,54,,,,,,,,,,,,,,375.9649999940302,,response,,,,100,,,,,,,Space,keypress(Space),,,,,,,,-- --- ---- --- ------ ----- ------- ---- -- --- ------- --<br>------- ---------- ------ -- ----- -- ----- -- ---- ------<br>--- ----- --- --- ------ -------- rate. --- ------ ----- --<br>----- ----- ---------- --- --- ------ ------ ---- -- ------<br>------- --- ------ ----- --- ---- ------- -- ---- --- --<br>------- ------,190098.21999999986,190097.72999999404,189705.047,189714.91499998956,189721.765,190105.18,,28,rate.
screen,html.Screen,2_1_1_1_29,2021-04-24T14:05:57.480Z,,,,,,,,,,,,,,,,,54,,,,,,,,,,,,,,376.4749999959604,,response,,,,100,,,,,,,Space,keypress(Space),,,,,,,,-- --- ---- --- ------ ----- ------- ---- -- --- ------- --<br>------- ---------- ------ -- ----- -- ----- -- ---- ------<br>--- ----- --- --- ------ -------- ----- The ------ ----- --<br>----- ----- ---------- --- --- ------ ------ ---- -- ------<br>------- --- ------ ----- --- ---- ------- -- ---- --- --<br>------- ------,190482.0150000014,190481.65499999595,190088.637,190098.30499999225,190105.18,190488.437,,29,The
screen,html.Screen,2_1_1_1_30,2021-04-24T14:05:57.864Z,,,,,,,,,,,,,,,,,54,,,,,,,,,,,,,,377.6279999947001,,response,,,,100,,,,,,,Space,keypress(Space),,,,,,,,-- --- ---- --- ------ ----- ------- ---- -- --- ------- --<br>------- ---------- ------ -- ----- -- ----- -- ---- ------<br>--- ----- --- --- ------ -------- ----- --- market ----- --<br>----- ----- ---------- --- --- ------ ------ ---- -- ------<br>------- --- ------ ----- --- ---- ------- -- ---- --- --<br>------- ------,190866.4049999934,190866.0649999947,190471.896,190482.0949999994,190488.437,190871.731,,30,market
screen,html.Screen,2_1_1_1_31,2021-04-24T14:05:58.424Z,,,,,,,,,,,,,,,,,54,,,,,,,,,,,,,,553.7390000019514,,response,,,,100,,,,,,,Space,keypress(Space),,,,,,,,-- --- ---- --- ------ ----- ------- ---- -- --- ------- --<br>------- ---------- ------ -- ----- -- ----- -- ---- ------<br>--- ----- --- --- ------ -------- ----- --- ------ value --<br>----- ----- ---------- --- --- ------ ------ ---- -- ------<br>------- --- ------ ----- --- ---- ------- -- ---- --- --<br>------- ------,191425.88499998965,191425.47000000195,190855.081,190866.49499999476,190871.731,191438.424,,31,value
screen,html.Screen,2_1_1_1_32,2021-04-24T14:05:58.912Z,,,,,,,,,,,,,,,,,54,,,,,,,,,,,,,,474.99100000271574,,response,,,,100,,,,,,,Space,keypress(Space),,,,,,,,-- --- ---- --- ------ ----- ------- ---- -- --- ------- --<br>------- ---------- ------ -- ----- -- ----- -- ---- ------<br>--- ----- --- --- ------ -------- ----- --- ------ ----- of<br>----- ----- ---------- --- --- ------ ------ ---- -- ------<br>------- --- ------ ----- --- ---- ------- -- ---- --- --<br>------- ------,191913.77499999362,191913.41500000271,191421.744,191425.96500000218,191438.424,191921.837,,32,of
screen,html.Screen,2_1_1_1_33,2021-04-24T14:05:59.264Z,,,,,,,,,,,,,,,,,54,,,,,,,,,,,,,,343.9830000005313,,response,,,,100,,,,,,,Space,keypress(Space),,,,,,,,-- --- ---- --- ------ ----- ------- ---- -- --- ------- --<br>------- ---------- ------ -- ----- -- ----- -- ---- ------<br>--- ----- --- --- ------ -------- ----- --- ------ ----- --<br>these ----- ---------- --- --- ------ ------ ---- -- ------<br>------- --- ------ ----- --- ---- ------- -- ---- --- --<br>------- ------,192266.1700000026,192265.82000000053,191905.073,191913.8549999916,191921.837,192271.762,,33,these
screen,html.Screen,2_1_1_1_34,2021-04-24T14:05:59.584Z,,,,,,,,,,,,,,,,,54,,,,,,,,,,,,,,313.85299998905975,,response,,,,100,,,,,,,Space,keypress(Space),,,,,,,,-- --- ---- --- ------ ----- ------- ---- -- --- ------- --<br>------- ---------- ------ -- ----- -- ----- -- ---- ------<br>--- ----- --- --- ------ -------- ----- --- ------ ----- --<br>----- bonds ---------- --- --- ------ ------ ---- -- ------<br>------- --- ------ ----- --- ---- ------- -- ---- --- --<br>------- ------,192585.99500000128,192585.61499998905,192255.033,192266.2449999916,192271.762,192588.411,,34,bonds
screen,html.Screen,2_1_1_1_35,2021-04-24T14:06:00.015Z,,,,,,,,,,,,,,,,,54,,,,,,,,,,,,,,428.57399999475456,,response,,,,100,,,,,,,Space,keypress(Space),,,,,,,,"-- --- ---- --- ------ ----- ------- ---- -- --- ------- --<br>------- ---------- ------ -- ----- -- ----- -- ---- ------<br>--- ----- --- --- ------ -------- ----- --- ------ ----- --<br>----- ----- plummeted, --- --- ------ ------ ---- -- ------<br>------- --- ------ ----- --- ---- ------- -- ---- --- --<br>------- ------",193017.35499998904,193016.98499999475,192571.964,192586.07499999925,192588.411,193021.706,,35,"plummeted,"
screen,html.Screen,2_1_1_1_36,2021-04-24T14:06:00.344Z,,,,,,,,,,,,,,,,,54,,,,,,,,,,,,,,324.0439999931259,,response,,,,100,,,,,,,Space,keypress(Space),,,,,,,,-- --- ---- --- ------ ----- ------- ---- -- --- ------- --<br>------- ---------- ------ -- ----- -- ----- -- ---- ------<br>--- ----- --- --- ------ -------- ----- --- ------ ----- --<br>----- ----- ---------- and --- ------ ------ ---- -- ------<br>------- --- ------ ----- --- ---- ------- -- ---- --- --<br>------- ------,193346.6449999978,193345.74999999313,193005.315,193017.4449999904,193021.706,193355.217,,36,and
screen,html.Screen,2_1_1_1_37,2021-04-24T14:06:00.743Z,,,,,,,,,,,,,,,,,54,,,,,,,,,,,,,,389.7629999885685,,response,,,,100,,,,,,,Space,keypress(Space),,,,,,,,-- --- ---- --- ------ ----- ------- ---- -- --- ------- --<br>------- ---------- ------ -- ----- -- ----- -- ---- ------<br>--- ----- --- --- ------ -------- ----- --- ------ ----- --<br>----- ----- ---------- --- the ------ ------ ---- -- ------<br>------- --- ------ ----- --- ---- ------- -- ---- --- --<br>------- ------,193745.3349999996,193744.97999998857,193338.478,193346.74500000256,193355.217,193755.051,,37,the
screen,html.Screen,2_1_1_1_38,2021-04-24T14:06:01.008Z,,,,,,,,,,,,,,,,,54,,,,,,,,,,,,,,254.68399999963003,,response,,,,100,,,,,,,Space,keypress(Space),,,,,,,,-- --- ---- --- ------ ----- ------- ---- -- --- ------- --<br>------- ---------- ------ -- ----- -- ----- -- ---- ------<br>--- ----- --- --- ------ -------- ----- --- ------ ----- --<br>----- ----- ---------- --- --- market ------ ---- -- ------<br>------- --- ------ ----- --- ---- ------- -- ---- --- --<br>------- ------,194010.11999999173,194009.73499999964,193738.352,193745.4299999954,193755.051,194022.062,,38,market
screen,html.Screen,2_1_1_1_39,2021-04-24T14:06:01.400Z,,,,,,,,,,,,,,,,,54,,,,,,,,,,,,,,379.44799999604584,,response,,,,100,,,,,,,Space,keypress(Space),,,,,,,,-- --- ---- --- ------ ----- ------- ---- -- --- ------- --<br>------- ---------- ------ -- ----- -- ----- -- ---- ------<br>--- ----- --- --- ------ -------- ----- --- ------ ----- --<br>----- ----- ---------- --- --- ------ became ---- -- ------<br>------- --- ------ ----- --- ---- ------- -- ---- --- --<br>------- ------,194401.9949999929,194401.50999999605,194005.025,194010.1999999897,194022.062,194405.188,,39,became
screen,html.Screen,2_1_1_1_40,2021-04-24T14:06:01.856Z,,,,,,,,,,,,,,,,,54,,,,,,,,,,,,,,452.26199999588425,,response,,,,100,,,,,,,Space,keypress(Space),,,,,,,,-- --- ---- --- ------ ----- ------- ---- -- --- ------- --<br>------- ---------- ------ -- ----- -- ----- -- ---- ------<br>--- ----- --- --- ------ -------- ----- --- ------ ----- --<br>----- ----- ---------- --- --- ------ ------ wary -- ------<br>------- --- ------ ----- --- ---- ------- -- ---- --- --<br>------- ------,194857.83500000252,194857.44999999588,194388.443,194402.06999999646,194405.188,194872.029,,40,wary
screen,html.Screen,2_1_1_1_41,2021-04-24T14:06:02.104Z,,,,,,,,,,,,,,,,,54,,,,,,,,,,,,,,233.88099999839324,,response,,,,100,,,,,,,Space,keypress(Space),,,,,,,,-- --- ---- --- ------ ----- ------- ---- -- --- ------- --<br>------- ---------- ------ -- ----- -- ----- -- ---- ------<br>--- ----- --- --- ------ -------- ----- --- ------ ----- --<br>----- ----- ---------- --- --- ------ ------ ---- of ------<br>------- --- ------ ----- --- ---- ------- -- ---- --- --<br>------- ------,195106.37999999744,195105.9099999984,194855.109,194857.9150000005,194872.029,195122.03,,41,of
screen,html.Screen,2_1_1_1_42,2021-04-24T14:06:02.648Z,,,,,,,,,,,,,,,,,54,,,,,,,,,,,,,,528.120000001305,,response,,,,100,,,,,,,Space,keypress(Space),,,,,,,,-- --- ---- --- ------ ----- ------- ---- -- --- ------- --<br>------- ---------- ------ -- ----- -- ----- -- ---- ------<br>--- ----- --- --- ------ -------- ----- --- ------ ----- --<br>----- ----- ---------- --- --- ------ ------ ---- -- French<br>------- --- ------ ----- --- ---- ------- -- ---- --- --<br>------- ------,195650.59999999357,195650.1500000013,195105.082,195106.455000001,195122.03,195655.229,,42,French
screen,html.Screen,2_1_1_1_43,2021-04-24T14:06:02.888Z,,,,,,,,,,,,,,,,,54,,,,,,,,,,,,,,234.49600000091596,,response,,,,100,,,,,,,Space,keypress(Space),,,,,,,,-- --- ---- --- ------ ----- ------- ---- -- --- ------- --<br>------- ---------- ------ -- ----- -- ----- -- ---- ------<br>--- ----- --- --- ------ -------- ----- --- ------ ----- --<br>----- ----- ---------- --- --- ------ ------ ---- -- ------<br>credit. --- ------ ----- --- ---- ------- -- ---- --- --<br>------- ------,195890.0949999952,195889.7250000009,195638.656,195650.67999999155,195655.229,195905.197,,43,credit.
screen,html.Screen,2_1_1_1_44,2021-04-24T14:06:03.143Z,,,,,,,,,,,,,,,,,54,,,,,,,,,,,,,,240.0679999992135,,response,,,,100,,,,,,,Space,keypress(Space),,,,,,,,-- --- ---- --- ------ ----- ------- ---- -- --- ------- --<br>------- ---------- ------ -- ----- -- ----- -- ---- ------<br>--- ----- --- --- ------ -------- ----- --- ------ ----- --<br>----- ----- ---------- --- --- ------ ------ ---- -- ------<br>------- The ------ ----- --- ---- ------- -- ---- --- --<br>------- ------,196145.6249999901,196145.2649999992,195888.493,195890.17499999318,195905.197,196155.233,,44,The
screen,html.Screen,2_1_1_1_45,2021-04-24T14:06:03.544Z,,,,,,,,,,,,,,,,,54,,,,,,,,,,,,,,389.68199999129865,,response,,,,100,,,,,,,Space,keypress(Space),,,,,,,,-- --- ---- --- ------ ----- ------- ---- -- --- ------- --<br>------- ---------- ------ -- ----- -- ----- -- ---- ------<br>--- ----- --- --- ------ -------- ----- --- ------ ----- --<br>----- ----- ---------- --- --- ------ ------ ---- -- ------<br>------- --- French ----- --- ---- ------- -- ---- --- --<br>------- ------,196546.5899999981,196544.9149999913,196138.671,196145.70500000264,196155.233,196555.113,,45,French
screen,html.Screen,2_1_1_1_46,2021-04-24T14:06:03.719Z,,,,,,,,,,,,,,,,,54,,,,,,,,,,,,,,165.79199999466073,,response,,,,100,,,,,,,Space,keypress(Space),,,,,,,,-- --- ---- --- ------ ----- ------- ---- -- --- ------- --<br>------- ---------- ------ -- ----- -- ----- -- ---- ------<br>--- ----- --- --- ------ -------- ----- --- ------ ----- --<br>----- ----- ---------- --- --- ------ ------ ---- -- ------<br>------- --- ------ state --- ---- ------- -- ---- --- --<br>------- ------,196721.21499999776,196720.90499999467,196538.658,196546.67999999947,196555.113,196739.15,,46,state
screen,html.Screen,2_1_1_1_47,2021-04-24T14:06:03.952Z,,,,,,,,,,,,,,,,,54,,,,,,,,,,,,,,214.75999999654596,,response,,,,100,,,,,,,Space,keypress(Space),,,,,,,,-- --- ---- --- ------ ----- ------- ---- -- --- ------- --<br>------- ---------- ------ -- ----- -- ----- -- ---- ------<br>--- ----- --- --- ------ -------- ----- --- ------ ----- --<br>----- ----- ---------- --- --- ------ ------ ---- -- ------<br>------- --- ------ ----- was ---- ------- -- ---- --- --<br>------- ------,196954.23499999742,196953.90999999654,196705.091,196721.29999999015,196739.15,196972.951,,47,was
screen,html.Screen,2_1_1_1_48,2021-04-24T14:06:04.280Z,,,,,,,,,,,,,,,,,54,,,,,,,,,,,,,,308.7889999912586,,response,,,,100,,,,,,,Space,keypress(Space),,,,,,,,-- --- ---- --- ------ ----- ------- ---- -- --- ------- --<br>------- ---------- ------ -- ----- -- ----- -- ---- ------<br>--- ----- --- --- ------ -------- ----- --- ------ ----- --<br>----- ----- ---------- --- --- ------ ------ ---- -- ------<br>------- --- ------ ----- --- left ------- -- ---- --- --<br>------- ------,197282.08499999892,197281.73999999126,196938.521,196954.3149999954,196972.951,197288.407,,48,left
screen,html.Screen,2_1_1_1_49,2021-04-24T14:06:04.496Z,,,,,,,,,,,,,,,,,54,,,,,,,,,,,,,,209.0429999952903,,response,,,,100,,,,,,,Space,keypress(Space),,,,,,,,-- --- ---- --- ------ ----- ------- ---- -- --- ------- --<br>------- ---------- ------ -- ----- -- ----- -- ---- ------<br>--- ----- --- --- ------ -------- ----- --- ------ ----- --<br>----- ----- ---------- --- --- ------ ------ ---- -- ------<br>------- --- ------ ----- --- ---- without -- ---- --- --<br>------- ------,197497.8199999896,197497.4499999953,197271.822,197282.1699999913,197288.407,197505.189,,49,without
screen,html.Screen,2_1_1_1_50,2021-04-24T14:06:04.815Z,,,,,,,,,,,,,,,,,54,,,,,,,,,,,,,,311.7209999940824,,response,,,,100,,,,,,,Space,keypress(Space),,,,,,,,-- --- ---- --- ------ ----- ------- ---- -- --- ------- --<br>------- ---------- ------ -- ----- -- ----- -- ---- ------<br>--- ----- --- --- ------ -------- ----- --- ------ ----- --<br>----- ----- ---------- --- --- ------ ------ ---- -- ------<br>------- --- ------ ----- --- ---- ------- an ---- --- --<br>------- ------,197817.2099999938,197816.9099999941,197488.445,197497.90000000212,197505.189,197821.78,,50,an
screen,html.Screen,2_1_1_1_51,2021-04-24T14:06:05.144Z,,,,,,,,,,,,,,,,,54,,,,,,,,,,,,,,323.8849999890954,,response,,,,100,,,,,,,Space,keypress(Space),,,,,,,,-- --- ---- --- ------ ----- ------- ---- -- --- ------- --<br>------- ---------- ------ -- ----- -- ----- -- ---- ------<br>--- ----- --- --- ------ -------- ----- --- ------ ----- --<br>----- ----- ---------- --- --- ------ ------ ---- -- ------<br>------- --- ------ ----- --- ---- ------- -- easy --- --<br>------- ------,198146.03499999794,198145.6649999891,197805.082,197817.28999999177,197821.78,198155.323,,51,easy
screen,html.Screen,2_1_1_1_52,2021-04-24T14:06:05.400Z,,,,,,,,,,,,,,,,,54,,,,,,,,,,,,,,246.59199999491102,,response,,,,100,,,,,,,Space,keypress(Space),,,,,,,,-- --- ---- --- ------ ----- ------- ---- -- --- ------- --<br>------- ---------- ------ -- ----- -- ----- -- ---- ------<br>--- ----- --- --- ------ -------- ----- --- ------ ----- --<br>----- ----- ---------- --- --- ------ ------ ---- -- ------<br>------- --- ------ ----- --- ---- ------- -- ---- way --<br>------- ------,198402.2699999914,198401.91499999491,198138.513,198146.11499999592,198155.323,198405.111,,52,way
screen,html.Screen,2_1_1_1_53,2021-04-24T14:06:05.712Z,,,,,,,,,,,,,,,,,54,,,,,,,,,,,,,,308.7739999901096,,response,,,,100,,,,,,,Space,keypress(Space),,,,,,,,-- --- ---- --- ------ ----- ------- ---- -- --- ------- --<br>------- ---------- ------ -- ----- -- ----- -- ---- ------<br>--- ----- --- --- ------ -------- ----- --- ------ ----- --<br>----- ----- ---------- --- --- ------ ------ ---- -- ------<br>------- --- ------ ----- --- ---- ------- -- ---- --- of<br>------- ------,198714.28499999456,198713.8849999901,198388.49,198402.35499999835,198405.111,198721.891,,53,of
screen,html.Screen,2_1_1_1_54,2021-04-24T14:06:06.112Z,,,,,,,,,,,,,,,,,54,,,,,,,,,,,,,,391.70400000252994,,response,,,,100,,,,,,,Space,keypress(Space),,,,,,,,-- --- ---- --- ------ ----- ------- ---- -- --- ------- --<br>------- ---------- ------ -- ----- -- ----- -- ---- ------<br>--- ----- --- --- ------ -------- ----- --- ------ ----- --<br>----- ----- ---------- --- --- ------ ------ ---- -- ------<br>------- --- ------ ----- --- ---- ------- -- ---- --- --<br>raising ------,199113.989999998,199113.59500000253,198705.163,198714.35999999812,198721.891,199122.038,,54,raising
screen,html.Screen,2_1_1_1_55,2021-04-24T14:06:06.591Z,,,,,,,,,,,,,,,,,54,,,,,,,,,,,,,,471.08699999941746,,response,,,,100,,,,,,,Space,keypress(Space),,,,,,,,-- --- ---- --- ------ ----- ------- ---- -- --- ------- --<br>------- ---------- ------ -- ----- -- ----- -- ---- ------<br>--- ----- --- --- ------ -------- ----- --- ------ ----- --<br>----- ----- ---------- --- --- ------ ------ ---- -- ------<br>------- --- ------ ----- --- ---- ------- -- ---- --- --<br>------- money.,199593.4649999981,199593.12499999942,199105.379,199114.069999996,199122.038,199605.148,,55,money.
Item 100,flow.Loop,2_1_1_1,2021-04-24T14:06:06.591Z,,,,,,,,,,,,,,,,,,,,,,,,,,,,,,,25671.500999999407,,completion,,,,,B,,,,,,,,,,,silence,,,,,199593.61999999965,199593.12499999942,173905.028,173905.55999999924,173921.624,199605.148,,,
Question 1,html.Screen,2_1_1_2,2021-04-24T14:06:09.514Z,,,,,,,,,,,,,,,,,,,,,,,,,,,,true,TRUE,,2910.6519999937736,,response,,,,100,B,,,,,,TRUE,click #choice-1,,,,silence,,,,,202516.40999999654,202515.79999999376,199588.683,199593.68999999424,199605.148,202521.819,,,
Question 2,html.Screen,2_1_1_3,2021-04-24T14:06:12.222Z,,,,,,,,,,,,,,,,,,,,,,,,,,,,true,FALSE,,2701.8609999955224,,response,,,,100,B,,,,,,FALSE,click #choice-2,,,,silence,,,,,205224.2249999981,205223.6799999955,202505.185,202516.48999999452,202521.819,205238.522,,,
Item 100,flow.Sequence,2_1_1,2021-04-24T14:06:12.222Z,,,,,,,,,,,,,,,,,,,,,,,,,,,,,,,41302.184999995516,,completion,,,,,,,,,,,,,,,,,,,,,205224.34499999508,205223.6799999955,163904.943,163915.88000000047,163921.495,205238.522,,,
End of Practice,html.Page,2_1_2,2021-04-24T14:06:16.193Z,,,,,,,,,,,,,,,,,,,,,,,,,,,,,,,3955.732999994885,,form submission,,,,,,,,,,,,,,,,,,,,,209195.0499999948,209194.25499999488,205221.874,205224.40999999526,205238.522,209221.88,,,
Practice,flow.Sequence,2_1,2021-04-24T14:06:16.193Z,,,,,,,,,,,,,,,,,,,,,,,,,,,,,,,105656.54299999488,,completion,,,,,,,,,,,,,,,,,,,,,209195.16999999178,209194.25499999488,103521.047,103530.20999999717,103537.712,209221.88,,,
Trap_instruction,html.Page,2_2_0,2021-04-24T14:06:19.970Z,,,,,,,,,,,,,,,,,,,,,,,,,,,,,,,3750.310000000405,,form submission,,,,,,,,,,,,,,,,,,,,,212972.41000000213,212972.1900000004,209205.691,209195.25499999872,209221.88,212988.528,,,
trap_trial,html.Screen,2_2_1,2021-04-24T14:06:22.579Z,,,,,,,,,,,,,,,,,,,,,,,,,,,,true,1,,2592.5270000023884,,response,,,,,,,,,,,1,click #choice-1,,,,,,,,,215581.68000000296,215581.05500000238,212971.883,212972.49499999452,212988.528,215588.634,,,
end of trap trial,html.Page,2_2_2,2021-04-24T14:06:24.064Z,,,,,,,,,,,,,,,,,,,,,,,,,,,,,,,1476.980999999534,,form submission,,,,,,,,,,,,,,,,,,,,,217065.87999999465,217065.61499999953,215572.254,215581.76999998977,215588.634,217071.974,,,
Trap 1,flow.Sequence,2_2,2021-04-24T14:06:24.064Z,,,,,,,,,,,,,,,,,,,,,,,,,,,,,,,7843.73499999952,,completion,,,,,,,,,,,,,,,,,,,,,217066.0249999928,217065.61499999953,209205.691,209195.22499998857,209221.88,217071.974,,,
Standby,html.Page,2_3_0,2021-04-24T14:06:32.055Z,,,,,,,,,,,,,,,,,,,,,,,,,,,,,,,8000.171000000002,,timeout,,,,,,,,,,,,,,,,,,,,,225057.6000000001,225055.373,217055.386,217066.10999999975,217071.974,225072.145,,,
Holding screen,html.Screen,2_3_1_0_0,2021-04-24T14:06:39.054Z,,,,,,,,,,,,,,,,,,,,,,,,,,,,,,,6999.879000000015,,timeout,,,,,,,,,,,,,,,,,,,,,232055.77999999514,232055.384,225055.373,225057.73000000045,225072.145,232072.024,,,
screen,html.Screen,2_3_1_0_1_0,2021-04-24T14:06:40.384Z,,,,,,,,,,,,,,,,,2,,,,,,,,,,,,,,1313.7359999901091,,response,,,,1,B,,,,,,Space,keypress(Space),,,,lyrical,,,,Two ---- ------ --- ------- ---------- ------- ----------<br>--- --------- --- ----------- ------- ----- ------- ---<br>--------- ---- -- --- ---- -- --------- -- ---- -------<br>-- --------- ------ --- ----- ------ ---- --- --------- --<br>------ - ---- -- --- ----------- ------- ---- ----- -----<br>--- -------- - ------ ---- -- ----- ---- --- --- -----------<br>-- -------,233386.11999999557,233385.7599999901,232055.384,232055.8949999977,232072.024,233405.482,,0,Two
screen,html.Screen,2_3_1_0_1_1,2021-04-24T14:06:40.776Z,,,,,,,,,,,,,,,,,2,,,,,,,,,,,,,,372.1479999968724,,response,,,,1,B,,,,,,Space,keypress(Space),,,,lyrical,,,,--- days ------ --- ------- ---------- ------- ----------<br>--- --------- --- ----------- ------- ----- ------- ---<br>--------- ---- -- --- ---- -- --------- -- ---- -------<br>-- --------- ------ --- ----- ------ ---- --- --------- --<br>------ - ---- -- --- ----------- ------- ---- ----- -----<br>--- -------- - ------ ---- -- ----- ---- --- --- -----------<br>-- -------,233777.99499999674,233777.62999999686,233388.815,233386.20999999694,233405.482,233805.466,,1,days
screen,html.Screen,2_3_1_0_1_2,2021-04-24T14:06:41.048Z,,,,,,,,,,,,,,,,,2,,,,,,,,,,,,,,244.25399999544607,,response,,,,1,B,,,,,,Space,keypress(Space),,,,lyrical,,,,"--- ---- later, --- ------- ---------- ------- ----------<br>--- --------- --- ----------- ------- ----- ------- ---<br>--------- ---- -- --- ---- -- --------- -- ---- -------<br>-- --------- ------ --- ----- ------ ---- --- --------- --<br>------ - ---- -- --- ----------- ------- ---- ----- -----<br>--- -------- - ------ ---- -- ----- ---- --- --- -----------<br>-- -------",234050.17499999667,234049.71999999543,233788.76,233778.07499999471,233805.466,234055.406,,2,"later,"
screen,html.Screen,2_3_1_0_1_3,2021-04-24T14:06:41.384Z,,,,,,,,,,,,,,,,,2,,,,,,,,,,,,,,330.53399999285466,,response,,,,1,B,,,,,,Space,keypress(Space),,,,lyrical,,,,--- ---- ------ the ------- ---------- ------- ----------<br>--- --------- --- ----------- ------- ----- ------- ---<br>--------- ---- -- --- ---- -- --------- -- ---- -------<br>-- --------- ------ --- ----- ------ ---- --- --------- --<br>------ - ---- -- --- ----------- ------- ---- ----- -----<br>--- -------- - ------ ---- -- ----- ---- --- --- -----------<br>-- -------,234386.3449999917,234385.93999999284,234038.777,234050.25000000023,234055.406,234388.693,,3,the
screen,html.Screen,2_3_1_0_1_4,2021-04-24T14:06:41.768Z,,,,,,,,,,,,,,,,,2,,,,,,,,,,,,,,381.33199999071076,,response,,,,1,B,,,,,,Space,keypress(Space),,,,lyrical,,,,--- ---- ------ --- British ---------- ------- ----------<br>--- --------- --- ----------- ------- ----- ------- ---<br>--------- ---- -- --- ---- -- --------- -- ---- -------<br>-- --------- ------ --- ----- ------ ---- --- --------- --<br>------ - ---- -- --- ----------- ------- ---- ----- -----<br>--- -------- - ------ ---- -- ----- ---- --- --- -----------<br>-- -------,234770.48500000092,234770.0249999907,234372.27,234386.4249999897,234388.693,234772.104,,4,British
screen,html.Screen,2_3_1_0_1_5,2021-04-24T14:06:42.176Z,,,,,,,,,,,,,,,,,2,,,,,,,,,,,,,,406.15099999163067,,response,,,,1,B,,,,,,Space,keypress(Space),,,,lyrical,,,,--- ---- ------ --- ------- astronomer ------- ----------<br>--- --------- --- ----------- ------- ----- ------- ---<br>--------- ---- -- --- ---- -- --------- -- ---- -------<br>-- --------- ------ --- ----- ------ ---- --- --------- --<br>------ - ---- -- --- ----------- ------- ---- ----- -----<br>--- -------- - ------ ---- -- ----- ---- --- --- -----------<br>-- -------,235178.63999999827,235178.25499999162,234755.459,234770.55999998993,234772.104,235188.716,,5,astronomer
screen,html.Screen,2_3_1_0_1_6,2021-04-24T14:06:42.551Z,,,,,,,,,,,,,,,,,2,,,,,,,,,,,,,,364.20400000191876,,response,,,,1,B,,,,,,Space,keypress(Space),,,,lyrical,,,,--- ---- ------ --- ------- ---------- Richard ----------<br>--- --------- --- ----------- ------- ----- ------- ---<br>--------- ---- -- --- ---- -- --------- -- ---- -------<br>-- --------- ------ --- ----- ------ ---- --- --------- --<br>------ - ---- -- --- ----------- ------- ---- ----- -----<br>--- -------- - ------ ---- -- ----- ---- --- --- -----------<br>-- -------,235553.264999995,235552.9200000019,235172.092,235178.71500000183,235188.716,235555.39,,6,Richard
screen,html.Screen,2_3_1_0_1_7,2021-04-24T14:06:42.928Z,,,,,,,,,,,,,,,,,2,,,,,,,,,,,,,,374.434999999241,,response,,,,1,B,,,,,,Space,keypress(Space),,,,lyrical,,,,--- ---- ------ --- ------- ---------- ------- Carrington<br>--- --------- --- ----------- ------- ----- ------- ---<br>--------- ---- -- --- ---- -- --------- -- ---- -------<br>-- --------- ------ --- ----- ------ ---- --- --------- --<br>------ - ---- -- --- ----------- ------- ---- ----- -----<br>--- -------- - ------ ---- -- ----- ---- --- --- -----------<br>-- -------,235930.17500000133,235929.82499999925,235538.708,235553.35499999637,235555.39,235938.777,,7,Carrington
screen,html.Screen,2_3_1_0_1_8,2021-04-24T14:06:43.271Z,,,,,,,,,,,,,,,,,2,,,,,,,,,,,,,,334.6329999943264,,response,,,,1,B,,,,,,Space,keypress(Space),,,,lyrical,,,,--- ---- ------ --- ------- ---------- ------- ----------<br>was --------- --- ----------- ------- ----- ------- ---<br>--------- ---- -- --- ---- -- --------- -- ---- -------<br>-- --------- ------ --- ----- ------ ---- --- --------- --<br>------ - ---- -- --- ----------- ------- ---- ----- -----<br>--- -------- - ------ ---- -- ----- ---- --- --- -----------<br>-- -------,236273.7349999952,236273.40999999433,235922.04,235930.2549999993,235938.777,236288.756,,8,was
screen,html.Screen,2_3_1_0_1_9,2021-04-24T14:06:43.552Z,,,,,,,,,,,,,,,,,2,,,,,,,,,,,,,,264.8339999958989,,response,,,,1,B,,,,,,Space,keypress(Space),,,,lyrical,,,,--- ---- ------ --- ------- ---------- ------- ----------<br>--- observing --- ----------- ------- ----- ------- ---<br>--------- ---- -- --- ---- -- --------- -- ---- -------<br>-- --------- ------ --- ----- ------ ---- --- --------- --<br>------ - ---- -- --- ----------- ------- ---- ----- -----<br>--- -------- - ------ ---- -- ----- ---- --- --- -----------<br>-- -------,236553.91499999678,236553.5899999959,236272.161,236273.8149999932,236288.756,236555.403,,9,observing
screen,html.Screen,2_3_1_0_1_10,2021-04-24T14:06:43.864Z,,,,,,,,,,,,,,,,,2,,,,,,,,,,,,,,310.1319999899133,,response,,,,1,B,,,,,,Space,keypress(Space),,,,lyrical,,,,--- ---- ------ --- ------- ---------- ------- ----------<br>--- --------- the ----------- ------- ----- ------- ---<br>--------- ---- -- --- ---- -- --------- -- ---- -------<br>-- --------- ------ --- ----- ------ ---- --- --------- --<br>------ - ---- -- --- ----------- ------- ---- ----- -----<br>--- -------- - ------ ---- -- ----- ---- --- --- -----------<br>-- -------,236865.83999999857,236865.5349999899,236538.773,236553.99999998917,236555.403,236872.2,,10,the
screen,html.Screen,2_3_1_0_1_11,2021-04-24T14:06:44.208Z,,,,,,,,,,,,,,,,,2,,,,,,,,,,,,,,337.7499999894644,,response,,,,1,B,,,,,,Space,keypress(Space),,,,lyrical,,,,--- ---- ------ --- ------- ---------- ------- ----------<br>--- --------- --- interesting ------- ----- ------- ---<br>--------- ---- -- --- ---- -- --------- -- ---- -------<br>-- --------- ------ --- ----- ------ ---- --- --------- --<br>------ - ---- -- --- ----------- ------- ---- ----- -----<br>--- -------- - ------ ---- -- ----- ---- --- --- -----------<br>-- -------,237210.3449999995,237209.94999998948,236855.376,236865.92499999097,236872.2,237222.236,,11,interesting
screen,html.Screen,2_3_1_0_1_12,2021-04-24T14:06:44.528Z,,,,,,,,,,,,,,,,,2,,,,,,,,,,,,,,307.06899998910376,,response,,,,1,B,,,,,,Space,keypress(Space),,,,lyrical,,,,--- ---- ------ --- ------- ---------- ------- ----------<br>--- --------- --- ----------- sunspot ----- ------- ---<br>--------- ---- -- --- ---- -- --------- -- ---- -------<br>-- --------- ------ --- ----- ------ ---- --- --------- --<br>------ - ---- -- --- ----------- ------- ---- ----- -----<br>--- -------- - ------ ---- -- ----- ---- --- --- -----------<br>-- -------,237529.84000000288,237529.3049999891,237205.417,237210.42499999749,237222.236,237538.821,,12,sunspot
screen,html.Screen,2_3_1_0_1_13,2021-04-24T14:06:44.896Z,,,,,,,,,,,,,,,,,2,,,,,,,,,,,,,,358.58399999607354,,response,,,,1,B,,,,,,Space,keypress(Space),,,,lyrical,,,,--- ---- ------ --- ------- ---------- ------- ----------<br>--- --------- --- ----------- ------- group ------- ---<br>--------- ---- -- --- ---- -- --------- -- ---- -------<br>-- --------- ------ --- ----- ------ ---- --- --------- --<br>------ - ---- -- --- ----------- ------- ---- ----- -----<br>--- -------- - ------ ---- -- ----- ---- --- --- -----------<br>-- -------,237897.79999999155,237897.40499999607,237522.333,237529.92000000086,237538.821,237905.534,,13,group
screen,html.Screen,2_3_1_0_1_14,2021-04-24T14:06:45.208Z,,,,,,,,,,,,,,,,,2,,,,,,,,,,,,,,304.2009999967122,,response,,,,1,B,,,,,,Space,keypress(Space),,,,lyrical,,,,--- ---- ------ --- ------- ---------- ------- ----------<br>--- --------- --- ----------- ------- ----- through ---<br>--------- ---- -- --- ---- -- --------- -- ---- -------<br>-- --------- ------ --- ----- ------ ---- --- --------- --<br>------ - ---- -- --- ----------- ------- ---- ----- -----<br>--- -------- - ------ ---- -- ----- ---- --- --- -----------<br>-- -------,238210.09500000218,238209.73499999673,237888.787,237897.8849999985,237905.534,238238.83,,14,through
screen,html.Screen,2_3_1_0_1_15,2021-04-24T14:06:45.520Z,,,,,,,,,,,,,,,,,2,,,,,,,,,,,,,,282.87499999193824,,response,,,,1,B,,,,,,Space,keypress(Space),,,,lyrical,,,,--- ---- ------ --- ------- ---------- ------- ----------<br>--- --------- --- ----------- ------- ----- ------- his<br>--------- ---- -- --- ---- -- --------- -- ---- -------<br>-- --------- ------ --- ----- ------ ---- --- --------- --<br>------ - ---- -- --- ----------- ------- ---- ----- -----<br>--- -------- - ------ ---- -- ----- ---- --- --- -----------<br>-- -------,238522.25499998895,238521.70499999193,238222.382,238210.1699999912,238238.83,238538.742,,15,his
screen,html.Screen,2_3_1_0_1_16,2021-04-24T14:06:45.727Z,,,,,,,,,,,,,,,,,2,,,,,,,,,,,,,,190.0930000017106,,response,,,,1,B,,,,,,Space,keypress(Space),,,,lyrical,,,,--- ---- ------ --- ------- ---------- ------- ----------<br>--- --------- --- ----------- ------- ----- ------- ---<br>telescope ---- -- --- ---- -- --------- -- ---- -------<br>-- --------- ------ --- ----- ------ ---- --- --------- --<br>------ - ---- -- --- ----------- ------- ---- ----- -----<br>--- -------- - ------ ---- -- ----- ---- --- --- -----------<br>-- -------,238729.15499999363,238728.8350000017,238522.283,238522.33500000148,238538.742,238738.747,,16,telescope
screen,html.Screen,2_3_1_0_1_17,2021-04-24T14:06:46.096Z,,,,,,,,,,,,,,,,,2,,,,,,,,,,,,,,358.70300000111456,,response,,,,1,B,,,,,,Space,keypress(Space),,,,lyrical,,,,--- ---- ------ --- ------- ---------- ------- ----------<br>--- --------- --- ----------- ------- ----- ------- ---<br>--------- when -- --- ---- -- --------- -- ---- -------<br>-- --------- ------ --- ----- ------ ---- --- --------- --<br>------ - ---- -- --- ----------- ------- ---- ----- -----<br>--- -------- - ------ ---- -- ----- ---- --- --- -----------<br>-- -------,239097.79999998864,239097.45000000112,238722.081,238729.24000000057,238738.747,239105.507,,17,when
screen,html.Screen,2_3_1_0_1_18,2021-04-24T14:06:46.463Z,,,,,,,,,,,,,,,,,2,,,,,,,,,,,,,,359.5429999988701,,response,,,,1,B,,,,,,Space,keypress(Space),,,,lyrical,,,,--- ---- ------ --- ------- ---------- ------- ----------<br>--- --------- --- ----------- ------- ----- ------- ---<br>--------- ---- he --- ---- -- --------- -- ---- -------<br>-- --------- ------ --- ----- ------ ---- --- --------- --<br>------ - ---- -- --- ----------- ------- ---- ----- -----<br>--- -------- - ------ ---- -- ----- ---- --- --- -----------<br>-- -------,239465.42999999656,239465.04999999888,239088.771,239097.88000000117,239105.507,239488.878,,18,he
screen,html.Screen,2_3_1_0_1_19,2021-04-24T14:06:46.799Z,,,,,,,,,,,,,,,,,2,,,,,,,,,,,,,,312.1920000013488,,response,,,,1,B,,,,,,Space,keypress(Space),,,,lyrical,,,,--- ---- ------ --- ------- ---------- ------- ----------<br>--- --------- --- ----------- ------- ----- ------- ---<br>--------- ---- -- saw ---- -- --------- -- ---- -------<br>-- --------- ------ --- ----- ------ ---- --- --------- --<br>------ - ---- -- --- ----------- ------- ---- ----- -----<br>--- -------- - ------ ---- -- ----- ---- --- --- -----------<br>-- -------,239801.4600000024,239801.07000000135,239472.106,239465.51999999792,239488.878,239822.133,,19,saw
screen,html.Screen,2_3_1_0_1_20,2021-04-24T14:06:47.111Z,,,,,,,,,,,,,,,,,2,,,,,,,,,,,,,,291.1169999948761,,response,,,,1,B,,,,,,Space,keypress(Space),,,,lyrical,,,,--- ---- ------ --- ------- ---------- ------- ----------<br>--- --------- --- ----------- ------- ----- ------- ---<br>--------- ---- -- --- what -- --------- -- ---- -------<br>-- --------- ------ --- ----- ------ ---- --- --------- --<br>------ - ---- -- --- ----------- ------- ---- ----- -----<br>--- -------- - ------ ---- -- ----- ---- --- --- -----------<br>-- -------,240113.59999999695,240113.24999999488,239805.459,239801.5400000004,239822.133,240138.808,,20,what
screen,html.Screen,2_3_1_0_1_21,2021-04-24T14:06:47.392Z,,,,,,,,,,,,,,,,,2,,,,,,,,,,,,,,255.34700000178418,,response,,,,1,B,,,,,,Space,keypress(Space),,,,lyrical,,,,--- ---- ------ --- ------- ---------- ------- ----------<br>--- --------- --- ----------- ------- ----- ------- ---<br>--------- ---- -- --- ---- he --------- -- ---- -------<br>-- --------- ------ --- ----- ------ ---- --- --------- --<br>------ - ---- -- --- ----------- ------- ---- ----- -----<br>--- -------- - ------ ---- -- ----- ---- --- --- -----------<br>-- -------,240394.50999999826,240394.15500000177,240122.103,240113.67999999493,240138.808,240422.17,,21,he
screen,html.Screen,2_3_1_0_1_22,2021-04-24T14:06:47.631Z,,,,,,,,,,,,,,,,,2,,,,,,,,,,,,,,211.05999999216874,,response,,,,1,B,,,,,,Space,keypress(Space),,,,lyrical,,,,--- ---- ------ --- ------- ---------- ------- ----------<br>--- --------- --- ----------- ------- ----- ------- ---<br>--------- ---- -- --- ---- -- described -- ---- -------<br>-- --------- ------ --- ----- ------ ---- --- --------- --<br>------ - ---- -- --- ----------- ------- ---- ----- -----<br>--- -------- - ------ ---- -- ----- ---- --- --- -----------<br>-- -------,240633.60499999544,240633.22999999218,240405.558,240394.58999999624,240422.17,240638.893,,22,described
screen,html.Screen,2_3_1_0_1_23,2021-04-24T14:06:47.951Z,,,,,,,,,,,,,,,,,2,,,,,,,,,,,,,,314.4219999915513,,response,,,,1,B,,,,,,Space,keypress(Space),,,,lyrical,,,,--- ---- ------ --- ------- ---------- ------- ----------<br>--- --------- --- ----------- ------- ----- ------- ---<br>--------- ---- -- --- ---- -- --------- as ---- -------<br>-- --------- ------ --- ----- ------ ---- --- --------- --<br>------ - ---- -- --- ----------- ------- ---- ----- -----<br>--- -------- - ------ ---- -- ----- ---- --- --- -----------<br>-- -------,240953.794999994,240953.31499999156,240622.4,240633.6900000024,240638.893,240955.474,,23,as
screen,html.Screen,2_3_1_0_1_24,2021-04-24T14:06:48.223Z,,,,,,,,,,,,,,,,,2,,,,,,,,,,,,,,270.335999989009,,response,,,,1,B,,,,,,Space,keypress(Space),,,,lyrical,,,,"--- ---- ------ --- ------- ---------- ------- ----------<br>--- --------- --- ----------- ------- ----- ------- ---<br>--------- ---- -- --- ---- -- --------- -- ""two -------<br>-- --------- ------ --- ----- ------ ---- --- --------- --<br>------ - ---- -- --- ----------- ------- ---- ----- -----<br>--- -------- - ------ ---- -- ----- ---- --- --- -----------<br>-- -------",241226.18499999226,241225.809999989,240938.996,240953.87499999197,240955.474,241239.043,,24,"""two"
screen,html.Screen,2_3_1_0_1_25,2021-04-24T14:06:48.718Z,,,,,,,,,,,,,,,,,2,,,,,,,,,,,,,,481.79699999449076,,response,,,,1,B,,,,,,Space,keypress(Space),,,,lyrical,,,,--- ---- ------ --- ------- ---------- ------- ----------<br>--- --------- --- ----------- ------- ----- ------- ---<br>--------- ---- -- --- ---- -- --------- -- ---- patches<br>-- --------- ------ --- ----- ------ ---- --- --------- --<br>------ - ---- -- --- ----------- ------- ---- ----- -----<br>--- -------- - ------ ---- -- ----- ---- --- --- -----------<br>-- -------,241721.17999999318,241720.8399999945,241222.209,241226.2800000026,241239.043,241739.873,,25,patches
screen,html.Screen,2_3_1_0_1_26,2021-04-24T14:06:49.063Z,,,,,,,,,,,,,,,,,2,,,,,,,,,,,,,,325.89700000107405,,response,,,,1,B,,,,,,Space,keypress(Space),,,,lyrical,,,,--- ---- ------ --- ------- ---------- ------- ----------<br>--- --------- --- ----------- ------- ----- ------- ---<br>--------- ---- -- --- ---- -- --------- -- ---- -------<br>of --------- ------ --- ----- ------ ---- --- --------- --<br>------ - ---- -- --- ----------- ------- ---- ----- -----<br>--- -------- - ------ ---- -- ----- ---- --- --- -----------<br>-- -------,242066.10999999975,242065.77000000107,241705.702,241721.26500000013,241739.873,242072.09,,26,of
screen,html.Screen,2_3_1_0_1_27,2021-04-24T14:06:49.695Z,,,,,,,,,,,,,,,,,2,,,,,,,,,,,,,,625.6099999897124,,response,,,,1,B,,,,,,Space,keypress(Space),,,,lyrical,,,,--- ---- ------ --- ------- ---------- ------- ----------<br>--- --------- --- ----------- ------- ----- ------- ---<br>--------- ---- -- --- ---- -- --------- -- ---- -------<br>-- intensely ------ --- ----- ------ ---- --- --------- --<br>------ - ---- -- --- ----------- ------- ---- ----- -----<br>--- -------- - ------ ---- -- ----- ---- --- --- -----------<br>-- -------,242698.08499999635,242697.6999999897,242055.528,242066.19499999215,242072.09,242705.584,,27,intensely
screen,html.Screen,2_3_1_0_1_28,2021-04-24T14:06:49.895Z,,,,,,,,,,,,,,,,,2,,,,,,,,,,,,,,192.13099999914994,,response,,,,1,B,,,,,,Space,keypress(Space),,,,lyrical,,,,--- ---- ------ --- ------- ---------- ------- ----------<br>--- --------- --- ----------- ------- ----- ------- ---<br>--------- ---- -- --- ---- -- --------- -- ---- -------<br>-- --------- bright --- ----- ------ ---- --- --------- --<br>------ - ---- -- --- ----------- ------- ---- ----- -----<br>--- -------- - ------ ---- -- ----- ---- --- --- -----------<br>-- -------,242898.09999999125,242897.71499999915,242688.906,242698.16499999433,242705.584,242905.599,,28,bright
screen,html.Screen,2_3_1_0_1_29,2021-04-24T14:06:50.239Z,,,,,,,,,,,,,,,,,2,,,,,,,,,,,,,,335.79099999560276,,response,,,,1,B,,,,,,Space,keypress(Space),,,,lyrical,,,,--- ---- ------ --- ------- ---------- ------- ----------<br>--- --------- --- ----------- ------- ----- ------- ---<br>--------- ---- -- --- ---- -- --------- -- ---- -------<br>-- --------- ------ and ----- ------ ---- --- --------- --<br>------ - ---- -- --- ----------- ------- ---- ----- -----<br>--- -------- - ------ ---- -- ----- ---- --- --- -----------<br>-- -------,243241.75499999546,243241.3899999956,242888.985,242898.17999998922,242905.599,243255.614,,29,and
screen,html.Screen,2_3_1_0_1_30,2021-04-24T14:06:50.544Z,,,,,,,,,,,,,,,,,2,,,,,,,,,,,,,,290.42099999211496,,response,,,,1,B,,,,,,Space,keypress(Space),,,,lyrical,,,,--- ---- ------ --- ------- ---------- ------- ----------<br>--- --------- --- ----------- ------- ----- ------- ---<br>--------- ---- -- --- ---- -- --------- -- ---- -------<br>-- --------- ------ --- white ------ ---- --- --------- --<br>------ - ---- -- --- ----------- ------- ---- ----- -----<br>--- -------- - ------ ---- -- ----- ---- --- --- -----------<br>-- -------,243546.39499999757,243546.03499999212,243238.84,243241.83499999344,243255.614,243555.492,,30,white
screen,html.Screen,2_3_1_0_1_31,2021-04-24T14:06:51.015Z,,,,,,,,,,,,,,,,,2,,,,,,,,,,,,,,461.5029999981343,,response,,,,1,B,,,,,,Space,keypress(Space),,,,lyrical,,,,"--- ---- ------ --- ------- ---------- ------- ----------<br>--- --------- --- ----------- ------- ----- ------- ---<br>--------- ---- -- --- ---- -- --------- -- ---- -------<br>-- --------- ------ --- ----- light"" ---- --- --------- --<br>------ - ---- -- --- ----------- ------- ---- ----- -----<br>--- -------- - ------ ---- -- ----- ---- --- --- -----------<br>-- -------",244017.35499998904,244016.99499999813,243538.9,243546.47499999555,243555.492,244022.14,,31,"light"""
screen,html.Screen,2_3_1_0_1_32,2021-04-24T14:06:51.319Z,,,,,,,,,,,,,,,,,2,,,,,,,,,,,,,,298.904999989667,,response,,,,1,B,,,,,,Space,keypress(Space),,,,lyrical,,,,--- ---- ------ --- ------- ---------- ------- ----------<br>--- --------- --- ----------- ------- ----- ------- ---<br>--------- ---- -- --- ---- -- --------- -- ---- -------<br>-- --------- ------ --- ----- ------ over --- --------- --<br>------ - ---- -- --- ----------- ------- ---- ----- -----<br>--- -------- - ------ ---- -- ----- ---- --- --- -----------<br>-- -------,244321.40499999514,244321.04499998968,244005.553,244017.43500000157,244022.14,244339.87,,32,over
screen,html.Screen,2_3_1_0_1_33,2021-04-24T14:06:51.535Z,,,,,,,,,,,,,,,,,2,,,,,,,,,,,,,,197.40999998955522,,response,,,,1,B,,,,,,Space,keypress(Space),,,,lyrical,,,,--- ---- ------ --- ------- ---------- ------- ----------<br>--- --------- --- ----------- ------- ----- ------- ---<br>--------- ---- -- --- ---- -- --------- -- ---- -------<br>-- --------- ------ --- ----- ------ ---- the --------- --<br>------ - ---- -- --- ----------- ------- ---- ----- -----<br>--- -------- - ------ ---- -- ----- ---- --- --- -----------<br>-- -------,244537.6350000006,244537.27999998955,244305.46,244321.48499999312,244339.87,244555.877,,33,the
screen,html.Screen,2_3_1_0_1_34,2021-04-24T14:06:51.910Z,,,,,,,,,,,,,,,,,2,,,,,,,,,,,,,,356.9979999945208,,response,,,,1,B,,,,,,Space,keypress(Space),,,,lyrical,,,,--- ---- ------ --- ------- ---------- ------- ----------<br>--- --------- --- ----------- ------- ----- ------- ---<br>--------- ---- -- --- ---- -- --------- -- ---- -------<br>-- --------- ------ --- ----- ------ ---- --- sunspots. --<br>------ - ---- -- --- ----------- ------- ---- ----- -----<br>--- -------- - ------ ---- -- ----- ---- --- --- -----------<br>-- -------,244913.2649999956,244912.87499999453,244522.188,244537.719999993,244555.877,244938.837,,34,sunspots.
screen,html.Screen,2_3_1_0_1_35,2021-04-24T14:06:52.231Z,,,,,,,,,,,,,,,,,2,,,,,,,,,,,,,,294.7280000022729,,response,,,,1,B,,,,,,Space,keypress(Space),,,,lyrical,,,,--- ---- ------ --- ------- ---------- ------- ----------<br>--- --------- --- ----------- ------- ----- ------- ---<br>--------- ---- -- --- ---- -- --------- -- ---- -------<br>-- --------- ------ --- ----- ------ ---- --- --------- He<br>------ - ---- -- --- ----------- ------- ---- ----- -----<br>--- -------- - ------ ---- -- ----- ---- --- --- -----------<br>-- -------,245234.1349999915,245233.56500000227,244922.161,244913.35000000254,244938.837,245238.778,,35,He
screen,html.Screen,2_3_1_0_1_36,2021-04-24T14:06:52.615Z,,,,,,,,,,,,,,,,,2,,,,,,,,,,,,,,379.0270000016899,,response,,,,1,B,,,,,,Space,keypress(Space),,,,lyrical,,,,--- ---- ------ --- ------- ---------- ------- ----------<br>--- --------- --- ----------- ------- ----- ------- ---<br>--------- ---- -- --- ---- -- --------- -- ---- -------<br>-- --------- ------ --- ----- ------ ---- --- --------- --<br>jotted - ---- -- --- ----------- ------- ---- ----- -----<br>--- -------- - ------ ---- -- ----- ---- --- --- -----------<br>-- -------,245618.1099999958,245617.80500000168,245222.175,245234.21999999846,245238.778,245622.122,,36,jotted
