sender,sender_type,sender_id,timestamp,meta,,Blues,Classical,Country,Dance,Electronic,Folk,Gospel,Hip-Hop,Jazz,Latin,Musical/Film,New-age,Pop,Prolific_id,Provo_ID,R&B,Rap,Reggae,Religious,Rock,Soul,Swing,Traditional,age,artist_name,correct,correctResponse,distraction,duration,education,ended_on,familiarity,gender,headphone_check_performance,item,list,music_frequency,offensiveness,pleasantness,position_correct,preference,response,response_action,snippet_file,song_name,song_rating,sound,stimulus_1,stimulus_2,stimulus_3,text,time_commit,time_end,time_render,time_run,time_show,time_switch,url,word,word_ID
Prolific ID,html.Form,0,2021-04-24T15:37:33.475Z,"{""labjs_version"":""20.2.2"",""labjs_build"":{""flavor"":""production"",""commit"":""a25486e0c714a0ae2ce03ff94b7bb6896854dcfa""},""location"":""https://run.pavlovia.org/mvasilev/prolific_music_d/"",""userAgent"":""Mozilla/5.0 (Windows NT 10.0; Win64; x64) AppleWebKit/537.36 (KHTML, like Gecko) Chrome/90.0.4430.85 Safari/537.36"",""platform"":""Win32"",""language"":""en-US"",""locale"":""en-US"",""timeZone"":""Europe/London"",""timezoneOffset"":-60,""screen_width"":1536,""screen_height"":864,""scroll_width"":1536,""scroll_height"":674,""window_innerWidth"":1536,""window_innerHeight"":722,""devicePixelRatio"":1.25}",,,,,,,,,,,,,,,5f3bd56999a44d9324b76ddb,,,,,,,,,,,,,,,16125.007999961555,,form submission,,,,,,,,,,,,,,,,,,,,,28473.609999986365,28472.719999961555,12281.047,12291.344999917783,12347.712,28497.273,{},,
Introduction,html.Screen,1_0,2021-04-24T15:37:46.071Z,,,,,,,,,,,,,,,,,,,,,,,,,,,,,,,12567.606999961703,,response,,,,,,,,,,,continue,click button,,,,,,,,,41068.92999995034,41064.879999961704,28413.951,28474.270000006072,28497.273,41130.312,,,
Volume calibration,html.Screen,1_1,2021-04-24T15:38:14.141Z,,,,,,,,,,,,,,,,,,,,,,,,,,,,,,,28003.182999958204,,response,,,,,,,,,,,continue,click button,,,,,,,,,69138.17499997094,69133.4949999582,41063.604,41069.149999995716,41130.312,69146.199,,,
Task instructions,html.Screen,1_2,2021-04-24T15:38:29.536Z,,,,,,,,,,,,,,,,,,,,,,,,,,,,,,,15385.260999969236,,response,,,,,,,,,,,continue,click button,,,,,,,,,84533.01999997348,84531.45999996923,69129.538,69138.35499994457,69146.199,84545.784,,,
Sounds,html.Screen,1_3_0_0,2021-04-24T15:38:33.800Z,,,,,,,,,,,,,,,,,,,,,,,,,,,,,,,4249.930999999997,,timeout,,,,,,,,,2,,,,,,,,I,S,O,,88797.35000000801,88779.033,84529.16,84533.46499998588,84545.784,88795.715,,,
Judgement,html.Screen,1_3_0_1,2021-04-24T15:38:36.690Z,,,,,,,,,,,,,,,,,,,,,,,,,,,,true,2,,2889.56499997605,,response,,,,,,,,,2,,2,click #choice-2,,,,,I,S,O,,91687.71999992896,91685.27999997605,88779.033,88797.95499995816,88795.715,91712.268,,,
Trial,flow.Sequence,1_3_0,2021-04-24T15:38:36.691Z,,,,,,,,,,,,,,,,,,,,,,,,,,,,,,,7139.495999976047,,completion,,,,,,,,,2,,,,,,,,I,S,O,,91688.75500001013,91685.27999997605,84529.16,84533.3549999632,84545.784,91712.268,,,
Sounds,html.Screen,1_3_1_0,2021-04-24T15:38:40.949Z,,,,,,,,,,,,,,,,,,,,,,,,,,,,,,,4249.804000000004,,timeout,,,,,,,,,3,,,,,,,,O,I,S,,95946.46999996621,95945.517,91678.931,91689.04500000644,91712.268,95962.072,,,
Judgement,html.Screen,1_3_1_1,2021-04-24T15:38:42.467Z,,,,,,,,,,,,,,,,,,,,,,,,,,,,true,3,,1499.8579999903886,,response,,,,,,,,,3,,3,click #choice-3,,,,,O,I,S,,97464.1099999426,97461.92999999039,95945.517,95946.68499997351,95962.072,97478.763,,,
Trial,flow.Sequence,1_3_1,2021-04-24T15:38:42.467Z,,,,,,,,,,,,,,,,,,,,,,,,,,,,,,,5749.661999990392,,completion,,,,,,,,,3,,,,,,,,O,I,S,,97464.8149999557,97461.92999999039,91678.931,91688.96499997936,91712.268,97478.763,,,
Sounds,html.Screen,1_3_2_0,2021-04-24T15:38:46.715Z,,,,,,,,,,,,,,,,,,,,,,,,,,,,,,,4249.949999999997,,timeout,,,,,,,,,3,,,,,,,,I,O,S,,101712.86999993026,101711.976,97462.099,97465.25999996811,97478.763,101728.713,,,
Judgement,html.Screen,1_3_2_1,2021-04-24T15:38:47.753Z,,,,,,,,,,,,,,,,,,,,,,,,,,,,true,3,,1019.9120000074472,,response,,,,,,,,,3,,3,click #choice-3,,,,,I,O,S,,102750.2000000095,102748.62500000745,101711.976,101713.14999996684,101728.713,102761.933,,,
Trial,flow.Sequence,1_3_2,2021-04-24T15:38:47.753Z,,,,,,,,,,,,,,,,,,,,,,,,,,,,,,,5269.862000007444,,completion,,,,,,,,,3,,,,,,,,I,O,S,,102750.75499992818,102748.62500000745,97462.099,97465.10999999009,97478.763,102761.933,,,
Sounds,html.Screen,1_3_3_0,2021-04-24T15:38:51.999Z,,,,,,,,,,,,,,,,,,,,,,,,,,,,,,,4249.928,,timeout,,,,,,,,,1,,,,,,,,S,I,O,,106996.27999996301,106995.201,102745.272,102751.13999994937,102761.933,107011.861,,,
Judgement,html.Screen,1_3_3_1,2021-04-24T15:38:53.091Z,,,,,,,,,,,,,,,,,,,,,,,,,,,,true,1,,1074.6590000116557,,response,,,,,,,,,1,,1,click #choice-1,,,,,S,I,O,,108088.64999993239,108086.52000001166,106995.201,106996.4499999769,107011.861,108095.101,,,
Trial,flow.Sequence,1_3_3,2021-04-24T15:38:53.092Z,,,,,,,,,,,,,,,,,,,,,,,,,,,,,,,5324.587000011656,,completion,,,,,,,,,1,,,,,,,,S,I,O,,108089.00999999605,108086.52000001166,102745.272,102750.92999998014,102761.933,108095.101,,,
Sounds,html.Screen,1_3_4_0,2021-04-24T15:38:57.332Z,,,,,,,,,,,,,,,,,,,,,,,,,,,,,,,4249.898000000001,,timeout,,,,,,,,,1,,,,,,,,S,O,I,,112329.50999995228,112328.349,108078.514,108089.37999990303,108095.101,112344.999,,,
Judgement,html.Screen,1_3_4_1,2021-04-24T15:38:58.248Z,,,,,,,,,,,,,,,,,,,,,,,,,,,,true,1,,896.8559999129066,,response,,,,,,,,,1,,1,click #choice-1,,,,,S,O,I,,113245.8649999462,113241.8549999129,112328.349,112329.83499998227,112344.999,113245.002,,,
Trial,flow.Sequence,1_3_4,2021-04-24T15:38:58.249Z,,,,,,,,,,,,,,,,,,,,,,,,,,,,,,,5146.753999912908,,completion,,,,,,,,,1,,,,,,,,S,O,I,,113246.51500000618,113241.8549999129,108078.514,108089.28499999456,108095.101,113245.002,,,
Sounds,html.Screen,1_3_5_0,2021-04-24T15:39:02.482Z,,,,,,,,,,,,,,,,,,,,,,,,,,,,,,,4249.895000000004,,timeout,,,,,,,,,2,,,,,,,,O,S,I,,117479.92999991402,117478.215,113228.713,113246.85999995563,113245.002,117494.897,,,
Judgement,html.Screen,1_3_5_1,2021-04-24T15:39:03.679Z,,,,,,,,,,,,,,,,,,,,,,,,,,,,true,2,,1179.593000004883,,response,,,,,,,,,2,,2,click #choice-2,,,,,O,S,I,,118676.39999999665,118674.49000000488,117478.215,117480.15999991912,117494.897,118678.173,,,
Trial,flow.Sequence,1_3_5,2021-04-24T15:39:03.679Z,,,,,,,,,,,,,,,,,,,,,,,,,,,,,,,5429.488000004887,,completion,,,,,,,,,2,,,,,,,,O,S,I,,118676.82499997318,118674.49000000488,113228.713,113246.76999996882,113245.002,118678.173,,,
Task,flow.Loop,1_3,2021-04-24T15:39:03.685Z,,,,,,,,,,,,,,,,,,,,,,,,,,,,,,,34128.70600000488,,completion,,,1,,,,,,,,,,,,,,,,,,118682.47999995947,118674.49000000488,84529.16,84533.28500001226,84545.784,118678.173,,,
Trap,html.Screen,1_4,2021-04-24T15:39:03.687Z,,,,,,,,,,,,,,,,,,,,,,,,,,,,,,,NaN,,skipped,,,,,,,,,,,,,,,,,,,,,118684.27999992855,118674.49000000488,,118684.05499996152,,118678.173,,,
Thanks,html.Screen,1_5,2021-04-24T15:39:12.387Z,,,,,,,,,,,,,,,,,,,,,,,,,,,,,,,8704.341999946584,,response,,,,,,,,,,,continue,click button,,,,,,,,,127384.17999993544,127382.51499994658,118661.538,118684.47999993805,118678.173,140327.648,,,
Headphone screening,flow.Sequence,1,2021-04-24T15:39:12.387Z,,,,,,,,,,,,,,,,,,,,,,,,,,,,,,,98885.24199994658,,completion,,,,,,,,,,,,,,,,,,,,,127384.62999998592,127382.51499994658,28413.951,28474.14999990724,28497.273,140327.648,,,
Instructions,html.Page,2_0,2021-04-24T15:39:44.778Z,,,,,,,,,,,,,,,,,,,,,,,,,,,,,,,19447.446999931766,,form submission,,,,,,,,,,,,,,,,,,,,,159775.44999995735,159775.09499993175,140194.317,140266.42999995966,140327.648,159810.435,,,
Holding screen,html.Screen,2_1_0_0,2021-04-24T15:39:54.798Z,,,,,,,,,,,,,,,,,,,,,,,,,,,,,,,10016.417000000016,,timeout,,,,,,,,,,,,,,,,,,,,,169795.3549999511,169793.511,159760.45,159775.69999999832,159810.435,169826.852,,,
screen,html.Screen,2_1_0_1_0,2021-04-24T15:39:55.801Z,,,,,,,,,,,,,,,,,53,,,,,,,,,,,,,,967.7079999511479,,response,,,,99,,,,,,,Space,keypress(Space),,,,,,,,When -- ----- -- ------ - ------- --- ----------<br>------------- ------ ------ ---- ---- ------- ----- -- ----<br>-------- ------- -- ---------- --- - --- ----- ----- ----<br>---- --- --- ----- --- ---- ---- ------- ----- ---- -------<br>--- --- -- ----- -- --- ---- -- --- ---- -- ------ ------<br>--- ----- -- ----,170797.9949999135,170794.55999995116,169793.511,169795.80500000156,169826.852,170810.12,,0,When
screen,html.Screen,2_1_0_1_1,2021-04-24T15:39:56.442Z,,,,,,,,,,,,,,,,,53,,,,,,,,,,,,,,628.8349999032216,,response,,,,99,,,,,,,Space,keypress(Space),,,,,,,,---- it ----- -- ------ - ------- --- ----------<br>------------- ------ ------ ---- ---- ------- ----- -- ----<br>-------- ------- -- ---------- --- - --- ----- ----- ----<br>---- --- --- ----- --- ---- ---- ------- ----- ---- -------<br>--- --- -- ----- -- --- ---- -- --- ---- -- ------ ------<br>--- ----- -- ----,171439.79500001296,171438.95499990322,170793.515,170798.23499999475,170810.12,171443.462,,1,it
screen,html.Screen,2_1_0_1_2,2021-04-24T15:39:56.916Z,,,,,,,,,,,,,,,,,53,,,,,,,,,,,,,,469.15299992106156,,response,,,,99,,,,,,,Space,keypress(Space),,,,,,,,---- -- comes -- ------ - ------- --- ----------<br>------------- ------ ------ ---- ---- ------- ----- -- ----<br>-------- ------- -- ---------- --- - --- ----- ----- ----<br>---- --- --- ----- --- ---- ---- ------- ----- ---- -------<br>--- --- -- ----- -- --- ---- -- --- ---- -- ------ ------<br>--- ----- -- ----,171913.53999997955,171912.61499992106,171426.849,171440.0049999822,171443.462,171927.28,,2,comes
screen,html.Screen,2_1_0_1_3,2021-04-24T15:39:57.405Z,,,,,,,,,,,,,,,,,53,,,,,,,,,,,,,,474.0749999799591,,response,,,,99,,,,,,,Space,keypress(Space),,,,,,,,---- -- ----- to ------ - ------- --- ----------<br>------------- ------ ------ ---- ---- ------- ----- -- ----<br>-------- ------- -- ---------- --- - --- ----- ----- ----<br>---- --- --- ----- --- ---- ---- ------- ----- ---- -------<br>--- --- -- ----- -- --- ---- -- --- ---- -- ------ ------<br>--- ----- -- ----,172402.1949999733,172401.35499997996,171910.107,171913.7449999107,171927.28,172410.051,,3,to
screen,html.Screen,2_1_0_1_4,2021-04-24T15:39:57.896Z,,,,,,,,,,,,,,,,,53,,,,,,,,,,,,,,482.6639999653853,,response,,,,99,,,,,,,Space,keypress(Space),,,,,,,,---- -- ----- -- having - ------- --- ----------<br>------------- ------ ------ ---- ---- ------- ----- -- ----<br>-------- ------- -- ---------- --- - --- ----- ----- ----<br>---- --- --- ----- --- ---- ---- ------- ----- ---- -------<br>--- --- -- ----- -- --- ---- -- --- ---- -- ------ ------<br>--- ----- -- ----,172893.5749999946,172892.7149999654,172393.406,172402.49000000767,172410.051,172910.161,,4,having
screen,html.Screen,2_1_0_1_5,2021-04-24T15:39:58.385Z,,,,,,,,,,,,,,,,,53,,,,,,,,,,,,,,471.2339999166725,,response,,,,99,,,,,,,Space,keypress(Space),,,,,,,,---- -- ----- -- ------ a ------- --- ----------<br>------------- ------ ------ ---- ---- ------- ----- -- ----<br>-------- ------- -- ---------- --- - --- ----- ----- ----<br>---- --- --- ----- --- ---- ---- ------- ----- ---- -------<br>--- --- -- ----- -- --- ---- -- --- ---- -- ------ ------<br>--- ----- -- ----,173382.16999999713,173381.39499991667,172893.415,172893.78499996383,172910.161,173393.346,,5,a
screen,html.Screen,2_1_0_1_6,2021-04-24T15:39:58.978Z,,,,,,,,,,,,,,,,,53,,,,,,,,,,,,,,581.0889999819046,,response,,,,99,,,,,,,Space,keypress(Space),,,,,,,,---- -- ----- -- ------ - lasting --- ----------<br>------------- ------ ------ ---- ---- ------- ----- -- ----<br>-------- ------- -- ---------- --- - --- ----- ----- ----<br>---- --- --- ----- --- ---- ---- ------- ----- ---- -------<br>--- --- -- ----- -- --- ---- -- --- ---- -- ------ ------<br>--- ----- -- ----,173975.37499992177,173974.4349999819,173377.132,173382.37999996636,173393.346,173993.994,,6,lasting
screen,html.Screen,2_1_0_1_7,2021-04-24T15:39:59.659Z,,,,,,,,,,,,,,,,,53,,,,,,,,,,,,,,661.0059999115183,,response,,,,99,,,,,,,Space,keypress(Space),,,,,,,,---- -- ----- -- ------ - ------- and ----------<br>------------- ------ ------ ---- ---- ------- ----- -- ----<br>-------- ------- -- ---------- --- - --- ----- ----- ----<br>---- --- --- ----- --- ---- ---- ------- ----- ---- -------<br>--- --- -- ----- -- --- ---- -- --- ---- -- ------ ------<br>--- ----- -- ----,174655.8799999766,174654.99999991152,173960.016,173975.5550000118,173993.994,174660.017,,7,and
screen,html.Screen,2_1_0_1_8,2021-04-24T15:40:00.242Z,,,,,,,,,,,,,,,,,53,,,,,,,,,,,,,,578.0829999586567,,response,,,,99,,,,,,,Space,keypress(Space),,,,,,,,---- -- ----- -- ------ - ------- --- fulfilling<br>------------- ------ ------ ---- ---- ------- ----- -- ----<br>-------- ------- -- ---------- --- - --- ----- ----- ----<br>---- --- --- ----- --- ---- ---- ------- ----- ---- -------<br>--- --- -- ----- -- --- ---- -- --- ---- -- ------ ------<br>--- ----- -- ----,175239.00499998126,175238.09999995865,174643.673,174656.0349999927,174660.017,175243.334,,8,fulfilling
screen,html.Screen,2_1_0_1_9,2021-04-24T15:40:00.745Z,,,,,,,,,,,,,,,,,53,,,,,,,,,,,,,,498.44599992388976,,response,,,,99,,,,,,,Space,keypress(Space),,,,,,,,"---- -- ----- -- ------ - ------- --- ----------<br>relationship, ------ ------ ---- ---- ------- ----- -- ----<br>-------- ------- -- ---------- --- - --- ----- ----- ----<br>---- --- --- ----- --- ---- ---- ------- ----- ---- -------<br>--- --- -- ----- -- --- ---- -- --- ---- -- ------ ------<br>--- ----- -- ----",175742.67999990843,175741.7799999239,175226.706,175239.21999998856,175243.334,175760.058,,9,"relationship,"
screen,html.Screen,2_1_0_1_10,2021-04-24T15:40:01.189Z,,,,,,,,,,,,,,,,,53,,,,,,,,,,,,,,425.8169999664824,,response,,,,99,,,,,,,Space,keypress(Space),,,,,,,,---- -- ----- -- ------ - ------- --- ----------<br>------------- common ------ ---- ---- ------- ----- -- ----<br>-------- ------- -- ---------- --- - --- ----- ----- ----<br>---- --- --- ----- --- ---- ---- ------- ----- ---- -------<br>--- --- -- ----- -- --- ---- -- --- ---- -- ------ ------<br>--- ----- -- ----,176186.7599999532,176185.87499996647,175743.376,175742.84500000067,175760.058,176193.271,,10,common
screen,html.Screen,2_1_0_1_11,2021-04-24T15:40:01.736Z,,,,,,,,,,,,,,,,,53,,,,,,,,,,,,,,538.7190000002156,,response,,,,99,,,,,,,Space,keypress(Space),,,,,,,,---- -- ----- -- ------ - ------- --- ----------<br>------------- ------ wisdom ---- ---- ------- ----- -- ----<br>-------- ------- -- ---------- --- - --- ----- ----- ----<br>---- --- --- ----- --- ---- ---- ------- ----- ---- -------<br>--- --- -- ----- -- --- ---- -- --- ---- -- ------ ------<br>--- ----- -- ----,176732.91999998037,176731.99000000022,176176.663,176186.95000000298,176193.271,176743.236,,11,wisdom
screen,html.Screen,2_1_0_1_12,2021-04-24T15:40:02.382Z,,,,,,,,,,,,,,,,,53,,,,,,,,,,,,,,634.6690000011877,,response,,,,99,,,,,,,Space,keypress(Space),,,,,,,,---- -- ----- -- ------ - ------- --- ----------<br>------------- ------ ------ says ---- ------- ----- -- ----<br>-------- ------- -- ---------- --- - --- ----- ----- ----<br>---- --- --- ----- --- ---- ---- ------- ----- ---- -------<br>--- --- -- ----- -- --- ---- -- --- ---- -- ------ ------<br>--- ----- -- ----,177379.50499996077,177377.9050000012,176726.638,176733.1299999496,176743.236,177393.314,,12,says
screen,html.Screen,2_1_0_1_13,2021-04-24T15:40:02.870Z,,,,,,,,,,,,,,,,,53,,,,,,,,,,,,,,471.7509999035392,,response,,,,99,,,,,,,Space,keypress(Space),,,,,,,,---- -- ----- -- ------ - ------- --- ----------<br>------------- ------ ------ ---- that ------- ----- -- ----<br>-------- ------- -- ---------- --- - --- ----- ----- ----<br>---- --- --- ----- --- ---- ---- ------- ----- ---- -------<br>--- --- -- ----- -- --- ---- -- --- ---- -- ------ ------<br>--- ----- -- ----,177867.5949999597,177865.06499990355,177376.613,177379.6699999366,177393.314,177876.701,,13,that
screen,html.Screen,2_1_0_1_14,2021-04-24T15:40:03.422Z,,,,,,,,,,,,,,,,,53,,,,,,,,,,,,,,541.578999983496,,response,,,,99,,,,,,,Space,keypress(Space),,,,,,,,---- -- ----- -- ------ - ------- --- ----------<br>------------- ------ ------ ---- ---- feeling ----- -- ----<br>-------- ------- -- ---------- --- - --- ----- ----- ----<br>---- --- --- ----- --- ---- ---- ------- ----- ---- -------<br>--- --- -- ----- -- --- ---- -- --- ---- -- ------ ------<br>--- ----- -- ----,178419.4000000134,178418.2799999835,177859.965,177868.93499991857,177876.701,178427.068,,14,feeling
screen,html.Screen,2_1_0_1_15,2021-04-24T15:40:03.898Z,,,,,,,,,,,,,,,,,53,,,,,,,,,,,,,,465.3819999266125,,response,,,,99,,,,,,,Space,keypress(Space),,,,,,,,---- -- ----- -- ------ - ------- --- ----------<br>------------- ------ ------ ---- ---- ------- close -- ----<br>-------- ------- -- ---------- --- - --- ----- ----- ----<br>---- --- --- ----- --- ---- ---- ------- ----- ---- -------<br>--- --- -- ----- -- --- ---- -- --- ---- -- ------ ------<br>--- ----- -- ----,178894.91999999154,178892.4499999266,178410.026,178419.5549999131,178427.068,178910.191,,15,close
screen,html.Screen,2_1_0_1_16,2021-04-24T15:40:04.287Z,,,,,,,,,,,,,,,,,53,,,,,,,,,,,,,,373.2489999119425,,response,,,,99,,,,,,,Space,keypress(Space),,,,,,,,---- -- ----- -- ------ - ------- --- ----------<br>------------- ------ ------ ---- ---- ------- ----- to ----<br>-------- ------- -- ---------- --- - --- ----- ----- ----<br>---- --- --- ----- --- ---- ---- ------- ----- ---- -------<br>--- --- -- ----- -- --- ---- -- --- ---- -- ------ ------<br>--- ----- -- ----,179284.31499993894,179283.43999991193,178893.378,178896.78999991156,178910.191,179293.203,,16,to
screen,html.Screen,2_1_0_1_17,2021-04-24T15:40:04.697Z,,,,,,,,,,,,,,,,,53,,,,,,,,,,,,,,399.7269999028358,,response,,,,99,,,,,,,Space,keypress(Space),,,,,,,,---- -- ----- -- ------ - ------- --- ----------<br>------------- ------ ------ ---- ---- ------- ----- -- your<br>-------- ------- -- ---------- --- - --- ----- ----- ----<br>---- --- --- ----- --- ---- ---- ------- ----- ---- -------<br>--- --- -- ----- -- --- ---- -- --- ---- -- ------ ------<br>--- ----- -- ----,179693.90999991447,179692.92999990284,179276.781,179284.48499995284,179293.203,179709.931,,17,your
screen,html.Screen,2_1_0_1_18,2021-04-24T15:40:05.092Z,,,,,,,,,,,,,,,,,53,,,,,,,,,,,,,,378.70899997264496,,response,,,,99,,,,,,,Space,keypress(Space),,,,,,,,---- -- ----- -- ------ - ------- --- ----------<br>------------- ------ ------ ---- ---- ------- ----- -- ----<br>romantic ------- -- ---------- --- - --- ----- ----- ----<br>---- --- --- ----- --- ---- ---- ------- ----- ---- -------<br>--- --- -- ----- -- --- ---- -- --- ---- -- ------ ------<br>--- ----- -- ----,180089.4599999301,180088.63999997266,179693.276,179694.17999999132,179709.931,180093.241,,18,romantic
screen,html.Screen,2_1_0_1_19,2021-04-24T15:40:05.506Z,,,,,,,,,,,,,,,,,53,,,,,,,,,,,,,,408.8989999968617,,response,,,,99,,,,,,,Space,keypress(Space),,,,,,,,---- -- ----- -- ------ - ------- --- ----------<br>------------- ------ ------ ---- ---- ------- ----- -- ----<br>-------- partner -- ---------- --- - --- ----- ----- ----<br>---- --- --- ----- --- ---- ---- ------- ----- ---- -------<br>--- --- -- ----- -- --- ---- -- --- ---- -- ------ ------<br>--- ----- -- ----,180502.90999992285,180502.13999999687,180076.554,180089.76000000257,180093.241,180509.796,,19,partner
screen,html.Screen,2_1_0_1_20,2021-04-24T15:40:05.973Z,,,,,,,,,,,,,,,,,53,,,,,,,,,,,,,,459.87899994206964,,response,,,,99,,,,,,,Space,keypress(Space),,,,,,,,---- -- ----- -- ------ - ------- --- ----------<br>------------- ------ ------ ---- ---- ------- ----- -- ----<br>-------- ------- is ---------- --- - --- ----- ----- ----<br>---- --- --- ----- --- ---- ---- ------- ----- ---- -------<br>--- --- -- ----- -- --- ---- -- --- ---- -- ------ ------<br>--- ----- -- ----,180970.56499996688,180969.67499994207,180493.257,180503.12499993015,180509.796,180976.503,,20,is
screen,html.Screen,2_1_0_1_21,2021-04-24T15:40:06.403Z,,,,,,,,,,,,,,,,,53,,,,,,,,,,,,,,423.3819999625266,,response,,,,99,,,,,,,Space,keypress(Space),,,,,,,,---- -- ----- -- ------ - ------- --- ----------<br>------------- ------ ------ ---- ---- ------- ----- -- ----<br>-------- ------- -- paramount. --- - --- ----- ----- ----<br>---- --- --- ----- --- ---- ---- ------- ----- ---- -------<br>--- --- -- ----- -- --- ---- -- --- ---- -- ------ ------<br>--- ----- -- ----,181400.7649999112,181399.88499996252,180959.894,180970.80499993172,180976.503,181409.815,,21,paramount.
screen,html.Screen,2_1_0_1_22,2021-04-24T15:40:07.224Z,,,,,,,,,,,,,,,,,53,,,,,,,,,,,,,,809.2949999472476,,response,,,,99,,,,,,,Space,keypress(Space),,,,,,,,---- -- ----- -- ------ - ------- --- ----------<br>------------- ------ ------ ---- ---- ------- ----- -- ----<br>-------- ------- -- ---------- But - --- ----- ----- ----<br>---- --- --- ----- --- ---- ---- ------- ----- ---- -------<br>--- --- -- ----- -- --- ---- -- --- ---- -- ------ ------<br>--- ----- -- ----,182221.54999990016,182219.10999994725,181393.191,181400.99999995437,181409.815,182226.49,,22,But
screen,html.Screen,2_1_0_1_23,2021-04-24T15:40:07.689Z,,,,,,,,,,,,,,,,,53,,,,,,,,,,,,,,458.71999990870245,,response,,,,99,,,,,,,Space,keypress(Space),,,,,,,,---- -- ----- -- ------ - ------- --- ----------<br>------------- ------ ------ ---- ---- ------- ----- -- ----<br>-------- ------- -- ---------- --- a --- ----- ----- ----<br>---- --- --- ----- --- ---- ---- ------- ----- ---- -------<br>--- --- -- ----- -- --- ---- -- --- ---- -- ------ ------<br>--- ----- -- ----,182686.1749999225,182685.2099999087,182209.814,182221.78499994334,182226.49,182693.13,,23,a
screen,html.Screen,2_1_0_1_24,2021-04-24T15:40:08.148Z,,,,,,,,,,,,,,,,,53,,,,,,,,,,,,,,451.90999997395556,,response,,,,99,,,,,,,Space,keypress(Space),,,,,,,,---- -- ----- -- ------ - ------- --- ----------<br>------------- ------ ------ ---- ---- ------- ----- -- ----<br>-------- ------- -- ---------- --- - new ----- ----- ----<br>---- --- --- ----- --- ---- ---- ------- ----- ---- -------<br>--- --- -- ----- -- --- ---- -- --- ---- -- ------ ------<br>--- ----- -- ----,183145.9699999541,183145.03999997396,182676.494,182686.3949999679,182693.13,183159.83,,24,new
screen,html.Screen,2_1_0_1_25,2021-04-24T15:40:08.620Z,,,,,,,,,,,,,,,,,53,,,,,,,,,,,,,,456.24999994886457,,response,,,,99,,,,,,,Space,keypress(Space),,,,,,,,---- -- ----- -- ------ - ------- --- ----------<br>------------- ------ ------ ---- ---- ------- ----- -- ----<br>-------- ------- -- ---------- --- - --- study ----- ----<br>---- --- --- ----- --- ---- ---- ------- ----- ---- -------<br>--- --- -- ----- -- --- ---- -- --- ---- -- ------ ------<br>--- ----- -- ----,183617.01499996707,183616.07999994885,183143.134,183146.1849999614,183159.83,183626.401,,25,study
screen,html.Screen,2_1_0_1_26,2021-04-24T15:40:09.203Z,,,,,,,,,,,,,,,,,53,,,,,,,,,,,,,,573.3539999505156,,response,,,,99,,,,,,,Space,keypress(Space),,,,,,,,---- -- ----- -- ------ - ------- --- ----------<br>------------- ------ ------ ---- ---- ------- ----- -- ----<br>-------- ------- -- ---------- --- - --- ----- finds ----<br>---- --- --- ----- --- ---- ---- ------- ----- ---- -------<br>--- --- -- ----- -- --- ---- -- --- ---- -- ------ ------<br>--- ----- -- ----,184200.6650000112,184199.75499995053,183609.851,183617.26500000805,183626.401,184209.737,,26,finds
screen,html.Screen,2_1_0_1_27,2021-04-24T15:40:09.613Z,,,,,,,,,,,,,,,,,53,,,,,,,,,,,,,,399.62799992386135,,response,,,,99,,,,,,,Space,keypress(Space),,,,,,,,---- -- ----- -- ------ - ------- --- ----------<br>------------- ------ ------ ---- ---- ------- ----- -- ----<br>-------- ------- -- ---------- --- - --- ----- ----- that<br>---- --- --- ----- --- ---- ---- ------- ----- ---- -------<br>--- --- -- ----- -- --- ---- -- --- ---- -- ------ ------<br>--- ----- -- ----,184610.22499995306,184609.36499992386,184193.13,184200.8799999021,184209.737,184626.453,,27,that
screen,html.Screen,2_1_0_1_28,2021-04-24T15:40:09.974Z,,,,,,,,,,,,,,,,,53,,,,,,,,,,,,,,344.44699995659175,,response,,,,99,,,,,,,Space,keypress(Space),,,,,,,,---- -- ----- -- ------ - ------- --- ----------<br>------------- ------ ------ ---- ---- ------- ----- -- ----<br>-------- ------- -- ---------- --- - --- ----- ----- ----<br>it's --- --- ----- --- ---- ---- ------- ----- ---- -------<br>--- --- -- ----- -- --- ---- -- --- ---- -- ------ ------<br>--- ----- -- ----,184971.93499992136,184970.8999999566,184609.785,184610.42499996256,184626.453,184976.413,,28,it's
screen,html.Screen,2_1_0_1_29,2021-04-24T15:40:10.376Z,,,,,,,,,,,,,,,,,53,,,,,,,,,,,,,,395.96699995704694,,response,,,,99,,,,,,,Space,keypress(Space),,,,,,,,---- -- ----- -- ------ - ------- --- ----------<br>------------- ------ ------ ---- ---- ------- ----- -- ----<br>-------- ------- -- ---------- --- - --- ----- ----- ----<br>---- not --- ----- --- ---- ---- ------- ----- ---- -------<br>--- --- -- ----- -- --- ---- -- --- ---- -- ------ ------<br>--- ----- -- ----,185373.28499997966,185372.37999995705,184959.742,184972.1600000048,184976.413,185376.423,,29,not
screen,html.Screen,2_1_0_1_30,2021-04-24T15:40:10.734Z,,,,,,,,,,,,,,,,,53,,,,,,,,,,,,,,354.31199999008095,,response,,,,99,,,,,,,Space,keypress(Space),,,,,,,,---- -- ----- -- ------ - ------- --- ----------<br>------------- ------ ------ ---- ---- ------- ----- -- ----<br>-------- ------- -- ---------- --- - --- ----- ----- ----<br>---- --- how ----- --- ---- ---- ------- ----- ---- -------<br>--- --- -- ----- -- --- ---- -- --- ---- -- ------ ------<br>--- ----- -- ----,185731.67999996804,185730.7349999901,185359.752,185373.48999991082,185376.423,185743.188,,30,how
screen,html.Screen,2_1_0_1_31,2021-04-24T15:40:11.127Z,,,,,,,,,,,,,,,,,53,,,,,,,,,,,,,,380.0169999525824,,response,,,,99,,,,,,,Space,keypress(Space),,,,,,,,---- -- ----- -- ------ - ------- --- ----------<br>------------- ------ ------ ---- ---- ------- ----- -- ----<br>-------- ------- -- ---------- --- - --- ----- ----- ----<br>---- --- --- close --- ---- ---- ------- ----- ---- -------<br>--- --- -- ----- -- --- ---- -- --- ---- -- ------ ------<br>--- ----- -- ----,186124.13000001106,186123.20499995258,185726.397,185731.89499997534,185743.188,186126.4,,31,close
screen,html.Screen,2_1_0_1_32,2021-04-24T15:40:11.489Z,,,,,,,,,,,,,,,,,53,,,,,,,,,,,,,,359.38499990981654,,response,,,,99,,,,,,,Space,keypress(Space),,,,,,,,---- -- ----- -- ------ - ------- --- ----------<br>------------- ------ ------ ---- ---- ------- ----- -- ----<br>-------- ------- -- ---------- --- - --- ----- ----- ----<br>---- --- --- ----- you ---- ---- ------- ----- ---- -------<br>--- --- -- ----- -- --- ---- -- --- ---- -- ------ ------<br>--- ----- -- ----,186486.75999999978,186485.7849999098,186109.739,186124.34999994002,186126.4,186493.004,,32,you
screen,html.Screen,2_1_0_1_33,2021-04-24T15:40:11.870Z,,,,,,,,,,,,,,,,,53,,,,,,,,,,,,,,373.31599991369876,,response,,,,99,,,,,,,Space,keypress(Space),,,,,,,,---- -- ----- -- ------ - ------- --- ----------<br>------------- ------ ------ ---- ---- ------- ----- -- ----<br>-------- ------- -- ---------- --- - --- ----- ----- ----<br>---- --- --- ----- --- feel ---- ------- ----- ---- -------<br>--- --- -- ----- -- --- ---- -- --- ---- -- ------ ------<br>--- ----- -- ----,186867.2699999297,186866.31999991369,186476.378,186487.02000000048,186493.004,186876.69,,33,feel
screen,html.Screen,2_1_0_1_34,2021-04-24T15:40:12.402Z,,,,,,,,,,,,,,,,,53,,,,,,,,,,,,,,495.4499999922118,,response,,,,99,,,,,,,Space,keypress(Space),,,,,,,,---- -- ----- -- ------ - ------- --- ----------<br>------------- ------ ------ ---- ---- ------- ----- -- ----<br>-------- ------- -- ---------- --- - --- ----- ----- ----<br>---- --- --- ----- --- ---- that ------- ----- ---- -------<br>--- --- -- ----- -- --- ---- -- --- ---- -- ------ ------<br>--- ----- -- ----,187399.03999993112,187372.1399999922,186859.718,186867.84500000067,186876.69,187409.705,,34,that
screen,html.Screen,2_1_0_1_35,2021-04-24T15:40:12.877Z,,,,,,,,,,,,,,,,,53,,,,,,,,,,,,,,463.58499990132987,,response,,,,99,,,,,,,Space,keypress(Space),,,,,,,,---- -- ----- -- ------ - ------- --- ----------<br>------------- ------ ------ ---- ---- ------- ----- -- ----<br>-------- ------- -- ---------- --- - --- ----- ----- ----<br>---- --- --- ----- --- ---- ---- matters ----- ---- -------<br>--- --- -- ----- -- --- ---- -- --- ---- -- ------ ------<br>--- ----- -- ----,187874.28499991074,187873.28999990132,187393.019,187399.26999993622,187409.705,187893.044,,35,matters
screen,html.Screen,2_1_0_1_36,2021-04-24T15:40:13.518Z,,,,,,,,,,,,,,,,,53,,,,,,,,,,,,,,621.1159999042284,,response,,,,99,,,,,,,Space,keypress(Space),,,,,,,,"---- -- ----- -- ------ - ------- --- ----------<br>------------- ------ ------ ---- ---- ------- ----- -- ----<br>-------- ------- -- ---------- --- - --- ----- ----- ----<br>---- --- --- ----- --- ---- ---- ------- most, ---- -------<br>--- --- -- ----- -- --- ---- -- --- ---- -- ------ ------<br>--- ----- -- ----",188515.04500000738,188514.15999990422,187876.336,187875.8599999128,187893.044,188526.349,,36,"most,"
screen,html.Screen,2_1_0_1_37,2021-04-24T15:40:13.980Z,,,,,,,,,,,,,,,,,53,,,,,,,,,,,,,,450.07099996268516,,response,,,,99,,,,,,,Space,keypress(Space),,,,,,,,---- -- ----- -- ------ - ------- --- ----------<br>------------- ------ ------ ---- ---- ------- ----- -- ----<br>-------- ------- -- ---------- --- - --- ----- ----- ----<br>---- --- --- ----- --- ---- ---- ------- ----- it's -------<br>--- --- -- ----- -- --- ---- -- --- ---- -- ------ ------<br>--- ----- -- ----,188977.32499998529,188976.41999996267,188509.654,188515.24499990046,188526.349,188993.022,,37,it's
screen,html.Screen,2_1_0_1_38,2021-04-24T15:40:14.534Z,,,,,,,,,,,,,,,,,53,,,,,,,,,,,,,,536.9029999225168,,response,,,,99,,,,,,,Space,keypress(Space),,,,,,,,---- -- ----- -- ------ - ------- --- ----------<br>------------- ------ ------ ---- ---- ------- ----- -- ----<br>-------- ------- -- ---------- --- - --- ----- ----- ----<br>---- --- --- ----- --- ---- ---- ------- ----- ---- whether<br>--- --- -- ----- -- --- ---- -- --- ---- -- ------ ------<br>--- ----- -- ----,189531.0649999883,189529.9249999225,188976.299,188977.50999999698,188993.022,189542.993,,38,whether
screen,html.Screen,2_1_0_1_39,2021-04-24T15:40:14.866Z,,,,,,,,,,,,,,,,,53,,,,,,,,,,,,,,319.91699990889174,,response,,,,99,,,,,,,Space,keypress(Space),,,,,,,,---- -- ----- -- ------ - ------- --- ----------<br>------------- ------ ------ ---- ---- ------- ----- -- ----<br>-------- ------- -- ---------- --- - --- ----- ----- ----<br>---- --- --- ----- --- ---- ---- ------- ----- ---- -------<br>you --- -- ----- -- --- ---- -- --- ---- -- ------ ------<br>--- ----- -- ----,189863.72999998275,189862.90999990888,189526.318,189531.26999991946,189542.993,189876.296,,39,you
screen,html.Screen,2_1_0_1_40,2021-04-24T15:40:15.198Z,,,,,,,,,,,,,,,,,53,,,,,,,,,,,,,,312.04399999332963,,response,,,,99,,,,,,,Space,keypress(Space),,,,,,,,---- -- ----- -- ------ - ------- --- ----------<br>------------- ------ ------ ---- ---- ------- ----- -- ----<br>-------- ------- -- ---------- --- - --- ----- ----- ----<br>---- --- --- ----- --- ---- ---- ------- ----- ---- -------<br>--- are -- ----- -- --- ---- -- --- ---- -- ------ ------<br>--- ----- -- ----,190195.97499992233,190188.33999999333,189859.63,189863.9049999183,189876.296,190209.628,,40,are
screen,html.Screen,2_1_0_1_41,2021-04-24T15:40:15.534Z,,,,,,,,,,,,,,,,,53,,,,,,,,,,,,,,320.5819999971718,,response,,,,99,,,,,,,Space,keypress(Space),,,,,,,,---- -- ----- -- ------ - ------- --- ----------<br>------------- ------ ------ ---- ---- ------- ----- -- ----<br>-------- ------- -- ---------- --- - --- ----- ----- ----<br>---- --- --- ----- --- ---- ---- ------- ----- ---- -------<br>--- --- as ----- -- --- ---- -- --- ---- -- ------ ------<br>--- ----- -- ----,190531.10499994364,190530.20999999717,190192.95,190196.15999993403,190209.628,190542.926,,41,as
screen,html.Screen,2_1_0_1_42,2021-04-24T15:40:15.844Z,,,,,,,,,,,,,,,,,53,,,,,,,,,,,,,,297.2539999410219,,response,,,,99,,,,,,,Space,keypress(Space),,,,,,,,---- -- ----- -- ------ - ------- --- ----------<br>------------- ------ ------ ---- ---- ------- ----- -- ----<br>-------- ------- -- ---------- --- - --- ----- ----- ----<br>---- --- --- ----- --- ---- ---- ------- ----- ---- -------<br>--- --- -- close -- --- ---- -- --- ---- -- ------ ------<br>--- ----- -- ----,190841.0000000149,190840.17999994103,190526.284,190531.28499991726,190542.926,190842.911,,42,close
screen,html.Screen,2_1_0_1_43,2021-04-24T15:40:16.239Z,,,,,,,,,,,,,,,,,53,,,,,,,,,,,,,,392.7289999698696,,response,,,,99,,,,,,,Space,keypress(Space),,,,,,,,---- -- ----- -- ------ - ------- --- ----------<br>------------- ------ ------ ---- ---- ------- ----- -- ----<br>-------- ------- -- ---------- --- - --- ----- ----- ----<br>---- --- --- ----- --- ---- ---- ------- ----- ---- -------<br>--- --- -- ----- as --- ---- -- --- ---- -- ------ ------<br>--- ----- -- ----,191236.83999991044,191235.63999996986,190826.259,190841.17499995045,190842.911,191242.862,,43,as
screen,html.Screen,2_1_0_1_44,2021-04-24T15:40:16.758Z,,,,,,,,,,,,,,,,,53,,,,,,,,,,,,,,511.19799994837376,,response,,,,99,,,,,,,Space,keypress(Space),,,,,,,,---- -- ----- -- ------ - ------- --- ----------<br>------------- ------ ------ ---- ---- ------- ----- -- ----<br>-------- ------- -- ---------- --- - --- ----- ----- ----<br>---- --- --- ----- --- ---- ---- ------- ----- ---- -------<br>--- --- -- ----- -- you ---- -- --- ---- -- ------ ------<br>--- ----- -- ----,191755.12499990873,191754.05999994837,191226.236,191236.9999999646,191242.862,191759.563,,44,you
screen,html.Screen,2_1_0_1_45,2021-04-24T15:40:17.159Z,,,,,,,,,,,,,,,,,53,,,,,,,,,,,,,,396.17699995831936,,response,,,,99,,,,,,,Space,keypress(Space),,,,,,,,---- -- ----- -- ------ - ------- --- ----------<br>------------- ------ ------ ---- ---- ------- ----- -- ----<br>-------- ------- -- ---------- --- - --- ----- ----- ----<br>---- --- --- ----- --- ---- ---- ------- ----- ---- -------<br>--- --- -- ----- -- --- want -- --- ---- -- ------ ------<br>--- ----- -- ----,192156.5549999941,192155.7399999583,191742.913,191757.09999992978,191759.563,192159.552,,45,want
screen,html.Screen,2_1_0_1_46,2021-04-24T15:40:17.516Z,,,,,,,,,,,,,,,,,53,,,,,,,,,,,,,,353.4579999951238,,response,,,,99,,,,,,,Space,keypress(Space),,,,,,,,---- -- ----- -- ------ - ------- --- ----------<br>------------- ------ ------ ---- ---- ------- ----- -- ----<br>-------- ------- -- ---------- --- - --- ----- ----- ----<br>---- --- --- ----- --- ---- ---- ------- ----- ---- -------<br>--- --- -- ----- -- --- ---- to --- ---- -- ------ ------<br>--- ----- -- ----,192513.90999997966,192513.00999999512,192142.88,192156.76499996334,192159.552,192526.22,,46,to
screen,html.Screen,2_1_0_1_47,2021-04-24T15:40:17.875Z,,,,,,,,,,,,,,,,,53,,,,,,,,,,,,,,344.9599999000493,,response,,,,99,,,,,,,Space,keypress(Space),,,,,,,,"---- -- ----- -- ------ - ------- --- ----------<br>------------- ------ ------ ---- ---- ------- ----- -- ----<br>-------- ------- -- ---------- --- - --- ----- ----- ----<br>---- --- --- ----- --- ---- ---- ------- ----- ---- -------<br>--- --- -- ----- -- --- ---- -- be, ---- -- ------ ------<br>--- ----- -- ----",192872.15999991167,192871.17999990005,192509.545,192514.0849999152,192526.22,192876.18,,47,"be,"
screen,html.Screen,2_1_0_1_48,2021-04-24T15:40:18.258Z,,,,,,,,,,,,,,,,,53,,,,,,,,,,,,,,378.4199999856646,,response,,,,99,,,,,,,Space,keypress(Space),,,,,,,,---- -- ----- -- ------ - ------- --- ----------<br>------------- ------ ------ ---- ---- ------- ----- -- ----<br>-------- ------- -- ---------- --- - --- ----- ----- ----<br>---- --- --- ----- --- ---- ---- ------- ----- ---- -------<br>--- --- -- ----- -- --- ---- -- --- even -- ------ ------<br>--- ----- -- ----,193255.6399999885,193254.59999998566,192859.515,192872.34499992337,192876.18,193259.501,,48,even
screen,html.Screen,2_1_0_1_49,2021-04-24T15:40:18.654Z,,,,,,,,,,,,,,,,,53,,,,,,,,,,,,,,391.01899990829406,,response,,,,99,,,,,,,Space,keypress(Space),,,,,,,,---- -- ----- -- ------ - ------- --- ----------<br>------------- ------ ------ ---- ---- ------- ----- -- ----<br>-------- ------- -- ---------- --- - --- ----- ----- ----<br>---- --- --- ----- --- ---- ---- ------- ----- ---- -------<br>--- --- -- ----- -- --- ---- -- --- ---- if ------ ------<br>--- ----- -- ----,193651.4249999309,193650.51999990828,193242.852,193255.81000000238,193259.501,193659.653,,49,if
screen,html.Screen,2_1_0_1_50,2021-04-24T15:40:18.997Z,,,,,,,,,,,,,,,,,53,,,,,,,,,,,,,,333.64199993474176,,response,,,,99,,,,,,,Space,keypress(Space),,,,,,,,---- -- ----- -- ------ - ------- --- ----------<br>------------- ------ ------ ---- ---- ------- ----- -- ----<br>-------- ------- -- ---------- --- - --- ----- ----- ----<br>---- --- --- ----- --- ---- ---- ------- ----- ---- -------<br>--- --- -- ----- -- --- ---- -- --- ---- -- that's ------<br>--- ----- -- ----,193994.10999997053,193993.29499993473,193642.876,193651.59999998286,193659.653,194009.516,,50,that's
screen,html.Screen,2_1_0_1_51,2021-04-24T15:40:19.486Z,,,,,,,,,,,,,,,,,53,,,,,,,,,,,,,,473.0039999613655,,response,,,,99,,,,,,,Space,keypress(Space),,,,,,,,---- -- ----- -- ------ - ------- --- ----------<br>------------- ------ ------ ---- ---- ------- ----- -- ----<br>-------- ------- -- ---------- --- - --- ----- ----- ----<br>---- --- --- ----- --- ---- ---- ------- ----- ---- -------<br>--- --- -- ----- -- --- ---- -- --- ---- -- ------ really<br>--- ----- -- ----,194483.36999991443,194482.51999996137,193992.85,193994.27499994636,194009.516,194492.837,,51,really
screen,html.Screen,2_1_0_1_52,2021-04-24T15:40:19.806Z,,,,,,,,,,,,,,,,,53,,,,,,,,,,,,,,309.8180000067805,,response,,,,99,,,,,,,Space,keypress(Space),,,,,,,,---- -- ----- -- ------ - ------- --- ----------<br>------------- ------ ------ ---- ---- ------- ----- -- ----<br>-------- ------- -- ---------- --- - --- ----- ----- ----<br>---- --- --- ----- --- ---- ---- ------- ----- ---- -------<br>--- --- -- ----- -- --- ---- -- --- ---- -- ------ ------<br>not ----- -- ----,194803.51499991957,194802.65500000678,194476.157,194483.5299999686,194492.837,194809.45,,52,not
screen,html.Screen,2_1_0_1_53,2021-04-24T15:40:20.235Z,,,,,,,,,,,,,,,,,53,,,,,,,,,,,,,,421.8549999065581,,response,,,,99,,,,,,,Space,keypress(Space),,,,,,,,---- -- ----- -- ------ - ------- --- ----------<br>------------- ------ ------ ---- ---- ------- ----- -- ----<br>-------- ------- -- ---------- --- - --- ----- ----- ----<br>---- --- --- ----- --- ---- ---- ------- ----- ---- -------<br>--- --- -- ----- -- --- ---- -- --- ---- -- ------ ------<br>--- close -- ----,195232.18499997165,195231.30499990657,194792.811,194803.65999997593,194809.45,195242.817,,53,close
screen,html.Screen,2_1_0_1_54,2021-04-24T15:40:20.839Z,,,,,,,,,,,,,,,,,53,,,,,,,,,,,,,,593.2979999545787,,response,,,,99,,,,,,,Space,keypress(Space),,,,,,,,---- -- ----- -- ------ - ------- --- ----------<br>------------- ------ ------ ---- ---- ------- ----- -- ----<br>-------- ------- -- ---------- --- - --- ----- ----- ----<br>---- --- --- ----- --- ---- ---- ------- ----- ---- -------<br>--- --- -- ----- -- --- ---- -- --- ---- -- ------ ------<br>--- ----- at ----,195836.99999994133,195836.1149999546,195226.14,195232.33499994967,195242.817,195842.731,,54,at
screen,html.Screen,2_1_0_1_55,2021-04-24T15:40:21.235Z,,,,,,,,,,,,,,,,,53,,,,,,,,,,,,,,389.07399998852634,,response,,,,99,,,,,,,Space,keypress(Space),,,,,,,,---- -- ----- -- ------ - ------- --- ----------<br>------------- ------ ------ ---- ---- ------- ----- -- ----<br>-------- ------- -- ---------- --- - --- ----- ----- ----<br>---- --- --- ----- --- ---- ---- ------- ----- ---- -------<br>--- --- -- ----- -- --- ---- -- --- ---- -- ------ ------<br>--- ----- -- all.,196232.68999997526,196231.80499998853,195826.114,195837.14999991935,195842.731,196242.778,,55,all.
Item 99,flow.Loop,2_1_0_1,2021-04-24T15:40:21.235Z,,,,,,,,,,,,,,,,,,,,,,,,,,,,,,,26404.952999988513,,completion,,,,,D,,,,,,,,,,,silence,,,,,196232.99499996938,196231.80499998853,169793.511,169795.68499990273,169826.852,196242.778,,,
Question 1,html.Screen,2_1_0_2,2021-04-24T15:40:27.499Z,,,,,,,,,,,,,,,,,,,,,,,,,,,,false,FALSE,,6251.686999996135,,response,,,,99,D,,,,,,TRUE,click #choice-1,,,,silence,,,,,202496.62499991246,202494.46499999613,196226.115,196233.10999991372,196242.778,202509.296,,,
Question 2,html.Screen,2_1_0_3,2021-04-24T15:40:33.934Z,,,,,,,,,,,,,,,,,,,,,,,,,,,,true,TRUE,,6420.323999951681,,response,,,,99,D,,,,,,TRUE,click #choice-1,,,,silence,,,,,208931.77499994636,208929.61999995168,202492.631,202496.9249999849,202509.296,208942.622,,,
Item 99,flow.Sequence,2_1_0,2021-04-24T15:40:33.935Z,,,,,,,,,,,,,,,,,,,,,,,,,,,,,,,49119.184999951685,,completion,,,,,,,,,,,,,,,,,,,,,208932.32999998145,208929.61999995168,159760.45,159775.65999992657,159810.435,208942.622,,,
Holding screen,html.Screen,2_1_1_0,2021-04-24T15:40:43.929Z,,,,,,,,,,,,,,,,,,,,,,,,,,,,,,,9999.565999999992,,timeout,,,,,,,,,,,,,,,,,,,,,218926.2499999022,218925.514,208925.765,208932.5649999082,208942.622,218942.188,,,
screen,html.Screen,2_1_1_1_0,2021-04-24T15:40:44.872Z,,,,,,,,,,,,,,,,,54,,,,,,,,,,,,,,926.751999956643,,response,,,,100,,,,,,,Space,keypress(Space),,,,,,,,At --- ---- --- ------ ----- ------- ---- -- --- ------- --<br>------- ---------- ------ -- ----- -- ----- -- ---- ------<br>--- ----- --- --- ------ -------- ----- --- ------ ----- --<br>----- ----- ---------- --- --- ------ ------ ---- -- ------<br>------- --- ------ ----- --- ---- ------- -- ---- --- --<br>------- ------,219869.9749999214,219868.93999995664,218925.514,218926.4649999095,218942.188,219875.428,,0,At
screen,html.Screen,2_1_1_1_1,2021-04-24T15:40:45.295Z,,,,,,,,,,,,,,,,,54,,,,,,,,,,,,,,416.6770000004326,,response,,,,100,,,,,,,Space,keypress(Space),,,,,,,,-- the ---- --- ------ ----- ------- ---- -- --- ------- --<br>------- ---------- ------ -- ----- -- ----- -- ---- ------<br>--- ----- --- --- ------ -------- ----- --- ------ ----- --<br>----- ----- ---------- --- --- ------ ------ ---- -- ------<br>------- --- ------ ----- --- ---- ------- -- ---- --- --<br>------- ------,220292.98999998719,220292.10500000045,219858.813,219870.1449999353,219875.428,220308.813,,1,the
screen,html.Screen,2_1_1_1_2,2021-04-24T15:40:45.692Z,,,,,,,,,,,,,,,,,54,,,,,,,,,,,,,,379.86699990471243,,response,,,,100,,,,,,,Space,keypress(Space),,,,,,,,-- --- time --- ------ ----- ------- ---- -- --- ------- --<br>------- ---------- ------ -- ----- -- ----- -- ---- ------<br>--- ----- --- --- ------ -------- ----- --- ------ ----- --<br>----- ----- ---------- --- --- ------ ------ ---- -- ------<br>------- --- ------ ----- --- ---- ------- -- ---- --- --<br>------- ------,220689.51499997638,220688.6799999047,220292.13,220293.1399999652,220308.813,220692.13,,2,time
screen,html.Screen,2_1_1_1_3,2021-04-24T15:40:46.014Z,,,,,,,,,,,,,,,,,54,,,,,,,,,,,,,,318.82499994698446,,response,,,,100,,,,,,,Space,keypress(Space),,,,,,,,-- --- ---- the ------ ----- ------- ---- -- --- ------- --<br>------- ---------- ------ -- ----- -- ----- -- ---- ------<br>--- ----- --- --- ------ -------- ----- --- ------ ----- --<br>----- ----- ---------- --- --- ------ ------ ---- -- ------<br>------- --- ------ ----- --- ---- ------- -- ---- --- --<br>------- ------,221011.82499993593,221010.954999947,220675.451,220689.69499995,220692.13,221025.536,,3,the
screen,html.Screen,2_1_1_1_4,2021-04-24T15:40:46.351Z,,,,,,,,,,,,,,,,,54,,,,,,,,,,,,,,322.3989999688638,,response,,,,100,,,,,,,Space,keypress(Space),,,,,,,,-- --- ---- --- French ----- ------- ---- -- --- ------- --<br>------- ---------- ------ -- ----- -- ----- -- ---- ------<br>--- ----- --- --- ------ -------- ----- --- ------ ----- --<br>----- ----- ---------- --- --- ------ ------ ---- -- ------<br>------- --- ------ ----- --- ---- ------- -- ---- --- --<br>------- ------,221348.9249999402,221347.93499996886,221008.783,221011.9699999923,221025.536,221358.723,,4,French
screen,html.Screen,2_1_1_1_5,2021-04-24T15:40:46.679Z,,,,,,,,,,,,,,,,,54,,,,,,,,,,,,,,316.361999995308,,response,,,,100,,,,,,,Space,keypress(Space),,,,,,,,-- --- ---- --- ------ crown ------- ---- -- --- ------- --<br>------- ---------- ------ -- ----- -- ----- -- ---- ------<br>--- ----- --- --- ------ -------- ----- --- ------ ----- --<br>----- ----- ---------- --- --- ------ ------ ---- -- ------<br>------- --- ------ ----- --- ---- ------- -- ---- --- --<br>------- ------,221676.1299999198,221675.0849999953,221342.114,221349.189999979,221358.723,221692.115,,5,crown
screen,html.Screen,2_1_1_1_6,2021-04-24T15:40:47.028Z,,,,,,,,,,,,,,,,,54,,,,,,,,,,,,,,332.02999991574325,,response,,,,100,,,,,,,Space,keypress(Space),,,,,,,,-- --- ---- --- ------ ----- secured ---- -- --- ------- --<br>------- ---------- ------ -- ----- -- ----- -- ---- ------<br>--- ----- --- --- ------ -------- ----- --- ------ ----- --<br>----- ----- ---------- --- --- ------ ------ ---- -- ------<br>------- --- ------ ----- --- ---- ------- -- ---- --- --<br>------- ------,222025.1050000079,222024.14499991573,221675.441,221677.53499990795,221692.115,222042.134,,6,secured
screen,html.Screen,2_1_1_1_7,2021-04-24T15:40:47.388Z,,,,,,,,,,,,,,,,,54,,,,,,,,,,,,,,342.31600001230254,,response,,,,100,,,,,,,Space,keypress(Space),,,,,,,,-- --- ---- --- ------ ----- ------- much -- --- ------- --<br>------- ---------- ------ -- ----- -- ----- -- ---- ------<br>--- ----- --- --- ------ -------- ----- --- ------ ----- --<br>----- ----- ---------- --- --- ------ ------ ---- -- ------<br>------- --- ------ ----- --- ---- ------- -- ---- --- --<br>------- ------,222385.23000001442,222384.4500000123,222025.435,222025.29499994125,222042.134,222392.041,,7,much
screen,html.Screen,2_1_1_1_8,2021-04-24T15:40:47.741Z,,,,,,,,,,,,,,,,,54,,,,,,,,,,,,,,345.33899994773674,,response,,,,100,,,,,,,Space,keypress(Space),,,,,,,,-- --- ---- --- ------ ----- ------- ---- of --- ------- --<br>------- ---------- ------ -- ----- -- ----- -- ---- ------<br>--- ----- --- --- ------ -------- ----- --- ------ ----- --<br>----- ----- ---------- --- --- ------ ------ ---- -- ------<br>------- --- ------ ----- --- ---- ------- -- ---- --- --<br>------- ------,222738.3699999191,222737.37999994773,222375.444,222385.3849999141,222392.041,222742.074,,8,of
screen,html.Screen,2_1_1_1_9,2021-04-24T15:40:48.023Z,,,,,,,,,,,,,,,,,54,,,,,,,,,,,,,,278.10599999225815,,response,,,,100,,,,,,,Space,keypress(Space),,,,,,,,-- --- ---- --- ------ ----- ------- ---- -- its ------- --<br>------- ---------- ------ -- ----- -- ----- -- ---- ------<br>--- ----- --- --- ------ -------- ----- --- ------ ----- --<br>----- ----- ---------- --- --- ------ ------ ---- -- ------<br>------- --- ------ ----- --- ---- ------- -- ---- --- --<br>------- ------,223020.9099999629,223020.17999999225,222725.43,222738.6449999176,222742.074,223025.397,,9,its
screen,html.Screen,2_1_1_1_10,2021-04-24T15:40:48.304Z,,,,,,,,,,,,,,,,,54,,,,,,,,,,,,,,275.5929999015061,,response,,,,100,,,,,,,Space,keypress(Space),,,,,,,,-- --- ---- --- ------ ----- ------- ---- -- --- revenue --<br>------- ---------- ------ -- ----- -- ----- -- ---- ------<br>--- ----- --- --- ------ -------- ----- --- ------ ----- --<br>----- ----- ---------- --- --- ------ ------ ---- -- ------<br>------- --- ------ ----- --- ---- ------- -- ---- --- --<br>------- ------,223301.73999990802,223300.9899999015,223008.759,223021.10000001267,223025.397,223308.676,,10,revenue
screen,html.Screen,2_1_1_1_11,2021-04-24T15:40:48.636Z,,,,,,,,,,,,,,,,,54,,,,,,,,,,,,,,323.76899999563466,,response,,,,100,,,,,,,Space,keypress(Space),,,,,,,,-- --- ---- --- ------ ----- ------- ---- -- --- ------- by<br>------- ---------- ------ -- ----- -- ----- -- ---- ------<br>--- ----- --- --- ------ -------- ----- --- ------ ----- --<br>----- ----- ---------- --- --- ------ ------ ---- -- ------<br>------- --- ------ ----- --- ---- ------- -- ---- --- --<br>------- ------,223633.23999999557,223632.44499999564,223293.032,223301.93499999586,223308.676,223642.053,,11,by
screen,html.Screen,2_1_1_1_12,2021-04-24T15:40:48.984Z,,,,,,,,,,,,,,,,,54,,,,,,,,,,,,,,338.416999951296,,response,,,,100,,,,,,,Space,keypress(Space),,,,,,,,-- --- ---- --- ------ ----- ------- ---- -- --- ------- --<br>issuing ---------- ------ -- ----- -- ----- -- ---- ------<br>--- ----- --- --- ------ -------- ----- --- ------ ----- --<br>----- ----- ---------- --- --- ------ ------ ---- -- ------<br>------- --- ------ ----- --- ---- ------- -- ---- --- --<br>------- ------,223981.2099999981,223980.4699999513,223625.438,223633.42999992892,223642.053,223992.117,,12,issuing
screen,html.Screen,2_1_1_1_13,2021-04-24T15:40:49.371Z,,,,,,,,,,,,,,,,,54,,,,,,,,,,,,,,375.98800000138,,response,,,,100,,,,,,,Space,keypress(Space),,,,,,,,-- --- ---- --- ------ ----- ------- ---- -- --- ------- --<br>------- government ------ -- ----- -- ----- -- ---- ------<br>--- ----- --- --- ------ -------- ----- --- ------ ----- --<br>----- ----- ---------- --- --- ------ ------ ---- -- ------<br>------- --- ------ ----- --- ---- ------- -- ---- --- --<br>------- ------,224368.8850000035,224368.10500000138,223975.393,223981.3950000098,223992.117,224375.364,,13,government
screen,html.Screen,2_1_1_1_14,2021-04-24T15:40:49.724Z,,,,,,,,,,,,,,,,,54,,,,,,,,,,,,,,345.5109999990673,,response,,,,100,,,,,,,Space,keypress(Space),,,,,,,,-- --- ---- --- ------ ----- ------- ---- -- --- ------- --<br>------- ---------- bonds. -- ----- -- ----- -- ---- ------<br>--- ----- --- --- ------ -------- ----- --- ------ ----- --<br>----- ----- ---------- --- --- ------ ------ ---- -- ------<br>------- --- ------ ----- --- ---- ------- -- ---- --- --<br>------- ------,224721.61499992944,224720.87499999907,224358.674,224369.06499997713,224375.364,224725.379,,14,bonds.
screen,html.Screen,2_1_1_1_15,2021-04-24T15:40:50.242Z,,,,,,,,,,,,,,,,,54,,,,,,,,,,,,,,513.4610000054527,,response,,,,100,,,,,,,Space,keypress(Space),,,,,,,,-- --- ---- --- ------ ----- ------- ---- -- --- ------- --<br>------- ---------- ------ In ----- -- ----- -- ---- ------<br>--- ----- --- --- ------ -------- ----- --- ------ ----- --<br>----- ----- ---------- --- --- ------ ------ ---- -- ------<br>------- --- ------ ----- --- ---- ------- -- ---- --- --<br>------- ------,225239.63999992702,225238.84000000544,224709.277,224721.91999992356,224725.379,225242.047,,15,In
screen,html.Screen,2_1_1_1_16,2021-04-24T15:40:51.308Z,,,,,,,,,,,,,,,,,54,,,,,,,,,,,,,,1062.7879999589932,,response,,,,100,,,,,,,Space,keypress(Space),,,,,,,,"-- --- ---- --- ------ ----- ------- ---- -- --- ------- --<br>------- ---------- ------ -- 1727, -- ----- -- ---- ------<br>--- ----- --- --- ------ -------- ----- --- ------ ----- --<br>----- ----- ---------- --- --- ------ ------ ---- -- ------<br>------- --- ------ ----- --- ---- ------- -- ---- --- --<br>------- ------",226305.64999999478,226304.83499995898,225225.349,225239.82499993872,225242.047,226308.637,,16,"1727,"
screen,html.Screen,2_1_1_1_17,2021-04-24T15:40:51.627Z,,,,,,,,,,,,,,,,,54,,,,,,,,,,,,,,314.42300001264084,,response,,,,100,,,,,,,Space,keypress(Space),,,,,,,,-- --- ---- --- ------ ----- ------- ---- -- --- ------- --<br>------- ---------- ------ -- ----- in ----- -- ---- ------<br>--- ----- --- --- ------ -------- ----- --- ------ ----- --<br>----- ----- ---------- --- --- ------ ------ ---- -- ------<br>------- --- ------ ----- --- ---- ------- -- ---- --- --<br>------- ------,226624.13000001106,226623.06000001263,226292.026,226305.88999995962,226308.637,226650.396,,17,in
screen,html.Screen,2_1_1_1_18,2021-04-24T15:40:52.105Z,,,,,,,,,,,,,,,,,54,,,,,,,,,,,,,,450.60399990779115,,response,,,,100,,,,,,,Space,keypress(Space),,,,,,,,-- --- ---- --- ------ ----- ------- ---- -- --- ------- --<br>------- ---------- ------ -- ----- -- order -- ---- ------<br>--- ----- --- --- ------ -------- ----- --- ------ ----- --<br>----- ----- ---------- --- --- ------ ------ ---- -- ------<br>------- --- ------ ----- --- ---- ------- -- ---- --- --<br>------- ------,227102.45000000577,227100.9999999078,226608.703,226624.33499994222,226650.396,227108.645,,18,order
screen,html.Screen,2_1_1_1_19,2021-04-24T15:40:52.612Z,,,,,,,,,,,,,,,,,54,,,,,,,,,,,,,,500.09999997590785,,response,,,,100,,,,,,,Space,keypress(Space),,,,,,,,-- --- ---- --- ------ ----- ------- ---- -- --- ------- --<br>------- ---------- ------ -- ----- -- ----- to ---- ------<br>--- ----- --- --- ------ -------- ----- --- ------ ----- --<br>----- ----- ---------- --- --- ------ ------ ---- -- ------<br>------- --- ------ ----- --- ---- ------- -- ---- --- --<br>------- ------,227609.62999996264,227608.7449999759,227092.011,227102.63999993913,227108.645,227625.297,,19,to
screen,html.Screen,2_1_1_1_20,2021-04-24T15:40:53.162Z,,,,,,,,,,,,,,,,,54,,,,,,,,,,,,,,533.212999979296,,response,,,,100,,,,,,,Space,keypress(Space),,,,,,,,-- --- ---- --- ------ ----- ------- ---- -- --- ------- --<br>------- ---------- ------ -- ----- -- ----- -- save ------<br>--- ----- --- --- ------ -------- ----- --- ------ ----- --<br>----- ----- ---------- --- --- ------ ------ ---- -- ------<br>------- --- ------ ----- --- ---- ------- -- ---- --- --<br>------- ------,228159.2749999836,228158.5099999793,227608.638,227609.8350000102,227625.297,228175.285,,20,save
screen,html.Screen,2_1_1_1_21,2021-04-24T15:40:53.772Z,,,,,,,,,,,,,,,,,54,,,,,,,,,,,,,,593.2499999228457,,response,,,,100,,,,,,,Space,keypress(Space),,,,,,,,"-- --- ---- --- ------ ----- ------- ---- -- --- ------- --<br>------- ---------- ------ -- ----- -- ----- -- ---- money,<br>--- ----- --- --- ------ -------- ----- --- ------ ----- --<br>----- ----- ---------- --- --- ------ ------ ---- -- ------<br>------- --- ------ ----- --- ---- ------- -- ---- --- --<br>------- ------",228769.42499994766,228768.53499992285,228158.62,228159.45499995723,228175.285,228775.181,,21,"money,"
screen,html.Screen,2_1_1_1_22,2021-04-24T15:40:54.173Z,,,,,,,,,,,,,,,,,54,,,,,,,,,,,,,,393.8489999900048,,response,,,,100,,,,,,,Space,keypress(Space),,,,,,,,-- --- ---- --- ------ ----- ------- ---- -- --- ------- --<br>------- ---------- ------ -- ----- -- ----- -- ---- ------<br>the ----- --- --- ------ -------- ----- --- ------ ----- --<br>----- ----- ---------- --- --- ------ ------ ---- -- ------<br>------- --- ------ ----- --- ---- ------- -- ---- --- --<br>------- ------,229170.03499995917,229169.02999999002,228759.22,228769.65999999084,228775.181,229175.272,,22,the
screen,html.Screen,2_1_1_1_23,2021-04-24T15:40:54.615Z,,,,,,,,,,,,,,,,,54,,,,,,,,,,,,,,436.707999928738,,response,,,,100,,,,,,,Space,keypress(Space),,,,,,,,-- --- ---- --- ------ ----- ------- ---- -- --- ------- --<br>------- ---------- ------ -- ----- -- ----- -- ---- ------<br>--- state --- --- ------ -------- ----- --- ------ ----- --<br>----- ----- ---------- --- --- ------ ------ ---- -- ------<br>------- --- ------ ----- --- ---- ------- -- ---- --- --<br>------- ------,229612.70999989938,229611.97999992874,229158.927,229170.2899999218,229175.272,229625.252,,23,state
screen,html.Screen,2_1_1_1_24,2021-04-24T15:40:54.997Z,,,,,,,,,,,,,,,,,54,,,,,,,,,,,,,,368.787999903172,,response,,,,100,,,,,,,Space,keypress(Space),,,,,,,,-- --- ---- --- ------ ----- ------- ---- -- --- ------- --<br>------- ---------- ------ -- ----- -- ----- -- ---- ------<br>--- ----- cut --- ------ -------- ----- --- ------ ----- --<br>----- ----- ---------- --- --- ------ ------ ---- -- ------<br>------- --- ------ ----- --- ---- ------- -- ---- --- --<br>------- ------,229994.88000001293,229994.03999990318,229609.472,229612.89999994915,229625.252,230008.615,,24,cut
screen,html.Screen,2_1_1_1_25,2021-04-24T15:40:55.381Z,,,,,,,,,,,,,,,,,54,,,,,,,,,,,,,,368.9149999397341,,response,,,,100,,,,,,,Space,keypress(Space),,,,,,,,-- --- ---- --- ------ ----- ------- ---- -- --- ------- --<br>------- ---------- ------ -- ----- -- ----- -- ---- ------<br>--- ----- --- the ------ -------- ----- --- ------ ----- --<br>----- ----- ---------- --- --- ------ ------ ---- -- ------<br>------- --- ------ ----- --- ---- ------- -- ---- --- --<br>------- ------,230378.38999996893,230377.52999993972,229991.907,229995.0649999082,230008.615,230391.821,,25,the
screen,html.Screen,2_1_1_1_26,2021-04-24T15:40:55.713Z,,,,,,,,,,,,,,,,,54,,,,,,,,,,,,,,317.62899996573105,,response,,,,100,,,,,,,Space,keypress(Space),,,,,,,,-- --- ---- --- ------ ----- ------- ---- -- --- ------- --<br>------- ---------- ------ -- ----- -- ----- -- ---- ------<br>--- ----- --- --- bonds' -------- ----- --- ------ ----- --<br>----- ----- ---------- --- --- ------ ------ ---- -- ------<br>------- --- ------ ----- --- ---- ------- -- ---- --- --<br>------- ------,230710.21499997005,230709.44999996573,230375.524,230378.57499998063,230391.821,230725.228,,26,bonds'
screen,html.Screen,2_1_1_1_27,2021-04-24T15:40:56.070Z,,,,,,,,,,,,,,,,,54,,,,,,,,,,,,,,340.83699990448076,,response,,,,100,,,,,,,Space,keypress(Space),,,,,,,,-- --- ---- --- ------ ----- ------- ---- -- --- ------- --<br>------- ---------- ------ -- ----- -- ----- -- ---- ------<br>--- ----- --- --- ------ interest ----- --- ------ ----- --<br>----- ----- ---------- --- --- ------ ------ ---- -- ------<br>------- --- ------ ----- --- ---- ------- -- ---- --- --<br>------- ------,231067.21000000834,231066.06499990448,230708.568,230710.50499996636,230725.228,231075.161,,27,interest
screen,html.Screen,2_1_1_1_28,2021-04-24T15:40:56.502Z,,,,,,,,,,,,,,,,,54,,,,,,,,,,,,,,423.1989999686775,,response,,,,100,,,,,,,Space,keypress(Space),,,,,,,,-- --- ---- --- ------ ----- ------- ---- -- --- ------- --<br>------- ---------- ------ -- ----- -- ----- -- ---- ------<br>--- ----- --- --- ------ -------- rate. --- ------ ----- --<br>----- ----- ---------- --- --- ------ ------ ---- -- ------<br>------- --- ------ ----- --- ---- ------- -- ---- --- --<br>------- ------,231499.16000000667,231498.35999996867,231058.565,231067.47999996878,231075.161,231508.51,,28,rate.
screen,html.Screen,2_1_1_1_29,2021-04-24T15:40:56.885Z,,,,,,,,,,,,,,,,,54,,,,,,,,,,,,,,373.0899999642279,,response,,,,100,,,,,,,Space,keypress(Space),,,,,,,,-- --- ---- --- ------ ----- ------- ---- -- --- ------- --<br>------- ---------- ------ -- ----- -- ----- -- ---- ------<br>--- ----- --- --- ------ -------- ----- The ------ ----- --<br>----- ----- ---------- --- --- ------ ------ ---- -- ------<br>------- --- ------ ----- --- ---- ------- -- ---- --- --<br>------- ------,231882.40999996196,231881.59999996424,231492.202,231499.3399999803,231508.51,231891.756,,29,The
screen,html.Screen,2_1_1_1_30,2021-04-24T15:40:57.538Z,,,,,,,,,,,,,,,,,54,,,,,,,,,,,,,,643.2339999564574,,response,,,,100,,,,,,,Space,keypress(Space),,,,,,,,-- --- ---- --- ------ ----- ------- ---- -- --- ------- --<br>------- ---------- ------ -- ----- -- ----- -- ---- ------<br>--- ----- --- --- ------ -------- ----- --- market ----- --<br>----- ----- ---------- --- --- ------ ------ ---- -- ------<br>------- --- ------ ----- --- ---- ------- -- ---- --- --<br>------- ------,232535.81999999005,232534.98999995645,231875.213,231882.59499997366,231891.756,232541.794,,30,market
screen,html.Screen,2_1_1_1_31,2021-04-24T15:40:57.862Z,,,,,,,,,,,,,,,,,54,,,,,,,,,,,,,,316.49600000376813,,response,,,,100,,,,,,,Space,keypress(Space),,,,,,,,-- --- ---- --- ------ ----- ------- ---- -- --- ------- --<br>------- ---------- ------ -- ----- -- ----- -- ---- ------<br>--- ----- --- --- ------ -------- ----- --- ------ value --<br>----- ----- ---------- --- --- ------ ------ ---- -- ------<br>------- --- ------ ----- --- ---- ------- -- ---- --- --<br>------- ------,232859.21499994583,232858.29000000376,232525.178,232536.00500000175,232541.794,232875.158,,31,value
screen,html.Screen,2_1_1_1_32,2021-04-24T15:40:58.305Z,,,,,,,,,,,,,,,,,54,,,,,,,,,,,,,,426.65199997538,,response,,,,100,,,,,,,Space,keypress(Space),,,,,,,,-- --- ---- --- ------ ----- ------- ---- -- --- ------- --<br>------- ---------- ------ -- ----- -- ----- -- ---- ------<br>--- ----- --- --- ------ -------- ----- --- ------ ----- of<br>----- ----- ---------- --- --- ------ ------ ---- -- ------<br>------- --- ------ ----- --- ---- ------- -- ---- --- --<br>------- ------,233302.6799999643,233301.80999997538,232858.491,232859.43999991287,232875.158,233308.448,,32,of
screen,html.Screen,2_1_1_1_33,2021-04-24T15:40:58.647Z,,,,,,,,,,,,,,,,,54,,,,,,,,,,,,,,335.61199996233336,,response,,,,100,,,,,,,Space,keypress(Space),,,,,,,,-- --- ---- --- ------ ----- ------- ---- -- --- ------- --<br>------- ---------- ------ -- ----- -- ----- -- ---- ------<br>--- ----- --- --- ------ -------- ----- --- ------ ----- --<br>these ----- ---------- --- --- ------ ------ ---- -- ------<br>------- --- ------ ----- --- ---- ------- -- ---- --- --<br>------- ------,233644.92999995127,233644.05999996234,233292.382,233302.85999993794,233308.448,233658.499,,33,these
screen,html.Screen,2_1_1_1_34,2021-04-24T15:40:59.144Z,,,,,,,,,,,,,,,,,54,,,,,,,,,,,,,,481.7359999407199,,response,,,,100,,,,,,,Space,keypress(Space),,,,,,,,-- --- ---- --- ------ ----- ------- ---- -- --- ------- --<br>------- ---------- ------ -- ----- -- ----- -- ---- ------<br>--- ----- --- --- ------ -------- ----- --- ------ ----- --<br>----- bonds ---------- --- --- ------ ------ ---- -- ------<br>------- --- ------ ----- --- ---- ------- -- ---- --- --<br>------- ------,234141.06499997433,234140.23499994073,233642.152,233645.16499999445,233658.499,234175.168,,34,bonds
screen,html.Screen,2_1_1_1_35,2021-04-24T15:40:59.779Z,,,,,,,,,,,,,,,,,54,,,,,,,,,,,,,,600.3219999126741,,response,,,,100,,,,,,,Space,keypress(Space),,,,,,,,"-- --- ---- --- ------ ----- ------- ---- -- --- ------- --<br>------- ---------- ------ -- ----- -- ----- -- ---- ------<br>--- ----- --- --- ------ -------- ----- --- ------ ----- --<br>----- ----- plummeted, --- --- ------ ------ ---- -- ------<br>------- --- ------ ----- --- ---- ------- -- ---- --- --<br>------- ------",234776.39999997336,234775.48999991268,234158.465,234141.24999998603,234175.168,234791.815,,35,"plummeted,"
screen,html.Screen,2_1_1_1_36,2021-04-24T15:41:00.192Z,,,,,,,,,,,,,,,,,54,,,,,,,,,,,,,,396.30999998602783,,response,,,,100,,,,,,,Space,keypress(Space),,,,,,,,-- --- ---- --- ------ ----- ------- ---- -- --- ------- --<br>------- ---------- ------ -- ----- -- ----- -- ---- ------<br>--- ----- --- --- ------ -------- ----- --- ------ ----- --<br>----- ----- ---------- and --- ------ ------ ---- -- ------<br>------- --- ------ ----- --- ---- ------- -- ---- --- --<br>------- ------,235189.1099999193,235188.12499998603,234775.132,234776.65999997407,234791.815,235191.724,,36,and
screen,html.Screen,2_1_1_1_37,2021-04-24T15:41:00.664Z,,,,,,,,,,,,,,,,,54,,,,,,,,,,,,,,469.3759999102331,,response,,,,100,,,,,,,Space,keypress(Space),,,,,,,,-- --- ---- --- ------ ----- ------- ---- -- --- ------- --<br>------- ---------- ------ -- ----- -- ----- -- ---- ------<br>--- ----- --- --- ------ -------- ----- --- ------ ----- --<br>----- ----- ---------- --- the ------ ------ ---- -- ------<br>------- --- ------ ----- --- ---- ------- -- ---- --- --<br>------- ------,235661.84499999508,235661.09999991022,235175.092,235189.38499991782,235191.724,235675.099,,37,the
screen,html.Screen,2_1_1_1_38,2021-04-24T15:41:01.187Z,,,,,,,,,,,,,,,,,54,,,,,,,,,,,,,,507.900999960897,,response,,,,100,,,,,,,Space,keypress(Space),,,,,,,,-- --- ---- --- ------ ----- ------- ---- -- --- ------- --<br>------- ---------- ------ -- ----- -- ----- -- ---- ------<br>--- ----- --- --- ------ -------- ----- --- ------ ----- --<br>----- ----- ---------- --- --- market ------ ---- -- ------<br>------- --- ------ ----- --- ---- ------- -- ---- --- --<br>------- ------,236184.0249999659,236182.99999996088,235658.401,235662.0249999687,235675.099,236191.728,,38,market
screen,html.Screen,2_1_1_1_39,2021-04-24T15:41:01.807Z,,,,,,,,,,,,,,,,,54,,,,,,,,,,,,,,611.8419999891194,,response,,,,100,,,,,,,Space,keypress(Space),,,,,,,,-- --- ---- --- ------ ----- ------- ---- -- --- ------- --<br>------- ---------- ------ -- ----- -- ----- -- ---- ------<br>--- ----- --- --- ------ -------- ----- --- ------ ----- --<br>----- ----- ---------- --- --- ------ became ---- -- ------<br>------- --- ------ ----- --- ---- ------- -- ---- --- --<br>------- ------,236804.43499994,236803.56999998912,236175.182,236184.23999997322,236191.728,236808.369,,39,became
screen,html.Screen,2_1_1_1_40,2021-04-24T15:41:02.169Z,,,,,,,,,,,,,,,,,54,,,,,,,,,,,,,,357.46099995443365,,response,,,,100,,,,,,,Space,keypress(Space),,,,,,,,-- --- ---- --- ------ ----- ------- ---- -- --- ------- --<br>------- ---------- ------ -- ----- -- ----- -- ---- ------<br>--- ----- --- --- ------ -------- ----- --- ------ ----- --<br>----- ----- ---------- --- --- ------ ------ wary -- ------<br>------- --- ------ ----- --- ---- ------- -- ---- --- --<br>------- ------,237166.60999995656,237165.82999995444,236791.699,236804.69999997877,236808.369,237174.958,,40,wary
screen,html.Screen,2_1_1_1_41,2021-04-24T15:41:02.526Z,,,,,,,,,,,,,,,,,54,,,,,,,,,,,,,,347.1869999371411,,response,,,,100,,,,,,,Space,keypress(Space),,,,,,,,-- --- ---- --- ------ ----- ------- ---- -- --- ------- --<br>------- ---------- ------ -- ----- -- ----- -- ---- ------<br>--- ----- --- --- ------ -------- ----- --- ------ ----- --<br>----- ----- ---------- --- --- ------ ------ ---- of ------<br>------- --- ------ ----- --- ---- ------- -- ---- --- --<br>------- ------,237523.3049999224,237522.14499993715,237159.517,237166.79499996826,237174.958,237525.008,,41,of
screen,html.Screen,2_1_1_1_42,2021-04-24T15:41:02.914Z,,,,,,,,,,,,,,,,,54,,,,,,,,,,,,,,385.647000014229,,response,,,,100,,,,,,,Space,keypress(Space),,,,,,,,-- --- ---- --- ------ ----- ------- ---- -- --- ------- --<br>------- ---------- ------ -- ----- -- ----- -- ---- ------<br>--- ----- --- --- ------ -------- ----- --- ------ ----- --<br>----- ----- ---------- --- --- ------ ------ ---- -- French<br>------- --- ------ ----- --- ---- ------- -- ---- --- --<br>------- ------,237911.48499993142,237910.65500001423,237508.922,237523.5199999297,237525.008,237924.967,,42,French
screen,html.Screen,2_1_1_1_43,2021-04-24T15:41:03.308Z,,,,,,,,,,,,,,,,,54,,,,,,,,,,,,,,379.7530000146362,,response,,,,100,,,,,,,Space,keypress(Space),,,,,,,,-- --- ---- --- ------ ----- ------- ---- -- --- ------- --<br>------- ---------- ------ -- ----- -- ----- -- ---- ------<br>--- ----- --- --- ------ -------- ----- --- ------ ----- --<br>----- ----- ---------- --- --- ------ ------ ---- -- ------<br>credit. --- ------ ----- --- ---- ------- -- ---- --- --<br>------- ------,238305.61999999918,238304.72000001464,237908.691,237911.72500001267,237924.967,238308.315,,43,credit.
screen,html.Screen,2_1_1_1_44,2021-04-24T15:41:03.640Z,,,,,,,,,,,,,,,,,54,,,,,,,,,,,,,,328.33999992202735,,response,,,,100,,,,,,,Space,keypress(Space),,,,,,,,-- --- ---- --- ------ ----- ------- ---- -- --- ------- --<br>------- ---------- ------ -- ----- -- ----- -- ---- ------<br>--- ----- --- --- ------ -------- ----- --- ------ ----- --<br>----- ----- ---------- --- --- ------ ------ ---- -- ------<br>------- The ------ ----- --- ---- ------- -- ---- --- --<br>------- ------,238637.4599999981,238636.65499992203,238291.69,238305.8949999977,238308.315,238641.642,,44,The
screen,html.Screen,2_1_1_1_45,2021-04-24T15:41:04.035Z,,,,,,,,,,,,,,,,,54,,,,,,,,,,,,,,390.2579999435693,,response,,,,100,,,,,,,Space,keypress(Space),,,,,,,,-- --- ---- --- ------ ----- ------- ---- -- --- ------- --<br>------- ---------- ------ -- ----- -- ----- -- ---- ------<br>--- ----- --- --- ------ -------- ----- --- ------ ----- --<br>----- ----- ---------- --- --- ------ ------ ---- -- ------<br>------- --- French ----- --- ---- ------- -- ---- --- --<br>------- ------,239032.6949999435,239031.89999994356,238625.482,238637.65499996953,238641.642,239041.611,,45,French
screen,html.Screen,2_1_1_1_46,2021-04-24T15:41:04.334Z,,,,,,,,,,,,,,,,,54,,,,,,,,,,,,,,289.2239999133453,,response,,,,100,,,,,,,Space,keypress(Space),,,,,,,,-- --- ---- --- ------ ----- ------- ---- -- --- ------- --<br>------- ---------- ------ -- ----- -- ----- -- ---- ------<br>--- ----- --- --- ------ -------- ----- --- ------ ----- --<br>----- ----- ---------- --- --- ------ ------ ---- -- ------<br>------- --- ------ state --- ---- ------- -- ---- --- --<br>------- ------,239331.58499991987,239330.83499991335,239024.974,239032.90499991272,239041.611,239341.995,,46,state
screen,html.Screen,2_1_1_1_47,2021-04-24T15:41:04.731Z,,,,,,,,,,,,,,,,,54,,,,,,,,,,,,,,385.8549999083625,,response,,,,100,,,,,,,Space,keypress(Space),,,,,,,,-- --- ---- --- ------ ----- ------- ---- -- --- ------- --<br>------- ---------- ------ -- ----- -- ----- -- ---- ------<br>--- ----- --- --- ------ -------- ----- --- ------ ----- --<br>----- ----- ---------- --- --- ------ ------ ---- -- ------<br>------- --- ------ ----- was ---- ------- -- ---- --- --<br>------- ------,239728.61999995075,239727.84999990836,239324.974,239331.77499996964,239341.995,239741.998,,47,was
screen,html.Screen,2_1_1_1_48,2021-04-24T15:41:05.118Z,,,,,,,,,,,,,,,,,54,,,,,,,,,,,,,,372.5219999446126,,response,,,,100,,,,,,,Space,keypress(Space),,,,,,,,-- --- ---- --- ------ ----- ------- ---- -- --- ------- --<br>------- ---------- ------ -- ----- -- ----- -- ---- ------<br>--- ----- --- --- ------ -------- ----- --- ------ ----- --<br>----- ----- ---------- --- --- ------ ------ ---- -- ------<br>------- --- ------ ----- --- left ------- -- ---- --- --<br>------- ------,240115.3349999804,240114.5199999446,239724.986,239728.80499996245,239741.998,240124.946,,48,left
screen,html.Screen,2_1_1_1_49,2021-04-24T15:41:05.637Z,,,,,,,,,,,,,,,,,54,,,,,,,,,,,,,,508.7939999611117,,response,,,,100,,,,,,,Space,keypress(Space),,,,,,,,-- --- ---- --- ------ ----- ------- ---- -- --- ------- --<br>------- ---------- ------ -- ----- -- ----- -- ---- ------<br>--- ----- --- --- ------ -------- ----- --- ------ ----- --<br>----- ----- ---------- --- --- ------ ------ ---- -- ------<br>------- --- ------ ----- --- ---- without -- ---- --- --<br>------- ------,240634.62499994785,240633.7399999611,240108.309,240115.5199999921,240124.946,240641.578,,49,without
screen,html.Screen,2_1_1_1_50,2021-04-24T15:41:06.184Z,,,,,,,,,,,,,,,,,54,,,,,,,,,,,,,,539.2919999237347,,response,,,,100,,,,,,,Space,keypress(Space),,,,,,,,-- --- ---- --- ------ ----- ------- ---- -- --- ------- --<br>------- ---------- ------ -- ----- -- ----- -- ---- ------<br>--- ----- --- --- ------ -------- ----- --- ------ ----- --<br>----- ----- ---------- --- --- ------ ------ ---- -- ------<br>------- --- ------ ----- --- ---- ------- an ---- --- --<br>------- ------,241181.82499997783,241180.86999992374,240625.432,240634.81499999762,240641.578,241191.583,,50,an
screen,html.Screen,2_1_1_1_51,2021-04-24T15:41:06.618Z,,,,,,,,,,,,,,,,,54,,,,,,,,,,,,,,423.0919999606849,,response,,,,100,,,,,,,Space,keypress(Space),,,,,,,,-- --- ---- --- ------ ----- ------- ---- -- --- ------- --<br>------- ---------- ------ -- ----- -- ----- -- ---- ------<br>--- ----- --- --- ------ -------- ----- --- ------ ----- --<br>----- ----- ---------- --- --- ------ ------ ---- -- ------<br>------- --- ------ ----- --- ---- ------- -- easy --- --<br>------- ------,241615.46499992255,241614.6749999607,241175.265,241182.00999998953,241191.583,241624.891,,51,easy
screen,html.Screen,2_1_1_1_52,2021-04-24T15:41:07.004Z,,,,,,,,,,,,,,,,,54,,,,,,,,,,,,,,376.0839999735472,,response,,,,100,,,,,,,Space,keypress(Space),,,,,,,,-- --- ---- --- ------ ----- ------- ---- -- --- ------- --<br>------- ---------- ------ -- ----- -- ----- -- ---- ------<br>--- ----- --- --- ------ -------- ----- --- ------ ----- --<br>----- ----- ---------- --- --- ------ ------ ---- -- ------<br>------- --- ------ ----- --- ---- ------- -- ---- way --<br>------- ------,242001.76000001375,242000.97499997355,241608.233,241615.64999993425,241624.891,242008.183,,52,way
screen,html.Screen,2_1_1_1_53,2021-04-24T15:41:07.317Z,,,,,,,,,,,,,,,,,54,,,,,,,,,,,,,,304.8519999992277,,response,,,,100,,,,,,,Space,keypress(Space),,,,,,,,-- --- ---- --- ------ ----- ------- ---- -- --- ------- --<br>------- ---------- ------ -- ----- -- ----- -- ---- ------<br>--- ----- --- --- ------ -------- ----- --- ------ ----- --<br>----- ----- ---------- --- --- ------ ------ ---- -- ------<br>------- --- ------ ----- --- ---- ------- -- ---- --- of<br>------- ------,242313.94999998156,242313.03499999922,241991.611,242001.93999998737,242008.183,242324.92,,53,of
screen,html.Screen,2_1_1_1_54,2021-04-24T15:41:07.755Z,,,,,,,,,,,,,,,,,54,,,,,,,,,,,,,,426.2899999002984,,response,,,,100,,,,,,,Space,keypress(Space),,,,,,,,-- --- ---- --- ------ ----- ------- ---- -- --- ------- --<br>------- ---------- ------ -- ----- -- ----- -- ---- ------<br>--- ----- --- --- ------ -------- ----- --- ------ ----- --<br>----- ----- ---------- --- --- ------ ------ ---- -- ------<br>------- --- ------ ----- --- ---- ------- -- ---- --- --<br>raising ------,242752.00499990024,242751.2099999003,242308.216,242314.13499999326,242324.92,242758.151,,54,raising
screen,html.Screen,2_1_1_1_55,2021-04-24T15:41:08.163Z,,,,,,,,,,,,,,,,,54,,,,,,,,,,,,,,401.288999959419,,response,,,,100,,,,,,,Space,keypress(Space),,,,,,,,-- --- ---- --- ------ ----- ------- ---- -- --- ------- --<br>------- ---------- ------ -- ----- -- ----- -- ---- ------<br>--- ----- --- --- ------ -------- ----- --- ------ ----- --<br>----- ----- ---------- --- --- ------ ------ ---- -- ------<br>------- --- ------ ----- --- ---- ------- -- ---- --- --<br>------- money.,243160.26999999303,243159.43999995943,242741.588,242752.18999991193,242758.151,243174.876,,55,money.
Item 100,flow.Loop,2_1_1_1,2021-04-24T15:41:08.163Z,,,,,,,,,,,,,,,,,,,,,,,,,,,,,,,24217.251999959437,,completion,,,,,D,,,,,,,,,,,silence,,,,,243160.5799999088,243159.43999995943,218925.514,218926.40999995638,218942.188,243174.876,,,
Question 1,html.Screen,2_1_1_2,2021-04-24T15:41:14.162Z,,,,,,,,,,,,,,,,,,,,,,,,,,,,true,TRUE,,5982.048999901104,,response,,,,100,D,,,,,,TRUE,click #choice-1,,,,silence,,,,,249159.44999991916,249156.9249999011,243158.247,243160.7199999271,243174.876,249191.53,,,
Question 2,html.Screen,2_1_1_3,2021-04-24T15:41:17.693Z,,,,,,,,,,,,,,,,,,,,,,,,,,,,true,FALSE,,3497.084999991843,,response,,,,100,D,,,,,,FALSE,click #choice-2,,,,silence,,,,,252690.3900000034,252688.61499999184,249158.08,249159.6750000026,249191.53,252691.298,,,
Item 100,flow.Sequence,2_1_1,2021-04-24T15:41:17.693Z,,,,,,,,,,,,,,,,,,,,,,,,,,,,,,,43745.99299999184,,completion,,,,,,,,,,,,,,,,,,,,,252690.65499992575,252688.61499999184,208925.765,208932.49499995727,208942.622,252691.298,,,
End of Practice,html.Page,2_1_2,2021-04-24T15:41:24.032Z,,,,,,,,,,,,,,,,,,,,,,,,,,,,,,,6337.416999905778,,form submission,,,,,,,,,,,,,,,,,,,,,259029.16499995627,259028.7149999058,252675.17,252690.88999996893,252691.298,259041.304,,,
Practice,flow.Sequence,2_1,2021-04-24T15:41:24.032Z,,,,,,,,,,,,,,,,,,,,,,,,,,,,,,,99218.27999990579,,completion,,,,,,,,,,,,,,,,,,,,,259029.51999998186,259028.7149999058,159760.45,159775.61499993317,159810.435,259041.304,,,
Trap_instruction,html.Page,2_2_0,2021-04-24T15:41:27.754Z,,,,,,,,,,,,,,,,,,,,,,,,,,,,,,,3709.300999950152,,form submission,,,,,,,,,,,,,,,,,,,,,262751.03499996476,262750.60499995016,259025.011,259029.63999996427,259041.304,262824.507,,,
trap_trial,html.Screen,2_2_1,2021-04-24T15:41:34.165Z,,,,,,,,,,,,,,,,,,,,,,,,,,,,true,1,,6335.88800001354,,response,,,,,,,,,,,1,click #choice-1,,,,,,,,,269162.7499999013,269160.3950000135,262741.161,262751.3999999501,262824.507,269174.192,,,
end of trap trial,html.Page,2_2_2,2021-04-24T15:41:37.062Z,,,,,,,,,,,,,,,,,,,,,,,,,,,,,,,2885.3679999651504,,form submission,,,,,,,,,,,,,,,,,,,,,272059.9299999885,272059.55999996513,269157.568,269162.9299999913,269174.192,272074.339,,,
Trap 1,flow.Sequence,2_2,2021-04-24T15:41:37.063Z,,,,,,,,,,,,,,,,,,,,,,,,,,,,,,,13018.255999965128,,completion,,,,,,,,,,,,,,,,,,,,,272060.1949999109,272059.55999996513,259025.011,259029.6049999306,259041.304,272074.339,,,
Standby,html.Page,2_3_0,2021-04-24T15:41:45.061Z,,,,,,,,,,,,,,,,,,,,,,,,,,,,,,,7999.558000000019,,timeout,,,,,,,,,,,,,,,,,,,,,280058.01999999676,280057.248,272057.652,272060.3199999314,272074.339,280073.897,,,
Holding screen,html.Screen,2_3_1_0_0,2021-04-24T15:41:52.061Z,,,,,,,,,,,,,,,,,,,,,,,,,,,,,,,6999.809000000008,,timeout,,,,,,,,,,,,,,,,,,,,,287057.9999999609,287057.03,280057.248,280058.3199999528,280073.897,287073.706,,,
screen,html.Screen,2_3_1_0_1_0,2021-04-24T15:41:52.962Z,,,,,,,,,,,,,,,,,15,,,,,,,,,,,,,,884.6340000119526,,response,,,,7,D,,,,,,Space,keypress(Space),,,,silence,,,,Greg --------- ---------- - --- ------- -- --- ------------<br>----- -- -------- ------- ---- ------ - -------- ---- -----<br>--- ------- ---- -- --- -------- --- - ----- ------ ---- --<br>-------- --- -------- -------- --- -------- ---- -- ----- -<br>-------- ---- --- ---------- --------- -- ------- ------ -<br>--------- ----- -----,287959.31999990717,287958.34000001196,287057.03,287058.3549999865,287073.706,287973.669,,0,Greg
screen,html.Screen,2_3_1_0_1_1,2021-04-24T15:41:53.430Z,,,,,,,,,,,,,,,,,15,,,,,,,,,,,,,,452.7459999944549,,response,,,,7,D,,,,,,Space,keypress(Space),,,,silence,,,,"---- Anderson, ---------- - --- ------- -- --- ------------<br>----- -- -------- ------- ---- ------ - -------- ---- -----<br>--- ------- ---- -- --- -------- --- - ----- ------ ---- --<br>-------- --- -------- -------- --- -------- ---- -- ----- -<br>-------- ---- --- ---------- --------- -- ------- ------ -<br>--------- ----- -----",288427.389999968,288426.41499999445,287957.546,287959.5799999079,287973.669,288440.351,,1,"Anderson,"
screen,html.Screen,2_3_1_0_1_2,2021-04-24T15:41:53.869Z,,,,,,,,,,,,,,,,,15,,,,,,,,,,,,,,425.1539999942761,,response,,,,7,D,,,,,,Space,keypress(Space),,,,silence,,,,---- --------- considered - --- ------- -- --- ------------<br>----- -- -------- ------- ---- ------ - -------- ---- -----<br>--- ------- ---- -- --- -------- --- - ----- ------ ---- --<br>-------- --- -------- -------- --- -------- ---- -- ----- -<br>-------- ---- --- ---------- --------- -- ------- ------ -<br>--------- ----- -----,288866.30999995396,288865.5049999943,288423.68,288427.6100000134,288440.351,288873.577,,2,considered
screen,html.Screen,2_3_1_0_1_3,2021-04-24T15:41:54.286Z,,,,,,,,,,,,,,,,,15,,,,,,,,,,,,,,409.3579999083304,,response,,,,7,D,,,,,,Space,keypress(Space),,,,silence,,,,---- --------- ---------- a --- ------- -- --- ------------<br>----- -- -------- ------- ---- ------ - -------- ---- -----<br>--- ------- ---- -- --- -------- --- - ----- ------ ---- --<br>-------- --- -------- -------- --- -------- ---- -- ----- -<br>-------- ---- --- ---------- --------- -- ------- ------ -<br>--------- ----- -----,289283.9399999939,289282.9349999083,288857.136,288866.5799999144,288873.577,289290.253,,3,a
screen,html.Screen,2_3_1_0_1_4,2021-04-24T15:41:54.654Z,,,,,,,,,,,,,,,,,15,,,,,,,,,,,,,,360.0519999009557,,response,,,,7,D,,,,,,Space,keypress(Space),,,,silence,,,,---- --------- ---------- - key ------- -- --- ------------<br>----- -- -------- ------- ---- ------ - -------- ---- -----<br>--- ------- ---- -- --- -------- --- - ----- ------ ---- --<br>-------- --- -------- -------- --- -------- ---- -- ----- -<br>-------- ---- --- ---------- --------- -- ------- ------ -<br>--------- ----- -----,289651.10999997705,289650.304999901,289273.634,289284.2099999543,289290.253,289656.896,,4,key
screen,html.Screen,2_3_1_0_1_5,2021-04-24T15:41:54.990Z,,,,,,,,,,,,,,,,,15,,,,,,,,,,,,,,329.7489999390091,,response,,,,7,D,,,,,,Space,keypress(Space),,,,silence,,,,---- --------- ---------- - --- witness -- --- ------------<br>----- -- -------- ------- ---- ------ - -------- ---- -----<br>--- ------- ---- -- --- -------- --- - ----- ------ ---- --<br>-------- --- -------- -------- --- -------- ---- -- ----- -<br>-------- ---- --- ---------- --------- -- ------- ------ -<br>--------- ----- -----,289987.444999977,289986.644999939,289640.272,289651.2899999507,289656.896,289990.242,,5,witness
screen,html.Screen,2_3_1_0_1_6,2021-04-24T15:41:55.390Z,,,,,,,,,,,,,,,,,15,,,,,,,,,,,,,,395.967999909597,,response,,,,7,D,,,,,,Space,keypress(Space),,,,silence,,,,---- --------- ---------- - --- ------- by --- ------------<br>----- -- -------- ------- ---- ------ - -------- ---- -----<br>--- ------- ---- -- --- -------- --- - ----- ------ ---- --<br>-------- --- -------- -------- --- -------- ---- -- ----- -<br>-------- ---- --- ---------- --------- -- ------- ------ -<br>--------- ----- -----,290387.3349999776,290386.2099999096,289973.677,289987.6499999082,289990.242,290390.257,,6,by
screen,html.Screen,2_3_1_0_1_7,2021-04-24T15:41:55.720Z,,,,,,,,,,,,,,,,,15,,,,,,,,,,,,,,326.12299999804236,,response,,,,7,D,,,,,,Space,keypress(Space),,,,silence,,,,---- --------- ---------- - --- ------- -- the ------------<br>----- -- -------- ------- ---- ------ - -------- ---- -----<br>--- ------- ---- -- --- -------- --- - ----- ------ ---- --<br>-------- --- -------- -------- --- -------- ---- -- ----- -<br>-------- ---- --- ---------- --------- -- ------- ------ -<br>--------- ----- -----,290717.30999997817,290716.379999998,290373.602,290387.61999993585,290390.257,290723.544,,7,the
screen,html.Screen,2_3_1_0_1_8,2021-04-24T15:41:56.138Z,,,,,,,,,,,,,,,,,15,,,,,,,,,,,,,,410.6409999735188,,response,,,,7,D,,,,,,Space,keypress(Space),,,,silence,,,,"---- --------- ---------- - --- ------- -- --- prosecution,<br>----- -- -------- ------- ---- ------ - -------- ---- -----<br>--- ------- ---- -- --- -------- --- - ----- ------ ---- --<br>-------- --- -------- -------- --- -------- ---- -- ----- -<br>-------- ---- --- ---------- --------- -- ------- ------ -<br>--------- ----- -----",291135.1399999112,291134.1849999735,290706.892,290717.624999932,290723.544,291140.236,,8,"prosecution,"
screen,html.Screen,2_3_1_0_1_9,2021-04-24T15:41:56.646Z,,,,,,,,,,,,,,,,,15,,,,,,,,,,,,,,502.2589999200427,,response,,,,7,D,,,,,,Space,keypress(Space),,,,silence,,,,---- --------- ---------- - --- ------- -- --- ------------<br>vowed -- -------- ------- ---- ------ - -------- ---- -----<br>--- ------- ---- -- --- -------- --- - ----- ------ ---- --<br>-------- --- -------- -------- --- -------- ---- -- ----- -<br>-------- ---- --- ---------- --------- -- ------- ------ -<br>--------- ----- -----,291643.3099999558,291642.49499992,291123.606,291135.3699999163,291140.236,291656.857,,9,vowed
screen,html.Screen,2_3_1_0_1_10,2021-04-24T15:41:57.059Z,,,,,,,,,,,,,,,,,15,,,,,,,,,,,,,,398.72799996548565,,response,,,,7,D,,,,,,Space,keypress(Space),,,,silence,,,,---- --------- ---------- - --- ------- -- --- ------------<br>----- he -------- ------- ---- ------ - -------- ---- -----<br>--- ------- ---- -- --- -------- --- - ----- ------ ---- --<br>-------- --- -------- -------- --- -------- ---- -- ----- -<br>-------- ---- --- ---------- --------- -- ------- ------ -<br>--------- ----- -----,292056.3550000079,292055.5849999655,291640.248,291643.45999993384,291656.857,292090.227,,10,he
screen,html.Screen,2_3_1_0_1_11,2021-04-24T15:41:57.336Z,,,,,,,,,,,,,,,,,15,,,,,,,,,,,,,,242.60299997025868,,response,,,,7,D,,,,,,Space,keypress(Space),,,,silence,,,,---- --------- ---------- - --- ------- -- --- ------------<br>----- -- wouldn't ------- ---- ------ - -------- ---- -----<br>--- ------- ---- -- --- -------- --- - ----- ------ ---- --<br>-------- --- -------- -------- --- -------- ---- -- ----- -<br>-------- ---- --- ---------- --------- -- ------- ------ -<br>--------- ----- -----,292333.63000000827,292332.8299999703,292073.574,292056.5399999032,292090.227,292340.222,,11,wouldn't
screen,html.Screen,2_3_1_0_1_12,2021-04-24T15:41:57.770Z,,,,,,,,,,,,,,,,,15,,,,,,,,,,,,,,426.5729999449686,,response,,,,7,D,,,,,,Space,keypress(Space),,,,silence,,,,---- --------- ---------- - --- ------- -- --- ------------<br>----- -- -------- testify ---- ------ - -------- ---- -----<br>--- ------- ---- -- --- -------- --- - ----- ------ ---- --<br>-------- --- -------- -------- --- -------- ---- -- ----- -<br>-------- ---- --- ---------- --------- -- ------- ------ -<br>--------- ----- -----,292767.6649999339,292766.794999945,292323.525,292333.8099999819,292340.222,292773.522,,12,testify
screen,html.Screen,2_3_1_0_1_13,2021-04-24T15:41:58.134Z,,,,,,,,,,,,,,,,,15,,,,,,,,,,,,,,356.6229999446077,,response,,,,7,D,,,,,,Space,keypress(Space),,,,silence,,,,---- --------- ---------- - --- ------- -- --- ------------<br>----- -- -------- ------- when ------ - -------- ---- -----<br>--- ------- ---- -- --- -------- --- - ----- ------ ---- --<br>-------- --- -------- -------- --- -------- ---- -- ----- -<br>-------- ---- --- ---------- --------- -- ------- ------ -<br>--------- ----- -----,293130.94999990426,293130.1449999446,292756.86,292767.894999939,292773.522,293140.167,,13,when
screen,html.Screen,2_3_1_0_1_14,2021-04-24T15:41:58.498Z,,,,,,,,,,,,,,,,,15,,,,,,,,,,,,,,354.39799994265195,,response,,,,7,D,,,,,,Space,keypress(Space),,,,silence,,,,---- --------- ---------- - --- ------- -- --- ------------<br>----- -- -------- ------- ---- served - -------- ---- -----<br>--- ------- ---- -- --- -------- --- - ----- ------ ---- --<br>-------- --- -------- -------- --- -------- ---- -- ----- -<br>-------- ---- --- ---------- --------- -- ------- ------ -<br>--------- ----- -----,293495.3849999001,293494.56499994267,293123.61,293131.13499991596,293140.167,293506.965,,14,served
screen,html.Screen,2_3_1_0_1_15,2021-04-24T15:41:58.832Z,,,,,,,,,,,,,,,,,15,,,,,,,,,,,,,,321.27499994431855,,response,,,,7,D,,,,,,Space,keypress(Space),,,,silence,,,,---- --------- ---------- - --- ------- -- --- ------------<br>----- -- -------- ------- ---- ------ a -------- ---- -----<br>--- ------- ---- -- --- -------- --- - ----- ------ ---- --<br>-------- --- -------- -------- --- -------- ---- -- ----- -<br>-------- ---- --- ---------- --------- -- ------- ------ -<br>--------- ----- -----,293829.08499997575,293828.23999994434,293490.154,293495.57999998797,293506.965,293840.487,,15,a
screen,html.Screen,2_3_1_0_1_16,2021-04-24T15:41:59.194Z,,,,,,,,,,,,,,,,,15,,,,,,,,,,,,,,349.6629999221186,,response,,,,7,D,,,,,,Space,keypress(Space),,,,silence,,,,---- --------- ---------- - --- ------- -- --- ------------<br>----- -- -------- ------- ---- ------ - subpoena ---- -----<br>--- ------- ---- -- --- -------- --- - ----- ------ ---- --<br>-------- --- -------- -------- --- -------- ---- -- ----- -<br>-------- ---- --- ---------- --------- -- ------- ------ -<br>--------- ----- -----,294191.13499997184,294190.14999992214,293823.549,293829.26999998745,293840.487,294206.87,,16,subpoena
screen,html.Screen,2_3_1_0_1_17,2021-04-24T15:41:59.475Z,,,,,,,,,,,,,,,,,15,,,,,,,,,,,,,,264.34999994852114,,response,,,,7,D,,,,,,Space,keypress(Space),,,,silence,,,,---- --------- ---------- - --- ------- -- --- ------------<br>----- -- -------- ------- ---- ------ - -------- last -----<br>--- ------- ---- -- --- -------- --- - ----- ------ ---- --<br>-------- --- -------- -------- --- -------- ---- -- ----- -<br>-------- ---- --- ---------- --------- -- ------- ------ -<br>--------- ----- -----,294472.0049999887,294471.2199999485,294190.209,294191.370000015,294206.87,294491.498,,17,last
screen,html.Screen,2_3_1_0_1_18,2021-04-24T15:41:59.899Z,,,,,,,,,,,,,,,,,15,,,,,,,,,,,,,,403.7369999453658,,response,,,,7,D,,,,,,Space,keypress(Space),,,,silence,,,,---- --------- ---------- - --- ------- -- --- ------------<br>----- -- -------- ------- ---- ------ - -------- ---- week.<br>--- ------- ---- -- --- -------- --- - ----- ------ ---- --<br>-------- --- -------- -------- --- -------- ---- -- ----- -<br>-------- ---- --- ---------- --------- -- ------- ------ -<br>--------- ----- -----,294896.1199999321,294895.2349999454,294456.877,294472.2499999916,294491.498,294907.222,,18,week.
screen,html.Screen,2_3_1_0_1_19,2021-04-24T15:42:00.295Z,,,,,,,,,,,,,,,,,15,,,,,,,,,,,,,,384.7679999396787,,response,,,,7,D,,,,,,Space,keypress(Space),,,,silence,,,,---- --------- ---------- - --- ------- -- --- ------------<br>----- -- -------- ------- ---- ------ - -------- ---- -----<br>His ------- ---- -- --- -------- --- - ----- ------ ---- --<br>-------- --- -------- -------- --- -------- ---- -- ----- -<br>-------- ---- --- ---------- --------- -- ------- ------ -<br>--------- ----- -----,295292.9149999982,295291.9899999397,294890.149,294896.29999990575,294907.222,295306.85,,19,His
screen,html.Screen,2_3_1_0_1_20,2021-04-24T15:42:00.698Z,,,,,,,,,,,,,,,,,15,,,,,,,,,,,,,,387.27000000013504,,response,,,,7,D,,,,,,Space,keypress(Space),,,,silence,,,,---- --------- ---------- - --- ------- -- --- ------------<br>----- -- -------- ------- ---- ------ - -------- ---- -----<br>--- lawyers ---- -- --- -------- --- - ----- ------ ---- --<br>-------- --- -------- -------- --- -------- ---- -- ----- -<br>-------- ---- --- ---------- --------- -- ------- ------ -<br>--------- ----- -----,295695.01999998465,295694.1200000001,295290.174,295293.1699999608,295306.85,295706.746,,20,lawyers
screen,html.Screen,2_3_1_0_1_21,2021-04-24T15:42:01.060Z,,,,,,,,,,,,,,,,,15,,,,,,,,,,,,,,349.69899999472545,,response,,,,7,D,,,,,,Space,keypress(Space),,,,silence,,,,---- --------- ---------- - --- ------- -- --- ------------<br>----- -- -------- ------- ---- ------ - -------- ---- -----<br>--- ------- said -- --- -------- --- - ----- ------ ---- --<br>-------- --- -------- -------- --- -------- ---- -- ----- -<br>-------- ---- --- ---------- --------- -- ------- ------ -<br>--------- ----- -----,296057.42500000633,296056.4449999947,295690.153,295695.1999999583,295706.746,296073.446,,21,said
screen,html.Screen,2_3_1_0_1_22,2021-04-24T15:42:01.393Z,,,,,,,,,,,,,,,,,15,,,,,,,,,,,,,,315.99399994080886,,response,,,,7,D,,,,,,Space,keypress(Space),,,,silence,,,,---- --------- ---------- - --- ------- -- --- ------------<br>----- -- -------- ------- ---- ------ - -------- ---- -----<br>--- ------- ---- he --- -------- --- - ----- ------ ---- --<br>-------- --- -------- -------- --- -------- ---- -- ----- -<br>-------- ---- --- ---------- --------- -- ------- ------ -<br>--------- ----- -----,296390.2900000103,296389.4399999408,296056.792,296057.7049999265,296073.446,296407.299,,22,he
screen,html.Screen,2_3_1_0_1_23,2021-04-24T15:42:02.006Z,,,,,,,,,,,,,,,,,15,,,,,,,,,,,,,,595.4159999514231,,response,,,,7,D,,,,,,Space,keypress(Space),,,,silence,,,,---- --------- ---------- - --- ------- -- --- ------------<br>----- -- -------- ------- ---- ------ - -------- ---- -----<br>--- ------- ---- -- was -------- --- - ----- ------ ---- --<br>-------- --- -------- -------- --- -------- ---- -- ----- -<br>-------- ---- --- ---------- --------- -- ------- ------ -<br>--------- ----- -----,297003.67499992717,297002.7149999514,296390.152,296390.50999993924,296407.299,297006.759,,23,was
screen,html.Screen,2_3_1_0_1_24,2021-04-24T15:42:02.384Z,,,,,,,,,,,,,,,,,15,,,,,,,,,,,,,,373.6359999855631,,response,,,,7,D,,,,,,Space,keypress(Space),,,,silence,,,,---- --------- ---------- - --- ------- -- --- ------------<br>----- -- -------- ------- ---- ------ - -------- ---- -----<br>--- ------- ---- -- --- prepared --- - ----- ------ ---- --<br>-------- --- -------- -------- --- -------- ---- -- ----- -<br>-------- ---- --- ---------- --------- -- ------- ------ -<br>--------- ----- -----,297381.39999995474,297380.3949999856,296990.124,297003.90999997035,297006.759,297390.549,,24,prepared
screen,html.Screen,2_3_1_0_1_25,2021-04-24T15:42:02.767Z,,,,,,,,,,,,,,,,,15,,,,,,,,,,,,,,372.4459999973187,,response,,,,7,D,,,,,,Space,keypress(Space),,,,silence,,,,---- --------- ---------- - --- ------- -- --- ------------<br>----- -- -------- ------- ---- ------ - -------- ---- -----<br>--- ------- ---- -- --- -------- for - ----- ------ ---- --<br>-------- --- -------- -------- --- -------- ---- -- ----- -<br>-------- ---- --- ---------- --------- -- ------- ------ -<br>--------- ----- -----,297764.0099999262,297762.9949999973,297373.419,297381.59999996424,297390.549,297773.595,,25,for
screen,html.Screen,2_3_1_0_1_26,2021-04-24T15:42:03.108Z,,,,,,,,,,,,,,,,,15,,,,,,,,,,,,,,331.2799999609124,,response,,,,7,D,,,,,,Space,keypress(Space),,,,silence,,,,---- --------- ---------- - --- ------- -- --- ------------<br>----- -- -------- ------- ---- ------ - -------- ---- -----<br>--- ------- ---- -- --- -------- --- a ----- ------ ---- --<br>-------- --- -------- -------- --- -------- ---- -- ----- -<br>-------- ---- --- ---------- --------- -- ------- ------ -<br>--------- ----- -----,298105.89499992784,298104.8749999609,297757.373,297765.61499992386,297773.595,298123.446,,26,a
screen,html.Screen,2_3_1_0_1_27,2021-04-24T15:42:03.430Z,,,,,,,,,,,,,,,,,15,,,,,,,,,,,,,,303.3990000090562,,response,,,,7,D,,,,,,Space,keypress(Space),,,,silence,,,,---- --------- ---------- - --- ------- -- --- ------------<br>----- -- -------- ------- ---- ------ - -------- ---- -----<br>--- ------- ---- -- --- -------- --- - third ------ ---- --<br>-------- --- -------- -------- --- -------- ---- -- ----- -<br>-------- ---- --- ---------- --------- -- ------- ------ -<br>--------- ----- -----,298427.6250000112,298426.84500000905,298090.617,298106.13999993075,298123.446,298440.125,,27,third
screen,html.Screen,2_3_1_0_1_28,2021-04-24T15:42:03.723Z,,,,,,,,,,,,,,,,,15,,,,,,,,,,,,,,279.6449999669567,,response,,,,7,D,,,,,,Space,keypress(Space),,,,silence,,,,---- --------- ---------- - --- ------- -- --- ------------<br>----- -- -------- ------- ---- ------ - -------- ---- -----<br>--- ------- ---- -- --- -------- --- - ----- prison ---- --<br>-------- --- -------- -------- --- -------- ---- -- ----- -<br>-------- ---- --- ---------- --------- -- ------- ------ -<br>--------- ----- -----,298720.5149999354,298719.76999996696,298423.421,298427.9099999694,298440.125,298723.408,,28,prison
screen,html.Screen,2_3_1_0_1_29,2021-04-24T15:42:04.086Z,,,,,,,,,,,,,,,,,15,,,,,,,,,,,,,,358.96699999814155,,response,,,,7,D,,,,,,Space,keypress(Space),,,,silence,,,,---- --------- ---------- - --- ------- -- --- ------------<br>----- -- -------- ------- ---- ------ - -------- ---- -----<br>--- ------- ---- -- --- -------- --- - ----- ------ stay --<br>-------- --- -------- -------- --- -------- ---- -- ----- -<br>-------- ---- --- ---------- --------- -- ------- ------ -<br>--------- ----- -----,299083.14000000246,299082.37499999814,298706.712,298720.694999909,298723.408,299090.014,,29,stay
screen,html.Screen,2_3_1_0_1_30,2021-04-24T15:42:04.675Z,,,,,,,,,,,,,,,,,15,,,,,,,,,,,,,,581.1059999553836,,response,,,,7,D,,,,,,Space,keypress(Space),,,,silence,,,,---- --------- ---------- - --- ------- -- --- ------------<br>----- -- -------- ------- ---- ------ - -------- ---- -----<br>--- ------- ---- -- --- -------- --- - ----- ------ ---- to<br>-------- --- -------- -------- --- -------- ---- -- ----- -<br>-------- ---- --- ---------- --------- -- ------- ------ -<br>--------- ----- -----,299671.95499991067,299671.1199999554,299073.423,299083.32500001416,299090.014,299693.849,,30,to
screen,html.Screen,2_3_1_0_1_31,2021-04-24T15:42:05.052Z,,,,,,,,,,,,,,,,,15,,,,,,,,,,,,,,354.63099999766564,,response,,,,7,D,,,,,,Space,keypress(Space),,,,silence,,,,---- --------- ---------- - --- ------- -- --- ------------<br>----- -- -------- ------- ---- ------ - -------- ---- -----<br>--- ------- ---- -- --- -------- --- - ----- ------ ---- --<br>maintain --- -------- -------- --- -------- ---- -- ----- -<br>-------- ---- --- ---------- --------- -- ------- ------ -<br>--------- ----- -----,300049.2399999639,300048.47999999765,299656.737,299672.1350000007,299693.849,300056.683,,31,maintain
screen,html.Screen,2_3_1_0_1_32,2021-04-24T15:42:05.428Z,,,,,,,,,,,,,,,,,15,,,,,,,,,,,,,,368.48699994402705,,response,,,,7,D,,,,,,Space,keypress(Space),,,,silence,,,,---- --------- ---------- - --- ------- -- --- ------------<br>----- -- -------- ------- ---- ------ - -------- ---- -----<br>--- ------- ---- -- --- -------- --- - ----- ------ ---- --<br>-------- his -------- -------- --- -------- ---- -- ----- -<br>-------- ---- --- ---------- --------- -- ------- ------ -<br>--------- ----- -----,300425.93499994837,300425.16999994405,300040.075,300049.4300000137,300056.683,300439.95,,32,his
screen,html.Screen,2_3_1_0_1_33,2021-04-24T15:42:05.766Z,,,,,,,,,,,,,,,,,15,,,,,,,,,,,,,,322.47499996441184,,response,,,,7,D,,,,,,Space,keypress(Space),,,,silence,,,,---- --------- ---------- - --- ------- -- --- ------------<br>----- -- -------- ------- ---- ------ - -------- ---- -----<br>--- ------- ---- -- --- -------- --- - ----- ------ ---- --<br>-------- --- silence. -------- --- -------- ---- -- ----- -<br>-------- ---- --- ---------- --------- -- ------- ------ -<br>--------- ----- -----,300763.17499997094,300762.4249999644,300423.722,300426.07499996666,300439.95,300773.463,,33,silence.
screen,html.Screen,2_3_1_0_1_34,2021-04-24T15:42:06.220Z,,,,,,,,,,,,,,,,,15,,,,,,,,,,,,,,442.8270000112243,,response,,,,7,D,,,,,,Space,keypress(Space),,,,silence,,,,---- --------- ---------- - --- ------- -- --- ------------<br>----- -- -------- ------- ---- ------ - -------- ---- -----<br>--- ------- ---- -- --- -------- --- - ----- ------ ---- --<br>-------- --- -------- Anderson --- -------- ---- -- ----- -<br>-------- ---- --- ---------- --------- -- ------- ------ -<br>--------- ----- -----,301217.10999996867,301216.2900000112,300757.079,300763.36999994237,300773.463,301223.298,,34,Anderson
screen,html.Screen,2_3_1_0_1_35,2021-04-24T15:42:06.610Z,,,,,,,,,,,,,,,,,15,,,,,,,,,,,,,,383.7419999152771,,response,,,,7,D,,,,,,Space,keypress(Space),,,,silence,,,,---- --------- ---------- - --- ------- -- --- ------------<br>----- -- -------- ------- ---- ------ - -------- ---- -----<br>--- ------- ---- -- --- -------- --- - ----- ------ ---- --<br>-------- --- -------- -------- was -------- ---- -- ----- -<br>-------- ---- --- ---------- --------- -- ------- ------ -<br>--------- ----- -----,301607.949999976,301607.0399999153,301206.701,301217.3399999738,301223.298,301623.321,,35,was
screen,html.Screen,2_3_1_0_1_36,2021-04-24T15:42:06.904Z,,,,,,,,,,,,,,,,,15,,,,,,,,,,,,,,276.9489999837242,,response,,,,7,D,,,,,,Space,keypress(Space),,,,silence,,,,---- --------- ---------- - --- ------- -- --- ------------<br>----- -- -------- ------- ---- ------ - -------- ---- -----<br>--- ------- ---- -- --- -------- --- - ----- ------ ---- --<br>-------- --- -------- -------- --- released ---- -- ----- -<br>-------- ---- --- ---------- --------- -- ------- ------ -<br>--------- ----- -----,301901.03499998804,301900.2699999837,301606.69,301608.1499999855,301623.321,301906.63,,36,released
screen,html.Screen,2_3_1_0_1_37,2021-04-24T15:42:07.210Z,,,,,,,,,,,,,,,,,15,,,,,,,,,,,,,,300.45500000182074,,response,,,,7,D,,,,,,Space,keypress(Space),,,,silence,,,,---- --------- ---------- - --- ------- -- --- ------------<br>----- -- -------- ------- ---- ------ - -------- ---- -----<br>--- ------- ---- -- --- -------- --- - ----- ------ ---- --<br>-------- --- -------- -------- --- -------- July -- ----- -<br>-------- ---- --- ---------- --------- -- ------- ------ -<br>--------- ----- -----,302207.88000000175,302207.0850000018,301890.009,301901.21499996167,301906.63,302223.538,,37,July
screen,html.Screen,2_3_1_0_1_38,2021-04-24T15:42:07.515Z,,,,,,,,,,,,,,,,,15,,,,,,,,,,,,,,287.53200000774814,,response,,,,7,D,,,,,,Space,keypress(Space),,,,silence,,,,---- --------- ---------- - --- ------- -- --- ------------<br>----- -- -------- ------- ---- ------ - -------- ---- -----<br>--- ------- ---- -- --- -------- --- - ----- ------ ---- --<br>-------- --- -------- -------- --- -------- ---- 20 ----- -<br>-------- ---- --- ---------- --------- -- ------- ------ -<br>--------- ----- -----,302511.9849999901,302511.07000000775,302206.627,302208.1049999688,302223.538,302523.368,,38,20
