sender,sender_type,sender_id,timestamp,meta,,Blues,Classical,Country,Dance,Electronic,Folk,Gospel,Hip-Hop,Jazz,Latin,Musical/Film,New-age,Pop,Prolific_id,Provo_ID,R&B,Rap,Reggae,Religious,Rock,Soul,Swing,Traditional,age,artist_name,correct,correctResponse,distraction,duration,education,ended_on,familiarity,gender,headphone_check_performance,item,list,music_frequency,offensiveness,pleasantness,position_correct,preference,response,response_action,snippet_file,song_name,song_rating,sound,stimulus_1,stimulus_2,stimulus_3,text,time_commit,time_end,time_render,time_run,time_show,time_switch,url,word,word_ID
Prolific ID,html.Form,0,2021-04-24T12:31:03.509Z,"{""labjs_version"":""20.2.2"",""labjs_build"":{""flavor"":""production"",""commit"":""a25486e0c714a0ae2ce03ff94b7bb6896854dcfa""},""location"":""https://run.pavlovia.org/mvasilev/prolific_music_a/"",""userAgent"":""Mozilla/5.0 (Windows NT 10.0; Win64; x64) AppleWebKit/537.36 (KHTML, like Gecko) Chrome/90.0.4430.85 Safari/537.36 Edg/90.0.818.46"",""platform"":""Win32"",""language"":""en-GB"",""locale"":""en-GB"",""timeZone"":""Europe/London"",""timezoneOffset"":-60,""screen_width"":1536,""screen_height"":864,""scroll_width"":1536,""scroll_height"":674,""window_innerWidth"":1536,""window_innerHeight"":722,""devicePixelRatio"":1.25}",,,,,,,,,,,,,,,5f3813c0e97de70a6ab4e9e2,,,,,,,,,,,,,,,5986.8199999906865,,form submission,,,,,,,,,,,,,,,,,,,,,12693.424999946728,12693.124999990687,6685.505,6689.524999936111,6706.305,12698.742,{},,
Introduction,html.Screen,1_0,2021-04-24T12:31:08.651Z,,,,,,,,,,,,,,,,,,,,,,,,,,,,,,,5135.347999902062,,response,,,,,,,,,,,continue,click button,,,,,,,,,17835.484999930486,17834.089999902062,12691.952,12693.754999898374,12698.742,17837.086,,,
Volume calibration,html.Screen,1_1,2021-04-24T12:31:23.570Z,,,,,,,,,,,,,,,,,,,,,,,,,,,,,,,14915.528999888465,,response,,,,,,,,,,,continue,click button,,,,,,,,,32754.109999979846,32752.614999888465,17830.213,17835.5749999173,17837.086,32759.22,,,
Task instructions,html.Screen,1_2,2021-04-24T12:31:32.682Z,,,,,,,,,,,,,,,,,,,,,,,,,,,,,,,9106.954999973736,,response,,,,,,,,,,,continue,click button,,,,,,,,,41866.72499997076,41866.17499997374,32752.272,32754.179999930784,32759.22,41869.338,,,
Sounds,html.Screen,1_3_0_0,2021-04-24T12:31:36.929Z,,,,,,,,,,,,,,,,,,,,,,,,,,,,,,,4249.616999999998,,timeout,,,,,,,,,1,,,,,,,,S,I,O,,46113.51499997545,46112.098,41862.411,41866.88999994658,41869.338,46118.955,,,
Judgement,html.Screen,1_3_0_1,2021-04-24T12:31:40.950Z,,,,,,,,,,,,,,,,,,,,,,,,,,,,true,1,,4015.1049999530223,,response,,,,,,,,,1,,1,click #choice-1,,,,,S,I,O,,50134.694999898784,50134.059999953024,46112.098,46113.60499996226,46118.955,50139.277,,,
Trial,flow.Sequence,1_3_0,2021-04-24T12:31:40.951Z,,,,,,,,,,,,,,,,,,,,,,,,,,,,,,,8264.72199995302,,completion,,,,,,,,,1,,,,,,,,S,I,O,,50135.63499995507,50134.059999953024,41862.411,41866.86499998905,41869.338,50139.277,,,
Sounds,html.Screen,1_3_1_0,2021-04-24T12:31:45.198Z,,,,,,,,,,,,,,,,,,,,,,,,,,,,,,,4249.555,,timeout,,,,,,,,,3,,,,,,,,O,I,S,,54382.20499991439,54381.897,50132.458,50135.724999941885,50139.277,54388.832,,,
Judgement,html.Screen,1_3_1_1,2021-04-24T12:31:46.512Z,,,,,,,,,,,,,,,,,,,,,,,,,,,,true,3,,1307.4029999230333,,response,,,,,,,,,3,,3,click #choice-3,,,,,O,I,S,,55696.74499996472,55696.234999923036,54381.897,54382.2799999034,54388.832,55701.216,,,
Trial,flow.Sequence,1_3_1,2021-04-24T12:31:46.512Z,,,,,,,,,,,,,,,,,,,,,,,,,,,,,,,5556.957999923034,,completion,,,,,,,,,3,,,,,,,,O,I,S,,55696.859999909066,55696.234999923036,50132.458,50135.699999984354,50139.277,55701.216,,,
Sounds,html.Screen,1_3_2_0,2021-04-24T12:31:50.760Z,,,,,,,,,,,,,,,,,,,,,,,,,,,,,,,4249.521000000001,,timeout,,,,,,,,,3,,,,,,,,I,O,S,,59944.16499999352,59943.819,55694.442,55696.934999898076,55701.216,59950.737,,,
Judgement,html.Screen,1_3_2_1,2021-04-24T12:31:51.328Z,,,,,,,,,,,,,,,,,,,,,,,,,,,,true,3,,561.0529999022474,,response,,,,,,,,,3,,3,click #choice-3,,,,,I,O,S,,60512.214999995194,60511.78999990225,59943.819,59944.234999944456,59950.737,60525.247,,,
Trial,flow.Sequence,1_3_2,2021-04-24T12:31:51.328Z,,,,,,,,,,,,,,,,,,,,,,,,,,,,,,,4810.573999902248,,completion,,,,,,,,,3,,,,,,,,I,O,S,,60512.32999993954,60511.78999990225,55694.442,55696.909999940544,55701.216,60525.247,,,
Sounds,html.Screen,1_3_3_0,2021-04-24T12:31:55.586Z,,,,,,,,,,,,,,,,,,,,,,,,,,,,,,,4251.500999999997,,timeout,,,,,,,,,2,,,,,,,,O,S,I,,64770.27499990072,64769.871,60506.302,60512.39999989048,60525.247,64776.748,,,
Judgement,html.Screen,1_3_3_1,2021-04-24T12:31:55.953Z,,,,,,,,,,,,,,,,,,,,,,,,,,,,true,2,,359.40199991841655,,response,,,,,,,,,2,,2,click #choice-2,,,,,O,S,I,,65136.67999999598,65136.149999918416,64769.871,64770.344999968074,64776.748,65137.74,,,
Trial,flow.Sequence,1_3_3,2021-04-24T12:31:55.953Z,,,,,,,,,,,,,,,,,,,,,,,,,,,,,,,4610.902999918413,,completion,,,,,,,,,2,,,,,,,,O,S,I,,65136.79499994032,65136.149999918416,60506.302,60512.374999932945,60525.247,65137.74,,,
Sounds,html.Screen,1_3_4_0,2021-04-24T12:32:00.197Z,,,,,,,,,,,,,,,,,,,,,,,,,,,,,,,4249.606000000007,,timeout,,,,,,,,,1,,,,,,,,S,O,I,,69380.79499988817,69380.408,65130.934,65136.87999988906,65137.74,69387.346,,,
Judgement,html.Screen,1_3_4_1,2021-04-24T12:32:01.717Z,,,,,,,,,,,,,,,,,,,,,,,,,,,,false,1,,1512.933999943445,,response,,,,,,,,,1,,2,click #choice-2,,,,,S,O,I,,70900.72499995586,70900.27999994345,69380.408,69380.86999999359,69387.346,70914.124,,,
Trial,flow.Sequence,1_3_4,2021-04-24T12:32:01.717Z,,,,,,,,,,,,,,,,,,,,,,,,,,,,,,,5762.539999943452,,completion,,,,,,,,,1,,,,,,,,S,O,I,,70900.83499997854,70900.27999994345,65130.934,65136.8599999696,65137.74,70914.124,,,
Sounds,html.Screen,1_3_5_0,2021-04-24T12:32:05.974Z,,,,,,,,,,,,,,,,,,,,,,,,,,,,,,,4250.525999999998,,timeout,,,,,,,,,2,,,,,,,,I,S,O,,75157.969999942,75157.576,70894.23,70900.90499992948,70914.124,75164.65,,,
Judgement,html.Screen,1_3_5_1,2021-04-24T12:32:06.612Z,,,,,,,,,,,,,,,,,,,,,,,,,,,,true,2,,630.5499999349995,,response,,,,,,,,,2,,2,click #choice-2,,,,,I,S,O,,75795.58999999426,75795.199999935,75157.576,75158.03499997128,75164.65,75808.961,,,
Trial,flow.Sequence,1_3_5,2021-04-24T12:32:06.612Z,,,,,,,,,,,,,,,,,,,,,,,,,,,,,,,4881.0759999349975,,completion,,,,,,,,,2,,,,,,,,I,S,O,,75795.69499997888,75795.199999935,70894.23,70900.8849998936,70914.124,75808.961,,,
Task,flow.Loop,1_3,2021-04-24T12:32:06.614Z,,,,,,,,,,,,,,,,,,,,,,,,,,,,,,,33925.86199993499,,completion,,,0.8333333333333334,,,,,,,,,,,,,,,,,,75797.98999999184,75795.199999935,41862.411,41866.8249999173,41869.338,75808.961,,,
Trap,html.Screen,1_4,2021-04-24T12:32:06.616Z,,,,,,,,,,,,,,,,,,,,,,,,,,,,,,,NaN,,skipped,,,,,,,,,,,,,,,,,,,,,75799.55999995582,75795.199999935,,75799.48999988846,,75808.961,,,
Thanks,html.Screen,1_5,2021-04-24T12:32:09.335Z,,,,,,,,,,,,,,,,,,,,,,,,,,,,,,,2709.3239999982907,,response,,,,,,,,,,,continue,click button,,,,,,,,,78518.79499992356,78518.28499999829,75789.556,75799.61999994703,75808.961,80025.31,,,
Headphone screening,flow.Sequence,1,2021-04-24T12:32:09.335Z,,,,,,,,,,,,,,,,,,,,,,,,,,,,,,,65819.54299999829,,completion,,,,,,,,,,,,,,,,,,,,,78518.89499998651,78518.28499999829,12691.952,12693.729999940842,12698.742,80025.31,,,
Instructions,html.Page,2_0,2021-04-24T12:32:16.531Z,,,,,,,,,,,,,,,,,,,,,,,,,,,,,,,5689.164999927918,,form submission,,,,,,,,,,,,,,,,,,,,,85714.5999999484,85714.47499992792,80018.258,80027.14999997988,80025.31,85718.965,,,
Holding screen,html.Screen,2_1_0_0,2021-04-24T12:32:26.527Z,,,,,,,,,,,,,,,,,,,,,,,,,,,,,,,9998.953999999998,,timeout,,,,,,,,,,,,,,,,,,,,,95711.29499992821,95710.98,85712.051,85714.70999997109,85718.965,95717.919,,,
screen,html.Screen,2_1_0_1_0,2021-04-24T12:32:27.859Z,,,,,,,,,,,,,,,,,53,,,,,,,,,,,,,,1324.2059999199118,,response,,,,99,,,,,,,Space,keypress(Space),,,,,,,,When -- ----- -- ------ - ------- --- ----------<br>------------- ------ ------ ---- ---- ------- ----- -- ----<br>-------- ------- -- ---------- --- - --- ----- ----- ----<br>---- --- --- ----- --- ---- ---- ------- ----- ---- -------<br>--- --- -- ----- -- --- ---- -- --- ---- -- ------ ------<br>--- ----- -- ----,97043.35499997251,97042.1249999199,95710.98,95711.41499991063,95717.919,97053.821,,0,When
screen,html.Screen,2_1_0_1_1,2021-04-24T12:32:28.571Z,,,,,,,,,,,,,,,,,53,,,,,,,,,,,,,,701.3239999446087,,response,,,,99,,,,,,,Space,keypress(Space),,,,,,,,---- it ----- -- ------ - ------- --- ----------<br>------------- ------ ------ ---- ---- ------- ----- -- ----<br>-------- ------- -- ---------- --- - --- ----- ----- ----<br>---- --- --- ----- --- ---- ---- ------- ----- ---- -------<br>--- --- -- ----- -- --- ---- -- --- ---- -- ------ ------<br>--- ----- -- ----,97755.45999989845,97755.1449999446,97037.415,97043.43999992125,97053.821,97759.418,,1,it
screen,html.Screen,2_1_0_1_2,2021-04-24T12:32:29.176Z,,,,,,,,,,,,,,,,,53,,,,,,,,,,,,,,600.0069999150583,,response,,,,99,,,,,,,Space,keypress(Space),,,,,,,,---- -- comes -- ------ - ------- --- ----------<br>------------- ------ ------ ---- ---- ------- ----- -- ----<br>-------- ------- -- ---------- --- - --- ----- ----- ----<br>---- --- --- ----- --- ---- ---- ------- ----- ---- -------<br>--- --- -- ----- -- --- ---- -- --- ---- -- ------ ------<br>--- ----- -- ----,98359.75999990478,98359.42499991506,97752.581,97755.53499988746,97759.418,98363.489,,2,comes
screen,html.Screen,2_1_0_1_3,2021-04-24T12:32:29.677Z,,,,,,,,,,,,,,,,,53,,,,,,,,,,,,,,497.13099993398646,,response,,,,99,,,,,,,Space,keypress(Space),,,,,,,,---- -- ----- to ------ - ------- --- ----------<br>------------- ------ ------ ---- ---- ------- ----- -- ----<br>-------- ------- -- ---------- --- - --- ----- ----- ----<br>---- --- --- ----- --- ---- ---- ------- ----- ---- -------<br>--- --- -- ----- -- --- ---- -- --- ---- -- ------ ------<br>--- ----- -- ----,98860.95000000205,98860.61999993399,98356.69,98359.82999997213,98363.489,98863.412,,3,to
screen,html.Screen,2_1_0_1_4,2021-04-24T12:32:30.119Z,,,,,,,,,,,,,,,,,53,,,,,,,,,,,,,,438.9829998896603,,response,,,,99,,,,,,,Space,keypress(Space),,,,,,,,---- -- ----- -- having - ------- --- ----------<br>------------- ------ ------ ---- ---- ------- ----- -- ----<br>-------- ------- -- ---------- --- - --- ----- ----- ----<br>---- --- --- ----- --- ---- ---- ------- ----- ---- -------<br>--- --- -- ----- -- --- ---- -- --- ---- -- ------ ------<br>--- ----- -- ----,99302.66999988817,99302.39499988966,98856.535,98861.02499999106,98863.412,99307.805,,4,having
screen,html.Screen,2_1_0_1_5,2021-04-24T12:32:30.450Z,,,,,,,,,,,,,,,,,53,,,,,,,,,,,,,,326.1049999750103,,response,,,,99,,,,,,,Space,keypress(Space),,,,,,,,---- -- ----- -- ------ a ------- --- ----------<br>------------- ------ ------ ---- ---- ------- ----- -- ----<br>-------- ------- -- ---------- --- - --- ----- ----- ----<br>---- --- --- ----- --- ---- ---- ------- ----- ---- -------<br>--- --- -- ----- -- --- ---- -- --- ---- -- ------ ------<br>--- ----- -- ----,99634.19499993324,99633.909999975,99301.017,99302.73499991745,99307.805,99641.156,,5,a
screen,html.Screen,2_1_0_1_6,2021-04-24T12:32:30.891Z,,,,,,,,,,,,,,,,,53,,,,,,,,,,,,,,434.02399992705614,,response,,,,99,,,,,,,Space,keypress(Space),,,,,,,,---- -- ----- -- ------ - lasting --- ----------<br>------------- ------ ------ ---- ---- ------- ----- -- ----<br>-------- ------- -- ---------- --- - --- ----- ----- ----<br>---- --- --- ----- --- ---- ---- ------- ----- ---- -------<br>--- --- -- ----- -- --- ---- -- --- ---- -- ------ ------<br>--- ----- -- ----,100075.46999992337,100075.17999992706,99634.311,99634.26999992225,99641.156,100078.619,,6,lasting
screen,html.Screen,2_1_0_1_7,2021-04-24T12:32:31.252Z,,,,,,,,,,,,,,,,,53,,,,,,,,,,,,,,357.46599993569544,,response,,,,99,,,,,,,Space,keypress(Space),,,,,,,,---- -- ----- -- ------ - ------- and ----------<br>------------- ------ ------ ---- ---- ------- ----- -- ----<br>-------- ------- -- ---------- --- - --- ----- ----- ----<br>---- --- --- ----- --- ---- ---- ------- ----- ---- -------<br>--- --- -- ----- -- --- ---- -- --- ---- -- ------ ------<br>--- ----- -- ----,100436.43499992322,100436.0849999357,100071.799,100075.53499995265,100078.619,100439.639,,7,and
screen,html.Screen,2_1_0_1_8,2021-04-24T12:32:31.652Z,,,,,,,,,,,,,,,,,53,,,,,,,,,,,,,,396.10099989312585,,response,,,,99,,,,,,,Space,keypress(Space),,,,,,,,---- -- ----- -- ------ - ------- --- fulfilling<br>------------- ------ ------ ---- ---- ------- ----- -- ----<br>-------- ------- -- ---------- --- - --- ----- ----- ----<br>---- --- --- ----- --- ---- ---- ------- ----- ---- -------<br>--- --- -- ----- -- --- ---- -- --- ---- -- ------ ------<br>--- ----- -- ----,100836.02499996778,100835.73999989312,100432.792,100436.50499999058,100439.639,100842.365,,8,fulfilling
screen,html.Screen,2_1_0_1_9,2021-04-24T12:32:32.225Z,,,,,,,,,,,,,,,,,53,,,,,,,,,,,,,,566.004999960991,,response,,,,99,,,,,,,Space,keypress(Space),,,,,,,,"---- -- ----- -- ------ - ------- --- ----------<br>relationship, ------ ------ ---- ---- ------- ----- -- ----<br>-------- ------- -- ---------- --- - --- ----- ----- ----<br>---- --- --- ----- --- ---- ---- ------- ----- ---- -------<br>--- --- -- ----- -- --- ---- -- --- ---- -- ------ ------<br>--- ----- -- ----",101408.65999995731,101408.369999961,100835.487,100836.09499991871,100842.365,101411.788,,9,"relationship,"
screen,html.Screen,2_1_0_1_10,2021-04-24T12:32:34.538Z,,,,,,,,,,,,,,,,,53,,,,,,,,,,,,,,2309.8819999989937,,response,,,,99,,,,,,,Space,keypress(Space),,,,,,,,---- -- ----- -- ------ - ------- --- ----------<br>------------- common ------ ---- ---- ------- ----- -- ----<br>-------- ------- -- ---------- --- - --- ----- ----- ----<br>---- --- --- ----- --- ---- ---- ------- ----- ---- -------<br>--- --- -- ----- -- --- ---- -- --- ---- -- ------ ------<br>--- ----- -- ----,103721.97499999311,103721.669999999,101404.853,101408.72999990825,101411.788,103724.039,,10,common
screen,html.Screen,2_1_0_1_11,2021-04-24T12:32:35.061Z,,,,,,,,,,,,,,,,,53,,,,,,,,,,,,,,520.2259999866219,,response,,,,99,,,,,,,Space,keypress(Space),,,,,,,,---- -- ----- -- ------ - ------- --- ----------<br>------------- ------ wisdom ---- ---- ------- ----- -- ----<br>-------- ------- -- ---------- --- - --- ----- ----- ----<br>---- --- --- ----- --- ---- ---- ------- ----- ---- -------<br>--- --- -- ----- -- --- ---- -- --- ---- -- ------ ------<br>--- ----- -- ----,104244.54999994487,104244.26499998663,103717.231,103722.04999998212,103724.039,104251.88,,11,wisdom
screen,html.Screen,2_1_0_1_12,2021-04-24T12:32:35.341Z,,,,,,,,,,,,,,,,,53,,,,,,,,,,,,,,272.63999997719657,,response,,,,99,,,,,,,Space,keypress(Space),,,,,,,,---- -- ----- -- ------ - ------- --- ----------<br>------------- ------ ------ says ---- ------- ----- -- ----<br>-------- ------- -- ---------- --- - --- ----- ----- ----<br>---- --- --- ----- --- ---- ---- ------- ----- ---- -------<br>--- --- -- ----- -- --- ---- -- --- ---- -- ------ ------<br>--- ----- -- ----,104524.79999989737,104524.5199999772,104237.934,104244.6199998958,104251.88,104529.484,,12,says
screen,html.Screen,2_1_0_1_13,2021-04-24T12:32:35.702Z,,,,,,,,,,,,,,,,,53,,,,,,,,,,,,,,355.9209999499726,,response,,,,99,,,,,,,Space,keypress(Space),,,,,,,,---- -- ----- -- ------ - ------- --- ----------<br>------------- ------ ------ ---- that ------- ----- -- ----<br>-------- ------- -- ---------- --- - --- ----- ----- ----<br>---- --- --- ----- --- ---- ---- ------- ----- ---- -------<br>--- --- -- ----- -- --- ---- -- --- ---- -- ------ ------<br>--- ----- -- ----,104885.69999998435,104885.40499994997,104522.729,104524.86999996472,104529.484,104890.569,,13,that
screen,html.Screen,2_1_0_1_14,2021-04-24T12:32:36.372Z,,,,,,,,,,,,,,,,,53,,,,,,,,,,,,,,665.1159999120428,,response,,,,99,,,,,,,Space,keypress(Space),,,,,,,,---- -- ----- -- ------ - ------- --- ----------<br>------------- ------ ------ ---- ---- feeling ----- -- ----<br>-------- ------- -- ---------- --- - --- ----- ----- ----<br>---- --- --- ----- --- ---- ---- ------- ----- ---- -------<br>--- --- -- ----- -- --- ---- -- --- ---- -- ------ ------<br>--- ----- -- ----,105556.02999997791,105555.68499991205,104883.682,104885.76499989722,104890.569,105575.455,,14,feeling
screen,html.Screen,2_1_0_1_15,2021-04-24T12:32:36.826Z,,,,,,,,,,,,,,,,,53,,,,,,,,,,,,,,434.514999897292,,response,,,,99,,,,,,,Space,keypress(Space),,,,,,,,---- -- ----- -- ------ - ------- --- ----------<br>------------- ------ ------ ---- ---- ------- close -- ----<br>-------- ------- -- ---------- --- - --- ----- ----- ----<br>---- --- --- ----- --- ---- ---- ------- ----- ---- -------<br>--- --- -- ----- -- --- ---- -- --- ---- -- ------ ------<br>--- ----- -- ----,106010.26999996975,106009.9699998973,105550.394,105556.09999992885,105575.455,106015.487,,15,close
screen,html.Screen,2_1_0_1_16,2021-04-24T12:32:37.082Z,,,,,,,,,,,,,,,,,53,,,,,,,,,,,,,,250.36299996703747,,response,,,,99,,,,,,,Space,keypress(Space),,,,,,,,---- -- ----- -- ------ - ------- --- ----------<br>------------- ------ ------ ---- ---- ------- ----- to ----<br>-------- ------- -- ---------- --- - --- ----- ----- ----<br>---- --- --- ----- --- ---- ---- ------- ----- ---- -------<br>--- --- -- ----- -- --- ---- -- --- ---- -- ------ ------<br>--- ----- -- ----,106266.1149998894,106265.84999996703,106008.628,106010.33499999903,106015.487,106272.415,,16,to
screen,html.Screen,2_1_0_1_17,2021-04-24T12:32:37.455Z,,,,,,,,,,,,,,,,,53,,,,,,,,,,,,,,366.2349999789585,,response,,,,99,,,,,,,Space,keypress(Space),,,,,,,,---- -- ----- -- ------ - ------- --- ----------<br>------------- ------ ------ ---- ---- ------- ----- -- your<br>-------- ------- -- ---------- --- - --- ----- ----- ----<br>---- --- --- ----- --- ---- ---- ------- ----- ---- -------<br>--- --- -- ----- -- --- ---- -- --- ---- -- ------ ------<br>--- ----- -- ----,106638.89499998186,106638.64999997895,106265.451,106266.18499995675,106272.415,106640.4,,17,your
screen,html.Screen,2_1_0_1_18,2021-04-24T12:32:37.819Z,,,,,,,,,,,,,,,,,53,,,,,,,,,,,,,,362.1349999778031,,response,,,,99,,,,,,,Space,keypress(Space),,,,,,,,---- -- ----- -- ------ - ------- --- ----------<br>------------- ------ ------ ---- ---- ------- ----- -- ----<br>romantic ------- -- ---------- --- - --- ----- ----- ----<br>---- --- --- ----- --- ---- ---- ------- ----- ---- -------<br>--- --- -- ----- -- --- ---- -- --- ---- -- ------ ------<br>--- ----- -- ----,107002.81499989796,107002.5349999778,106633.518,106638.9649999328,106640.4,107008.447,,18,romantic
screen,html.Screen,2_1_0_1_19,2021-04-24T12:32:38.539Z,,,,,,,,,,,,,,,,,53,,,,,,,,,,,,,,714.3629999483674,,response,,,,99,,,,,,,Space,keypress(Space),,,,,,,,---- -- ----- -- ------ - ------- --- ----------<br>------------- ------ ------ ---- ---- ------- ----- -- ----<br>-------- partner -- ---------- --- - --- ----- ----- ----<br>---- --- --- ----- --- ---- ---- ------- ----- ---- -------<br>--- --- -- ----- -- --- ---- -- --- ---- -- ------ ------<br>--- ----- -- ----,107723.15499989782,107722.80999994837,107001.617,107002.87499988917,107008.447,107745.447,,19,partner
screen,html.Screen,2_1_0_1_20,2021-04-24T12:32:38.882Z,,,,,,,,,,,,,,,,,53,,,,,,,,,,,,,,319.9430000033899,,response,,,,99,,,,,,,Space,keypress(Space),,,,,,,,---- -- ----- -- ------ - ------- --- ----------<br>------------- ------ ------ ---- ---- ------- ----- -- ----<br>-------- ------- is ---------- --- - --- ----- ----- ----<br>---- --- --- ----- --- ---- ---- ------- ----- ---- -------<br>--- --- -- ----- -- --- ---- -- --- ---- -- ------ ------<br>--- ----- -- ----,108065.6799999997,108065.39000000339,107716.735,107723.22499996517,107745.447,108070.822,,20,is
screen,html.Screen,2_1_0_1_21,2021-04-24T12:32:39.715Z,,,,,,,,,,,,,,,,,53,,,,,,,,,,,,,,827.6779998938291,,response,,,,99,,,,,,,Space,keypress(Space),,,,,,,,---- -- ----- -- ------ - ------- --- ----------<br>------------- ------ ------ ---- ---- ------- ----- -- ----<br>-------- ------- -- paramount. --- - --- ----- ----- ----<br>---- --- --- ----- --- ---- ---- ------- ----- ---- -------<br>--- --- -- ----- -- --- ---- -- --- ---- -- ------ ------<br>--- ----- -- ----,108898.80999992602,108898.49999989383,108063.907,108065.74499991257,108070.822,108904.11,,21,paramount.
screen,html.Screen,2_1_0_1_22,2021-04-24T12:32:40.391Z,,,,,,,,,,,,,,,,,53,,,,,,,,,,,,,,670.9849999783182,,response,,,,99,,,,,,,Space,keypress(Space),,,,,,,,---- -- ----- -- ------ - ------- --- ----------<br>------------- ------ ------ ---- ---- ------- ----- -- ----<br>-------- ------- -- ---------- But - --- ----- ----- ----<br>---- --- --- ----- --- ---- ---- ------- ----- ---- -------<br>--- --- -- ----- -- --- ---- -- --- ---- -- ------ ------<br>--- ----- -- ----,109575.40999993216,109575.09499997832,108897.089,108898.8749999553,108904.11,109577.576,,22,But
screen,html.Screen,2_1_0_1_23,2021-04-24T12:32:40.781Z,,,,,,,,,,,,,,,,,53,,,,,,,,,,,,,,387.2589999915799,,response,,,,99,,,,,,,Space,keypress(Space),,,,,,,,---- -- ----- -- ------ - ------- --- ----------<br>------------- ------ ------ ---- ---- ------- ----- -- ----<br>-------- ------- -- ---------- --- a --- ----- ----- ----<br>---- --- --- ----- --- ---- ---- ------- ----- ---- -------<br>--- --- -- ----- -- --- ---- -- --- ---- -- ------ ------<br>--- ----- -- ----,109965.08999995422,109964.83499999158,109570.815,109575.47999999952,109577.576,109966.436,,23,a
screen,html.Screen,2_1_0_1_24,2021-04-24T12:32:41.053Z,,,,,,,,,,,,,,,,,53,,,,,,,,,,,,,,270.5439999287337,,response,,,,99,,,,,,,Space,keypress(Space),,,,,,,,---- -- ----- -- ------ - ------- --- ----------<br>------------- ------ ------ ---- ---- ------- ----- -- ----<br>-------- ------- -- ---------- --- - new ----- ----- ----<br>---- --- --- ----- --- ---- ---- ------- ----- ---- -------<br>--- --- -- ----- -- --- ---- -- --- ---- -- ------ ------<br>--- ----- -- ----,110237.26500000339,110236.97999992874,109959.58,109965.15999990515,109966.436,110244.306,,24,new
screen,html.Screen,2_1_0_1_25,2021-04-24T12:32:41.457Z,,,,,,,,,,,,,,,,,53,,,,,,,,,,,,,,396.32899995973276,,response,,,,99,,,,,,,Space,keypress(Space),,,,,,,,---- -- ----- -- ------ - ------- --- ----------<br>------------- ------ ------ ---- ---- ------- ----- -- ----<br>-------- ------- -- ---------- --- - --- study ----- ----<br>---- --- --- ----- --- ---- ---- ------- ----- ---- -------<br>--- --- -- ----- -- --- ---- -- --- ---- -- ------ ------<br>--- ----- -- ----,110640.93999995384,110640.63499995973,110237.313,110237.33499995433,110244.306,110646.969,,25,study
screen,html.Screen,2_1_0_1_26,2021-04-24T12:32:41.664Z,,,,,,,,,,,,,,,,,53,,,,,,,,,,,,,,201.0459999959421,,response,,,,99,,,,,,,Space,keypress(Space),,,,,,,,---- -- ----- -- ------ - ------- --- ----------<br>------------- ------ ------ ---- ---- ------- ----- -- ----<br>-------- ------- -- ---------- --- - --- ----- finds ----<br>---- --- --- ----- --- ---- ---- ------- ----- ---- -------<br>--- --- -- ----- -- --- ---- -- --- ---- -- ------ ------<br>--- ----- -- ----,110848.34999998566,110848.01499999594,110640.043,110641.00999990478,110646.969,110855.274,,26,finds
screen,html.Screen,2_1_0_1_27,2021-04-24T12:32:43.079Z,,,,,,,,,,,,,,,,,53,,,,,,,,,,,,,,1407.5009999519389,,response,,,,99,,,,,,,Space,keypress(Space),,,,,,,,---- -- ----- -- ------ - ------- --- ----------<br>------------- ------ ------ ---- ---- ------- ----- -- ----<br>-------- ------- -- ---------- --- - --- ----- ----- that<br>---- --- --- ----- --- ---- ---- ------- ----- ---- -------<br>--- --- -- ----- -- --- ---- -- --- ---- -- ------ ------<br>--- ----- -- ----,112263.03499995265,112262.77499995194,110848.369,110848.41499989852,110855.274,112264.786,,27,that
screen,html.Screen,2_1_0_1_28,2021-04-24T12:32:43.541Z,,,,,,,,,,,,,,,,,53,,,,,,,,,,,,,,460.01399996722466,,response,,,,99,,,,,,,Space,keypress(Space),,,,,,,,---- -- ----- -- ------ - ------- --- ----------<br>------------- ------ ------ ---- ---- ------- ----- -- ----<br>-------- ------- -- ---------- --- - --- ----- ----- ----<br>it's --- --- ----- --- ---- ---- ------- ----- ---- -------<br>--- --- -- ----- -- --- ---- -- --- ---- -- ------ ------<br>--- ----- -- ----,112725.07999988738,112724.79999996722,112258.005,112263.10499990359,112264.786,112730.027,,28,it's
screen,html.Screen,2_1_0_1_29,2021-04-24T12:32:43.816Z,,,,,,,,,,,,,,,,,53,,,,,,,,,,,,,,270.16799997142516,,response,,,,99,,,,,,,Space,keypress(Space),,,,,,,,---- -- ----- -- ------ - ------- --- ----------<br>------------- ------ ------ ---- ---- ------- ----- -- ----<br>-------- ------- -- ---------- --- - --- ----- ----- ----<br>---- not --- ----- --- ---- ---- ------- ----- ---- -------<br>--- --- -- ----- -- --- ---- -- --- ---- -- ------ ------<br>--- ----- -- ----,113000.44999993406,113000.19499997143,112723.117,112725.14999995474,112730.027,113022.585,,29,not
screen,html.Screen,2_1_0_1_30,2021-04-24T12:32:44.051Z,,,,,,,,,,,,,,,,,53,,,,,,,,,,,,,,212.0249999267544,,response,,,,99,,,,,,,Space,keypress(Space),,,,,,,,---- -- ----- -- ------ - ------- --- ----------<br>------------- ------ ------ ---- ---- ------- ----- -- ----<br>-------- ------- -- ---------- --- - --- ----- ----- ----<br>---- --- how ----- --- ---- ---- ------- ----- ---- -------<br>--- --- -- ----- -- --- ---- -- --- ---- -- ------ ------<br>--- ----- -- ----,113234.91499992087,113234.60999992676,112994.04,113000.52000000142,113022.585,113236.904,,30,how
screen,html.Screen,2_1_0_1_31,2021-04-24T12:32:44.512Z,,,,,,,,,,,,,,,,,53,,,,,,,,,,,,,,459.30099992743635,,response,,,,99,,,,,,,Space,keypress(Space),,,,,,,,---- -- ----- -- ------ - ------- --- ----------<br>------------- ------ ------ ---- ---- ------- ----- -- ----<br>-------- ------- -- ---------- --- - --- ----- ----- ----<br>---- --- --- close --- ---- ---- ------- ----- ---- -------<br>--- --- -- ----- -- --- ---- -- --- ---- -- ------ ------<br>--- ----- -- ----,113696.51499995962,113696.20499992743,113230.066,113234.98499998823,113236.904,113702.157,,31,close
screen,html.Screen,2_1_0_1_32,2021-04-24T12:32:44.786Z,,,,,,,,,,,,,,,,,53,,,,,,,,,,,,,,267.20299998822156,,response,,,,99,,,,,,,Space,keypress(Space),,,,,,,,---- -- ----- -- ------ - ------- --- ----------<br>------------- ------ ------ ---- ---- ------- ----- -- ----<br>-------- ------- -- ---------- --- - --- ----- ----- ----<br>---- --- --- ----- you ---- ---- ------- ----- ---- -------<br>--- --- -- ----- -- --- ---- -- --- ---- -- ------ ------<br>--- ----- -- ----,113969.6249999106,113969.35999998823,113695.279,113696.58499991056,113702.157,113972.945,,32,you
screen,html.Screen,2_1_0_1_33,2021-04-24T12:32:45.202Z,,,,,,,,,,,,,,,,,53,,,,,,,,,,,,,,412.72499998874264,,response,,,,99,,,,,,,Space,keypress(Space),,,,,,,,---- -- ----- -- ------ - ------- --- ----------<br>------------- ------ ------ ---- ---- ------- ----- -- ----<br>-------- ------- -- ---------- --- - --- ----- ----- ----<br>---- --- --- ----- --- feel ---- ------- ----- ---- -------<br>--- --- -- ----- -- --- ---- -- --- ---- -- ------ ------<br>--- ----- -- ----,114385.97499998286,114385.66999998875,113966.203,113969.69499997795,113972.945,114389.588,,33,feel
screen,html.Screen,2_1_0_1_34,2021-04-24T12:32:45.543Z,,,,,,,,,,,,,,,,,53,,,,,,,,,,,,,,336.871999918003,,response,,,,99,,,,,,,Space,keypress(Space),,,,,,,,---- -- ----- -- ------ - ------- --- ----------<br>------------- ------ ------ ---- ---- ------- ----- -- ----<br>-------- ------- -- ---------- --- - --- ----- ----- ----<br>---- --- --- ----- --- ---- that ------- ----- ---- -------<br>--- --- -- ----- -- --- ---- -- --- ---- -- ------ ------<br>--- ----- -- ----,114726.859999937,114726.459999918,114382.81,114386.0449999338,114389.588,114729.82,,34,that
screen,html.Screen,2_1_0_1_35,2021-04-24T12:32:45.942Z,,,,,,,,,,,,,,,,,53,,,,,,,,,,,,,,396.21499996475177,,response,,,,99,,,,,,,Space,keypress(Space),,,,,,,,---- -- ----- -- ------ - ------- --- ----------<br>------------- ------ ------ ---- ---- ------- ----- -- ----<br>-------- ------- -- ---------- --- - --- ----- ----- ----<br>---- --- --- ----- --- ---- ---- matters ----- ---- -------<br>--- --- -- ----- -- --- ---- -- --- ---- -- ------ ------<br>--- ----- -- ----,115126.38499995228,115126.03499996476,114722.986,114726.92999988794,114729.82,115132.622,,35,matters
screen,html.Screen,2_1_0_1_36,2021-04-24T12:32:46.279Z,,,,,,,,,,,,,,,,,53,,,,,,,,,,,,,,330.0029999273538,,response,,,,99,,,,,,,Space,keypress(Space),,,,,,,,"---- -- ----- -- ------ - ------- --- ----------<br>------------- ------ ------ ---- ---- ------- ----- -- ----<br>-------- ------- -- ---------- --- - --- ----- ----- ----<br>---- --- --- ----- --- ---- ---- ------- most, ---- -------<br>--- --- -- ----- -- --- ---- -- --- ---- -- ------ ------<br>--- ----- -- ----",115462.91499992367,115462.62499992736,115125.765,115126.7649999354,115132.622,115465.944,,36,"most,"
screen,html.Screen,2_1_0_1_37,2021-04-24T12:32:46.865Z,,,,,,,,,,,,,,,,,53,,,,,,,,,,,,,,582.7609999646811,,response,,,,99,,,,,,,Space,keypress(Space),,,,,,,,---- -- ----- -- ------ - ------- --- ----------<br>------------- ------ ------ ---- ---- ------- ----- -- ----<br>-------- ------- -- ---------- --- - --- ----- ----- ----<br>---- --- --- ----- --- ---- ---- ------- ----- it's -------<br>--- --- -- ----- -- --- ---- -- --- ---- -- ------ ------<br>--- ----- -- ----,116048.94999996759,116048.70499996468,115458.954,115462.98999991268,115465.944,116063.127,,37,it's
screen,html.Screen,2_1_0_1_38,2021-04-24T12:32:47.239Z,,,,,,,,,,,,,,,,,53,,,,,,,,,,,,,,359.5280000021303,,response,,,,99,,,,,,,Space,keypress(Space),,,,,,,,---- -- ----- -- ------ - ------- --- ----------<br>------------- ------ ------ ---- ---- ------- ----- -- ----<br>-------- ------- -- ---------- --- - --- ----- ----- ----<br>---- --- --- ----- --- ---- ---- ------- ----- ---- whether<br>--- --- -- ----- -- --- ---- -- --- ---- -- ------ ------<br>--- ----- -- ----,116422.93999996036,116422.65500000212,116056.099,116049.01499999687,116063.127,116440.633,,38,whether
screen,html.Screen,2_1_0_1_39,2021-04-24T12:32:47.604Z,,,,,,,,,,,,,,,,,53,,,,,,,,,,,,,,347.49700000081793,,response,,,,99,,,,,,,Space,keypress(Space),,,,,,,,---- -- ----- -- ------ - ------- --- ----------<br>------------- ------ ------ ---- ---- ------- ----- -- ----<br>-------- ------- -- ---------- --- - --- ----- ----- ----<br>---- --- --- ----- --- ---- ---- ------- ----- ---- -------<br>you --- -- ----- -- --- ---- -- --- ---- -- ------ ------<br>--- ----- -- ----,116788.41999999713,116788.13000000082,116417.203,116423.0099999113,116440.633,116792.134,,39,you
screen,html.Screen,2_1_0_1_40,2021-04-24T12:32:47.808Z,,,,,,,,,,,,,,,,,53,,,,,,,,,,,,,,200.01599994728167,,response,,,,99,,,,,,,Space,keypress(Space),,,,,,,,---- -- ----- -- ------ - ------- --- ----------<br>------------- ------ ------ ---- ---- ------- ----- -- ----<br>-------- ------- -- ---------- --- - --- ----- ----- ----<br>---- --- --- ----- --- ---- ---- ------- ----- ---- -------<br>--- are -- ----- -- --- ---- -- --- ---- -- ------ ------<br>--- ----- -- ----,116992.49499989673,116992.14999994729,116785.324,116788.48499991,116792.134,117003.33,,40,are
screen,html.Screen,2_1_0_1_41,2021-04-24T12:32:48.558Z,,,,,,,,,,,,,,,,,53,,,,,,,,,,,,,,738.259999990536,,response,,,,99,,,,,,,Space,keypress(Space),,,,,,,,---- -- ----- -- ------ - ------- --- ----------<br>------------- ------ ------ ---- ---- ------- ----- -- ----<br>-------- ------- -- ---------- --- - --- ----- ----- ----<br>---- --- --- ----- --- ---- ---- ------- ----- ---- -------<br>--- --- as ----- -- --- ---- -- --- ---- -- ------ ------<br>--- ----- -- ----,117741.87499994878,117741.58999999054,116986.582,116992.55999992602,117003.33,117743.435,,41,as
screen,html.Screen,2_1_0_1_42,2021-04-24T12:32:49.009Z,,,,,,,,,,,,,,,,,53,,,,,,,,,,,,,,449.1949999468052,,response,,,,99,,,,,,,Space,keypress(Space),,,,,,,,---- -- ----- -- ------ - ------- --- ----------<br>------------- ------ ------ ---- ---- ------- ----- -- ----<br>-------- ------- -- ---------- --- - --- ----- ----- ----<br>---- --- --- ----- --- ---- ---- ------- ----- ---- -------<br>--- --- -- close -- --- ---- -- --- ---- -- ------ ------<br>--- ----- -- ----,118192.92499998119,118192.6299999468,117736.566,117741.94499989972,117743.435,118194.751,,42,close
screen,html.Screen,2_1_0_1_43,2021-04-24T12:32:49.297Z,,,,,,,,,,,,,,,,,53,,,,,,,,,,,,,,285.6739999579004,,response,,,,99,,,,,,,Space,keypress(Space),,,,,,,,---- -- ----- -- ------ - ------- --- ----------<br>------------- ------ ------ ---- ---- ------- ----- -- ----<br>-------- ------- -- ---------- --- - --- ----- ----- ----<br>---- --- --- ----- --- ---- ---- ------- ----- ---- -------<br>--- --- -- ----- as --- ---- -- --- ---- -- ------ ------<br>--- ----- -- ----,118480.66999996081,118480.4249999579,118187.806,118192.9849999724,118194.751,118486.473,,43,as
screen,html.Screen,2_1_0_1_44,2021-04-24T12:32:49.668Z,,,,,,,,,,,,,,,,,53,,,,,,,,,,,,,,365.4469999282155,,response,,,,99,,,,,,,Space,keypress(Space),,,,,,,,---- -- ----- -- ------ - ------- --- ----------<br>------------- ------ ------ ---- ---- ------- ----- -- ----<br>-------- ------- -- ---------- --- - --- ----- ----- ----<br>---- --- --- ----- --- ---- ---- ------- ----- ---- -------<br>--- --- -- ----- -- you ---- -- --- ---- -- ------ ------<br>--- ----- -- ----,118852.22000000067,118851.91999992821,118479.495,118480.73999991175,118486.473,118854.405,,44,you
screen,html.Screen,2_1_0_1_45,2021-04-24T12:32:50.088Z,,,,,,,,,,,,,,,,,53,,,,,,,,,,,,,,416.75499988746014,,response,,,,99,,,,,,,Space,keypress(Space),,,,,,,,---- -- ----- -- ------ - ------- --- ----------<br>------------- ------ ------ ---- ---- ------- ----- -- ----<br>-------- ------- -- ---------- --- - --- ----- ----- ----<br>---- --- --- ----- --- ---- ---- ------- ----- ---- -------<br>--- --- -- ----- -- --- want -- --- ---- -- ------ ------<br>--- ----- -- ----,119271.59499994013,119271.15999988746,118847.484,118852.94999997132,118854.405,119277.983,,45,want
screen,html.Screen,2_1_0_1_46,2021-04-24T12:32:50.446Z,,,,,,,,,,,,,,,,,53,,,,,,,,,,,,,,351.82699995489384,,response,,,,99,,,,,,,Space,keypress(Space),,,,,,,,---- -- ----- -- ------ - ------- --- ----------<br>------------- ------ ------ ---- ---- ------- ----- -- ----<br>-------- ------- -- ---------- --- - --- ----- ----- ----<br>---- --- --- ----- --- ---- ---- ------- ----- ---- -------<br>--- --- -- ----- -- --- ---- to --- ---- -- ------ ------<br>--- ----- -- ----,119630.08999999147,119629.80999995489,119271.064,119271.66499989107,119277.983,119632.107,,46,to
screen,html.Screen,2_1_0_1_47,2021-04-24T12:32:50.821Z,,,,,,,,,,,,,,,,,53,,,,,,,,,,,,,,372.21799998714414,,response,,,,99,,,,,,,Space,keypress(Space),,,,,,,,"---- -- ----- -- ------ - ------- --- ----------<br>------------- ------ ------ ---- ---- ------- ----- -- ----<br>-------- ------- -- ---------- --- - --- ----- ----- ----<br>---- --- --- ----- --- ---- ---- ------- ----- ---- -------<br>--- --- -- ----- -- --- ---- -- be, ---- -- ------ ------<br>--- ----- -- ----",120004.62999998126,120004.32499998715,119625.213,119630.1599999424,119632.107,120007.057,,47,"be,"
screen,html.Screen,2_1_0_1_48,2021-04-24T12:32:51.325Z,,,,,,,,,,,,,,,,,53,,,,,,,,,,,,,,501.9429999618151,,response,,,,99,,,,,,,Space,keypress(Space),,,,,,,,---- -- ----- -- ------ - ------- --- ----------<br>------------- ------ ------ ---- ---- ------- ----- -- ----<br>-------- ------- -- ---------- --- - --- ----- ----- ----<br>---- --- --- ----- --- ---- ---- ------- ----- ---- -------<br>--- --- -- ----- -- --- ---- -- --- even -- ------ ------<br>--- ----- -- ----,120509.31999995373,120508.99999996182,120000.267,120004.69499989413,120007.057,120514.034,,48,even
screen,html.Screen,2_1_0_1_49,2021-04-24T12:32:52.171Z,,,,,,,,,,,,,,,,,53,,,,,,,,,,,,,,840.3559999931458,,response,,,,99,,,,,,,Space,keypress(Space),,,,,,,,---- -- ----- -- ------ - ------- --- ----------<br>------------- ------ ------ ---- ---- ------- ----- -- ----<br>-------- ------- -- ---------- --- - --- ----- ----- ----<br>---- --- --- ----- --- ---- ---- ------- ----- ---- -------<br>--- --- -- ----- -- --- ---- -- --- ---- if ------ ------<br>--- ----- -- ----,121354.73999998067,121354.38999999315,120507.106,120509.37999994494,120514.034,121361.172,,49,if
screen,html.Screen,2_1_0_1_50,2021-04-24T12:32:52.544Z,,,,,,,,,,,,,,,,,53,,,,,,,,,,,,,,366.5579999259353,,response,,,,99,,,,,,,Space,keypress(Space),,,,,,,,---- -- ----- -- ------ - ------- --- ----------<br>------------- ------ ------ ---- ---- ------- ----- -- ----<br>-------- ------- -- ---------- --- - --- ----- ----- ----<br>---- --- --- ----- --- ---- ---- ------- ----- ---- -------<br>--- --- -- ----- -- --- ---- -- --- ---- -- that's ------<br>--- ----- -- ----,121728.06999995373,121727.72999992594,121354.319,121354.80499989353,121361.172,121746.426,,50,that's
screen,html.Screen,2_1_0_1_51,2021-04-24T12:32:52.868Z,,,,,,,,,,,,,,,,,53,,,,,,,,,,,,,,305.7789999562956,,response,,,,99,,,,,,,Space,keypress(Space),,,,,,,,---- -- ----- -- ------ - ------- --- ----------<br>------------- ------ ------ ---- ---- ------- ----- -- ----<br>-------- ------- -- ---------- --- - --- ----- ----- ----<br>---- --- --- ----- --- ---- ---- ------- ----- ---- -------<br>--- --- -- ----- -- --- ---- -- --- ---- -- ------ really<br>--- ----- -- ----,122052.53499990795,122052.2049999563,121722.314,121728.12999994494,121746.426,122055.473,,51,really
screen,html.Screen,2_1_0_1_52,2021-04-24T12:32:53.191Z,,,,,,,,,,,,,,,,,53,,,,,,,,,,,,,,319.45199989457615,,response,,,,99,,,,,,,Space,keypress(Space),,,,,,,,---- -- ----- -- ------ - ------- --- ----------<br>------------- ------ ------ ---- ---- ------- ----- -- ----<br>-------- ------- -- ---------- --- - --- ----- ----- ----<br>---- --- --- ----- --- ---- ---- ------- ----- ---- -------<br>--- --- -- ----- -- --- ---- -- --- ---- -- ------ ------<br>not ----- -- ----,122375.17999997362,122374.92499989457,122048.668,122052.59499989916,122055.473,122381.891,,52,not
screen,html.Screen,2_1_0_1_53,2021-04-24T12:32:53.577Z,,,,,,,,,,,,,,,,,53,,,,,,,,,,,,,,379.24899995868327,,response,,,,99,,,,,,,Space,keypress(Space),,,,,,,,---- -- ----- -- ------ - ------- --- ----------<br>------------- ------ ------ ---- ---- ------- ----- -- ----<br>-------- ------- -- ---------- --- - --- ----- ----- ----<br>---- --- --- ----- --- ---- ---- ------- ----- ---- -------<br>--- --- -- ----- -- --- ---- -- --- ---- -- ------ ------<br>--- close -- ----,122761.4449999528,122761.13999995869,122375.012,122375.23999996483,122381.891,122763.718,,53,close
screen,html.Screen,2_1_0_1_54,2021-04-24T12:32:53.914Z,,,,,,,,,,,,,,,,,53,,,,,,,,,,,,,,333.9419999703532,,response,,,,99,,,,,,,Space,keypress(Space),,,,,,,,---- -- ----- -- ------ - ------- --- ----------<br>------------- ------ ------ ---- ---- ------- ----- -- ----<br>-------- ------- -- ---------- --- - --- ----- ----- ----<br>---- --- --- ----- --- ---- ---- ------- ----- ---- -------<br>--- --- -- ----- -- --- ---- -- --- ---- -- ------ ------<br>--- ----- at ----,123097.95499988832,123097.65999997035,122756.835,122761.50999998208,122763.718,123103.996,,54,at
screen,html.Screen,2_1_0_1_55,2021-04-24T12:32:54.753Z,,,,,,,,,,,,,,,,,53,,,,,,,,,,,,,,833.2290000014909,,response,,,,99,,,,,,,Space,keypress(Space),,,,,,,,---- -- ----- -- ------ - ------- --- ----------<br>------------- ------ ------ ---- ---- ------- ----- -- ----<br>-------- ------- -- ---------- --- - --- ----- ----- ----<br>---- --- --- ----- --- ---- ---- ------- ----- ---- -------<br>--- --- -- ----- -- --- ---- -- --- ---- -- ------ ------<br>--- ----- -- all.,123937.50499992166,123937.22500000149,123097.177,123098.0199999176,123103.996,123944.158,,55,all.
Item 99,flow.Loop,2_1_0_1,2021-04-24T12:32:54.753Z,,,,,,,,,,,,,,,,,,,,,,,,,,,,,,,28219.306000001496,,completion,,,,,A,,,,,,,,,,,silence,,,,,123937.62499990407,123937.22500000149,95710.98,95711.38499991503,95717.919,123944.158,,,
Question 1,html.Screen,2_1_0_2,2021-04-24T12:33:13.190Z,,,,,,,,,,,,,,,,,,,,,,,,,,,,true,FALSE,,18430.04700000008,,response,,,,99,A,,,,,,FALSE,click #choice-2,,,,silence,,,,,142374.75999991875,142374.20500000007,123937.377,123937.67999997362,123944.158,142379.835,,,
Question 2,html.Screen,2_1_0_3,2021-04-24T12:33:17.804Z,,,,,,,,,,,,,,,,,,,,,,,,,,,,true,TRUE,,4608.240000001126,,response,,,,99,A,,,,,,TRUE,click #choice-1,,,,silence,,,,,146988.53999993298,146988.07500000112,142372.982,142374.8299999861,142379.835,146990.418,,,
Item 99,flow.Sequence,2_1_0,2021-04-24T12:33:17.804Z,,,,,,,,,,,,,,,,,,,,,,,,,,,,,,,61269.11000000112,,completion,,,,,,,,,,,,,,,,,,,,,146988.6449999176,146988.07500000112,85712.051,85714.68999993522,85718.965,146990.418,,,
Holding screen,html.Screen,2_1_1_0,2021-04-24T12:33:27.799Z,,,,,,,,,,,,,,,,,,,,,,,,,,,,,,,9999.033999999985,,timeout,,,,,,,,,,,,,,,,,,,,,156982.93499997817,156982.581,146983.621,146988.7049999088,146990.418,156989.452,,,
screen,html.Screen,2_1_1_1_0,2021-04-24T12:33:28.882Z,,,,,,,,,,,,,,,,,54,,,,,,,,,,,,,,1076.9729999681585,,response,,,,100,,,,,,,Space,keypress(Space),,,,,,,,At --- ---- --- ------ ----- ------- ---- -- --- ------- --<br>------- ---------- ------ -- ----- -- ----- -- ---- ------<br>--- ----- --- --- ------ -------- ----- --- ------ ----- --<br>----- ----- ---------- --- --- ------ ------ ---- -- ------<br>------- --- ------ ----- --- ---- ------- -- ---- --- --<br>------- ------,158066.75999995787,158066.42499996815,156982.581,156983.03000000305,156989.452,158072.598,,0,At
screen,html.Screen,2_1_1_1_1,2021-04-24T12:33:29.224Z,,,,,,,,,,,,,,,,,54,,,,,,,,,,,,,,335.71199996978976,,response,,,,100,,,,,,,Space,keypress(Space),,,,,,,,-- the ---- --- ------ ----- ------- ---- -- --- ------- --<br>------- ---------- ------ -- ----- -- ----- -- ---- ------<br>--- ----- --- --- ------ -------- ----- --- ------ ----- --<br>----- ----- ---------- --- --- ------ ------ ---- -- ------<br>------- --- ------ ----- --- ---- ------- -- ---- --- --<br>------- ------,158408.6149999639,158408.3099999698,158065.692,158066.82499998715,158072.598,158412.864,,1,the
screen,html.Screen,2_1_1_1_2,2021-04-24T12:33:29.531Z,,,,,,,,,,,,,,,,,54,,,,,,,,,,,,,,302.08099989785114,,response,,,,100,,,,,,,Space,keypress(Space),,,,,,,,-- --- time --- ------ ----- ------- ---- -- --- ------- --<br>------- ---------- ------ -- ----- -- ----- -- ---- ------<br>--- ----- --- --- ------ -------- ----- --- ------ ----- --<br>----- ----- ---------- --- --- ------ ------ ---- -- ------<br>------- --- ------ ----- --- ---- ------- -- ---- --- --<br>------- ------,158715.24999989197,158714.94499989785,158406.064,158408.67999999318,158412.864,158718.403,,2,time
screen,html.Screen,2_1_1_1_3,2021-04-24T12:33:30.507Z,,,,,,,,,,,,,,,,,54,,,,,,,,,,,,,,972.4219999396591,,response,,,,100,,,,,,,Space,keypress(Space),,,,,,,,-- --- ---- the ------ ----- ------- ---- -- --- ------- --<br>------- ---------- ------ -- ----- -- ----- -- ---- ------<br>--- ----- --- --- ------ -------- ----- --- ------ ----- --<br>----- ----- ---------- --- --- ------ ------ ---- -- ------<br>------- --- ------ ----- --- ---- ------- -- ---- --- --<br>------- ------,159691.14999996964,159690.82499993965,158711.484,158715.3099999996,158718.403,159697.476,,3,the
screen,html.Screen,2_1_1_1_4,2021-04-24T12:33:30.948Z,,,,,,,,,,,,,,,,,54,,,,,,,,,,,,,,434.3089999759395,,response,,,,100,,,,,,,Space,keypress(Space),,,,,,,,-- --- ---- --- French ----- ------- ---- -- --- ------- --<br>------- ---------- ------ -- ----- -- ----- -- ---- ------<br>--- ----- --- --- ------ -------- ----- --- ------ ----- --<br>----- ----- ---------- --- --- ------ ------ ---- -- ------<br>------- --- ------ ----- --- ---- ------- -- ---- --- --<br>------- ------,160132.06999993417,160131.78499997593,159690.676,159691.21999992058,159697.476,160134.915,,4,French
screen,html.Screen,2_1_1_1_5,2021-04-24T12:33:31.337Z,,,,,,,,,,,,,,,,,54,,,,,,,,,,,,,,386.5849999152415,,response,,,,100,,,,,,,Space,keypress(Space),,,,,,,,-- --- ---- --- ------ crown ------- ---- -- --- ------- --<br>------- ---------- ------ -- ----- -- ----- -- ---- ------<br>--- ----- --- --- ------ -------- ----- --- ------ ----- --<br>----- ----- ---------- --- --- ------ ------ ---- -- ------<br>------- --- ------ ----- --- ---- ------- -- ---- --- --<br>------- ------,160521.7249999987,160521.49999991525,160128.006,160132.13499996345,160134.915,160523.708,,5,crown
screen,html.Screen,2_1_1_1_6,2021-04-24T12:33:31.906Z,,,,,,,,,,,,,,,,,54,,,,,,,,,,,,,,566.6769999885873,,response,,,,100,,,,,,,Space,keypress(Space),,,,,,,,-- --- ---- --- ------ ----- secured ---- -- --- ------- --<br>------- ---------- ------ -- ----- -- ----- -- ---- ------<br>--- ----- --- --- ------ -------- ----- --- ------ ----- --<br>----- ----- ---------- --- --- ------ ------ ---- -- ------<br>------- --- ------ ----- --- ---- ------- -- ---- --- --<br>------- ------,161090.66999994684,161090.3849999886,160516.871,160521.79499994963,160523.708,161093.127,,6,secured
screen,html.Screen,2_1_1_1_7,2021-04-24T12:33:32.242Z,,,,,,,,,,,,,,,,,54,,,,,,,,,,,,,,332.6979999256728,,response,,,,100,,,,,,,Space,keypress(Space),,,,,,,,-- --- ---- --- ------ ----- ------- much -- --- ------- --<br>------- ---------- ------ -- ----- -- ----- -- ---- ------<br>--- ----- --- --- ------ -------- ----- --- ------ ----- --<br>----- ----- ---------- --- --- ------ ------ ---- -- ------<br>------- --- ------ ----- --- ---- ------- -- ---- --- --<br>------- ------,161426.13999999594,161425.82499992568,161086.347,161090.72999993805,161093.127,161433.384,,7,much
screen,html.Screen,2_1_1_1_8,2021-04-24T12:33:32.576Z,,,,,,,,,,,,,,,,,54,,,,,,,,,,,,,,327.1459999704675,,response,,,,100,,,,,,,Space,keypress(Space),,,,,,,,-- --- ---- --- ------ ----- ------- ---- of --- ------- --<br>------- ---------- ------ -- ----- -- ----- -- ---- ------<br>--- ----- --- --- ------ -------- ----- --- ------ ----- --<br>----- ----- ---------- --- --- ------ ------ ---- -- ------<br>------- --- ------ ----- --- ---- ------- -- ---- --- --<br>------- ------,161760.77499997336,161760.52999997046,161419.517,161426.2049999088,161433.384,161766.689,,8,of
screen,html.Screen,2_1_1_1_9,2021-04-24T12:33:33.086Z,,,,,,,,,,,,,,,,,54,,,,,,,,,,,,,,503.18099996005185,,response,,,,100,,,,,,,Space,keypress(Space),,,,,,,,-- --- ---- --- ------ ----- ------- ---- -- its ------- --<br>------- ---------- ------ -- ----- -- ----- -- ---- ------<br>--- ----- --- --- ------ -------- ----- --- ------ ----- --<br>----- ----- ---------- --- --- ------ ------ ---- -- ------<br>------- --- ------ ----- --- ---- ------- -- ---- --- --<br>------- ------,162270.1549999183,162269.86999996006,161759.763,161760.83499996457,161766.689,162273.529,,9,its
screen,html.Screen,2_1_1_1_10,2021-04-24T12:33:33.407Z,,,,,,,,,,,,,,,,,54,,,,,,,,,,,,,,317.14099994683056,,response,,,,100,,,,,,,Space,keypress(Space),,,,,,,,-- --- ---- --- ------ ----- ------- ---- -- --- revenue --<br>------- ---------- ------ -- ----- -- ----- -- ---- ------<br>--- ----- --- --- ------ -------- ----- --- ------ ----- --<br>----- ----- ---------- --- --- ------ ------ ---- -- ------<br>------- --- ------ ----- --- ---- ------- -- ---- --- --<br>------- ------,162590.97999997903,162590.66999994684,162266.696,162270.21999994759,162273.529,162592.942,,10,revenue
screen,html.Screen,2_1_1_1_11,2021-04-24T12:33:33.971Z,,,,,,,,,,,,,,,,,54,,,,,,,,,,,,,,561.8429999042128,,response,,,,100,,,,,,,Space,keypress(Space),,,,,,,,-- --- ---- --- ------ ----- ------- ---- -- --- ------- by<br>------- ---------- ------ -- ----- -- ----- -- ---- ------<br>--- ----- --- --- ------ -------- ----- --- ------ ----- --<br>----- ----- ---------- --- --- ------ ------ ---- -- ------<br>------- --- ------ ----- --- ---- ------- -- ---- --- --<br>------- ------,163155.0649999408,163154.78499990422,162586.186,162591.0449998919,162592.942,163162.381,,11,by
screen,html.Screen,2_1_1_1_12,2021-04-24T12:33:34.684Z,,,,,,,,,,,,,,,,,54,,,,,,,,,,,,,,705.8539999435307,,response,,,,100,,,,,,,Space,keypress(Space),,,,,,,,-- --- ---- --- ------ ----- ------- ---- -- --- ------- --<br>issuing ---------- ------ -- ----- -- ----- -- ---- ------<br>--- ----- --- --- ------ -------- ----- --- ------ ----- --<br>----- ----- ---------- --- --- ------ ------ ---- -- ------<br>------- --- ------ ----- --- ---- ------- -- ---- --- --<br>------- ------,163868.57499997132,163868.23499994352,163148.492,163155.1299999701,163162.381,163870.59,,12,issuing
screen,html.Screen,2_1_1_1_13,2021-04-24T12:33:36.017Z,,,,,,,,,,,,,,,,,54,,,,,,,,,,,,,,1330.5699999386852,,response,,,,100,,,,,,,Space,keypress(Space),,,,,,,,-- --- ---- --- ------ ----- ------- ---- -- --- ------- --<br>------- government ------ -- ----- -- ----- -- ---- ------<br>--- ----- --- --- ------ -------- ----- --- ------ ----- --<br>----- ----- ---------- --- --- ------ ------ ---- -- ------<br>------- --- ------ ----- --- ---- ------- -- ---- --- --<br>------- ------,165201.449999935,165201.15999993868,163863.773,163868.63499996252,163870.59,165203.758,,13,government
screen,html.Screen,2_1_1_1_14,2021-04-24T12:33:38.115Z,,,,,,,,,,,,,,,,,54,,,,,,,,,,,,,,2095.0169999156205,,response,,,,100,,,,,,,Space,keypress(Space),,,,,,,,-- --- ---- --- ------ ----- ------- ---- -- --- ------- --<br>------- ---------- bonds. -- ----- -- ----- -- ---- ------<br>--- ----- --- --- ------ -------- ----- --- ------ ----- --<br>----- ----- ---------- --- --- ------ ------ ---- -- ------<br>------- --- ------ ----- --- ---- ------- -- ---- --- --<br>------- ------,167299.07999990974,167298.77499991562,165196.909,165201.5099999262,165203.758,167300.841,,14,bonds.
screen,html.Screen,2_1_1_1_15,2021-04-24T12:33:38.521Z,,,,,,,,,,,,,,,,,54,,,,,,,,,,,,,,403.91399995519896,,response,,,,100,,,,,,,Space,keypress(Space),,,,,,,,-- --- ---- --- ------ ----- ------- ---- -- --- ------- --<br>------- ---------- ------ In ----- -- ----- -- ---- ------<br>--- ----- --- --- ------ -------- ----- --- ------ ----- --<br>----- ----- ---------- --- --- ------ ------ ---- -- ------<br>------- --- ------ ----- --- ---- ------- -- ---- --- --<br>------- ------,167705.0449999515,167704.75499995518,167294.015,167299.14499993902,167300.841,167710.457,,15,In
screen,html.Screen,2_1_1_1_16,2021-04-24T12:33:39.757Z,,,,,,,,,,,,,,,,,54,,,,,,,,,,,,,,1230.6329999784357,,response,,,,100,,,,,,,Space,keypress(Space),,,,,,,,"-- --- ---- --- ------ ----- ------- ---- -- --- ------- --<br>------- ---------- ------ -- 1727, -- ----- -- ---- ------<br>--- ----- --- --- ------ -------- ----- --- ------ ----- --<br>----- ----- ---------- --- --- ------ ------ ---- -- ------<br>------- --- ------ ----- --- ---- ------- -- ---- --- --<br>------- ------",168941.4299998898,168941.08999997843,167703.592,167705.10999998078,167710.457,168946.563,,16,"1727,"
screen,html.Screen,2_1_1_1_17,2021-04-24T12:33:40.095Z,,,,,,,,,,,,,,,,,54,,,,,,,,,,,,,,332.2569998904073,,response,,,,100,,,,,,,Space,keypress(Space),,,,,,,,-- --- ---- --- ------ ----- ------- ---- -- --- ------- --<br>------- ---------- ------ -- ----- in ----- -- ---- ------<br>--- ----- --- --- ------ -------- ----- --- ------ ----- --<br>----- ----- ---------- --- --- ------ ------ ---- -- ------<br>------- --- ------ ----- --- ---- ------- -- ---- --- --<br>------- ------,169279.13499996066,169278.8199998904,168939.547,168941.4949999191,168946.563,169287.724,,17,in
screen,html.Screen,2_1_1_1_18,2021-04-24T12:33:40.786Z,,,,,,,,,,,,,,,,,54,,,,,,,,,,,,,,682.085999922303,,response,,,,100,,,,,,,Space,keypress(Space),,,,,,,,-- --- ---- --- ------ ----- ------- ---- -- --- ------- --<br>------- ---------- ------ -- ----- -- order -- ---- ------<br>--- ----- --- --- ------ -------- ----- --- ------ ----- --<br>----- ----- ---------- --- --- ------ ------ ---- -- ------<br>------- --- ------ ----- --- ---- ------- -- ---- --- --<br>------- ------,169970.1149999164,169969.8099999223,169272.31,169279.19499995187,169287.724,169974.147,,18,order
screen,html.Screen,2_1_1_1_19,2021-04-24T12:33:41.141Z,,,,,,,,,,,,,,,,,54,,,,,,,,,,,,,,350.84299999370705,,response,,,,100,,,,,,,Space,keypress(Space),,,,,,,,-- --- ---- --- ------ ----- ------- ---- -- --- ------- --<br>------- ---------- ------ -- ----- -- ----- to ---- ------<br>--- ----- --- --- ------ -------- ----- --- ------ ----- --<br>----- ----- ---------- --- --- ------ ------ ---- -- ------<br>------- --- ------ ----- --- ---- ------- -- ---- --- --<br>------- ------,170325.24499995634,170324.9899999937,169967.413,169970.17999994569,169974.147,170328.241,,19,to
screen,html.Screen,2_1_1_1_20,2021-04-24T12:33:41.393Z,,,,,,,,,,,,,,,,,54,,,,,,,,,,,,,,248.82899999935762,,response,,,,100,,,,,,,Space,keypress(Space),,,,,,,,-- --- ---- --- ------ ----- ------- ---- -- --- ------- --<br>------- ---------- ------ -- ----- -- ----- -- save ------<br>--- ----- --- --- ------ -------- ----- --- ------ ----- --<br>----- ----- ---------- --- --- ------ ------ ---- -- ------<br>------- --- ------ ----- --- ---- ------- -- ---- --- --<br>------- ------,170577.37999991514,170577.06999999937,170321.484,170325.30499994755,170328.241,170598.148,,20,save
screen,html.Screen,2_1_1_1_21,2021-04-24T12:33:42.040Z,,,,,,,,,,,,,,,,,54,,,,,,,,,,,,,,625.6819999153377,,response,,,,100,,,,,,,Space,keypress(Space),,,,,,,,"-- --- ---- --- ------ ----- ------- ---- -- --- ------- --<br>------- ---------- ------ -- ----- -- ----- -- ---- money,<br>--- ----- --- --- ------ -------- ----- --- ------ ----- --<br>----- ----- ---------- --- --- ------ ------ ---- -- ------<br>------- --- ------ ----- --- ---- ------- -- ---- --- --<br>------- ------",171224.12999998778,171223.82999991532,170571.379,170577.43999990635,170598.148,171231.006,,21,"money,"
screen,html.Screen,2_1_1_1_22,2021-04-24T12:33:42.377Z,,,,,,,,,,,,,,,,,54,,,,,,,,,,,,,,330.058999899833,,response,,,,100,,,,,,,Space,keypress(Space),,,,,,,,-- --- ---- --- ------ ----- ------- ---- -- --- ------- --<br>------- ---------- ------ -- ----- -- ----- -- ---- ------<br>the ----- --- --- ------ -------- ----- --- ------ ----- --<br>----- ----- ---------- --- --- ------ ------ ---- -- ------<br>------- --- ------ ----- --- ---- ------- -- ---- --- --<br>------- ------,171561.31999997888,171561.06499989983,171224.171,171224.189999979,171231.006,171564.216,,22,the
screen,html.Screen,2_1_1_1_23,2021-04-24T12:33:42.775Z,,,,,,,,,,,,,,,,,54,,,,,,,,,,,,,,394.39899989406695,,response,,,,100,,,,,,,Space,keypress(Space),,,,,,,,-- --- ---- --- ------ ----- ------- ---- -- --- ------- --<br>------- ---------- ------ -- ----- -- ----- -- ---- ------<br>--- state --- --- ------ -------- ----- --- ------ ----- --<br>----- ----- ---------- --- --- ------ ------ ---- -- ------<br>------- --- ------ ----- --- ---- ------- -- ---- --- --<br>------- ------,171958.85999989696,171958.61499989405,171557.4,171561.38499989174,171564.216,171980.178,,23,state
screen,html.Screen,2_1_1_1_24,2021-04-24T12:33:43.050Z,,,,,,,,,,,,,,,,,54,,,,,,,,,,,,,,253.58199997368501,,response,,,,100,,,,,,,Space,keypress(Space),,,,,,,,-- --- ---- --- ------ ----- ------- ---- -- --- ------- --<br>------- ---------- ------ -- ----- -- ----- -- ---- ------<br>--- ----- cut --- ------ -------- ----- --- ------ ----- --<br>----- ----- ---------- --- --- ------ ------ ---- -- ------<br>------- --- ------ ----- --- ---- ------- -- ---- --- --<br>------- ------,172234.0049999766,172233.7599999737,171953.144,171958.9299999643,171980.178,172237.817,,24,cut
screen,html.Screen,2_1_1_1_25,2021-04-24T12:33:43.507Z,,,,,,,,,,,,,,,,,54,,,,,,,,,,,,,,453.6779999190767,,response,,,,100,,,,,,,Space,keypress(Space),,,,,,,,-- --- ---- --- ------ ----- ------- ---- -- --- ------- --<br>------- ---------- ------ -- ----- -- ----- -- ---- ------<br>--- ----- --- the ------ -------- ----- --- ------ ----- --<br>----- ----- ---------- --- --- ------ ------ ---- -- ------<br>------- --- ------ ----- --- ---- ------- -- ---- --- --<br>------- ------,172691.81999994908,172691.4949999191,172231.005,172234.06999988947,172237.817,172696.297,,25,the
screen,html.Screen,2_1_1_1_26,2021-04-24T12:33:43.869Z,,,,,,,,,,,,,,,,,54,,,,,,,,,,,,,,357.21299999792245,,response,,,,100,,,,,,,Space,keypress(Space),,,,,,,,-- --- ---- --- ------ ----- ------- ---- -- --- ------- --<br>------- ---------- ------ -- ----- -- ----- -- ---- ------<br>--- ----- --- --- bonds' -------- ----- --- ------ ----- --<br>----- ----- ---------- --- --- ------ ------ ---- -- ------<br>------- --- ------ ----- --- ---- ------- -- ---- --- --<br>------- ------,173053.80999995396,173053.5099999979,172689.161,172691.8899999,172696.297,173057.179,,26,bonds'
screen,html.Screen,2_1_1_1_27,2021-04-24T12:33:44.184Z,,,,,,,,,,,,,,,,,54,,,,,,,,,,,,,,311.0559999435209,,response,,,,100,,,,,,,Space,keypress(Space),,,,,,,,-- --- ---- --- ------ ----- ------- ---- -- --- ------- --<br>------- ---------- ------ -- ----- -- ----- -- ---- ------<br>--- ----- --- --- ------ interest ----- --- ------ ----- --<br>----- ----- ---------- --- --- ------ ------ ---- -- ------<br>------- --- ------ ----- --- ---- ------- -- ---- --- --<br>------- ------,173368.51999990176,173368.23499994352,173050.328,173053.87499998324,173057.179,173382.447,,27,interest
screen,html.Screen,2_1_1_1_28,2021-04-24T12:33:44.498Z,,,,,,,,,,,,,,,,,54,,,,,,,,,,,,,,299.3479999822448,,response,,,,100,,,,,,,Space,keypress(Space),,,,,,,,-- --- ---- --- ------ ----- ------- ---- -- --- ------- --<br>------- ---------- ------ -- ----- -- ----- -- ---- ------<br>--- ----- --- --- ------ -------- rate. --- ------ ----- --<br>----- ----- ---------- --- --- ------ ------ ---- -- ------<br>------- --- ------ ----- --- ---- ------- -- ---- --- --<br>------- ------,173682.06499994267,173681.79499998223,173362.811,173368.58499993104,173382.447,173689.017,,28,rate.
screen,html.Screen,2_1_1_1_29,2021-04-24T12:33:45.017Z,,,,,,,,,,,,,,,,,54,,,,,,,,,,,,,,511.68799996655434,,response,,,,100,,,,,,,Space,keypress(Space),,,,,,,,-- --- ---- --- ------ ----- ------- ---- -- --- ------- --<br>------- ---------- ------ -- ----- -- ----- -- ---- ------<br>--- ----- --- --- ------ -------- ----- The ------ ----- --<br>----- ----- ---------- --- --- ------ ------ ---- -- ------<br>------- --- ------ ----- --- ---- ------- -- ---- --- --<br>------- ------,174200.9899999248,174200.70499996655,173682.236,173682.12999997195,173689.017,174202.856,,29,The
screen,html.Screen,2_1_1_1_30,2021-04-24T12:33:45.432Z,,,,,,,,,,,,,,,,,54,,,,,,,,,,,,,,413.19399995324784,,response,,,,100,,,,,,,Space,keypress(Space),,,,,,,,-- --- ---- --- ------ ----- ------- ---- -- --- ------- --<br>------- ---------- ------ -- ----- -- ----- -- ---- ------<br>--- ----- --- --- ------ -------- ----- --- market ----- --<br>----- ----- ---------- --- --- ------ ------ ---- -- ------<br>------- --- ------ ----- --- ---- ------- -- ---- --- --<br>------- ------,174616.32999998983,174616.04999995325,174196.072,174201.049999916,174202.856,174619.476,,30,market
screen,html.Screen,2_1_1_1_31,2021-04-24T12:33:45.803Z,,,,,,,,,,,,,,,,,54,,,,,,,,,,,,,,367.2889999214385,,response,,,,100,,,,,,,Space,keypress(Space),,,,,,,,-- --- ---- --- ------ ----- ------- ---- -- --- ------- --<br>------- ---------- ------ -- ----- -- ----- -- ---- ------<br>--- ----- --- --- ------ -------- ----- --- ------ value --<br>----- ----- ---------- --- --- ------ ------ ---- -- ------<br>------- --- ------ ----- --- ---- ------- -- ---- --- --<br>------- ------,174987.05499991775,174986.76499992143,174612.717,174616.3949999027,174619.476,175005.819,,31,value
screen,html.Screen,2_1_1_1_32,2021-04-24T12:33:46.159Z,,,,,,,,,,,,,,,,,54,,,,,,,,,,,,,,337.23099990855553,,response,,,,100,,,,,,,Space,keypress(Space),,,,,,,,-- --- ---- --- ------ ----- ------- ---- -- --- ------- --<br>------- ---------- ------ -- ----- -- ----- -- ---- ------<br>--- ----- --- --- ------ -------- ----- --- ------ ----- of<br>----- ----- ---------- --- --- ------ ------ ---- -- ------<br>------- --- ------ ----- --- ---- ------- -- ---- --- --<br>------- ------,175343.32999994513,175343.04999990854,174980.636,174987.11499990895,175005.819,175348.653,,32,of
screen,html.Screen,2_1_1_1_33,2021-04-24T12:33:46.434Z,,,,,,,,,,,,,,,,,54,,,,,,,,,,,,,,269.0669999801903,,response,,,,100,,,,,,,Space,keypress(Space),,,,,,,,-- --- ---- --- ------ ----- ------- ---- -- --- ------- --<br>------- ---------- ------ -- ----- -- ----- -- ---- ------<br>--- ----- --- --- ------ -------- ----- --- ------ ----- --<br>these ----- ---------- --- --- ------ ------ ---- -- ------<br>------- --- ------ ----- --- ---- ------- -- ---- --- --<br>------- ------,175617.98499990255,175617.71999998018,175341.793,175343.3949999744,175348.653,175619.401,,33,these
screen,html.Screen,2_1_1_1_34,2021-04-24T12:33:46.649Z,,,,,,,,,,,,,,,,,54,,,,,,,,,,,,,,213.5789999482804,,response,,,,100,,,,,,,Space,keypress(Space),,,,,,,,-- --- ---- --- ------ ----- ------- ---- -- --- ------- --<br>------- ---------- ------ -- ----- -- ----- -- ---- ------<br>--- ----- --- --- ------ -------- ----- --- ------ ----- --<br>----- bonds ---------- --- --- ------ ------ ---- -- ------<br>------- --- ------ ----- --- ---- ------- -- ---- --- --<br>------- ------,175833.239999949,175832.9799999483,175612.63,175618.04499989375,175619.401,175834.603,,34,bonds
screen,html.Screen,2_1_1_1_35,2021-04-24T12:33:46.999Z,,,,,,,,,,,,,,,,,54,,,,,,,,,,,,,,348.68199991912115,,response,,,,100,,,,,,,Space,keypress(Space),,,,,,,,"-- --- ---- --- ------ ----- ------- ---- -- --- ------- --<br>------- ---------- ------ -- ----- -- ----- -- ---- ------<br>--- ----- --- --- ------ -------- ----- --- ------ ----- --<br>----- ----- plummeted, --- --- ------ ------ ---- -- ------<br>------- --- ------ ----- --- ---- ------- -- ---- --- --<br>------- ------",176183.56999999378,176183.28499991912,175827.823,175833.2999999402,175834.603,176188.84,,35,"plummeted,"
screen,html.Screen,2_1_1_1_36,2021-04-24T12:33:47.358Z,,,,,,,,,,,,,,,,,54,,,,,,,,,,,,,,352.88999993898324,,response,,,,100,,,,,,,Space,keypress(Space),,,,,,,,-- --- ---- --- ------ ----- ------- ---- -- --- ------- --<br>------- ---------- ------ -- ----- -- ----- -- ---- ------<br>--- ----- --- --- ------ -------- ----- --- ------ ----- --<br>----- ----- ---------- and --- ------ ------ ---- -- ------<br>------- --- ------ ----- --- ---- ------- -- ---- --- --<br>------- ------,176542.0049999375,176541.72999993898,176181.968,176183.63499990664,176188.84,176561.371,,36,and
screen,html.Screen,2_1_1_1_37,2021-04-24T12:33:47.548Z,,,,,,,,,,,,,,,,,54,,,,,,,,,,,,,,170.69399998922017,,response,,,,100,,,,,,,Space,keypress(Space),,,,,,,,-- --- ---- --- ------ ----- ------- ---- -- --- ------- --<br>------- ---------- ------ -- ----- -- ----- -- ---- ------<br>--- ----- --- --- ------ -------- ----- --- ------ ----- --<br>----- ----- ---------- --- the ------ ------ ---- -- ------<br>------- --- ------ ----- --- ---- ------- -- ---- --- --<br>------- ------,176732.3599999072,176732.06499998923,176536.155,176542.06999996677,176561.371,176737.318,,37,the
screen,html.Screen,2_1_1_1_38,2021-04-24T12:33:47.770Z,,,,,,,,,,,,,,,,,54,,,,,,,,,,,,,,216.6369999171875,,response,,,,100,,,,,,,Space,keypress(Space),,,,,,,,-- --- ---- --- ------ ----- ------- ---- -- --- ------- --<br>------- ---------- ------ -- ----- -- ----- -- ---- ------<br>--- ----- --- --- ------ -------- ----- --- ------ ----- --<br>----- ----- ---------- --- --- market ------ ---- -- ------<br>------- --- ------ ----- --- ---- ------- -- ---- --- --<br>------- ------,176954.23999999184,176953.9549999172,176730.528,176732.4199998984,176737.318,176959.595,,38,market
screen,html.Screen,2_1_1_1_39,2021-04-24T12:33:48.229Z,,,,,,,,,,,,,,,,,54,,,,,,,,,,,,,,453.5200000030163,,response,,,,100,,,,,,,Space,keypress(Space),,,,,,,,-- --- ---- --- ------ ----- ------- ---- -- --- ------- --<br>------- ---------- ------ -- ----- -- ----- -- ---- ------<br>--- ----- --- --- ------ -------- ----- --- ------ ----- --<br>----- ----- ---------- --- --- ------ became ---- -- ------<br>------- --- ------ ----- --- ---- ------- -- ---- --- --<br>------- ------,177413.4399999166,177413.11500000302,176952.741,176954.29999998305,176959.595,177417.838,,39,became
screen,html.Screen,2_1_1_1_40,2021-04-24T12:33:48.430Z,,,,,,,,,,,,,,,,,54,,,,,,,,,,,,,,196.50199997099116,,response,,,,100,,,,,,,Space,keypress(Space),,,,,,,,-- --- ---- --- ------ ----- ------- ---- -- --- ------- --<br>------- ---------- ------ -- ----- -- ----- -- ---- ------<br>--- ----- --- --- ------ -------- ----- --- ------ ----- --<br>----- ----- ---------- --- --- ------ ------ wary -- ------<br>------- --- ------ ----- --- ---- ------- -- ---- --- --<br>------- ------,177614.63499988895,177614.33999997098,177410.891,177413.50499994587,177417.838,177619.192,,40,wary
screen,html.Screen,2_1_1_1_41,2021-04-24T12:33:48.841Z,,,,,,,,,,,,,,,,,54,,,,,,,,,,,,,,406.0379999119614,,response,,,,100,,,,,,,Space,keypress(Space),,,,,,,,-- --- ---- --- ------ ----- ------- ---- -- --- ------- --<br>------- ---------- ------ -- ----- -- ----- -- ---- ------<br>--- ----- --- --- ------ -------- ----- --- ------ ----- --<br>----- ----- ---------- --- --- ------ ------ ---- of ------<br>------- --- ------ ----- --- ---- ------- -- ---- --- --<br>------- ------,178025.50499991048,178025.22999991197,177612.285,177614.69999991823,177619.192,178028.875,,41,of
screen,html.Screen,2_1_1_1_42,2021-04-24T12:33:49.269Z,,,,,,,,,,,,,,,,,54,,,,,,,,,,,,,,424.38999990187585,,response,,,,100,,,,,,,Space,keypress(Space),,,,,,,,-- --- ---- --- ------ ----- ------- ---- -- --- ------- --<br>------- ---------- ------ -- ----- -- ----- -- ---- ------<br>--- ----- --- --- ------ -------- ----- --- ------ ----- --<br>----- ----- ---------- --- --- ------ ------ ---- -- French<br>------- --- ------ ----- --- ---- ------- -- ---- --- --<br>------- ------,178453.54999997653,178453.26499990188,178022.118,178025.57499997783,178028.875,178459.387,,42,French
screen,html.Screen,2_1_1_1_43,2021-04-24T12:33:51.368Z,,,,,,,,,,,,,,,,,54,,,,,,,,,,,,,,2092.407999977586,,response,,,,100,,,,,,,Space,keypress(Space),,,,,,,,-- --- ---- --- ------ ----- ------- ---- -- --- ------- --<br>------- ---------- ------ -- ----- -- ----- -- ---- ------<br>--- ----- --- --- ------ -------- ----- --- ------ ----- --<br>----- ----- ---------- --- --- ------ ------ ---- -- ------<br>credit. --- ------ ----- --- ---- ------- -- ---- --- --<br>------- ------,180552.05999989994,180551.79499997757,178452.57,178453.60999996774,178459.387,180556.352,,43,credit.
screen,html.Screen,2_1_1_1_44,2021-04-24T12:33:51.724Z,,,,,,,,,,,,,,,,,54,,,,,,,,,,,,,,351.4879999998375,,response,,,,100,,,,,,,Space,keypress(Space),,,,,,,,-- --- ---- --- ------ ----- ------- ---- -- --- ------- --<br>------- ---------- ------ -- ----- -- ----- -- ---- ------<br>--- ----- --- --- ------ -------- ----- --- ------ ----- --<br>----- ----- ---------- --- --- ------ ------ ---- -- ------<br>------- The ------ ----- --- ---- ------- -- ---- --- --<br>------- ------,180908.11499999836,180907.83999999985,180549.607,180552.11999989115,180556.352,180910.484,,44,The
screen,html.Screen,2_1_1_1_45,2021-04-24T12:33:52.322Z,,,,,,,,,,,,,,,,,54,,,,,,,,,,,,,,595.405999913055,,response,,,,100,,,,,,,Space,keypress(Space),,,,,,,,-- --- ---- --- ------ ----- ------- ---- -- --- ------- --<br>------- ---------- ------ -- ----- -- ----- -- ---- ------<br>--- ----- --- --- ------ -------- ----- --- ------ ----- --<br>----- ----- ---------- --- --- ------ ------ ---- -- ------<br>------- --- French ----- --- ---- ------- -- ---- --- --<br>------- ------,181506.19499990717,181505.88999991305,180903.701,180908.17999991123,180910.484,181507.655,,45,French
screen,html.Screen,2_1_1_1_46,2021-04-24T12:33:52.600Z,,,,,,,,,,,,,,,,,54,,,,,,,,,,,,,,276.7399999660265,,response,,,,100,,,,,,,Space,keypress(Space),,,,,,,,-- --- ---- --- ------ ----- ------- ---- -- --- ------- --<br>------- ---------- ------ -- ----- -- ----- -- ---- ------<br>--- ----- --- --- ------ -------- ----- --- ------ ----- --<br>----- ----- ---------- --- --- ------ ------ ---- -- ------<br>------- --- ------ state --- ---- ------- -- ---- --- --<br>------- ------,181784.61999993306,181784.39499996603,181500.752,181506.25999993645,181507.655,181785.478,,46,state
screen,html.Screen,2_1_1_1_47,2021-04-24T12:33:52.789Z,,,,,,,,,,,,,,,,,54,,,,,,,,,,,,,,187.27199995715637,,response,,,,100,,,,,,,Space,keypress(Space),,,,,,,,-- --- ---- --- ------ ----- ------- ---- -- --- ------- --<br>------- ---------- ------ -- ----- -- ----- -- ---- ------<br>--- ----- --- --- ------ -------- ----- --- ------ ----- --<br>----- ----- ---------- --- --- ------ ------ ---- -- ------<br>------- --- ------ ----- was ---- ------- -- ---- --- --<br>------- ------,181972.98500000034,181972.74999995716,181778.454,181784.67999992426,181785.478,181979.835,,47,was
screen,html.Screen,2_1_1_1_48,2021-04-24T12:33:53.027Z,,,,,,,,,,,,,,,,,54,,,,,,,,,,,,,,230.72499991950463,,response,,,,100,,,,,,,Space,keypress(Space),,,,,,,,-- --- ---- --- ------ ----- ------- ---- -- --- ------- --<br>------- ---------- ------ -- ----- -- ----- -- ---- ------<br>--- ----- --- --- ------ -------- ----- --- ------ ----- --<br>----- ----- ---------- --- --- ------ ------ ---- -- ------<br>------- --- ------ ----- --- left ------- -- ---- --- --<br>------- ------,182210.8499999158,182210.5599999195,181972.883,181973.05499995127,181979.835,182215.961,,48,left
screen,html.Screen,2_1_1_1_49,2021-04-24T12:33:53.340Z,,,,,,,,,,,,,,,,,54,,,,,,,,,,,,,,307.85399996407796,,response,,,,100,,,,,,,Space,keypress(Space),,,,,,,,-- --- ---- --- ------ ----- ------- ---- -- --- ------- --<br>------- ---------- ------ -- ----- -- ----- -- ---- ------<br>--- ----- --- --- ------ -------- ----- --- ------ ----- --<br>----- ----- ---------- --- --- ------ ------ ---- -- ------<br>------- --- ------ ----- --- ---- without -- ---- --- --<br>------- ------,182524.12499999627,182523.8149999641,182209.144,182210.90999990702,182215.961,182528.364,,49,without
screen,html.Screen,2_1_1_1_50,2021-04-24T12:33:53.743Z,,,,,,,,,,,,,,,,,54,,,,,,,,,,,,,,398.0859999117092,,response,,,,100,,,,,,,Space,keypress(Space),,,,,,,,-- --- ---- --- ------ ----- ------- ---- -- --- ------- --<br>------- ---------- ------ -- ----- -- ----- -- ---- ------<br>--- ----- --- --- ------ -------- ----- --- ------ ----- --<br>----- ----- ---------- --- --- ------ ------ ---- -- ------<br>------- --- ------ ----- --- ---- ------- an ---- --- --<br>------- ------,182926.79499997757,182926.4499999117,182521.641,182524.18999990914,182528.364,182931.187,,50,an
screen,html.Screen,2_1_1_1_51,2021-04-24T12:33:54.048Z,,,,,,,,,,,,,,,,,54,,,,,,,,,,,,,,301.0829999203852,,response,,,,100,,,,,,,Space,keypress(Space),,,,,,,,-- --- ---- --- ------ ----- ------- ---- -- --- ------- --<br>------- ---------- ------ -- ----- -- ----- -- ---- ------<br>--- ----- --- --- ------ -------- ----- --- ------ ----- --<br>----- ----- ---------- --- --- ------ ------ ---- -- ------<br>------- --- ------ ----- --- ---- ------- -- easy --- --<br>------- ------,183232.5299999211,183232.2699999204,182924.243,182926.85999989044,182931.187,183236.678,,51,easy
screen,html.Screen,2_1_1_1_52,2021-04-24T12:33:54.366Z,,,,,,,,,,,,,,,,,54,,,,,,,,,,,,,,313.1419999565114,,response,,,,100,,,,,,,Space,keypress(Space),,,,,,,,-- --- ---- --- ------ ----- ------- ---- -- --- ------- --<br>------- ---------- ------ -- ----- -- ----- -- ---- ------<br>--- ----- --- --- ------ -------- ----- --- ------ ----- --<br>----- ----- ---------- --- --- ------ ------ ---- -- ------<br>------- --- ------ ----- --- ---- ------- -- ---- way --<br>------- ------,183550.10499991477,183549.81999995653,183229.888,183232.59499995038,183236.678,183556.139,,52,way
screen,html.Screen,2_1_1_1_53,2021-04-24T12:33:55.243Z,,,,,,,,,,,,,,,,,54,,,,,,,,,,,,,,871.2459999299317,,response,,,,100,,,,,,,Space,keypress(Space),,,,,,,,-- --- ---- --- ------ ----- ------- ---- -- --- ------- --<br>------- ---------- ------ -- ----- -- ----- -- ---- ------<br>--- ----- --- --- ------ -------- ----- --- ------ ----- --<br>----- ----- ---------- --- --- ------ ------ ---- -- ------<br>------- --- ------ ----- --- ---- ------- -- ---- --- of<br>------- ------,184427.68500000238,184427.38499992993,183549.281,183550.15999998432,183556.139,184431.002,,53,of
screen,html.Screen,2_1_1_1_54,2021-04-24T12:33:55.679Z,,,,,,,,,,,,,,,,,54,,,,,,,,,,,,,,431.7479999711213,,response,,,,100,,,,,,,Space,keypress(Space),,,,,,,,-- --- ---- --- ------ ----- ------- ---- -- --- ------- --<br>------- ---------- ------ -- ----- -- ----- -- ---- ------<br>--- ----- --- --- ------ -------- ----- --- ------ ----- --<br>----- ----- ---------- --- --- ------ ------ ---- -- ------<br>------- --- ------ ----- --- ---- ------- -- ---- --- --<br>raising ------,184863.0449998891,184862.74999997113,184424.192,184427.74999991525,184431.002,184868.443,,54,raising
screen,html.Screen,2_1_1_1_55,2021-04-24T12:33:56.654Z,,,,,,,,,,,,,,,,,54,,,,,,,,,,,,,,969.3319999053783,,response,,,,100,,,,,,,Space,keypress(Space),,,,,,,,-- --- ---- --- ------ ----- ------- ---- -- --- ------- --<br>------- ---------- ------ -- ----- -- ----- -- ---- ------<br>--- ----- --- --- ------ -------- ----- --- ------ ----- --<br>----- ----- ---------- --- --- ------ ------ ---- -- ------<br>------- --- ------ ----- --- ---- ------- -- ---- --- --<br>------- money.,185837.98499999102,185837.77499990538,184861.588,184863.10499999672,184868.443,185847.512,,55,money.
Item 100,flow.Loop,2_1_1_1,2021-04-24T12:33:56.654Z,,,,,,,,,,,,,,,,,,,,,,,,,,,,,,,28848.322999905387,,completion,,,,,A,,,,,,,,,,,silence,,,,,185838.08499993756,185837.77499990538,156982.581,156983.00999996718,156989.452,185847.512,,,
Question 1,html.Screen,2_1_1_2,2021-04-24T12:33:58.701Z,,,,,,,,,,,,,,,,,,,,,,,,,,,,true,TRUE,,2036.917999976431,,response,,,,100,A,,,,,,TRUE,click #choice-1,,,,silence,,,,,187884.87499998882,187884.42999997642,185840.559,185838.12999993097,185847.512,187888.976,,,
Question 2,html.Screen,2_1_1_3,2021-04-24T12:34:00.542Z,,,,,,,,,,,,,,,,,,,,,,,,,,,,true,FALSE,,1836.9039999253873,,response,,,,100,A,,,,,,FALSE,click #choice-2,,,,silence,,,,,189726.29999998026,189725.87999992538,187882.025,187884.9399999017,187888.976,189729.056,,,
Item 100,flow.Sequence,2_1_1,2021-04-24T12:34:00.542Z,,,,,,,,,,,,,,,,,,,,,,,,,,,,,,,42735.46199992538,,completion,,,,,,,,,,,,,,,,,,,,,189726.4149999246,189725.87999992538,146983.621,146988.68499998935,146990.418,189729.056,,,
End of Practice,html.Page,2_1_2,2021-04-24T12:34:05.455Z,,,,,,,,,,,,,,,,,,,,,,,,,,,,,,,4909.968999923993,,form submission,,,,,,,,,,,,,,,,,,,,,194639.13999998476,194639.024999924,189722.267,189726.46499995608,189729.056,194645.212,,,
Practice,flow.Sequence,2_1,2021-04-24T12:34:05.455Z,,,,,,,,,,,,,,,,,,,,,,,,,,,,,,,108920.05999992401,,completion,,,,,,,,,,,,,,,,,,,,,194639.22999997158,194639.024999924,85712.051,85714.66999989934,85718.965,194645.212,,,
Trap_instruction,html.Page,2_2_0,2021-04-24T12:34:12.067Z,,,,,,,,,,,,,,,,,,,,,,,,,,,,,,,6605.517999970645,,form submission,,,,,,,,,,,,,,,,,,,,,201250.844999915,201250.72999997064,194638.392,194639.2849999247,194645.212,201255.632,,,
trap_trial,html.Screen,2_2_1,2021-04-24T12:34:16.362Z,,,,,,,,,,,,,,,,,,,,,,,,,,,,true,1,,4290.377999932709,,response,,,,,,,,,,,1,click #choice-1,,,,,,,,,205546.47999990266,205546.00999993272,201248.92,201250.89999998454,201255.632,205559.309,,,
end of trap trial,html.Page,2_2_2,2021-04-24T12:34:17.991Z,,,,,,,,,,,,,,,,,,,,,,,,,,,,,,,1615.4409998891642,,form submission,,,,,,,,,,,,,,,,,,,,,207174.869999988,207174.74999988917,205540.083,205546.55499989167,205559.309,207178.661,,,
Trap 1,flow.Sequence,2_2,2021-04-24T12:34:17.991Z,,,,,,,,,,,,,,,,,,,,,,,,,,,,,,,12529.537999889173,,completion,,,,,,,,,,,,,,,,,,,,,207174.94999989867,207174.74999988917,194638.392,194639.2699999269,194645.212,207178.661,,,
Standby,html.Page,2_3_0,2021-04-24T12:34:25.987Z,,,,,,,,,,,,,,,,,,,,,,,,,,,,,,,7999.146000000008,,timeout,,,,,,,,,,,,,,,,,,,,,215171.4149999898,215171.013,207171.903,207175.00999988988,207178.661,215177.807,,,
Holding screen,html.Screen,2_3_1_0_0,2021-04-24T12:34:32.986Z,,,,,,,,,,,,,,,,,,,,,,,,,,,,,,,6999.304999999993,,timeout,,,,,,,,,,,,,,,,,,,,,222170.50999996718,222170.179,215171.013,215171.5199999744,215177.807,222177.112,,,
screen,html.Screen,2_3_1_0_1_0,2021-04-24T12:34:34.396Z,,,,,,,,,,,,,,,,,15,,,,,,,,,,,,,,1402.9429999112326,,response,,,,7,A,,,,,,Space,keypress(Space),,,,silence,,,,Greg --------- ---------- - --- ------- -- --- ------------<br>----- -- -------- ------- ---- ------ - -------- ---- -----<br>--- ------- ---- -- --- -------- --- - ----- ------ ---- --<br>-------- --- -------- -------- --- -------- ---- -- ----- -<br>-------- ---- --- ---------- --------- -- ------- ------ -<br>--------- ----- -----,223580.33999998588,223580.05499991123,222170.179,222170.599999954,222177.112,223593.718,,0,Greg
screen,html.Screen,2_3_1_0_1_1,2021-04-24T12:34:34.895Z,,,,,,,,,,,,,,,,,15,,,,,,,,,,,,,,484.92700000142213,,response,,,,7,A,,,,,,Space,keypress(Space),,,,silence,,,,"---- Anderson, ---------- - --- ------- -- --- ------------<br>----- -- -------- ------- ---- ------ - -------- ---- -----<br>--- ------- ---- -- --- -------- --- - ----- ------ ---- --<br>-------- --- -------- -------- --- -------- ---- -- ----- -<br>-------- ---- --- ---------- --------- -- ------- ------ -<br>--------- ----- -----",224078.94999999553,224078.64500000142,223586.82,223580.40499989875,223593.718,224086.68,,1,"Anderson,"
screen,html.Screen,2_3_1_0_1_2,2021-04-24T12:34:35.987Z,,,,,,,,,,,,,,,,,15,,,,,,,,,,,,,,1084.1099998873542,,response,,,,7,A,,,,,,Space,keypress(Space),,,,silence,,,,---- --------- considered - --- ------- -- --- ------------<br>----- -- -------- ------- ---- ------ - -------- ---- -----<br>--- ------- ---- -- --- -------- --- - ----- ------ ---- --<br>-------- --- -------- -------- --- -------- ---- -- ----- -<br>-------- ---- --- ---------- --------- -- ------- ------ -<br>--------- ----- -----,225171.08000000007,225170.78999988735,224079.652,224079.0149999084,224086.68,225176.803,,2,considered
screen,html.Screen,2_3_1_0_1_3,2021-04-24T12:34:36.346Z,,,,,,,,,,,,,,,,,15,,,,,,,,,,,,,,353.0769999290933,,response,,,,7,A,,,,,,Space,keypress(Space),,,,silence,,,,---- --------- ---------- a --- ------- -- --- ------------<br>----- -- -------- ------- ---- ------ - -------- ---- -----<br>--- ------- ---- -- --- -------- --- - ----- ------ ---- --<br>-------- --- -------- -------- --- -------- ---- -- ----- -<br>-------- ---- --- ---------- --------- -- ------- ------ -<br>--------- ----- -----,225530.16999992542,225529.8799999291,225169.798,225171.13999999128,225176.803,225551.824,,3,a
screen,html.Screen,2_3_1_0_1_4,2021-04-24T12:34:36.662Z,,,,,,,,,,,,,,,,,15,,,,,,,,,,,,,,293.6809999756806,,response,,,,7,A,,,,,,Space,keypress(Space),,,,silence,,,,---- --------- ---------- - key ------- -- --- ------------<br>----- -- -------- ------- ---- ------ - -------- ---- -----<br>--- ------- ---- -- --- -------- --- - ----- ------ ---- --<br>-------- --- -------- -------- --- -------- ---- -- ----- -<br>-------- ---- --- ---------- --------- -- ------- ------ -<br>--------- ----- -----,225845.76499997638,225845.50499997567,225524.151,225530.2349999547,225551.824,225850.333,,4,key
screen,html.Screen,2_3_1_0_1_5,2021-04-24T12:34:37.028Z,,,,,,,,,,,,,,,,,15,,,,,,,,,,,,,,361.7820000020729,,response,,,,7,A,,,,,,Space,keypress(Space),,,,silence,,,,---- --------- ---------- - --- witness -- --- ------------<br>----- -- -------- ------- ---- ------ - -------- ---- -----<br>--- ------- ---- -- --- -------- --- - ----- ------ ---- --<br>-------- --- -------- -------- --- -------- ---- -- ----- -<br>-------- ---- --- ---------- --------- -- ------- ------ -<br>--------- ----- -----,226212.42999995593,226212.1150000021,225843.398,225845.82999988925,225850.333,226218.318,,5,witness
screen,html.Screen,2_3_1_0_1_6,2021-04-24T12:34:37.368Z,,,,,,,,,,,,,,,,,15,,,,,,,,,,,,,,334.0769998896576,,response,,,,7,A,,,,,,Space,keypress(Space),,,,silence,,,,---- --------- ---------- - --- ------- by --- ------------<br>----- -- -------- ------- ---- ------ - -------- ---- -----<br>--- ------- ---- -- --- -------- --- - ----- ------ ---- --<br>-------- --- -------- -------- --- -------- ---- -- ----- -<br>-------- ---- --- ---------- --------- -- ------- ------ -<br>--------- ----- -----,226552.7000000002,226552.39499988966,226211.446,226212.48999994714,226218.318,226558.632,,6,by
screen,html.Screen,2_3_1_0_1_7,2021-04-24T12:34:37.713Z,,,,,,,,,,,,,,,,,15,,,,,,,,,,,,,,338.3779999569233,,response,,,,7,A,,,,,,Space,keypress(Space),,,,silence,,,,---- --------- ---------- - --- ------- -- the ------------<br>----- -- -------- ------- ---- ------ - -------- ---- -----<br>--- ------- ---- -- --- -------- --- - ----- ------ ---- --<br>-------- --- -------- -------- --- -------- ---- -- ----- -<br>-------- ---- --- ---------- --------- -- ------- ------ -<br>--------- ----- -----,226897.33999990858,226897.00999995694,226551.638,226552.7599999914,226558.632,226898.801,,7,the
screen,html.Screen,2_3_1_0_1_8,2021-04-24T12:34:38.390Z,,,,,,,,,,,,,,,,,15,,,,,,,,,,,,,,675.5439999717928,,response,,,,7,A,,,,,,Space,keypress(Space),,,,silence,,,,"---- --------- ---------- - --- ------- -- --- prosecution,<br>----- -- -------- ------- ---- ------ - -------- ---- -----<br>--- ------- ---- -- --- -------- --- - ----- ------ ---- --<br>-------- --- -------- -------- --- -------- ---- -- ----- -<br>-------- ---- --- ---------- --------- -- ------- ------ -<br>--------- ----- -----",227574.6049999725,227574.3449999718,226891.883,226897.3999998998,226898.801,227579.267,,8,"prosecution,"
screen,html.Screen,2_3_1_0_1_9,2021-04-24T12:34:39.062Z,,,,,,,,,,,,,,,,,15,,,,,,,,,,,,,,666.3479999052361,,response,,,,7,A,,,,,,Space,keypress(Space),,,,silence,,,,---- --------- ---------- - --- ------- -- --- ------------<br>vowed -- -------- ------- ---- ------ - -------- ---- -----<br>--- ------- ---- -- --- -------- --- - ----- ------ ---- --<br>-------- --- -------- -------- --- -------- ---- -- ----- -<br>-------- ---- --- ---------- --------- -- ------- ------ -<br>--------- ----- -----,228245.86999998428,228245.61499990523,227572.526,227574.66499996372,227579.267,228252.9,,9,vowed
screen,html.Screen,2_3_1_0_1_10,2021-04-24T12:34:39.969Z,,,,,,,,,,,,,,,,,15,,,,,,,,,,,,,,899.9399999952002,,response,,,,7,A,,,,,,Space,keypress(Space),,,,silence,,,,---- --------- ---------- - --- ------- -- --- ------------<br>----- he -------- ------- ---- ------ - -------- ---- -----<br>--- ------- ---- -- --- -------- --- - ----- ------ ---- --<br>-------- --- -------- -------- --- -------- ---- -- ----- -<br>-------- ---- --- ---------- --------- -- ------- ------ -<br>--------- ----- -----,229153.0999999959,229152.8399999952,228245.947,228245.93499989714,228252.9,229155.51,,10,he
screen,html.Screen,2_3_1_0_1_11,2021-04-24T12:34:40.359Z,,,,,,,,,,,,,,,,,15,,,,,,,,,,,,,,387.31999993300997,,response,,,,7,A,,,,,,Space,keypress(Space),,,,silence,,,,---- --------- ---------- - --- ------- -- --- ------------<br>----- -- wouldn't ------- ---- ------ - -------- ---- -----<br>--- ------- ---- -- --- -------- --- - ----- ------ ---- --<br>-------- --- -------- -------- --- -------- ---- -- ----- -<br>-------- ---- --- ---------- --------- -- ------- ------ -<br>--------- ----- -----,229543.079999974,229542.82999993302,229148.713,229153.1599999871,229155.51,229544.364,,11,wouldn't
screen,html.Screen,2_3_1_0_1_12,2021-04-24T12:34:40.737Z,,,,,,,,,,,,,,,,,15,,,,,,,,,,,,,,376.72099992173025,,response,,,,7,A,,,,,,Space,keypress(Space),,,,silence,,,,---- --------- ---------- - --- ------- -- --- ------------<br>----- -- -------- testify ---- ------ - -------- ---- -----<br>--- ------- ---- -- --- -------- --- - ----- ------ ---- --<br>-------- --- -------- -------- --- -------- ---- -- ----- -<br>-------- ---- --- ---------- --------- -- ------- ------ -<br>--------- ----- -----,229921.37999995612,229921.08499992173,229537.573,229543.14500000328,229544.364,229926.298,,12,testify
screen,html.Screen,2_3_1_0_1_13,2021-04-24T12:34:41.119Z,,,,,,,,,,,,,,,,,15,,,,,,,,,,,,,,376.50199994671857,,response,,,,7,A,,,,,,Space,keypress(Space),,,,silence,,,,---- --------- ---------- - --- ------- -- --- ------------<br>----- -- -------- ------- when ------ - -------- ---- -----<br>--- ------- ---- -- --- -------- --- - ----- ------ ---- --<br>-------- --- -------- -------- --- -------- ---- -- ----- -<br>-------- ---- --- ---------- --------- -- ------- ------ -<br>--------- ----- -----,230303.08999994304,230302.79999994673,229919.364,229921.4449999854,229926.298,230308.21,,13,when
screen,html.Screen,2_3_1_0_1_14,2021-04-24T12:34:42.525Z,,,,,,,,,,,,,,,,,15,,,,,,,,,,,,,,1400.7299999240495,,response,,,,7,A,,,,,,Space,keypress(Space),,,,silence,,,,---- --------- ---------- - --- ------- -- --- ------------<br>----- -- -------- ------- ---- served - -------- ---- -----<br>--- ------- ---- -- --- -------- --- - ----- ------ ---- --<br>-------- --- -------- -------- --- -------- ---- -- ----- -<br>-------- ---- --- ---------- --------- -- ------- ------ -<br>--------- ----- -----,231709.2849999899,231708.93999992404,230301.416,230303.15499997232,230308.21,231710.786,,14,served
screen,html.Screen,2_3_1_0_1_15,2021-04-24T12:34:42.947Z,,,,,,,,,,,,,,,,,15,,,,,,,,,,,,,,419.813999916747,,response,,,,7,A,,,,,,Space,keypress(Space),,,,silence,,,,---- --------- ---------- - --- ------- -- --- ------------<br>----- -- -------- ------- ---- ------ a -------- ---- -----<br>--- ------- ---- -- --- -------- --- - ----- ------ ---- --<br>-------- --- -------- -------- --- -------- ---- -- ----- -<br>-------- ---- --- ---------- --------- -- ------- ------ -<br>--------- ----- -----,232130.9299999848,232130.59999991674,231704.079,231709.33999994304,231710.786,232134.37,,15,a
screen,html.Screen,2_3_1_0_1_16,2021-04-24T12:34:43.931Z,,,,,,,,,,,,,,,,,15,,,,,,,,,,,,,,981.0199999335455,,response,,,,7,A,,,,,,Space,keypress(Space),,,,silence,,,,---- --------- ---------- - --- ------- -- --- ------------<br>----- -- -------- ------- ---- ------ - subpoena ---- -----<br>--- ------- ---- -- --- -------- --- - ----- ------ ---- --<br>-------- --- -------- -------- --- -------- ---- -- ----- -<br>-------- ---- --- ---------- --------- -- ------- ------ -<br>--------- ----- -----,233115.69499992765,233115.38999993354,232127.518,232130.989999976,232134.37,233120.452,,16,subpoena
screen,html.Screen,2_3_1_0_1_17,2021-04-24T12:34:44.263Z,,,,,,,,,,,,,,,,,15,,,,,,,,,,,,,,325.917999903264,,response,,,,7,A,,,,,,Space,keypress(Space),,,,silence,,,,---- --------- ---------- - --- ------- -- --- ------------<br>----- -- -------- ------- ---- ------ - -------- last -----<br>--- ------- ---- -- --- -------- --- - ----- ------ ---- --<br>-------- --- -------- -------- --- -------- ---- -- ----- -<br>-------- ---- --- ---------- --------- -- ------- ------ -<br>--------- ----- -----,233446.73999992665,233446.36999990325,233113.642,233115.75999995694,233120.452,233453.786,,17,last
screen,html.Screen,2_3_1_0_1_18,2021-04-24T12:34:45.141Z,,,,,,,,,,,,,,,,,15,,,,,,,,,,,,,,870.7939998985676,,response,,,,7,A,,,,,,Space,keypress(Space),,,,silence,,,,---- --------- ---------- - --- ------- -- --- ------------<br>----- -- -------- ------- ---- ------ - -------- ---- week.<br>--- ------- ---- -- --- -------- --- - ----- ------ ---- --<br>-------- --- -------- -------- --- -------- ---- -- ----- -<br>-------- ---- --- ---------- --------- -- ------- ------ -<br>--------- ----- -----,234324.9450000003,234324.57999989856,233446.924,233446.79999991786,233453.786,234328.631,,18,week.
screen,html.Screen,2_3_1_0_1_19,2021-04-24T12:34:46.177Z,,,,,,,,,,,,,,,,,15,,,,,,,,,,,,,,1031.893999909109,,response,,,,7,A,,,,,,Space,keypress(Space),,,,silence,,,,---- --------- ---------- - --- ------- -- --- ------------<br>----- -- -------- ------- ---- ------ - -------- ---- -----<br>His ------- ---- -- --- -------- --- - ----- ------ ---- --<br>-------- --- -------- -------- --- -------- ---- -- ----- -<br>-------- ---- --- ---------- --------- -- ------- ------ -<br>--------- ----- -----,235360.78999994788,235360.5249999091,234321.71,234325.0049999915,234328.631,235363.205,,19,His
screen,html.Screen,2_3_1_0_1_20,2021-04-24T12:34:46.612Z,,,,,,,,,,,,,,,,,15,,,,,,,,,,,,,,432.25999997378676,,response,,,,7,A,,,,,,Space,keypress(Space),,,,silence,,,,---- --------- ---------- - --- ------- -- --- ------------<br>----- -- -------- ------- ---- ------ - -------- ---- -----<br>--- lawyers ---- -- --- -------- --- - ----- ------ ---- --<br>-------- --- -------- -------- --- -------- ---- -- ----- -<br>-------- ---- --- ---------- --------- -- ------- ------ -<br>--------- ----- -----,235795.75999989174,235795.46499997377,235356.483,235360.85499997716,235363.205,235800.66,,20,lawyers
screen,html.Screen,2_3_1_0_1_21,2021-04-24T12:34:47.044Z,,,,,,,,,,,,,,,,,15,,,,,,,,,,,,,,426.8399999208341,,response,,,,7,A,,,,,,Space,keypress(Space),,,,silence,,,,---- --------- ---------- - --- ------- -- --- ------------<br>----- -- -------- ------- ---- ------ - -------- ---- -----<br>--- ------- said -- --- -------- --- - ----- ------ ---- --<br>-------- --- -------- -------- --- -------- ---- -- ----- -<br>-------- ---- --- ---------- --------- -- ------- ------ -<br>--------- ----- -----,236227.77999995742,236227.49999992084,235793.879,235795.81999999937,235800.66,236231.209,,21,said
screen,html.Screen,2_3_1_0_1_22,2021-04-24T12:34:47.355Z,,,,,,,,,,,,,,,,,15,,,,,,,,,,,,,,307.84599994288874,,response,,,,7,A,,,,,,Space,keypress(Space),,,,silence,,,,---- --------- ---------- - --- ------- -- --- ------------<br>----- -- -------- ------- ---- ------ - -------- ---- -----<br>--- ------- ---- he --- -------- --- - ----- ------ ---- --<br>-------- --- -------- -------- --- -------- ---- -- ----- -<br>-------- ---- --- ---------- --------- -- ------- ------ -<br>--------- ----- -----,236539.36499997508,236539.0549999429,236224.4,236227.8449999867,236231.209,236543.67,,22,he
screen,html.Screen,2_3_1_0_1_23,2021-04-24T12:34:47.567Z,,,,,,,,,,,,,,,,,15,,,,,,,,,,,,,,207.23999994425685,,response,,,,7,A,,,,,,Space,keypress(Space),,,,silence,,,,---- --------- ---------- - --- ------- -- --- ------------<br>----- -- -------- ------- ---- ------ - -------- ---- -----<br>--- ------- ---- -- was -------- --- - ----- ------ ---- --<br>-------- --- -------- -------- --- -------- ---- -- ----- -<br>-------- ---- --- ---------- --------- -- ------- ------ -<br>--------- ----- -----,236751.20499997865,236750.90999994427,236536.87,236539.4249999663,236543.67,236768.636,,23,was
screen,html.Screen,2_3_1_0_1_24,2021-04-24T12:34:48.005Z,,,,,,,,,,,,,,,,,15,,,,,,,,,,,,,,420.17399996327003,,response,,,,7,A,,,,,,Space,keypress(Space),,,,silence,,,,---- --------- ---------- - --- ------- -- --- ------------<br>----- -- -------- ------- ---- ------ - -------- ---- -----<br>--- ------- ---- -- --- prepared --- - ----- ------ ---- --<br>-------- --- -------- -------- --- -------- ---- -- ----- -<br>-------- ---- --- ---------- --------- -- ------- ------ -<br>--------- ----- -----,237189.09999995958,237188.80999996327,236745.154,236751.26499996986,236768.636,237201.519,,24,prepared
screen,html.Screen,2_3_1_0_1_25,2021-04-24T12:34:48.240Z,,,,,,,,,,,,,,,,,15,,,,,,,,,,,,,,222.5209999544022,,response,,,,7,A,,,,,,Space,keypress(Space),,,,silence,,,,---- --------- ---------- - --- ------- -- --- ------------<br>----- -- -------- ------- ---- ------ - -------- ---- -----<br>--- ------- ---- -- --- -------- for - ----- ------ ---- --<br>-------- --- -------- -------- --- -------- ---- -- ----- -<br>-------- ---- --- ---------- --------- -- ------- ------ -<br>--------- ----- -----,237424.33999991044,237424.0399999544,237182.608,237189.16499998886,237201.519,237432.961,,25,for
screen,html.Screen,2_3_1_0_1_26,2021-04-24T12:34:48.653Z,,,,,,,,,,,,,,,,,15,,,,,,,,,,,,,,403.63899992231745,,response,,,,7,A,,,,,,Space,keypress(Space),,,,silence,,,,---- --------- ---------- - --- ------- -- --- ------------<br>----- -- -------- ------- ---- ------ - -------- ---- -----<br>--- ------- ---- -- --- -------- --- a ----- ------ ---- --<br>-------- --- -------- -------- --- -------- ---- -- ----- -<br>-------- ---- --- ---------- --------- -- ------- ------ -<br>--------- ----- -----,237836.8949999567,237836.59999992233,237418.604,237424.39999990165,237432.961,237842.187,,26,a
screen,html.Screen,2_3_1_0_1_27,2021-04-24T12:34:49.022Z,,,,,,,,,,,,,,,,,15,,,,,,,,,,,,,,363.7079999045527,,response,,,,7,A,,,,,,Space,keypress(Space),,,,silence,,,,---- --------- ---------- - --- ------- -- --- ------------<br>----- -- -------- ------- ---- ------ - -------- ---- -----<br>--- ------- ---- -- --- -------- --- - third ------ ---- --<br>-------- --- -------- -------- --- -------- ---- -- ----- -<br>-------- ---- --- ---------- --------- -- ------- ------ -<br>--------- ----- -----,238206.19499997701,238205.89499990456,237835.379,237836.959999986,237842.187,238210.168,,27,third
screen,html.Screen,2_3_1_0_1_28,2021-04-24T12:34:49.337Z,,,,,,,,,,,,,,,,,15,,,,,,,,,,,,,,311.10699994821334,,response,,,,7,A,,,,,,Space,keypress(Space),,,,silence,,,,---- --------- ---------- - --- ------- -- --- ------------<br>----- -- -------- ------- ---- ------ - -------- ---- -----<br>--- ------- ---- -- --- -------- --- - ----- prison ---- --<br>-------- --- -------- -------- --- -------- ---- -- ----- -<br>-------- ---- --- ---------- --------- -- ------- ------ -<br>--------- ----- -----,238521.6299999738,238521.27499994822,238203.319,238206.25999988988,238210.168,238537.823,,28,prison
screen,html.Screen,2_3_1_0_1_29,2021-04-24T12:34:50.048Z,,,,,,,,,,,,,,,,,15,,,,,,,,,,,,,,693.7019999519398,,response,,,,7,A,,,,,,Space,keypress(Space),,,,silence,,,,---- --------- ---------- - --- ------- -- --- ------------<br>----- -- -------- ------- ---- ------ - -------- ---- -----<br>--- ------- ---- -- --- -------- --- - ----- ------ stay --<br>-------- --- -------- -------- --- -------- ---- -- ----- -<br>-------- ---- --- ---------- --------- -- ------- ------ -<br>--------- ----- -----,239231.82499990799,239231.52499995194,238515.692,238521.68999996502,238537.823,239237.834,,29,stay
screen,html.Screen,2_3_1_0_1_30,2021-04-24T12:34:50.442Z,,,,,,,,,,,,,,,,,15,,,,,,,,,,,,,,387.98099991938216,,response,,,,7,A,,,,,,Space,keypress(Space),,,,silence,,,,---- --------- ---------- - --- ------- -- --- ------------<br>----- -- -------- ------- ---- ------ - -------- ---- -----<br>--- ------- ---- -- --- -------- --- - ----- ------ ---- to<br>-------- --- -------- -------- --- -------- ---- -- ----- -<br>-------- ---- --- ---------- --------- -- ------- ------ -<br>--------- ----- -----,239626.1199999135,239625.81499991938,239231.044,239231.88999993727,239237.834,239645.061,,30,to
screen,html.Screen,2_3_1_0_1_31,2021-04-24T12:34:50.858Z,,,,,,,,,,,,,,,,,15,,,,,,,,,,,,,,396.78399999975227,,response,,,,7,A,,,,,,Space,keypress(Space),,,,silence,,,,---- --------- ---------- - --- ------- -- --- ------------<br>----- -- -------- ------- ---- ------ - -------- ---- -----<br>--- ------- ---- -- --- -------- --- - ----- ------ ---- --<br>maintain --- -------- -------- --- -------- ---- -- ----- -<br>-------- ---- --- ---------- --------- -- ------- ------ -<br>--------- ----- -----,240042.14999999385,240041.84499999974,239619.839,239626.1799999047,239645.061,240050.416,,31,maintain
screen,html.Screen,2_3_1_0_1_32,2021-04-24T12:34:51.201Z,,,,,,,,,,,,,,,,,15,,,,,,,,,,,,,,334.8039999382745,,response,,,,7,A,,,,,,Space,keypress(Space),,,,silence,,,,---- --------- ---------- - --- ------- -- --- ------------<br>----- -- -------- ------- ---- ------ - -------- ---- -----<br>--- ------- ---- -- --- -------- --- - ----- ------ ---- --<br>-------- his -------- -------- --- -------- ---- -- ----- -<br>-------- ---- --- ---------- --------- -- ------- ------ -<br>--------- ----- -----,240385.51499997266,240385.21999993827,240036.465,240042.21499990672,240050.416,240390.459,,32,his
screen,html.Screen,2_3_1_0_1_33,2021-04-24T12:34:51.792Z,,,,,,,,,,,,,,,,,15,,,,,,,,,,,,,,585.460999997129,,response,,,,7,A,,,,,,Space,keypress(Space),,,,silence,,,,---- --------- ---------- - --- ------- -- --- ------------<br>----- -- -------- ------- ---- ------ - -------- ---- -----<br>--- ------- ---- -- --- -------- --- - ----- ------ ---- --<br>-------- --- silence. -------- --- -------- ---- -- ----- -<br>-------- ---- --- ---------- --------- -- ------- ------ -<br>--------- ----- -----,240976.21999995317,240975.91999999713,240383.693,240385.58000000194,240390.459,240980.716,,33,silence.
screen,html.Screen,2_3_1_0_1_34,2021-04-24T12:34:52.458Z,,,,,,,,,,,,,,,,,15,,,,,,,,,,,,,,660.7789999889501,,response,,,,7,A,,,,,,Space,keypress(Space),,,,silence,,,,---- --------- ---------- - --- ------- -- --- ------------<br>----- -- -------- ------- ---- ------ - -------- ---- -----<br>--- ------- ---- -- --- -------- --- - ----- ------ ---- --<br>-------- --- -------- Anderson --- -------- ---- -- ----- -<br>-------- ---- --- ---------- --------- -- ------- ------ -<br>--------- ----- -----,241641.7899999069,241641.49499998894,240973.939,240976.28499998245,240980.716,241647.28,,34,Anderson
screen,html.Screen,2_3_1_0_1_35,2021-04-24T12:34:53.291Z,,,,,,,,,,,,,,,,,15,,,,,,,,,,,,,,827.4899999716145,,response,,,,7,A,,,,,,Space,keypress(Space),,,,silence,,,,---- --------- ---------- - --- ------- -- --- ------------<br>----- -- -------- ------- ---- ------ - -------- ---- -----<br>--- ------- ---- -- --- -------- --- - ----- ------ ---- --<br>-------- --- -------- -------- was -------- ---- -- ----- -<br>-------- ---- --- ---------- --------- -- ------- ------ -<br>--------- ----- -----,242475.09999992326,242474.7699999716,241640.535,241641.8499998981,241647.28,242487.472,,35,was
screen,html.Screen,2_3_1_0_1_36,2021-04-24T12:34:53.735Z,,,,,,,,,,,,,,,,,15,,,,,,,,,,,,,,431.3179999087588,,response,,,,7,A,,,,,,Space,keypress(Space),,,,silence,,,,---- --------- ---------- - --- ------- -- --- ------------<br>----- -- -------- ------- ---- ------ - -------- ---- -----<br>--- ------- ---- -- --- -------- --- - ----- ------ ---- --<br>-------- --- -------- -------- --- released ---- -- ----- -<br>-------- ---- --- ---------- --------- -- ------- ------ -<br>--------- ----- -----,242919.06499990728,242918.78999990877,242480.624,242475.16499995254,242487.472,242925.013,,36,released
screen,html.Screen,2_3_1_0_1_37,2021-04-24T12:34:54.196Z,,,,,,,,,,,,,,,,,15,,,,,,,,,,,,,,455.33199995409814,,response,,,,7,A,,,,,,Space,keypress(Space),,,,silence,,,,---- --------- ---------- - --- ------- -- --- ------------<br>----- -- -------- ------- ---- ------ - -------- ---- -----<br>--- ------- ---- -- --- -------- --- - ----- ------ ---- --<br>-------- --- -------- -------- --- -------- July -- ----- -<br>-------- ---- --- ---------- --------- -- ------- ------ -<br>--------- ----- -----,243380.6399999885,243380.3449999541,242918.136,242919.12999993656,242925.013,243383.21,,37,July
screen,html.Screen,2_3_1_0_1_38,2021-04-24T12:34:54.855Z,,,,,,,,,,,,,,,,,15,,,,,,,,,,,,,,656.3999999779917,,response,,,,7,A,,,,,,Space,keypress(Space),,,,silence,,,,---- --------- ---------- - --- ------- -- --- ------------<br>----- -- -------- ------- ---- ------ - -------- ---- -----<br>--- ------- ---- -- --- -------- --- - ----- ------ ---- --<br>-------- --- -------- -------- --- -------- ---- 20 ----- -<br>-------- ---- --- ---------- --------- -- ------- ------ -<br>--------- ----- -----,244039.9149999721,244039.60999997798,243376.277,243380.70499990135,243383.21,244042.875,,38,20
