sender,sender_type,sender_id,timestamp,meta,,Blues,Classical,Country,Dance,Electronic,Folk,Gospel,Hip-Hop,Jazz,Latin,Musical/Film,New-age,Pop,Prolific_id,Provo_ID,R&B,Rap,Reggae,Religious,Rock,Soul,Swing,Traditional,age,artist_name,correct,correctResponse,distraction,duration,education,ended_on,familiarity,gender,headphone_check_performance,item,list,music_frequency,offensiveness,pleasantness,position_correct,preference,response,response_action,snippet_file,song_name,song_rating,sound,stimulus_1,stimulus_2,stimulus_3,text,time_commit,time_end,time_render,time_run,time_show,time_switch,url,word,word_ID
Prolific ID,html.Form,0,2021-04-24T15:49:36.337Z,"{""labjs_version"":""20.2.2"",""labjs_build"":{""flavor"":""production"",""commit"":""a25486e0c714a0ae2ce03ff94b7bb6896854dcfa""},""location"":""https://run.pavlovia.org/mvasilev/prolific_music_d/"",""userAgent"":""Mozilla/5.0 (Windows NT 10.0; Win64; x64; rv:88.0) Gecko/20100101 Firefox/88.0"",""platform"":""Win32"",""language"":""en-US"",""locale"":""en-GB"",""timeZone"":""Europe/London"",""timezoneOffset"":-60,""screen_width"":1920,""screen_height"":1080,""scroll_width"":1920,""scroll_height"":890,""window_innerWidth"":1920,""window_innerHeight"":938,""devicePixelRatio"":1}",,,,,,,,,,,,,,,5ef25254ba594792c32878e9,,,,,,,,,,,,,,,3388.38,,form submission,,,,,,,,,,,,,,,,,,,,,8650,8649,5253.68,5251,5260.62,8656.32,{},,
Introduction,html.Screen,1_0,2021-04-24T15:49:41.366Z,,,,,,,,,,,,,,,,,,,,,,,,,,,,,,,5006.68,,response,,,,,,,,,,,continue,click button,,,,,,,,,13678,13663,8649.38,8650,8656.32,13690.84,,,
Volume calibration,html.Screen,1_1,2021-04-24T15:49:49.054Z,,,,,,,,,,,,,,,,,,,,,,,,,,,,,,,7659.16,,response,,,,,,,,,,,continue,click button,,,,,,,,,21366,21350,13683.9,13678,13690.84,21378.06,,,
Task instructions,html.Screen,1_2,2021-04-24T15:49:57.798Z,,,,,,,,,,,,,,,,,,,,,,,,,,,,,,,8721.939999999999,,response,,,,,,,,,,,continue,click button,,,,,,,,,30110,30100,21371.12,21366,21378.06,30120.78,,,
Sounds,html.Screen,1_3_0_0,2021-04-24T15:50:02.052Z,,,,,,,,,,,,,,,,,,,,,,,,,,,,,,,4249.860000000001,,timeout,,,,,,,,,3,,,,,,,,O,I,S,,34364,34363.7,30113.86,30110,30120.78,34370.64,,,
Judgement,html.Screen,1_3_0_1,2021-04-24T15:50:02.918Z,,,,,,,,,,,,,,,,,,,,,,,,,,,,true,3,,855.3600000000006,,response,,,,,,,,,3,,3,click #choice-3,,,,,O,I,S,,35230,35226,34363.7,34365,34370.64,35238.64,,,
Trial,flow.Sequence,1_3_0,2021-04-24T15:50:02.918Z,,,,,,,,,,,,,,,,,,,,,,,,,,,,,,,5105.220000000001,,completion,,,,,,,,,3,,,,,,,,O,I,S,,35230,35226,30113.86,30110,30120.78,35238.64,,,
Sounds,html.Screen,1_3_1_0,2021-04-24T15:50:07.170Z,,,,,,,,,,,,,,,,,,,,,,,,,,,,,,,4249.860000000001,,timeout,,,,,,,,,1,,,,,,,,S,I,O,,39482,39481.56,35231.72,35230,35238.64,39488.5,,,
Judgement,html.Screen,1_3_1_1,2021-04-24T15:50:07.726Z,,,,,,,,,,,,,,,,,,,,,,,,,,,,true,1,,533.5,,response,,,,,,,,,1,,1,click #choice-1,,,,,S,I,O,,40038,40022,39481.56,39482,39488.5,40050.96,,,
Trial,flow.Sequence,1_3_1,2021-04-24T15:50:07.726Z,,,,,,,,,,,,,,,,,,,,,,,,,,,,,,,4783.360000000001,,completion,,,,,,,,,1,,,,,,,,S,I,O,,40038,40022,35231.72,35230,35238.64,40050.96,,,
Sounds,html.Screen,1_3_2_0,2021-04-24T15:50:11.983Z,,,,,,,,,,,,,,,,,,,,,,,,,,,,,,,4249.840000000004,,timeout,,,,,,,,,3,,,,,,,,I,O,S,,44295,44293.86,40044.02,40038,40050.96,44300.8,,,
Judgement,html.Screen,1_3_2_1,2021-04-24T15:50:12.382Z,,,,,,,,,,,,,,,,,,,,,,,,,,,,true,3,,377.1999999999971,,response,,,,,,,,,3,,3,click #choice-3,,,,,I,O,S,,44694,44678,44293.86,44296,44300.8,44703.56,,,
Trial,flow.Sequence,1_3_2,2021-04-24T15:50:12.382Z,,,,,,,,,,,,,,,,,,,,,,,,,,,,,,,4627.040000000001,,completion,,,,,,,,,3,,,,,,,,I,O,S,,44694,44678,40044.02,40038,40050.96,44703.56,,,
Sounds,html.Screen,1_3_3_0,2021-04-24T15:50:16.635Z,,,,,,,,,,,,,,,,,,,,,,,,,,,,,,,4249.860000000001,,timeout,,,,,,,,,1,,,,,,,,S,O,I,,48947,48946.46,44696.64,44695,44703.56,48953.42,,,
Judgement,html.Screen,1_3_3_1,2021-04-24T15:50:17.046Z,,,,,,,,,,,,,,,,,,,,,,,,,,,,true,1,,396.58000000000175,,response,,,,,,,,,1,,1,click #choice-1,,,,,S,O,I,,49358,49350,48946.46,48948,48953.42,49370.06,,,
Trial,flow.Sequence,1_3_3,2021-04-24T15:50:17.046Z,,,,,,,,,,,,,,,,,,,,,,,,,,,,,,,4646.440000000002,,completion,,,,,,,,,1,,,,,,,,S,O,I,,49358,49350,44696.64,44695,44703.56,49370.06,,,
Sounds,html.Screen,1_3_4_0,2021-04-24T15:50:21.302Z,,,,,,,,,,,,,,,,,,,,,,,,,,,,,,,4249.840000000004,,timeout,,,,,,,,,2,,,,,,,,O,S,I,,53613,53612.96,49363.14,49358,49370.06,53619.9,,,
Judgement,html.Screen,1_3_4_1,2021-04-24T15:50:21.709Z,,,,,,,,,,,,,,,,,,,,,,,,,,,,true,2,,386.09999999999854,,response,,,,,,,,,2,,2,click #choice-2,,,,,O,S,I,,54021,54006,53612.96,53613,53619.9,54029.62,,,
Trial,flow.Sequence,1_3_4,2021-04-24T15:50:21.709Z,,,,,,,,,,,,,,,,,,,,,,,,,,,,,,,4635.940000000002,,completion,,,,,,,,,2,,,,,,,,O,S,I,,54021,54006,49363.14,49358,49370.06,54029.62,,,
Sounds,html.Screen,1_3_5_0,2021-04-24T15:50:25.961Z,,,,,,,,,,,,,,,,,,,,,,,,,,,,,,,4249.82,,timeout,,,,,,,,,2,,,,,,,,I,S,O,,58273,58272.5,54022.68,54022,54029.62,58279.44,,,
Judgement,html.Screen,1_3_5_1,2021-04-24T15:50:26.598Z,,,,,,,,,,,,,,,,,,,,,,,,,,,,true,2,,618.5599999999977,,response,,,,,,,,,2,,2,click #choice-2,,,,,I,S,O,,58910,58898,58272.5,58273,58279.44,58918.3,,,
Trial,flow.Sequence,1_3_5,2021-04-24T15:50:26.598Z,,,,,,,,,,,,,,,,,,,,,,,,,,,,,,,4868.379999999997,,completion,,,,,,,,,2,,,,,,,,I,S,O,,58910,58898,54022.68,54022,54029.62,58918.3,,,
Task,flow.Loop,1_3,2021-04-24T15:50:26.599Z,,,,,,,,,,,,,,,,,,,,,,,,,,,,,,,28777.22,,completion,,,1,,,,,,,,,,,,,,,,,,58911,58898,30113.86,30110,30120.78,58918.3,,,
Trap,html.Screen,1_4,2021-04-24T15:50:26.600Z,,,,,,,,,,,,,,,,,,,,,,,,,,,,,,,NaN,,skipped,,,,,,,,,,,,,,,,,,,,,58912,58898,,58912,,58918.3,,,
Thanks,html.Screen,1_5,2021-04-24T15:50:31.397Z,,,,,,,,,,,,,,,,,,,,,,,,,,,,,,,4775.699999999997,,response,,,,,,,,,,,continue,click button,,,,,,,,,63709,63694,58911.36,58913,58918.3,66126.38,,,
Headphone screening,flow.Sequence,1,2021-04-24T15:50:31.397Z,,,,,,,,,,,,,,,,,,,,,,,,,,,,,,,55037.68,,completion,,,,,,,,,,,,,,,,,,,,,63710,63694,8649.38,8650,8656.32,66126.38,,,
Instructions,html.Page,2_0,2021-04-24T15:50:56.118Z,,,,,,,,,,,,,,,,,,,,,,,,,,,,,,,22304.619999999995,,form submission,,,,,,,,,,,,,,,,,,,,,88431,88431,66121.62,66123,66126.38,88438,,,
Holding screen,html.Screen,2_1_0_0,2021-04-24T15:51:06.119Z,,,,,,,,,,,,,,,,,,,,,,,,,,,,,,,9999.580000000002,,timeout,,,,,,,,,,,,,,,,,,,,,98431,98430.64,88431.04,88431,88438,98437.58,,,
screen,html.Screen,2_1_0_1_0,2021-04-24T15:51:07.506Z,,,,,,,,,,,,,,,,,53,,,,,,,,,,,,,,1366.4199999999983,,response,,,,99,,,,,,,Space,keypress(Space),,,,,,,,When -- ----- -- ------ - ------- --- ----------<br>------------- ------ ------ ---- ---- ------- ----- -- ----<br>-------- ------- -- ---------- --- - --- ----- ----- ----<br>---- --- --- ----- --- ---- ---- ------- ----- ---- -------<br>--- --- -- ----- -- --- ---- -- --- ---- -- ------ ------<br>--- ----- -- ----,99818,99804,98430.64,98431,98437.58,99826.4,,0,When
screen,html.Screen,2_1_0_1_1,2021-04-24T15:51:07.838Z,,,,,,,,,,,,,,,,,53,,,,,,,,,,,,,,321.6000000000058,,response,,,,99,,,,,,,Space,keypress(Space),,,,,,,,---- it ----- -- ------ - ------- --- ----------<br>------------- ------ ------ ---- ---- ------- ----- -- ----<br>-------- ------- -- ---------- --- - --- ----- ----- ----<br>---- --- --- ----- --- ---- ---- ------- ----- ---- -------<br>--- --- -- ----- -- --- ---- -- --- ---- -- ------ ------<br>--- ----- -- ----,100150,100148,99818.58,99818,99826.4,100152.82,,1,it
screen,html.Screen,2_1_0_1_2,2021-04-24T15:51:08.150Z,,,,,,,,,,,,,,,,,53,,,,,,,,,,,,,,307.179999999993,,response,,,,99,,,,,,,Space,keypress(Space),,,,,,,,---- -- comes -- ------ - ------- --- ----------<br>------------- ------ ------ ---- ---- ------- ----- -- ----<br>-------- ------- -- ---------- --- - --- ----- ----- ----<br>---- --- --- ----- --- ---- ---- ------- ----- ---- -------<br>--- --- -- ----- -- --- ---- -- --- ---- -- ------ ------<br>--- ----- -- ----,100462,100460,100150.28,100150,100152.82,100465.3,,2,comes
screen,html.Screen,2_1_0_1_3,2021-04-24T15:51:08.392Z,,,,,,,,,,,,,,,,,53,,,,,,,,,,,,,,229.6999999999971,,response,,,,99,,,,,,,Space,keypress(Space),,,,,,,,---- -- ----- to ------ - ------- --- ----------<br>------------- ------ ------ ---- ---- ------- ----- -- ----<br>-------- ------- -- ---------- --- - --- ----- ----- ----<br>---- --- --- ----- --- ---- ---- ------- ----- ---- -------<br>--- --- -- ----- -- --- ---- -- --- ---- -- ------ ------<br>--- ----- -- ----,100704,100695,100462.1,100462,100465.3,100708.34,,3,to
screen,html.Screen,2_1_0_1_4,2021-04-24T15:51:08.574Z,,,,,,,,,,,,,,,,,53,,,,,,,,,,,,,,173.6600000000035,,response,,,,99,,,,,,,Space,keypress(Space),,,,,,,,---- -- ----- -- having - ------- --- ----------<br>------------- ------ ------ ---- ---- ------- ----- -- ----<br>-------- ------- -- ---------- --- - --- ----- ----- ----<br>---- --- --- ----- --- ---- ---- ------- ----- ---- -------<br>--- --- -- ----- -- --- ---- -- --- ---- -- ------ ------<br>--- ----- -- ----,100885,100882,100704,100704,100708.34,100888.9,,4,having
screen,html.Screen,2_1_0_1_5,2021-04-24T15:51:08.890Z,,,,,,,,,,,,,,,,,53,,,,,,,,,,,,,,305.1000000000058,,response,,,,99,,,,,,,Space,keypress(Space),,,,,,,,---- -- ----- -- ------ a ------- --- ----------<br>------------- ------ ------ ---- ---- ------- ----- -- ----<br>-------- ------- -- ---------- --- - --- ----- ----- ----<br>---- --- --- ----- --- ---- ---- ------- ----- ---- -------<br>--- --- -- ----- -- --- ---- -- --- ---- -- ------ ------<br>--- ----- -- ----,101202,101194,100886.02,100886,100888.9,101208.32,,5,a
screen,html.Screen,2_1_0_1_6,2021-04-24T15:51:09.154Z,,,,,,,,,,,,,,,,,53,,,,,,,,,,,,,,251.67999999999302,,response,,,,99,,,,,,,Space,keypress(Space),,,,,,,,---- -- ----- -- ------ - lasting --- ----------<br>------------- ------ ------ ---- ---- ------- ----- -- ----<br>-------- ------- -- ---------- --- - --- ----- ----- ----<br>---- --- --- ----- --- ---- ---- ------- ----- ---- -------<br>--- --- -- ----- -- --- ---- -- --- ---- -- ------ ------<br>--- ----- -- ----,101466,101460,101202.16,101202,101208.32,101472.2,,6,lasting
screen,html.Screen,2_1_0_1_7,2021-04-24T15:51:09.474Z,,,,,,,,,,,,,,,,,53,,,,,,,,,,,,,,300.8000000000029,,response,,,,99,,,,,,,Space,keypress(Space),,,,,,,,---- -- ----- -- ------ - ------- and ----------<br>------------- ------ ------ ---- ---- ------- ----- -- ----<br>-------- ------- -- ---------- --- - --- ----- ----- ----<br>---- --- --- ----- --- ---- ---- ------- ----- ---- -------<br>--- --- -- ----- -- --- ---- -- --- ---- -- ------ ------<br>--- ----- -- ----,101785,101773,101466.18,101466,101472.2,101791.62,,7,and
screen,html.Screen,2_1_0_1_8,2021-04-24T15:51:09.889Z,,,,,,,,,,,,,,,,,53,,,,,,,,,,,,,,403.38000000000466,,response,,,,99,,,,,,,Space,keypress(Space),,,,,,,,---- -- ----- -- ------ - ------- --- fulfilling<br>------------- ------ ------ ---- ---- ------- ----- -- ----<br>-------- ------- -- ---------- --- - --- ----- ----- ----<br>---- --- --- ----- --- ---- ---- ------- ----- ---- -------<br>--- --- -- ----- -- --- ---- -- --- ---- -- ------ ------<br>--- ----- -- ----,102201,102195,101786.04,101786,101791.62,102208.3,,8,fulfilling
screen,html.Screen,2_1_0_1_9,2021-04-24T15:51:10.214Z,,,,,,,,,,,,,,,,,53,,,,,,,,,,,,,,313.6999999999971,,response,,,,99,,,,,,,Space,keypress(Space),,,,,,,,"---- -- ----- -- ------ - ------- --- ----------<br>relationship, ------ ------ ---- ---- ------- ----- -- ----<br>-------- ------- -- ---------- --- - --- ----- ----- ----<br>---- --- --- ----- --- ---- ---- ------- ----- ---- -------<br>--- --- -- ----- -- --- ---- -- --- ---- -- ------ ------<br>--- ----- -- ----",102526,102522,102202.02,102202,102208.3,102527.7,,9,"relationship,"
screen,html.Screen,2_1_0_1_10,2021-04-24T15:51:10.755Z,,,,,,,,,,,,,,,,,53,,,,,,,,,,,,,,525.3000000000029,,response,,,,99,,,,,,,Space,keypress(Space),,,,,,,,---- -- ----- -- ------ - ------- --- ----------<br>------------- common ------ ---- ---- ------- ----- -- ----<br>-------- ------- -- ---------- --- - --- ----- ----- ----<br>---- --- --- ----- --- ---- ---- ------- ----- ---- -------<br>--- --- -- ----- -- --- ---- -- --- ---- -- ------ ------<br>--- ----- -- ----,103068,103053,102526.14,102526,102527.7,103069.34,,10,common
screen,html.Screen,2_1_0_1_11,2021-04-24T15:51:11.021Z,,,,,,,,,,,,,,,,,53,,,,,,,,,,,,,,249.6600000000035,,response,,,,99,,,,,,,Space,keypress(Space),,,,,,,,---- -- ----- -- ------ - ------- --- ----------<br>------------- ------ wisdom ---- ---- ------- ----- -- ----<br>-------- ------- -- ---------- --- - --- ----- ----- ----<br>---- --- --- ----- --- ---- ---- ------- ----- ---- -------<br>--- --- -- ----- -- --- ---- -- --- ---- -- ------ ------<br>--- ----- -- ----,103334,103319,103068.02,103068,103069.34,103340.18,,11,wisdom
screen,html.Screen,2_1_0_1_12,2021-04-24T15:51:11.364Z,,,,,,,,,,,,,,,,,53,,,,,,,,,,,,,,322.820000000007,,response,,,,99,,,,,,,Space,keypress(Space),,,,,,,,---- -- ----- -- ------ - ------- --- ----------<br>------------- ------ ------ says ---- ------- ----- -- ----<br>-------- ------- -- ---------- --- - --- ----- ----- ----<br>---- --- --- ----- --- ---- ---- ------- ----- ---- -------<br>--- --- -- ----- -- --- ---- -- --- ---- -- ------ ------<br>--- ----- -- ----,103676,103663,103334.22,103334,103340.18,103680.46,,12,says
screen,html.Screen,2_1_0_1_13,2021-04-24T15:51:11.661Z,,,,,,,,,,,,,,,,,53,,,,,,,,,,,,,,278.5399999999936,,response,,,,99,,,,,,,Space,keypress(Space),,,,,,,,---- -- ----- -- ------ - ------- --- ----------<br>------------- ------ ------ ---- that ------- ----- -- ----<br>-------- ------- -- ---------- --- - --- ----- ----- ----<br>---- --- --- ----- --- ---- ---- ------- ----- ---- -------<br>--- --- -- ----- -- --- ---- -- --- ---- -- ------ ------<br>--- ----- -- ----,103973,103959,103676.06,103676,103680.46,103979.04,,13,that
screen,html.Screen,2_1_0_1_14,2021-04-24T15:51:11.914Z,,,,,,,,,,,,,,,,,53,,,,,,,,,,,,,,230.9600000000064,,response,,,,99,,,,,,,Space,keypress(Space),,,,,,,,---- -- ----- -- ------ - ------- --- ----------<br>------------- ------ ------ ---- ---- feeling ----- -- ----<br>-------- ------- -- ---------- --- - --- ----- ----- ----<br>---- --- --- ----- --- ---- ---- ------- ----- ---- -------<br>--- --- -- ----- -- --- ---- -- --- ---- -- ------ ------<br>--- ----- -- ----,104226,104210,103974.06,103974,103979.04,104229.04,,14,feeling
screen,html.Screen,2_1_0_1_15,2021-04-24T15:51:12.222Z,,,,,,,,,,,,,,,,,53,,,,,,,,,,,,,,293.9600000000064,,response,,,,99,,,,,,,Space,keypress(Space),,,,,,,,---- -- ----- -- ------ - ------- --- ----------<br>------------- ------ ------ ---- ---- ------- close -- ----<br>-------- ------- -- ---------- --- - --- ----- ----- ----<br>---- --- --- ----- --- ---- ---- ------- ----- ---- -------<br>--- --- -- ----- -- --- ---- -- --- ---- -- ------ ------<br>--- ----- -- ----,104534,104523,104226.14,104226,104229.04,104541.5,,15,close
screen,html.Screen,2_1_0_1_16,2021-04-24T15:51:12.487Z,,,,,,,,,,,,,,,,,53,,,,,,,,,,,,,,246.5,,response,,,,99,,,,,,,Space,keypress(Space),,,,,,,,---- -- ----- -- ------ - ------- --- ----------<br>------------- ------ ------ ---- ---- ------- ----- to ----<br>-------- ------- -- ---------- --- - --- ----- ----- ----<br>---- --- --- ----- --- ---- ---- ------- ----- ---- -------<br>--- --- -- ----- -- --- ---- -- --- ---- -- ------ ------<br>--- ----- -- ----,104800,104788,104533.94,104534,104541.5,104805.42,,16,to
screen,html.Screen,2_1_0_1_17,2021-04-24T15:51:12.668Z,,,,,,,,,,,,,,,,,53,,,,,,,,,,,,,,170.58000000000175,,response,,,,99,,,,,,,Space,keypress(Space),,,,,,,,---- -- ----- -- ------ - ------- --- ----------<br>------------- ------ ------ ---- ---- ------- ----- -- your<br>-------- ------- -- ---------- --- - --- ----- ----- ----<br>---- --- --- ----- --- ---- ---- ------- ----- ---- -------<br>--- --- -- ----- -- --- ---- -- --- ---- -- ------ ------<br>--- ----- -- ----,104980,104976,104800.16,104800,104805.42,104985.94,,17,your
screen,html.Screen,2_1_0_1_18,2021-04-24T15:51:13.000Z,,,,,,,,,,,,,,,,,53,,,,,,,,,,,,,,317.0599999999977,,response,,,,99,,,,,,,Space,keypress(Space),,,,,,,,---- -- ----- -- ------ - ------- --- ----------<br>------------- ------ ------ ---- ---- ------- ----- -- ----<br>romantic ------- -- ---------- --- - --- ----- ----- ----<br>---- --- --- ----- --- ---- ---- ------- ----- ---- -------<br>--- --- -- ----- -- --- ---- -- --- ---- -- ------ ------<br>--- ----- -- ----,105312,105303,104980.1,104980,104985.94,105319.24,,18,romantic
screen,html.Screen,2_1_0_1_19,2021-04-24T15:51:13.266Z,,,,,,,,,,,,,,,,,53,,,,,,,,,,,,,,250.75999999999476,,response,,,,99,,,,,,,Space,keypress(Space),,,,,,,,---- -- ----- -- ------ - ------- --- ----------<br>------------- ------ ------ ---- ---- ------- ----- -- ----<br>-------- partner -- ---------- --- - --- ----- ----- ----<br>---- --- --- ----- --- ---- ---- ------- ----- ---- -------<br>--- --- -- ----- -- --- ---- -- --- ---- -- ------ ------<br>--- ----- -- ----,105577,105570,105312.12,105312,105319.24,105583.14,,19,partner
screen,html.Screen,2_1_0_1_20,2021-04-24T15:51:13.538Z,,,,,,,,,,,,,,,,,53,,,,,,,,,,,,,,251.86000000000058,,response,,,,99,,,,,,,Space,keypress(Space),,,,,,,,---- -- ----- -- ------ - ------- --- ----------<br>------------- ------ ------ ---- ---- ------- ----- -- ----<br>-------- ------- is ---------- --- - --- ----- ----- ----<br>---- --- --- ----- --- ---- ---- ------- ----- ---- -------<br>--- --- -- ----- -- --- ---- -- --- ---- -- ------ ------<br>--- ----- -- ----,105850,105835,105577.86,105577,105583.14,105853.98,,20,is
screen,html.Screen,2_1_0_1_21,2021-04-24T15:51:13.784Z,,,,,,,,,,,,,,,,,53,,,,,,,,,,,,,,231.02000000000407,,response,,,,99,,,,,,,Space,keypress(Space),,,,,,,,---- -- ----- -- ------ - ------- --- ----------<br>------------- ------ ------ ---- ---- ------- ----- -- ----<br>-------- ------- -- paramount. --- - --- ----- ----- ----<br>---- --- --- ----- --- ---- ---- ------- ----- ---- -------<br>--- --- -- ----- -- --- ---- -- --- ---- -- ------ ------<br>--- ----- -- ----,106096,106085,105849.98,105850,105853.98,106103.92,,21,paramount.
screen,html.Screen,2_1_0_1_22,2021-04-24T15:51:14.140Z,,,,,,,,,,,,,,,,,53,,,,,,,,,,,,,,341.08000000000175,,response,,,,99,,,,,,,Space,keypress(Space),,,,,,,,---- -- ----- -- ------ - ------- --- ----------<br>------------- ------ ------ ---- ---- ------- ----- -- ----<br>-------- ------- -- ---------- But - --- ----- ----- ----<br>---- --- --- ----- --- ---- ---- ------- ----- ---- -------<br>--- --- -- ----- -- --- ---- -- --- ---- -- ------ ------<br>--- ----- -- ----,106452,106445,106096.12,106096,106103.92,106458.12,,22,But
screen,html.Screen,2_1_0_1_23,2021-04-24T15:51:14.416Z,,,,,,,,,,,,,,,,,53,,,,,,,,,,,,,,267.88000000000466,,response,,,,99,,,,,,,Space,keypress(Space),,,,,,,,---- -- ----- -- ------ - ------- --- ----------<br>------------- ------ ------ ---- ---- ------- ----- -- ----<br>-------- ------- -- ---------- --- a --- ----- ----- ----<br>---- --- --- ----- --- ---- ---- ------- ----- ---- -------<br>--- --- -- ----- -- --- ---- -- --- ---- -- ------ ------<br>--- ----- -- ----,106728,106726,106452,106452,106458.12,106735.84,,23,a
screen,html.Screen,2_1_0_1_24,2021-04-24T15:51:14.544Z,,,,,,,,,,,,,,,,,53,,,,,,,,,,,,,,114.16000000000349,,response,,,,99,,,,,,,Space,keypress(Space),,,,,,,,---- -- ----- -- ------ - ------- --- ----------<br>------------- ------ ------ ---- ---- ------- ----- -- ----<br>-------- ------- -- ---------- --- - new ----- ----- ----<br>---- --- --- ----- --- ---- ---- ------- ----- ---- -------<br>--- --- -- ----- -- --- ---- -- --- ---- -- ------ ------<br>--- ----- -- ----,106855,106850,106728.04,106728,106735.84,106860.88,,24,new
screen,html.Screen,2_1_0_1_25,2021-04-24T15:51:14.659Z,,,,,,,,,,,,,,,,,53,,,,,,,,,,,,,,98.11999999999534,,response,,,,99,,,,,,,Space,keypress(Space),,,,,,,,---- -- ----- -- ------ - ------- --- ----------<br>------------- ------ ------ ---- ---- ------- ----- -- ----<br>-------- ------- -- ---------- --- - --- study ----- ----<br>---- --- --- ----- --- ---- ---- ------- ----- ---- -------<br>--- --- -- ----- -- --- ---- -- --- ---- -- ------ ------<br>--- ----- -- ----,106972,106959,106855.78,106856,106860.88,106978.9,,25,study
screen,html.Screen,2_1_0_1_26,2021-04-24T15:51:15.161Z,,,,,,,,,,,,,,,,,53,,,,,,,,,,,,,,481.1000000000058,,response,,,,99,,,,,,,Space,keypress(Space),,,,,,,,---- -- ----- -- ------ - ------- --- ----------<br>------------- ------ ------ ---- ---- ------- ----- -- ----<br>-------- ------- -- ---------- --- - --- ----- finds ----<br>---- --- --- ----- --- ---- ---- ------- ----- ---- -------<br>--- --- -- ----- -- --- ---- -- --- ---- -- ------ ------<br>--- ----- -- ----,107474,107460,106971.74,106972,106978.9,107478.92,,26,finds
screen,html.Screen,2_1_0_1_27,2021-04-24T15:51:15.462Z,,,,,,,,,,,,,,,,,53,,,,,,,,,,,,,,294.08000000000175,,response,,,,99,,,,,,,Space,keypress(Space),,,,,,,,---- -- ----- -- ------ - ------- --- ----------<br>------------- ------ ------ ---- ---- ------- ----- -- ----<br>-------- ------- -- ---------- --- - --- ----- ----- that<br>---- --- --- ----- --- ---- ---- ------- ----- ---- -------<br>--- --- -- ----- -- --- ---- -- --- ---- -- ------ ------<br>--- ----- -- ----,107774,107773,107474.24,107474,107478.92,107777.5,,27,that
screen,html.Screen,2_1_0_1_28,2021-04-24T15:51:15.771Z,,,,,,,,,,,,,,,,,53,,,,,,,,,,,,,,291.5,,response,,,,99,,,,,,,Space,keypress(Space),,,,,,,,---- -- ----- -- ------ - ------- --- ----------<br>------------- ------ ------ ---- ---- ------- ----- -- ----<br>-------- ------- -- ---------- --- - --- ----- ----- ----<br>it's --- --- ----- --- ---- ---- ------- ----- ---- -------<br>--- --- -- ----- -- --- ---- -- --- ---- -- ------ ------<br>--- ----- -- ----,108084,108069,107773.98,107774,107777.5,108090,,28,it's
screen,html.Screen,2_1_0_1_29,2021-04-24T15:51:16.059Z,,,,,,,,,,,,,,,,,53,,,,,,,,,,,,,,277,,response,,,,99,,,,,,,Space,keypress(Space),,,,,,,,---- -- ----- -- ------ - ------- --- ----------<br>------------- ------ ------ ---- ---- ------- ----- -- ----<br>-------- ------- -- ---------- --- - --- ----- ----- ----<br>---- not --- ----- --- ---- ---- ------- ----- ---- -------<br>--- --- -- ----- -- --- ---- -- --- ---- -- ------ ------<br>--- ----- -- ----,108371,108367,108084.14,108084,108090,108374.68,,29,not
screen,html.Screen,2_1_0_1_30,2021-04-24T15:51:16.242Z,,,,,,,,,,,,,,,,,53,,,,,,,,,,,,,,162.32000000000698,,response,,,,99,,,,,,,Space,keypress(Space),,,,,,,,---- -- ----- -- ------ - ------- --- ----------<br>------------- ------ ------ ---- ---- ------- ----- -- ----<br>-------- ------- -- ---------- --- - --- ----- ----- ----<br>---- --- how ----- --- ---- ---- ------- ----- ---- -------<br>--- --- -- ----- -- --- ---- -- --- ---- -- ------ ------<br>--- ----- -- ----,108554,108537,108371.92,108371,108374.68,108555.26,,30,how
screen,html.Screen,2_1_0_1_31,2021-04-24T15:51:16.508Z,,,,,,,,,,,,,,,,,53,,,,,,,,,,,,,,247.74000000000524,,response,,,,99,,,,,,,Space,keypress(Space),,,,,,,,---- -- ----- -- ------ - ------- --- ----------<br>------------- ------ ------ ---- ---- ------- ----- -- ----<br>-------- ------- -- ---------- --- - --- ----- ----- ----<br>---- --- --- close --- ---- ---- ------- ----- ---- -------<br>--- --- -- ----- -- --- ---- -- --- ---- -- ------ ------<br>--- ----- -- ----,108820,108803,108554.1,108554,108555.26,108826.08,,31,close
screen,html.Screen,2_1_0_1_32,2021-04-24T15:51:16.774Z,,,,,,,,,,,,,,,,,53,,,,,,,,,,,,,,258.91999999999825,,response,,,,99,,,,,,,Space,keypress(Space),,,,,,,,---- -- ----- -- ------ - ------- --- ----------<br>------------- ------ ------ ---- ---- ------- ----- -- ----<br>-------- ------- -- ---------- --- - --- ----- ----- ----<br>---- --- --- ----- you ---- ---- ------- ----- ---- -------<br>--- --- -- ----- -- --- ---- -- --- ---- -- ------ ------<br>--- ----- -- ----,109086,109085,108820.14,108820,108826.08,109089.96,,32,you
screen,html.Screen,2_1_0_1_33,2021-04-24T15:51:16.953Z,,,,,,,,,,,,,,,,,53,,,,,,,,,,,,,,167.0399999999936,,response,,,,99,,,,,,,Space,keypress(Space),,,,,,,,---- -- ----- -- ------ - ------- --- ----------<br>------------- ------ ------ ---- ---- ------- ----- -- ----<br>-------- ------- -- ---------- --- - --- ----- ----- ----<br>---- --- --- ----- --- feel ---- ------- ----- ---- -------<br>--- --- -- ----- -- --- ---- -- --- ---- -- ------ ------<br>--- ----- -- ----,109266,109257,109086.06,109086,109089.96,109270.5,,33,feel
screen,html.Screen,2_1_0_1_34,2021-04-24T15:51:17.296Z,,,,,,,,,,,,,,,,,53,,,,,,,,,,,,,,330.5,,response,,,,99,,,,,,,Space,keypress(Space),,,,,,,,---- -- ----- -- ------ - ------- --- ----------<br>------------- ------ ------ ---- ---- ------- ----- -- ----<br>-------- ------- -- ---------- --- - --- ----- ----- ----<br>---- --- --- ----- --- ---- that ------- ----- ---- -------<br>--- --- -- ----- -- --- ---- -- --- ---- -- ------ ------<br>--- ----- -- ----,109608,109601,109265.68,109266,109270.5,109610.76,,34,that
screen,html.Screen,2_1_0_1_35,2021-04-24T15:51:17.581Z,,,,,,,,,,,,,,,,,53,,,,,,,,,,,,,,271.24000000000524,,response,,,,99,,,,,,,Space,keypress(Space),,,,,,,,---- -- ----- -- ------ - ------- --- ----------<br>------------- ------ ------ ---- ---- ------- ----- -- ----<br>-------- ------- -- ---------- --- - --- ----- ----- ----<br>---- --- --- ----- --- ---- ---- matters ----- ---- -------<br>--- --- -- ----- -- --- ---- -- --- ---- -- ------ ------<br>--- ----- -- ----,109894,109882,109607.9,109608,109610.76,109895.48,,35,matters
screen,html.Screen,2_1_0_1_36,2021-04-24T15:51:17.857Z,,,,,,,,,,,,,,,,,53,,,,,,,,,,,,,,267.5200000000041,,response,,,,99,,,,,,,Space,keypress(Space),,,,,,,,"---- -- ----- -- ------ - ------- --- ----------<br>------------- ------ ------ ---- ---- ------- ----- -- ----<br>-------- ------- -- ---------- --- - --- ----- ----- ----<br>---- --- --- ----- --- ---- ---- ------- most, ---- -------<br>--- --- -- ----- -- --- ---- -- --- ---- -- ------ ------<br>--- ----- -- ----",110170,110163,109893.92,109894,109895.48,110173.24,,36,"most,"
screen,html.Screen,2_1_0_1_37,2021-04-24T15:51:18.171Z,,,,,,,,,,,,,,,,,53,,,,,,,,,,,,,,302.75999999999476,,response,,,,99,,,,,,,Space,keypress(Space),,,,,,,,---- -- ----- -- ------ - ------- --- ----------<br>------------- ------ ------ ---- ---- ------- ----- -- ----<br>-------- ------- -- ---------- --- - --- ----- ----- ----<br>---- --- --- ----- --- ---- ---- ------- ----- it's -------<br>--- --- -- ----- -- --- ---- -- --- ---- -- ------ ------<br>--- ----- -- ----,110484,110476,110170,110170,110173.24,110485.74,,37,it's
screen,html.Screen,2_1_0_1_38,2021-04-24T15:51:18.427Z,,,,,,,,,,,,,,,,,53,,,,,,,,,,,,,,240.25999999999476,,response,,,,99,,,,,,,Space,keypress(Space),,,,,,,,---- -- ----- -- ------ - ------- --- ----------<br>------------- ------ ------ ---- ---- ------- ----- -- ----<br>-------- ------- -- ---------- --- - --- ----- ----- ----<br>---- --- --- ----- --- ---- ---- ------- ----- ---- whether<br>--- --- -- ----- -- --- ---- -- --- ---- -- ------ ------<br>--- ----- -- ----,110740,110726,110483.92,110484,110485.74,110742.66,,38,whether
screen,html.Screen,2_1_0_1_39,2021-04-24T15:51:18.722Z,,,,,,,,,,,,,,,,,53,,,,,,,,,,,,,,280.3399999999965,,response,,,,99,,,,,,,Space,keypress(Space),,,,,,,,---- -- ----- -- ------ - ------- --- ----------<br>------------- ------ ------ ---- ---- ------- ----- -- ----<br>-------- ------- -- ---------- --- - --- ----- ----- ----<br>---- --- --- ----- --- ---- ---- ------- ----- ---- -------<br>you --- -- ----- -- --- ---- -- --- ---- -- ------ ------<br>--- ----- -- ----,111034,111023,110740.12,110740,110742.66,111041.24,,39,you
screen,html.Screen,2_1_0_1_40,2021-04-24T15:51:18.931Z,,,,,,,,,,,,,,,,,53,,,,,,,,,,,,,,199.75999999999476,,response,,,,99,,,,,,,Space,keypress(Space),,,,,,,,---- -- ----- -- ------ - ------- --- ----------<br>------------- ------ ------ ---- ---- ------- ----- -- ----<br>-------- ------- -- ---------- --- - --- ----- ----- ----<br>---- --- --- ----- --- ---- ---- ------- ----- ---- -------<br>--- are -- ----- -- --- ---- -- --- ---- -- ------ ------<br>--- ----- -- ----,111244,111241,111034.12,111034,111041.24,111249.58,,40,are
screen,html.Screen,2_1_0_1_41,2021-04-24T15:51:19.170Z,,,,,,,,,,,,,,,,,53,,,,,,,,,,,,,,225.41999999999825,,response,,,,99,,,,,,,Space,keypress(Space),,,,,,,,---- -- ----- -- ------ - ------- --- ----------<br>------------- ------ ------ ---- ---- ------- ----- -- ----<br>-------- ------- -- ---------- --- - --- ----- ----- ----<br>---- --- --- ----- --- ---- ---- ------- ----- ---- -------<br>--- --- as ----- -- --- ---- -- --- ---- -- ------ ------<br>--- ----- -- ----,111482,111475,111243.9,111244,111249.58,111485.68,,41,as
screen,html.Screen,2_1_0_1_42,2021-04-24T15:51:19.428Z,,,,,,,,,,,,,,,,,53,,,,,,,,,,,,,,240.32000000000698,,response,,,,99,,,,,,,Space,keypress(Space),,,,,,,,---- -- ----- -- ------ - ------- --- ----------<br>------------- ------ ------ ---- ---- ------- ----- -- ----<br>-------- ------- -- ---------- --- - --- ----- ----- ----<br>---- --- --- ----- --- ---- ---- ------- ----- ---- -------<br>--- --- -- close -- --- ---- -- --- ---- -- ------ ------<br>--- ----- -- ----,111739,111726,111481.88,111482,111485.68,111742.62,,42,close
screen,html.Screen,2_1_0_1_43,2021-04-24T15:51:19.648Z,,,,,,,,,,,,,,,,,53,,,,,,,,,,,,,,201.38000000000466,,response,,,,99,,,,,,,Space,keypress(Space),,,,,,,,---- -- ----- -- ------ - ------- --- ----------<br>------------- ------ ------ ---- ---- ------- ----- -- ----<br>-------- ------- -- ---------- --- - --- ----- ----- ----<br>---- --- --- ----- --- ---- ---- ------- ----- ---- -------<br>--- --- -- ----- as --- ---- -- --- ---- -- ------ ------<br>--- ----- -- ----,111960,111944,111739.9,111740,111742.62,111964.82,,43,as
screen,html.Screen,2_1_0_1_44,2021-04-24T15:51:19.914Z,,,,,,,,,,,,,,,,,53,,,,,,,,,,,,,,245.17999999999302,,response,,,,99,,,,,,,Space,keypress(Space),,,,,,,,---- -- ----- -- ------ - ------- --- ----------<br>------------- ------ ------ ---- ---- ------- ----- -- ----<br>-------- ------- -- ---------- --- - --- ----- ----- ----<br>---- --- --- ----- --- ---- ---- ------- ----- ---- -------<br>--- --- -- ----- -- you ---- -- --- ---- -- ------ ------<br>--- ----- -- ----,112226,112210,111959.88,111960,111964.82,112228.72,,44,you
screen,html.Screen,2_1_0_1_45,2021-04-24T15:51:20.158Z,,,,,,,,,,,,,,,,,53,,,,,,,,,,,,,,231.27999999999884,,response,,,,99,,,,,,,Space,keypress(Space),,,,,,,,---- -- ----- -- ------ - ------- --- ----------<br>------------- ------ ------ ---- ---- ------- ----- -- ----<br>-------- ------- -- ---------- --- - --- ----- ----- ----<br>---- --- --- ----- --- ---- ---- ------- ----- ---- -------<br>--- --- -- ----- -- --- want -- --- ---- -- ------ ------<br>--- ----- -- ----,112469,112460,112226,112226,112228.72,112471.76,,45,want
screen,html.Screen,2_1_0_1_46,2021-04-24T15:51:20.410Z,,,,,,,,,,,,,,,,,53,,,,,,,,,,,,,,237.24000000000524,,response,,,,99,,,,,,,Space,keypress(Space),,,,,,,,---- -- ----- -- ------ - ------- --- ----------<br>------------- ------ ------ ---- ---- ------- ----- -- ----<br>-------- ------- -- ---------- --- - --- ----- ----- ----<br>---- --- --- ----- --- ---- ---- ------- ----- ---- -------<br>--- --- -- ----- -- --- ---- to --- ---- -- ------ ------<br>--- ----- -- ----,112722,112709,112469.7,112469,112471.76,112728.7,,46,to
screen,html.Screen,2_1_0_1_47,2021-04-24T15:51:20.577Z,,,,,,,,,,,,,,,,,53,,,,,,,,,,,,,,153.3000000000029,,response,,,,99,,,,,,,Space,keypress(Space),,,,,,,,"---- -- ----- -- ------ - ------- --- ----------<br>------------- ------ ------ ---- ---- ------- ----- -- ----<br>-------- ------- -- ---------- --- - --- ----- ----- ----<br>---- --- --- ----- --- ---- ---- ------- ----- ---- -------<br>--- --- -- ----- -- --- ---- -- be, ---- -- ------ ------<br>--- ----- -- ----",112890,112882,112721.92,112722,112728.7,112895.34,,47,"be,"
screen,html.Screen,2_1_0_1_48,2021-04-24T15:51:20.925Z,,,,,,,,,,,,,,,,,53,,,,,,,,,,,,,,329.6600000000035,,response,,,,99,,,,,,,Space,keypress(Space),,,,,,,,---- -- ----- -- ------ - ------- --- ----------<br>------------- ------ ------ ---- ---- ------- ----- -- ----<br>-------- ------- -- ---------- --- - --- ----- ----- ----<br>---- --- --- ----- --- ---- ---- ------- ----- ---- -------<br>--- --- -- ----- -- --- ---- -- --- even -- ------ ------<br>--- ----- -- ----,113238,113225,112889.9,112890,112895.34,113242.56,,48,even
screen,html.Screen,2_1_0_1_49,2021-04-24T15:51:21.122Z,,,,,,,,,,,,,,,,,53,,,,,,,,,,,,,,186.44000000000233,,response,,,,99,,,,,,,Space,keypress(Space),,,,,,,,---- -- ----- -- ------ - ------- --- ----------<br>------------- ------ ------ ---- ---- ------- ----- -- ----<br>-------- ------- -- ---------- --- - --- ----- ----- ----<br>---- --- --- ----- --- ---- ---- ------- ----- ---- -------<br>--- --- -- ----- -- --- ---- -- --- ---- if ------ ------<br>--- ----- -- ----,113434,113429,113238.06,113238,113242.56,113436.98,,49,if
screen,html.Screen,2_1_0_1_50,2021-04-24T15:51:21.385Z,,,,,,,,,,,,,,,,,53,,,,,,,,,,,,,,257.0200000000041,,response,,,,99,,,,,,,Space,keypress(Space),,,,,,,,---- -- ----- -- ------ - ------- --- ----------<br>------------- ------ ------ ---- ---- ------- ----- -- ----<br>-------- ------- -- ---------- --- - --- ----- ----- ----<br>---- --- --- ----- --- ---- ---- ------- ----- ---- -------<br>--- --- -- ----- -- --- ---- -- --- ---- -- that's ------<br>--- ----- -- ----,113698,113694,113434.08,113434,113436.98,113700.86,,50,that's
screen,html.Screen,2_1_0_1_51,2021-04-24T15:51:21.669Z,,,,,,,,,,,,,,,,,53,,,,,,,,,,,,,,275.1399999999994,,response,,,,99,,,,,,,Space,keypress(Space),,,,,,,,---- -- ----- -- ------ - ------- --- ----------<br>------------- ------ ------ ---- ---- ------- ----- -- ----<br>-------- ------- -- ---------- --- - --- ----- ----- ----<br>---- --- --- ----- --- ---- ---- ------- ----- ---- -------<br>--- --- -- ----- -- --- ---- -- --- ---- -- ------ really<br>--- ----- -- ----,113982,113976,113698,113698,113700.86,113985.58,,51,really
screen,html.Screen,2_1_0_1_52,2021-04-24T15:51:21.988Z,,,,,,,,,,,,,,,,,53,,,,,,,,,,,,,,302.41999999999825,,response,,,,99,,,,,,,Space,keypress(Space),,,,,,,,---- -- ----- -- ------ - ------- --- ----------<br>------------- ------ ------ ---- ---- ------- ----- -- ----<br>-------- ------- -- ---------- --- - --- ----- ----- ----<br>---- --- --- ----- --- ---- ---- ------- ----- ---- -------<br>--- --- -- ----- -- --- ---- -- --- ---- -- ------ ------<br>not ----- -- ----,114300,114288,113981.86,113982,113985.58,114305.02,,52,not
screen,html.Screen,2_1_0_1_53,2021-04-24T15:51:22.215Z,,,,,,,,,,,,,,,,,53,,,,,,,,,,,,,,216.97999999999593,,response,,,,99,,,,,,,Space,keypress(Space),,,,,,,,---- -- ----- -- ------ - ------- --- ----------<br>------------- ------ ------ ---- ---- ------- ----- -- ----<br>-------- ------- -- ---------- --- - --- ----- ----- ----<br>---- --- --- ----- --- ---- ---- ------- ----- ---- -------<br>--- --- -- ----- -- --- ---- -- --- ---- -- ------ ------<br>--- close -- ----,114528,114522,114300.04,114300,114305.02,114534.16,,53,close
screen,html.Screen,2_1_0_1_54,2021-04-24T15:51:22.527Z,,,,,,,,,,,,,,,,,53,,,,,,,,,,,,,,300.8399999999965,,response,,,,99,,,,,,,Space,keypress(Space),,,,,,,,---- -- ----- -- ------ - ------- --- ----------<br>------------- ------ ------ ---- ---- ------- ----- -- ----<br>-------- ------- -- ---------- --- - --- ----- ----- ----<br>---- --- --- ----- --- ---- ---- ------- ----- ---- -------<br>--- --- -- ----- -- --- ---- -- --- ---- -- ------ ------<br>--- ----- at ----,114840,114835,114527.84,114528,114534.16,114846.68,,54,at
screen,html.Screen,2_1_0_1_55,2021-04-24T15:51:22.785Z,,,,,,,,,,,,,,,,,53,,,,,,,,,,,,,,238.32000000000698,,response,,,,99,,,,,,,Space,keypress(Space),,,,,,,,---- -- ----- -- ------ - ------- --- ----------<br>------------- ------ ------ ---- ---- ------- ----- -- ----<br>-------- ------- -- ---------- --- - --- ----- ----- ----<br>---- --- --- ----- --- ---- ---- ------- ----- ---- -------<br>--- --- -- ----- -- --- ---- -- --- ---- -- ------ ------<br>--- ----- -- all.,115098,115085,114840,114840,114846.68,115103.62,,55,all.
Item 99,flow.Loop,2_1_0_1,2021-04-24T15:51:22.785Z,,,,,,,,,,,,,,,,,,,,,,,,,,,,,,,16647.42,,completion,,,,,D,,,,,,,,,,,silence,,,,,115098,115085,98430.64,98431,98437.58,115103.62,,,
Question 1,html.Screen,2_1_0_2,2021-04-24T15:51:27.790Z,,,,,,,,,,,,,,,,,,,,,,,,,,,,true,FALSE,,4996.380000000005,,response,,,,99,D,,,,,,FALSE,click #choice-2,,,,silence,,,,,120101,120100,115098.14,115098,115103.62,120110.32,,,
Question 2,html.Screen,2_1_0_3,2021-04-24T15:51:32.077Z,,,,,,,,,,,,,,,,,,,,,,,,,,,,true,TRUE,,4271.679999999993,,response,,,,99,D,,,,,,TRUE,click #choice-1,,,,silence,,,,,124389,124382,120103.38,120101,120110.32,124401.8,,,
Item 99,flow.Sequence,2_1_0,2021-04-24T15:51:32.078Z,,,,,,,,,,,,,,,,,,,,,,,,,,,,,,,35944,,completion,,,,,,,,,,,,,,,,,,,,,124389,124382,88431.04,88431,88438,124401.8,,,
Holding screen,html.Screen,2_1_1_0,2021-04-24T15:51:42.083Z,,,,,,,,,,,,,,,,,,,,,,,,,,,,,,,9999.599999999991,,timeout,,,,,,,,,,,,,,,,,,,,,134395,134394.44,124394.88,124390,124401.8,134401.4,,,
screen,html.Screen,2_1_1_1_0,2021-04-24T15:51:43.040Z,,,,,,,,,,,,,,,,,54,,,,,,,,,,,,,,948.6000000000058,,response,,,,100,,,,,,,Space,keypress(Space),,,,,,,,At --- ---- --- ------ ----- ------- ---- -- --- ------- --<br>------- ---------- ------ -- ----- -- ----- -- ---- ------<br>--- ----- --- --- ------ -------- ----- --- ------ ----- --<br>----- ----- ---------- --- --- ------ ------ ---- -- ------<br>------- --- ------ ----- --- ---- ------- -- ---- --- --<br>------- ------,135352,135350,134394.44,134395,134401.4,135359.68,,0,At
screen,html.Screen,2_1_1_1_1,2021-04-24T15:51:43.302Z,,,,,,,,,,,,,,,,,54,,,,,,,,,,,,,,241.32000000000698,,response,,,,100,,,,,,,Space,keypress(Space),,,,,,,,-- the ---- --- ------ ----- ------- ---- -- --- ------- --<br>------- ---------- ------ -- ----- -- ----- -- ---- ------<br>--- ----- --- --- ------ -------- ----- --- ------ ----- --<br>----- ----- ---------- --- --- ------ ------ ---- -- ------<br>------- --- ------ ----- --- ---- ------- -- ---- --- --<br>------- ------,135614,135601,135352.08,135352,135359.68,135616.64,,1,the
screen,html.Screen,2_1_1_1_2,2021-04-24T15:51:43.526Z,,,,,,,,,,,,,,,,,54,,,,,,,,,,,,,,218.35999999998603,,response,,,,100,,,,,,,Space,keypress(Space),,,,,,,,-- --- time --- ------ ----- ------- ---- -- --- ------- --<br>------- ---------- ------ -- ----- -- ----- -- ---- ------<br>--- ----- --- --- ------ -------- ----- --- ------ ----- --<br>----- ----- ---------- --- --- ------ ------ ---- -- ------<br>------- --- ------ ----- --- ---- ------- -- ---- --- --<br>------- ------,135837,135835,135614.12,135614,135616.64,135845.78,,2,time
screen,html.Screen,2_1_1_1_3,2021-04-24T15:51:43.803Z,,,,,,,,,,,,,,,,,54,,,,,,,,,,,,,,255.22000000000116,,response,,,,100,,,,,,,Space,keypress(Space),,,,,,,,-- --- ---- the ------ ----- ------- ---- -- --- ------- --<br>------- ---------- ------ -- ----- -- ----- -- ---- ------<br>--- ----- --- --- ------ -------- ----- --- ------ ----- --<br>----- ----- ---------- --- --- ------ ------ ---- -- ------<br>------- --- ------ ----- --- ---- ------- -- ---- --- --<br>------- ------,136116,136101,135837.9,135838,135845.78,136123.54,,3,the
screen,html.Screen,2_1_1_1_4,2021-04-24T15:51:44.042Z,,,,,,,,,,,,,,,,,54,,,,,,,,,,,,,,227.45999999999185,,response,,,,100,,,,,,,Space,keypress(Space),,,,,,,,-- --- ---- --- French ----- ------- ---- -- --- ------- --<br>------- ---------- ------ -- ----- -- ----- -- ---- ------<br>--- ----- --- --- ------ -------- ----- --- ------ ----- --<br>----- ----- ---------- --- --- ------ ------ ---- -- ------<br>------- --- ------ ----- --- ---- ------- -- ---- --- --<br>------- ------,136354,136351,136116.08,136116,136123.54,136359.66,,4,French
screen,html.Screen,2_1_1_1_5,2021-04-24T15:51:44.294Z,,,,,,,,,,,,,,,,,54,,,,,,,,,,,,,,241.3399999999965,,response,,,,100,,,,,,,Space,keypress(Space),,,,,,,,-- --- ---- --- ------ crown ------- ---- -- --- ------- --<br>------- ---------- ------ -- ----- -- ----- -- ---- ------<br>--- ----- --- --- ------ -------- ----- --- ------ ----- --<br>----- ----- ---------- --- --- ------ ------ ---- -- ------<br>------- --- ------ ----- --- ---- ------- -- ---- --- --<br>------- ------,136606,136601,136353.88,136354,136359.66,136609.66,,5,crown
screen,html.Screen,2_1_1_1_6,2021-04-24T15:51:44.592Z,,,,,,,,,,,,,,,,,54,,,,,,,,,,,,,,288.3399999999965,,response,,,,100,,,,,,,Space,keypress(Space),,,,,,,,-- --- ---- --- ------ ----- secured ---- -- --- ------- --<br>------- ---------- ------ -- ----- -- ----- -- ---- ------<br>--- ----- --- --- ------ -------- ----- --- ------ ----- --<br>----- ----- ---------- --- --- ------ ------ ---- -- ------<br>------- --- ------ ----- --- ---- ------- -- ---- --- --<br>------- ------,136904,136898,136606.02,136606,136609.66,136908.26,,6,secured
screen,html.Screen,2_1_1_1_7,2021-04-24T15:51:45.327Z,,,,,,,,,,,,,,,,,54,,,,,,,,,,,,,,722.7399999999907,,response,,,,100,,,,,,,Space,keypress(Space),,,,,,,,-- --- ---- --- ------ ----- ------- much -- --- ------- --<br>------- ---------- ------ -- ----- -- ----- -- ---- ------<br>--- ----- --- --- ------ -------- ----- --- ------ ----- --<br>----- ----- ---------- --- --- ------ ------ ---- -- ------<br>------- --- ------ ----- --- ---- ------- -- ---- --- --<br>------- ------,137640,137631,136904.06,136904,136908.26,137644.36,,7,much
screen,html.Screen,2_1_1_1_8,2021-04-24T15:51:45.631Z,,,,,,,,,,,,,,,,,54,,,,,,,,,,,,,,284.64000000001397,,response,,,,100,,,,,,,Space,keypress(Space),,,,,,,,-- --- ---- --- ------ ----- ------- ---- of --- ------- --<br>------- ---------- ------ -- ----- -- ----- -- ---- ------<br>--- ----- --- --- ------ -------- ----- --- ------ ----- --<br>----- ----- ---------- --- --- ------ ------ ---- -- ------<br>------- --- ------ ----- --- ---- ------- -- ---- --- --<br>------- ------,137944,137929,137640.14,137640,137644.36,137949.88,,8,of
screen,html.Screen,2_1_1_1_9,2021-04-24T15:51:45.801Z,,,,,,,,,,,,,,,,,54,,,,,,,,,,,,,,151.11999999999534,,response,,,,100,,,,,,,Space,keypress(Space),,,,,,,,-- --- ---- --- ------ ----- ------- ---- -- its ------- --<br>------- ---------- ------ -- ----- -- ----- -- ---- ------<br>--- ----- --- --- ------ -------- ----- --- ------ ----- --<br>----- ----- ---------- --- --- ------ ------ ---- -- ------<br>------- --- ------ ----- --- ---- ------- -- ---- --- --<br>------- ------,138114,138101,137943.86,137944,137949.88,138116.54,,9,its
screen,html.Screen,2_1_1_1_10,2021-04-24T15:51:46.101Z,,,,,,,,,,,,,,,,,54,,,,,,,,,,,,,,280.45999999999185,,response,,,,100,,,,,,,Space,keypress(Space),,,,,,,,-- --- ---- --- ------ ----- ------- ---- -- --- revenue --<br>------- ---------- ------ -- ----- -- ----- -- ---- ------<br>--- ----- --- --- ------ -------- ----- --- ------ ----- --<br>----- ----- ---------- --- --- ------ ------ ---- -- ------<br>------- --- ------ ----- --- ---- ------- -- ---- --- --<br>------- ------,138414,138397,138114.04,138114,138116.54,138415.16,,10,revenue
screen,html.Screen,2_1_1_1_11,2021-04-24T15:51:46.536Z,,,,,,,,,,,,,,,,,54,,,,,,,,,,,,,,419.8399999999965,,response,,,,100,,,,,,,Space,keypress(Space),,,,,,,,-- --- ---- --- ------ ----- ------- ---- -- --- ------- by<br>------- ---------- ------ -- ----- -- ----- -- ---- ------<br>--- ----- --- --- ------ -------- ----- --- ------ ----- --<br>----- ----- ---------- --- --- ------ ------ ---- -- ------<br>------- --- ------ ----- --- ---- ------- -- ---- --- --<br>------- ------,138848,138835,138414.08,138414,138415.16,138852.64,,11,by
screen,html.Screen,2_1_1_1_12,2021-04-24T15:51:46.866Z,,,,,,,,,,,,,,,,,54,,,,,,,,,,,,,,310.35999999998603,,response,,,,100,,,,,,,Space,keypress(Space),,,,,,,,-- --- ---- --- ------ ----- ------- ---- -- --- ------- --<br>issuing ---------- ------ -- ----- -- ----- -- ---- ------<br>--- ----- --- --- ------ -------- ----- --- ------ ----- --<br>----- ----- ---------- --- --- ------ ------ ---- -- ------<br>------- --- ------ ----- --- ---- ------- -- ---- --- --<br>------- ------,139178,139163,138848.12,138848,138852.64,139185.92,,12,issuing
screen,html.Screen,2_1_1_1_13,2021-04-24T15:51:47.194Z,,,,,,,,,,,,,,,,,54,,,,,,,,,,,,,,306.0799999999872,,response,,,,100,,,,,,,Space,keypress(Space),,,,,,,,-- --- ---- --- ------ ----- ------- ---- -- --- ------- --<br>------- government ------ -- ----- -- ----- -- ---- ------<br>--- ----- --- --- ------ -------- ----- --- ------ ----- --<br>----- ----- ---------- --- --- ------ ------ ---- -- ------<br>------- --- ------ ----- --- ---- ------- -- ---- --- --<br>------- ------,139506,139492,139178.18,139178,139185.92,139512.32,,13,government
screen,html.Screen,2_1_1_1_14,2021-04-24T15:51:47.938Z,,,,,,,,,,,,,,,,,54,,,,,,,,,,,,,,728.679999999993,,response,,,,100,,,,,,,Space,keypress(Space),,,,,,,,-- --- ---- --- ------ ----- ------- ---- -- --- ------- --<br>------- ---------- bonds. -- ----- -- ----- -- ---- ------<br>--- ----- --- --- ------ -------- ----- --- ------ ----- --<br>----- ----- ---------- --- --- ------ ------ ---- -- ------<br>------- --- ------ ----- --- ---- ------- -- ---- --- --<br>------- ------,140250,140241,139506.02,139506,139512.32,140255.34,,14,bonds.
screen,html.Screen,2_1_1_1_15,2021-04-24T15:51:48.363Z,,,,,,,,,,,,,,,,,54,,,,,,,,,,,,,,406.6600000000035,,response,,,,100,,,,,,,Space,keypress(Space),,,,,,,,-- --- ---- --- ------ ----- ------- ---- -- --- ------- --<br>------- ---------- ------ In ----- -- ----- -- ---- ------<br>--- ----- --- --- ------ -------- ----- --- ------ ----- --<br>----- ----- ---------- --- --- ------ ------ ---- -- ------<br>------- --- ------ ----- --- ---- ------- -- ---- --- --<br>------- ------,140676,140662,140250.14,140250,140255.34,140678.94,,15,In
screen,html.Screen,2_1_1_1_16,2021-04-24T15:51:48.653Z,,,,,,,,,,,,,,,,,54,,,,,,,,,,,,,,280.0599999999977,,response,,,,100,,,,,,,Space,keypress(Space),,,,,,,,"-- --- ---- --- ------ ----- ------- ---- -- --- ------- --<br>------- ---------- ------ -- 1727, -- ----- -- ---- ------<br>--- ----- --- --- ------ -------- ----- --- ------ ----- --<br>----- ----- ---------- --- --- ------ ------ ---- -- ------<br>------- --- ------ ----- --- ---- ------- -- ---- --- --<br>------- ------",140966,140959,140676.08,140676,140678.94,140970.6,,16,"1727,"
screen,html.Screen,2_1_1_1_17,2021-04-24T15:51:49.083Z,,,,,,,,,,,,,,,,,54,,,,,,,,,,,,,,411.3999999999942,,response,,,,100,,,,,,,Space,keypress(Space),,,,,,,,-- --- ---- --- ------ ----- ------- ---- -- --- ------- --<br>------- ---------- ------ -- ----- in ----- -- ---- ------<br>--- ----- --- --- ------ -------- ----- --- ------ ----- --<br>----- ----- ---------- --- --- ------ ------ ---- -- ------<br>------- --- ------ ----- --- ---- ------- -- ---- --- --<br>------- ------,141396,141382,140966.12,140966,140970.6,141401.12,,17,in
screen,html.Screen,2_1_1_1_18,2021-04-24T15:51:49.496Z,,,,,,,,,,,,,,,,,54,,,,,,,,,,,,,,401.88000000000466,,response,,,,100,,,,,,,Space,keypress(Space),,,,,,,,-- --- ---- --- ------ ----- ------- ---- -- --- ------- --<br>------- ---------- ------ -- ----- -- order -- ---- ------<br>--- ----- --- --- ------ -------- ----- --- ------ ----- --<br>----- ----- ---------- --- --- ------ ------ ---- -- ------<br>------- --- ------ ----- --- ---- ------- -- ---- --- --<br>------- ------,141808,141803,141396.04,141396,141401.12,141810.84,,18,order
screen,html.Screen,2_1_1_1_19,2021-04-24T15:51:49.857Z,,,,,,,,,,,,,,,,,54,,,,,,,,,,,,,,352.1600000000035,,response,,,,100,,,,,,,Space,keypress(Space),,,,,,,,-- --- ---- --- ------ ----- ------- ---- -- --- ------- --<br>------- ---------- ------ -- ----- -- ----- to ---- ------<br>--- ----- --- --- ------ -------- ----- --- ------ ----- --<br>----- ----- ---------- --- --- ------ ------ ---- -- ------<br>------- --- ------ ----- --- ---- ------- -- ---- --- --<br>------- ------,142170,142163,141807.94,141808,141810.84,142171.94,,19,to
screen,html.Screen,2_1_1_1_20,2021-04-24T15:51:50.145Z,,,,,,,,,,,,,,,,,54,,,,,,,,,,,,,,273.0599999999977,,response,,,,100,,,,,,,Space,keypress(Space),,,,,,,,-- --- ---- --- ------ ----- ------- ---- -- --- ------- --<br>------- ---------- ------ -- ----- -- ----- -- save ------<br>--- ----- --- --- ------ -------- ----- --- ------ ----- --<br>----- ----- ---------- --- --- ------ ------ ---- -- ------<br>------- --- ------ ----- --- ---- ------- -- ---- --- --<br>------- ------,142458,142445,142170.24,142170,142171.94,142463.58,,20,save
screen,html.Screen,2_1_1_1_21,2021-04-24T15:51:50.481Z,,,,,,,,,,,,,,,,,54,,,,,,,,,,,,,,324.4200000000128,,response,,,,100,,,,,,,Space,keypress(Space),,,,,,,,"-- --- ---- --- ------ ----- ------- ---- -- --- ------- --<br>------- ---------- ------ -- ----- -- ----- -- ---- money,<br>--- ----- --- --- ------ -------- ----- --- ------ ----- --<br>----- ----- ---------- --- --- ------ ------ ---- -- ------<br>------- --- ------ ----- --- ---- ------- -- ---- --- --<br>------- ------",142794,142788,142458.2,142458,142463.58,142796.9,,21,"money,"
screen,html.Screen,2_1_1_1_22,2021-04-24T15:51:51.204Z,,,,,,,,,,,,,,,,,54,,,,,,,,,,,,,,710.1000000000058,,response,,,,100,,,,,,,Space,keypress(Space),,,,,,,,-- --- ---- --- ------ ----- ------- ---- -- --- ------- --<br>------- ---------- ------ -- ----- -- ----- -- ---- ------<br>the ----- --- --- ------ -------- ----- --- ------ ----- --<br>----- ----- ---------- --- --- ------ ------ ---- -- ------<br>------- --- ------ ----- --- ---- ------- -- ---- --- --<br>------- ------,143516,143507,142794,142794,142796.9,143519.1,,22,the
screen,html.Screen,2_1_1_1_23,2021-04-24T15:51:51.501Z,,,,,,,,,,,,,,,,,54,,,,,,,,,,,,,,284.8999999999942,,response,,,,100,,,,,,,Space,keypress(Space),,,,,,,,-- --- ---- --- ------ ----- ------- ---- -- --- ------- --<br>------- ---------- ------ -- ----- -- ----- -- ---- ------<br>--- state --- --- ------ -------- ----- --- ------ ----- --<br>----- ----- ---------- --- --- ------ ------ ---- -- ------<br>------- --- ------ ----- --- ---- ------- -- ---- --- --<br>------- ------,143813,143804,143516.12,143517,143519.1,143817.7,,23,state
screen,html.Screen,2_1_1_1_24,2021-04-24T15:51:51.776Z,,,,,,,,,,,,,,,,,54,,,,,,,,,,,,,,266.29999999998836,,response,,,,100,,,,,,,Space,keypress(Space),,,,,,,,-- --- ---- --- ------ ----- ------- ---- -- --- ------- --<br>------- ---------- ------ -- ----- -- ----- -- ---- ------<br>--- ----- cut --- ------ -------- ----- --- ------ ----- --<br>----- ----- ---------- --- --- ------ ------ ---- -- ------<br>------- --- ------ ----- --- ---- ------- -- ---- --- --<br>------- ------,144088,144084,143814.1,143814,143817.7,144095.44,,24,cut
screen,html.Screen,2_1_1_1_25,2021-04-24T15:51:52.106Z,,,,,,,,,,,,,,,,,54,,,,,,,,,,,,,,316.5599999999977,,response,,,,100,,,,,,,Space,keypress(Space),,,,,,,,-- --- ---- --- ------ ----- ------- ---- -- --- ------- --<br>------- ---------- ------ -- ----- -- ----- -- ---- ------<br>--- ----- --- the ------ -------- ----- --- ------ ----- --<br>----- ----- ---------- --- --- ------ ------ ---- -- ------<br>------- --- ------ ----- --- ---- ------- -- ---- --- --<br>------- ------,144417,144412,144088.1,144088,144095.44,144421.84,,25,the
screen,html.Screen,2_1_1_1_26,2021-04-24T15:51:52.486Z,,,,,,,,,,,,,,,,,54,,,,,,,,,,,,,,366.1600000000035,,response,,,,100,,,,,,,Space,keypress(Space),,,,,,,,-- --- ---- --- ------ ----- ------- ---- -- --- ------- --<br>------- ---------- ------ -- ----- -- ----- -- ---- ------<br>--- ----- --- --- bonds' -------- ----- --- ------ ----- --<br>----- ----- ---------- --- --- ------ ------ ---- -- ------<br>------- --- ------ ----- --- ---- ------- -- ---- --- --<br>------- ------,144797,144788,144417.92,144418,144421.84,144803.76,,26,bonds'
screen,html.Screen,2_1_1_1_27,2021-04-24T15:51:52.854Z,,,,,,,,,,,,,,,,,54,,,,,,,,,,,,,,358.2399999999907,,response,,,,100,,,,,,,Space,keypress(Space),,,,,,,,-- --- ---- --- ------ ----- ------- ---- -- --- ------- --<br>------- ---------- ------ -- ----- -- ----- -- ---- ------<br>--- ----- --- --- ------ interest ----- --- ------ ----- --<br>----- ----- ---------- --- --- ------ ------ ---- -- ------<br>------- --- ------ ----- --- ---- ------- -- ---- --- --<br>------- ------,145166,145162,144797.98,144797,144803.76,145171.82,,27,interest
screen,html.Screen,2_1_1_1_28,2021-04-24T15:51:53.215Z,,,,,,,,,,,,,,,,,54,,,,,,,,,,,,,,350.179999999993,,response,,,,100,,,,,,,Space,keypress(Space),,,,,,,,-- --- ---- --- ------ ----- ------- ---- -- --- ------- --<br>------- ---------- ------ -- ----- -- ----- -- ---- ------<br>--- ----- --- --- ------ -------- rate. --- ------ ----- --<br>----- ----- ---------- --- --- ------ ------ ---- -- ------<br>------- --- ------ ----- --- ---- ------- -- ---- --- --<br>------- ------,145528,145522,145166.16,145166,145171.82,145532.9,,28,rate.
screen,html.Screen,2_1_1_1_29,2021-04-24T15:51:53.824Z,,,,,,,,,,,,,,,,,54,,,,,,,,,,,,,,599.1000000000058,,response,,,,100,,,,,,,Space,keypress(Space),,,,,,,,-- --- ---- --- ------ ----- ------- ---- -- --- ------- --<br>------- ---------- ------ -- ----- -- ----- -- ---- ------<br>--- ----- --- --- ------ -------- ----- The ------ ----- --<br>----- ----- ---------- --- --- ------ ------ ---- -- ------<br>------- --- ------ ----- --- ---- ------- -- ---- --- --<br>------- ------,146136,146132,145527.94,145528,145532.9,146143.96,,29,The
screen,html.Screen,2_1_1_1_30,2021-04-24T15:51:53.990Z,,,,,,,,,,,,,,,,,54,,,,,,,,,,,,,,144.04000000000815,,response,,,,100,,,,,,,Space,keypress(Space),,,,,,,,-- --- ---- --- ------ ----- ------- ---- -- --- ------- --<br>------- ---------- ------ -- ----- -- ----- -- ---- ------<br>--- ----- --- --- ------ -------- ----- --- market ----- --<br>----- ----- ---------- --- --- ------ ------ ---- -- ------<br>------- --- ------ ----- --- ---- ------- -- ---- --- --<br>------- ------,146302,146288,146136.42,146136,146143.96,146303.7,,30,market
screen,html.Screen,2_1_1_1_31,2021-04-24T15:51:54.288Z,,,,,,,,,,,,,,,,,54,,,,,,,,,,,,,,281.29999999998836,,response,,,,100,,,,,,,Space,keypress(Space),,,,,,,,-- --- ---- --- ------ ----- ------- ---- -- --- ------- --<br>------- ---------- ------ -- ----- -- ----- -- ---- ------<br>--- ----- --- --- ------ -------- ----- --- ------ value --<br>----- ----- ---------- --- --- ------ ------ ---- -- ------<br>------- --- ------ ----- --- ---- ------- -- ---- --- --<br>------- ------,146600,146585,146301.72,146302,146303.7,146602.32,,31,value
screen,html.Screen,2_1_1_1_32,2021-04-24T15:51:54.596Z,,,,,,,,,,,,,,,,,54,,,,,,,,,,,,,,295.679999999993,,response,,,,100,,,,,,,Space,keypress(Space),,,,,,,,-- --- ---- --- ------ ----- ------- ---- -- --- ------- --<br>------- ---------- ------ -- ----- -- ----- -- ---- ------<br>--- ----- --- --- ------ -------- ----- --- ------ ----- of<br>----- ----- ---------- --- --- ------ ------ ---- -- ------<br>------- --- ------ ----- --- ---- ------- -- ---- --- --<br>------- ------,146907,146898,146600.06,146600,146602.32,146914.78,,32,of
screen,html.Screen,2_1_1_1_33,2021-04-24T15:51:54.860Z,,,,,,,,,,,,,,,,,54,,,,,,,,,,,,,,248.22000000000116,,response,,,,100,,,,,,,Space,keypress(Space),,,,,,,,-- --- ---- --- ------ ----- ------- ---- -- --- ------- --<br>------- ---------- ------ -- ----- -- ----- -- ---- ------<br>--- ----- --- --- ------ -------- ----- --- ------ ----- --<br>these ----- ---------- --- --- ------ ------ ---- -- ------<br>------- --- ------ ----- --- ---- ------- -- ---- --- --<br>------- ------,147172,147163,146907.92,146907,146914.78,147178.68,,33,these
screen,html.Screen,2_1_1_1_34,2021-04-24T15:51:55.037Z,,,,,,,,,,,,,,,,,54,,,,,,,,,,,,,,156.32000000000698,,response,,,,100,,,,,,,Space,keypress(Space),,,,,,,,-- --- ---- --- ------ ----- ------- ---- -- --- ------- --<br>------- ---------- ------ -- ----- -- ----- -- ---- ------<br>--- ----- --- --- ------ -------- ----- --- ------ ----- --<br>----- bonds ---------- --- --- ------ ------ ---- -- ------<br>------- --- ------ ----- --- ---- ------- -- ---- --- --<br>------- ------,147350,147335,147172.12,147172,147178.68,147352.3,,34,bonds
screen,html.Screen,2_1_1_1_35,2021-04-24T15:51:55.295Z,,,,,,,,,,,,,,,,,54,,,,,,,,,,,,,,248.70000000001164,,response,,,,100,,,,,,,Space,keypress(Space),,,,,,,,"-- --- ---- --- ------ ----- ------- ---- -- --- ------- --<br>------- ---------- ------ -- ----- -- ----- -- ---- ------<br>--- ----- --- --- ------ -------- ----- --- ------ ----- --<br>----- ----- plummeted, --- --- ------ ------ ---- -- ------<br>------- --- ------ ----- --- ---- ------- -- ---- --- --<br>------- ------",147608,147601,147349.82,147350,147352.3,147609.2,,35,"plummeted,"
screen,html.Screen,2_1_1_1_36,2021-04-24T15:51:55.602Z,,,,,,,,,,,,,,,,,54,,,,,,,,,,,,,,287.79999999998836,,response,,,,100,,,,,,,Space,keypress(Space),,,,,,,,-- --- ---- --- ------ ----- ------- ---- -- --- ------- --<br>------- ---------- ------ -- ----- -- ----- -- ---- ------<br>--- ----- --- --- ------ -------- ----- --- ------ ----- --<br>----- ----- ---------- and --- ------ ------ ---- -- ------<br>------- --- ------ ----- --- ---- ------- -- ---- --- --<br>------- ------,147914,147897,147607.84,147608,147609.2,147921.66,,36,and
screen,html.Screen,2_1_1_1_37,2021-04-24T15:51:55.885Z,,,,,,,,,,,,,,,,,54,,,,,,,,,,,,,,273.3399999999965,,response,,,,100,,,,,,,Space,keypress(Space),,,,,,,,-- --- ---- --- ------ ----- ------- ---- -- --- ------- --<br>------- ---------- ------ -- ----- -- ----- -- ---- ------<br>--- ----- --- --- ------ -------- ----- --- ------ ----- --<br>----- ----- ---------- --- the ------ ------ ---- -- ------<br>------- --- ------ ----- --- ---- ------- -- ---- --- --<br>------- ------,148198,148195,147914.1,147914,147921.66,148199.46,,37,the
screen,html.Screen,2_1_1_1_38,2021-04-24T15:51:56.018Z,,,,,,,,,,,,,,,,,54,,,,,,,,,,,,,,120.54000000000815,,response,,,,100,,,,,,,Space,keypress(Space),,,,,,,,-- --- ---- --- ------ ----- ------- ---- -- --- ------- --<br>------- ---------- ------ -- ----- -- ----- -- ---- ------<br>--- ----- --- --- ------ -------- ----- --- ------ ----- --<br>----- ----- ---------- --- --- market ------ ---- -- ------<br>------- --- ------ ----- --- ---- ------- -- ---- --- --<br>------- ------,148329,148320,148198.06,148198,148199.46,148331.38,,38,market
screen,html.Screen,2_1_1_1_39,2021-04-24T15:51:56.332Z,,,,,,,,,,,,,,,,,54,,,,,,,,,,,,,,299.61999999999534,,response,,,,100,,,,,,,Space,keypress(Space),,,,,,,,-- --- ---- --- ------ ----- ------- ---- -- --- ------- --<br>------- ---------- ------ -- ----- -- ----- -- ---- ------<br>--- ----- --- --- ------ -------- ----- --- ------ ----- --<br>----- ----- ---------- --- --- ------ became ---- -- ------<br>------- --- ------ ----- --- ---- ------- -- ---- --- --<br>------- ------,148644,148631,148329.86,148330,148331.38,148650.84,,39,became
screen,html.Screen,2_1_1_1_40,2021-04-24T15:51:56.610Z,,,,,,,,,,,,,,,,,54,,,,,,,,,,,,,,262.1600000000035,,response,,,,100,,,,,,,Space,keypress(Space),,,,,,,,-- --- ---- --- ------ ----- ------- ---- -- --- ------- --<br>------- ---------- ------ -- ----- -- ----- -- ---- ------<br>--- ----- --- --- ------ -------- ----- --- ------ ----- --<br>----- ----- ---------- --- --- ------ ------ wary -- ------<br>------- --- ------ ----- --- ---- ------- -- ---- --- --<br>------- ------,148922,148913,148643.92,148644,148650.84,148928.6,,40,wary
screen,html.Screen,2_1_1_1_41,2021-04-24T15:51:56.898Z,,,,,,,,,,,,,,,,,54,,,,,,,,,,,,,,266.3999999999942,,response,,,,100,,,,,,,Space,keypress(Space),,,,,,,,-- --- ---- --- ------ ----- ------- ---- -- --- ------- --<br>------- ---------- ------ -- ----- -- ----- -- ---- ------<br>--- ----- --- --- ------ -------- ----- --- ------ ----- --<br>----- ----- ---------- --- --- ------ ------ ---- of ------<br>------- --- ------ ----- --- ---- ------- -- ---- --- --<br>------- ------,149210,149195,148922,148922,148928.6,149213.3,,41,of
screen,html.Screen,2_1_1_1_42,2021-04-24T15:51:57.264Z,,,,,,,,,,,,,,,,,54,,,,,,,,,,,,,,356.70000000001164,,response,,,,100,,,,,,,Space,keypress(Space),,,,,,,,-- --- ---- --- ------ ----- ------- ---- -- --- ------- --<br>------- ---------- ------ -- ----- -- ----- -- ---- ------<br>--- ----- --- --- ------ -------- ----- --- ------ ----- --<br>----- ----- ---------- --- --- ------ ------ ---- -- French<br>------- --- ------ ----- --- ---- ------- -- ---- --- --<br>------- ------,149575,149570,149210.08,149210,149213.3,149581.34,,42,French
screen,html.Screen,2_1_1_1_43,2021-04-24T15:51:57.554Z,,,,,,,,,,,,,,,,,54,,,,,,,,,,,,,,268.6600000000035,,response,,,,100,,,,,,,Space,keypress(Space),,,,,,,,-- --- ---- --- ------ ----- ------- ---- -- --- ------- --<br>------- ---------- ------ -- ----- -- ----- -- ---- ------<br>--- ----- --- --- ------ -------- ----- --- ------ ----- --<br>----- ----- ---------- --- --- ------ ------ ---- -- ------<br>credit. --- ------ ----- --- ---- ------- -- ---- --- --<br>------- ------,149866,149850,149575.86,149576,149581.34,149873,,43,credit.
screen,html.Screen,2_1_1_1_44,2021-04-24T15:51:58.084Z,,,,,,,,,,,,,,,,,54,,,,,,,,,,,,,,509,,response,,,,100,,,,,,,Space,keypress(Space),,,,,,,,-- --- ---- --- ------ ----- ------- ---- -- --- ------- --<br>------- ---------- ------ -- ----- -- ----- -- ---- ------<br>--- ----- --- --- ------ -------- ----- --- ------ ----- --<br>----- ----- ---------- --- --- ------ ------ ---- -- ------<br>------- The ------ ----- --- ---- ------- -- ---- --- --<br>------- ------,150396,150382,149866.14,149866,149873,150400.76,,44,The
screen,html.Screen,2_1_1_1_45,2021-04-24T15:51:58.221Z,,,,,,,,,,,,,,,,,54,,,,,,,,,,,,,,122.23999999999069,,response,,,,100,,,,,,,Space,keypress(Space),,,,,,,,-- --- ---- --- ------ ----- ------- ---- -- --- ------- --<br>------- ---------- ------ -- ----- -- ----- -- ---- ------<br>--- ----- --- --- ------ -------- ----- --- ------ ----- --<br>----- ----- ---------- --- --- ------ ------ ---- -- ------<br>------- --- French ----- --- ---- ------- -- ---- --- --<br>------- ------,150534,150523,150396.02,150396,150400.76,150539.64,,45,French
screen,html.Screen,2_1_1_1_46,2021-04-24T15:51:58.548Z,,,,,,,,,,,,,,,,,54,,,,,,,,,,,,,,311.35999999998603,,response,,,,100,,,,,,,Space,keypress(Space),,,,,,,,-- --- ---- --- ------ ----- ------- ---- -- --- ------- --<br>------- ---------- ------ -- ----- -- ----- -- ---- ------<br>--- ----- --- --- ------ -------- ----- --- ------ ----- --<br>----- ----- ---------- --- --- ------ ------ ---- -- ------<br>------- --- ------ state --- ---- ------- -- ---- --- --<br>------- ------,150860,150851,150533.84,150534,150539.64,150866.02,,46,state
screen,html.Screen,2_1_1_1_47,2021-04-24T15:51:58.867Z,,,,,,,,,,,,,,,,,54,,,,,,,,,,,,,,312.9800000000105,,response,,,,100,,,,,,,Space,keypress(Space),,,,,,,,-- --- ---- --- ------ ----- ------- ---- -- --- ------- --<br>------- ---------- ------ -- ----- -- ----- -- ---- ------<br>--- ----- --- --- ------ -------- ----- --- ------ ----- --<br>----- ----- ---------- --- --- ------ ------ ---- -- ------<br>------- --- ------ ----- was ---- ------- -- ---- --- --<br>------- ------,151179,151179,150859.86,150860,150866.02,151185.46,,47,was
screen,html.Screen,2_1_1_1_48,2021-04-24T15:51:59.121Z,,,,,,,,,,,,,,,,,54,,,,,,,,,,,,,,242.54000000000815,,response,,,,100,,,,,,,Space,keypress(Space),,,,,,,,-- --- ---- --- ------ ----- ------- ---- -- --- ------- --<br>------- ---------- ------ -- ----- -- ----- -- ---- ------<br>--- ----- --- --- ------ -------- ----- --- ------ ----- --<br>----- ----- ---------- --- --- ------ ------ ---- -- ------<br>------- --- ------ ----- --- left ------- -- ---- --- --<br>------- ------,151434,151428,151180.04,151180,151185.46,151435.44,,48,left
screen,html.Screen,2_1_1_1_49,2021-04-24T15:51:59.367Z,,,,,,,,,,,,,,,,,54,,,,,,,,,,,,,,227.55999999999767,,response,,,,100,,,,,,,Space,keypress(Space),,,,,,,,-- --- ---- --- ------ ----- ------- ---- -- --- ------- --<br>------- ---------- ------ -- ----- -- ----- -- ---- ------<br>--- ----- --- --- ------ -------- ----- --- ------ ----- --<br>----- ----- ---------- --- --- ------ ------ ---- -- ------<br>------- --- ------ ----- --- ---- without -- ---- --- --<br>------- ------,151679,151663,151433.9,151434,151435.44,151685.42,,49,without
screen,html.Screen,2_1_1_1_50,2021-04-24T15:51:59.672Z,,,,,,,,,,,,,,,,,54,,,,,,,,,,,,,,290.5799999999872,,response,,,,100,,,,,,,Space,keypress(Space),,,,,,,,-- --- ---- --- ------ ----- ------- ---- -- --- ------- --<br>------- ---------- ------ -- ----- -- ----- -- ---- ------<br>--- ----- --- --- ------ -------- ----- --- ------ ----- --<br>----- ----- ---------- --- --- ------ ------ ---- -- ------<br>------- --- ------ ----- --- ---- ------- an ---- --- --<br>------- ------,151984,151976,151679.88,151679,151685.42,151990.96,,50,an
screen,html.Screen,2_1_1_1_51,2021-04-24T15:51:59.976Z,,,,,,,,,,,,,,,,,54,,,,,,,,,,,,,,282.04000000000815,,response,,,,100,,,,,,,Space,keypress(Space),,,,,,,,-- --- ---- --- ------ ----- ------- ---- -- --- ------- --<br>------- ---------- ------ -- ----- -- ----- -- ---- ------<br>--- ----- --- --- ------ -------- ----- --- ------ ----- --<br>----- ----- ---------- --- --- ------ ------ ---- -- ------<br>------- --- ------ ----- --- ---- ------- -- easy --- --<br>------- ------,152288,152273,151983.98,151984,151990.96,152289.58,,51,easy
screen,html.Screen,2_1_1_1_52,2021-04-24T15:52:00.292Z,,,,,,,,,,,,,,,,,54,,,,,,,,,,,,,,311.4200000000128,,response,,,,100,,,,,,,Space,keypress(Space),,,,,,,,-- --- ---- --- ------ ----- ------- ---- -- --- ------- --<br>------- ---------- ------ -- ----- -- ----- -- ---- ------<br>--- ----- --- --- ------ -------- ----- --- ------ ----- --<br>----- ----- ---------- --- --- ------ ------ ---- -- ------<br>------- --- ------ ----- --- ---- ------- -- ---- way --<br>------- ------,152604,152601,152287.98,152288,152289.58,152609,,52,way
screen,html.Screen,2_1_1_1_53,2021-04-24T15:52:00.586Z,,,,,,,,,,,,,,,,,54,,,,,,,,,,,,,,273,,response,,,,100,,,,,,,Space,keypress(Space),,,,,,,,-- --- ---- --- ------ ----- ------- ---- -- --- ------- --<br>------- ---------- ------ -- ----- -- ----- -- ---- ------<br>--- ----- --- --- ------ -------- ----- --- ------ ----- --<br>----- ----- ---------- --- --- ------ ------ ---- -- ------<br>------- --- ------ ----- --- ---- ------- -- ---- --- of<br>------- ------,152898,152882,152603.98,152604,152609,152900.66,,53,of
screen,html.Screen,2_1_1_1_54,2021-04-24T15:52:01.822Z,,,,,,,,,,,,,,,,,54,,,,,,,,,,,,,,1230.3399999999965,,response,,,,100,,,,,,,Space,keypress(Space),,,,,,,,-- --- ---- --- ------ ----- ------- ---- -- --- ------- --<br>------- ---------- ------ -- ----- -- ----- -- ---- ------<br>--- ----- --- --- ------ -------- ----- --- ------ ----- --<br>----- ----- ---------- --- --- ------ ------ ---- -- ------<br>------- --- ------ ----- --- ---- ------- -- ---- --- --<br>raising ------,154134,154131,152898,152898,152900.66,154136.74,,54,raising
screen,html.Screen,2_1_1_1_55,2021-04-24T15:52:02.200Z,,,,,,,,,,,,,,,,,54,,,,,,,,,,,,,,369.2600000000093,,response,,,,100,,,,,,,Space,keypress(Space),,,,,,,,-- --- ---- --- ------ ----- ------- ---- -- --- ------- --<br>------- ---------- ------ -- ----- -- ----- -- ---- ------<br>--- ----- --- --- ------ -------- ----- --- ------ ----- --<br>----- ----- ---------- --- --- ------ ------ ---- -- ------<br>------- --- ------ ----- --- ---- ------- -- ---- --- --<br>------- money.,154512,154506,154134.18,154134,154136.74,154518.66,,55,money.
Item 100,flow.Loop,2_1_1_1,2021-04-24T15:52:02.200Z,,,,,,,,,,,,,,,,,,,,,,,,,,,,,,,20104.600000000006,,completion,,,,,D,,,,,,,,,,,silence,,,,,154512,154506,134394.44,134395,134401.4,154518.66,,,
Question 1,html.Screen,2_1_1_2,2021-04-24T15:52:04.277Z,,,,,,,,,,,,,,,,,,,,,,,,,,,,true,TRUE,,2066.3399999999965,,response,,,,100,D,,,,,,TRUE,click #choice-1,,,,silence,,,,,156589,156585,154512.04,154512,154518.66,156601.88,,,
Question 2,html.Screen,2_1_1_3,2021-04-24T15:52:06.325Z,,,,,,,,,,,,,,,,,,,,,,,,,,,,true,FALSE,,2029.1199999999953,,response,,,,100,D,,,,,,FALSE,click #choice-2,,,,silence,,,,,158637,158631,156594.92,156589,156601.88,158650.4,,,
Item 100,flow.Sequence,2_1_1,2021-04-24T15:52:06.325Z,,,,,,,,,,,,,,,,,,,,,,,,,,,,,,,34229.2,,completion,,,,,,,,,,,,,,,,,,,,,158638,158631,124394.88,124390,124401.8,158650.4,,,
End of Practice,html.Page,2_1_2,2021-04-24T15:52:11.518Z,,,,,,,,,,,,,,,,,,,,,,,,,,,,,,,5180.600000000006,,form submission,,,,,,,,,,,,,,,,,,,,,163831,163831,158643.44,158638,158650.4,163837.68,,,
Practice,flow.Sequence,2_1,2021-04-24T15:52:11.519Z,,,,,,,,,,,,,,,,,,,,,,,,,,,,,,,75393,,completion,,,,,,,,,,,,,,,,,,,,,163831,163831,88431.04,88431,88438,163837.68,,,
Trap_instruction,html.Page,2_2_0,2021-04-24T15:52:15.430Z,,,,,,,,,,,,,,,,,,,,,,,,,,,,,,,3905.320000000007,,form submission,,,,,,,,,,,,,,,,,,,,,167743,167743,163830.76,163831,163837.68,167754.2,,,
trap_trial,html.Screen,2_2_1,2021-04-24T15:52:17.917Z,,,,,,,,,,,,,,,,,,,,,,,,,,,,true,1,,2471.7999999999884,,response,,,,,,,,,,,1,click #choice-1,,,,,,,,,170230,170226,167747.26,167743,167754.2,170240.22,,,
end of trap trial,html.Page,2_2_2,2021-04-24T15:52:19.078Z,,,,,,,,,,,,,,,,,,,,,,,,,,,,,,,1150.7799999999988,,form submission,,,,,,,,,,,,,,,,,,,,,171391,171391,170233.28,170230,170240.22,171399.88,,,
Trap 1,flow.Sequence,2_2,2021-04-24T15:52:19.078Z,,,,,,,,,,,,,,,,,,,,,,,,,,,,,,,7553.320000000007,,completion,,,,,,,,,,,,,,,,,,,,,171391,171391,163830.76,163831,163837.68,171399.88,,,
Standby,html.Page,2_3_0,2021-04-24T15:52:27.081Z,,,,,,,,,,,,,,,,,,,,,,,,,,,,,,,7999.6600000000035,,timeout,,,,,,,,,,,,,,,,,,,,,179393,179392.6,171392.92,171391,171399.88,179399.54,,,
Holding screen,html.Screen,2_3_1_0_0,2021-04-24T15:52:34.081Z,,,,,,,,,,,,,,,,,,,,,,,,,,,,,,,6999.720000000001,,timeout,,,,,,,,,,,,,,,,,,,,,186392,186392.32,179392.6,179394,179399.54,186399.26,,,
screen,html.Screen,2_3_1_0_1_0,2021-04-24T15:52:35.021Z,,,,,,,,,,,,,,,,,48,,,,,,,,,,,,,,919.7399999999907,,response,,,,10,D,,,,,,Space,keypress(Space),,,,silence,,,,As -- --- ------ ------- --------- ----------- --------<br>--------- -------- --- ------- -- ------- ---- -- ------<br>-- --- -------- -------- ---------- ---- ---- ---- ------<br>-- --------- -- ---- -- --- -- --- ------- -- - -----<br>---------- -- -- -- ---- ----- -- ------ -- --- ------<br>-------,187333,187319,186392.32,186393,186399.26,187336.72,,0,As
screen,html.Screen,2_3_1_0_1_1,2021-04-24T15:52:35.302Z,,,,,,,,,,,,,,,,,48,,,,,,,,,,,,,,264.27999999999884,,response,,,,10,D,,,,,,Space,keypress(Space),,,,silence,,,,-- in --- ------ ------- --------- ----------- --------<br>--------- -------- --- ------- -- ------- ---- -- ------<br>-- --- -------- -------- ---------- ---- ---- ---- ------<br>-- --------- -- ---- -- --- -- --- ------- -- - -----<br>---------- -- -- -- ---- ----- -- ------ -- --- ------<br>-------,187615,187601,187332.64,187333,187336.72,187621.42,,1,in
screen,html.Screen,2_3_1_0_1_2,2021-04-24T15:52:35.588Z,,,,,,,,,,,,,,,,,48,,,,,,,,,,,,,,275.5799999999872,,response,,,,10,D,,,,,,Space,keypress(Space),,,,silence,,,,-- -- the ------ ------- --------- ----------- --------<br>--------- -------- --- ------- -- ------- ---- -- ------<br>-- --- -------- -------- ---------- ---- ---- ---- ------<br>-- --------- -- ---- -- --- -- --- ------- -- - -----<br>---------- -- -- -- ---- ----- -- ------ -- --- ------<br>-------,187900,187897,187614.38,187615,187621.42,187906.14,,2,the
screen,html.Screen,2_3_1_0_1_3,2021-04-24T15:52:35.920Z,,,,,,,,,,,,,,,,,48,,,,,,,,,,,,,,318.85999999998603,,response,,,,10,D,,,,,,Space,keypress(Space),,,,silence,,,,-- -- --- United ------- --------- ----------- --------<br>--------- -------- --- ------- -- ------- ---- -- ------<br>-- --- -------- -------- ---------- ---- ---- ---- ------<br>-- --------- -- ---- -- --- -- --- ------- -- - -----<br>---------- -- -- -- ---- ----- -- ------ -- --- ------<br>-------,188232,188225,187900.08,187900,187906.14,188239.48,,3,United
screen,html.Screen,2_3_1_0_1_4,2021-04-24T15:52:36.179Z,,,,,,,,,,,,,,,,,48,,,,,,,,,,,,,,236.51999999998952,,response,,,,10,D,,,,,,Space,keypress(Space),,,,silence,,,,"-- -- --- ------ States, --------- ----------- --------<br>--------- -------- --- ------- -- ------- ---- -- ------<br>-- --- -------- -------- ---------- ---- ---- ---- ------<br>-- --------- -- ---- -- --- -- --- ------- -- - -----<br>---------- -- -- -- ---- ----- -- ------ -- --- ------<br>-------",188492,188476,188232.48,188232,188239.48,188496.4,,4,"States,"
screen,html.Screen,2_3_1_0_1_5,2021-04-24T15:52:36.636Z,,,,,,,,,,,,,,,,,48,,,,,,,,,,,,,,448.6000000000058,,response,,,,10,D,,,,,,Space,keypress(Space),,,,silence,,,,-- -- --- ------ ------- Colombian ----------- --------<br>--------- -------- --- ------- -- ------- ---- -- ------<br>-- --- -------- -------- ---------- ---- ---- ---- ------<br>-- --------- -- ---- -- --- -- --- ------- -- - -----<br>---------- -- -- -- ---- ----- -- ------ -- --- ------<br>-------,188948,188945,188492.22,188492,188496.4,188954.74,,5,Colombian
screen,html.Screen,2_3_1_0_1_6,2021-04-24T15:52:36.914Z,,,,,,,,,,,,,,,,,48,,,,,,,,,,,,,,254.2600000000093,,response,,,,10,D,,,,,,Space,keypress(Space),,,,silence,,,,-- -- --- ------ ------- --------- legislation --------<br>--------- -------- --- ------- -- ------- ---- -- ------<br>-- --- -------- -------- ---------- ---- ---- ---- ------<br>-- --------- -- ---- -- --- -- --- ------- -- - -----<br>---------- -- -- -- ---- ----- -- ------ -- --- ------<br>-------,189226,189209,188948.58,188948,188954.74,189232.48,,6,legislation
screen,html.Screen,2_3_1_0_1_7,2021-04-24T15:52:37.262Z,,,,,,,,,,,,,,,,,48,,,,,,,,,,,,,,336.5199999999895,,response,,,,10,D,,,,,,Space,keypress(Space),,,,silence,,,,-- -- --- ------ ------- --------- ----------- requires<br>--------- -------- --- ------- -- ------- ---- -- ------<br>-- --- -------- -------- ---------- ---- ---- ---- ------<br>-- --------- -- ---- -- --- -- --- ------- -- - -----<br>---------- -- -- -- ---- ----- -- ------ -- --- ------<br>-------,189574,189569,189226.32,189226,189232.48,189579.7,,7,requires
screen,html.Screen,2_3_1_0_1_8,2021-04-24T15:52:37.592Z,,,,,,,,,,,,,,,,,48,,,,,,,,,,,,,,318.29999999998836,,response,,,,10,D,,,,,,Space,keypress(Space),,,,silence,,,,-- -- --- ------ ------- --------- ----------- --------<br>travelers -------- --- ------- -- ------- ---- -- ------<br>-- --- -------- -------- ---------- ---- ---- ---- ------<br>-- --------- -- ---- -- --- -- --- ------- -- - -----<br>---------- -- -- -- ---- ----- -- ------ -- --- ------<br>-------,189904,189898,189574.12,189574,189579.7,189906.06,,8,travelers
screen,html.Screen,2_3_1_0_1_9,2021-04-24T15:52:38.332Z,,,,,,,,,,,,,,,,,48,,,,,,,,,,,,,,725.9400000000023,,response,,,,10,D,,,,,,Space,keypress(Space),,,,silence,,,,-- -- --- ------ ------- --------- ----------- --------<br>--------- entering --- ------- -- ------- ---- -- ------<br>-- --- -------- -------- ---------- ---- ---- ---- ------<br>-- --------- -- ---- -- --- -- --- ------- -- - -----<br>---------- -- -- -- ---- ----- -- ------ -- --- ------<br>-------,190644,190632,189904.32,189904,189906.06,190649.1,,9,entering
screen,html.Screen,2_3_1_0_1_10,2021-04-24T15:52:38.558Z,,,,,,,,,,,,,,,,,48,,,,,,,,,,,,,,217.89999999999418,,response,,,,10,D,,,,,,Space,keypress(Space),,,,silence,,,,-- -- --- ------ ------- --------- ----------- --------<br>--------- -------- the ------- -- ------- ---- -- ------<br>-- --- -------- -------- ---------- ---- ---- ---- ------<br>-- --------- -- ---- -- --- -- --- ------- -- - -----<br>---------- -- -- -- ---- ----- -- ------ -- --- ------<br>-------,190870,190867,190644.38,190644,190649.1,190878.22,,10,the
screen,html.Screen,2_3_1_0_1_11,2021-04-24T15:52:38.786Z,,,,,,,,,,,,,,,,,48,,,,,,,,,,,,,,205.77999999999884,,response,,,,10,D,,,,,,Space,keypress(Space),,,,silence,,,,-- -- --- ------ ------- --------- ----------- --------<br>--------- -------- --- country -- ------- ---- -- ------<br>-- --- -------- -------- ---------- ---- ---- ---- ------<br>-- --------- -- ---- -- --- -- --- ------- -- - -----<br>---------- -- -- -- ---- ----- -- ------ -- --- ------<br>-------,191098,191084,190870.3,190871,190878.22,191100.5,,11,country
screen,html.Screen,2_3_1_0_1_12,2021-04-24T15:52:39.052Z,,,,,,,,,,,,,,,,,48,,,,,,,,,,,,,,250.5,,response,,,,10,D,,,,,,Space,keypress(Space),,,,silence,,,,-- -- --- ------ ------- --------- ----------- --------<br>--------- -------- --- ------- to ------- ---- -- ------<br>-- --- -------- -------- ---------- ---- ---- ---- ------<br>-- --------- -- ---- -- --- -- --- ------- -- - -----<br>---------- -- -- -- ---- ----- -- ------ -- --- ------<br>-------,191364,191351,191098.1,191099,191100.5,191371.28,,12,to
screen,html.Screen,2_3_1_0_1_13,2021-04-24T15:52:39.278Z,,,,,,,,,,,,,,,,,48,,,,,,,,,,,,,,213.72000000000116,,response,,,,10,D,,,,,,Space,keypress(Space),,,,silence,,,,-- -- --- ------ ------- --------- ----------- --------<br>--------- -------- --- ------- -- declare ---- -- ------<br>-- --- -------- -------- ---------- ---- ---- ---- ------<br>-- --------- -- ---- -- --- -- --- ------- -- - -----<br>---------- -- -- -- ---- ----- -- ------ -- --- ------<br>-------,191590,191585,191364.22,191364,191371.28,191593.5,,13,declare
screen,html.Screen,2_3_1_0_1_14,2021-04-24T15:52:39.557Z,,,,,,,,,,,,,,,,,48,,,,,,,,,,,,,,272.5,,response,,,,10,D,,,,,,Space,keypress(Space),,,,silence,,,,-- -- --- ------ ------- --------- ----------- --------<br>--------- -------- --- ------- -- ------- cash -- ------<br>-- --- -------- -------- ---------- ---- ---- ---- ------<br>-- --------- -- ---- -- --- -- --- ------- -- - -----<br>---------- -- -- -- ---- ----- -- ------ -- --- ------<br>-------,191870,191866,191590.24,191590,191593.5,191871.26,,14,cash
screen,html.Screen,2_3_1_0_1_15,2021-04-24T15:52:39.900Z,,,,,,,,,,,,,,,,,48,,,,,,,,,,,,,,338.7399999999907,,response,,,,10,D,,,,,,Space,keypress(Space),,,,silence,,,,-- -- --- ------ ------- --------- ----------- --------<br>--------- -------- --- ------- -- ------- ---- in ------<br>-- --- -------- -------- ---------- ---- ---- ---- ------<br>-- --------- -- ---- -- --- -- --- ------- -- - -----<br>---------- -- -- -- ---- ----- -- ------ -- --- ------<br>-------,192212,192210,191870.2,191870,191871.26,192218.5,,15,in
screen,html.Screen,2_3_1_0_1_16,2021-04-24T15:52:40.184Z,,,,,,,,,,,,,,,,,48,,,,,,,,,,,,,,272.5,,response,,,,10,D,,,,,,Space,keypress(Space),,,,silence,,,,-- -- --- ------ ------- --------- ----------- --------<br>--------- -------- --- ------- -- ------- ---- -- excess<br>-- --- -------- -------- ---------- ---- ---- ---- ------<br>-- --------- -- ---- -- --- -- --- ------- -- - -----<br>---------- -- -- -- ---- ----- -- ------ -- --- ------<br>-------,192496,192491,192212.24,192212,192218.5,192503.16,,16,excess
screen,html.Screen,2_3_1_0_1_17,2021-04-24T15:52:40.510Z,,,,,,,,,,,,,,,,,48,,,,,,,,,,,,,,316.8399999999965,,response,,,,10,D,,,,,,Space,keypress(Space),,,,silence,,,,-- -- --- ------ ------- --------- ----------- --------<br>--------- -------- --- ------- -- ------- ---- -- ------<br>of --- -------- -------- ---------- ---- ---- ---- ------<br>-- --------- -- ---- -- --- -- --- ------- -- - -----<br>---------- -- -- -- ---- ----- -- ------ -- --- ------<br>-------,192822,192820,192496,192496,192503.16,192829.54,,17,of
screen,html.Screen,2_3_1_0_1_18,2021-04-24T15:52:40.778Z,,,,,,,,,,,,,,,,,48,,,,,,,,,,,,,,255.45999999999185,,response,,,,10,D,,,,,,Space,keypress(Space),,,,silence,,,,-- -- --- ------ ------- --------- ----------- --------<br>--------- -------- --- ------- -- ------- ---- -- ------<br>-- ten -------- -------- ---------- ---- ---- ---- ------<br>-- --------- -- ---- -- --- -- --- ------- -- - -----<br>---------- -- -- -- ---- ----- -- ------ -- --- ------<br>-------,193090,193085,192821.98,192822,192829.54,193093.44,,18,ten
screen,html.Screen,2_3_1_0_1_19,2021-04-24T15:52:41.001Z,,,,,,,,,,,,,,,,,48,,,,,,,,,,,,,,210.55999999999767,,response,,,,10,D,,,,,,Space,keypress(Space),,,,silence,,,,-- -- --- ------ ------- --------- ----------- --------<br>--------- -------- --- ------- -- ------- ---- -- ------<br>-- --- thousand -------- ---------- ---- ---- ---- ------<br>-- --------- -- ---- -- --- -- --- ------- -- - -----<br>---------- -- -- -- ---- ----- -- ------ -- --- ------<br>-------,193314,193304,193090.3,193090,193093.44,193315.64,,19,thousand
screen,html.Screen,2_3_1_0_1_20,2021-04-24T15:52:41.254Z,,,,,,,,,,,,,,,,,48,,,,,,,,,,,,,,238.35999999998603,,response,,,,10,D,,,,,,Space,keypress(Space),,,,silence,,,,-- -- --- ------ ------- --------- ----------- --------<br>--------- -------- --- ------- -- ------- ---- -- ------<br>-- --- -------- dollars. ---------- ---- ---- ---- ------<br>-- --------- -- ---- -- --- -- --- ------- -- - -----<br>---------- -- -- -- ---- ----- -- ------ -- --- ------<br>-------,193566,193554,193314.18,193314,193315.64,193572.58,,20,dollars.
screen,html.Screen,2_3_1_0_1_21,2021-04-24T15:52:41.697Z,,,,,,,,,,,,,,,,,48,,,,,,,,,,,,,,433.4200000000128,,response,,,,10,D,,,,,,Space,keypress(Space),,,,silence,,,,-- -- --- ------ ------- --------- ----------- --------<br>--------- -------- --- ------- -- ------- ---- -- ------<br>-- --- -------- -------- Concealing ---- ---- ---- ------<br>-- --------- -- ---- -- --- -- --- ------- -- - -----<br>---------- -- -- -- ---- ----- -- ------ -- --- ------<br>-------,194010,194006,193566.28,193567,193572.58,194017.02,,21,Concealing
screen,html.Screen,2_3_1_0_1_22,2021-04-24T15:52:42.159Z,,,,,,,,,,,,,,,,,48,,,,,,,,,,,,,,442.9800000000105,,response,,,,10,D,,,,,,Space,keypress(Space),,,,silence,,,,-- -- --- ------ ------- --------- ----------- --------<br>--------- -------- --- ------- -- ------- ---- -- ------<br>-- --- -------- -------- ---------- more ---- ---- ------<br>-- --------- -- ---- -- --- -- --- ------- -- - -----<br>---------- -- -- -- ---- ----- -- ------ -- --- ------<br>-------,194472,194460,194010.18,194010,194017.02,194475.32,,22,more
screen,html.Screen,2_3_1_0_1_23,2021-04-24T15:52:42.388Z,,,,,,,,,,,,,,,,,48,,,,,,,,,,,,,,219.67999999999302,,response,,,,10,D,,,,,,Space,keypress(Space),,,,silence,,,,-- -- --- ------ ------- --------- ----------- --------<br>--------- -------- --- ------- -- ------- ---- -- ------<br>-- --- -------- -------- ---------- ---- than ---- ------<br>-- --------- -- ---- -- --- -- --- ------- -- - -----<br>---------- -- -- -- ---- ----- -- ------ -- --- ------<br>-------,194700,194695,194472.22,194472,194475.32,194704.48,,23,than
screen,html.Screen,2_3_1_0_1_24,2021-04-24T15:52:42.648Z,,,,,,,,,,,,,,,,,48,,,,,,,,,,,,,,239.51999999998952,,response,,,,10,D,,,,,,Space,keypress(Space),,,,silence,,,,-- -- --- ------ ------- --------- ----------- --------<br>--------- -------- --- ------- -- ------- ---- -- ------<br>-- --- -------- -------- ---------- ---- ---- that ------<br>-- --------- -- ---- -- --- -- --- ------- -- - -----<br>---------- -- -- -- ---- ----- -- ------ -- --- ------<br>-------,194960,194944,194700.02,194700,194704.48,194961.4,,24,that
screen,html.Screen,2_3_1_0_1_25,2021-04-24T15:52:42.998Z,,,,,,,,,,,,,,,,,48,,,,,,,,,,,,,,342.6000000000058,,response,,,,10,D,,,,,,Space,keypress(Space),,,,silence,,,,-- -- --- ------ ------- --------- ----------- --------<br>--------- -------- --- ------- -- ------- ---- -- ------<br>-- --- -------- -------- ---------- ---- ---- ---- amount<br>-- --------- -- ---- -- --- -- --- ------- -- - -----<br>---------- -- -- -- ---- ----- -- ------ -- --- ------<br>-------,195310,195304,194960.2,194960,194961.4,195315.58,,25,amount
screen,html.Screen,2_3_1_0_1_26,2021-04-24T15:52:43.282Z,,,,,,,,,,,,,,,,,48,,,,,,,,,,,,,,269.4200000000128,,response,,,,10,D,,,,,,Space,keypress(Space),,,,silence,,,,-- -- --- ------ ------- --------- ----------- --------<br>--------- -------- --- ------- -- ------- ---- -- ------<br>-- --- -------- -------- ---------- ---- ---- ---- ------<br>to --------- -- ---- -- --- -- --- ------- -- - -----<br>---------- -- -- -- ---- ----- -- ------ -- --- ------<br>-------,195594,195585,195310.08,195310,195315.58,195600.28,,26,to
screen,html.Screen,2_3_1_0_1_27,2021-04-24T15:52:43.556Z,,,,,,,,,,,,,,,,,48,,,,,,,,,,,,,,266.72000000000116,,response,,,,10,D,,,,,,Space,keypress(Space),,,,silence,,,,-- -- --- ------ ------- --------- ----------- --------<br>--------- -------- --- ------- -- ------- ---- -- ------<br>-- --- -------- -------- ---------- ---- ---- ---- ------<br>-- transport -- ---- -- --- -- --- ------- -- - -----<br>---------- -- -- -- ---- ----- -- ------ -- --- ------<br>-------,195867,195867,195594.26,195594,195600.28,195871.1,,27,transport
screen,html.Screen,2_3_1_0_1_28,2021-04-24T15:52:43.895Z,,,,,,,,,,,,,,,,,48,,,,,,,,,,,,,,323.8999999999942,,response,,,,10,D,,,,,,Space,keypress(Space),,,,silence,,,,-- -- --- ------ ------- --------- ----------- --------<br>--------- -------- --- ------- -- ------- ---- -- ------<br>-- --- -------- -------- ---------- ---- ---- ---- ------<br>-- --------- it ---- -- --- -- --- ------- -- - -----<br>---------- -- -- -- ---- ----- -- ------ -- --- ------<br>-------,196208,196195,195867.96,195867,195871.1,196211.36,,28,it
screen,html.Screen,2_3_1_0_1_29,2021-04-24T15:52:44.212Z,,,,,,,,,,,,,,,,,48,,,,,,,,,,,,,,310.64000000001397,,response,,,,10,D,,,,,,Space,keypress(Space),,,,silence,,,,-- -- --- ------ ------- --------- ----------- --------<br>--------- -------- --- ------- -- ------- ---- -- ------<br>-- --- -------- -------- ---------- ---- ---- ---- ------<br>-- --------- -- into -- --- -- --- ------- -- - -----<br>---------- -- -- -- ---- ----- -- ------ -- --- ------<br>-------,196524,196522,196208.2,196208,196211.36,196530.82,,29,into
screen,html.Screen,2_3_1_0_1_30,2021-04-24T15:52:44.466Z,,,,,,,,,,,,,,,,,48,,,,,,,,,,,,,,242.17999999999302,,response,,,,10,D,,,,,,Space,keypress(Space),,,,silence,,,,-- -- --- ------ ------- --------- ----------- --------<br>--------- -------- --- ------- -- ------- ---- -- ------<br>-- --- -------- -------- ---------- ---- ---- ---- ------<br>-- --------- -- ---- or --- -- --- ------- -- - -----<br>---------- -- -- -- ---- ----- -- ------ -- --- ------<br>-------,196778,196773,196524.2,196524,196530.82,196780.78,,30,or
screen,html.Screen,2_3_1_0_1_31,2021-04-24T15:52:44.676Z,,,,,,,,,,,,,,,,,48,,,,,,,,,,,,,,195.22000000000116,,response,,,,10,D,,,,,,Space,keypress(Space),,,,silence,,,,-- -- --- ------ ------- --------- ----------- --------<br>--------- -------- --- ------- -- ------- ---- -- ------<br>-- --- -------- -------- ---------- ---- ---- ---- ------<br>-- --------- -- ---- -- out -- --- ------- -- - -----<br>---------- -- -- -- ---- ----- -- ------ -- --- ------<br>-------,196988,196976,196778.14,196779,196780.78,196996.02,,31,out
screen,html.Screen,2_3_1_0_1_32,2021-04-24T15:52:44.923Z,,,,,,,,,,,,,,,,,48,,,,,,,,,,,,,,229.98000000001048,,response,,,,10,D,,,,,,Space,keypress(Space),,,,silence,,,,-- -- --- ------ ------- --------- ----------- --------<br>--------- -------- --- ------- -- ------- ---- -- ------<br>-- --- -------- -------- ---------- ---- ---- ---- ------<br>-- --------- -- ---- -- --- of --- ------- -- - -----<br>---------- -- -- -- ---- ----- -- ------ -- --- ------<br>-------,197236,197226,196988.2,196988,196996.02,197239.1,,32,of
screen,html.Screen,2_3_1_0_1_33,2021-04-24T15:52:45.139Z,,,,,,,,,,,,,,,,,48,,,,,,,,,,,,,,205.89999999999418,,response,,,,10,D,,,,,,Space,keypress(Space),,,,silence,,,,-- -- --- ------ ------- --------- ----------- --------<br>--------- -------- --- ------- -- ------- ---- -- ------<br>-- --- -------- -------- ---------- ---- ---- ---- ------<br>-- --------- -- ---- -- --- -- the ------- -- - -----<br>---------- -- -- -- ---- ----- -- ------ -- --- ------<br>-------,197452,197445,197236.18,197236,197239.1,197454.36,,33,the
screen,html.Screen,2_3_1_0_1_34,2021-04-24T15:52:45.438Z,,,,,,,,,,,,,,,,,48,,,,,,,,,,,,,,286.64000000001397,,response,,,,10,D,,,,,,Space,keypress(Space),,,,silence,,,,-- -- --- ------ ------- --------- ----------- --------<br>--------- -------- --- ------- -- ------- ---- -- ------<br>-- --- -------- -------- ---------- ---- ---- ---- ------<br>-- --------- -- ---- -- --- -- --- country -- - -----<br>---------- -- -- -- ---- ----- -- ------ -- --- ------<br>-------,197750,197741,197452.06,197452,197454.36,197752.96,,34,country
screen,html.Screen,2_3_1_0_1_35,2021-04-24T15:52:45.678Z,,,,,,,,,,,,,,,,,48,,,,,,,,,,,,,,223.04000000000815,,response,,,,10,D,,,,,,Space,keypress(Space),,,,silence,,,,-- -- --- ------ ------- --------- ----------- --------<br>--------- -------- --- ------- -- ------- ---- -- ------<br>-- --- -------- -------- ---------- ---- ---- ---- ------<br>-- --------- -- ---- -- --- -- --- ------- is - -----<br>---------- -- -- -- ---- ----- -- ------ -- --- ------<br>-------,197990,197976,197750.08,197750,197752.96,197996,,35,is
screen,html.Screen,2_3_1_0_1_36,2021-04-24T15:52:45.922Z,,,,,,,,,,,,,,,,,48,,,,,,,,,,,,,,230,,response,,,,10,D,,,,,,Space,keypress(Space),,,,silence,,,,-- -- --- ------ ------- --------- ----------- --------<br>--------- -------- --- ------- -- ------- ---- -- ------<br>-- --- -------- -------- ---------- ---- ---- ---- ------<br>-- --------- -- ---- -- --- -- --- ------- -- a -----<br>---------- -- -- -- ---- ----- -- ------ -- --- ------<br>-------,198234,198226,197990.16,197990,197996,198239.04,,36,a
screen,html.Screen,2_3_1_0_1_37,2021-04-24T15:52:46.242Z,,,,,,,,,,,,,,,,,48,,,,,,,,,,,,,,298.95999999999185,,response,,,,10,D,,,,,,Space,keypress(Space),,,,silence,,,,-- -- --- ------ ------- --------- ----------- --------<br>--------- -------- --- ------- -- ------- ---- -- ------<br>-- --- -------- -------- ---------- ---- ---- ---- ------<br>-- --------- -- ---- -- --- -- --- ------- -- - crime<br>---------- -- -- -- ---- ----- -- ------ -- --- ------<br>-------,198554,198538,198234.2,198234,198239.04,198558.5,,37,crime
screen,html.Screen,2_3_1_0_1_38,2021-04-24T15:52:46.554Z,,,,,,,,,,,,,,,,,48,,,,,,,,,,,,,,291.5,,response,,,,10,D,,,,,,Space,keypress(Space),,,,silence,,,,-- -- --- ------ ------- --------- ----------- --------<br>--------- -------- --- ------- -- ------- ---- -- ------<br>-- --- -------- -------- ---------- ---- ---- ---- ------<br>-- --------- -- ---- -- --- -- --- ------- -- - -----<br>punishable -- -- -- ---- ----- -- ------ -- --- ------<br>-------,198866,198850,198554.08,198554,198558.5,198870.96,,38,punishable
screen,html.Screen,2_3_1_0_1_39,2021-04-24T15:52:46.841Z,,,,,,,,,,,,,,,,,48,,,,,,,,,,,,,,277.04000000000815,,response,,,,10,D,,,,,,Space,keypress(Space),,,,silence,,,,-- -- --- ------ ------- --------- ----------- --------<br>--------- -------- --- ------- -- ------- ---- -- ------<br>-- --- -------- -------- ---------- ---- ---- ---- ------<br>-- --------- -- ---- -- --- -- --- ------- -- - -----<br>---------- by -- -- ---- ----- -- ------ -- --- ------<br>-------,199154,199148,198866.06,198866,198870.96,199155.7,,39,by
screen,html.Screen,2_3_1_0_1_40,2021-04-24T15:52:47.276Z,,,,,,,,,,,,,,,,,48,,,,,,,,,,,,,,428.29999999998836,,response,,,,10,D,,,,,,Space,keypress(Space),,,,silence,,,,-- -- --- ------ ------- --------- ----------- --------<br>--------- -------- --- ------- -- ------- ---- -- ------<br>-- --- -------- -------- ---------- ---- ---- ---- ------<br>-- --------- -- ---- -- --- -- --- ------- -- - -----<br>---------- -- up -- ---- ----- -- ------ -- --- ------<br>-------,199588,199584,199154.16,199155,199155.7,199593.16,,40,up
screen,html.Screen,2_3_1_0_1_41,2021-04-24T15:52:47.930Z,,,,,,,,,,,,,,,,,48,,,,,,,,,,,,,,647.8399999999965,,response,,,,10,D,,,,,,Space,keypress(Space),,,,silence,,,,-- -- --- ------ ------- --------- ----------- --------<br>--------- -------- --- ------- -- ------- ---- -- ------<br>-- --- -------- -------- ---------- ---- ---- ---- ------<br>-- --------- -- ---- -- --- -- --- ------- -- - -----<br>---------- -- -- to ---- ----- -- ------ -- --- ------<br>-------,200242,200241,199588.2,199588,199593.16,200245.92,,41,to
screen,html.Screen,2_3_1_0_1_42,2021-04-24T15:52:48.153Z,,,,,,,,,,,,,,,,,48,,,,,,,,,,,,,,213.0799999999872,,response,,,,10,D,,,,,,Space,keypress(Space),,,,silence,,,,-- -- --- ------ ------- --------- ----------- --------<br>--------- -------- --- ------- -- ------- ---- -- ------<br>-- --- -------- -------- ---------- ---- ---- ---- ------<br>-- --------- -- ---- -- --- -- --- ------- -- - -----<br>---------- -- -- -- five ----- -- ------ -- --- ------<br>-------,200465,200459,200242.22,200242,200245.92,200468.12,,42,five
screen,html.Screen,2_3_1_0_1_43,2021-04-24T15:52:48.401Z,,,,,,,,,,,,,,,,,48,,,,,,,,,,,,,,241.88000000000466,,response,,,,10,D,,,,,,Space,keypress(Space),,,,silence,,,,-- -- --- ------ ------- --------- ----------- --------<br>--------- -------- --- ------- -- ------- ---- -- ------<br>-- --- -------- -------- ---------- ---- ---- ---- ------<br>-- --------- -- ---- -- --- -- --- ------- -- - -----<br>---------- -- -- -- ---- years -- ------ -- --- ------<br>-------,200713,200710,200466.16,200466,200468.12,200718.12,,43,years
screen,html.Screen,2_3_1_0_1_44,2021-04-24T15:52:48.602Z,,,,,,,,,,,,,,,,,48,,,,,,,,,,,,,,193.88000000000466,,response,,,,10,D,,,,,,Space,keypress(Space),,,,silence,,,,-- -- --- ------ ------- --------- ----------- --------<br>--------- -------- --- ------- -- ------- ---- -- ------<br>-- --- -------- -------- ---------- ---- ---- ---- ------<br>-- --------- -- ---- -- --- -- --- ------- -- - -----<br>---------- -- -- -- ---- ----- in ------ -- --- ------<br>-------,200914,200912,200714,200714,200718.12,200919.5,,44,in
screen,html.Screen,2_3_1_0_1_45,2021-04-24T15:52:48.804Z,,,,,,,,,,,,,,,,,48,,,,,,,,,,,,,,181.5,,response,,,,10,D,,,,,,Space,keypress(Space),,,,silence,,,,-- -- --- ------ ------- --------- ----------- --------<br>--------- -------- --- ------- -- ------- ---- -- ------<br>-- --- -------- -------- ---------- ---- ---- ---- ------<br>-- --------- -- ---- -- --- -- --- ------- -- - -----<br>---------- -- -- -- ---- ----- -- prison -- --- ------<br>-------,201116,201101,200914.16,200914,200919.5,201120.88,,45,prison
screen,html.Screen,2_3_1_0_1_46,2021-04-24T15:52:49.088Z,,,,,,,,,,,,,,,,,48,,,,,,,,,,,,,,276.11999999999534,,response,,,,10,D,,,,,,Space,keypress(Space),,,,silence,,,,-- -- --- ------ ------- --------- ----------- --------<br>--------- -------- --- ------- -- ------- ---- -- ------<br>-- --- -------- -------- ---------- ---- ---- ---- ------<br>-- --------- -- ---- -- --- -- --- ------- -- - -----<br>---------- -- -- -- ---- ----- -- ------ in --- ------<br>-------,201400,201397,201116.16,201116,201120.88,201405.6,,46,in
screen,html.Screen,2_3_1_0_1_47,2021-04-24T15:52:49.293Z,,,,,,,,,,,,,,,,,48,,,,,,,,,,,,,,194.39999999999418,,response,,,,10,D,,,,,,Space,keypress(Space),,,,silence,,,,-- -- --- ------ ------- --------- ----------- --------<br>--------- -------- --- ------- -- ------- ---- -- ------<br>-- --- -------- -------- ---------- ---- ---- ---- ------<br>-- --------- -- ---- -- --- -- --- ------- -- - -----<br>---------- -- -- -- ---- ----- -- ------ -- the ------<br>-------,201605,201600,201400.2,201400,201405.6,201613.88,,47,the
screen,html.Screen,2_3_1_0_1_48,2021-04-24T15:52:49.620Z,,,,,,,,,,,,,,,,,48,,,,,,,,,,,,,,314.11999999999534,,response,,,,10,D,,,,,,Space,keypress(Space),,,,silence,,,,-- -- --- ------ ------- --------- ----------- --------<br>--------- -------- --- ------- -- ------- ---- -- ------<br>-- --- -------- -------- ---------- ---- ---- ---- ------<br>-- --------- -- ---- -- --- -- --- ------- -- - -----<br>---------- -- -- -- ---- ----- -- ------ -- --- United<br>-------,201932,201928,201606,201605,201613.88,201933.34,,48,United
screen,html.Screen,2_3_1_0_1_49,2021-04-24T15:52:49.994Z,,,,,,,,,,,,,,,,,48,,,,,,,,,,,,,,369.6600000000035,,response,,,,10,D,,,,,,Space,keypress(Space),,,,silence,,,,-- -- --- ------ ------- --------- ----------- --------<br>--------- -------- --- ------- -- ------- ---- -- ------<br>-- --- -------- -------- ---------- ---- ---- ---- ------<br>-- --------- -- ---- -- --- -- --- ------- -- - -----<br>---------- -- -- -- ---- ----- -- ------ -- --- ------<br>States.,202306,202303,201932.14,201932,201933.34,202315.26,,49,States.
Item 10,flow.Loop,2_3_1_0_1,2021-04-24T15:52:49.994Z,,,,,,,,,,,,,,,,,,,,,,,,,,,,,,,15903.73999999999,,completion,,,,,,,,,,,,,,,,,,,,,202307,202303,186392.32,186393,186399.26,202315.26,,,
Question 1,html.Screen,2_3_1_0_2,2021-04-24T15:52:53.678Z,,,,,,,,,,,,,,,,,,,,,,,,,,,,true,TRUE,,3659.7399999999907,,response,,,,10,D,,,,,,TRUE,click #choice-1,,,,silence,,,,,205989,205975,202308.34,202307,202315.26,206002.6,,,
Question 2,html.Screen,2_3_1_0_3,2021-04-24T15:52:57.101Z,,,,,,,,,,,,,,,,,,,,,,,,,,,,true,TRUE,,3394.399999999994,,response,,,,10,D,,,,,,TRUE,click #choice-1,,,,silence,,,,,209413,209397,205995.68,205990,206002.6,209426.08,,,
Item 10,flow.Sequence,2_3_1_0,2021-04-24T15:52:57.101Z,,,,,,,,,,,,,,,,,,,,,,,,,,,,,,,29997.459999999992,,completion,,,,,,,,,,,,,,,,,,,,,209413,209397,179392.6,179394,179399.54,209426.08,,,
Holding screen,html.Screen,2_3_1_1_0,2021-04-24T15:53:04.107Z,,,,,,,,,,,,,,,,,,,,,,,,,,,,,,,6999.700000000012,,timeout,,,,,,,,,,,,,,,,,,,,,216419,216418.84,209419.14,209413,209426.08,216425.78,,,
screen,html.Screen,2_3_1_1_1_0,2021-04-24T15:53:04.844Z,,,,,,,,,,,,,,,,,2,,,,,,,,,,,,,,721.2200000000012,,response,,,,1,D,,,,,,Space,keypress(Space),,,,silence,,,,Two ---- ------ --- ------- ---------- ------- ----------<br>--- --------- --- ----------- ------- ----- ------- ---<br>--------- ---- -- --- ---- -- --------- -- ---- -------<br>-- --------- ------ --- ----- ------ ---- --- --------- --<br>------ - ---- -- --- ----------- ------- ---- ----- -----<br>--- -------- - ------ ---- -- ----- ---- --- --- -----------<br>-- -------,217156,217147,216418.84,216419,216425.78,217161.9,,0,Two
screen,html.Screen,2_3_1_1_1_1,2021-04-24T15:53:05.143Z,,,,,,,,,,,,,,,,,2,,,,,,,,,,,,,,283.1000000000058,,response,,,,1,D,,,,,,Space,keypress(Space),,,,silence,,,,--- days ------ --- ------- ---------- ------- ----------<br>--- --------- --- ----------- ------- ----- ------- ---<br>--------- ---- -- --- ---- -- --------- -- ---- -------<br>-- --------- ------ --- ----- ------ ---- --- --------- --<br>------ - ---- -- --- ----------- ------- ---- ----- -----<br>--- -------- - ------ ---- -- ----- ---- --- --- -----------<br>-- -------,217457,217445,217156.3,217156,217161.9,217460.46,,1,days
screen,html.Screen,2_3_1_1_1_2,2021-04-24T15:53:05.397Z,,,,,,,,,,,,,,,,,2,,,,,,,,,,,,,,233.54000000000815,,response,,,,1,D,,,,,,Space,keypress(Space),,,,silence,,,,"--- ---- later, --- ------- ---------- ------- ----------<br>--- --------- --- ----------- ------- ----- ------- ---<br>--------- ---- -- --- ---- -- --------- -- ---- -------<br>-- --------- ------ --- ----- ------ ---- --- --------- --<br>------ - ---- -- --- ----------- ------- ---- ----- -----<br>--- -------- - ------ ---- -- ----- ---- --- --- -----------<br>-- -------",217710,217694,217456.3,217457,217460.46,217717.38,,2,"later,"
screen,html.Screen,2_3_1_1_1_3,2021-04-24T15:53:05.822Z,,,,,,,,,,,,,,,,,2,,,,,,,,,,,,,,413.61999999999534,,response,,,,1,D,,,,,,Space,keypress(Space),,,,silence,,,,--- ---- ------ the ------- ---------- ------- ----------<br>--- --------- --- ----------- ------- ----- ------- ---<br>--------- ---- -- --- ---- -- --------- -- ---- -------<br>-- --------- ------ --- ----- ------ ---- --- --------- --<br>------ - ---- -- --- ----------- ------- ---- ----- -----<br>--- -------- - ------ ---- -- ----- ---- --- --- -----------<br>-- -------,218134,218131,217710.16,217710,217717.38,218141,,3,the
