sender,sender_type,sender_id,timestamp,meta,,Blues,Classical,Country,Dance,Electronic,Folk,Gospel,Hip-Hop,Jazz,Latin,Musical/Film,New-age,Pop,Provo_ID,R&B,Rap,Reggae,Religious,Rock,Soul,Swing,Traditional,age,artist_name,correct,correctResponse,distraction,duration,education,ended_on,familiarity,gender,headphone_check_performance,item,list,music_frequency,offensiveness,pleasantness,position_correct,preference,response,response_action,snippet_file,song_name,song_rating,sound,stimulus_1,stimulus_2,stimulus_3,text,time_commit,time_end,time_render,time_run,time_show,time_switch,url,word,word_ID
Introduction,html.Screen,0_0,2021-04-08T15:17:35.727Z,"{""labjs_version"":""20.2.2"",""labjs_build"":{""flavor"":""production"",""commit"":""a25486e0c714a0ae2ce03ff94b7bb6896854dcfa""},""location"":""https://run.pavlovia.org/mvasilev/music_b/"",""userAgent"":""Mozilla/5.0 (Windows NT 10.0; Win64; x64) AppleWebKit/537.36 (KHTML, like Gecko) Chrome/89.0.4389.114 Safari/537.36"",""platform"":""Win32"",""language"":""de-DE"",""locale"":""en-US"",""timeZone"":""Europe/London"",""timezoneOffset"":-60,""screen_width"":2560,""screen_height"":1440,""scroll_width"":3200,""scroll_height"":1621,""window_innerWidth"":3200,""window_innerHeight"":1668,""devicePixelRatio"":0.800000011920929}",,,,,,,,,,,,,,,,,,,,,,,,,,,,,2820.3030001016996,,response,,,,,,,,,,,continue,click button,,,,,,,,,12573.474999982864,12571.0750001017,9700.678,9715.760000050068,9750.772,12602.629,{},,
Volume calibration,html.Screen,0_1,2021-04-08T15:17:41.777Z,,,,,,,,,,,,,,,,,,,,,,,,,,,,,,6015.431000007971,,response,,,,,,,,,,,continue,click button,,,,,,,,,18623.025000095367,18618.060000007972,12569.284,12573.97500006482,12602.629,18623.186,,,
Task instructions,html.Screen,0_2,2021-04-08T15:17:44.253Z,,,,,,,,,,,,,,,,,,,,,,,,,,,,,,2474.4190000172093,,response,,,,,,,,,,,continue,click button,,,,,,,,,21098.63999998197,21097.60500001721,18606.567,18623.300000093877,18623.186,21108.158,,,
Sounds,html.Screen,0_3_0_0,2021-04-08T15:17:48.521Z,,,,,,,,,,,,,,,,,,,,,,,,,,,,,,4252.845000000001,,timeout,,,,,,,,,2,,,,,,,,I,S,O,,25366.990000009537,25344.273,21091.489,21099.04000000097,21108.158,25361.003,,,
Judgement,html.Screen,0_3_0_1,2021-04-08T15:17:49.156Z,,,,,,,,,,,,,,,,,,,,,,,,,,,true,2,,640.052000117048,,response,,,,,,,,,2,,2,click #choice-2,,,,,I,S,O,,26002.47499998659,26001.05500011705,25344.273,25367.39500006661,25361.003,26011.305,,,
Trial,flow.Sequence,0_3_0,2021-04-08T15:17:49.157Z,,,,,,,,,,,,,,,,,,,,,,,,,,,,,,4892.897000117049,,completion,,,,,,,,,2,,,,,,,,I,S,O,,26003.200000151992,26001.05500011705,21091.489,21098.93999993801,21108.158,26011.305,,,
Sounds,html.Screen,0_3_1_0,2021-04-08T15:17:53.403Z,,,,,,,,,,,,,,,,,,,,,,,,,,,,,,4252.857,,timeout,,,,,,,,,1,,,,,,,,S,I,O,,30248.5849999357,30247.55,25994.765,26003.544999985024,26011.305,30264.162,,,
Judgement,html.Screen,0_3_1_1,2021-04-08T15:17:53.936Z,,,,,,,,,,,,,,,,,,,,,,,,,,,true,1,,511.9830000107286,,response,,,,,,,,,1,,1,click #choice-1,,,,,S,I,O,,30782.515000086278,30776.14500001073,30247.55,30248.85999993421,30264.162,30797.845,,,
Trial,flow.Sequence,0_3_1,2021-04-08T15:17:53.937Z,,,,,,,,,,,,,,,,,,,,,,,,,,,,,,4764.8400000107285,,completion,,,,,,,,,1,,,,,,,,S,I,O,,30783.15500007011,30776.14500001073,25994.765,26003.454999998212,26011.305,30797.845,,,
Sounds,html.Screen,0_3_2_0,2021-04-08T15:17:58.189Z,,,,,,,,,,,,,,,,,,,,,,,,,,,,,,4252.6990000000005,,timeout,,,,,,,,,3,,,,,,,,O,I,S,,35034.9100001622,35033.995,30781.179,30783.595000160858,30797.845,35050.544,,,
Judgement,html.Screen,0_3_2_1,2021-04-08T15:17:58.755Z,,,,,,,,,,,,,,,,,,,,,,,,,,,true,3,,548.9010000580383,,response,,,,,,,,,3,,3,click #choice-3,,,,,O,I,S,,35600.73500010185,35599.44500005804,35033.995,35035.09999997914,35050.544,35620.849,,,
Trial,flow.Sequence,0_3_2,2021-04-08T15:17:58.755Z,,,,,,,,,,,,,,,,,,,,,,,,,,,,,,4801.600000058039,,completion,,,,,,,,,3,,,,,,,,O,I,S,,35601.29000013694,35599.44500005804,30781.179,30783.479999983683,30797.845,35620.849,,,
Sounds,html.Screen,0_3_3_0,2021-04-08T15:18:03.009Z,,,,,,,,,,,,,,,,,,,,,,,,,,,,,,4249.665999999997,,timeout,,,,,,,,,2,,,,,,,,O,S,I,,39854.73500005901,39853.8,35584.399,35601.64000000805,35620.849,39870.515,,,
Judgement,html.Screen,0_3_3_1,2021-04-08T15:18:03.513Z,,,,,,,,,,,,,,,,,,,,,,,,,,,true,2,,488.0550001567608,,response,,,,,,,,,2,,2,click #choice-2,,,,,O,S,I,,40359.44500006735,40358.57000015676,39853.8,39854.99000013806,39870.515,40370.732,,,
Trial,flow.Sequence,0_3_3,2021-04-08T15:18:03.514Z,,,,,,,,,,,,,,,,,,,,,,,,,,,,,,4737.721000156758,,completion,,,,,,,,,2,,,,,,,,O,S,I,,40359.660000074655,40358.57000015676,35584.399,35601.53999994509,35620.849,40370.732,,,
Sounds,html.Screen,0_3_4_0,2021-04-08T15:18:07.762Z,,,,,,,,,,,,,,,,,,,,,,,,,,,,,,4252.929999999993,,timeout,,,,,,,,,3,,,,,,,,I,O,S,,44607.93499997817,44606.929,40354.171,40359.785000095144,40370.732,44623.662,,,
Judgement,html.Screen,0_3_4_1,2021-04-08T15:18:08.433Z,,,,,,,,,,,,,,,,,,,,,,,,,,,true,3,,654.3630001233105,,response,,,,,,,,,3,,3,click #choice-3,,,,,I,O,S,,45279.29500001483,45278.02500012331,44606.929,44608.174999943,44623.662,45290.697,,,
Trial,flow.Sequence,0_3_4,2021-04-08T15:18:08.434Z,,,,,,,,,,,,,,,,,,,,,,,,,,,,,,4907.2930001233035,,completion,,,,,,,,,3,,,,,,,,I,O,S,,45279.66500003822,45278.02500012331,40354.171,40359.745000023395,40370.732,45290.697,,,
Sounds,html.Screen,0_3_5_0,2021-04-08T15:18:12.681Z,,,,,,,,,,,,,,,,,,,,,,,,,,,,,,4252.817999999999,,timeout,,,,,,,,,1,,,,,,,,S,O,I,,49527.41999994032,49526.833,45274.099,45279.925000155345,45290.697,49543.515,,,
Judgement,html.Screen,0_3_5_1,2021-04-08T15:18:13.280Z,,,,,,,,,,,,,,,,,,,,,,,,,,,true,1,,581.6599999355531,,response,,,,,,,,,1,,1,click #choice-1,,,,,S,O,I,,50126.33999995887,50125.17499993555,49526.833,49527.5650001131,49543.515,50143.937,,,
Trial,flow.Sequence,0_3_5,2021-04-08T15:18:13.281Z,,,,,,,,,,,,,,,,,,,,,,,,,,,,,,4834.477999935552,,completion,,,,,,,,,1,,,,,,,,S,O,I,,50126.73000013456,50125.17499993555,45274.099,45279.85500008799,45290.697,50143.937,,,
Task,flow.Loop,0_3,2021-04-08T15:18:13.289Z,,,,,,,,,,,,,,,,,,,,,,,,,,,,,,29017.016999935553,,completion,,,1,,,,,,,,,,,,,,,,,,50135.33499999903,50125.17499993555,21091.489,21098.85499998927,21108.158,50143.937,,,
Trap,html.Screen,0_4,2021-04-08T15:18:13.293Z,,,,,,,,,,,,,,,,,,,,,,,,,,,,,,NaN,,skipped,,,,,,,,,,,,,,,,,,,,,50139.42000013776,50125.17499993555,,50139.175000134856,,50143.937,,,
Thanks,html.Screen,0_5,2021-04-08T15:18:27.239Z,,,,,,,,,,,,,,,,,,,,,,,,,,,,,,13939.042999948295,,response,,,,,,,,,,,continue,click button,,,,,,,,,64083.99499999359,64082.97999994829,50110.614,50139.65000002645,50143.937,65220.372,,,
Headphone screening,flow.Sequence,0,2021-04-08T15:18:27.239Z,,,,,,,,,,,,,,,,,,,,,,,,,,,,,,54332.207999948296,,completion,,,,,,,,,,,,,,,,,,,,,64084.359999978915,64082.97999994829,9700.678,9715.719999978319,9750.772,65220.372,,,
Instructions,html.Page,1_0,2021-04-08T15:18:56.912Z,,,,,,,,,,,,,,,,,,,,,,,,,,,,,,28536.27800011213,,form submission,,,,,,,,,,,,,,,,,,,,,93757.39499996416,93756.65000011213,65203.804,65224.415000062436,65220.372,93772.572,,,
Holding screen,html.Screen,1_1_0_0,2021-04-08T15:19:06.919Z,,,,,,,,,,,,,,,,,,,,,,,,,,,,,,10023.270999999993,,timeout,,,,,,,,,,,,,,,,,,,,,103764.58499999717,103762.346,93739.242,93757.8499999363,93772.572,103795.843,,,
screen,html.Screen,1_1_0_1_0,2021-04-08T15:19:07.908Z,,,,,,,,,,,,,,,,53,,,,,,,,,,,,,,952.7469999737805,,response,,,,99,,,,,,,Space,keypress(Space),,,,,,,,When -- ----- -- ------ - ------- --- ----------<br>------------- ------ ------ ---- ---- ------- ----- -- ----<br>-------- ------- -- ---------- --- - --- ----- ----- ----<br>---- --- --- ----- --- ---- ---- ------- ----- ---- -------<br>--- --- -- ----- -- --- ---- -- --- ---- -- ------ ------<br>--- ----- -- ----,104753.12500004657,104748.58999997377,103762.346,103764.94000013918,103795.843,104763.122,,0,When
screen,html.Screen,1_1_0_1_1,2021-04-08T15:19:08.447Z,,,,,,,,,,,,,,,,53,,,,,,,,,,,,,,528.7580001498281,,response,,,,99,,,,,,,Space,keypress(Space),,,,,,,,---- it ----- -- ------ - ------- --- ----------<br>------------- ------ ------ ---- ---- ------- ----- -- ----<br>-------- ------- -- ---------- --- - --- ----- ----- ----<br>---- --- --- ----- --- ---- ---- ------- ----- ---- -------<br>--- --- -- ----- -- --- ---- -- --- ---- -- ------ ------<br>--- ----- -- ----,105292.65499999747,105291.88000014983,104746.599,104753.41999996454,104763.122,105296.839,,1,it
screen,html.Screen,1_1_0_1_2,2021-04-08T15:19:08.935Z,,,,,,,,,,,,,,,,53,,,,,,,,,,,,,,482.95100005870336,,response,,,,99,,,,,,,Space,keypress(Space),,,,,,,,---- -- comes -- ------ - ------- --- ----------<br>------------- ------ ------ ---- ---- ------- ----- -- ----<br>-------- ------- -- ---------- --- - --- ----- ----- ----<br>---- --- --- ----- --- ---- ---- ------- ----- ---- -------<br>--- --- -- ----- -- --- ---- -- --- ---- -- ------ ------<br>--- ----- -- ----,105780.56500013918,105779.79000005871,105280.223,105292.90500003844,105296.839,105797.207,,2,comes
screen,html.Screen,1_1_0_1_3,2021-04-08T15:19:09.439Z,,,,,,,,,,,,,,,,53,,,,,,,,,,,,,,486.5129999485216,,response,,,,99,,,,,,,Space,keypress(Space),,,,,,,,---- -- ----- to ------ - ------- --- ----------<br>------------- ------ ------ ---- ---- ------- ----- -- ----<br>-------- ------- -- ---------- --- - --- ----- ----- ----<br>---- --- --- ----- --- ---- ---- ------- ----- ---- -------<br>--- --- -- ----- -- --- ---- -- --- ---- -- ------ ------<br>--- ----- -- ----,106284.43500003777,106283.71999994852,105780.555,105780.80500010401,105797.207,106297.435,,3,to
screen,html.Screen,1_1_0_1_4,2021-04-08T15:19:09.871Z,,,,,,,,,,,,,,,,53,,,,,,,,,,,,,,418.1550001525902,,response,,,,99,,,,,,,Space,keypress(Space),,,,,,,,---- -- ----- -- having - ------- --- ----------<br>------------- ------ ------ ---- ---- ------- ----- -- ----<br>-------- ------- -- ---------- --- - --- ----- ----- ----<br>---- --- --- ----- --- ---- ---- ------- ----- ---- -------<br>--- --- -- ----- -- --- ---- -- --- ---- -- ------ ------<br>--- ----- -- ----,106716.35500015691,106715.59000015259,106280.887,106284.69000011683,106297.435,106731.135,,4,having
screen,html.Screen,1_1_0_1_5,2021-04-08T15:19:10.311Z,,,,,,,,,,,,,,,,53,,,,,,,,,,,,,,424.3850000293605,,response,,,,99,,,,,,,Space,keypress(Space),,,,,,,,---- -- ----- -- ------ a ------- --- ----------<br>------------- ------ ------ ---- ---- ------- ----- -- ----<br>-------- ------- -- ---------- --- - --- ----- ----- ----<br>---- --- --- ----- --- ---- ---- ------- ----- ---- -------<br>--- --- -- ----- -- --- ---- -- --- ---- -- ------ ------<br>--- ----- -- ----,107156.26500011422,107155.52000002936,106714.5,106716.59500012174,106731.135,107164.634,,5,a
screen,html.Screen,1_1_0_1_6,2021-04-08T15:19:10.783Z,,,,,,,,,,,,,,,,53,,,,,,,,,,,,,,462.8659999441152,,response,,,,99,,,,,,,Space,keypress(Space),,,,,,,,---- -- ----- -- ------ - lasting --- ----------<br>------------- ------ ------ ---- ---- ------- ----- -- ----<br>-------- ------- -- ---------- --- - --- ----- ----- ----<br>---- --- --- ----- --- ---- ---- ------- ----- ---- -------<br>--- --- -- ----- -- --- ---- -- --- ---- -- ------ ------<br>--- ----- -- ----,107628.19000007585,107627.49999994412,107148.097,107156.51000011712,107164.634,107631.706,,6,lasting
screen,html.Screen,1_1_0_1_7,2021-04-08T15:19:11.270Z,,,,,,,,,,,,,,,,53,,,,,,,,,,,,,,483.71899996721186,,response,,,,99,,,,,,,Space,keypress(Space),,,,,,,,---- -- ----- -- ------ - ------- and ----------<br>------------- ------ ------ ---- ---- ------- ----- -- ----<br>-------- ------- -- ---------- --- - --- ----- ----- ----<br>---- --- --- ----- --- ---- ---- ------- ----- ---- -------<br>--- --- -- ----- -- --- ---- -- --- ---- -- ------ ------<br>--- ----- -- ----,108115.90500012971,108115.42499996722,107615.079,107628.43000004068,107631.706,108132.069,,7,and
screen,html.Screen,1_1_0_1_8,2021-04-08T15:19:11.831Z,,,,,,,,,,,,,,,,53,,,,,,,,,,,,,,543.2110000831453,,response,,,,99,,,,,,,Space,keypress(Space),,,,,,,,---- -- ----- -- ------ - ------- --- fulfilling<br>------------- ------ ------ ---- ---- ------- ----- -- ----<br>-------- ------- -- ---------- --- - --- ----- ----- ----<br>---- --- --- ----- --- ---- ---- ------- ----- ---- -------<br>--- --- -- ----- -- --- ---- -- --- ---- -- ------ ------<br>--- ----- -- ----,108676.0100000538,108675.28000008315,108115.409,108116.00999999791,108132.069,108682.41,,8,fulfilling
screen,html.Screen,1_1_0_1_9,2021-04-08T15:19:12.471Z,,,,,,,,,,,,,,,,53,,,,,,,,,,,,,,632.8500000612403,,response,,,,99,,,,,,,Space,keypress(Space),,,,,,,,"---- -- ----- -- ------ - ------- --- ----------<br>relationship, ------ ------ ---- ---- ------- ----- -- ----<br>-------- ------- -- ---------- --- - --- ----- ----- ----<br>---- --- --- ----- --- ---- ---- ------- ----- ---- -------<br>--- --- -- ----- -- --- ---- -- --- ---- -- ------ ------<br>--- ----- -- ----",109315.97999995574,109315.26000006124,108665.735,108676.26500013284,108682.41,109332.855,,9,"relationship,"
screen,html.Screen,1_1_0_1_10,2021-04-08T15:19:13.030Z,,,,,,,,,,,,,,,,53,,,,,,,,,,,,,,542.3400000878464,,response,,,,99,,,,,,,Space,keypress(Space),,,,,,,,---- -- ----- -- ------ - ------- --- ----------<br>------------- common ------ ---- ---- ------- ----- -- ----<br>-------- ------- -- ---------- --- - --- ----- ----- ----<br>---- --- --- ----- --- ---- ---- ------- ----- ---- -------<br>--- --- -- ----- -- --- ---- -- --- ---- -- ------ ------<br>--- ----- -- ----,109875.87500014342,109875.19500008784,109316.222,109316.22000015341,109332.855,109883.086,,10,common
screen,html.Screen,1_1_0_1_11,2021-04-08T15:19:13.518Z,,,,,,,,,,,,,,,,53,,,,,,,,,,,,,,479.9040000523819,,response,,,,99,,,,,,,Space,keypress(Space),,,,,,,,---- -- ----- -- ------ - ------- --- ----------<br>------------- ------ wisdom ---- ---- ------- ----- -- ----<br>-------- ------- -- ---------- --- - --- ----- ----- ----<br>---- --- --- ----- --- ---- ---- ------- ----- ---- -------<br>--- --- -- ----- -- --- ---- -- --- ---- -- ------ ------<br>--- ----- -- ----,110363.69500006549,110362.99000005238,109866.559,109876.12000014633,109883.086,110366.792,,11,wisdom
screen,html.Screen,1_1_0_1_12,2021-04-08T15:19:13.974Z,,,,,,,,,,,,,,,,53,,,,,,,,,,,,,,452.2930000828492,,response,,,,99,,,,,,,Space,keypress(Space),,,,,,,,---- -- ----- -- ------ - ------- --- ----------<br>------------- ------ ------ says ---- ------- ----- -- ----<br>-------- ------- -- ---------- --- - --- ----- ----- ----<br>---- --- --- ----- --- ---- ---- ------- ----- ---- -------<br>--- --- -- ----- -- --- ---- -- --- ---- -- ------ ------<br>--- ----- -- ----,110819.79999993928,110819.08500008285,110350.208,110363.93500003032,110366.792,110833.839,,12,says
screen,html.Screen,1_1_0_1_13,2021-04-08T15:19:14.398Z,,,,,,,,,,,,,,,,53,,,,,,,,,,,,,,409.176000130974,,response,,,,99,,,,,,,Space,keypress(Space),,,,,,,,---- -- ----- -- ------ - ------- --- ----------<br>------------- ------ ------ ---- that ------- ----- -- ----<br>-------- ------- -- ---------- --- - --- ----- ----- ----<br>---- --- --- ----- --- ---- ---- ------- ----- ---- -------<br>--- --- -- ----- -- --- ---- -- --- ---- -- ------ ------<br>--- ----- -- ----,111243.73500002548,111243.01500013098,110817.174,110820.04000013694,110833.839,111250.742,,13,that
screen,html.Screen,1_1_0_1_14,2021-04-08T15:19:14.870Z,,,,,,,,,,,,,,,,53,,,,,,,,,,,,,,464.18299997839495,,response,,,,99,,,,,,,Space,keypress(Space),,,,,,,,---- -- ----- -- ------ - ------- --- ----------<br>------------- ------ ------ ---- ---- feeling ----- -- ----<br>-------- ------- -- ---------- --- - --- ----- ----- ----<br>---- --- --- ----- --- ---- ---- ------- ----- ---- -------<br>--- --- -- ----- -- --- ---- -- --- ---- -- ------ ------<br>--- ----- -- ----,111715.6299999915,111714.9249999784,111234.116,111243.97499999031,111250.742,111717.685,,14,feeling
screen,html.Screen,1_1_0_1_15,2021-04-08T15:19:15.214Z,,,,,,,,,,,,,,,,53,,,,,,,,,,,,,,341.3199999300414,,response,,,,99,,,,,,,Space,keypress(Space),,,,,,,,---- -- ----- -- ------ - ------- --- ----------<br>------------- ------ ------ ---- ---- ------- close -- ----<br>-------- ------- -- ---------- --- - --- ----- ----- ----<br>---- --- --- ----- --- ---- ---- ------- ----- ---- -------<br>--- --- -- ----- -- --- ---- -- --- ---- -- ------ ------<br>--- ----- -- ----,112059.81500004418,112059.00499993004,111701.089,111715.87499999441,111717.685,112067.926,,15,close
screen,html.Screen,1_1_0_1_16,2021-04-08T15:19:15.598Z,,,,,,,,,,,,,,,,53,,,,,,,,,,,,,,374.9690001019917,,response,,,,99,,,,,,,Space,keypress(Space),,,,,,,,---- -- ----- -- ------ - ------- --- ----------<br>------------- ------ ------ ---- ---- ------- ----- to ----<br>-------- ------- -- ---------- --- - --- ----- ----- ----<br>---- --- --- ----- --- ---- ---- ------- ----- ---- -------<br>--- --- -- ----- -- --- ---- -- --- ---- -- ------ ------<br>--- ----- -- ----,112443.68500006385,112442.895000102,112051.325,112060.07999996655,112067.926,112451.424,,16,to
screen,html.Screen,1_1_0_1_17,2021-04-08T15:19:15.926Z,,,,,,,,,,,,,,,,53,,,,,,,,,,,,,,319.37600005662534,,response,,,,99,,,,,,,Space,keypress(Space),,,,,,,,---- -- ----- -- ------ - ------- --- ----------<br>------------- ------ ------ ---- ---- ------- ----- -- your<br>-------- ------- -- ---------- --- - --- ----- ----- ----<br>---- --- --- ----- --- ---- ---- ------- ----- ---- -------<br>--- --- -- ----- -- --- ---- -- --- ---- -- ------ ------<br>--- ----- -- ----,112771.45500015467,112770.80000005662,112434.9,112443.94499994814,112451.424,112785.127,,17,your
screen,html.Screen,1_1_0_1_18,2021-04-08T15:19:16.262Z,,,,,,,,,,,,,,,,53,,,,,,,,,,,,,,321.69800014082284,,response,,,,99,,,,,,,Space,keypress(Space),,,,,,,,---- -- ----- -- ------ - ------- --- ----------<br>------------- ------ ------ ---- ---- ------- ----- -- ----<br>romantic ------- -- ---------- --- - --- ----- ----- ----<br>---- --- --- ----- --- ---- ---- ------- ----- ---- -------<br>--- --- -- ----- -- --- ---- -- --- ---- -- ------ ------<br>--- ----- -- ----,113107.66500001773,113106.82500014082,112768.44,112771.61499997601,112785.127,113118.619,,18,romantic
screen,html.Screen,1_1_0_1_19,2021-04-08T15:19:16.534Z,,,,,,,,,,,,,,,,53,,,,,,,,,,,,,,260.15600010653725,,response,,,,99,,,,,,,Space,keypress(Space),,,,,,,,---- -- ----- -- ------ - ------- --- ----------<br>------------- ------ ------ ---- ---- ------- ----- -- ----<br>-------- partner -- ---------- --- - --- ----- ----- ----<br>---- --- --- ----- --- ---- ---- ------- ----- ---- -------<br>--- --- -- ----- -- --- ---- -- --- ---- -- ------ ------<br>--- ----- -- ----,113379.63500013575,113378.77500010654,113101.999,113107.92000009678,113118.619,113385.435,,19,partner
screen,html.Screen,1_1_0_1_20,2021-04-08T15:19:16.766Z,,,,,,,,,,,,,,,,53,,,,,,,,,,,,,,225.22500000573928,,response,,,,99,,,,,,,Space,keypress(Space),,,,,,,,---- -- ----- -- ------ - ------- --- ----------<br>------------- ------ ------ ---- ---- ------- ----- -- ----<br>-------- ------- is ---------- --- - --- ----- ----- ----<br>---- --- --- ----- --- ---- ---- ------- ----- ---- -------<br>--- --- -- ----- -- --- ---- -- --- ---- -- ------ ------<br>--- ----- -- ----,113611.44499992952,113610.66000000574,113368.822,113379.89500002004,113385.435,113618.915,,20,is
screen,html.Screen,1_1_0_1_21,2021-04-08T15:19:17.022Z,,,,,,,,,,,,,,,,53,,,,,,,,,,,,,,247.6699999524717,,response,,,,99,,,,,,,Space,keypress(Space),,,,,,,,---- -- ----- -- ------ - ------- --- ----------<br>------------- ------ ------ ---- ---- ------- ----- -- ----<br>-------- ------- -- paramount. --- - --- ----- ----- ----<br>---- --- --- ----- --- ---- ---- ------- ----- ---- -------<br>--- --- -- ----- -- --- ---- -- --- ---- -- ------ ------<br>--- ----- -- ----,113867.40000010468,113866.58499995247,113602.322,113611.72000016086,113618.915,113897.661,,21,paramount.
screen,html.Screen,1_1_0_1_22,2021-04-08T15:19:17.318Z,,,,,,,,,,,,,,,,53,,,,,,,,,,,,,,264.95400003748364,,response,,,,99,,,,,,,Space,keypress(Space),,,,,,,,---- -- ----- -- ------ - ------- --- ----------<br>------------- ------ ------ ---- ---- ------- ----- -- ----<br>-------- ------- -- ---------- But - --- ----- ----- ----<br>---- --- --- ----- --- ---- ---- ------- ----- ---- -------<br>--- --- -- ----- -- --- ---- -- --- ---- -- ------ ------<br>--- ----- -- ----,114163.40499999933,114162.61500003748,113852.474,113867.6549999509,113897.661,114169.294,,22,But
screen,html.Screen,1_1_0_1_23,2021-04-08T15:19:17.589Z,,,,,,,,,,,,,,,,53,,,,,,,,,,,,,,265.14599998272024,,response,,,,99,,,,,,,Space,keypress(Space),,,,,,,,---- -- ----- -- ------ - ------- --- ----------<br>------------- ------ ------ ---- ---- ------- ----- -- ----<br>-------- ------- -- ---------- --- a --- ----- ----- ----<br>---- --- --- ----- --- ---- ---- ------- ----- ---- -------<br>--- --- -- ----- -- --- ---- -- --- ---- -- ------ ------<br>--- ----- -- ----,114435.23499998264,114434.43999998271,114152.675,114163.66000007838,114169.294,114452.861,,23,a
screen,html.Screen,1_1_0_1_24,2021-04-08T15:19:17.862Z,,,,,,,,,,,,,,,,53,,,,,,,,,,,,,,253.69400004067575,,response,,,,99,,,,,,,Space,keypress(Space),,,,,,,,---- -- ----- -- ------ - ------- --- ----------<br>------------- ------ ------ ---- ---- ------- ----- -- ----<br>-------- ------- -- ---------- --- - new ----- ----- ----<br>---- --- --- ----- --- ---- ---- ------- ----- ---- -------<br>--- --- -- ----- -- --- ---- -- --- ---- -- ------ ------<br>--- ----- -- ----,114707.38500007428,114706.55500004068,114419.519,114435.48500002362,114452.861,114719.634,,24,new
screen,html.Screen,1_1_0_1_25,2021-04-08T15:19:18.094Z,,,,,,,,,,,,,,,,53,,,,,,,,,,,,,,219.545999986658,,response,,,,99,,,,,,,Space,keypress(Space),,,,,,,,---- -- ----- -- ------ - ------- --- ----------<br>------------- ------ ------ ---- ---- ------- ----- -- ----<br>-------- ------- -- ---------- --- - --- study ----- ----<br>---- --- --- ----- --- ---- ---- ------- ----- ---- -------<br>--- --- -- ----- -- --- ---- -- --- ---- -- ------ ------<br>--- ----- -- ----,114939.99999994412,114939.17999998666,114703.042,114707.64499995857,114719.634,114953.162,,25,study
screen,html.Screen,1_1_0_1_26,2021-04-08T15:19:18.357Z,,,,,,,,,,,,,,,,53,,,,,,,,,,,,,,249.27300010110775,,response,,,,99,,,,,,,Space,keypress(Space),,,,,,,,---- -- ----- -- ------ - ------- --- ----------<br>------------- ------ ------ ---- ---- ------- ----- -- ----<br>-------- ------- -- ---------- --- - --- ----- finds ----<br>---- --- --- ----- --- ---- ---- ------- ----- ---- -------<br>--- --- -- ----- -- --- ---- -- --- ---- -- ------ ------<br>--- ----- -- ----,115203.23999994434,115202.4350001011,114936.522,114940.25500002317,114953.162,115220.062,,26,finds
screen,html.Screen,1_1_0_1_27,2021-04-08T15:19:18.662Z,,,,,,,,,,,,,,,,53,,,,,,,,,,,,,,286.1630001355952,,response,,,,99,,,,,,,Space,keypress(Space),,,,,,,,---- -- ----- -- ------ - ------- --- ----------<br>------------- ------ ------ ---- ---- ------- ----- -- ----<br>-------- ------- -- ---------- --- - --- ----- ----- that<br>---- --- --- ----- --- ---- ---- ------- ----- ---- -------<br>--- --- -- ----- -- --- ---- -- --- ---- -- ------ ------<br>--- ----- -- ----,115507.990000071,115506.2250001356,115203.372,115203.4950000234,115220.062,115536.911,,27,that
screen,html.Screen,1_1_0_1_28,2021-04-08T15:19:18.869Z,,,,,,,,,,,,,,,,53,,,,,,,,,,,,,,177.19900005901582,,response,,,,99,,,,,,,Space,keypress(Space),,,,,,,,---- -- ----- -- ------ - ------- --- ----------<br>------------- ------ ------ ---- ---- ------- ----- -- ----<br>-------- ------- -- ---------- --- - --- ----- ----- ----<br>it's --- --- ----- --- ---- ---- ------- ----- ---- -------<br>--- --- -- ----- -- --- ---- -- --- ---- -- ------ ------<br>--- ----- -- ----,115714.79500015266,115714.11000005901,115520.209,115508.1450000871,115536.911,115737.062,,28,it's
screen,html.Screen,1_1_0_1_29,2021-04-08T15:19:19.149Z,,,,,,,,,,,,,,,,53,,,,,,,,,,,,,,257.2230000224954,,response,,,,99,,,,,,,Space,keypress(Space),,,,,,,,---- -- ----- -- ------ - ------- --- ----------<br>------------- ------ ------ ---- ---- ------- ----- -- ----<br>-------- ------- -- ---------- --- - --- ----- ----- ----<br>---- not --- ----- --- ---- ---- ------- ----- ---- -------<br>--- --- -- ----- -- --- ---- -- --- ---- -- ------ ------<br>--- ----- -- ----,115995.03999995068,115994.2850000225,115720.306,115715.04499996081,115737.062,116020.584,,29,not
screen,html.Screen,1_1_0_1_30,2021-04-08T15:19:19.373Z,,,,,,,,,,,,,,,,53,,,,,,,,,,,,,,197.62100004105014,,response,,,,99,,,,,,,Space,keypress(Space),,,,,,,,---- -- ----- -- ------ - ------- --- ----------<br>------------- ------ ------ ---- ---- ------- ----- -- ----<br>-------- ------- -- ---------- --- - --- ----- ----- ----<br>---- --- how ----- --- ---- ---- ------- ----- ---- -------<br>--- --- -- ----- -- --- ---- -- --- ---- -- ------ ------<br>--- ----- -- ----,116218.95999996923,116218.20500004105,116003.875,115996.42500001937,116020.584,116220.637,,30,how
screen,html.Screen,1_1_0_1_31,2021-04-08T15:19:19.589Z,,,,,,,,,,,,,,,,53,,,,,,,,,,,,,,213.5930000134831,,response,,,,99,,,,,,,Space,keypress(Space),,,,,,,,---- -- ----- -- ------ - ------- --- ----------<br>------------- ------ ------ ---- ---- ------- ----- -- ----<br>-------- ------- -- ---------- --- - --- ----- ----- ----<br>---- --- --- close --- ---- ---- ------- ----- ---- -------<br>--- --- -- ----- -- --- ---- -- --- ---- -- ------ ------<br>--- ----- -- ----,116435.03000005148,116434.23000001349,116204.025,116219.18500005268,116220.637,116437.493,,31,close
screen,html.Screen,1_1_0_1_32,2021-04-08T15:19:20.005Z,,,,,,,,,,,,,,,,53,,,,,,,,,,,,,,412.687000066755,,response,,,,99,,,,,,,Space,keypress(Space),,,,,,,,---- -- ----- -- ------ - ------- --- ----------<br>------------- ------ ------ ---- ---- ------- ----- -- ----<br>-------- ------- -- ---------- --- - --- ----- ----- ----<br>---- --- --- ----- you ---- ---- ------- ----- ---- -------<br>--- --- -- ----- -- --- ---- -- --- ---- -- ------ ------<br>--- ----- -- ----,116850.99499998614,116850.18000006676,116420.818,116435.25500013493,116437.493,116854.436,,32,you
screen,html.Screen,1_1_0_1_33,2021-04-08T15:19:20.525Z,,,,,,,,,,,,,,,,53,,,,,,,,,,,,,,515.5540000356123,,response,,,,99,,,,,,,Space,keypress(Space),,,,,,,,---- -- ----- -- ------ - ------- --- ----------<br>------------- ------ ------ ---- ---- ------- ----- -- ----<br>-------- ------- -- ---------- --- - --- ----- ----- ----<br>---- --- --- ----- --- feel ---- ------- ----- ---- -------<br>--- --- -- ----- -- --- ---- -- --- ---- -- ------ ------<br>--- ----- -- ----,117370.67999993451,117369.99000003561,116837.802,116851.21500003152,116854.436,117388.114,,33,feel
screen,html.Screen,1_1_0_1_34,2021-04-08T15:19:20.805Z,,,,,,,,,,,,,,,,53,,,,,,,,,,,,,,261.81600007234374,,response,,,,99,,,,,,,Space,keypress(Space),,,,,,,,---- -- ----- -- ------ - ------- --- ----------<br>------------- ------ ------ ---- ---- ------- ----- -- ----<br>-------- ------- -- ---------- --- - --- ----- ----- ----<br>---- --- --- ----- --- ---- that ------- ----- ---- -------<br>--- --- -- ----- -- --- ---- -- --- ---- -- ------ ------<br>--- ----- -- ----,117650.70999995805,117649.93000007235,117354.823,117370.89499994181,117388.114,117654.951,,34,that
screen,html.Screen,1_1_0_1_35,2021-04-08T15:19:21.309Z,,,,,,,,,,,,,,,,53,,,,,,,,,,,,,,498.91900003829505,,response,,,,99,,,,,,,Space,keypress(Space),,,,,,,,---- -- ----- -- ------ - ------- --- ----------<br>------------- ------ ------ ---- ---- ------- ----- -- ----<br>-------- ------- -- ---------- --- - --- ----- ----- ----<br>---- --- --- ----- --- ---- ---- matters ----- ---- -------<br>--- --- -- ----- -- --- ---- -- --- ---- -- ------ ------<br>--- ----- -- ----,118154.47499998845,118153.8700000383,117638.287,117650.92000016011,117654.951,118171.959,,35,matters
screen,html.Screen,1_1_0_1_36,2021-04-08T15:19:21.621Z,,,,,,,,,,,,,,,,53,,,,,,,,,,,,,,294.17600011153263,,response,,,,99,,,,,,,Space,keypress(Space),,,,,,,,"---- -- ----- -- ------ - ------- --- ----------<br>------------- ------ ------ ---- ---- ------- ----- -- ----<br>-------- ------- -- ---------- --- - --- ----- ----- ----<br>---- --- --- ----- --- ---- ---- ------- most, ---- -------<br>--- --- -- ----- -- --- ---- -- --- ---- -- ------ ------<br>--- ----- -- ----",118466.79500001483,118466.13500011154,118138.662,118154.65499996208,118171.959,118472.023,,36,"most,"
screen,html.Screen,1_1_0_1_37,2021-04-08T15:19:21.885Z,,,,,,,,,,,,,,,,53,,,,,,,,,,,,,,257.7070000209351,,response,,,,99,,,,,,,Space,keypress(Space),,,,,,,,---- -- ----- -- ------ - ------- --- ----------<br>------------- ------ ------ ---- ---- ------- ----- -- ----<br>-------- ------- -- ---------- --- - --- ----- ----- ----<br>---- --- --- ----- --- ---- ---- ------- ----- it's -------<br>--- --- -- ----- -- --- ---- -- --- ---- -- ------ ------<br>--- ----- -- ----,118730.4450001102,118729.73000002094,118455.506,118467.00499998406,118472.023,118738.919,,37,it's
screen,html.Screen,1_1_0_1_38,2021-04-08T15:19:22.157Z,,,,,,,,,,,,,,,,53,,,,,,,,,,,,,,262.93600015505217,,response,,,,99,,,,,,,Space,keypress(Space),,,,,,,,---- -- ----- -- ------ - ------- --- ----------<br>------------- ------ ------ ---- ---- ------- ----- -- ----<br>-------- ------- -- ---------- --- - --- ----- ----- ----<br>---- --- --- ----- --- ---- ---- ------- ----- ---- whether<br>--- --- -- ----- -- --- ---- -- --- ---- -- ------ ------<br>--- ----- -- ----,119002.47499998659,119001.85500015505,118722.307,118730.67499999888,118738.919,119005.754,,38,whether
screen,html.Screen,1_1_0_1_39,2021-04-08T15:19:22.445Z,,,,,,,,,,,,,,,,53,,,,,,,,,,,,,,284.12600005483546,,response,,,,99,,,,,,,Space,keypress(Space),,,,,,,,---- -- ----- -- ------ - ------- --- ----------<br>------------- ------ ------ ---- ---- ------- ----- -- ----<br>-------- ------- -- ---------- --- - --- ----- ----- ----<br>---- --- --- ----- --- ---- ---- ------- ----- ---- -------<br>you --- -- ----- -- --- ---- -- --- ---- -- ------ ------<br>--- ----- -- ----,119290.71500012651,119289.88000005484,118989.198,119002.594999969,119005.754,119306.083,,39,you
screen,html.Screen,1_1_0_1_40,2021-04-08T15:19:22.767Z,,,,,,,,,,,,,,,,53,,,,,,,,,,,,,,303.6420001039369,,response,,,,99,,,,,,,Space,keypress(Space),,,,,,,,---- -- ----- -- ------ - ------- --- ----------<br>------------- ------ ------ ---- ---- ------- ----- -- ----<br>-------- ------- -- ---------- --- - --- ----- ----- ----<br>---- --- --- ----- --- ---- ---- ------- ----- ---- -------<br>--- are -- ----- -- --- ---- -- --- ---- -- ------ ------<br>--- ----- -- ----,119613.00999997184,119609.72500010394,119289.403,119290.93999997713,119306.083,119622.821,,40,are
screen,html.Screen,1_1_0_1_41,2021-04-08T15:19:23.053Z,,,,,,,,,,,,,,,,53,,,,,,,,,,,,,,275.1689999685623,,response,,,,99,,,,,,,Space,keypress(Space),,,,,,,,---- -- ----- -- ------ - ------- --- ----------<br>------------- ------ ------ ---- ---- ------- ----- -- ----<br>-------- ------- -- ---------- --- - --- ----- ----- ----<br>---- --- --- ----- --- ---- ---- ------- ----- ---- -------<br>--- --- as ----- -- --- ---- -- --- ---- -- ------ ------<br>--- ----- -- ----,119898.89500010759,119897.98999996856,119606.286,119613.24000009336,119622.821,119906.342,,41,as
screen,html.Screen,1_1_0_1_42,2021-04-08T15:19:23.340Z,,,,,,,,,,,,,,,,53,,,,,,,,,,,,,,279.1880001334357,,response,,,,99,,,,,,,Space,keypress(Space),,,,,,,,---- -- ----- -- ------ - ------- --- ----------<br>------------- ------ ------ ---- ---- ------- ----- -- ----<br>-------- ------- -- ---------- --- - --- ----- ----- ----<br>---- --- --- ----- --- ---- ---- ------- ----- ---- -------<br>--- --- -- close -- --- ---- -- --- ---- -- ------ ------<br>--- ----- -- ----,120185.96000014804,120185.53000013344,119889.772,119899.09500000067,119906.342,120189.813,,42,close
screen,html.Screen,1_1_0_1_43,2021-04-08T15:19:23.668Z,,,,,,,,,,,,,,,,53,,,,,,,,,,,,,,323.72699995627045,,response,,,,99,,,,,,,Space,keypress(Space),,,,,,,,---- -- ----- -- ------ - ------- --- ----------<br>------------- ------ ------ ---- ---- ------- ----- -- ----<br>-------- ------- -- ---------- --- - --- ----- ----- ----<br>---- --- --- ----- --- ---- ---- ------- ----- ---- -------<br>--- --- -- ----- as --- ---- -- --- ---- -- ------ ------<br>--- ----- -- ----,120514.2399999313,120513.53999995627,120173.312,120186.0549999401,120189.813,120523.429,,43,as
screen,html.Screen,1_1_0_1_44,2021-04-08T15:19:23.948Z,,,,,,,,,,,,,,,,53,,,,,,,,,,,,,,269.8659999812953,,response,,,,99,,,,,,,Space,keypress(Space),,,,,,,,---- -- ----- -- ------ - ------- --- ----------<br>------------- ------ ------ ---- ---- ------- ----- -- ----<br>-------- ------- -- ---------- --- - --- ----- ----- ----<br>---- --- --- ----- --- ---- ---- ------- ----- ---- -------<br>--- --- -- ----- -- you ---- -- --- ---- -- ------ ------<br>--- ----- -- ----,120793.82500005886,120793.2949999813,120506.859,120514.4450000953,120523.429,120807.056,,44,you
screen,html.Screen,1_1_0_1_45,2021-04-08T15:19:24.309Z,,,,,,,,,,,,,,,,53,,,,,,,,,,,,,,346.5040000061126,,response,,,,99,,,,,,,Space,keypress(Space),,,,,,,,---- -- ----- -- ------ - ------- --- ----------<br>------------- ------ ------ ---- ---- ------- ----- -- ----<br>-------- ------- -- ---------- --- - --- ----- ----- ----<br>---- --- --- ----- --- ---- ---- ------- ----- ---- -------<br>--- --- -- ----- -- --- want -- --- ---- -- ------ ------<br>--- ----- -- ----,121154.40999995917,121153.56000000611,120790.369,120793.93499996513,120807.056,121157.272,,45,want
screen,html.Screen,1_1_0_1_46,2021-04-08T15:19:24.621Z,,,,,,,,,,,,,,,,53,,,,,,,,,,,,,,308.2730000427691,,response,,,,99,,,,,,,Space,keypress(Space),,,,,,,,---- -- ----- -- ------ - ------- --- ----------<br>------------- ------ ------ ---- ---- ------- ----- -- ----<br>-------- ------- -- ---------- --- - --- ----- ----- ----<br>---- --- --- ----- --- ---- ---- ------- ----- ---- -------<br>--- --- -- ----- -- --- ---- to --- ---- -- ------ ------<br>--- ----- -- ----,121466.35000011884,121465.54500004277,121140.603,121154.62000016123,121157.272,121474.08,,46,to
screen,html.Screen,1_1_0_1_47,2021-04-08T15:19:24.964Z,,,,,,,,,,,,,,,,53,,,,,,,,,,,,,,335.3400000632537,,response,,,,99,,,,,,,Space,keypress(Space),,,,,,,,"---- -- ----- -- ------ - ------- --- ----------<br>------------- ------ ------ ---- ---- ------- ----- -- ----<br>-------- ------- -- ---------- --- - --- ----- ----- ----<br>---- --- --- ----- --- ---- ---- ------- ----- ---- -------<br>--- --- -- ----- -- --- ---- -- be, ---- -- ------ ------<br>--- ----- -- ----",121810.25500013493,121809.42000006326,121457.484,121466.56999993138,121474.08,121824.398,,47,"be,"
screen,html.Screen,1_1_0_1_48,2021-04-08T15:19:25.300Z,,,,,,,,,,,,,,,,53,,,,,,,,,,,,,,320.88200005520775,,response,,,,99,,,,,,,Space,keypress(Space),,,,,,,,---- -- ----- -- ------ - ------- --- ----------<br>------------- ------ ------ ---- ---- ------- ----- -- ----<br>-------- ------- -- ---------- --- - --- ----- ----- ----<br>---- --- --- ----- --- ---- ---- ------- ----- ---- -------<br>--- --- -- ----- -- --- ---- -- --- even -- ------ ------<br>--- ----- -- ----,122146.14000008442,122145.28000005521,121807.716,121810.46500010416,121824.398,122157.876,,48,even
screen,html.Screen,1_1_0_1_49,2021-04-08T15:19:25.684Z,,,,,,,,,,,,,,,,53,,,,,,,,,,,,,,371.35399998554203,,response,,,,99,,,,,,,Space,keypress(Space),,,,,,,,---- -- ----- -- ------ - ------- --- ----------<br>------------- ------ ------ ---- ---- ------- ----- -- ----<br>-------- ------- -- ---------- --- - --- ----- ----- ----<br>---- --- --- ----- --- ---- ---- ------- ----- ---- -------<br>--- --- -- ----- -- --- ---- -- --- ---- if ------ ------<br>--- ----- -- ----,122529.92500015534,122529.22999998555,122141.266,122146.36499993503,122157.876,122541.418,,49,if
screen,html.Screen,1_1_0_1_50,2021-04-08T15:19:25.981Z,,,,,,,,,,,,,,,,53,,,,,,,,,,,,,,284.37699995335424,,response,,,,99,,,,,,,Space,keypress(Space),,,,,,,,---- -- ----- -- ------ - ------- --- ----------<br>------------- ------ ------ ---- ---- ------- ----- -- ----<br>-------- ------- -- ---------- --- - --- ----- ----- ----<br>---- --- --- ----- --- ---- ---- ------- ----- ---- -------<br>--- --- -- ----- -- --- ---- -- --- ---- -- that's ------<br>--- ----- -- ----,122826.43000013195,122825.79499995336,122524.858,122530.12000001036,122541.418,122841.735,,50,that's
screen,html.Screen,1_1_0_1_51,2021-04-08T15:19:26.316Z,,,,,,,,,,,,,,,,53,,,,,,,,,,,,,,319.35500006690563,,response,,,,99,,,,,,,Space,keypress(Space),,,,,,,,---- -- ----- -- ------ - ------- --- ----------<br>------------- ------ ------ ---- ---- ------- ----- -- ----<br>-------- ------- -- ---------- --- - --- ----- ----- ----<br>---- --- --- ----- --- ---- ---- ------- ----- ---- -------<br>--- --- -- ----- -- --- ---- -- --- ---- -- ------ really<br>--- ----- -- ----,123161.8600001093,123161.0900000669,122825.064,122826.6350000631,122841.735,123175.27,,51,really
screen,html.Screen,1_1_0_1_52,2021-04-08T15:19:26.612Z,,,,,,,,,,,,,,,,53,,,,,,,,,,,,,,281.7700000084151,,response,,,,99,,,,,,,Space,keypress(Space),,,,,,,,---- -- ----- -- ------ - ------- --- ----------<br>------------- ------ ------ ---- ---- ------- ----- -- ----<br>-------- ------- -- ---------- --- - --- ----- ----- ----<br>---- --- --- ----- --- ---- ---- ------- ----- ---- -------<br>--- --- -- ----- -- --- ---- -- --- ---- -- ------ ------<br>not ----- -- ----,123457.73499994539,123457.04000000842,123158.615,123162.05499996431,123175.27,123475.407,,52,not
screen,html.Screen,1_1_0_1_53,2021-04-08T15:19:26.924Z,,,,,,,,,,,,,,,,53,,,,,,,,,,,,,,293.59800012561027,,response,,,,99,,,,,,,Space,keypress(Space),,,,,,,,---- -- ----- -- ------ - ------- --- ----------<br>------------- ------ ------ ---- ---- ------- ----- -- ----<br>-------- ------- -- ---------- --- - --- ----- ----- ----<br>---- --- --- ----- --- ---- ---- ------- ----- ---- -------<br>--- --- -- ----- -- --- ---- -- --- ---- -- ------ ------<br>--- close -- ----,123769.70000006258,123769.00500012562,123442.108,123457.94500014745,123475.407,123775.551,,53,close
screen,html.Screen,1_1_0_1_54,2021-04-08T15:19:27.252Z,,,,,,,,,,,,,,,,53,,,,,,,,,,,,,,321.20400006414275,,response,,,,99,,,,,,,Space,keypress(Space),,,,,,,,---- -- ----- -- ------ - ------- --- ----------<br>------------- ------ ------ ---- ---- ------- ----- -- ----<br>-------- ------- -- ---------- --- - --- ----- ----- ----<br>---- --- --- ----- --- ---- ---- ------- ----- ---- -------<br>--- --- -- ----- -- --- ---- -- --- ---- -- ------ ------<br>--- ----- at ----,124097.4100001622,124096.75500006415,123758.992,123769.89500015043,123775.551,124109.028,,54,at
screen,html.Screen,1_1_0_1_55,2021-04-08T15:19:27.588Z,,,,,,,,,,,,,,,,53,,,,,,,,,,,,,,323.90200012635614,,response,,,,99,,,,,,,Space,keypress(Space),,,,,,,,---- -- ----- -- ------ - ------- --- ----------<br>------------- ------ ------ ---- ---- ------- ----- -- ----<br>-------- ------- -- ---------- --- - --- ----- ----- ----<br>---- --- --- ----- --- ---- ---- ------- ----- ---- -------<br>--- --- -- ----- -- --- ---- -- --- ---- -- ------ ------<br>--- ----- -- all.,124433.60500014387,124432.93000012636,124092.507,124097.61000005528,124109.028,124442.743,,55,all.
Item 99,flow.Loop,1_1_0_1,2021-04-08T15:19:27.588Z,,,,,,,,,,,,,,,,,,,,,,,,,,,,,,20637.08700012637,,completion,,,,,B,,,,,,,,,,,silence,,,,,124434.00999996811,124432.93000012636,103762.346,103764.85000015236,103795.843,124442.743,,,
Question 1,html.Screen,1_1_0_2,2021-04-08T15:19:30.629Z,,,,,,,,,,,,,,,,,,,,,,,,,,,true,FALSE,,3030.582000144539,,response,,,,99,B,,,,,,FALSE,click #choice-2,,,,silence,,,,,127474.56000000238,127473.32500014454,124425.955,124434.20000001788,124442.743,127494.727,,,
Question 2,html.Screen,1_1_0_3,2021-04-08T15:19:32.236Z,,,,,,,,,,,,,,,,,,,,,,,,,,,true,TRUE,,1586.283000081734,,response,,,,99,B,,,,,,TRUE,click #choice-1,,,,silence,,,,,129081.97499997914,129081.01000008173,127478.076,127474.7900001239,127494.727,129095.76,,,
Item 99,flow.Sequence,1_1_0,2021-04-08T15:19:32.236Z,,,,,,,,,,,,,,,,,,,,,,,,,,,,,,35308.43800008173,,completion,,,,,,,,,,,,,,,,,,,,,129082.27999997325,129081.01000008173,93739.242,93757.78500013985,93772.572,129095.76,,,
Holding screen,html.Screen,1_1_1_0,2021-04-08T15:19:42.244Z,,,,,,,,,,,,,,,,,,,,,,,,,,,,,,10006.574000000008,,timeout,,,,,,,,,,,,,,,,,,,,,139090.10499995202,139085.539,129079.123,129082.49499998055,129095.76,139102.334,,,
screen,html.Screen,1_1_1_1_0,2021-04-08T15:19:42.874Z,,,,,,,,,,,,,,,,54,,,,,,,,,,,,,,616.9510001156304,,response,,,,100,,,,,,,Space,keypress(Space),,,,,,,,At --- ---- --- ------ ----- ------- ---- -- --- ------- --<br>------- ---------- ------ -- ----- -- ----- -- ---- ------<br>--- ----- --- --- ------ -------- ----- --- ------ ----- --<br>----- ----- ---------- --- --- ------ ------ ---- -- ------<br>------- --- ------ ----- --- ---- ------- -- ---- --- --<br>------- ------,139720.08500015363,139719.28500011563,139085.539,139090.4350001365,139102.334,139736.155,,0,At
screen,html.Screen,1_1_1_1_1,2021-04-08T15:19:43.265Z,,,,,,,,,,,,,,,,54,,,,,,,,,,,,,,374.3100001507264,,response,,,,100,,,,,,,Space,keypress(Space),,,,,,,,-- the ---- --- ------ ----- ------- ---- -- --- ------- --<br>------- ---------- ------ -- ----- -- ----- -- ---- ------<br>--- ----- --- --- ------ -------- ----- --- ------ ----- --<br>----- ----- ---------- --- --- ------ ------ ---- -- ------<br>------- --- ------ ----- --- ---- ------- -- ---- --- --<br>------- ------,140111.01000010967,140110.46500015073,139719.52,139720.31500004232,139736.155,140119.678,,1,the
screen,html.Screen,1_1_1_1_2,2021-04-08T15:19:43.906Z,,,,,,,,,,,,,,,,54,,,,,,,,,,,,,,631.2720000160043,,response,,,,100,,,,,,,Space,keypress(Space),,,,,,,,-- --- time --- ------ ----- ------- ---- -- --- ------- --<br>------- ---------- ------ -- ----- -- ----- -- ---- ------<br>--- ----- --- --- ------ -------- ----- --- ------ ----- --<br>----- ----- ---------- --- --- ------ ------ ---- -- ------<br>------- --- ------ ----- --- ---- ------- -- ---- --- --<br>------- ------,140751.71500002034,140750.95000001602,140103.067,140111.1399999354,140119.678,140780.413,,2,time
screen,html.Screen,1_1_1_1_3,2021-04-08T15:19:44.297Z,,,,,,,,,,,,,,,,54,,,,,,,,,,,,,,361.942000134557,,response,,,,100,,,,,,,Space,keypress(Space),,,,,,,,-- --- ---- the ------ ----- ------- ---- -- --- ------- --<br>------- ---------- ------ -- ----- -- ----- -- ---- ------<br>--- ----- --- --- ------ -------- ----- --- ------ ----- --<br>----- ----- ---------- --- --- ------ ------ ---- -- ------<br>------- --- ------ ----- --- ---- ------- -- ---- --- --<br>------- ------,141142.9449999705,141142.35500013456,140736.851,140751.92499998957,140780.413,141153.706,,3,the
screen,html.Screen,1_1_1_1_4,2021-04-08T15:19:44.913Z,,,,,,,,,,,,,,,,54,,,,,,,,,,,,,,604.5189999977592,,response,,,,100,,,,,,,Space,keypress(Space),,,,,,,,-- --- ---- --- French ----- ------- ---- -- --- ------- --<br>------- ---------- ------ -- ----- -- ----- -- ---- ------<br>--- ----- --- --- ------ -------- ----- --- ------ ----- --<br>----- ----- ---------- --- --- ------ ------ ---- -- ------<br>------- --- ------ ----- --- ---- ------- -- ---- --- --<br>------- ------,141758.8800000958,141758.22499999776,141137.081,141143.06000014767,141153.706,141770.716,,4,French
screen,html.Screen,1_1_1_1_5,2021-04-08T15:19:45.337Z,,,,,,,,,,,,,,,,54,,,,,,,,,,,,,,411.5640000663989,,response,,,,100,,,,,,,Space,keypress(Space),,,,,,,,-- --- ---- --- ------ crown ------- ---- -- --- ------- --<br>------- ---------- ------ -- ----- -- ----- -- ---- ------<br>--- ----- --- --- ------ -------- ----- --- ------ ----- --<br>----- ----- ---------- --- --- ------ ------ ---- -- ------<br>------- --- ------ ----- --- ---- ------- -- ---- --- --<br>------- ------,142183.06499999017,142182.28000006638,141754.187,141759.00000007823,141770.716,142187.75,,5,crown
screen,html.Screen,1_1_1_1_6,2021-04-08T15:19:45.673Z,,,,,,,,,,,,,,,,54,,,,,,,,,,,,,,330.4600001256913,,response,,,,100,,,,,,,Space,keypress(Space),,,,,,,,-- --- ---- --- ------ ----- secured ---- -- --- ------- --<br>------- ---------- ------ -- ----- -- ----- -- ---- ------<br>--- ----- --- --- ------ -------- ----- --- ------ ----- --<br>----- ----- ---------- --- --- ------ ------ ---- -- ------<br>------- --- ------ ----- --- ---- ------- -- ---- --- --<br>------- ------,142518.9900000114,142518.2100001257,142171.099,142183.26500011608,142187.75,142521.288,,6,secured
screen,html.Screen,1_1_1_1_7,2021-04-08T15:19:46.305Z,,,,,,,,,,,,,,,,54,,,,,,,,,,,,,,628.8769999991055,,response,,,,100,,,,,,,Space,keypress(Space),,,,,,,,-- --- ---- --- ------ ----- ------- much -- --- ------- --<br>------- ---------- ------ -- ----- -- ----- -- ---- ------<br>--- ----- --- --- ------ -------- ----- --- ------ ----- --<br>----- ----- ---------- --- --- ------ ------ ---- -- ------<br>------- --- ------ ----- --- ---- ------- -- ---- --- --<br>------- ------,143150.98000015132,143150.1649999991,142504.646,142519.22000013292,142521.288,143155.042,,7,much
screen,html.Screen,1_1_1_1_8,2021-04-08T15:19:46.657Z,,,,,,,,,,,,,,,,54,,,,,,,,,,,,,,347.1130001111014,,response,,,,100,,,,,,,Space,keypress(Space),,,,,,,,-- --- ---- --- ------ ----- ------- ---- of --- ------- --<br>------- ---------- ------ -- ----- -- ----- -- ---- ------<br>--- ----- --- --- ------ -------- ----- --- ------ ----- --<br>----- ----- ---------- --- --- ------ ------ ---- -- ------<br>------- --- ------ ----- --- ---- ------- -- ---- --- --<br>------- ------,143502.994999988,143502.1550001111,143138.428,143151.19999996386,143155.042,143505.272,,8,of
screen,html.Screen,1_1_1_1_9,2021-04-08T15:19:47.089Z,,,,,,,,,,,,,,,,54,,,,,,,,,,,,,,428.8780001028208,,response,,,,100,,,,,,,Space,keypress(Space),,,,,,,,-- --- ---- --- ------ ----- ------- ---- -- its ------- --<br>------- ---------- ------ -- ----- -- ----- -- ---- ------<br>--- ----- --- --- ------ -------- ----- --- ------ ----- --<br>----- ----- ---------- --- --- ------ ------ ---- -- ------<br>------- --- ------ ----- --- ---- ------- -- ---- --- --<br>------- ------,143934.9350000266,143934.15000010282,143488.625,143503.21500003338,143505.272,143955.59,,9,its
screen,html.Screen,1_1_1_1_10,2021-04-08T15:19:47.569Z,,,,,,,,,,,,,,,,54,,,,,,,,,,,,,,458.340000038821,,response,,,,100,,,,,,,Space,keypress(Space),,,,,,,,-- --- ---- --- ------ ----- ------- ---- -- --- revenue --<br>------- ---------- ------ -- ----- -- ----- -- ---- ------<br>--- ----- --- --- ------ -------- ----- --- ------ ----- --<br>----- ----- ---------- --- --- ------ ------ ---- -- ------<br>------- --- ------ ----- --- ---- ------- -- ---- --- --<br>------- ------,144414.72000000067,144413.93000003882,143922.251,143935.14499999583,143955.59,144422.52,,10,revenue
screen,html.Screen,1_1_1_1_11,2021-04-08T15:19:48.033Z,,,,,,,,,,,,,,,,54,,,,,,,,,,,,,,455.30000005246256,,response,,,,100,,,,,,,Space,keypress(Space),,,,,,,,-- --- ---- --- ------ ----- ------- ---- -- --- ------- by<br>------- ---------- ------ -- ----- -- ----- -- ---- ------<br>--- ----- --- --- ------ -------- ----- --- ------ ----- --<br>----- ----- ---------- --- --- ------ ------ ---- -- ------<br>------- --- ------ ----- --- ---- ------- -- ---- --- --<br>------- ------,144878.43000004068,144877.82000005245,144405.92,144414.92000012659,144422.52,144889.472,,11,by
screen,html.Screen,1_1_1_1_12,2021-04-08T15:19:48.465Z,,,,,,,,,,,,,,,,54,,,,,,,,,,,,,,420.26300013350556,,response,,,,100,,,,,,,Space,keypress(Space),,,,,,,,-- --- ---- --- ------ ----- ------- ---- -- --- ------- --<br>issuing ---------- ------ -- ----- -- ----- -- ---- ------<br>--- ----- --- --- ------ -------- ----- --- ------ ----- --<br>----- ----- ---------- --- --- ------ ------ ---- -- ------<br>------- --- ------ ----- --- ---- ------- -- ---- --- --<br>------- ------,145310.55500009097,145309.7350001335,144872.82,144878.54499998502,144889.472,145323.066,,12,issuing
screen,html.Screen,1_1_1_1_13,2021-04-08T15:19:49.000Z,,,,,,,,,,,,,,,,54,,,,,,,,,,,,,,522.624000103795,,response,,,,100,,,,,,,Space,keypress(Space),,,,,,,,-- --- ---- --- ------ ----- ------- ---- -- --- ------- --<br>------- government ------ -- ----- -- ----- -- ---- ------<br>--- ----- --- --- ------ -------- ----- --- ------ ----- --<br>----- ----- ---------- --- --- ------ ------ ---- -- ------<br>------- --- ------ ----- --- ---- ------- -- ---- --- --<br>------- ------,145846.29500005394,145845.6900001038,145306.492,145310.7799999416,145323.066,145856.774,,13,government
screen,html.Screen,1_1_1_1_14,2021-04-08T15:19:49.448Z,,,,,,,,,,,,,,,,54,,,,,,,,,,,,,,436.70599999299156,,response,,,,100,,,,,,,Space,keypress(Space),,,,,,,,-- --- ---- --- ------ ----- ------- ---- -- --- ------- --<br>------- ---------- bonds. -- ----- -- ----- -- ---- ------<br>--- ----- --- --- ------ -------- ----- --- ------ ----- --<br>----- ----- ---------- --- --- ------ ------ ---- -- ------<br>------- --- ------ ----- --- ---- ------- -- ---- --- --<br>------- ------,146294.04000006616,146293.479999993,145840.191,145846.4250001125,145856.774,146307.063,,14,bonds.
screen,html.Screen,1_1_1_1_15,2021-04-08T15:19:49.872Z,,,,,,,,,,,,,,,,54,,,,,,,,,,,,,,410.3820000748092,,response,,,,100,,,,,,,Space,keypress(Space),,,,,,,,-- --- ---- --- ------ ----- ------- ---- -- --- ------- --<br>------- ---------- ------ In ----- -- ----- -- ---- ------<br>--- ----- --- --- ------ -------- ----- --- ------ ----- --<br>----- ----- ---------- --- --- ------ ------ ---- -- ------<br>------- --- ------ ----- --- ---- ------- -- ---- --- --<br>------- ------,146718.24000007473,146717.4450000748,146290.477,146294.19000004418,146307.063,146724.054,,15,In
screen,html.Screen,1_1_1_1_16,2021-04-08T15:19:50.360Z,,,,,,,,,,,,,,,,54,,,,,,,,,,,,,,481.2659999500029,,response,,,,100,,,,,,,Space,keypress(Space),,,,,,,,"-- --- ---- --- ------ ----- ------- ---- -- --- ------- --<br>------- ---------- ------ -- 1727, -- ----- -- ---- ------<br>--- ----- --- --- ------ -------- ----- --- ------ ----- --<br>----- ----- ---------- --- --- ------ ------ ---- -- ------<br>------- --- ------ ----- --- ---- ------- -- ---- --- --<br>------- ------",147205.85000002757,147205.31999995,146707.358,146718.45000004396,146724.054,147207.659,,16,"1727,"
screen,html.Screen,1_1_1_1_17,2021-04-08T15:19:50.792Z,,,,,,,,,,,,,,,,54,,,,,,,,,,,,,,429.6060000266589,,response,,,,100,,,,,,,Space,keypress(Space),,,,,,,,-- --- ---- --- ------ ----- ------- ---- -- --- ------- --<br>------- ---------- ------ -- ----- in ----- -- ---- ------<br>--- ----- --- --- ------ -------- ----- --- ------ ----- --<br>----- ----- ---------- --- --- ------ ------ ---- -- ------<br>------- --- ------ ----- --- ---- ------- -- ---- --- --<br>------- ------,147637.85000005737,147637.26500002667,147191.08,147205.99000016227,147207.659,147641.274,,17,in
screen,html.Screen,1_1_1_1_18,2021-04-08T15:19:51.232Z,,,,,,,,,,,,,,,,54,,,,,,,,,,,,,,436.11599999127793,,response,,,,100,,,,,,,Space,keypress(Space),,,,,,,,-- --- ---- --- ------ ----- ------- ---- -- --- ------- --<br>------- ---------- ------ -- ----- -- order -- ---- ------<br>--- ----- --- --- ------ -------- ----- --- ------ ----- --<br>----- ----- ---------- --- --- ------ ------ ---- -- ------<br>------- --- ------ ----- --- ---- ------- -- ---- --- --<br>------- ------,148078.23000010103,148077.38999999128,147624.69,147638.02499999292,147641.274,148091.583,,18,order
screen,html.Screen,1_1_1_1_19,2021-04-08T15:19:51.624Z,,,,,,,,,,,,,,,,54,,,,,,,,,,,,,,377.7769999882148,,response,,,,100,,,,,,,Space,keypress(Space),,,,,,,,-- --- ---- --- ------ ----- ------- ---- -- --- ------- --<br>------- ---------- ------ -- ----- -- ----- to ---- ------<br>--- ----- --- --- ------ -------- ----- --- ------ ----- --<br>----- ----- ---------- --- --- ------ ------ ---- -- ------<br>------- --- ------ ----- --- ---- ------- -- ---- --- --<br>------- ------,148470.19000002183,148469.35999998823,148074.985,148078.44500010833,148091.583,148475.209,,19,to
screen,html.Screen,1_1_1_1_20,2021-04-08T15:19:52.064Z,,,,,,,,,,,,,,,,54,,,,,,,,,,,,,,434.10600005535525,,response,,,,100,,,,,,,Space,keypress(Space),,,,,,,,-- --- ---- --- ------ ----- ------- ---- -- --- ------- --<br>------- ---------- ------ -- ----- -- ----- -- save ------<br>--- ----- --- --- ------ -------- ----- --- ------ ----- --<br>----- ----- ---------- --- --- ------ ------ ---- -- ------<br>------- --- ------ ----- --- ---- ------- -- ---- --- --<br>------- ------,148910.15000012703,148909.31500005536,148458.532,148470.40500002913,148475.209,148925.542,,20,save
screen,html.Screen,1_1_1_1_21,2021-04-08T15:19:52.624Z,,,,,,,,,,,,,,,,54,,,,,,,,,,,,,,543.3529999399616,,response,,,,100,,,,,,,Space,keypress(Space),,,,,,,,"-- --- ---- --- ------ ----- ------- ---- -- --- ------- --<br>------- ---------- ------ -- ----- -- ----- -- ---- money,<br>--- ----- --- --- ------ -------- ----- --- ------ ----- --<br>----- ----- ---------- --- --- ------ ------ ---- -- ------<br>------- --- ------ ----- --- ---- ------- -- ---- --- --<br>------- ------",149469.76000000723,149468.89499993995,148908.851,148910.36500013433,148925.542,149475.755,,21,"money,"
screen,html.Screen,1_1_1_1_22,2021-04-08T15:19:53.049Z,,,,,,,,,,,,,,,,54,,,,,,,,,,,,,,418.5400000055088,,response,,,,100,,,,,,,Space,keypress(Space),,,,,,,,-- --- ---- --- ------ ----- ------- ---- -- --- ------- --<br>------- ---------- ------ -- ----- -- ----- -- ---- ------<br>the ----- --- --- ------ -------- ----- --- ------ ----- --<br>----- ----- ---------- --- --- ------ ------ ---- -- ------<br>------- --- ------ ----- --- ---- ------- -- ---- --- --<br>------- ------,149895.09000000544,149894.2950000055,149459.246,149470.0750000775,149475.755,149909.457,,22,the
screen,html.Screen,1_1_1_1_23,2021-04-08T15:19:53.480Z,,,,,,,,,,,,,,,,54,,,,,,,,,,,,,,415.7080000456772,,response,,,,100,,,,,,,Space,keypress(Space),,,,,,,,-- --- ---- --- ------ ----- ------- ---- -- --- ------- --<br>------- ---------- ------ -- ----- -- ----- -- ---- ------<br>--- state --- --- ------ -------- ----- --- ------ ----- --<br>----- ----- ---------- --- --- ------ ------ ---- -- ------<br>------- --- ------ ----- --- ---- ------- -- ---- --- --<br>------- ------,150325.97500015981,150325.16500004567,149892.816,149895.2949999366,149909.457,150343.121,,23,state
screen,html.Screen,1_1_1_1_24,2021-04-08T15:19:53.880Z,,,,,,,,,,,,,,,,54,,,,,,,,,,,,,,381.8240001399827,,response,,,,100,,,,,,,Space,keypress(Space),,,,,,,,-- --- ---- --- ------ ----- ------- ---- -- --- ------- --<br>------- ---------- ------ -- ----- -- ----- -- ---- ------<br>--- ----- cut --- ------ -------- ----- --- ------ ----- --<br>----- ----- ---------- --- --- ------ ------ ---- -- ------<br>------- --- ------ ----- --- ---- ------- -- ---- --- --<br>------- ------,150725.73500010185,150724.94500014,150326.471,150326.1899999343,150343.121,150743.356,,24,cut
screen,html.Screen,1_1_1_1_25,2021-04-08T15:19:54.528Z,,,,,,,,,,,,,,,,54,,,,,,,,,,,,,,629.4940001598152,,response,,,,100,,,,,,,Space,keypress(Space),,,,,,,,-- --- ---- --- ------ ----- ------- ---- -- --- ------- --<br>------- ---------- ------ -- ----- -- ----- -- ---- ------<br>--- ----- --- the ------ -------- ----- --- ------ ----- --<br>----- ----- ---------- --- --- ------ ------ ---- -- ------<br>------- --- ------ ----- --- ---- ------- -- ---- --- --<br>------- ------,151373.71499999426,151372.85000015981,150710.006,150725.90499999933,150743.356,151377.11,,25,the
screen,html.Screen,1_1_1_1_26,2021-04-08T15:19:55.136Z,,,,,,,,,,,,,,,,54,,,,,,,,,,,,,,603.5949999945005,,response,,,,100,,,,,,,Space,keypress(Space),,,,,,,,-- --- ---- --- ------ ----- ------- ---- -- --- ------- --<br>------- ---------- ------ -- ----- -- ----- -- ---- ------<br>--- ----- --- --- bonds' -------- ----- --- ------ ----- --<br>----- ----- ---------- --- --- ------ ------ ---- -- ------<br>------- --- ------ ----- --- ---- ------- -- ---- --- --<br>------- ------,151981.42500012182,151980.7049999945,151360.514,151373.92000015825,151377.11,151994.251,,26,bonds'
screen,html.Screen,1_1_1_1_27,2021-04-08T15:19:55.496Z,,,,,,,,,,,,,,,,54,,,,,,,,,,,,,,346.33400011452613,,response,,,,100,,,,,,,Space,keypress(Space),,,,,,,,-- --- ---- --- ------ ----- ------- ---- -- --- ------- --<br>------- ---------- ------ -- ----- -- ----- -- ---- ------<br>--- ----- --- --- ------ interest ----- --- ------ ----- --<br>----- ----- ---------- --- --- ------ ------ ---- -- ------<br>------- --- ------ ----- --- ---- ------- -- ---- --- --<br>------- ------,152341.31500008516,152340.58500011452,151977.534,151981.63000005297,151994.251,152344.357,,27,interest
screen,html.Screen,1_1_1_1_28,2021-04-08T15:19:55.879Z,,,,,,,,,,,,,,,,54,,,,,,,,,,,,,,380.1679999687185,,response,,,,100,,,,,,,Space,keypress(Space),,,,,,,,-- --- ---- --- ------ ----- ------- ---- -- --- ------- --<br>------- ---------- ------ -- ----- -- ----- -- ---- ------<br>--- ----- --- --- ------ -------- rate. --- ------ ----- --<br>----- ----- ---------- --- --- ------ ------ ---- -- ------<br>------- --- ------ ----- --- ---- ------- -- ---- --- --<br>------- ------,152725.22999998182,152724.5249999687,152327.759,152341.51499997824,152344.357,152727.984,,28,rate.
screen,html.Screen,1_1_1_1_29,2021-04-08T15:19:56.335Z,,,,,,,,,,,,,,,,54,,,,,,,,,,,,,,452.5460000123712,,response,,,,100,,,,,,,Space,keypress(Space),,,,,,,,-- --- ---- --- ------ ----- ------- ---- -- --- ------- --<br>------- ---------- ------ -- ----- -- ----- -- ---- ------<br>--- ----- --- --- ------ -------- ----- The ------ ----- --<br>----- ----- ---------- --- --- ------ ------ ---- -- ------<br>------- --- ------ ----- --- ---- ------- -- ---- --- --<br>------- ------,153181.21500010602,153180.53000001237,152711.346,152725.43999995105,152727.984,153194.996,,29,The
screen,html.Screen,1_1_1_1_30,2021-04-08T15:19:56.711Z,,,,,,,,,,,,,,,,54,,,,,,,,,,,,,,361.3740001221013,,response,,,,100,,,,,,,Space,keypress(Space),,,,,,,,-- --- ---- --- ------ ----- ------- ---- -- --- ------- --<br>------- ---------- ------ -- ----- -- ----- -- ---- ------<br>--- ----- --- --- ------ -------- ----- --- market ----- --<br>----- ----- ---------- --- --- ------ ------ ---- -- ------<br>------- --- ------ ----- --- ---- ------- -- ---- --- --<br>------- ------,153557.06500005908,153556.37000012212,153178.34,153181.42500007525,153194.996,153561.846,,30,market
screen,html.Screen,1_1_1_1_31,2021-04-08T15:19:57.135Z,,,,,,,,,,,,,,,,54,,,,,,,,,,,,,,418.39399994621635,,response,,,,100,,,,,,,Space,keypress(Space),,,,,,,,-- --- ---- --- ------ ----- ------- ---- -- --- ------- --<br>------- ---------- ------ -- ----- -- ----- -- ---- ------<br>--- ----- --- --- ------ -------- ----- --- ------ value --<br>----- ----- ---------- --- --- ------ ------ ---- -- ------<br>------- --- ------ ----- --- ---- ------- -- ---- --- --<br>------- ------,153980.7200001087,153980.2399999462,153545.232,153557.26999999024,153561.846,153995.509,,31,value
screen,html.Screen,1_1_1_1_32,2021-04-08T15:19:57.591Z,,,,,,,,,,,,,,,,54,,,,,,,,,,,,,,440.7510001040937,,response,,,,100,,,,,,,Space,keypress(Space),,,,,,,,-- --- ---- --- ------ ----- ------- ---- -- --- ------- --<br>------- ---------- ------ -- ----- -- ----- -- ---- ------<br>--- ----- --- --- ------ -------- ----- --- ------ ----- of<br>----- ----- ---------- --- --- ------ ------ ---- -- ------<br>------- --- ------ ----- --- ---- ------- -- ---- --- --<br>------- ------,154436.97000015527,154436.26000010408,153978.849,153980.8150001336,153995.509,154445.658,,32,of
screen,html.Screen,1_1_1_1_33,2021-04-08T15:19:58.007Z,,,,,,,,,,,,,,,,54,,,,,,,,,,,,,,406.51700012368383,,response,,,,100,,,,,,,Space,keypress(Space),,,,,,,,-- --- ---- --- ------ ----- ------- ---- -- --- ------- --<br>------- ---------- ------ -- ----- -- ----- -- ---- ------<br>--- ----- --- --- ------ -------- ----- --- ------ ----- --<br>these ----- ---------- --- --- ------ ------ ---- -- ------<br>------- --- ------ ----- --- ---- ------- -- ---- --- --<br>------- ------,154852.86500002258,154852.17500012368,154429.156,154437.17500008643,154445.658,154862.679,,33,these
screen,html.Screen,1_1_1_1_34,2021-04-08T15:19:58.431Z,,,,,,,,,,,,,,,,54,,,,,,,,,,,,,,413.5809999550693,,response,,,,100,,,,,,,Space,keypress(Space),,,,,,,,-- --- ---- --- ------ ----- ------- ---- -- --- ------- --<br>------- ---------- ------ -- ----- -- ----- -- ---- ------<br>--- ----- --- --- ------ -------- ----- --- ------ ----- --<br>----- bonds ---------- --- --- ------ ------ ---- -- ------<br>------- --- ------ ----- --- ---- ------- -- ---- --- --<br>------- ------,155277.01500011608,155276.25999995507,154846.094,154853.06999995373,154862.679,155279.672,,34,bonds
screen,html.Screen,1_1_1_1_35,2021-04-08T15:19:58.831Z,,,,,,,,,,,,,,,,54,,,,,,,,,,,,,,396.537999946886,,response,,,,100,,,,,,,Space,keypress(Space),,,,,,,,"-- --- ---- --- ------ ----- ------- ---- -- --- ------- --<br>------- ---------- ------ -- ----- -- ----- -- ---- ------<br>--- ----- --- --- ------ -------- ----- --- ------ ----- --<br>----- ----- plummeted, --- --- ------ ------ ---- -- ------<br>------- --- ------ ----- --- ---- ------- -- ---- --- --<br>------- ------",155676.9749999512,155676.20999994688,155263.025,155277.2250000853,155279.672,155679.893,,35,"plummeted,"
screen,html.Screen,1_1_1_1_36,2021-04-08T15:19:59.279Z,,,,,,,,,,,,,,,,54,,,,,,,,,,,,,,444.1770001362602,,response,,,,100,,,,,,,Space,keypress(Space),,,,,,,,-- --- ---- --- ------ ----- ------- ---- -- --- ------- --<br>------- ---------- ------ -- ----- -- ----- -- ---- ------<br>--- ----- --- --- ------ -------- ----- --- ------ ----- --<br>----- ----- ---------- and --- ------ ------ ---- -- ------<br>------- --- ------ ----- --- ---- ------- -- ---- --- --<br>------- ------,156124.86000009812,156124.07000013627,155663.29,155677.19499999657,155679.893,156130.184,,36,and
screen,html.Screen,1_1_1_1_37,2021-04-08T15:19:59.711Z,,,,,,,,,,,,,,,,54,,,,,,,,,,,,,,425.8909999713069,,response,,,,100,,,,,,,Space,keypress(Space),,,,,,,,-- --- ---- --- ------ ----- ------- ---- -- --- ------- --<br>------- ---------- ------ -- ----- -- ----- -- ---- ------<br>--- ----- --- --- ------ -------- ----- --- ------ ----- --<br>----- ----- ---------- --- the ------ ------ ---- -- ------<br>------- --- ------ ----- --- ---- ------- -- ---- --- --<br>------- ------,156556.8800000474,156556.07499997132,156113.549,156125.07500010543,156130.184,156563.719,,37,the
screen,html.Screen,1_1_1_1_38,2021-04-08T15:20:00.095Z,,,,,,,,,,,,,,,,54,,,,,,,,,,,,,,376.2460001432628,,response,,,,100,,,,,,,Space,keypress(Space),,,,,,,,-- --- ---- --- ------ ----- ------- ---- -- --- ------- --<br>------- ---------- ------ -- ----- -- ----- -- ---- ------<br>--- ----- --- --- ------ -------- ----- --- ------ ----- --<br>----- ----- ---------- --- --- market ------ ---- -- ------<br>------- --- ------ ----- --- ---- ------- -- ---- --- --<br>------- ------,156940.75500010513,156939.96500014327,156547.197,156557.10500013083,156563.719,156947.33,,38,market
screen,html.Screen,1_1_1_1_39,2021-04-08T15:20:00.527Z,,,,,,,,,,,,,,,,54,,,,,,,,,,,,,,424.6150000207999,,response,,,,100,,,,,,,Space,keypress(Space),,,,,,,,-- --- ---- --- ------ ----- ------- ---- -- --- ------- --<br>------- ---------- ------ -- ----- -- ----- -- ---- ------<br>--- ----- --- --- ------ -------- ----- --- ------ ----- --<br>----- ----- ---------- --- --- ------ became ---- -- ------<br>------- --- ------ ----- --- ---- ------- -- ---- --- --<br>------- ------,157372.78500013053,157371.9450000208,156930.783,156940.9750001505,156947.33,157381.024,,39,became
screen,html.Screen,1_1_1_1_40,2021-04-08T15:20:01.031Z,,,,,,,,,,,,,,,,54,,,,,,,,,,,,,,494.8510001434188,,response,,,,100,,,,,,,Space,keypress(Space),,,,,,,,-- --- ---- --- ------ ----- ------- ---- -- --- ------- --<br>------- ---------- ------ -- ----- -- ----- -- ---- ------<br>--- ----- --- --- ------ -------- ----- --- ------ ----- --<br>----- ----- ---------- --- --- ------ ------ wary -- ------<br>------- --- ------ ----- --- ---- ------- -- ---- --- --<br>------- ------,157876.70000013895,157875.87500014342,157364.415,157373.00000013784,157381.024,157881.387,,40,wary
screen,html.Screen,1_1_1_1_41,2021-04-08T15:20:01.487Z,,,,,,,,,,,,,,,,54,,,,,,,,,,,,,,450.3729999718489,,response,,,,100,,,,,,,Space,keypress(Space),,,,,,,,-- --- ---- --- ------ ----- ------- ---- -- --- ------- --<br>------- ---------- ------ -- ----- -- ----- -- ---- ------<br>--- ----- --- --- ------ -------- ----- --- ------ ----- --<br>----- ----- ---------- --- --- ------ ------ ---- of ------<br>------- --- ------ ----- --- ---- ------- -- ---- --- --<br>------- ------,158332.60500011966,158331.75999997184,157864.711,157876.92499998957,157881.387,158348.396,,41,of
screen,html.Screen,1_1_1_1_42,2021-04-08T15:20:01.895Z,,,,,,,,,,,,,,,,54,,,,,,,,,,,,,,391.34900014445884,,response,,,,100,,,,,,,Space,keypress(Space),,,,,,,,-- --- ---- --- ------ ----- ------- ---- -- --- ------- --<br>------- ---------- ------ -- ----- -- ----- -- ---- ------<br>--- ----- --- --- ------ -------- ----- --- ------ ----- --<br>----- ----- ---------- --- --- ------ ------ ---- -- French<br>------- --- ------ ----- --- ---- ------- -- ---- --- --<br>------- ------,158740.58500002138,158739.74500014447,158331.729,158332.8249999322,158348.396,158748.586,,42,French
screen,html.Screen,1_1_1_1_43,2021-04-08T15:20:02.415Z,,,,,,,,,,,,,,,,54,,,,,,,,,,,,,,511.0790000195848,,response,,,,100,,,,,,,Space,keypress(Space),,,,,,,,-- --- ---- --- ------ ----- ------- ---- -- --- ------- --<br>------- ---------- ------ -- ----- -- ----- -- ---- ------<br>--- ----- --- --- ------ -------- ----- --- ------ ----- --<br>----- ----- ---------- --- --- ------ ------ ---- -- ------<br>credit. --- ------ ----- --- ---- ------- -- ---- --- --<br>------- ------,159260.50000009127,159259.6650000196,158731.991,158740.80000002868,158748.586,159265.622,,43,credit.
screen,html.Screen,1_1_1_1_44,2021-04-08T15:20:02.871Z,,,,,,,,,,,,,,,,54,,,,,,,,,,,,,,449.9630001145124,,response,,,,100,,,,,,,Space,keypress(Space),,,,,,,,-- --- ---- --- ------ ----- ------- ---- -- --- ------- --<br>------- ---------- ------ -- ----- -- ----- -- ---- ------<br>--- ----- --- --- ------ -------- ----- --- ------ ----- --<br>----- ----- ---------- --- --- ------ ------ ---- -- ------<br>------- The ------ ----- --- ---- ------- -- ---- --- --<br>------- ------,159716.3850001525,159715.58500011452,159248.999,159260.7249999419,159265.622,159732.567,,44,The
screen,html.Screen,1_1_1_1_45,2021-04-08T15:20:03.271Z,,,,,,,,,,,,,,,,54,,,,,,,,,,,,,,383.64300012381864,,response,,,,100,,,,,,,Space,keypress(Space),,,,,,,,-- --- ---- --- ------ ----- ------- ---- -- --- ------- --<br>------- ---------- ------ -- ----- -- ----- -- ---- ------<br>--- ----- --- --- ------ -------- ----- --- ------ ----- --<br>----- ----- ---------- --- --- ------ ------ ---- -- ------<br>------- --- French ----- --- ---- ------- -- ---- --- --<br>------- ------,160117.04499996267,160116.21000012383,159715.918,159716.59500012174,159732.567,160132.887,,45,French
screen,html.Screen,1_1_1_1_46,2021-04-08T15:20:03.751Z,,,,,,,,,,,,,,,,54,,,,,,,,,,,,,,462.64800008770544,,response,,,,100,,,,,,,Space,keypress(Space),,,,,,,,-- --- ---- --- ------ ----- ------- ---- -- --- ------- --<br>------- ---------- ------ -- ----- -- ----- -- ---- ------<br>--- ----- --- --- ------ -------- ----- --- ------ ----- --<br>----- ----- ---------- --- --- ------ ------ ---- -- ------<br>------- --- ------ state --- ---- ------- -- ---- --- --<br>------- ------,160596.37000015937,160595.5350000877,160116.167,160117.2549999319,160132.887,160599.832,,46,state
screen,html.Screen,1_1_1_1_47,2021-04-08T15:20:04.199Z,,,,,,,,,,,,,,,,54,,,,,,,,,,,,,,443.61299995932495,,response,,,,100,,,,,,,Space,keypress(Space),,,,,,,,-- --- ---- --- ------ ----- ------- ---- -- --- ------- --<br>------- ---------- ------ -- ----- -- ----- -- ---- ------<br>--- ----- --- --- ------ -------- ----- --- ------ ----- --<br>----- ----- ---------- --- --- ------ ------ ---- -- ------<br>------- --- ------ ----- was ---- ------- -- ---- --- --<br>------- ------,161044.32000010274,161043.44499995932,160583.197,160596.5899999719,160599.832,161050.132,,47,was
screen,html.Screen,1_1_1_1_48,2021-04-08T15:20:04.614Z,,,,,,,,,,,,,,,,54,,,,,,,,,,,,,,409.16299994962174,,response,,,,100,,,,,,,Space,keypress(Space),,,,,,,,-- --- ---- --- ------ ----- ------- ---- -- --- ------- --<br>------- ---------- ------ -- ----- -- ----- -- ---- ------<br>--- ----- --- --- ------ -------- ----- --- ------ ----- --<br>----- ----- ---------- --- --- ------ ------ ---- -- ------<br>------- --- ------ ----- --- left ------- -- ---- --- --<br>------- ------,161460.07500006817,161459.29499994963,161033.458,161044.53500011005,161050.132,161466.919,,48,left
screen,html.Screen,1_1_1_1_49,2021-04-08T15:20:04.990Z,,,,,,,,,,,,,,,,54,,,,,,,,,,,,,,368.3660000374075,,response,,,,100,,,,,,,Space,keypress(Space),,,,,,,,-- --- ---- --- ------ ----- ------- ---- -- --- ------- --<br>------- ---------- ------ -- ----- -- ----- -- ---- ------<br>--- ----- --- --- ------ -------- ----- --- ------ ----- --<br>----- ----- ---------- --- --- ------ ------ ---- -- ------<br>------- --- ------ ----- --- ---- without -- ---- --- --<br>------- ------,161836.10499999486,161835.2850000374,161450.399,161460.29000007547,161466.919,161850.689,,49,without
screen,html.Screen,1_1_1_1_50,2021-04-08T15:20:05.406Z,,,,,,,,,,,,,,,,54,,,,,,,,,,,,,,400.35600004089065,,response,,,,100,,,,,,,Space,keypress(Space),,,,,,,,-- --- ---- --- ------ ----- ------- ---- -- --- ------- --<br>------- ---------- ------ -- ----- -- ----- -- ---- ------<br>--- ----- --- --- ------ -------- ----- --- ------ ----- --<br>----- ----- ---------- --- --- ------ ------ ---- -- ------<br>------- --- ------ ----- --- ---- ------- an ---- --- --<br>------- ------,162251.75000005402,162251.0450000409,161833.978,161836.32500004023,161850.689,162267.567,,50,an
screen,html.Screen,1_1_1_1_51,2021-04-08T15:20:05.830Z,,,,,,,,,,,,,,,,54,,,,,,,,,,,,,,407.2480000348587,,response,,,,100,,,,,,,Space,keypress(Space),,,,,,,,-- --- ---- --- ------ ----- ------- ---- -- --- ------- --<br>------- ---------- ------ -- ----- -- ----- -- ---- ------<br>--- ----- --- --- ------ -------- ----- --- ------ ----- --<br>----- ----- ---------- --- --- ------ ------ ---- -- ------<br>------- --- ------ ----- --- ---- ------- -- easy --- --<br>------- ------,162675.52500008605,162674.81500003487,162250.966,162251.9499999471,162267.567,162684.439,,51,easy
screen,html.Screen,1_1_1_1_52,2021-04-08T15:20:06.654Z,,,,,,,,,,,,,,,,54,,,,,,,,,,,,,,814.4410000864882,,response,,,,100,,,,,,,Space,keypress(Space),,,,,,,,-- --- ---- --- ------ ----- ------- ---- -- --- ------- --<br>------- ---------- ------ -- ----- -- ----- -- ---- ------<br>--- ----- --- --- ------ -------- ----- --- ------ ----- --<br>----- ----- ---------- --- --- ------ ------ ---- -- ------<br>------- --- ------ ----- --- ---- ------- -- ---- way --<br>------- ------,163499.59499994293,163498.8800000865,162667.856,162675.72499997914,162684.439,163501.688,,52,way
screen,html.Screen,1_1_1_1_53,2021-04-08T15:20:07.078Z,,,,,,,,,,,,,,,,54,,,,,,,,,,,,,,421.05700010535656,,response,,,,100,,,,,,,Space,keypress(Space),,,,,,,,-- --- ---- --- ------ ----- ------- ---- -- --- ------- --<br>------- ---------- ------ -- ----- -- ----- -- ---- ------<br>--- ----- --- --- ------ -------- ----- --- ------ ----- --<br>----- ----- ---------- --- --- ------ ------ ---- -- ------<br>------- --- ------ ----- --- ---- ------- -- ---- --- of<br>------- ------,163923.45000011846,163922.74500010535,163485.111,163499.80000010692,163501.688,163935.263,,53,of
screen,html.Screen,1_1_1_1_54,2021-04-08T15:20:07.429Z,,,,,,,,,,,,,,,,54,,,,,,,,,,,,,,339.37200015436974,,response,,,,100,,,,,,,Space,keypress(Space),,,,,,,,-- --- ---- --- ------ ----- ------- ---- -- --- ------- --<br>------- ---------- ------ -- ----- -- ----- -- ---- ------<br>--- ----- --- --- ------ -------- ----- --- ------ ----- --<br>----- ----- ---------- --- --- ------ ------ ---- -- ------<br>------- --- ------ ----- --- ---- ------- -- ---- --- --<br>raising ------,164275.2750001382,164274.63500015438,163918.681,163923.65500004962,163935.263,164285.49,,54,raising
screen,html.Screen,1_1_1_1_55,2021-04-08T15:20:07.894Z,,,,,,,,,,,,,,,,54,,,,,,,,,,,,,,453.26000001863576,,response,,,,100,,,,,,,Space,keypress(Space),,,,,,,,-- --- ---- --- ------ ----- ------- ---- -- --- ------- --<br>------- ---------- ------ -- ----- -- ----- -- ---- ------<br>--- ----- --- --- ------ -------- ----- --- ------ ----- --<br>----- ----- ---------- --- --- ------ ------ ---- -- ------<br>------- --- ------ ----- --- ---- ------- -- ---- --- --<br>------- money.,164739.41999999806,164738.75000001863,164268.895,164275.43499995954,164285.49,164752.516,,55,money.
Item 100,flow.Loop,1_1_1_1,2021-04-08T15:20:07.894Z,,,,,,,,,,,,,,,,,,,,,,,,,,,,,,25636.416000018624,,completion,,,,,B,,,,,,,,,,,silence,,,,,164739.79500005953,164738.75000001863,139085.539,139090.36000003107,139102.334,164752.516,,,
Question 1,html.Screen,1_1_1_2,2021-04-08T15:20:10.103Z,,,,,,,,,,,,,,,,,,,,,,,,,,,true,TRUE,,2194.6190000239876,,response,,,,100,B,,,,,,TRUE,click #choice-1,,,,silence,,,,,166948.47499998286,166947.135000024,164735.888,164739.964999957,164752.516,166953.961,,,
Question 2,html.Screen,1_1_1_3,2021-04-08T15:20:14.278Z,,,,,,,,,,,,,,,,,,,,,,,,,,,true,FALSE,,4168.618999966537,,response,,,,100,B,,,,,,FALSE,click #choice-2,,,,silence,,,,,171123.6650000792,171122.57999996655,166937.309,166948.69500002824,166953.961,171156.794,,,
Item 100,flow.Sequence,1_1_1,2021-04-08T15:20:14.278Z,,,,,,,,,,,,,,,,,,,,,,,,,,,,,,42026.81999996655,,completion,,,,,,,,,,,,,,,,,,,,,171123.99500003085,171122.57999996655,129079.123,129082.43499998935,129095.76,171156.794,,,
End of Practice,html.Page,1_1_2,2021-04-08T15:20:22.687Z,,,,,,,,,,,,,,,,,,,,,,,,,,,,,,8374.755999956047,,form submission,,,,,,,,,,,,,,,,,,,,,179532.2950000409,179531.54999995604,171140.087,171124.16000012308,171156.794,179545.478,,,
Practice,flow.Sequence,1_1,2021-04-08T15:20:22.687Z,,,,,,,,,,,,,,,,,,,,,,,,,,,,,,85758.97799995604,,completion,,,,,,,,,,,,,,,,,,,,,179532.64000010677,179531.54999995604,93739.242,93757.71000003442,93772.572,179545.478,,,
Trap_instruction,html.Page,1_2_0,2021-04-08T15:20:38.060Z,,,,,,,,,,,,,,,,,,,,,,,,,,,,,,15359.747000111383,,form submission,,,,,,,,,,,,,,,,,,,,,194905.8199999854,194905.2250001114,179528.921,179532.850000076,179545.478,194938.999,,,
trap_trial,html.Screen,1_2_1,2021-04-08T15:20:53.336Z,,,,,,,,,,,,,,,,,,,,,,,,,,,true,1,,15241.611000155855,,response,,,,,,,,,,,1,click #choice-1,,,,,,,,,210181.76000006497,210180.61000015587,194889.043,194906.0949999839,194938.999,210209.198,,,
end of trap trial,html.Page,1_2_2,2021-04-08T15:20:56.129Z,,,,,,,,,,,,,,,,,,,,,,,,,,,,,,2765.342000082921,,form submission,,,,,,,,,,,,,,,,,,,,,212975.1300001517,212974.54000008292,210165.661,210182.0000000298,210209.198,212984.236,,,
Trap 1,flow.Sequence,1_2,2021-04-08T15:20:56.130Z,,,,,,,,,,,,,,,,,,,,,,,,,,,,,,33429.06200008292,,completion,,,,,,,,,,,,,,,,,,,,,212975.52999993786,212974.54000008292,179528.921,179532.7900000848,179545.478,212984.236,,,
Standby,html.Page,1_3_0,2021-04-08T15:21:04.128Z,,,,,,,,,,,,,,,,,,,,,,,,,,,,,,8005.203999999998,,timeout,,,,,,,,,,,,,,,,,,,,,220973.47500012256,220972.796,212967.48,212975.76000005938,212984.236,220989.44,,,
Holding screen,html.Screen,1_3_1_0_0,2021-04-08T15:21:11.133Z,,,,,,,,,,,,,,,,,,,,,,,,,,,,,,7004.584000000003,,timeout,,,,,,,,,,,,,,,,,,,,,227978.25499996543,227977.323,220972.796,220973.78500015475,220989.44,227994.024,,,
screen,html.Screen,1_3_1_0_1_0,2021-04-08T15:21:12.245Z,,,,,,,,,,,,,,,,2,,,,,,,,,,,,,,1095.451000044326,,response,,,,1,B,,,,,,Space,keypress(Space),,,,lyrical,,,,Two ---- ------ --- ------- ---------- ------- ----------<br>--- --------- --- ----------- ------- ----- ------- ---<br>--------- ---- -- --- ---- -- --------- -- ---- -------<br>-- --------- ------ --- ----- ------ ---- --- --------- --<br>------ - ---- -- --- ----------- ------- ---- ----- -----<br>--- -------- - ------ ---- -- ----- ---- --- --- -----------<br>-- -------,229090.31999995932,229089.47500004433,227977.323,227978.5700000357,227994.024,229094.767,,0,Two
screen,html.Screen,1_3_1_0_1_1,2021-04-08T15:21:12.716Z,,,,,,,,,,,,,,,,2,,,,,,,,,,,,,,465.89299995917827,,response,,,,1,B,,,,,,Space,keypress(Space),,,,lyrical,,,,--- days ------ --- ------- ---------- ------- ----------<br>--- --------- --- ----------- ------- ----- ------- ---<br>--------- ---- -- --- ---- -- --------- -- ---- -------<br>-- --------- ------ --- ----- ------ ---- --- --------- --<br>------ - ---- -- --- ----------- ------- ---- ----- -----<br>--- -------- - ------ ---- -- ----- ---- --- --- -----------<br>-- -------,229561.41500012018,229560.65999995917,229078.264,229090.5550001189,229094.767,229578.377,,1,days
screen,html.Screen,1_3_1_0_1_2,2021-04-08T15:21:13.212Z,,,,,,,,,,,,,,,,2,,,,,,,,,,,,,,478.0830001089198,,response,,,,1,B,,,,,,Space,keypress(Space),,,,lyrical,,,,"--- ---- later, --- ------- ---------- ------- ----------<br>--- --------- --- ----------- ------- ----- ------- ---<br>--------- ---- -- --- ---- -- --------- -- ---- -------<br>-- --------- ------ --- ----- ------ ---- --- --------- --<br>------ - ---- -- --- ----------- ------- ---- ----- -----<br>--- -------- - ------ ---- -- ----- ---- --- --- -----------<br>-- -------",230057.26000014693,230056.46000010893,229561.837,229561.62000005133,229578.377,230078.824,,2,"later,"
screen,html.Screen,1_3_1_0_1_3,2021-04-08T15:21:13.644Z,,,,,,,,,,,,,,,,2,,,,,,,,,,,,,,409.6910000918724,,response,,,,1,B,,,,,,Space,keypress(Space),,,,lyrical,,,,--- ---- ------ the ------- ---------- ------- ----------<br>--- --------- --- ----------- ------- ----- ------- ---<br>--------- ---- -- --- ---- -- --------- -- ---- -------<br>-- --------- ------ --- ----- ------ ---- --- --------- --<br>------ - ---- -- --- ----------- ------- ---- ----- -----<br>--- -------- - ------ ---- -- ----- ---- --- --- -----------<br>-- -------,230489.23499998637,230488.51500009187,230062.062,230057.46000004,230078.824,230495.581,,3,the
screen,html.Screen,1_3_1_0_1_4,2021-04-08T15:21:14.179Z,,,,,,,,,,,,,,,,2,,,,,,,,,,,,,,528.8240000328515,,response,,,,1,B,,,,,,Space,keypress(Space),,,,lyrical,,,,--- ---- ------ --- British ---------- ------- ----------<br>--- --------- --- ----------- ------- ----- ------- ---<br>--------- ---- -- --- ---- -- --------- -- ---- -------<br>-- --------- ------ --- ----- ------ ---- --- --------- --<br>------ - ---- -- --- ----------- ------- ---- ----- -----<br>--- -------- - ------ ---- -- ----- ---- --- --- -----------<br>-- -------,231025.12999996543,231024.40500003286,230479.058,230489.43500011228,230495.581,231029.374,,4,British
screen,html.Screen,1_3_1_0_1_5,2021-04-08T15:21:14.651Z,,,,,,,,,,,,,,,,2,,,,,,,,,,,,,,466.9610000325483,,response,,,,1,B,,,,,,Space,keypress(Space),,,,lyrical,,,,--- ---- ------ --- ------- astronomer ------- ----------<br>--- --------- --- ----------- ------- ----- ------- ---<br>--------- ---- -- --- ---- -- --------- -- ---- -------<br>-- --------- ------ --- ----- ------ ---- --- --------- --<br>------ - ---- -- --- ----------- ------- ---- ----- -----<br>--- -------- - ------ ---- -- ----- ---- --- --- -----------<br>-- -------,231497.04500008374,231496.33500003256,231012.753,231025.33000009134,231029.374,231513.041,,5,astronomer
screen,html.Screen,1_3_1_0_1_6,2021-04-08T15:21:15.219Z,,,,,,,,,,,,,,,,2,,,,,,,,,,,,,,551.1939999398019,,response,,,,1,B,,,,,,Space,keypress(Space),,,,lyrical,,,,--- ---- ------ --- ------- ---------- Richard ----------<br>--- --------- --- ----------- ------- ----- ------- ---<br>--------- ---- -- --- ---- -- --------- -- ---- -------<br>-- --------- ------ --- ----- ------ ---- --- --------- --<br>------ - ---- -- --- ----------- ------- ---- ----- -----<br>--- -------- - ------ ---- -- ----- ---- --- --- -----------<br>-- -------,232064.9600001052,232064.2349999398,231496.439,231497.25500005297,231513.041,232080.119,,6,Richard
screen,html.Screen,1_3_1_0_1_7,2021-04-08T15:21:15.675Z,,,,,,,,,,,,,,,,2,,,,,,,,,,,,,,440.08599994977703,,response,,,,1,B,,,,,,Space,keypress(Space),,,,lyrical,,,,--- ---- ------ --- ------- ---------- ------- Carrington<br>--- --------- --- ----------- ------- ----- ------- ---<br>--------- ---- -- --- ---- -- --------- -- ---- -------<br>-- --------- ------ --- ----- ------ ---- --- --------- --<br>------ - ---- -- --- ----------- ------- ---- ----- -----<br>--- -------- - ------ ---- -- ----- ---- --- --- -----------<br>-- -------,232520.9250000771,232520.20499994978,232063.488,232065.1599999983,232080.119,232530.308,,7,Carrington
screen,html.Screen,1_3_1_0_1_8,2021-04-08T15:21:16.163Z,,,,,,,,,,,,,,,,2,,,,,,,,,,,,,,477.8120001295756,,response,,,,1,B,,,,,,Space,keypress(Space),,,,lyrical,,,,--- ---- ------ --- ------- ---------- ------- ----------<br>was --------- --- ----------- ------- ----- ------- ---<br>--------- ---- -- --- ---- -- --------- -- ---- -------<br>-- --------- ------ --- ----- ------ ---- --- --------- --<br>------ - ---- -- --- ----------- ------- ---- ----- -----<br>--- -------- - ------ ---- -- ----- ---- --- --- -----------<br>-- -------,233008.84000002407,233008.12000012957,232513.764,232521.11999993213,232530.308,233014.025,,8,was
screen,html.Screen,1_3_1_0_1_9,2021-04-08T15:21:16.603Z,,,,,,,,,,,,,,,,2,,,,,,,,,,,,,,434.0000000488071,,response,,,,1,B,,,,,,Space,keypress(Space),,,,lyrical,,,,--- ---- ------ --- ------- ---------- ------- ----------<br>--- observing --- ----------- ------- ----- ------- ---<br>--------- ---- -- --- ---- -- --------- -- ---- -------<br>-- --------- ------ --- ----- ------ ---- --- --------- --<br>------ - ---- -- --- ----------- ------- ---- ----- -----<br>--- -------- - ------ ---- -- ----- ---- --- --- -----------<br>-- -------,233448.75500001945,233448.0250000488,232997.423,233009.04499995522,233014.025,233464.323,,9,observing
screen,html.Screen,1_3_1_0_1_10,2021-04-08T15:21:17.011Z,,,,,,,,,,,,,,,,2,,,,,,,,,,,,,,391.7169999842008,,response,,,,1,B,,,,,,Space,keypress(Space),,,,lyrical,,,,--- ---- ------ --- ------- ---------- ------- ----------<br>--- --------- the ----------- ------- ----- ------- ---<br>--------- ---- -- --- ---- -- --------- -- ---- -------<br>-- --------- ------ --- ----- ------ ---- --- --------- --<br>------ - ---- -- --- ----------- ------- ---- ----- -----<br>--- -------- - ------ ---- -- ----- ---- --- --- -----------<br>-- -------,233856.70999996364,233856.0399999842,233447.711,233448.94500006922,233464.323,233864.562,,10,the
screen,html.Screen,1_3_1_0_1_11,2021-04-08T15:21:17.403Z,,,,,,,,,,,,,,,,2,,,,,,,,,,,,,,383.31800015541376,,response,,,,1,B,,,,,,Space,keypress(Space),,,,lyrical,,,,--- ---- ------ --- ------- ---------- ------- ----------<br>--- --------- --- interesting ------- ----- ------- ---<br>--------- ---- -- --- ---- -- --------- -- ---- -------<br>-- --------- ------ --- ----- ------ ---- --- --------- --<br>------ - ---- -- --- ----------- ------- ---- ----- -----<br>--- -------- - ------ ---- -- ----- ---- --- --- -----------<br>-- -------,234248.61999996938,234247.88000015542,233847.918,233856.91500012763,233864.562,234264.779,,11,interesting
screen,html.Screen,1_3_1_0_1_12,2021-04-08T15:21:17.811Z,,,,,,,,,,,,,,,,2,,,,,,,,,,,,,,391.17600008202135,,response,,,,1,B,,,,,,Space,keypress(Space),,,,lyrical,,,,--- ---- ------ --- ------- ---------- ------- ----------<br>--- --------- --- ----------- sunspot ----- ------- ---<br>--------- ---- -- --- ---- -- --------- -- ---- -------<br>-- --------- ------ --- ----- ------ ---- --- --------- --<br>------ - ---- -- --- ----------- ------- ---- ----- -----<br>--- -------- - ------ ---- -- ----- ---- --- --- -----------<br>-- -------,234656.63999994285,234655.95500008203,234248.192,234248.8200000953,234264.779,234665.072,,12,sunspot
screen,html.Screen,1_3_1_0_1_13,2021-04-08T15:21:18.219Z,,,,,,,,,,,,,,,,2,,,,,,,,,,,,,,398.71800004382385,,response,,,,1,B,,,,,,Space,keypress(Space),,,,lyrical,,,,--- ---- ------ --- ------- ---------- ------- ----------<br>--- --------- --- ----------- ------- group ------- ---<br>--------- ---- -- --- ---- -- --------- -- ---- -------<br>-- --------- ------ --- ----- ------ ---- --- --------- --<br>------ - ---- -- --- ----------- ------- ---- ----- -----<br>--- -------- - ------ ---- -- ----- ---- --- --- -----------<br>-- -------,235064.47500013746,235063.7900000438,234648.496,234656.8350000307,234665.072,235082.031,,13,group
screen,html.Screen,1_3_1_0_1_14,2021-04-08T15:21:18.875Z,,,,,,,,,,,,,,,,2,,,,,,,,,,,,,,637.6490000965714,,response,,,,1,B,,,,,,Space,keypress(Space),,,,lyrical,,,,--- ---- ------ --- ------- ---------- ------- ----------<br>--- --------- --- ----------- ------- ----- through ---<br>--------- ---- -- --- ---- -- --------- -- ---- -------<br>-- --------- ------ --- ----- ------ ---- --- --------- --<br>------ - ---- -- --- ----------- ------- ---- ----- -----<br>--- -------- - ------ ---- -- ----- ---- --- --- -----------<br>-- -------,235720.2900000848,235719.68000009656,235048.754,235064.68000006862,235082.031,235732.482,,14,through
screen,html.Screen,1_3_1_0_1_15,2021-04-08T15:21:19.507Z,,,,,,,,,,,,,,,,2,,,,,,,,,,,,,,619.2830000285467,,response,,,,1,B,,,,,,Space,keypress(Space),,,,lyrical,,,,--- ---- ------ --- ------- ---------- ------- ----------<br>--- --------- --- ----------- ------- ----- ------- his<br>--------- ---- -- --- ---- -- --------- -- ---- -------<br>-- --------- ------ --- ----- ------ ---- --- --------- --<br>------ - ---- -- --- ----------- ------- ---- ----- -----<br>--- -------- - ------ ---- -- ----- ---- --- --- -----------<br>-- -------,236352.6350001339,236351.76500002854,235715.852,235720.44500010088,235732.482,236366.282,,15,his
screen,html.Screen,1_3_1_0_1_16,2021-04-08T15:21:19.963Z,,,,,,,,,,,,,,,,2,,,,,,,,,,,,,,441.3880000092322,,response,,,,1,B,,,,,,Space,keypress(Space),,,,lyrical,,,,--- ---- ------ --- ------- ---------- ------- ----------<br>--- --------- --- ----------- ------- ----- ------- ---<br>telescope ---- -- --- ---- -- --------- -- ---- -------<br>-- --------- ------ --- ----- ------ ---- --- --------- --<br>------ - ---- -- --- ----------- ------- ---- ----- -----<br>--- -------- - ------ ---- -- ----- ---- --- --- -----------<br>-- -------,236808.51500015706,236807.67000000924,236349.641,236352.85499994643,236366.282,236816.56,,16,telescope
screen,html.Screen,1_3_1_0_1_17,2021-04-08T15:21:20.467Z,,,,,,,,,,,,,,,,2,,,,,,,,,,,,,,495.01499994151527,,response,,,,1,B,,,,,,Space,keypress(Space),,,,lyrical,,,,--- ---- ------ --- ------- ---------- ------- ----------<br>--- --------- --- ----------- ------- ----- ------- ---<br>--------- when -- --- ---- -- --------- -- ---- -------<br>-- --------- ------ --- ----- ------ ---- --- --------- --<br>------ - ---- -- --- ----------- ------- ---- ----- -----<br>--- -------- - ------ ---- -- ----- ---- --- --- -----------<br>-- -------,237312.4400000088,237311.5749999415,236799.916,236808.7349999696,236816.56,237316.839,,17,when
screen,html.Screen,1_3_1_0_1_18,2021-04-08T15:21:20.963Z,,,,,,,,,,,,,,,,2,,,,,,,,,,,,,,490.75100009856396,,response,,,,1,B,,,,,,Space,keypress(Space),,,,lyrical,,,,--- ---- ------ --- ------- ---------- ------- ----------<br>--- --------- --- ----------- ------- ----- ------- ---<br>--------- ---- he --- ---- -- --------- -- ---- -------<br>-- --------- ------ --- ----- ------ ---- --- --------- --<br>------ - ---- -- --- ----------- ------- ---- ----- -----<br>--- -------- - ------ ---- -- ----- ---- --- --- -----------<br>-- -------,237808.44000005163,237807.59000009857,237300.248,237312.6550000161,237316.839,237817.174,,18,he
screen,html.Screen,1_3_1_0_1_19,2021-04-08T15:21:21.379Z,,,,,,,,,,,,,,,,2,,,,,,,,,,,,,,406.3360001562396,,response,,,,1,B,,,,,,Space,keypress(Space),,,,lyrical,,,,--- ---- ------ --- ------- ---------- ------- ----------<br>--- --------- --- ----------- ------- ----- ------- ---<br>--------- ---- -- saw ---- -- --------- -- ---- -------<br>-- --------- ------ --- ----- ------ ---- --- --------- --<br>------ - ---- -- --- ----------- ------- ---- ----- -----<br>--- -------- - ------ ---- -- ----- ---- --- --- -----------<br>-- -------,238224.339999957,238223.51000015624,237800.578,237808.65500005893,237817.174,238234.117,,19,saw
screen,html.Screen,1_3_1_0_1_20,2021-04-08T15:21:21.803Z,,,,,,,,,,,,,,,,2,,,,,,,,,,,,,,413.0930000828521,,response,,,,1,B,,,,,,Space,keypress(Space),,,,lyrical,,,,--- ---- ------ --- ------- ---------- ------- ----------<br>--- --------- --- ----------- ------- ----- ------- ---<br>--------- ---- -- --- what -- --------- -- ---- -------<br>-- --------- ------ --- ----- ------ ---- --- --------- --<br>------ - ---- -- --- ----------- ------- ---- ----- -----<br>--- -------- - ------ ---- -- ----- ---- --- --- -----------<br>-- -------,238648.02500000224,238647.21000008285,238217.507,238224.56500004046,238234.117,238651.086,,20,what
screen,html.Screen,1_3_1_0_1_21,2021-04-08T15:21:22.195Z,,,,,,,,,,,,,,,,2,,,,,,,,,,,,,,388.24400005780626,,response,,,,1,B,,,,,,Space,keypress(Space),,,,lyrical,,,,--- ---- ------ --- ------- ---------- ------- ----------<br>--- --------- --- ----------- ------- ----- ------- ---<br>--------- ---- -- --- ---- he --------- -- ---- -------<br>-- --------- ------ --- ----- ------ ---- --- --------- --<br>------ - ---- -- --- ----------- ------- ---- ----- -----<br>--- -------- - ------ ---- -- ----- ---- --- --- -----------<br>-- -------,239040.15500005335,239039.33000005782,238634.448,238648.2450000476,238651.086,239051.298,,21,he
screen,html.Screen,1_3_1_0_1_22,2021-04-08T15:21:22.676Z,,,,,,,,,,,,,,,,2,,,,,,,,,,,,,,468.74200009036576,,response,,,,1,B,,,,,,Space,keypress(Space),,,,lyrical,,,,--- ---- ------ --- ------- ---------- ------- ----------<br>--- --------- --- ----------- ------- ----- ------- ---<br>--------- ---- -- --- ---- -- described -- ---- -------<br>-- --------- ------ --- ----- ------ ---- --- --------- --<br>------ - ---- -- --- ----------- ------- ---- ----- -----<br>--- -------- - ------ ---- -- ----- ---- --- --- -----------<br>-- -------,239520.96500014886,239520.04000009038,239034.708,239040.37000006065,239051.298,239535.036,,22,described
screen,html.Screen,1_3_1_0_1_23,2021-04-08T15:21:23.099Z,,,,,,,,,,,,,,,,2,,,,,,,,,,,,,,408.1640000961197,,response,,,,1,B,,,,,,Space,keypress(Space),,,,lyrical,,,,--- ---- ------ --- ------- ---------- ------- ----------<br>--- --------- --- ----------- ------- ----- ------- ---<br>--------- ---- -- --- ---- -- --------- as ---- -------<br>-- --------- ------ --- ----- ------ ---- --- --------- --<br>------ - ---- -- --- ----------- ------- ---- ----- -----<br>--- -------- - ------ ---- -- ----- ---- --- --- -----------<br>-- -------,239944.03499993496,239943.2000000961,239518.368,239521.18000015616,239535.036,239951.895,,23,as
screen,html.Screen,1_3_1_0_1_24,2021-04-08T15:21:23.531Z,,,,,,,,,,,,,,,,2,,,,,,,,,,,,,,423.1899999487505,,response,,,,1,B,,,,,,Space,keypress(Space),,,,lyrical,,,,"--- ---- ------ --- ------- ---------- ------- ----------<br>--- --------- --- ----------- ------- ----- ------- ---<br>--------- ---- -- --- ---- -- --------- -- ""two -------<br>-- --------- ------ --- ----- ------ ---- --- --------- --<br>------ - ---- -- --- ----------- ------- ---- ----- -----<br>--- -------- - ------ ---- -- ----- ---- --- --- -----------<br>-- -------",240375.9850000497,240375.08499994874,239935.305,239944.24500013702,239951.895,240385.533,,24,"""two"
screen,html.Screen,1_3_1_0_1_25,2021-04-08T15:21:23.987Z,,,,,,,,,,,,,,,,2,,,,,,,,,,,,,,445.5370000729454,,response,,,,1,B,,,,,,Space,keypress(Space),,,,lyrical,,,,--- ---- ------ --- ------- ---------- ------- ----------<br>--- --------- --- ----------- ------- ----- ------- ---<br>--------- ---- -- --- ---- -- --------- -- ---- patches<br>-- --------- ------ --- ----- ------ ---- --- --------- --<br>------ - ---- -- --- ----------- ------- ---- ----- -----<br>--- -------- - ------ ---- -- ----- ---- --- --- -----------<br>-- -------,240831.93000010215,240831.07000007294,240368.89,240376.21499993838,240385.533,240835.848,,25,patches
screen,html.Screen,1_3_1_0_1_26,2021-04-08T15:21:24.435Z,,,,,,,,,,,,,,,,2,,,,,,,,,,,,,,443.2020000119228,,response,,,,1,B,,,,,,Space,keypress(Space),,,,lyrical,,,,--- ---- ------ --- ------- ---------- ------- ----------<br>--- --------- --- ----------- ------- ----- ------- ---<br>--------- ---- -- --- ---- -- --------- -- ---- -------<br>of --------- ------ --- ----- ------ ---- --- --------- --<br>------ - ---- -- --- ----------- ------- ---- ----- -----<br>--- -------- - ------ ---- -- ----- ---- --- --- -----------<br>-- -------,241279.92000011727,241279.05000001192,240819.137,240832.14500010945,240835.848,241286.058,,26,of
screen,html.Screen,1_3_1_0_1_27,2021-04-08T15:21:24.907Z,,,,,,,,,,,,,,,,2,,,,,,,,,,,,,,464.84700013903785,,response,,,,1,B,,,,,,Space,keypress(Space),,,,lyrical,,,,--- ---- ------ --- ------- ---------- ------- ----------<br>--- --------- --- ----------- ------- ----- ------- ---<br>--------- ---- -- --- ---- -- --------- -- ---- -------<br>-- intensely ------ --- ----- ------ ---- --- --------- --<br>------ - ---- -- --- ----------- ------- ---- ----- -----<br>--- -------- - ------ ---- -- ----- ---- --- --- -----------<br>-- -------,241751.77500001155,241750.90500013903,241269.516,241280.1449999679,241286.058,241769.801,,27,intensely
screen,html.Screen,1_3_1_0_1_28,2021-04-08T15:21:25.410Z,,,,,,,,,,,,,,,,2,,,,,,,,,,,,,,485.03900006689946,,response,,,,1,B,,,,,,Space,keypress(Space),,,,lyrical,,,,--- ---- ------ --- ------- ---------- ------- ----------<br>--- --------- --- ----------- ------- ----- ------- ---<br>--------- ---- -- --- ---- -- --------- -- ---- -------<br>-- --------- bright --- ----- ------ ---- --- --------- --<br>------ - ---- -- --- ----------- ------- ---- ----- -----<br>--- -------- - ------ ---- -- ----- ---- --- --- -----------<br>-- -------,242255.70500013418,242254.8400000669,241736.497,241751.99000001885,241769.801,242270.152,,28,bright
screen,html.Screen,1_3_1_0_1_29,2021-04-08T15:21:25.866Z,,,,,,,,,,,,,,,,2,,,,,,,,,,,,,,440.6230000432115,,response,,,,1,B,,,,,,Space,keypress(Space),,,,lyrical,,,,--- ---- ------ --- ------- ---------- ------- ----------<br>--- --------- --- ----------- ------- ----- ------- ---<br>--------- ---- -- --- ---- -- --------- -- ---- -------<br>-- --------- ------ and ----- ------ ---- --- --------- --<br>------ - ---- -- --- ----------- ------- ---- ----- -----<br>--- -------- - ------ ---- -- ----- ---- --- --- -----------<br>-- -------,242711.559999967,242710.7750000432,242253.461,242255.9150001034,242270.152,242720.341,,29,and
screen,html.Screen,1_3_1_0_1_30,2021-04-08T15:21:26.338Z,,,,,,,,,,,,,,,,2,,,,,,,,,,,,,,462.1689999550872,,response,,,,1,B,,,,,,Space,keypress(Space),,,,lyrical,,,,--- ---- ------ --- ------- ---------- ------- ----------<br>--- --------- --- ----------- ------- ----- ------- ---<br>--------- ---- -- --- ---- -- --------- -- ---- -------<br>-- --------- ------ --- white ------ ---- --- --------- --<br>------ - ---- -- --- ----------- ------- ---- ----- -----<br>--- -------- - ------ ---- -- ----- ---- --- --- -----------<br>-- -------,243183.2300000824,243182.50999995507,242703.8,242711.76500013098,242720.341,243187.351,,30,white
screen,html.Screen,1_3_1_0_1_31,2021-04-08T15:21:26.858Z,,,,,,,,,,,,,,,,2,,,,,,,,,,,,,,515.1140000967134,,response,,,,1,B,,,,,,Space,keypress(Space),,,,lyrical,,,,"--- ---- ------ --- ------- ---------- ------- ----------<br>--- --------- --- ----------- ------- ----- ------- ---<br>--------- ---- -- --- ---- -- --------- -- ---- -------<br>-- --------- ------ --- ----- light"" ---- --- --------- --<br>------ - ---- -- --- ----------- ------- ---- ----- -----<br>--- -------- - ------ ---- -- ----- ---- --- --- -----------<br>-- -------",243703.07500008494,243702.4650000967,243170.766,243183.4299999755,243187.351,243740.125,,31,"light"""
screen,html.Screen,1_3_1_0_1_32,2021-04-08T15:21:27.362Z,,,,,,,,,,,,,,,,2,,,,,,,,,,,,,,466.315000096336,,response,,,,1,B,,,,,,Space,keypress(Space),,,,lyrical,,,,--- ---- ------ --- ------- ---------- ------- ----------<br>--- --------- --- ----------- ------- ----- ------- ---<br>--------- ---- -- --- ---- -- --------- -- ---- -------<br>-- --------- ------ --- ----- ------ over --- --------- --<br>------ - ---- -- --- ----------- ------- ---- ----- -----<br>--- -------- - ------ ---- -- ----- ---- --- --- -----------<br>-- -------,244207.1950000245,244206.44000009634,243687.738,243703.2500000205,243740.125,244221.378,,32,over
screen,html.Screen,1_3_1_0_1_33,2021-04-08T15:21:27.794Z,,,,,,,,,,,,,,,,2,,,,,,,,,,,,,,417.0820000456006,,response,,,,1,B,,,,,,Space,keypress(Space),,,,lyrical,,,,--- ---- ------ --- ------- ---------- ------- ----------<br>--- --------- --- ----------- ------- ----- ------- ---<br>--------- ---- -- --- ---- -- --------- -- ---- -------<br>-- --------- ------ --- ----- ------ ---- the --------- --<br>------ - ---- -- --- ----------- ------- ---- ----- -----<br>--- -------- - ------ ---- -- ----- ---- --- --- -----------<br>-- -------,244639.17000009678,244638.4600000456,244204.636,244207.39999995567,244221.378,244655.075,,33,the
screen,html.Screen,1_3_1_0_1_34,2021-04-08T15:21:28.346Z,,,,,,,,,,,,,,,,2,,,,,,,,,,,,,,535.1300001080963,,response,,,,1,B,,,,,,Space,keypress(Space),,,,lyrical,,,,--- ---- ------ --- ------- ---------- ------- ----------<br>--- --------- --- ----------- ------- ----- ------- ---<br>--------- ---- -- --- ---- -- --------- -- ---- -------<br>-- --------- ------ --- ----- ------ ---- --- sunspots. --<br>------ - ---- -- --- ----------- ------- ---- ----- -----<br>--- -------- - ------ ---- -- ----- ---- --- --- -----------<br>-- -------,245190.94000011683,245190.2050001081,244638.397,244639.36999998987,244655.075,245205.403,,34,sunspots.
screen,html.Screen,1_3_1_0_1_35,2021-04-08T15:21:28.818Z,,,,,,,,,,,,,,,,2,,,,,,,,,,,,,,456.7119999555289,,response,,,,1,B,,,,,,Space,keypress(Space),,,,lyrical,,,,--- ---- ------ --- ------- ---------- ------- ----------<br>--- --------- --- ----------- ------- ----- ------- ---<br>--------- ---- -- --- ---- -- --------- -- ---- -------<br>-- --------- ------ --- ----- ------ ---- --- --------- He<br>------ - ---- -- --- ----------- ------- ---- ----- -----<br>--- -------- - ------ ---- -- ----- ---- --- --- -----------<br>-- -------,245662.84000012092,245662.11499995552,245188.734,245191.14500004798,245205.403,245672.313,,35,He
screen,html.Screen,1_3_1_0_1_36,2021-04-08T15:21:29.298Z,,,,,,,,,,,,,,,,2,,,,,,,,,,,,,,469.76700013605296,,response,,,,1,B,,,,,,Space,keypress(Space),,,,lyrical,,,,--- ---- ------ --- ------- ---------- ------- ----------<br>--- --------- --- ----------- ------- ----- ------- ---<br>--------- ---- -- --- ---- -- --------- -- ---- -------<br>-- --------- ------ --- ----- ------ ---- --- --------- --<br>jotted - ---- -- --- ----------- ------- ---- ----- -----<br>--- -------- - ------ ---- -- ----- ---- --- --- -----------<br>-- -------,246142.79499999247,246142.08000013605,245655.677,245663.02999993786,245672.313,246156.041,,36,jotted
