sender,sender_type,sender_id,timestamp,meta,,Blues,Classical,Country,Dance,Electronic,Folk,Gospel,Hip-Hop,Jazz,Latin,Musical/Film,New-age,Pop,Provo_ID,R&B,Rap,Reggae,Religious,Rock,Soul,Swing,Traditional,age,artist_name,correct,correctResponse,distraction,duration,education,ended_on,familiarity,gender,headphone_check_performance,item,list,music_frequency,offensiveness,pleasantness,position_correct,preference,response,response_action,snippet_file,song_name,song_rating,sound,stimulus_1,stimulus_2,stimulus_3,text,time_commit,time_end,time_render,time_run,time_show,time_switch,url,word,word_ID
Introduction,html.Screen,0_0,2021-04-08T16:48:44.026Z,"{""labjs_version"":""20.2.2"",""labjs_build"":{""flavor"":""production"",""commit"":""a25486e0c714a0ae2ce03ff94b7bb6896854dcfa""},""location"":""https://run.pavlovia.org/mvasilev/music_f/"",""userAgent"":""Mozilla/5.0 (Windows NT 10.0; Win64; x64) AppleWebKit/537.36 (KHTML, like Gecko) Chrome/89.0.4389.114 Safari/537.36"",""platform"":""Win32"",""language"":""de-DE"",""locale"":""en-US"",""timeZone"":""Europe/London"",""timezoneOffset"":-60,""screen_width"":2560,""screen_height"":1440,""scroll_width"":3200,""scroll_height"":1621,""window_innerWidth"":3200,""window_innerHeight"":1668,""devicePixelRatio"":0.800000011920929}",,,,,,,,,,,,,,,,,,,,,,,,,,,,,5929.620000117942,,response,,,,,,,,,,,continue,click button,,,,,,,,,16540.700000012293,16538.390000117943,10575.402,10590.280000120401,10608.77,16562.324,{},,
Volume calibration,html.Screen,0_1,2021-04-08T16:48:45.293Z,,,,,,,,,,,,,,,,,,,,,,,,,,,,,,1240.0160001693512,,response,,,,,,,,,,,continue,click button,,,,,,,,,17807.430000044405,17802.34000016935,16528.971,16541.22000001371,16562.324,17813.151,,,
Task instructions,html.Screen,0_2,2021-04-08T16:48:46.529Z,,,,,,,,,,,,,,,,,,,,,,,,,,,,,,1228.989000034122,,response,,,,,,,,,,,continue,click button,,,,,,,,,19043.21500007063,19042.140000034124,17796.488,17807.705000042915,17813.151,19047.296,,,
Sounds,html.Screen,0_3_0_0,2021-04-08T16:48:50.774Z,,,,,,,,,,,,,,,,,,,,,,,,,,,,,,4252.620000000003,,timeout,,,,,,,,,1,,,,,,,,S,O,I,,23288.11000008136,23283.414,19030.631,19043.63500000909,19047.296,23299.916,,,
Judgement,html.Screen,0_3_0_1,2021-04-08T16:48:51.432Z,,,,,,,,,,,,,,,,,,,,,,,,,,,true,1,,645.5540001515437,,response,,,,,,,,,1,,1,click #choice-1,,,,,S,O,I,,23946.680000051856,23945.470000151545,23283.414,23288.399999961257,23299.916,23950.508,,,
Trial,flow.Sequence,0_3_0,2021-04-08T16:48:51.433Z,,,,,,,,,,,,,,,,,,,,,,,,,,,,,,4898.174000151546,,completion,,,,,,,,,1,,,,,,,,S,O,I,,23947.275000158697,23945.470000151545,19030.631,19043.525000102818,19047.296,23950.508,,,
Sounds,html.Screen,0_3_1_0,2021-04-08T16:48:55.673Z,,,,,,,,,,,,,,,,,,,,,,,,,,,,,,4252.691999999999,,timeout,,,,,,,,,2,,,,,,,,I,S,O,,28187.515000114217,28186.522,23933.852,23947.570000076666,23950.508,28203.2,,,
Judgement,html.Screen,0_3_1_1,2021-04-08T16:48:56.151Z,,,,,,,,,,,,,,,,,,,,,,,,,,,true,2,,461.3400000270449,,response,,,,,,,,,2,,2,click #choice-2,,,,,I,S,O,,28665.664999978617,28664.540000027046,28186.522,28191.725000040606,28203.2,28670.27,,,
Trial,flow.Sequence,0_3_1,2021-04-08T16:48:56.152Z,,,,,,,,,,,,,,,,,,,,,,,,,,,,,,4714.032000027044,,completion,,,,,,,,,2,,,,,,,,I,S,O,,28666.110000107437,28664.540000027046,23933.852,23947.480000089854,23950.508,28670.27,,,
Sounds,html.Screen,0_3_2_0,2021-04-08T16:49:00.393Z,,,,,,,,,,,,,,,,,,,,,,,,,,,,,,4252.799000000003,,timeout,,,,,,,,,1,,,,,,,,S,I,O,,32907.31499996036,32906.342,28653.613,28666.425000177696,28670.27,32923.069,,,
Judgement,html.Screen,0_3_2_1,2021-04-08T16:49:01.214Z,,,,,,,,,,,,,,,,,,,,,,,,,,,false,1,,804.721000149977,,response,,,,,,,,,1,,2,click #choice-2,,,,,S,I,O,,33728.815000038594,33727.79000014998,32906.342,32907.56500000134,32923.069,33740.214,,,
Trial,flow.Sequence,0_3_2,2021-04-08T16:49:01.215Z,,,,,,,,,,,,,,,,,,,,,,,,,,,,,,5057.52000014998,,completion,,,,,,,,,1,,,,,,,,S,I,O,,33729.20499998145,33727.79000014998,28653.613,28666.334999958053,28670.27,33740.214,,,
Sounds,html.Screen,0_3_3_0,2021-04-08T16:49:05.463Z,,,,,,,,,,,,,,,,,,,,,,,,,,,,,,4252.860999999997,,timeout,,,,,,,,,3,,,,,,,,O,I,S,,37977.465000003576,37976.408,33723.61,33729.4900000561,33740.214,37993.075,,,
Judgement,html.Screen,0_3_3_1,2021-04-08T16:49:05.894Z,,,,,,,,,,,,,,,,,,,,,,,,,,,true,3,,414.12500001602166,,response,,,,,,,,,3,,3,click #choice-3,,,,,O,I,S,,38408.24000001885,38407.20000001602,37976.408,37977.70499996841,37993.075,38410.015,,,
Trial,flow.Sequence,0_3_3,2021-04-08T16:49:05.894Z,,,,,,,,,,,,,,,,,,,,,,,,,,,,,,4666.986000016019,,completion,,,,,,,,,3,,,,,,,,O,I,S,,38408.64000003785,38407.20000001602,33723.61,33729.389999993145,33740.214,38410.015,,,
Sounds,html.Screen,0_3_4_0,2021-04-08T16:49:10.133Z,,,,,,,,,,,,,,,,,,,,,,,,,,,,,,4252.784,,timeout,,,,,,,,,2,,,,,,,,O,S,I,,42647.12500013411,42646.072,38393.355,38408.90000015497,38410.015,42662.799,,,
Judgement,html.Screen,0_3_4_1,2021-04-08T16:49:10.605Z,,,,,,,,,,,,,,,,,,,,,,,,,,,true,2,,455.63600006944034,,response,,,,,,,,,2,,2,click #choice-2,,,,,O,S,I,,43119.545000139624,43118.43500006944,42646.072,42647.36000006087,42662.799,43129.719,,,
Trial,flow.Sequence,0_3_4,2021-04-08T16:49:10.606Z,,,,,,,,,,,,,,,,,,,,,,,,,,,,,,4708.42000006944,,completion,,,,,,,,,2,,,,,,,,O,S,I,,43119.91500016302,43118.43500006944,38393.355,38408.825000049546,38410.015,43129.719,,,
Sounds,html.Screen,0_3_5_0,2021-04-08T16:49:14.852Z,,,,,,,,,,,,,,,,,,,,,,,,,,,,,,4252.847000000002,,timeout,,,,,,,,,3,,,,,,,,I,O,S,,47366.66000005789,47365.878,43113.12,43120.160000165924,43129.719,47382.566,,,
Judgement,html.Screen,0_3_5_1,2021-04-08T16:49:15.396Z,,,,,,,,,,,,,,,,,,,,,,,,,,,true,3,,526.959000024588,,response,,,,,,,,,3,,3,click #choice-3,,,,,I,O,S,,47910.60500009917,47909.52500002459,47365.878,47366.89000017941,47382.566,47916.251,,,
Trial,flow.Sequence,0_3_5,2021-04-08T16:49:15.397Z,,,,,,,,,,,,,,,,,,,,,,,,,,,,,,4779.80600002459,,completion,,,,,,,,,3,,,,,,,,I,O,S,,47910.97000008449,47909.52500002459,43113.12,43120.09000009857,43129.719,47916.251,,,
Task,flow.Loop,0_3,2021-04-08T16:49:15.405Z,,,,,,,,,,,,,,,,,,,,,,,,,,,,,,28862.22900002459,,completion,,,0.8333333333333334,,,,,,,,,,,,,,,,,,47919.33000017889,47909.52500002459,19030.631,19043.435000116006,19047.296,47916.251,,,
Trap,html.Screen,0_4,2021-04-08T16:49:15.409Z,,,,,,,,,,,,,,,,,,,,,,,,,,,,,,NaN,,skipped,,,,,,,,,,,,,,,,,,,,,47923.46499999985,47909.52500002459,,47923.21499995887,,47916.251,,,
Thanks,html.Screen,0_5,2021-04-08T16:49:17.652Z,,,,,,,,,,,,,,,,,,,,,,,,,,,,,,2249.1340001748686,,response,,,,,,,,,,,continue,click button,,,,,,,,,50166.47500009276,50165.385000174865,47899.588,47923.69500012137,47916.251,51268.427,,,
Headphone screening,flow.Sequence,0,2021-04-08T16:49:17.653Z,,,,,,,,,,,,,,,,,,,,,,,,,,,,,,39556.61500017486,,completion,,,,,,,,,,,,,,,,,,,,,50166.85499995947,50165.385000174865,10575.402,10590.245000086725,10608.77,51268.427,,,
Instructions,html.Page,1_0,2021-04-08T16:49:20.766Z,,,,,,,,,,,,,,,,,,,,,,,,,,,,,,2011.6579999766764,,form submission,,,,,,,,,,,,,,,,,,,,,53280.815000180155,53280.08499997668,51235.062,51257.884999969974,51268.427,53286.452,,,
Holding screen,html.Screen,1_1_0_0,2021-04-08T16:49:30.764Z,,,,,,,,,,,,,,,,,,,,,,,,,,,,,,10023.239000000001,,timeout,,,,,,,,,,,,,,,,,,,,,63277.05999999307,63276.335,53269.769,53281.21000016108,53286.452,63309.691,,,
screen,html.Screen,1_1_0_1_0,2021-04-08T16:49:31.492Z,,,,,,,,,,,,,,,,53,,,,,,,,,,,,,,693.2990001827638,,response,,,,99,,,,,,,Space,keypress(Space),,,,,,,,When -- ----- -- ------ - ------- --- ----------<br>------------- ------ ------ ---- ---- ------- ----- -- ----<br>-------- ------- -- ---------- --- - --- ----- ----- ----<br>---- --- --- ----- --- ---- ---- ------- ----- ---- -------<br>--- --- -- ----- -- --- ---- -- --- ---- -- ------ ------<br>--- ----- -- ----,64005.86999999359,64002.99000018276,63276.335,63277.42499997839,63309.691,64010.167,,0,When
screen,html.Screen,1_1_0_1_1,2021-04-08T16:49:31.778Z,,,,,,,,,,,,,,,,53,,,,,,,,,,,,,,280.21800017486385,,response,,,,99,,,,,,,Space,keypress(Space),,,,,,,,---- it ----- -- ------ - ------- --- ----------<br>------------- ------ ------ ---- ---- ------- ----- -- ----<br>-------- ------- -- ---------- --- - --- ----- ----- ----<br>---- --- --- ----- --- ---- ---- ------- ----- ---- -------<br>--- --- -- ----- -- --- ---- -- --- ---- -- ------ ------<br>--- ----- -- ----,64291.18000017479,64290.385000174865,63993.565,64006.04999996722,64010.167,64293.675,,1,it
screen,html.Screen,1_1_0_1_2,2021-04-08T16:49:32.290Z,,,,,,,,,,,,,,,,53,,,,,,,,,,,,,,508.59500010199554,,response,,,,99,,,,,,,Space,keypress(Space),,,,,,,,---- -- comes -- ------ - ------- --- ----------<br>------------- ------ ------ ---- ---- ------- ----- -- ----<br>-------- ------- -- ---------- --- - --- ----- ----- ----<br>---- --- --- ----- --- ---- ---- ------- ----- ---- -------<br>--- --- -- ----- -- --- ---- -- --- ---- -- ------ ------<br>--- ----- -- ----,64803.1000001356,64802.270000102,64277.033,64291.42999998294,64293.675,64810.651,,2,comes
screen,html.Screen,1_1_0_1_3,2021-04-08T16:49:32.320Z,,,,,,,,,,,,,,,,53,,,,,,,,,,,,,,22.238999961482477,,response,,,,99,,,,,,,Space,keypress(Space),,,,,,,,---- -- ----- to ------ - ------- --- ----------<br>------------- ------ ------ ---- ---- ------- ----- -- ----<br>-------- ------- -- ---------- --- - --- ----- ----- ----<br>---- --- --- ----- --- ---- ---- ------- ----- ---- -------<br>--- --- -- ----- -- --- ---- -- --- ---- -- ------ ------<br>--- ----- -- ----,64833.59000016935,64832.88999996148,64794.069,64803.35499998182,64810.651,64844.015,,3,to
screen,html.Screen,1_1_0_1_4,2021-04-08T16:49:32.351Z,,,,,,,,,,,,,,,,53,,,,,,,,,,,,,,19.879999958575354,,response,,,,99,,,,,,,Space,keypress(Space),,,,,,,,---- -- ----- -- having - ------- --- ----------<br>------------- ------ ------ ---- ---- ------- ----- -- ----<br>-------- ------- -- ---------- --- - --- ----- ----- ----<br>---- --- --- ----- --- ---- ---- ------- ----- ---- -------<br>--- --- -- ----- -- --- ---- -- --- ---- -- ------ ------<br>--- ----- -- ----,64864.659999962896,64863.894999958575,64827.392,64833.830000134185,64844.015,64877.416,,4,having
screen,html.Screen,1_1_0_1_5,2021-04-08T16:49:32.383Z,,,,,,,,,,,,,,,,53,,,,,,,,,,,,,,18.614000178145943,,response,,,,99,,,,,,,Space,keypress(Space),,,,,,,,---- -- ----- -- ------ a ------- --- ----------<br>------------- ------ ------ ---- ---- ------- ----- -- ----<br>-------- ------- -- ---------- --- - --- ----- ----- ----<br>---- --- --- ----- --- ---- ---- ------- ----- ---- -------<br>--- --- -- ----- -- --- ---- -- --- ---- -- ------ ------<br>--- ----- -- ----,64896.71500003897,64896.03000017814,64860.712,64864.89500012249,64877.416,64910.789,,5,a
screen,html.Screen,1_1_0_1_6,2021-04-08T16:49:32.414Z,,,,,,,,,,,,,,,,53,,,,,,,,,,,,,,16.246000175240624,,response,,,,99,,,,,,,Space,keypress(Space),,,,,,,,---- -- ----- -- ------ - lasting --- ----------<br>------------- ------ ------ ---- ---- ------- ----- -- ----<br>-------- ------- -- ---------- --- - --- ----- ----- ----<br>---- --- --- ----- --- ---- ---- ------- ----- ---- -------<br>--- --- -- ----- -- --- ---- -- --- ---- -- ------ ------<br>--- ----- -- ----,64927.72000003606,64927.03500017524,64894.064,64896.96000004187,64910.789,64944.13,,6,lasting
screen,html.Screen,1_1_0_1_7,2021-04-08T16:49:32.446Z,,,,,,,,,,,,,,,,53,,,,,,,,,,,,,,15.020000009688374,,response,,,,99,,,,,,,Space,keypress(Space),,,,,,,,---- -- ----- -- ------ - ------- and ----------<br>------------- ------ ------ ---- ---- ------- ----- -- ----<br>-------- ------- -- ---------- --- - --- ----- ----- ----<br>---- --- --- ----- --- ---- ---- ------- ----- ---- -------<br>--- --- -- ----- -- --- ---- -- --- ---- -- ------ ------<br>--- ----- -- ----,64959.805000107735,64959.150000009686,64927.443,64927.96500003897,64944.13,64977.487,,7,and
screen,html.Screen,1_1_0_1_8,2021-04-08T16:49:32.476Z,,,,,,,,,,,,,,,,53,,,,,,,,,,,,,,11.753000024436915,,response,,,,99,,,,,,,Space,keypress(Space),,,,,,,,---- -- ----- -- ------ - ------- --- fulfilling<br>------------- ------ ------ ---- ---- ------- ----- -- ----<br>-------- ------- -- ---------- --- - --- ----- ----- ----<br>---- --- --- ----- --- ---- ---- ------- ----- ---- -------<br>--- --- -- ----- -- --- ---- -- --- ---- -- ------ ------<br>--- ----- -- ----,64989.90000016056,64989.24000002444,64960.776,64960.04500007257,64977.487,65010.848,,8,fulfilling
screen,html.Screen,1_1_0_1_9,2021-04-08T16:49:32.508Z,,,,,,,,,,,,,,,,53,,,,,,,,,,,,,,10.246999974595383,,response,,,,99,,,,,,,Space,keypress(Space),,,,,,,,"---- -- ----- -- ------ - ------- --- ----------<br>relationship, ------ ------ ---- ---- ------- ----- -- ----<br>-------- ------- -- ---------- --- - --- ----- ----- ----<br>---- --- --- ----- --- ---- ---- ------- ----- ---- -------<br>--- --- -- ----- -- --- ---- -- --- ---- -- ------ ------<br>--- ----- -- ----",65021.75000007264,65021.09499997459,64994.096,64990.14999996871,65010.848,65044.198,,9,"relationship,"
screen,html.Screen,1_1_0_1_10,2021-04-08T16:49:32.540Z,,,,,,,,,,,,,,,,53,,,,,,,,,,,,,,8.652000094625691,,response,,,,99,,,,,,,Space,keypress(Space),,,,,,,,---- -- ----- -- ------ - ------- --- ----------<br>------------- common ------ ---- ---- ------- ----- -- ----<br>-------- ------- -- ---------- --- - --- ----- ----- ----<br>---- --- --- ----- --- ---- ---- ------- ----- ---- -------<br>--- --- -- ----- -- --- ---- -- --- ---- -- ------ ------<br>--- ----- -- ----,65053.54500003159,65052.85000009462,65027.485,65021.99500007555,65044.198,65077.558,,10,common
screen,html.Screen,1_1_0_1_11,2021-04-08T16:49:32.586Z,,,,,,,,,,,,,,,,53,,,,,,,,,,,,,,21.487000039043778,,response,,,,99,,,,,,,Space,keypress(Space),,,,,,,,---- -- ----- -- ------ - ------- --- ----------<br>------------- ------ wisdom ---- ---- ------- ----- -- ----<br>-------- ------- -- ---------- --- - --- ----- ----- ----<br>---- --- --- ----- --- ---- ---- ------- ----- ---- -------<br>--- --- -- ----- -- --- ---- -- --- ---- -- ------ ------<br>--- ----- -- ----,65099.71500001848,65099.04500003904,65060.841,65053.784999996424,65077.558,65110.885,,11,wisdom
screen,html.Screen,1_1_0_1_12,2021-04-08T16:49:32.617Z,,,,,,,,,,,,,,,,53,,,,,,,,,,,,,,19.295000094694842,,response,,,,99,,,,,,,Space,keypress(Space),,,,,,,,---- -- ----- -- ------ - ------- --- ----------<br>------------- ------ ------ says ---- ------- ----- -- ----<br>-------- ------- -- ---------- --- - --- ----- ----- ----<br>---- --- --- ----- --- ---- ---- ------- ----- ---- -------<br>--- --- -- ----- -- --- ---- -- --- ---- -- ------ ------<br>--- ----- -- ----,65130.83999999799,65130.1800000947,65094.192,65099.96000002138,65110.885,65144.276,,12,says
screen,html.Screen,1_1_0_1_13,2021-04-08T16:49:32.650Z,,,,,,,,,,,,,,,,53,,,,,,,,,,,,,,18.41900018097658,,response,,,,99,,,,,,,Space,keypress(Space),,,,,,,,---- -- ----- -- ------ - ------- --- ----------<br>------------- ------ ------ ---- that ------- ----- -- ----<br>-------- ------- -- ---------- --- - --- ----- ----- ----<br>---- --- --- ----- --- ---- ---- ------- ----- ---- -------<br>--- --- -- ----- -- --- ---- -- --- ---- -- ------ ------<br>--- ----- -- ----,65163.36000012234,65162.695000180975,65127.551,65131.07500015758,65144.276,65177.629,,13,that
screen,html.Screen,1_1_0_1_14,2021-04-08T16:49:32.681Z,,,,,,,,,,,,,,,,53,,,,,,,,,,,,,,16.326000024288078,,response,,,,99,,,,,,,Space,keypress(Space),,,,,,,,---- -- ----- -- ------ - ------- --- ----------<br>------------- ------ ------ ---- ---- feeling ----- -- ----<br>-------- ------- -- ---------- --- - --- ----- ----- ----<br>---- --- --- ----- --- ---- ---- ------- ----- ---- -------<br>--- --- -- ----- -- --- ---- -- --- ---- -- ------ ------<br>--- ----- -- ----,65194.750000024214,65193.95500002429,65160.909,65163.60000008717,65177.629,65210.987,,14,feeling
screen,html.Screen,1_1_0_1_15,2021-04-08T16:49:32.713Z,,,,,,,,,,,,,,,,53,,,,,,,,,,,,,,14.397999997912848,,response,,,,99,,,,,,,Space,keypress(Space),,,,,,,,---- -- ----- -- ------ - ------- --- ----------<br>------------- ------ ------ ---- ---- ------- close -- ----<br>-------- ------- -- ---------- --- - --- ----- ----- ----<br>---- --- --- ----- --- ---- ---- ------- ----- ---- -------<br>--- --- -- ----- -- --- ---- -- --- ---- -- ------ ------<br>--- ----- -- ----,65226.10000008717,65225.384999997914,65194.265,65194.98999998905,65210.987,65244.347,,15,close
screen,html.Screen,1_1_0_1_16,2021-04-08T16:49:32.742Z,,,,,,,,,,,,,,,,53,,,,,,,,,,,,,,10.893000085903623,,response,,,,99,,,,,,,Space,keypress(Space),,,,,,,,---- -- ----- -- ------ - ------- --- ----------<br>------------- ------ ------ ---- ---- ------- ----- to ----<br>-------- ------- -- ---------- --- - --- ----- ----- ----<br>---- --- --- ----- --- ---- ---- ------- ----- ---- -------<br>--- --- -- ----- -- --- ---- -- --- ---- -- ------ ------<br>--- ----- -- ----,65255.940000060946,65255.240000085905,65227.621,65226.34500009008,65244.347,65277.694,,16,to
screen,html.Screen,1_1_0_1_17,2021-04-08T16:49:32.774Z,,,,,,,,,,,,,,,,53,,,,,,,,,,,,,,8.77100012837036,,response,,,,99,,,,,,,Space,keypress(Space),,,,,,,,---- -- ----- -- ------ - ------- --- ----------<br>------------- ------ ------ ---- ---- ------- ----- -- your<br>-------- ------- -- ---------- --- - --- ----- ----- ----<br>---- --- --- ----- --- ---- ---- ------- ----- ---- -------<br>--- --- -- ----- -- --- ---- -- --- ---- -- ------ ------<br>--- ----- -- ----,65287.1799999848,65286.46500012837,65260.971,65256.17499998771,65277.694,65311.047,,17,your
screen,html.Screen,1_1_0_1_18,2021-04-08T16:49:32.804Z,,,,,,,,,,,,,,,,53,,,,,,,,,,,,,,5.903000124053506,,response,,,,99,,,,,,,Space,keypress(Space),,,,,,,,---- -- ----- -- ------ - ------- --- ----------<br>------------- ------ ------ ---- ---- ------- ----- -- ----<br>romantic ------- -- ---------- --- - --- ----- ----- ----<br>---- --- --- ----- --- ---- ---- ------- ----- ---- -------<br>--- --- -- ----- -- --- ---- -- --- ---- -- ------ ------<br>--- ----- -- ----,65317.61000002734,65316.95000012405,65294.332,65287.42499998771,65311.047,65344.398,,18,romantic
screen,html.Screen,1_1_0_1_19,2021-04-08T16:49:32.836Z,,,,,,,,,,,,,,,,53,,,,,,,,,,,,,,4.132000075696851,,response,,,,99,,,,,,,Space,keypress(Space),,,,,,,,---- -- ----- -- ------ - ------- --- ----------<br>------------- ------ ------ ---- ---- ------- ----- -- ----<br>-------- partner -- ---------- --- - --- ----- ----- ----<br>---- --- --- ----- --- ---- ---- ------- ----- ---- -------<br>--- --- -- ----- -- --- ---- -- --- ---- -- ------ ------<br>--- ----- -- ----,65349.21999997459,65348.5300000757,65327.7,65317.84000014886,65344.398,65377.741,,19,partner
screen,html.Screen,1_1_0_1_20,2021-04-08T16:49:32.883Z,,,,,,,,,,,,,,,,53,,,,,,,,,,,,,,17.899000002456887,,response,,,,99,,,,,,,Space,keypress(Space),,,,,,,,---- -- ----- -- ------ - ------- --- ----------<br>------------- ------ ------ ---- ---- ------- ----- -- ----<br>-------- ------- is ---------- --- - --- ----- ----- ----<br>---- --- --- ----- --- ---- ---- ------- ----- ---- -------<br>--- --- -- ----- -- --- ---- -- --- ---- -- ------ ------<br>--- ----- -- ----,65396.35500009172,65395.64000000246,65361.037,65349.47000001557,65377.741,65411.118,,20,is
screen,html.Screen,1_1_0_1_21,2021-04-08T16:49:32.913Z,,,,,,,,,,,,,,,,53,,,,,,,,,,,,,,14.78700018559175,,response,,,,99,,,,,,,Space,keypress(Space),,,,,,,,---- -- ----- -- ------ - ------- --- ----------<br>------------- ------ ------ ---- ---- ------- ----- -- ----<br>-------- ------- -- paramount. --- - --- ----- ----- ----<br>---- --- --- ----- --- ---- ---- ------- ----- ---- -------<br>--- --- -- ----- -- --- ---- -- --- ---- -- ------ ------<br>--- ----- -- ----,65426.61500000395,65425.905000185594,65394.392,65396.59500005655,65411.118,65444.468,,21,paramount.
screen,html.Screen,1_1_0_1_22,2021-04-08T16:49:32.944Z,,,,,,,,,,,,,,,,53,,,,,,,,,,,,,,12.411999954252678,,response,,,,99,,,,,,,Space,keypress(Space),,,,,,,,---- -- ----- -- ------ - ------- --- ----------<br>------------- ------ ------ ---- ---- ------- ----- -- ----<br>-------- ------- -- ---------- But - --- ----- ----- ----<br>---- --- --- ----- --- ---- ---- ------- ----- ---- -------<br>--- --- -- ----- -- --- ---- -- --- ---- -- ------ ------<br>--- ----- -- ----,65457.57000008598,65456.87999995425,65427.753,65426.84500012547,65444.468,65477.824,,22,But
screen,html.Screen,1_1_0_1_23,2021-04-08T16:49:32.976Z,,,,,,,,,,,,,,,,53,,,,,,,,,,,,,,11.156000140144897,,response,,,,99,,,,,,,Space,keypress(Space),,,,,,,,---- -- ----- -- ------ - ------- --- ----------<br>------------- ------ ------ ---- ---- ------- ----- -- ----<br>-------- ------- -- ---------- --- a --- ----- ----- ----<br>---- --- --- ----- --- ---- ---- ------- ----- ---- -------<br>--- --- -- ----- -- --- ---- -- --- ---- -- ------ ------<br>--- ----- -- ----,65489.62500016205,65488.980000140145,65461.107,65457.80500001274,65477.824,65511.181,,23,a
screen,html.Screen,1_1_0_1_24,2021-04-08T16:49:33.007Z,,,,,,,,,,,,,,,,53,,,,,,,,,,,,,,8.834000132846995,,response,,,,99,,,,,,,Space,keypress(Space),,,,,,,,---- -- ----- -- ------ - ------- --- ----------<br>------------- ------ ------ ---- ---- ------- ----- -- ----<br>-------- ------- -- ---------- --- - new ----- ----- ----<br>---- --- --- ----- --- ---- ---- ------- ----- ---- -------<br>--- --- -- ----- -- --- ---- -- --- ---- -- ------ ------<br>--- ----- -- ----,65520.70500003174,65520.015000132844,65494.474,65489.86000008881,65511.181,65544.537,,24,new
screen,html.Screen,1_1_0_1_25,2021-04-08T16:49:33.037Z,,,,,,,,,,,,,,,,53,,,,,,,,,,,,,,5.727999968934455,,response,,,,99,,,,,,,Space,keypress(Space),,,,,,,,---- -- ----- -- ------ - ------- --- ----------<br>------------- ------ ------ ---- ---- ------- ----- -- ----<br>-------- ------- -- ---------- --- - --- study ----- ----<br>---- --- --- ----- --- ---- ---- ------- ----- ---- -------<br>--- --- -- ----- -- --- ---- -- --- ---- -- ------ ------<br>--- ----- -- ----,65550.92500010505,65550.26499996893,65527.828,65520.94499999657,65544.537,65577.878,,25,study
screen,html.Screen,1_1_0_1_26,2021-04-08T16:49:33.068Z,,,,,,,,,,,,,,,,53,,,,,,,,,,,,,,2.6370000378519762,,response,,,,99,,,,,,,Space,keypress(Space),,,,,,,,---- -- ----- -- ------ - ------- --- ----------<br>------------- ------ ------ ---- ---- ------- ----- -- ----<br>-------- ------- -- ---------- --- - --- ----- finds ----<br>---- --- --- ----- --- ---- ---- ------- ----- ---- -------<br>--- --- -- ----- -- --- ---- -- --- ---- -- ------ ------<br>--- ----- -- ----,65581.2450000085,65580.51500003785,65561.173,65551.16500006989,65577.878,65611.196,,26,finds
screen,html.Screen,1_1_0_1_27,2021-04-08T16:49:33.115Z,,,,,,,,,,,,,,,,53,,,,,,,,,,,,,,16.218999995384365,,response,,,,99,,,,,,,Space,keypress(Space),,,,,,,,---- -- ----- -- ------ - ------- --- ----------<br>------------- ------ ------ ---- ---- ------- ----- -- ----<br>-------- ------- -- ---------- --- - --- ----- ----- that<br>---- --- --- ----- --- ---- ---- ------- ----- ---- -------<br>--- --- -- ----- -- --- ---- -- --- ---- -- ------ ------<br>--- ----- -- ----,65628.28500010073,65627.41499999538,65594.535,65581.48499997333,65611.196,65644.595,,27,that
screen,html.Screen,1_1_0_1_28,2021-04-08T16:49:33.146Z,,,,,,,,,,,,,,,,53,,,,,,,,,,,,,,14.175000096409349,,response,,,,99,,,,,,,Space,keypress(Space),,,,,,,,---- -- ----- -- ------ - ------- --- ----------<br>------------- ------ ------ ---- ---- ------- ----- -- ----<br>-------- ------- -- ---------- --- - --- ----- ----- ----<br>it's --- --- ----- --- ---- ---- ------- ----- ---- -------<br>--- --- -- ----- -- --- ---- -- --- ---- -- ------ ------<br>--- ----- -- ----,65659.47500010952,65658.77000009641,65627.841,65628.53000010364,65644.595,65677.957,,28,it's
screen,html.Screen,1_1_0_1_29,2021-04-08T16:49:33.176Z,,,,,,,,,,,,,,,,53,,,,,,,,,,,,,,10.84300011995947,,response,,,,99,,,,,,,Space,keypress(Space),,,,,,,,---- -- ----- -- ------ - ------- --- ----------<br>------------- ------ ------ ---- ---- ------- ----- -- ----<br>-------- ------- -- ---------- --- - --- ----- ----- ----<br>---- not --- ----- --- ---- ---- ------- ----- ---- -------<br>--- --- -- ----- -- --- ---- -- --- ---- -- ------ ------<br>--- ----- -- ----,65689.46500006132,65688.80000011995,65661.237,65659.71500007436,65677.957,65711.31,,29,not
screen,html.Screen,1_1_0_1_30,2021-04-08T16:49:33.207Z,,,,,,,,,,,,,,,,53,,,,,,,,,,,,,,8.480000002833549,,response,,,,99,,,,,,,Space,keypress(Space),,,,,,,,---- -- ----- -- ------ - ------- --- ----------<br>------------- ------ ------ ---- ---- ------- ----- -- ----<br>-------- ------- -- ---------- --- - --- ----- ----- ----<br>---- --- how ----- --- ---- ---- ------- ----- ---- -------<br>--- --- -- ----- -- --- ---- -- --- ---- -- ------ ------<br>--- ----- -- ----,65720.45000013895,65719.79000000283,65694.594,65689.69500018284,65711.31,65744.659,,30,how
screen,html.Screen,1_1_0_1_31,2021-04-08T16:49:33.238Z,,,,,,,,,,,,,,,,53,,,,,,,,,,,,,,5.795999972135178,,response,,,,99,,,,,,,Space,keypress(Space),,,,,,,,---- -- ----- -- ------ - ------- --- ----------<br>------------- ------ ------ ---- ---- ------- ----- -- ----<br>-------- ------- -- ---------- --- - --- ----- ----- ----<br>---- --- --- close --- ---- ---- ------- ----- ---- -------<br>--- --- -- ----- -- --- ---- -- --- ---- -- ------ ------<br>--- ----- -- ----,65751.06999999844,65750.45499997213,65727.945,65720.68000002764,65744.659,65778.019,,31,close
screen,html.Screen,1_1_0_1_32,2021-04-08T16:49:33.268Z,,,,,,,,,,,,,,,,53,,,,,,,,,,,,,,2.7160000366566237,,response,,,,99,,,,,,,Space,keypress(Space),,,,,,,,---- -- ----- -- ------ - ------- --- ----------<br>------------- ------ ------ ---- ---- ------- ----- -- ----<br>-------- ------- -- ---------- --- - --- ----- ----- ----<br>---- --- --- ----- you ---- ---- ------- ----- ---- -------<br>--- --- -- ----- -- --- ---- -- --- ---- -- ------ ------<br>--- ----- -- ----,65781.41500009224,65780.73500003666,65761.301,65751.28500000574,65778.019,65811.368,,32,you
screen,html.Screen,1_1_0_1_33,2021-04-08T16:49:33.299Z,,,,,,,,,,,,,,,,53,,,,,,,,,,,,,,0.23200013187306467,,response,,,,99,,,,,,,Space,keypress(Space),,,,,,,,---- -- ----- -- ------ - ------- --- ----------<br>------------- ------ ------ ---- ---- ------- ----- -- ----<br>-------- ------- -- ---------- --- - --- ----- ----- ----<br>---- --- --- ----- --- feel ---- ------- ----- ---- -------<br>--- --- -- ----- -- --- ---- -- --- ---- -- ------ ------<br>--- ----- -- ----,65812.44500004686,65811.60000013188,65794.67,65781.64000017568,65811.368,65844.732,,33,feel
screen,html.Screen,1_1_0_1_34,2021-04-08T16:49:33.345Z,,,,,,,,,,,,,,,,53,,,,,,,,,,,,,,12.993000008937088,,response,,,,99,,,,,,,Space,keypress(Space),,,,,,,,---- -- ----- -- ------ - ------- --- ----------<br>------------- ------ ------ ---- ---- ------- ----- -- ----<br>-------- ------- -- ---------- --- - --- ----- ----- ----<br>---- --- --- ----- --- ---- that ------- ----- ---- -------<br>--- --- -- ----- -- --- ---- -- --- ---- -- ------ ------<br>--- ----- -- ----,65858.37500006892,65857.72500000894,65828.037,65812.66000005417,65844.732,65878.085,,34,that
screen,html.Screen,1_1_0_1_35,2021-04-08T16:49:33.377Z,,,,,,,,,,,,,,,,53,,,,,,,,,,,,,,11.720000042536412,,response,,,,99,,,,,,,Space,keypress(Space),,,,,,,,---- -- ----- -- ------ - ------- --- ----------<br>------------- ------ ------ ---- ---- ------- ----- -- ----<br>-------- ------- -- ---------- --- - --- ----- ----- ----<br>---- --- --- ----- --- ---- ---- matters ----- ---- -------<br>--- --- -- ----- -- --- ---- -- --- ---- -- ------ ------<br>--- ----- -- ----,65890.53500001319,65889.80500004254,65861.306,65858.59500011429,65878.085,65911.447,,35,matters
screen,html.Screen,1_1_0_1_36,2021-04-08T16:49:33.409Z,,,,,,,,,,,,,,,,53,,,,,,,,,,,,,,10.203000149384025,,response,,,,99,,,,,,,Space,keypress(Space),,,,,,,,"---- -- ----- -- ------ - ------- --- ----------<br>------------- ------ ------ ---- ---- ------- ----- -- ----<br>-------- ------- -- ---------- --- - --- ----- ----- ----<br>---- --- --- ----- --- ---- ---- ------- most, ---- -------<br>--- --- -- ----- -- --- ---- -- --- ---- -- ------ ------<br>--- ----- -- ----",65922.35000012442,65921.65000014938,65894.732,65890.77000017278,65911.447,65944.799,,36,"most,"
screen,html.Screen,1_1_0_1_37,2021-04-08T16:49:33.440Z,,,,,,,,,,,,,,,,53,,,,,,,,,,,,,,8.026000043959357,,response,,,,99,,,,,,,Space,keypress(Space),,,,,,,,---- -- ----- -- ------ - ------- --- ----------<br>------------- ------ ------ ---- ---- ------- ----- -- ----<br>-------- ------- -- ---------- --- - --- ----- ----- ----<br>---- --- --- ----- --- ---- ---- ------- ----- it's -------<br>--- --- -- ----- -- --- ---- -- --- ---- -- ------ ------<br>--- ----- -- ----,65953.51000013761,65952.82500004396,65928.081,65922.58000001311,65944.799,65978.153,,37,it's
screen,html.Screen,1_1_0_1_38,2021-04-08T16:49:33.471Z,,,,,,,,,,,,,,,,53,,,,,,,,,,,,,,5.662000159660238,,response,,,,99,,,,,,,Space,keypress(Space),,,,,,,,---- -- ----- -- ------ - ------- --- ----------<br>------------- ------ ------ ---- ---- ------- ----- -- ----<br>-------- ------- -- ---------- --- - --- ----- ----- ----<br>---- --- --- ----- --- ---- ---- ------- ----- ---- whether<br>--- --- -- ----- -- --- ---- -- --- ---- -- ------ ------<br>--- ----- -- ----,65984.50000002049,65983.81500015967,65961.437,65953.73499998823,65978.153,66011.507,,38,whether
screen,html.Screen,1_1_0_1_39,2021-04-08T16:49:33.503Z,,,,,,,,,,,,,,,,53,,,,,,,,,,,,,,4.093000042470521,,response,,,,99,,,,,,,Space,keypress(Space),,,,,,,,---- -- ----- -- ------ - ------- --- ----------<br>------------- ------ ------ ---- ---- ------- ----- -- ----<br>-------- ------- -- ---------- --- - --- ----- ----- ----<br>---- --- --- ----- --- ---- ---- ------- ----- ---- -------<br>you --- -- ----- -- --- ---- -- --- ---- -- ------ ------<br>--- ----- -- ----,66016.19999995455,66015.60000004247,65994.79,65984.72500010394,66011.507,66044.861,,39,you
screen,html.Screen,1_1_0_1_40,2021-04-08T16:49:33.534Z,,,,,,,,,,,,,,,,53,,,,,,,,,,,,,,1.9440001654729713,,response,,,,99,,,,,,,Space,keypress(Space),,,,,,,,---- -- ----- -- ------ - ------- --- ----------<br>------------- ------ ------ ---- ---- ------- ----- -- ----<br>-------- ------- -- ---------- --- - --- ----- ----- ----<br>---- --- --- ----- --- ---- ---- ------- ----- ---- -------<br>--- are -- ----- -- --- ---- -- --- ---- -- ------ ------<br>--- ----- -- ----,66047.62500012293,66046.80500016548,66028.144,66016.425000038,66044.861,66078.237,,40,are
screen,html.Screen,1_1_0_1_41,2021-04-08T16:49:33.568Z,,,,,,,,,,,,,,,,53,,,,,,,,,,,,,,16.563000046866364,,response,,,,99,,,,,,,Space,keypress(Space),,,,,,,,---- -- ----- -- ------ - ------- --- ----------<br>------------- ------ ------ ---- ---- ------- ----- -- ----<br>-------- ------- -- ---------- --- - --- ----- ----- ----<br>---- --- --- ----- --- ---- ---- ------- ----- ---- -------<br>--- --- as ----- -- --- ---- -- --- ---- -- ------ ------<br>--- ----- -- ----,66081.68000006117,66078.07000004686,66061.507,66047.8600000497,,66094.893,,41,as
screen,html.Screen,1_1_0_1_42,2021-04-08T16:49:33.596Z,,,,,,,,,,,,,,,,53,,,,,,,,,,,,,,13.222000184628996,,response,,,,99,,,,,,,Space,keypress(Space),,,,,,,,---- -- ----- -- ------ - ------- --- ----------<br>------------- ------ ------ ---- ---- ------- ----- -- ----<br>-------- ------- -- ---------- --- - --- ----- ----- ----<br>---- --- --- ----- --- ---- ---- ------- ----- ---- -------<br>--- --- -- close -- --- ---- -- --- ---- -- ------ ------<br>--- ----- -- ----,66109.22500002198,66108.11500018463,66078.237,66081.93000010215,66094.893,66128.247,,42,close
screen,html.Screen,1_1_0_1_43,2021-04-08T16:49:33.644Z,,,,,,,,,,,,,,,,53,,,,,,,,,,,,,,28.058000185963465,,response,,,,99,,,,,,,Space,keypress(Space),,,,,,,,---- -- ----- -- ------ - ------- --- ----------<br>------------- ------ ------ ---- ---- ------- ----- -- ----<br>-------- ------- -- ---------- --- - --- ----- ----- ----<br>---- --- --- ----- --- ---- ---- ------- ----- ---- -------<br>--- --- -- ----- as --- ---- -- --- ---- -- ------ ------<br>--- ----- -- ----,66157.10000018589,66156.30500018597,66111.491,66109.45000010543,66128.247,66178.293,,43,as
screen,html.Screen,1_1_0_1_44,2021-04-08T16:49:33.675Z,,,,,,,,,,,,,,,,53,,,,,,,,,,,,,,9.00700010691071,,response,,,,99,,,,,,,Space,keypress(Space),,,,,,,,---- -- ----- -- ------ - ------- --- ----------<br>------------- ------ ------ ---- ---- ------- ----- -- ----<br>-------- ------- -- ---------- --- - --- ----- ----- ----<br>---- --- --- ----- --- ---- ---- ------- ----- ---- -------<br>--- --- -- ----- -- you ---- -- --- ---- -- ------ ------<br>--- ----- -- ----,66188.20500001311,66187.30000010692,66161.57,66157.31999999844,66178.293,66211.589,,44,you
screen,html.Screen,1_1_0_1_45,2021-04-08T16:49:33.706Z,,,,,,,,,,,,,,,,53,,,,,,,,,,,,,,6.801000052742893,,response,,,,99,,,,,,,Space,keypress(Space),,,,,,,,---- -- ----- -- ------ - ------- --- ----------<br>------------- ------ ------ ---- ---- ------- ----- -- ----<br>-------- ------- -- ---------- --- - --- ----- ----- ----<br>---- --- --- ----- --- ---- ---- ------- ----- ---- -------<br>--- --- -- ----- -- --- want -- --- ---- -- ------ ------<br>--- ----- -- ----,66219.14000017568,66218.39000005275,66194.927,66188.42500005849,66211.589,66244.991,,45,want
screen,html.Screen,1_1_0_1_46,2021-04-08T16:49:33.737Z,,,,,,,,,,,,,,,,53,,,,,,,,,,,,,,4.734000001495588,,response,,,,99,,,,,,,Space,keypress(Space),,,,,,,,---- -- ----- -- ------ - ------- --- ----------<br>------------- ------ ------ ---- ---- ------- ----- -- ----<br>-------- ------- -- ---------- --- - --- ----- ----- ----<br>---- --- --- ----- --- ---- ---- ------- ----- ---- -------<br>--- --- -- ----- -- --- ---- to --- ---- -- ------ ------<br>--- ----- -- ----,66250.37500006147,66249.72500000149,66228.279,66219.35500018299,66244.991,66278.346,,46,to
screen,html.Screen,1_1_0_1_47,2021-04-08T16:49:33.767Z,,,,,,,,,,,,,,,,53,,,,,,,,,,,,,,1.9239999883720884,,response,,,,99,,,,,,,Space,keypress(Space),,,,,,,,"---- -- ----- -- ------ - ------- --- ----------<br>------------- ------ ------ ---- ---- ------- ----- -- ----<br>-------- ------- -- ---------- --- - --- ----- ----- ----<br>---- --- --- ----- --- ---- ---- ------- ----- ---- -------<br>--- --- -- ----- -- --- ---- -- be, ---- -- ------ ------<br>--- ----- -- ----",66280.89500009082,66280.26999998838,66261.633,66250.59000006877,66278.346,66311.707,,47,"be,"
screen,html.Screen,1_1_0_1_48,2021-04-08T16:49:33.798Z,,,,,,,,,,,,,,,,53,,,,,,,,,,,,,,15.665000153923756,,response,,,,99,,,,,,,Space,keypress(Space),,,,,,,,---- -- ----- -- ------ - ------- --- ----------<br>------------- ------ ------ ---- ---- ------- ----- -- ----<br>-------- ------- -- ---------- --- - --- ----- ----- ----<br>---- --- --- ----- --- ---- ---- ------- ----- ---- -------<br>--- --- -- ----- -- --- ---- -- --- even -- ------ ------<br>--- ----- -- ----,66311.31500005722,66310.65500015393,66294.99,66281.12000017427,,66328.382,,48,even
screen,html.Screen,1_1_0_1_49,2021-04-08T16:49:33.829Z,,,,,,,,,,,,,,,,53,,,,,,,,,,,,,,13.548000111462898,,response,,,,99,,,,,,,Space,keypress(Space),,,,,,,,---- -- ----- -- ------ - ------- --- ----------<br>------------- ------ ------ ---- ---- ------- ----- -- ----<br>-------- ------- -- ---------- --- - --- ----- ----- ----<br>---- --- --- ----- --- ---- ---- ------- ----- ---- -------<br>--- --- -- ----- -- --- ---- -- --- ---- if ------ ------<br>--- ----- -- ----,66342.53500006162,66341.93000011146,66311.707,66311.53000006452,66328.382,66361.752,,49,if
screen,html.Screen,1_1_0_1_50,2021-04-08T16:49:33.859Z,,,,,,,,,,,,,,,,53,,,,,,,,,,,,,,9.878000183365657,,response,,,,99,,,,,,,Space,keypress(Space),,,,,,,,---- -- ----- -- ------ - ------- --- ----------<br>------------- ------ ------ ---- ---- ------- ----- -- ----<br>-------- ------- -- ---------- --- - --- ----- ----- ----<br>---- --- --- ----- --- ---- ---- ------- ----- ---- -------<br>--- --- -- ----- -- --- ---- -- --- ---- -- that's ------<br>--- ----- -- ----,66372.2800000105,66371.63000018336,66345.019,66342.76000014506,66361.752,66395.09,,50,that's
screen,html.Screen,1_1_0_1_51,2021-04-08T16:49:33.906Z,,,,,,,,,,,,,,,,53,,,,,,,,,,,,,,23.844999965134775,,response,,,,99,,,,,,,Space,keypress(Space),,,,,,,,---- -- ----- -- ------ - ------- --- ----------<br>------------- ------ ------ ---- ---- ------- ----- -- ----<br>-------- ------- -- ---------- --- - --- ----- ----- ----<br>---- --- --- ----- --- ---- ---- ------- ----- ---- -------<br>--- --- -- ----- -- --- ---- -- --- ---- -- ------ really<br>--- ----- -- ----,66419.75999996066,66418.93499996513,66378.374,66372.48999997973,66395.09,66445.129,,51,really
screen,html.Screen,1_1_0_1_52,2021-04-08T16:49:33.937Z,,,,,,,,,,,,,,,,53,,,,,,,,,,,,,,4.840999957828899,,response,,,,99,,,,,,,Space,keypress(Space),,,,,,,,---- -- ----- -- ------ - ------- --- ----------<br>------------- ------ ------ ---- ---- ------- ----- -- ----<br>-------- ------- -- ---------- --- - --- ----- ----- ----<br>---- --- --- ----- --- ---- ---- ------- ----- ---- -------<br>--- --- -- ----- -- --- ---- -- --- ---- -- ------ ------<br>not ----- -- ----,66450.78000007197,66449.96999995783,66428.42,66419.98500004411,66445.129,66478.484,,52,not
screen,html.Screen,1_1_0_1_53,2021-04-08T16:49:33.969Z,,,,,,,,,,,,,,,,53,,,,,,,,,,,,,,3.7410001598182134,,response,,,,99,,,,,,,Space,keypress(Space),,,,,,,,---- -- ----- -- ------ - ------- --- ----------<br>------------- ------ ------ ---- ---- ------- ----- -- ----<br>-------- ------- -- ---------- --- - --- ----- ----- ----<br>---- --- --- ----- --- ---- ---- ------- ----- ---- -------<br>--- --- -- ----- -- --- ---- -- --- ---- -- ------ ------<br>--- close -- ----,66482.93499997817,66482.22500015981,66461.784,66450.9900000412,66478.484,66511.842,,53,close
screen,html.Screen,1_1_0_1_54,2021-04-08T16:49:34.002Z,,,,,,,,,,,,,,,,53,,,,,,,,,,,,,,2.54300010408042,,response,,,,99,,,,,,,Space,keypress(Space),,,,,,,,---- -- ----- -- ------ - ------- --- ----------<br>------------- ------ ------ ---- ---- ------- ----- -- ----<br>-------- ------- -- ---------- --- - --- ----- ----- ----<br>---- --- --- ----- --- ---- ---- ------- ----- ---- -------<br>--- --- -- ----- -- --- ---- -- --- ---- -- ------ ------<br>--- ----- at ----,66515.1200001128,66514.38500010408,66495.129,66483.14999998547,66511.842,66545.193,,54,at
screen,html.Screen,1_1_0_1_55,2021-04-08T16:49:34.032Z,,,,,,,,,,,,,,,,53,,,,,,,,,,,,,,16.436000137837254,,response,,,,99,,,,,,,Space,keypress(Space),,,,,,,,---- -- ----- -- ------ - ------- --- ----------<br>------------- ------ ------ ---- ---- ------- ----- -- ----<br>-------- ------- -- ---------- --- - --- ----- ----- ----<br>---- --- --- ----- --- ---- ---- ------- ----- ---- -------<br>--- --- -- ----- -- --- ---- -- --- ---- -- ------ ------<br>--- ----- -- all.,66545.96000001766,66544.87500013784,66528.439,66515.33000008203,,66561.841,,55,all.
Item 99,flow.Loop,1_1_0_1,2021-04-08T16:49:34.033Z,,,,,,,,,,,,,,,,,,,,,,,,,,,,,,3235.184000137837,,completion,,,,,F,,,,,,,,,,,silence,,,,,66546.38499999419,66544.87500013784,63276.335,63277.33000018634,63309.691,66561.841,,,
Question 1,html.Screen,1_1_0_2,2021-04-08T16:49:35.034Z,,,,,,,,,,,,,,,,,,,,,,,,,,,false,FALSE,,984.7889999970939,,response,,,,99,F,,,,,,TRUE,click #choice-1,,,,silence,,,,,67547.79500002041,67546.6299999971,66545.193,66546.59000015818,66561.841,67562.512,,,
Question 2,html.Screen,1_1_0_3,2021-04-08T16:49:35.282Z,,,,,,,,,,,,,,,,,,,,,,,,,,,true,TRUE,,232.11800013492757,,response,,,,99,F,,,,,,TRUE,click #choice-1,,,,silence,,,,,67795.71500001475,67794.63000013493,67545.809,67548.09499997646,67562.512,67818.767,,,
Item 99,flow.Sequence,1_1_0,2021-04-08T16:49:35.283Z,,,,,,,,,,,,,,,,,,,,,,,,,,,,,,14508.178000134933,,completion,,,,,,,,,,,,,,,,,,,,,67796.1049999576,67794.63000013493,53269.769,53281.15000016987,53286.452,67818.767,,,
Holding screen,html.Screen,1_1_1_0,2021-04-08T16:49:45.291Z,,,,,,,,,,,,,,,,,,,,,,,,,,,,,,10000.342999999993,,timeout,,,,,,,,,,,,,,,,,,,,,77804.26500015892,77802.543,67779.293,67796.34999996051,67818.767,77819.11,,,
screen,html.Screen,1_1_1_1_0,2021-04-08T16:49:45.728Z,,,,,,,,,,,,,,,,54,,,,,,,,,,,,,,421.98000014141144,,response,,,,100,,,,,,,Space,keypress(Space),,,,,,,,At --- ---- --- ------ ----- ------- ---- -- --- ------- --<br>------- ---------- ------ -- ----- -- ----- -- ---- ------<br>--- ----- --- --- ------ -------- ----- --- ------ ----- --<br>----- ----- ---------- --- --- ------ ------ ---- -- ------<br>------- --- ------ ----- --- ---- ------- -- ---- --- --<br>------- ------,78241.96000001393,78241.09000014141,77802.543,77804.54499996267,77819.11,78252.824,,0,At
screen,html.Screen,1_1_1_1_1,2021-04-08T16:49:46.234Z,,,,,,,,,,,,,,,,54,,,,,,,,,,,,,,493.896000170178,,response,,,,100,,,,,,,Space,keypress(Space),,,,,,,,-- the ---- --- ------ ----- ------- ---- -- --- ------- --<br>------- ---------- ------ -- ----- -- ----- -- ---- ------<br>--- ----- --- --- ------ -------- ----- --- ------ ----- --<br>----- ----- ---------- --- --- ------ ------ ---- -- ------<br>------- --- ------ ----- --- ---- ------- -- ---- --- --<br>------- ------,78747.45000014082,78746.72000017017,78236.214,78242.22000013106,78252.824,78753.124,,1,the
screen,html.Screen,1_1_1_1_2,2021-04-08T16:49:46.265Z,,,,,,,,,,,,,,,,54,,,,,,,,,,,,,,24.22100006772962,,response,,,,100,,,,,,,Space,keypress(Space),,,,,,,,-- --- time --- ------ ----- ------- ---- -- --- ------- --<br>------- ---------- ------ -- ----- -- ----- -- ---- ------<br>--- ----- --- --- ------ -------- ----- --- ------ ----- --<br>----- ----- ---------- --- --- ------ ------ ---- -- ------<br>------- --- ------ ----- --- ---- ------- -- ---- --- --<br>------- ------,78778.01000000909,78777.34500006773,78736.552,78747.6800000295,78753.124,78786.506,,2,time
screen,html.Screen,1_1_1_1_3,2021-04-08T16:49:46.296Z,,,,,,,,,,,,,,,,54,,,,,,,,,,,,,,22.628999988606665,,response,,,,100,,,,,,,Space,keypress(Space),,,,,,,,-- --- ---- the ------ ----- ------- ---- -- --- ------- --<br>------- ---------- ------ -- ----- -- ----- -- ---- ------<br>--- ----- --- --- ------ -------- ----- --- ------ ----- --<br>----- ----- ---------- --- --- ------ ------ ---- -- ------<br>------- --- ------ ----- --- ---- ------- -- ---- --- --<br>------- ------,78809.91000006907,78809.1349999886,78769.89,78778.22500001639,78786.506,78819.805,,3,the
screen,html.Screen,1_1_1_1_4,2021-04-08T16:49:46.327Z,,,,,,,,,,,,,,,,54,,,,,,,,,,,,,,20.145000168762635,,response,,,,100,,,,,,,Space,keypress(Space),,,,,,,,-- --- ---- --- French ----- ------- ---- -- --- ------- --<br>------- ---------- ------ -- ----- -- ----- -- ---- ------<br>--- ----- --- --- ------ -------- ----- --- ------ ----- --<br>----- ----- ---------- --- --- ------ ------ ---- -- ------<br>------- --- ------ ----- --- ---- ------- -- ---- --- --<br>------- ------,78840.61000007205,78839.95000016876,78803.205,78810.13500015251,78819.805,78853.282,,4,French
screen,html.Screen,1_1_1_1_5,2021-04-08T16:49:46.374Z,,,,,,,,,,,,,,,,54,,,,,,,,,,,,,,33.31300004723016,,response,,,,100,,,,,,,Space,keypress(Space),,,,,,,,-- --- ---- --- ------ crown ------- ---- -- --- ------- --<br>------- ---------- ------ -- ----- -- ----- -- ---- ------<br>--- ----- --- --- ------ -------- ----- --- ------ ----- --<br>----- ----- ---------- --- --- ------ ------ ---- -- ------<br>------- --- ------ ----- --- ---- ------- -- ---- --- --<br>------- ------,78887.27000006475,78886.59500004724,78836.562,78840.82000004128,78853.282,78919.987,,5,crown
screen,html.Screen,1_1_1_1_6,2021-04-08T16:49:46.404Z,,,,,,,,,,,,,,,,54,,,,,,,,,,,,,,13.662000064898166,,response,,,,100,,,,,,,Space,keypress(Space),,,,,,,,-- --- ---- --- ------ ----- secured ---- -- --- ------- --<br>------- ---------- ------ -- ----- -- ----- -- ---- ------<br>--- ----- --- --- ------ -------- ----- --- ------ ----- --<br>----- ----- ---------- --- --- ------ ------ ---- -- ------<br>------- --- ------ ----- --- ---- ------- -- ---- --- --<br>------- ------,78917.61500015855,78916.9300000649,78903.268,78887.49000011012,,78936.662,,6,secured
screen,html.Screen,1_1_1_1_7,2021-04-08T16:49:46.434Z,,,,,,,,,,,,,,,,54,,,,,,,,,,,,,,10.548000129419961,,response,,,,100,,,,,,,Space,keypress(Space),,,,,,,,-- --- ---- --- ------ ----- ------- much -- --- ------- --<br>------- ---------- ------ -- ----- -- ----- -- ---- ------<br>--- ----- --- --- ------ -------- ----- --- ------ ----- --<br>----- ----- ---------- --- --- ------ ------ ---- -- ------<br>------- --- ------ ----- --- ---- ------- -- ---- --- --<br>------- ------,78947.8100000415,78947.21000012942,78919.987,78917.83499997109,78936.662,78970.014,,7,much
screen,html.Screen,1_1_1_1_8,2021-04-08T16:49:46.466Z,,,,,,,,,,,,,,,,54,,,,,,,,,,,,,,8.601000145514263,,response,,,,100,,,,,,,Space,keypress(Space),,,,,,,,-- --- ---- --- ------ ----- ------- ---- of --- ------- --<br>------- ---------- ------ -- ----- -- ----- -- ---- ------<br>--- ----- --- --- ------ -------- ----- --- ------ ----- --<br>----- ----- ---------- --- --- ------ ------ ---- -- ------<br>------- --- ------ ----- --- ---- ------- -- ---- --- --<br>------- ------,78979.29000016302,78978.61500014551,78953.301,78948.02000001073,78970.014,79003.319,,8,of
screen,html.Screen,1_1_1_1_9,2021-04-08T16:49:46.497Z,,,,,,,,,,,,,,,,54,,,,,,,,,,,,,,6.866000021007494,,response,,,,100,,,,,,,Space,keypress(Space),,,,,,,,-- --- ---- --- ------ ----- ------- ---- -- its ------- --<br>------- ---------- ------ -- ----- -- ----- -- ---- ------<br>--- ----- --- --- ------ -------- ----- --- ------ ----- --<br>----- ----- ---------- --- --- ------ ------ ---- -- ------<br>------- --- ------ ----- --- ---- ------- -- ---- --- --<br>------- ------,79010.80000004731,79010.18500002101,78986.673,78979.50000013225,79003.319,79036.727,,9,its
screen,html.Screen,1_1_1_1_10,2021-04-08T16:49:46.529Z,,,,,,,,,,,,,,,,54,,,,,,,,,,,,,,4.7830001264374005,,response,,,,100,,,,,,,Space,keypress(Space),,,,,,,,-- --- ---- --- ------ ----- ------- ---- -- --- revenue --<br>------- ---------- ------ -- ----- -- ----- -- ---- ------<br>--- ----- --- --- ------ -------- ----- --- ------ ----- --<br>----- ----- ---------- --- --- ------ ------ ---- -- ------<br>------- --- ------ ----- --- ---- ------- -- ---- --- --<br>------- ------,79042.16499999166,79041.51000012644,79020.013,79011.01500005461,79036.727,79070.081,,10,revenue
screen,html.Screen,1_1_1_1_11,2021-04-08T16:49:46.561Z,,,,,,,,,,,,,,,,54,,,,,,,,,,,,,,3.5040001219604164,,response,,,,100,,,,,,,Space,keypress(Space),,,,,,,,-- --- ---- --- ------ ----- ------- ---- -- --- ------- by<br>------- ---------- ------ -- ----- -- ----- -- ---- ------<br>--- ----- --- --- ------ -------- ----- --- ------ ----- --<br>----- ----- ---------- --- --- ------ ------ ---- -- ------<br>------- --- ------ ----- --- ---- ------- -- ---- --- --<br>------- ------,79074.23500018194,79073.58500012197,79053.366,79042.37499996088,79070.081,79103.436,,11,by
screen,html.Screen,1_1_1_1_12,2021-04-08T16:49:46.593Z,,,,,,,,,,,,,,,,54,,,,,,,,,,,,,,2.2840001087024575,,response,,,,100,,,,,,,Space,keypress(Space),,,,,,,,-- --- ---- --- ------ ----- ------- ---- -- --- ------- --<br>issuing ---------- ------ -- ----- -- ----- -- ---- ------<br>--- ----- --- --- ------ -------- ----- --- ------ ----- --<br>----- ----- ---------- --- --- ------ ------ ---- -- ------<br>------- --- ------ ----- --- ---- ------- -- ---- --- --<br>------- ------,79106.41500004567,79105.7200001087,79086.722,79074.44500015117,79103.436,79136.816,,12,issuing
screen,html.Screen,1_1_1_1_13,2021-04-08T16:49:46.624Z,,,,,,,,,,,,,,,,54,,,,,,,,,,,,,,16.67700017754396,,response,,,,100,,,,,,,Space,keypress(Space),,,,,,,,-- --- ---- --- ------ ----- ------- ---- -- --- ------- --<br>------- government ------ -- ----- -- ----- -- ---- ------<br>--- ----- --- --- ------ -------- ----- --- ------ ----- --<br>----- ----- ---------- --- --- ------ ------ ---- -- ------<br>------- --- ------ ----- --- ---- ------- -- ---- --- --<br>------- ------,79137.45000003837,79136.76500017755,79120.088,79106.6250000149,,79153.47,,13,government
screen,html.Screen,1_1_1_1_14,2021-04-08T16:49:46.671Z,,,,,,,,,,,,,,,,54,,,,,,,,,,,,,,30.06000003844383,,response,,,,100,,,,,,,Space,keypress(Space),,,,,,,,-- --- ---- --- ------ ----- ------- ---- -- --- ------- --<br>------- ---------- bonds. -- ----- -- ----- -- ---- ------<br>--- ----- --- --- ------ -------- ----- --- ------ ----- --<br>----- ----- ---------- --- --- ------ ------ ---- -- ------<br>------- --- ------ ----- --- ---- ------- -- ---- --- --<br>------- ------,79184.20500005595,79183.53000003844,79136.816,79137.66500004567,79153.47,79186.787,,14,bonds.
screen,html.Screen,1_1_1_1_15,2021-04-08T16:49:46.702Z,,,,,,,,,,,,,,,,54,,,,,,,,,,,,,,28.073000181946554,,response,,,,100,,,,,,,Space,keypress(Space),,,,,,,,-- --- ---- --- ------ ----- ------- ---- -- --- ------- --<br>------- ---------- ------ In ----- -- ----- -- ---- ------<br>--- ----- --- --- ------ -------- ----- --- ------ ----- --<br>----- ----- ---------- --- --- ------ ------ ---- -- ------<br>------- --- ------ ----- --- ---- ------- -- ---- --- --<br>------- ------,79215.51500004716,79214.86000018194,79170.108,79184.41500002518,79186.787,79220.144,,15,In
screen,html.Screen,1_1_1_1_16,2021-04-08T16:49:46.732Z,,,,,,,,,,,,,,,,54,,,,,,,,,,,,,,25.11599999605096,,response,,,,100,,,,,,,Space,keypress(Space),,,,,,,,"-- --- ---- --- ------ ----- ------- ---- -- --- ------- --<br>------- ---------- ------ -- 1727, -- ----- -- ---- ------<br>--- ----- --- --- ------ -------- ----- --- ------ ----- --<br>----- ----- ---------- --- --- ------ ------ ---- -- ------<br>------- --- ------ ----- --- ---- ------- -- ---- --- --<br>------- ------",79245.96500000916,79245.25999999605,79203.506,79215.73000005446,79220.144,79253.501,,16,"1727,"
screen,html.Screen,1_1_1_1_17,2021-04-08T16:49:46.763Z,,,,,,,,,,,,,,,,54,,,,,,,,,,,,,,22.434000041495892,,response,,,,100,,,,,,,Space,keypress(Space),,,,,,,,-- --- ---- --- ------ ----- ------- ---- -- --- ------- --<br>------- ---------- ------ -- ----- in ----- -- ---- ------<br>--- ----- --- --- ------ -------- ----- --- ------ ----- --<br>----- ----- ---------- --- --- ------ ------ ---- -- ------<br>------- --- ------ ----- --- ---- ------- -- ---- --- --<br>------- ------,79276.56999998726,79275.9350000415,79236.856,79246.19000009261,79253.501,79286.971,,17,in
screen,html.Screen,1_1_1_1_18,2021-04-08T16:49:46.794Z,,,,,,,,,,,,,,,,54,,,,,,,,,,,,,,20.32899998583889,,response,,,,100,,,,,,,Space,keypress(Space),,,,,,,,-- --- ---- --- ------ ----- ------- ---- -- --- ------- --<br>------- ---------- ------ -- ----- -- order -- ---- ------<br>--- ----- --- --- ------ -------- ----- --- ------ ----- --<br>----- ----- ---------- --- --- ------ ------ ---- -- ------<br>------- --- ------ ----- --- ---- ------- -- ---- --- --<br>------- ------,79307.92000005022,79307.29999998584,79270.174,79276.77999995649,79286.971,79320.247,,18,order
screen,html.Screen,1_1_1_1_19,2021-04-08T16:49:46.826Z,,,,,,,,,,,,,,,,54,,,,,,,,,,,,,,19.043000032630516,,response,,,,100,,,,,,,Space,keypress(Space),,,,,,,,-- --- ---- --- ------ ----- ------- ---- -- --- ------- --<br>------- ---------- ------ -- ----- -- ----- to ---- ------<br>--- ----- --- --- ------ -------- ----- --- ------ ----- --<br>----- ----- ---------- --- --- ------ ------ ---- -- ------<br>------- --- ------ ----- --- ---- ------- -- ---- --- --<br>------- ------,79339.910000097,79339.29000003263,79303.529,79308.14500013366,79320.247,79353.602,,19,to
screen,html.Screen,1_1_1_1_20,2021-04-08T16:49:46.859Z,,,,,,,,,,,,,,,,54,,,,,,,,,,,,,,18.068000022278284,,response,,,,100,,,,,,,Space,keypress(Space),,,,,,,,-- --- ---- --- ------ ----- ------- ---- -- --- ------- --<br>------- ---------- ------ -- ----- -- ----- -- save ------<br>--- ----- --- --- ------ -------- ----- --- ------ ----- --<br>----- ----- ---------- --- --- ------ ------ ---- -- ------<br>------- --- ------ ----- --- ---- ------- -- ---- --- --<br>------- ------,79372.29500012472,79371.67000002228,79336.885,79340.12000006624,79353.602,79386.959,,20,save
screen,html.Screen,1_1_1_1_21,2021-04-08T16:49:46.890Z,,,,,,,,,,,,,,,,54,,,,,,,,,,,,,,15.676000180450501,,response,,,,100,,,,,,,Space,keypress(Space),,,,,,,,"-- --- ---- --- ------ ----- ------- ---- -- --- ------- --<br>------- ---------- ------ -- ----- -- ----- -- ---- money,<br>--- ----- --- --- ------ -------- ----- --- ------ ----- --<br>----- ----- ---------- --- --- ------ ------ ---- -- ------<br>------- --- ------ ----- --- ---- ------- -- ---- --- --<br>------- ------",79403.24000013061,79402.63500018045,79370.24,79372.51999997534,79386.959,79420.311,,21,"money,"
screen,html.Screen,1_1_1_1_22,2021-04-08T16:49:46.921Z,,,,,,,,,,,,,,,,54,,,,,,,,,,,,,,13.949000009088195,,response,,,,100,,,,,,,Space,keypress(Space),,,,,,,,-- --- ---- --- ------ ----- ------- ---- -- --- ------- --<br>------- ---------- ------ -- ----- -- ----- -- ---- ------<br>the ----- --- --- ------ -------- ----- --- ------ ----- --<br>----- ----- ---------- --- --- ------ ------ ---- -- ------<br>------- --- ------ ----- --- ---- ------- -- ---- --- --<br>------- ------,79434.92500018328,79434.26000000909,79403.594,79403.45000009984,79420.311,79453.668,,22,the
screen,html.Screen,1_1_1_1_23,2021-04-08T16:49:46.967Z,,,,,,,,,,,,,,,,54,,,,,,,,,,,,,,26.67700004723156,,response,,,,100,,,,,,,Space,keypress(Space),,,,,,,,-- --- ---- --- ------ ----- ------- ---- -- --- ------- --<br>------- ---------- ------ -- ----- -- ----- -- ---- ------<br>--- state --- --- ------ -------- ----- --- ------ ----- --<br>----- ----- ---------- --- --- ------ ------ ---- -- ------<br>------- --- ------ ----- --- ---- ------- -- ---- --- --<br>------- ------,79480.97499995492,79480.34500004724,79436.951,79435.1500000339,79453.668,79486.939,,23,state
screen,html.Screen,1_1_1_1_24,2021-04-08T16:49:46.998Z,,,,,,,,,,,,,,,,54,,,,,,,,,,,,,,24.146000121967518,,response,,,,100,,,,,,,Space,keypress(Space),,,,,,,,-- --- ---- --- ------ ----- ------- ---- -- --- ------- --<br>------- ---------- ------ -- ----- -- ----- -- ---- ------<br>--- ----- cut --- ------ -------- ----- --- ------ ----- --<br>----- ----- ---------- --- --- ------ ------ ---- -- ------<br>------- --- ------ ----- --- ---- ------- -- ---- --- --<br>------- ------,79511.69000007212,79511.08500012197,79470.328,79481.18999996223,79486.939,79520.295,,24,cut
screen,html.Screen,1_1_1_1_25,2021-04-08T16:49:47.029Z,,,,,,,,,,,,,,,,54,,,,,,,,,,,,,,21.319999994637328,,response,,,,100,,,,,,,Space,keypress(Space),,,,,,,,-- --- ---- --- ------ ----- ------- ---- -- --- ------- --<br>------- ---------- ------ -- ----- -- ----- -- ---- ------<br>--- ----- --- the ------ -------- ----- --- ------ ----- --<br>----- ----- ---------- --- --- ------ ------ ---- -- ------<br>------- --- ------ ----- --- ---- ------- -- ---- --- --<br>------- ------,79542.25499997847,79541.61499999464,79503.703,79511.90000004135,79520.295,79553.74,,25,the
screen,html.Screen,1_1_1_1_26,2021-04-08T16:49:47.060Z,,,,,,,,,,,,,,,,54,,,,,,,,,,,,,,19.085000155711896,,response,,,,100,,,,,,,Space,keypress(Space),,,,,,,,-- --- ---- --- ------ ----- ------- ---- -- --- ------- --<br>------- ---------- ------ -- ----- -- ----- -- ---- ------<br>--- ----- --- --- bonds' -------- ----- --- ------ ----- --<br>----- ----- ---------- --- --- ------ ------ ---- -- ------<br>------- --- ------ ----- --- ---- ------- -- ---- --- --<br>------- ------,79573.44499998726,79572.82500015572,79537.02,79542.46999998577,79553.74,79587.097,,26,bonds'
screen,html.Screen,1_1_1_1_27,2021-04-08T16:49:47.092Z,,,,,,,,,,,,,,,,54,,,,,,,,,,,,,,17.998000006264192,,response,,,,100,,,,,,,Space,keypress(Space),,,,,,,,-- --- ---- --- ------ ----- ------- ---- -- --- ------- --<br>------- ---------- ------ -- ----- -- ----- -- ---- ------<br>--- ----- --- --- ------ interest ----- --- ------ ----- --<br>----- ----- ---------- --- --- ------ ------ ---- -- ------<br>------- --- ------ ----- --- ---- ------- -- ---- --- --<br>------- ------,79605.78000009991,79605.09500000626,79570.379,79573.65499995649,79587.097,79620.443,,27,interest
screen,html.Screen,1_1_1_1_28,2021-04-08T16:49:47.123Z,,,,,,,,,,,,,,,,54,,,,,,,,,,,,,,15.067000167415245,,response,,,,100,,,,,,,Space,keypress(Space),,,,,,,,-- --- ---- --- ------ ----- ------- ---- -- --- ------- --<br>------- ---------- ------ -- ----- -- ----- -- ---- ------<br>--- ----- --- --- ------ -------- rate. --- ------ ----- --<br>----- ----- ---------- --- --- ------ ------ ---- -- ------<br>------- --- ------ ----- --- ---- ------- -- ---- --- --<br>------- ------,79636.11500011757,79635.51000016741,79603.73,79605.98500003107,79620.443,79653.793,,28,rate.
screen,html.Screen,1_1_1_1_29,2021-04-08T16:49:47.154Z,,,,,,,,,,,,,,,,54,,,,,,,,,,,,,,13.117000145430211,,response,,,,100,,,,,,,Space,keypress(Space),,,,,,,,-- --- ---- --- ------ ----- ------- ---- -- --- ------- --<br>------- ---------- ------ -- ----- -- ----- -- ---- ------<br>--- ----- --- --- ------ -------- ----- The ------ ----- --<br>----- ----- ---------- --- --- ------ ------ ---- -- ------<br>------- --- ------ ----- --- ---- ------- -- ---- --- --<br>------- ------,79667.49500017613,79666.91000014544,79637.086,79636.33000012487,79653.793,79687.156,,29,The
screen,html.Screen,1_1_1_1_30,2021-04-08T16:49:47.185Z,,,,,,,,,,,,,,,,54,,,,,,,,,,,,,,11.059000098568504,,response,,,,100,,,,,,,Space,keypress(Space),,,,,,,,-- --- ---- --- ------ ----- ------- ---- -- --- ------- --<br>------- ---------- ------ -- ----- -- ----- -- ---- ------<br>--- ----- --- --- ------ -------- ----- --- market ----- --<br>----- ----- ---------- --- --- ------ ------ ---- -- ------<br>------- --- ------ ----- --- ---- ------- -- ---- --- --<br>------- ------,79698.80500016734,79698.21500009857,79670.376,79667.71000018343,79687.156,79720.509,,30,market
screen,html.Screen,1_1_1_1_31,2021-04-08T16:49:47.232Z,,,,,,,,,,,,,,,,54,,,,,,,,,,,,,,24.31600017620076,,response,,,,100,,,,,,,Space,keypress(Space),,,,,,,,-- --- ---- --- ------ ----- ------- ---- -- --- ------- --<br>------- ---------- ------ -- ----- -- ----- -- ---- ------<br>--- ----- --- --- ------ -------- ----- --- ------ value --<br>----- ----- ---------- --- --- ------ ------ ---- -- ------<br>------- --- ------ ----- --- ---- ------- -- ---- --- --<br>------- ------,79745.49999996088,79744.8250001762,79703.794,79699.01500013657,79720.509,79753.819,,31,value
screen,html.Screen,1_1_1_1_32,2021-04-08T16:49:47.262Z,,,,,,,,,,,,,,,,54,,,,,,,,,,,,,,21.09100015288277,,response,,,,100,,,,,,,Space,keypress(Space),,,,,,,,-- --- ---- --- ------ ----- ------- ---- -- --- ------- --<br>------- ---------- ------ -- ----- -- ----- -- ---- ------<br>--- ----- --- --- ------ -------- ----- --- ------ ----- of<br>----- ----- ---------- --- --- ------ ------ ---- -- ------<br>------- --- ------ ----- --- ---- ------- -- ---- --- --<br>------- ------,79775.55000013672,79774.91000015289,79737.158,79745.71000016294,79753.819,79787.215,,32,of
screen,html.Screen,1_1_1_1_33,2021-04-08T16:49:47.295Z,,,,,,,,,,,,,,,,54,,,,,,,,,,,,,,20.359999984357273,,response,,,,100,,,,,,,Space,keypress(Space),,,,,,,,-- --- ---- --- ------ ----- ------- ---- -- --- ------- --<br>------- ---------- ------ -- ----- -- ----- -- ---- ------<br>--- ----- --- --- ------ -------- ----- --- ------ ----- --<br>these ----- ---------- --- --- ------ ------ ---- -- ------<br>------- --- ------ ----- --- ---- ------- -- ---- --- --<br>------- ------,79808.16500005312,79807.57499998435,79770.503,79775.76000010595,79787.215,79820.535,,33,these
screen,html.Screen,1_1_1_1_34,2021-04-08T16:49:47.326Z,,,,,,,,,,,,,,,,54,,,,,,,,,,,,,,18.215000111755216,,response,,,,100,,,,,,,Space,keypress(Space),,,,,,,,-- --- ---- --- ------ ----- ------- ---- -- --- ------- --<br>------- ---------- ------ -- ----- -- ----- -- ---- ------<br>--- ----- --- --- ------ -------- ----- --- ------ ----- --<br>----- bonds ---------- --- --- ------ ------ ---- -- ------<br>------- --- ------ ----- --- ---- ------- -- ---- --- --<br>------- ------,79839.40499997698,79838.75000011176,79803.858,79808.38000006042,79820.535,79853.939,,34,bonds
screen,html.Screen,1_1_1_1_35,2021-04-08T16:49:47.356Z,,,,,,,,,,,,,,,,54,,,,,,,,,,,,,,15.366000174792134,,response,,,,100,,,,,,,Space,keypress(Space),,,,,,,,"-- --- ---- --- ------ ----- ------- ---- -- --- ------- --<br>------- ---------- ------ -- ----- -- ----- -- ---- ------<br>--- ----- --- --- ------ -------- ----- --- ------ ----- --<br>----- ----- plummeted, --- --- ------ ------ ---- -- ------<br>------- --- ------ ----- --- ---- ------- -- ---- --- --<br>------- ------",79869.94000012055,79869.30500017479,79837.211,79839.61999998428,79853.939,79887.291,,35,"plummeted,"
screen,html.Screen,1_1_1_1_36,2021-04-08T16:49:47.387Z,,,,,,,,,,,,,,,,54,,,,,,,,,,,,,,12.344000154378591,,response,,,,100,,,,,,,Space,keypress(Space),,,,,,,,-- --- ---- --- ------ ----- ------- ---- -- --- ------- --<br>------- ---------- ------ -- ----- -- ----- -- ---- ------<br>--- ----- --- --- ------ -------- ----- --- ------ ----- --<br>----- ----- ---------- and --- ------ ------ ---- -- ------<br>------- --- ------ ----- --- ---- ------- -- ---- --- --<br>------- ------,79900.26000002399,79899.63500015438,79870.507,79870.15500012785,79887.291,79920.644,,36,and
screen,html.Screen,1_1_1_1_37,2021-04-08T16:49:47.418Z,,,,,,,,,,,,,,,,54,,,,,,,,,,,,,,9.906000164657598,,response,,,,100,,,,,,,Space,keypress(Space),,,,,,,,-- --- ---- --- ------ ----- ------- ---- -- --- ------- --<br>------- ---------- ------ -- ----- -- ----- -- ---- ------<br>--- ----- --- --- ------ -------- ----- --- ------ ----- --<br>----- ----- ---------- --- the ------ ------ ---- -- ------<br>------- --- ------ ----- --- ---- ------- -- ---- --- --<br>------- ------,79931.22999998741,79930.55000016466,79903.929,79900.46999999322,79920.644,79953.997,,37,the
screen,html.Screen,1_1_1_1_38,2021-04-08T16:49:47.464Z,,,,,,,,,,,,,,,,54,,,,,,,,,,,,,,22.59300009298022,,response,,,,100,,,,,,,Space,keypress(Space),,,,,,,,-- --- ---- --- ------ ----- ------- ---- -- --- ------- --<br>------- ---------- ------ -- ----- -- ----- -- ---- ------<br>--- ----- --- --- ------ -------- ----- --- ------ ----- --<br>----- ----- ---------- --- --- market ------ ---- -- ------<br>------- --- ------ ----- --- ---- ------- -- ---- --- --<br>------- ------,79977.24000015296,79976.59000009298,79937.283,79931.43999995664,79953.997,79987.354,,38,market
screen,html.Screen,1_1_1_1_39,2021-04-08T16:49:47.495Z,,,,,,,,,,,,,,,,54,,,,,,,,,,,,,,20.380999991946737,,response,,,,100,,,,,,,Space,keypress(Space),,,,,,,,-- --- ---- --- ------ ----- ------- ---- -- --- ------- --<br>------- ---------- ------ -- ----- -- ----- -- ---- ------<br>--- ----- --- --- ------ -------- ----- --- ------ ----- --<br>----- ----- ---------- --- --- ------ became ---- -- ------<br>------- --- ------ ----- --- ---- ------- -- ---- --- --<br>------- ------,80008.36500013247,80007.73499999195,79970.647,79977.4599999655,79987.354,80020.655,,39,became
screen,html.Screen,1_1_1_1_40,2021-04-08T16:49:47.526Z,,,,,,,,,,,,,,,,54,,,,,,,,,,,,,,18.430000054911943,,response,,,,100,,,,,,,Space,keypress(Space),,,,,,,,-- --- ---- --- ------ ----- ------- ---- -- --- ------- --<br>------- ---------- ------ -- ----- -- ----- -- ---- ------<br>--- ----- --- --- ------ -------- ----- --- ------ ----- --<br>----- ----- ---------- --- --- ------ ------ wary -- ------<br>------- --- ------ ----- --- ---- ------- -- ---- --- --<br>------- ------,80039.74999999627,80039.08500005491,80003.997,80008.5750001017,80020.655,80054.015,,40,wary
screen,html.Screen,1_1_1_1_41,2021-04-08T16:49:47.557Z,,,,,,,,,,,,,,,,54,,,,,,,,,,,,,,16.090000166223035,,response,,,,100,,,,,,,Space,keypress(Space),,,,,,,,-- --- ---- --- ------ ----- ------- ---- -- --- ------- --<br>------- ---------- ------ -- ----- -- ----- -- ---- ------<br>--- ----- --- --- ------ -------- ----- --- ------ ----- --<br>----- ----- ---------- --- --- ------ ------ ---- of ------<br>------- --- ------ ----- --- ---- ------- -- ---- --- --<br>------- ------,80070.71999995969,80070.10500016622,80037.354,80039.97000004165,80054.015,80087.455,,41,of
screen,html.Screen,1_1_1_1_42,2021-04-08T16:49:47.588Z,,,,,,,,,,,,,,,,54,,,,,,,,,,,,,,13.130000123826903,,response,,,,100,,,,,,,Space,keypress(Space),,,,,,,,-- --- ---- --- ------ ----- ------- ---- -- --- ------- --<br>------- ---------- ------ -- ----- -- ----- -- ---- ------<br>--- ----- --- --- ------ -------- ----- --- ------ ----- --<br>----- ----- ---------- --- --- ------ ------ ---- -- French<br>------- --- ------ ----- --- ---- ------- -- ---- --- --<br>------- ------,80101.25000006519,80100.58500012383,80070.701,80070.934999967,80087.455,80120.729,,42,French
screen,html.Screen,1_1_1_1_43,2021-04-08T16:49:47.619Z,,,,,,,,,,,,,,,,54,,,,,,,,,,,,,,10.706000104823033,,response,,,,100,,,,,,,Space,keypress(Space),,,,,,,,-- --- ---- --- ------ ----- ------- ---- -- --- ------- --<br>------- ---------- ------ -- ----- -- ----- -- ---- ------<br>--- ----- --- --- ------ -------- ----- --- ------ ----- --<br>----- ----- ---------- --- --- ------ ------ ---- -- ------<br>credit. --- ------ ----- --- ---- ------- -- ---- --- --<br>------- ------,80132.1000000462,80131.43500010483,80104.057,80101.4650000725,80120.729,80154.125,,43,credit.
screen,html.Screen,1_1_1_1_44,2021-04-08T16:49:47.649Z,,,,,,,,,,,,,,,,54,,,,,,,,,,,,,,7.5150000639259815,,response,,,,100,,,,,,,Space,keypress(Space),,,,,,,,-- --- ---- --- ------ ----- ------- ---- -- --- ------- --<br>------- ---------- ------ -- ----- -- ----- -- ---- ------<br>--- ----- --- --- ------ -------- ----- --- ------ ----- --<br>----- ----- ---------- --- --- ------ ------ ---- -- ------<br>------- The ------ ----- --- ---- ------- -- ---- --- --<br>------- ------,80162.29500016198,80161.64000006393,80137.413,80132.31000001542,80154.125,80187.485,,44,The
screen,html.Screen,1_1_1_1_45,2021-04-08T16:49:47.680Z,,,,,,,,,,,,,,,,54,,,,,,,,,,,,,,5.195000094696297,,response,,,,100,,,,,,,Space,keypress(Space),,,,,,,,-- --- ---- --- ------ ----- ------- ---- -- --- ------- --<br>------- ---------- ------ -- ----- -- ----- -- ---- ------<br>--- ----- --- --- ------ -------- ----- --- ------ ----- --<br>----- ----- ---------- --- --- ------ ------ ---- -- ------<br>------- --- French ----- --- ---- ------- -- ---- --- --<br>------- ------,80193.31000000238,80192.6800000947,80170.771,80162.51000016928,80187.485,80220.837,,45,French
screen,html.Screen,1_1_1_1_46,2021-04-08T16:49:47.728Z,,,,,,,,,,,,,,,,54,,,,,,,,,,,,,,19.712999987707008,,response,,,,100,,,,,,,Space,keypress(Space),,,,,,,,-- --- ---- --- ------ ----- ------- ---- -- --- ------- --<br>------- ---------- ------ -- ----- -- ----- -- ---- ------<br>--- ----- --- --- ------ -------- ----- --- ------ ----- --<br>----- ----- ---------- --- --- ------ ------ ---- -- ------<br>------- --- ------ state --- ---- ------- -- ---- --- --<br>------- ------,80241.18000012822,80240.5499999877,80204.12,80193.51500016637,80220.837,80254.191,,46,state
screen,html.Screen,1_1_1_1_47,2021-04-08T16:49:47.758Z,,,,,,,,,,,,,,,,54,,,,,,,,,,,,,,16.514000031733303,,response,,,,100,,,,,,,Space,keypress(Space),,,,,,,,-- --- ---- --- ------ ----- ------- ---- -- --- ------- --<br>------- ---------- ------ -- ----- -- ----- -- ---- ------<br>--- ----- --- --- ------ -------- ----- --- ------ ----- --<br>----- ----- ---------- --- --- ------ ------ ---- -- ------<br>------- --- ------ ----- was ---- ------- -- ---- --- --<br>------- ------,80271.38500008732,80270.70500003174,80237.473,80241.39000009745,80254.191,80287.545,,47,was
screen,html.Screen,1_1_1_1_48,2021-04-08T16:49:47.789Z,,,,,,,,,,,,,,,,54,,,,,,,,,,,,,,14.595000043438631,,response,,,,100,,,,,,,Space,keypress(Space),,,,,,,,-- --- ---- --- ------ ----- ------- ---- -- --- ------- --<br>------- ---------- ------ -- ----- -- ----- -- ---- ------<br>--- ----- --- --- ------ -------- ----- --- ------ ----- --<br>----- ----- ---------- --- --- ------ ------ ---- -- ------<br>------- --- ------ ----- --- left ------- -- ---- --- --<br>------- ------,80302.83000017516,80302.14000004344,80270.831,80271.59500005655,80287.545,80320.91,,48,left
screen,html.Screen,1_1_1_1_49,2021-04-08T16:49:47.820Z,,,,,,,,,,,,,,,,54,,,,,,,,,,,,,,11.975000156235183,,response,,,,100,,,,,,,Space,keypress(Space),,,,,,,,-- --- ---- --- ------ ----- ------- ---- -- --- ------- --<br>------- ---------- ------ -- ----- -- ----- -- ---- ------<br>--- ----- --- --- ------ -------- ----- --- ------ ----- --<br>----- ----- ---------- --- --- ------ ------ ---- -- ------<br>------- --- ------ ----- --- ---- without -- ---- --- --<br>------- ------,80333.62000016496,80332.88500015624,80304.191,80303.04000014439,80320.91,80354.265,,49,without
screen,html.Screen,1_1_1_1_50,2021-04-08T16:49:47.852Z,,,,,,,,,,,,,,,,54,,,,,,,,,,,,,,10.08999996878265,,response,,,,100,,,,,,,Space,keypress(Space),,,,,,,,-- --- ---- --- ------ ----- ------- ---- -- --- ------- --<br>------- ---------- ------ -- ----- -- ----- -- ---- ------<br>--- ----- --- --- ------ -------- ----- --- ------ ----- --<br>----- ----- ---------- --- --- ------ ------ ---- -- ------<br>------- --- ------ ----- --- ---- ------- an ---- --- --<br>------- ------,80364.99000014737,80364.35499996878,80337.544,80333.83500017226,80354.265,80387.619,,50,an
screen,html.Screen,1_1_1_1_51,2021-04-08T16:49:47.882Z,,,,,,,,,,,,,,,,54,,,,,,,,,,,,,,7.46100016211858,,response,,,,100,,,,,,,Space,keypress(Space),,,,,,,,-- --- ---- --- ------ ----- ------- ---- -- --- ------- --<br>------- ---------- ------ -- ----- -- ----- -- ---- ------<br>--- ----- --- --- ------ -------- ----- --- ------ ----- --<br>----- ----- ---------- --- --- ------ ------ ---- -- ------<br>------- --- ------ ----- --- ---- ------- -- easy --- --<br>------- ------,80395.74500010349,80395.08000016212,80370.904,80365.20500015467,80387.619,80420.968,,51,easy
screen,html.Screen,1_1_1_1_52,2021-04-08T16:49:47.913Z,,,,,,,,,,,,,,,,54,,,,,,,,,,,,,,4.957000105059706,,response,,,,100,,,,,,,Space,keypress(Space),,,,,,,,-- --- ---- --- ------ ----- ------- ---- -- --- ------- --<br>------- ---------- ------ -- ----- -- ----- -- ---- ------<br>--- ----- --- --- ------ -------- ----- --- ------ ----- --<br>----- ----- ---------- --- --- ------ ------ ---- -- ------<br>------- --- ------ ----- --- ---- ------- -- ---- way --<br>------- ------,80426.59000004642,80425.92500010505,80404.256,80395.95500007272,80420.968,80454.331,,52,way
screen,html.Screen,1_1_1_1_53,2021-04-08T16:49:47.945Z,,,,,,,,,,,,,,,,54,,,,,,,,,,,,,,3.249000162119046,,response,,,,100,,,,,,,Space,keypress(Space),,,,,,,,-- --- ---- --- ------ ----- ------- ---- -- --- ------- --<br>------- ---------- ------ -- ----- -- ----- -- ---- ------<br>--- ----- --- --- ------ -------- ----- --- ------ ----- --<br>----- ----- ---------- --- --- ------ ------ ---- -- ------<br>------- --- ------ ----- --- ---- ------- -- ---- --- of<br>------- ------,80458.22000014596,80457.58000016212,80437.615,80426.80500005372,80454.331,80487.631,,53,of
screen,html.Screen,1_1_1_1_54,2021-04-08T16:49:47.990Z,,,,,,,,,,,,,,,,54,,,,,,,,,,,,,,15.509000160789583,,response,,,,100,,,,,,,Space,keypress(Space),,,,,,,,-- --- ---- --- ------ ----- ------- ---- -- --- ------- --<br>------- ---------- ------ -- ----- -- ----- -- ---- ------<br>--- ----- --- --- ------ -------- ----- --- ------ ----- --<br>----- ----- ---------- --- --- ------ ------ ---- -- ------<br>------- --- ------ ----- --- ---- ------- -- ---- --- --<br>raising ------,80503.7650000304,80503.14000016078,80470.979,80458.43000011519,80487.631,80521.039,,54,raising
screen,html.Screen,1_1_1_1_55,2021-04-08T16:49:48.021Z,,,,,,,,,,,,,,,,54,,,,,,,,,,,,,,13.251000097821816,,response,,,,100,,,,,,,Space,keypress(Space),,,,,,,,-- --- ---- --- ------ ----- ------- ---- -- --- ------- --<br>------- ---------- ------ -- ----- -- ----- -- ---- ------<br>--- ----- --- --- ------ -------- ----- --- ------ ----- --<br>----- ----- ---------- --- --- ------ ------ ---- -- ------<br>------- --- ------ ----- --- ---- ------- -- ---- --- --<br>------- money.,80534.95000000112,80534.29000009783,80504.323,80503.97499999963,80521.039,80554.328,,55,money.
Item 100,flow.Loop,1_1_1_1,2021-04-08T16:49:48.022Z,,,,,,,,,,,,,,,,,,,,,,,,,,,,,,2715.1800000978255,,completion,,,,,F,,,,,,,,,,,silence,,,,,80535.33500013873,80534.29000009783,77802.543,77804.47500012815,77819.11,80554.328,,,
Question 1,html.Screen,1_1_1_2,2021-04-08T16:49:48.936Z,,,,,,,,,,,,,,,,,,,,,,,,,,,true,TRUE,,894.1920000926912,,response,,,,100,F,,,,,,TRUE,click #choice-1,,,,silence,,,,,81449.51000018045,81448.52000009269,80537.676,80535.51500011235,80554.328,81454.955,,,
Question 2,html.Screen,1_1_1_3,2021-04-08T16:49:49.144Z,,,,,,,,,,,,,,,,,,,,,,,,,,,false,FALSE,,201.5750000365806,,response,,,,100,F,,,,,,TRUE,click #choice-1,,,,silence,,,,,81657.60000003502,81656.53000003658,81438.268,81449.75000014529,81454.955,81671.769,,,
Item 100,flow.Sequence,1_1_1,2021-04-08T16:49:49.144Z,,,,,,,,,,,,,,,,,,,,,,,,,,,,,,13837.763000036575,,completion,,,,,,,,,,,,,,,,,,,,,81657.93500002474,81656.53000003658,67779.293,67796.28000012599,67818.767,81671.769,,,
End of Practice,html.Page,1_1_2,2021-04-08T16:49:51.673Z,,,,,,,,,,,,,,,,,,,,,,,,,,,,,,2514.361000045523,,form submission,,,,,,,,,,,,,,,,,,,,,84186.69500015676,84186.13000004552,81655.086,81658.10000011697,81671.769,84190.084,,,
Practice,flow.Sequence,1_1,2021-04-08T16:49:51.674Z,,,,,,,,,,,,,,,,,,,,,,,,,,,,,,30899.678000045526,,completion,,,,,,,,,,,,,,,,,,,,,84187.0250001084,84186.13000004552,53269.769,53281.07500006445,53286.452,84190.084,,,
Trap_instruction,html.Page,1_2_0,2021-04-08T16:49:52.785Z,,,,,,,,,,,,,,,,,,,,,,,,,,,,,,1107.8310000028287,,form submission,,,,,,,,,,,,,,,,,,,,,85298.39000012726,85297.91500000283,84173.357,84187.24500015378,84190.084,85324.112,,,
trap_trial,html.Screen,1_2_1,2021-04-08T16:49:58.951Z,,,,,,,,,,,,,,,,,,,,,,,,,,,true,1,,6138.958000056184,,response,,,,,,,,,,,1,click #choice-1,,,,,,,,,91464.19500000775,91463.07000005618,85290.76,85298.60000009649,85324.112,91478.208,,,
end of trap trial,html.Page,1_2_2,2021-04-08T16:50:00.272Z,,,,,,,,,,,,,,,,,,,,,,,,,,,,,,1306.7770000347955,,form submission,,,,,,,,,,,,,,,,,,,,,92785.52499995567,92784.9850000348,91461.543,91464.50500003994,91478.208,92795.709,,,
Trap 1,flow.Sequence,1_2,2021-04-08T16:50:00.272Z,,,,,,,,,,,,,,,,,,,,,,,,,,,,,,8594.901000034792,,completion,,,,,,,,,,,,,,,,,,,,,92785.8750000596,92784.9850000348,84173.357,84187.1800001245,84190.084,92795.709,,,
Standby,html.Page,1_3_0,2021-04-08T16:50:08.272Z,,,,,,,,,,,,,,,,,,,,,,,,,,,,,,8005.244999999995,,timeout,,,,,,,,,,,,,,,,,,,,,100785.12000013143,100784.265,92779.061,92786.11500002444,92795.709,100800.954,,,
Holding screen,html.Screen,1_3_1_0_0,2021-04-08T16:50:15.276Z,,,,,,,,,,,,,,,,,,,,,,,,,,,,,,7004.540000000008,,timeout,,,,,,,,,,,,,,,,,,,,,107789.62000017054,107788.922,100784.265,100785.43499996886,100800.954,107805.494,,,
screen,html.Screen,1_3_1_0_1_0,2021-04-08T16:50:15.764Z,,,,,,,,,,,,,,,,2,,,,,,,,,,,,,,470.9110001278459,,response,,,,1,F,,,,,,Space,keypress(Space),,,,instrumental,,,,Two ---- ------ --- ------- ---------- ------- ----------<br>--- --------- --- ----------- ------- ----- ------- ---<br>--------- ---- -- --- ---- -- --------- -- ---- -------<br>-- --------- ------ --- ----- ------ ---- --- --------- --<br>------ - ---- -- --- ----------- ------- ---- ----- -----<br>--- -------- - ------ ---- -- ----- ---- --- --- -----------<br>-- -------,108277.27500000037,108276.40500012785,107788.922,107789.95500016026,107805.494,108289.216,,0,Two
screen,html.Screen,1_3_1_0_1_1,2021-04-08T16:50:16.274Z,,,,,,,,,,,,,,,,2,,,,,,,,,,,,,,497.2640000097599,,response,,,,1,F,,,,,,Space,keypress(Space),,,,instrumental,,,,--- days ------ --- ------- ---------- ------- ----------<br>--- --------- --- ----------- ------- ----- ------- ---<br>--------- ---- -- --- ---- -- --------- -- ---- -------<br>-- --------- ------ --- ----- ------ ---- --- --------- --<br>------ - ---- -- --- ----------- ------- ---- ----- -----<br>--- -------- - ------ ---- -- ----- ---- --- --- -----------<br>-- -------,108787.37500007264,108786.48000000976,108272.626,108277.54000015557,108289.216,108806.235,,1,days
screen,html.Screen,1_3_1_0_1_2,2021-04-08T16:50:16.305Z,,,,,,,,,,,,,,,,2,,,,,,,,,,,,,,11.170000096186413,,response,,,,1,F,,,,,,Space,keypress(Space),,,,instrumental,,,,"--- ---- later, --- ------- ---------- ------- ----------<br>--- --------- --- ----------- ------- ----- ------- ---<br>--------- ---- -- --- ---- -- --------- -- ---- -------<br>-- --------- ------ --- ----- ------ ---- --- --------- --<br>------ - ---- -- --- ----------- ------- ---- ----- -----<br>--- -------- - ------ ---- -- ----- ---- --- --- -----------<br>-- -------",108818.33499995992,108817.40500009619,108789.578,108787.60499996133,108806.235,108839.606,,2,"later,"
screen,html.Screen,1_3_1_0_1_3,2021-04-08T16:50:16.336Z,,,,,,,,,,,,,,,,2,,,,,,,,,,,,,,8.839000126958126,,response,,,,1,F,,,,,,Space,keypress(Space),,,,instrumental,,,,--- ---- ------ the ------- ---------- ------- ----------<br>--- --------- --- ----------- ------- ----- ------- ---<br>--------- ---- -- --- ---- -- --------- -- ---- -------<br>-- --------- ------ --- ----- ------ ---- --- --------- --<br>------ - ---- -- --- ----------- ------- ---- ----- -----<br>--- -------- - ------ ---- -- ----- ---- --- --- -----------<br>-- -------,108849.1750000976,108848.44500012696,108822.929,108818.55500000529,108839.606,108873.011,,3,the
screen,html.Screen,1_3_1_0_1_4,2021-04-08T16:50:16.367Z,,,,,,,,,,,,,,,,2,,,,,,,,,,,,,,7.224000047834124,,response,,,,1,F,,,,,,Space,keypress(Space),,,,instrumental,,,,--- ---- ------ --- British ---------- ------- ----------<br>--- --------- --- ----------- ------- ----- ------- ---<br>--------- ---- -- --- ---- -- --------- -- ---- -------<br>-- --------- ------ --- ----- ------ ---- --- --------- --<br>------ - ---- -- --- ----------- ------- ---- ----- -----<br>--- -------- - ------ ---- -- ----- ---- --- --- -----------<br>-- -------,108880.92000014149,108880.23500004783,108856.298,108849.40000018105,108873.011,108906.357,,4,British
screen,html.Screen,1_3_1_0_1_5,2021-04-08T16:50:16.398Z,,,,,,,,,,,,,,,,2,,,,,,,,,,,,,,4.902999964382616,,response,,,,1,F,,,,,,Space,keypress(Space),,,,instrumental,,,,--- ---- ------ --- ------- astronomer ------- ----------<br>--- --------- --- ----------- ------- ----- ------- ---<br>--------- ---- -- --- ---- -- --------- -- ---- -------<br>-- --------- ------ --- ----- ------ ---- --- --------- --<br>------ - ---- -- --- ----------- ------- ---- ----- -----<br>--- -------- - ------ ---- -- ----- ---- --- --- -----------<br>-- -------,108911.97500005364,108911.25999996439,108889.651,108881.13999995403,108906.357,108939.735,,5,astronomer
screen,html.Screen,1_3_1_0_1_6,2021-04-08T16:50:16.431Z,,,,,,,,,,,,,,,,2,,,,,,,,,,,,,,3.5750000023836037,,response,,,,1,F,,,,,,Space,keypress(Space),,,,instrumental,,,,--- ---- ------ --- ------- ---------- Richard ----------<br>--- --------- --- ----------- ------- ----- ------- ---<br>--------- ---- -- --- ---- -- --------- -- ---- -------<br>-- --------- ------ --- ----- ------ ---- --- --------- --<br>------ - ---- -- --- ----------- ------- ---- ----- -----<br>--- -------- - ------ ---- -- ----- ---- --- --- -----------<br>-- -------,108944.22499998473,108943.31000000238,108922.999,108912.20000013709,108939.735,108973.036,,6,Richard
screen,html.Screen,1_3_1_0_1_7,2021-04-08T16:50:16.476Z,,,,,,,,,,,,,,,,2,,,,,,,,,,,,,,15.99400005521602,,response,,,,1,F,,,,,,Space,keypress(Space),,,,instrumental,,,,--- ---- ------ --- ------- ---------- ------- Carrington<br>--- --------- --- ----------- ------- ----- ------- ---<br>--------- ---- -- --- ---- -- --------- -- ---- -------<br>-- --------- ------ --- ----- ------ ---- --- --------- --<br>------ - ---- -- --- ----------- ------- ---- ----- -----<br>--- -------- - ------ ---- -- ----- ---- --- --- -----------<br>-- -------,108989.92500011809,108989.03000005521,108956.389,108944.4750000257,108973.036,109006.424,,7,Carrington
screen,html.Screen,1_3_1_0_1_8,2021-04-08T16:50:16.509Z,,,,,,,,,,,,,,,,2,,,,,,,,,,,,,,15.286000000895001,,response,,,,1,F,,,,,,Space,keypress(Space),,,,instrumental,,,,--- ---- ------ --- ------- ---------- ------- ----------<br>was --------- --- ----------- ------- ----- ------- ---<br>--------- ---- -- --- ---- -- --------- -- ---- -------<br>-- --------- ------ --- ----- ------ ---- --- --------- --<br>------ - ---- -- --- ----------- ------- ---- ----- -----<br>--- -------- - ------ ---- -- ----- ---- --- --- -----------<br>-- -------,109022.53499999642,109021.7100000009,108989.732,108990.15500000678,109006.424,109039.728,,8,was
screen,html.Screen,1_3_1_0_1_9,2021-04-08T16:50:16.539Z,,,,,,,,,,,,,,,,2,,,,,,,,,,,,,,11.752000140142627,,response,,,,1,F,,,,,,Space,keypress(Space),,,,instrumental,,,,--- ---- ------ --- ------- ---------- ------- ----------<br>--- observing --- ----------- ------- ----- ------- ---<br>--------- ---- -- --- ---- -- --------- -- ---- -------<br>-- --------- ------ --- ----- ------ ---- --- --------- --<br>------ - ---- -- --- ----------- ------- ---- ----- -----<br>--- -------- - ------ ---- -- ----- ---- --- --- -----------<br>-- -------,109052.38500004634,109051.48000014015,109023.068,109022.76000007987,109039.728,109073.082,,9,observing
screen,html.Screen,1_3_1_0_1_10,2021-04-08T16:50:16.571Z,,,,,,,,,,,,,,,,2,,,,,,,,,,,,,,10.563000122492667,,response,,,,1,F,,,,,,Space,keypress(Space),,,,instrumental,,,,--- ---- ------ --- ------- ---------- ------- ----------<br>--- --------- the ----------- ------- ----- ------- ---<br>--------- ---- -- --- ---- -- --------- -- ---- -------<br>-- --------- ------ --- ----- ------ ---- --- --------- --<br>------ - ---- -- --- ----------- ------- ---- ----- -----<br>--- -------- - ------ ---- -- ----- ---- --- --- -----------<br>-- -------,109084.41999997012,109083.64500012249,109056.431,109052.6199999731,109073.082,109106.485,,10,the
screen,html.Screen,1_3_1_0_1_11,2021-04-08T16:50:16.602Z,,,,,,,,,,,,,,,,2,,,,,,,,,,,,,,7.865000163539662,,response,,,,1,F,,,,,,Space,keypress(Space),,,,instrumental,,,,--- ---- ------ --- ------- ---------- ------- ----------<br>--- --------- --- interesting ------- ----- ------- ---<br>--------- ---- -- --- ---- -- --------- -- ---- -------<br>-- --------- ------ --- ----- ------ ---- --- --------- --<br>------ - ---- -- --- ----------- ------- ---- ----- -----<br>--- -------- - ------ ---- -- ----- ---- --- --- -----------<br>-- -------,109115.19000004046,109114.35000016354,109089.777,109084.6400000155,109106.485,109139.841,,11,interesting
screen,html.Screen,1_3_1_0_1_12,2021-04-08T16:50:16.633Z,,,,,,,,,,,,,,,,2,,,,,,,,,,,,,,6.313999965801486,,response,,,,1,F,,,,,,Space,keypress(Space),,,,instrumental,,,,--- ---- ------ --- ------- ---------- ------- ----------<br>--- --------- --- ----------- sunspot ----- ------- ---<br>--------- ---- -- --- ---- -- --------- -- ---- -------<br>-- --------- ------ --- ----- ------ ---- --- --------- --<br>------ - ---- -- --- ----------- ------- ---- ----- -----<br>--- -------- - ------ ---- -- ----- ---- --- --- -----------<br>-- -------,109146.90000005066,109146.1549999658,109123.135,109115.4150001239,109139.841,109173.212,,12,sunspot
screen,html.Screen,1_3_1_0_1_13,2021-04-08T16:50:16.664Z,,,,,,,,,,,,,,,,2,,,,,,,,,,,,,,3.3280001313542016,,response,,,,1,F,,,,,,Space,keypress(Space),,,,instrumental,,,,--- ---- ------ --- ------- ---------- ------- ----------<br>--- --------- --- ----------- ------- group ------- ---<br>--------- ---- -- --- ---- -- --------- -- ---- -------<br>-- --------- ------ --- ----- ------ ---- --- --------- --<br>------ - ---- -- --- ----------- ------- ---- ----- -----<br>--- -------- - ------ ---- -- ----- ---- --- --- -----------<br>-- -------,109177.26000002585,109176.54000013135,109156.442,109147.15000009164,109173.212,109206.552,,13,group
screen,html.Screen,1_3_1_0_1_14,2021-04-08T16:50:16.696Z,,,,,,,,,,,,,,,,2,,,,,,,,,,,,,,1.783000090304995,,response,,,,1,F,,,,,,Space,keypress(Space),,,,instrumental,,,,--- ---- ------ --- ------- ---------- ------- ----------<br>--- --------- --- ----------- ------- ----- through ---<br>--------- ---- -- --- ---- -- --------- -- ---- -------<br>-- --------- ------ --- ----- ------ ---- --- --------- --<br>------ - ---- -- --- ----------- ------- ---- ----- -----<br>--- -------- - ------ ---- -- ----- ---- --- --- -----------<br>-- -------,109209.0549999848,109208.3350000903,109189.839,109177.47500003316,109206.552,109239.918,,14,through
screen,html.Screen,1_3_1_0_1_15,2021-04-08T16:50:16.725Z,,,,,,,,,,,,,,,,2,,,,,,,,,,,,,,15.157000131424866,,response,,,,1,F,,,,,,Space,keypress(Space),,,,instrumental,,,,--- ---- ------ --- ------- ---------- ------- ----------<br>--- --------- --- ----------- ------- ----- ------- his<br>--------- ---- -- --- ---- -- --------- -- ---- -------<br>-- --------- ------ --- ----- ------ ---- --- --------- --<br>------ - ---- -- --- ----------- ------- ---- ----- -----<br>--- -------- - ------ ---- -- ----- ---- --- --- -----------<br>-- -------,109238.96500002593,109238.24500013143,109223.088,109209.27500003017,,109256.571,,15,his
screen,html.Screen,1_3_1_0_1_16,2021-04-08T16:50:16.772Z,,,,,,,,,,,,,,,,2,,,,,,,,,,,,,,27.844000118318945,,response,,,,1,F,,,,,,Space,keypress(Space),,,,instrumental,,,,--- ---- ------ --- ------- ---------- ------- ----------<br>--- --------- --- ----------- ------- ----- ------- ---<br>telescope ---- -- --- ---- -- --------- -- ---- -------<br>-- --------- ------ --- ----- ------ ---- --- --------- --<br>------ - ---- -- --- ----------- ------- ---- ----- -----<br>--- -------- - ------ ---- -- ----- ---- --- --- -----------<br>-- -------,109285.10500001721,109284.41500011832,109239.918,109239.1850000713,109256.571,109289.902,,16,telescope
screen,html.Screen,1_3_1_0_1_17,2021-04-08T16:50:16.802Z,,,,,,,,,,,,,,,,2,,,,,,,,,,,,,,25.353000023169443,,response,,,,1,F,,,,,,Space,keypress(Space),,,,instrumental,,,,--- ---- ------ --- ------- ---------- ------- ----------<br>--- --------- --- ----------- ------- ----- ------- ---<br>--------- when -- --- ---- -- --------- -- ---- -------<br>-- --------- ------ --- ----- ------ ---- --- --------- --<br>------ - ---- -- --- ----------- ------- ---- ----- -----<br>--- -------- - ------ ---- -- ----- ---- --- --- -----------<br>-- -------,109315.9750001505,109315.25500002317,109273.159,109285.32500006258,109289.902,109323.247,,17,when
screen,html.Screen,1_3_1_0_1_18,2021-04-08T16:50:16.834Z,,,,,,,,,,,,,,,,2,,,,,,,,,,,,,,23.72300007144804,,response,,,,1,F,,,,,,Space,keypress(Space),,,,instrumental,,,,--- ---- ------ --- ------- ---------- ------- ----------<br>--- --------- --- ----------- ------- ----- ------- ---<br>--------- ---- he --- ---- -- --------- -- ---- -------<br>-- --------- ------ --- ----- ------ ---- --- --------- --<br>------ - ---- -- --- ----------- ------- ---- ----- -----<br>--- -------- - ------ ---- -- ----- ---- --- --- -----------<br>-- -------,109347.68999996595,109346.97000007145,109306.619,109316.1900001578,109323.247,109356.576,,18,he
screen,html.Screen,1_3_1_0_1_19,2021-04-08T16:50:16.864Z,,,,,,,,,,,,,,,,2,,,,,,,,,,,,,,20.584000149159692,,response,,,,1,F,,,,,,Space,keypress(Space),,,,instrumental,,,,--- ---- ------ --- ------- ---------- ------- ----------<br>--- --------- --- ----------- ------- ----- ------- ---<br>--------- ---- -- saw ---- -- --------- -- ---- -------<br>-- --------- ------ --- ----- ------ ---- --- --------- --<br>------ - ---- -- --- ----------- ------- ---- ----- -----<br>--- -------- - ------ ---- -- ----- ---- --- --- -----------<br>-- -------,109377.86999996752,109377.16000014916,109339.933,109347.9150000494,109356.576,109390.004,,19,saw
screen,html.Screen,1_3_1_0_1_20,2021-04-08T16:50:16.896Z,,,,,,,,,,,,,,,,2,,,,,,,,,,,,,,18.290999971985002,,response,,,,1,F,,,,,,Space,keypress(Space),,,,instrumental,,,,--- ---- ------ --- ------- ---------- ------- ----------<br>--- --------- --- ----------- ------- ----- ------- ---<br>--------- ---- -- --- what -- --------- -- ---- -------<br>-- --------- ------ --- ----- ------ ---- --- --------- --<br>------ - ---- -- --- ----------- ------- ---- ----- -----<br>--- -------- - ------ ---- -- ----- ---- --- --- -----------<br>-- -------,109409.02500017546,109408.29499997199,109373.284,109378.09000001289,109390.004,109423.313,,20,what
screen,html.Screen,1_3_1_0_1_21,2021-04-08T16:50:16.926Z,,,,,,,,,,,,,,,,2,,,,,,,,,,,,,,15.312000184407225,,response,,,,1,F,,,,,,Space,keypress(Space),,,,instrumental,,,,--- ---- ------ --- ------- ---------- ------- ----------<br>--- --------- --- ----------- ------- ----- ------- ---<br>--------- ---- -- --- ---- he --------- -- ---- -------<br>-- --------- ------ --- ----- ------ ---- --- --------- --<br>------ - ---- -- --- ----------- ------- ---- ----- -----<br>--- -------- - ------ ---- -- ----- ---- --- --- -----------<br>-- -------,109439.11499995738,109438.6250001844,109406.639,109409.244999988,109423.313,109456.663,,21,he
screen,html.Screen,1_3_1_0_1_22,2021-04-08T16:50:16.957Z,,,,,,,,,,,,,,,,2,,,,,,,,,,,,,,12.712000102445018,,response,,,,1,F,,,,,,Space,keypress(Space),,,,instrumental,,,,--- ---- ------ --- ------- ---------- ------- ----------<br>--- --------- --- ----------- ------- ----- ------- ---<br>--------- ---- -- --- ---- -- described -- ---- -------<br>-- --------- ------ --- ----- ------ ---- --- --------- --<br>------ - ---- -- --- ----------- ------- ---- ----- -----<br>--- -------- - ------ ---- -- ----- ---- --- --- -----------<br>-- -------,109470.10000003502,109469.37500010245,109440.001,109439.23500017263,109456.663,109490.07,,22,described
screen,html.Screen,1_3_1_0_1_23,2021-04-08T16:50:17.004Z,,,,,,,,,,,,,,,,2,,,,,,,,,,,,,,26.425000105344225,,response,,,,1,F,,,,,,Space,keypress(Space),,,,instrumental,,,,--- ---- ------ --- ------- ---------- ------- ----------<br>--- --------- --- ----------- ------- ----- ------- ---<br>--------- ---- -- --- ---- -- --------- as ---- -------<br>-- --------- ------ --- ----- ------ ---- --- --------- --<br>------ - ---- -- --- ----------- ------- ---- ----- -----<br>--- -------- - ------ ---- -- ----- ---- --- --- -----------<br>-- -------,109517.2550000716,109516.49500010535,109473.353,109470.32000008039,109490.07,109523.288,,23,as
screen,html.Screen,1_3_1_0_1_24,2021-04-08T16:50:17.034Z,,,,,,,,,,,,,,,,2,,,,,,,,,,,,,,23.7320001727785,,response,,,,1,F,,,,,,Space,keypress(Space),,,,instrumental,,,,"--- ---- ------ --- ------- ---------- ------- ----------<br>--- --------- --- ----------- ------- ----- ------- ---<br>--------- ---- -- --- ---- -- --------- -- ""two -------<br>-- --------- ------ --- ----- ------ ---- --- --------- --<br>------ - ---- -- --- ----------- ------- ---- ----- -----<br>--- -------- - ------ ---- -- ----- ---- --- --- -----------<br>-- -------",109547.7550001815,109547.02000017278,109506.701,109517.47500011697,109523.288,109556.719,,24,"""two"
screen,html.Screen,1_3_1_0_1_25,2021-04-08T16:50:17.067Z,,,,,,,,,,,,,,,,2,,,,,,,,,,,,,,22.58100009946793,,response,,,,1,F,,,,,,Space,keypress(Space),,,,instrumental,,,,--- ---- ------ --- ------- ---------- ------- ----------<br>--- --------- --- ----------- ------- ----- ------- ---<br>--------- ---- -- --- ---- -- --------- -- ---- patches<br>-- --------- ------ --- ----- ------ ---- --- --------- --<br>------ - ---- -- --- ----------- ------- ---- ----- -----<br>--- -------- - ------ ---- -- ----- ---- --- --- -----------<br>-- -------,109580.01999999397,109579.30000009947,109540.102,109547.96999995597,109556.719,109590.134,,25,patches
screen,html.Screen,1_3_1_0_1_26,2021-04-08T16:50:17.098Z,,,,,,,,,,,,,,,,2,,,,,,,,,,,,,,20.741000013033045,,response,,,,1,F,,,,,,Space,keypress(Space),,,,instrumental,,,,--- ---- ------ --- ------- ---------- ------- ----------<br>--- --------- --- ----------- ------- ----- ------- ---<br>--------- ---- -- --- ---- -- --------- -- ---- -------<br>of --------- ------ --- ----- ------ ---- --- --------- --<br>------ - ---- -- --- ----------- ------- ---- ----- -----<br>--- -------- - ------ ---- -- ----- ---- --- --- -----------<br>-- -------,109611.5900001023,109610.87500001304,109573.412,109580.24500007741,109590.134,109623.427,,26,of
screen,html.Screen,1_3_1_0_1_27,2021-04-08T16:50:17.129Z,,,,,,,,,,,,,,,,2,,,,,,,,,,,,,,18.75800000425079,,response,,,,1,F,,,,,,Space,keypress(Space),,,,instrumental,,,,--- ---- ------ --- ------- ---------- ------- ----------<br>--- --------- --- ----------- ------- ----- ------- ---<br>--------- ---- -- --- ---- -- --------- -- ---- -------<br>-- intensely ------ --- ----- ------ ---- --- --------- --<br>------ - ---- -- --- ----------- ------- ---- ----- -----<br>--- -------- - ------ ---- -- ----- ---- --- --- -----------<br>-- -------,109642.9000000935,109642.18500000425,109606.77,109611.81000014767,109623.427,109656.856,,27,intensely
screen,html.Screen,1_3_1_0_1_28,2021-04-08T16:50:17.159Z,,,,,,,,,,,,,,,,2,,,,,,,,,,,,,,15.383999985322589,,response,,,,1,F,,,,,,Space,keypress(Space),,,,instrumental,,,,--- ---- ------ --- ------- ---------- ------- ----------<br>--- --------- --- ----------- ------- ----- ------- ---<br>--------- ---- -- --- ---- -- --------- -- ---- -------<br>-- --------- bright --- ----- ------ ---- --- --------- --<br>------ - ---- -- --- ----------- ------- ---- ----- -----<br>--- -------- - ------ ---- -- ----- ---- --- --- -----------<br>-- -------,109672.96000011265,109672.23999998532,109640.08,109643.1150001008,109656.856,109690.199,,28,bright
screen,html.Screen,1_3_1_0_1_29,2021-04-08T16:50:17.191Z,,,,,,,,,,,,,,,,2,,,,,,,,,,,,,,13.921000125847058,,response,,,,1,F,,,,,,Space,keypress(Space),,,,instrumental,,,,--- ---- ------ --- ------- ---------- ------- ----------<br>--- --------- --- ----------- ------- ----- ------- ---<br>--------- ---- -- --- ---- -- --------- -- ---- -------<br>-- --------- ------ and ----- ------ ---- --- --------- --<br>------ - ---- -- --- ----------- ------- ---- ----- -----<br>--- -------- - ------ ---- -- ----- ---- --- --- -----------<br>-- -------,109704.83000017703,109704.12000012584,109673.488,109674.25000015646,109690.199,109723.557,,29,and
screen,html.Screen,1_3_1_0_1_30,2021-04-08T16:50:17.222Z,,,,,,,,,,,,,,,,2,,,,,,,,,,,,,,11.642999995528953,,response,,,,1,F,,,,,,Space,keypress(Space),,,,instrumental,,,,--- ---- ------ --- ------- ---------- ------- ----------<br>--- --------- --- ----------- ------- ----- ------- ---<br>--------- ---- -- --- ---- -- --------- -- ---- -------<br>-- --------- ------ --- white ------ ---- --- --------- --<br>------ - ---- -- --- ----------- ------- ---- ----- -----<br>--- -------- - ------ ---- -- ----- ---- --- --- -----------<br>-- -------,109735.92000012286,109735.19999999553,109706.801,109705.05500002764,109723.557,109756.909,,30,white
screen,html.Screen,1_3_1_0_1_31,2021-04-08T16:50:17.255Z,,,,,,,,,,,,,,,,2,,,,,,,,,,,,,,10.640999989569536,,response,,,,1,F,,,,,,Space,keypress(Space),,,,instrumental,,,,"--- ---- ------ --- ------- ---------- ------- ----------<br>--- --------- --- ----------- ------- ----- ------- ---<br>--------- ---- -- --- ---- -- --------- -- ---- -------<br>-- --------- ------ --- ----- light"" ---- --- --------- --<br>------ - ---- -- --- ----------- ------- ---- ----- -----<br>--- -------- - ------ ---- -- ----- ---- --- --- -----------<br>-- -------",109768.30999995582,109767.54999998957,109740.199,109736.90500017256,109756.909,109790.271,,31,"light"""
screen,html.Screen,1_3_1_0_1_32,2021-04-08T16:50:17.301Z,,,,,,,,,,,,,,,,2,,,,,,,,,,,,,,23.35899998965033,,response,,,,1,F,,,,,,Space,keypress(Space),,,,instrumental,,,,--- ---- ------ --- ------- ---------- ------- ----------<br>--- --------- --- ----------- ------- ----- ------- ---<br>--------- ---- -- --- ---- -- --------- -- ---- -------<br>-- --------- ------ --- ----- ------ over --- --------- --<br>------ - ---- -- --- ----------- ------- ---- ----- -----<br>--- -------- - ------ ---- -- ----- ---- --- --- -----------<br>-- -------,109814.3150000833,109813.62999998964,109773.551,109768.53000000119,109790.271,109823.577,,32,over
screen,html.Screen,1_3_1_0_1_33,2021-04-08T16:50:17.332Z,,,,,,,,,,,,,,,,2,,,,,,,,,,,,,,21.068000062878127,,response,,,,1,F,,,,,,Space,keypress(Space),,,,instrumental,,,,--- ---- ------ --- ------- ---------- ------- ----------<br>--- --------- --- ----------- ------- ----- ------- ---<br>--------- ---- -- --- ---- -- --------- -- ---- -------<br>-- --------- ------ --- ----- ------ ---- the --------- --<br>------ - ---- -- --- ----------- ------- ---- ----- -----<br>--- -------- - ------ ---- -- ----- ---- --- --- -----------<br>-- -------,109845.350000076,109844.64500006288,109806.901,109815.61000016518,109823.577,109856.999,,33,the
screen,html.Screen,1_3_1_0_1_34,2021-04-08T16:50:17.363Z,,,,,,,,,,,,,,,,2,,,,,,,,,,,,,,18.931000096563366,,response,,,,1,F,,,,,,Space,keypress(Space),,,,instrumental,,,,--- ---- ------ --- ------- ---------- ------- ----------<br>--- --------- --- ----------- ------- ----- ------- ---<br>--------- ---- -- --- ---- -- --------- -- ---- -------<br>-- --------- ------ --- ----- ------ ---- --- sunspots. --<br>------ - ---- -- --- ----------- ------- ---- ----- -----<br>--- -------- - ------ ---- -- ----- ---- --- --- -----------<br>-- -------,109876.6600000672,109875.93000009656,109840.256,109845.55500000715,109856.999,109890.333,,34,sunspots.
screen,html.Screen,1_3_1_0_1_35,2021-04-08T16:50:17.394Z,,,,,,,,,,,,,,,,2,,,,,,,,,,,,,,16.817000100956648,,response,,,,1,F,,,,,,Space,keypress(Space),,,,instrumental,,,,--- ---- ------ --- ------- ---------- ------- ----------<br>--- --------- --- ----------- ------- ----- ------- ---<br>--------- ---- -- --- ---- -- --------- -- ---- -------<br>-- --------- ------ --- ----- ------ ---- --- --------- He<br>------ - ---- -- --- ----------- ------- ---- ----- -----<br>--- -------- - ------ ---- -- ----- ---- --- --- -----------<br>-- -------,109907.76000008918,109907.15000010096,109873.611,109876.85999996029,109890.333,109923.694,,35,He
screen,html.Screen,1_3_1_0_1_36,2021-04-08T16:50:17.424Z,,,,,,,,,,,,,,,,2,,,,,,,,,,,,,,13.435999976602034,,response,,,,1,F,,,,,,Space,keypress(Space),,,,instrumental,,,,--- ---- ------ --- ------- ---------- ------- ----------<br>--- --------- --- ----------- ------- ----- ------- ---<br>--------- ---- -- --- ---- -- --------- -- ---- -------<br>-- --------- ------ --- ----- ------ ---- --- --------- --<br>jotted - ---- -- --- ----------- ------- ---- ----- -----<br>--- -------- - ------ ---- -- ----- ---- --- --- -----------<br>-- -------,109937.87500006147,109937.1299999766,109906.918,109907.95999998227,109923.694,109956.997,,36,jotted
screen,html.Screen,1_3_1_0_1_37,2021-04-08T16:50:17.455Z,,,,,,,,,,,,,,,,2,,,,,,,,,,,,,,11.09300009670551,,response,,,,1,F,,,,,,Space,keypress(Space),,,,instrumental,,,,--- ---- ------ --- ------- ---------- ------- ----------<br>--- --------- --- ----------- ------- ----- ------- ---<br>--------- ---- -- --- ---- -- --------- -- ---- -------<br>-- --------- ------ --- ----- ------ ---- --- --------- --<br>------ a ---- -- --- ----------- ------- ---- ----- -----<br>--- -------- - ------ ---- -- ----- ---- --- --- -----------<br>-- -------,109968.78500003368,109968.09000009671,109940.29,109938.07499995455,109956.997,109990.404,,37,a
