sender,sender_type,sender_id,timestamp,meta,,Blues,Classical,Country,Dance,Electronic,Folk,Gospel,Hip-Hop,Jazz,Latin,Musical/Film,New-age,Pop,Provo_ID,R&B,Rap,Reggae,Religious,Rock,Soul,Swing,Traditional,age,artist_name,correct,correctResponse,distraction,duration,education,ended_on,familiarity,gender,headphone_check_performance,item,list,music_frequency,offensiveness,pleasantness,position_correct,preference,response,response_action,snippet_file,song_name,song_rating,sound,stimulus_1,stimulus_2,stimulus_3,text,time_commit,time_end,time_render,time_run,time_show,time_switch,url,word,word_ID
Introduction,html.Screen,0_0,2021-04-08T07:49:01.183Z,"{""labjs_version"":""20.2.2"",""labjs_build"":{""flavor"":""production"",""commit"":""a25486e0c714a0ae2ce03ff94b7bb6896854dcfa""},""location"":""https://run.pavlovia.org/mvasilev/music_a/"",""userAgent"":""Mozilla/5.0 (Windows NT 10.0; Win64; x64) AppleWebKit/537.36 (KHTML, like Gecko) Chrome/89.0.4389.114 Safari/537.36"",""platform"":""Win32"",""language"":""de-DE"",""locale"":""en-US"",""timeZone"":""Europe/London"",""timezoneOffset"":-60,""screen_width"":2560,""screen_height"":1440,""scroll_width"":3200,""scroll_height"":1550,""window_innerWidth"":3200,""window_innerHeight"":1597,""devicePixelRatio"":0.800000011920929}",,,,,,,,,,,,,,,,,,,,,,,,,,,,,17983.686999896065,,response,,,,,,,,,,,continue,click button,,,,,,,,,27814.67999983579,27812.149999896064,9779.237,9792.864999966696,9828.463,27840.292,{},,
Volume calibration,html.Screen,0_1,2021-04-08T07:49:15.575Z,,,,,,,,,,,,,,,,,,,,,,,,,,,,,,14361.738000044032,,response,,,,,,,,,,,continue,click button,,,,,,,,,42207.410000031814,42202.03000004403,27806.969,27815.90999988839,27840.292,42216.454,,,
Task instructions,html.Screen,0_2,2021-04-08T07:49:22.818Z,,,,,,,,,,,,,,,,,,,,,,,,,,,,,,7232.421000001865,,response,,,,,,,,,,,continue,click button,,,,,,,,,49449.92499984801,49448.87500000186,42199.786,42207.749999826774,42216.454,49454.531,,,
Sounds,html.Screen,0_3_0_0,2021-04-08T07:49:27.063Z,,,,,,,,,,,,,,,,,,,,,,,,,,,,,,4252.754999999997,,timeout,,,,,,,,,3,,,,,,,,O,I,S,,53695.18999988213,53690.599,49437.878,49450.39999997243,49454.531,53707.286,,,
Judgement,html.Screen,0_3_0_1,2021-04-08T07:49:27.809Z,,,,,,,,,,,,,,,,,,,,,,,,,,,true,3,,732.7389999016523,,response,,,,,,,,,3,,3,click #choice-3,,,,,O,I,S,,54441.239999840036,54440.02499990165,53690.599,53695.52499987185,53707.286,54463.19,,,
Trial,flow.Sequence,0_3_0,2021-04-08T07:49:27.810Z,,,,,,,,,,,,,,,,,,,,,,,,,,,,,,4985.49399990165,,completion,,,,,,,,,3,,,,,,,,O,I,S,,54441.87999982387,54440.02499990165,49437.878,49450.28500002809,49454.531,54463.19,,,
Sounds,html.Screen,0_3_1_0,2021-04-08T07:49:32.063Z,,,,,,,,,,,,,,,,,,,,,,,,,,,,,,4247.421999999999,,timeout,,,,,,,,,1,,,,,,,,S,I,O,,58694.84999985434,58693.889,54424.483,54442.20499997027,54463.19,58710.612,,,
Judgement,html.Screen,0_3_1_1,2021-04-08T07:49:32.505Z,,,,,,,,,,,,,,,,,,,,,,,,,,,true,1,,424.6779998892089,,response,,,,,,,,,1,,1,click #choice-1,,,,,S,I,O,,59136.36499992572,59135.28999988921,58693.889,58695.11500000954,58710.612,59144.063,,,
Trial,flow.Sequence,0_3_1,2021-04-08T07:49:32.505Z,,,,,,,,,,,,,,,,,,,,,,,,,,,,,,4672.0999998892075,,completion,,,,,,,,,1,,,,,,,,S,I,O,,59136.7799998261,59135.28999988921,54424.483,54442.11499998346,54463.19,59144.063,,,
Sounds,html.Screen,0_3_2_0,2021-04-08T07:49:36.750Z,,,,,,,,,,,,,,,,,,,,,,,,,,,,,,4252.968000000001,,timeout,,,,,,,,,2,,,,,,,,I,S,O,,63381.20499998331,63380.352,59127.581,59137.08500005305,59144.063,63397.031,,,
Judgement,html.Screen,0_3_2_1,2021-04-08T07:49:37.344Z,,,,,,,,,,,,,,,,,,,,,,,,,,,true,2,,577.5989998369041,,response,,,,,,,,,2,,2,click #choice-2,,,,,I,S,O,,63975.68999999203,63974.62999983691,63380.352,63381.469999905676,63397.031,63980.746,,,
Trial,flow.Sequence,0_3_2,2021-04-08T07:49:37.345Z,,,,,,,,,,,,,,,,,,,,,,,,,,,,,,4830.566999836905,,completion,,,,,,,,,2,,,,,,,,I,S,O,,63976.09999985434,63974.62999983691,59127.581,59137.00499990955,59144.063,63980.746,,,
Sounds,html.Screen,0_3_3_0,2021-04-08T07:49:41.586Z,,,,,,,,,,,,,,,,,,,,,,,,,,,,,,4252.796000000002,,timeout,,,,,,,,,3,,,,,,,,I,O,S,,68217.77999983169,68216.857,63964.074,63976.384999928996,63980.746,68233.542,,,
Judgement,html.Screen,0_3_3_1,2021-04-08T07:49:42.111Z,,,,,,,,,,,,,,,,,,,,,,,,,,,true,3,,508.26299999783805,,response,,,,,,,,,3,,3,click #choice-3,,,,,I,O,S,,68742.84500000067,68741.80499999784,68216.857,68218.02000002936,68233.542,68750.376,,,
Trial,flow.Sequence,0_3_3,2021-04-08T07:49:42.112Z,,,,,,,,,,,,,,,,,,,,,,,,,,,,,,4761.05899999784,,completion,,,,,,,,,3,,,,,,,,I,O,S,,68743.24500001967,68741.80499999784,63964.074,63976.28999990411,63980.746,68750.376,,,
Sounds,html.Screen,0_3_4_0,2021-04-08T07:49:46.356Z,,,,,,,,,,,,,,,,,,,,,,,,,,,,,,4252.9679999999935,,timeout,,,,,,,,,1,,,,,,,,S,O,I,,72987.45499993674,72986.652,68733.875,68743.49999986589,68750.376,73003.344,,,
Judgement,html.Screen,0_3_4_1,2021-04-08T07:49:46.895Z,,,,,,,,,,,,,,,,,,,,,,,,,,,true,1,,521.8009998468187,,response,,,,,,,,,1,,1,click #choice-1,,,,,S,O,I,,73526.34999994189,73525.14499984682,72986.652,72987.7100000158,73003.344,73536.965,,,
Trial,flow.Sequence,0_3_4,2021-04-08T07:49:46.895Z,,,,,,,,,,,,,,,,,,,,,,,,,,,,,,4774.768999846812,,completion,,,,,,,,,1,,,,,,,,S,O,I,,73526.74999996088,73525.14499984682,68733.875,68743.4249999933,68750.376,73536.965,,,
Sounds,html.Screen,0_3_5_0,2021-04-08T07:49:51.142Z,,,,,,,,,,,,,,,,,,,,,,,,,,,,,,4252.858000000007,,timeout,,,,,,,,,2,,,,,,,,O,S,I,,77774.059999967,77773.138,73520.359,73527.00500003994,73536.965,77789.823,,,
Judgement,html.Screen,0_3_5_1,2021-04-08T07:49:51.870Z,,,,,,,,,,,,,,,,,,,,,,,,,,,true,2,,710.5519998286327,,response,,,,,,,,,2,,2,click #choice-2,,,,,O,S,I,,78501.44999986514,78500.37499982864,77773.138,77774.31000000797,77789.823,78506.953,,,
Trial,flow.Sequence,0_3_5,2021-04-08T07:49:51.872Z,,,,,,,,,,,,,,,,,,,,,,,,,,,,,,4963.40999982864,,completion,,,,,,,,,2,,,,,,,,O,S,I,,78503.40000004508,78500.37499982864,73520.359,73526.93499997258,73536.965,78506.953,,,
Task,flow.Loop,0_3,2021-04-08T07:49:51.880Z,,,,,,,,,,,,,,,,,,,,,,,,,,,,,,29045.843999828634,,completion,,,1,,,,,,,,,,,,,,,,,,78511.7799998261,78500.37499982864,49437.878,49450.190000003204,49454.531,78506.953,,,
Trap,html.Screen,0_4,2021-04-08T07:49:51.884Z,,,,,,,,,,,,,,,,,,,,,,,,,,,,,,NaN,,skipped,,,,,,,,,,,,,,,,,,,,,78515.85999992676,78500.37499982864,,78515.61499992386,,78506.953,,,
Thanks,html.Screen,0_5,2021-04-08T07:49:53.917Z,,,,,,,,,,,,,,,,,,,,,,,,,,,,,,2041.016999955973,,response,,,,,,,,,,,continue,click button,,,,,,,,,80549.0099999588,80547.96999995597,78490.271,78516.09499985352,78506.953,82842.982,,,
Headphone screening,flow.Sequence,0,2021-04-08T07:49:53.918Z,,,,,,,,,,,,,,,,,,,,,,,,,,,,,,70719.50699995596,,completion,,,,,,,,,,,,,,,,,,,,,80549.36499986798,80547.96999995597,9779.237,9792.82999993302,9828.463,82842.982,,,
Instructions,html.Page,1_0,2021-04-08T07:50:59.497Z,,,,,,,,,,,,,,,,,,,,,,,,,,,,,,63285.18799992355,,form submission,,,,,,,,,,,,,,,,,,,,,146128.87999997474,146128.16999992356,82809.632,82837.28999993764,82842.982,146134.709,,,
Holding screen,html.Screen,1_1_0_0,2021-04-08T07:51:09.494Z,,,,,,,,,,,,,,,,,,,,,,,,,,,,,,10023.231999999989,,timeout,,,,,,,,,,,,,,,,,,,,,156125.32499991357,156124.586,146118.027,146129.31500002742,146134.709,156157.941,,,
screen,html.Screen,1_1_0_1_0,2021-04-08T07:51:10.328Z,,,,,,,,,,,,,,,,53,,,,,,,,,,,,,,797.3939998314017,,response,,,,99,,,,,,,Space,keypress(Space),,,,,,,,When -- ----- -- ------ - ------- --- ----------<br>------------- ------ ------ ---- ---- ------- ----- -- ----<br>-------- ------- -- ---------- --- - --- ----- ----- ----<br>---- --- --- ----- --- ---- ---- ------- ----- ---- -------<br>--- --- -- ----- -- --- ---- -- --- ---- -- ------ ------<br>--- ----- -- ----,156959.95499985293,156955.3349998314,156124.586,156125.7050000131,156157.941,156958.474,,0,When
screen,html.Screen,1_1_0_1_1,2021-04-08T07:51:10.988Z,,,,,,,,,,,,,,,,53,,,,,,,,,,,,,,660.0760000137961,,response,,,,99,,,,,,,Space,keypress(Space),,,,,,,,---- it ----- -- ------ - ------- --- ----------<br>------------- ------ ------ ---- ---- ------- ----- -- ----<br>-------- ------- -- ---------- --- - --- ----- ----- ----<br>---- --- --- ----- --- ---- ---- ------- ----- ---- -------<br>--- --- -- ----- -- --- ---- -- --- ---- -- ------ ------<br>--- ----- -- ----,157619.3899998907,157618.55000001378,156941.896,156960.25999984704,156958.474,157625.592,,1,it
screen,html.Screen,1_1_0_1_2,2021-04-08T07:51:11.403Z,,,,,,,,,,,,,,,,53,,,,,,,,,,,,,,408.76799993234454,,response,,,,99,,,,,,,Space,keypress(Space),,,,,,,,---- -- comes -- ------ - ------- --- ----------<br>------------- ------ ------ ---- ---- ------- ----- -- ----<br>-------- ------- -- ---------- --- - --- ----- ----- ----<br>---- --- --- ----- --- ---- ---- ------- ----- ---- -------<br>--- --- -- ----- -- --- ---- -- --- ---- -- ------ ------<br>--- ----- -- ----,158035.23499984294,158034.35999993235,157608.991,157619.6649998892,157625.592,158042.499,,2,comes
screen,html.Screen,1_1_0_1_3,2021-04-08T07:51:11.819Z,,,,,,,,,,,,,,,,53,,,,,,,,,,,,,,407.640999855299,,response,,,,99,,,,,,,Space,keypress(Space),,,,,,,,---- -- ----- to ------ - ------- --- ----------<br>------------- ------ ------ ---- ---- ------- ----- -- ----<br>-------- ------- -- ---------- --- - --- ----- ----- ----<br>---- --- --- ----- --- ---- ---- ------- ----- ---- -------<br>--- --- -- ----- -- --- ---- -- --- ---- -- ------ ------<br>--- ----- -- ----,158450.91999997385,158450.1399998553,158025.89,158035.489999922,158042.499,158459.309,,3,to
screen,html.Screen,1_1_0_1_4,2021-04-08T07:51:12.195Z,,,,,,,,,,,,,,,,53,,,,,,,,,,,,,,366.790999947465,,response,,,,99,,,,,,,Space,keypress(Space),,,,,,,,---- -- ----- -- having - ------- --- ----------<br>------------- ------ ------ ---- ---- ------- ----- -- ----<br>-------- ------- -- ---------- --- - --- ----- ----- ----<br>---- --- --- ----- --- ---- ---- ------- ----- ---- -------<br>--- --- -- ----- -- --- ---- -- --- ---- -- ------ ------<br>--- ----- -- ----,158826.8349999562,158826.09999994747,158442.828,158451.17000001483,158459.309,158843.078,,4,having
screen,html.Screen,1_1_0_1_5,2021-04-08T07:51:12.507Z,,,,,,,,,,,,,,,,53,,,,,,,,,,,,,,294.93199987869593,,response,,,,99,,,,,,,Space,keypress(Space),,,,,,,,---- -- ----- -- ------ a ------- --- ----------<br>------------- ------ ------ ---- ---- ------- ----- -- ----<br>-------- ------- -- ---------- --- - --- ----- ----- ----<br>---- --- --- ----- --- ---- ---- ------- ----- ---- -------<br>--- --- -- ----- -- --- ---- -- --- ---- -- ------ ------<br>--- ----- -- ----,159138.6750000529,159138.0099998787,158826.409,158827.08499999717,158843.078,159143.241,,5,a
screen,html.Screen,1_1_0_1_6,2021-04-08T07:51:12.859Z,,,,,,,,,,,,,,,,53,,,,,,,,,,,,,,346.81399994381354,,response,,,,99,,,,,,,Space,keypress(Space),,,,,,,,---- -- ----- -- ------ - lasting --- ----------<br>------------- ------ ------ ---- ---- ------- ----- -- ----<br>-------- ------- -- ---------- --- - --- ----- ----- ----<br>---- --- --- ----- --- ---- ---- ------- ----- ---- -------<br>--- --- -- ----- -- --- ---- -- --- ---- -- ------ ------<br>--- ----- -- ----,159490.78499991447,159490.05499994382,159126.591,159138.92499986105,159143.241,159493.471,,6,lasting
screen,html.Screen,1_1_0_1_7,2021-04-08T07:51:13.235Z,,,,,,,,,,,,,,,,53,,,,,,,,,,,,,,372.4589998544252,,response,,,,99,,,,,,,Space,keypress(Space),,,,,,,,---- -- ----- -- ------ - ------- and ----------<br>------------- ------ ------ ---- ---- ------- ----- -- ----<br>-------- ------- -- ---------- --- - --- ----- ----- ----<br>---- --- --- ----- --- ---- ---- ------- ----- ---- -------<br>--- --- -- ----- -- --- ---- -- --- ---- -- ------ ------<br>--- ----- -- ----,159866.62999982946,159865.92999985442,159476.788,159491.03499995545,159493.471,159877.029,,7,and
screen,html.Screen,1_1_0_1_8,2021-04-08T07:51:14.003Z,,,,,,,,,,,,,,,,53,,,,,,,,,,,,,,756.8259999054426,,response,,,,99,,,,,,,Space,keypress(Space),,,,,,,,---- -- ----- -- ------ - ------- --- fulfilling<br>------------- ------ ------ ---- ---- ------- ----- -- ----<br>-------- ------- -- ---------- --- - --- ----- ----- ----<br>---- --- --- ----- --- ---- ---- ------- ----- ---- -------<br>--- --- -- ----- -- --- ---- -- --- ---- -- ------ ------<br>--- ----- -- ----,160634.5549998805,160633.85499990545,159860.425,159866.87000002712,159877.029,160644.131,,8,fulfilling
screen,html.Screen,1_1_0_1_9,2021-04-08T07:51:14.499Z,,,,,,,,,,,,,,,,53,,,,,,,,,,,,,,485.59399988973746,,response,,,,99,,,,,,,Space,keypress(Space),,,,,,,,"---- -- ----- -- ------ - ------- --- ----------<br>relationship, ------ ------ ---- ---- ------- ----- -- ----<br>-------- ------- -- ---------- --- - --- ----- ----- ----<br>---- --- --- ----- --- ---- ---- ------- ----- ---- -------<br>--- --- -- ----- -- --- ---- -- --- ---- -- ------ ------<br>--- ----- -- ----",161130.43499994092,161129.72499988973,160627.646,160634.81499999762,160644.131,161144.595,,9,"relationship,"
screen,html.Screen,1_1_0_1_10,2021-04-08T07:51:15.027Z,,,,,,,,,,,,,,,,53,,,,,,,,,,,,,,513.0899999837566,,response,,,,99,,,,,,,Space,keypress(Space),,,,,,,,---- -- ----- -- ------ - ------- --- ----------<br>------------- common ------ ---- ---- ------- ----- -- ----<br>-------- ------- -- ---------- --- - --- ----- ----- ----<br>---- --- --- ----- --- ---- ---- ------- ----- ---- -------<br>--- --- -- ----- -- --- ---- -- --- ---- -- ------ ------<br>--- ----- -- ----,161658.37999992073,161657.68499998376,161127.87,161130.6849999819,161144.595,161661.575,,10,common
screen,html.Screen,1_1_0_1_11,2021-04-08T07:51:15.418Z,,,,,,,,,,,,,,,,53,,,,,,,,,,,,,,387.9499999221298,,response,,,,99,,,,,,,Space,keypress(Space),,,,,,,,---- -- ----- -- ------ - ------- --- ----------<br>------------- ------ wisdom ---- ---- ------- ----- -- ----<br>-------- ------- -- ---------- --- - --- ----- ----- ----<br>---- --- --- ----- --- ---- ---- ------- ----- ---- -------<br>--- --- -- ----- -- --- ---- -- --- ---- -- ------ ------<br>--- ----- -- ----,162050.2549998928,162049.52499992214,161644.945,161658.6449998431,161661.575,162061.798,,11,wisdom
screen,html.Screen,1_1_0_1_12,2021-04-08T07:51:15.819Z,,,,,,,,,,,,,,,,53,,,,,,,,,,,,,,387.8069999724976,,response,,,,99,,,,,,,Space,keypress(Space),,,,,,,,---- -- ----- -- ------ - ------- --- ----------<br>------------- ------ ------ says ---- ------- ----- -- ----<br>-------- ------- -- ---------- --- - --- ----- ----- ----<br>---- --- --- ----- --- ---- ---- ------- ----- ---- -------<br>--- --- -- ----- -- --- ---- -- --- ---- -- ------ ------<br>--- ----- -- ----,162450.34999982454,162449.6049999725,162045.19,162050.49499985762,162061.798,162462.055,,12,says
screen,html.Screen,1_1_0_1_13,2021-04-08T07:51:16.234Z,,,,,,,,,,,,,,,,53,,,,,,,,,,,,,,403.3849998486112,,response,,,,99,,,,,,,Space,keypress(Space),,,,,,,,---- -- ----- -- ------ - ------- --- ----------<br>------------- ------ ------ ---- that ------- ----- -- ----<br>-------- ------- -- ---------- --- - --- ----- ----- ----<br>---- --- --- ----- --- ---- ---- ------- ----- ---- -------<br>--- --- -- ----- -- --- ---- -- --- ---- -- ------ ------<br>--- ----- -- ----,162866.1350000184,162865.4399998486,162445.466,162450.6049999036,162462.055,162878.999,,13,that
screen,html.Screen,1_1_0_1_14,2021-04-08T07:51:16.626Z,,,,,,,,,,,,,,,,53,,,,,,,,,,,,,,378.3460000490886,,response,,,,99,,,,,,,Space,keypress(Space),,,,,,,,---- -- ----- -- ------ - ------- --- ----------<br>------------- ------ ------ ---- ---- feeling ----- -- ----<br>-------- ------- -- ---------- --- - --- ----- ----- ----<br>---- --- --- ----- --- ---- ---- ------- ----- ---- -------<br>--- --- -- ----- -- --- ---- -- --- ---- -- ------ ------<br>--- ----- -- ----,163258.05499986745,163257.3450000491,162862.39,162866.38499982655,162878.999,163262.615,,14,feeling
screen,html.Screen,1_1_0_1_15,2021-04-08T07:51:17.050Z,,,,,,,,,,,,,,,,53,,,,,,,,,,,,,,418.73499996983446,,response,,,,99,,,,,,,Space,keypress(Space),,,,,,,,---- -- ----- -- ------ - ------- --- ----------<br>------------- ------ ------ ---- ---- ------- close -- ----<br>-------- ------- -- ---------- --- - --- ----- ----- ----<br>---- --- --- ----- --- ---- ---- ------- ----- ---- -------<br>--- --- -- ----- -- --- ---- -- --- ---- -- ------ ------<br>--- ----- -- ----,163682.06499982625,163681.34999996983,163245.937,163258.30499990843,163262.615,163696.26,,15,close
screen,html.Screen,1_1_0_1_16,2021-04-08T07:51:17.490Z,,,,,,,,,,,,,,,,53,,,,,,,,,,,,,,425.0049999651965,,response,,,,99,,,,,,,Space,keypress(Space),,,,,,,,---- -- ----- -- ------ - ------- --- ----------<br>------------- ------ ------ ---- ---- ------- ----- to ----<br>-------- ------- -- ---------- --- - --- ----- ----- ----<br>---- --- --- ----- --- ---- ---- ------- ----- ---- -------<br>--- --- -- ----- -- --- ---- -- --- ---- -- ------ ------<br>--- ----- -- ----,164121.96499994025,164121.2649999652,163679.574,163682.32499994338,163696.26,164129.756,,16,to
screen,html.Screen,1_1_0_1_17,2021-04-08T07:51:18.082Z,,,,,,,,,,,,,,,,53,,,,,,,,,,,,,,583.3740000473917,,response,,,,99,,,,,,,Space,keypress(Space),,,,,,,,---- -- ----- -- ------ - ------- --- ----------<br>------------- ------ ------ ---- ---- ------- ----- -- your<br>-------- ------- -- ---------- --- - --- ----- ----- ----<br>---- --- --- ----- --- ---- ---- ------- ----- ---- -------<br>--- --- -- ----- -- --- ---- -- --- ---- -- ------ ------<br>--- ----- -- ----,164713.8499999419,164713.1300000474,164113.222,164122.22499982454,164129.756,164730.279,,17,your
screen,html.Screen,1_1_0_1_18,2021-04-08T07:51:18.506Z,,,,,,,,,,,,,,,,53,,,,,,,,,,,,,,406.9609998363012,,response,,,,99,,,,,,,Space,keypress(Space),,,,,,,,---- -- ----- -- ------ - ------- --- ----------<br>------------- ------ ------ ---- ---- ------- ----- -- ----<br>romantic ------- -- ---------- --- - --- ----- ----- ----<br>---- --- --- ----- --- ---- ---- ------- ----- ---- -------<br>--- --- -- ----- -- --- ---- -- --- ---- -- ------ ------<br>--- ----- -- ----,165138.030000031,165137.2399998363,164713.635,164714.0949999448,164730.279,165147.166,,18,romantic
screen,html.Screen,1_1_0_1_19,2021-04-08T07:51:18.882Z,,,,,,,,,,,,,,,,53,,,,,,,,,,,,,,365.97899997534114,,response,,,,99,,,,,,,Space,keypress(Space),,,,,,,,---- -- ----- -- ------ - ------- --- ----------<br>------------- ------ ------ ---- ---- ------- ----- -- ----<br>-------- partner -- ---------- --- - --- ----- ----- ----<br>---- --- --- ----- --- ---- ---- ------- ----- ---- -------<br>--- --- -- ----- -- --- ---- -- --- ---- -- ------ ------<br>--- ----- -- ----,165513.92499986105,165513.14499997534,165130.51,165138.2899999153,165147.166,165530.799,,19,partner
screen,html.Screen,1_1_0_1_20,2021-04-08T07:51:19.266Z,,,,,,,,,,,,,,,,53,,,,,,,,,,,,,,366.21599999500904,,response,,,,99,,,,,,,Space,keypress(Space),,,,,,,,---- -- ----- -- ------ - ------- --- ----------<br>------------- ------ ------ ---- ---- ------- ----- -- ----<br>-------- ------- is ---------- --- - --- ----- ----- ----<br>---- --- --- ----- --- ---- ---- ------- ----- ---- -------<br>--- --- -- ----- -- --- ---- -- --- ---- -- ------ ------<br>--- ----- -- ----,165897.73999992758,165897.014999995,165514.093,165514.17499990202,165530.799,165914.279,,20,is
screen,html.Screen,1_1_0_1_21,2021-04-08T07:51:19.642Z,,,,,,,,,,,,,,,,53,,,,,,,,,,,,,,358.70599993047654,,response,,,,99,,,,,,,Space,keypress(Space),,,,,,,,---- -- ----- -- ------ - ------- --- ----------<br>------------- ------ ------ ---- ---- ------- ----- -- ----<br>-------- ------- -- paramount. --- - --- ----- ----- ----<br>---- --- --- ----- --- ---- ---- ------- ----- ---- -------<br>--- --- -- ----- -- --- ---- -- --- ---- -- ------ ------<br>--- ----- -- ----,166273.7199999392,166272.9849999305,165897.735,165897.98999996856,165914.279,166281.214,,21,paramount.
screen,html.Screen,1_1_0_1_22,2021-04-08T07:51:20.194Z,,,,,,,,,,,,,,,,53,,,,,,,,,,,,,,543.6609999329376,,response,,,,99,,,,,,,Space,keypress(Space),,,,,,,,---- -- ----- -- ------ - ------- --- ----------<br>------------- ------ ------ ---- ---- ------- ----- -- ----<br>-------- ------- -- ---------- But - --- ----- ----- ----<br>---- --- --- ----- --- ---- ---- ------- ----- ---- -------<br>--- --- -- ----- -- --- ---- -- --- ---- -- ------ ------<br>--- ----- -- ----,166825.61499997973,166824.87499993294,166264.622,166273.97500001825,166281.214,166831.656,,22,But
screen,html.Screen,1_1_0_1_23,2021-04-08T07:51:20.627Z,,,,,,,,,,,,,,,,53,,,,,,,,,,,,,,425.9489999334037,,response,,,,99,,,,,,,Space,keypress(Space),,,,,,,,---- -- ----- -- ------ - ------- --- ----------<br>------------- ------ ------ ---- ---- ------- ----- -- ----<br>-------- ------- -- ---------- --- a --- ----- ----- ----<br>---- --- --- ----- --- ---- ---- ------- ----- ---- -------<br>--- --- -- ----- -- --- ---- -- --- ---- -- ------ ------<br>--- ----- -- ----,167258.44500004314,167257.6049999334,166815.013,166825.86999982595,166831.656,167265.15,,23,a
screen,html.Screen,1_1_0_1_24,2021-04-08T07:51:21.018Z,,,,,,,,,,,,,,,,53,,,,,,,,,,,,,,383.6100000109582,,response,,,,99,,,,,,,Space,keypress(Space),,,,,,,,---- -- ----- -- ------ - ------- --- ----------<br>------------- ------ ------ ---- ---- ------- ----- -- ----<br>-------- ------- -- ---------- --- - new ----- ----- ----<br>---- --- --- ----- --- ---- ---- ------- ----- ---- -------<br>--- --- -- ----- -- --- ---- -- --- ---- -- ------ ------<br>--- ----- -- ----,167649.52500001527,167648.76000001095,167248.615,167258.70499992743,167265.15,167665.494,,24,new
screen,html.Screen,1_1_0_1_25,2021-04-08T07:51:21.418Z,,,,,,,,,,,,,,,,53,,,,,,,,,,,,,,383.2059999266057,,response,,,,99,,,,,,,Space,keypress(Space),,,,,,,,---- -- ----- -- ------ - ------- --- ----------<br>------------- ------ ------ ---- ---- ------- ----- -- ----<br>-------- ------- -- ---------- --- - --- study ----- ----<br>---- --- --- ----- --- ---- ---- ------- ----- ---- -------<br>--- --- -- ----- -- --- ---- -- --- ---- -- ------ ------<br>--- ----- -- ----,168049.45999989286,168048.6999999266,167648.885,167649.78499989957,167665.494,168065.809,,25,study
screen,html.Screen,1_1_0_1_26,2021-04-08T07:51:21.818Z,,,,,,,,,,,,,,,,53,,,,,,,,,,,,,,382.8459999564802,,response,,,,99,,,,,,,Space,keypress(Space),,,,,,,,---- -- ----- -- ------ - ------- --- ----------<br>------------- ------ ------ ---- ---- ------- ----- -- ----<br>-------- ------- -- ---------- --- - --- ----- finds ----<br>---- --- --- ----- --- ---- ---- ------- ----- ---- -------<br>--- --- -- ----- -- --- ---- -- --- ---- -- ------ ------<br>--- ----- -- ----,168449.3899999652,168448.6549999565,168049.138,168049.72500004806,168065.809,168466.065,,26,finds
screen,html.Screen,1_1_0_1_27,2021-04-08T07:51:22.250Z,,,,,,,,,,,,,,,,53,,,,,,,,,,,,,,414.5299999950803,,response,,,,99,,,,,,,Space,keypress(Space),,,,,,,,---- -- ----- -- ------ - ------- --- ----------<br>------------- ------ ------ ---- ---- ------- ----- -- ----<br>-------- ------- -- ---------- --- - --- ----- ----- that<br>---- --- --- ----- --- ---- ---- ------- ----- ---- -------<br>--- --- -- ----- -- --- ---- -- --- ---- -- ------ ------<br>--- ----- -- ----,168881.36500003748,168880.59499999508,168449.4,168449.64500004426,168466.065,168901.801,,27,that
screen,html.Screen,1_1_0_1_28,2021-04-08T07:51:22.817Z,,,,,,,,,,,,,,,,53,,,,,,,,,,,,,,546.6889998642437,,response,,,,99,,,,,,,Space,keypress(Space),,,,,,,,---- -- ----- -- ------ - ------- --- ----------<br>------------- ------ ------ ---- ---- ------- ----- -- ----<br>-------- ------- -- ---------- --- - --- ----- ----- ----<br>it's --- --- ----- --- ---- ---- ------- ----- ---- -------<br>--- --- -- ----- -- --- ---- -- --- ---- -- ------ ------<br>--- ----- -- ----,169449.24500002526,169448.48999986425,168866.352,168881.61499984562,168901.801,169483.404,,28,it's
screen,html.Screen,1_1_0_1_29,2021-04-08T07:51:23.289Z,,,,,,,,,,,,,,,,53,,,,,,,,,,,,,,437.0009999825561,,response,,,,99,,,,,,,Space,keypress(Space),,,,,,,,---- -- ----- -- ------ - ------- --- ----------<br>------------- ------ ------ ---- ---- ------- ----- -- ----<br>-------- ------- -- ---------- --- - --- ----- ----- ----<br>---- not --- ----- --- ---- ---- ------- ----- ---- -------<br>--- --- -- ----- -- --- ---- -- --- ---- -- ------ ------<br>--- ----- -- ----,169921.119999839,169920.40499998257,169466.686,169449.4849999901,169483.404,169933.643,,29,not
screen,html.Screen,1_1_0_1_30,2021-04-08T07:51:23.785Z,,,,,,,,,,,,,,,,53,,,,,,,,,,,,,,482.7769999067823,,response,,,,99,,,,,,,Space,keypress(Space),,,,,,,,---- -- ----- -- ------ - ------- --- ----------<br>------------- ------ ------ ---- ---- ------- ----- -- ----<br>-------- ------- -- ---------- --- - --- ----- ----- ----<br>---- --- how ----- --- ---- ---- ------- ----- ---- -------<br>--- --- -- ----- -- --- ---- -- --- ---- -- ------ ------<br>--- ----- -- ----,170417.24499990232,170416.4199999068,169917.039,169921.36000003666,169933.643,170434.027,,30,how
screen,html.Screen,1_1_0_1_31,2021-04-08T07:51:24.209Z,,,,,,,,,,,,,,,,53,,,,,,,,,,,,,,406.2279999300372,,response,,,,99,,,,,,,Space,keypress(Space),,,,,,,,---- -- ----- -- ------ - ------- --- ----------<br>------------- ------ ------ ---- ---- ------- ----- -- ----<br>-------- ------- -- ---------- --- - --- ----- ----- ----<br>---- --- --- close --- ---- ---- ------- ----- ---- -------<br>--- --- -- ----- -- --- ---- -- --- ---- -- ------ ------<br>--- ----- -- ----,170841.0749998875,170840.25499993004,170417.374,170417.48999990523,170434.027,170850.909,,31,close
screen,html.Screen,1_1_0_1_32,2021-04-08T07:51:24.633Z,,,,,,,,,,,,,,,,53,,,,,,,,,,,,,,413.3959999605722,,response,,,,99,,,,,,,Space,keypress(Space),,,,,,,,---- -- ----- -- ------ - ------- --- ----------<br>------------- ------ ------ ---- ---- ------- ----- -- ----<br>-------- ------- -- ---------- --- - --- ----- ----- ----<br>---- --- --- ----- you ---- ---- ------- ----- ---- -------<br>--- --- -- ----- -- --- ---- -- --- ---- -- ------ ------<br>--- ----- -- ----,171265.11999987997,171264.3049999606,170834.307,170841.32499992847,170850.909,171267.882,,32,you
screen,html.Screen,1_1_0_1_33,2021-04-08T07:51:25.081Z,,,,,,,,,,,,,,,,53,,,,,,,,,,,,,,444.20300000646967,,response,,,,99,,,,,,,Space,keypress(Space),,,,,,,,---- -- ----- -- ------ - ------- --- ----------<br>------------- ------ ------ ---- ---- ------- ----- -- ----<br>-------- ------- -- ---------- --- - --- ----- ----- ----<br>---- --- --- ----- --- feel ---- ------- ----- ---- -------<br>--- --- -- ----- -- --- ---- -- --- ---- -- ------ ------<br>--- ----- -- ----,171712.77999994345,171712.08500000648,171251.242,171265.36499988288,171267.882,171718.169,,33,feel
screen,html.Screen,1_1_0_1_34,2021-04-08T07:51:25.521Z,,,,,,,,,,,,,,,,53,,,,,,,,,,,,,,433.81099984957837,,response,,,,99,,,,,,,Space,keypress(Space),,,,,,,,---- -- ----- -- ------ - ------- --- ----------<br>------------- ------ ------ ---- ---- ------- ----- -- ----<br>-------- ------- -- ---------- --- - --- ----- ----- ----<br>---- --- --- ----- --- ---- that ------- ----- ---- -------<br>--- --- -- ----- -- --- ---- -- --- ---- -- ------ ------<br>--- ----- -- ----,172152.68999990076,172151.97999984957,171701.454,171713.02499994636,171718.169,172168.5,,34,that
screen,html.Screen,1_1_0_1_35,2021-04-08T07:51:25.977Z,,,,,,,,,,,,,,,,53,,,,,,,,,,,,,,439.46499997377396,,response,,,,99,,,,,,,Space,keypress(Space),,,,,,,,---- -- ----- -- ------ - ------- --- ----------<br>------------- ------ ------ ---- ---- ------- ----- -- ----<br>-------- ------- -- ---------- --- - --- ----- ----- ----<br>---- --- --- ----- --- ---- ---- matters ----- ---- -------<br>--- --- -- ----- -- --- ---- -- --- ---- -- ------ ------<br>--- ----- -- ----,172608.65999991074,172607.96499997377,172151.866,172152.92499982752,172168.5,172618.73,,35,matters
screen,html.Screen,1_1_0_1_36,2021-04-08T07:51:26.489Z,,,,,,,,,,,,,,,,53,,,,,,,,,,,,,,501.17499985403265,,response,,,,99,,,,,,,Space,keypress(Space),,,,,,,,"---- -- ----- -- ------ - ------- --- ----------<br>------------- ------ ------ ---- ---- ------- ----- -- ----<br>-------- ------- -- ---------- --- - --- ----- ----- ----<br>---- --- --- ----- --- ---- ---- ------- most, ---- -------<br>--- --- -- ----- -- --- ---- -- --- ---- -- ------ ------<br>--- ----- -- ----",173120.57499983348,173119.90499985404,172602.127,172608.89999987558,172618.73,173135.789,,36,"most,"
screen,html.Screen,1_1_0_1_37,2021-04-08T07:51:26.977Z,,,,,,,,,,,,,,,,53,,,,,,,,,,,,,,471.9660000045551,,response,,,,99,,,,,,,Space,keypress(Space),,,,,,,,---- -- ----- -- ------ - ------- --- ----------<br>------------- ------ ------ ---- ---- ------- ----- -- ----<br>-------- ------- -- ---------- --- - --- ----- ----- ----<br>---- --- --- ----- --- ---- ---- ------- ----- it's -------<br>--- --- -- ----- -- --- ---- -- --- ---- -- ------ ------<br>--- ----- -- ----,173608.46000001766,173607.75500000454,173119.108,173120.80999999307,173135.789,173619.342,,37,it's
screen,html.Screen,1_1_0_1_38,2021-04-08T07:51:27.449Z,,,,,,,,,,,,,,,,53,,,,,,,,,,,,,,460.4080000335234,,response,,,,99,,,,,,,Space,keypress(Space),,,,,,,,---- -- ----- -- ------ - ------- --- ----------<br>------------- ------ ------ ---- ---- ------- ----- -- ----<br>-------- ------- -- ---------- --- - --- ----- ----- ----<br>---- --- --- ----- --- ---- ---- ------- ----- ---- whether<br>--- --- -- ----- -- --- ---- -- --- ---- -- ------ ------<br>--- ----- -- ----,174080.45500004664,174079.75000003353,173602.793,173608.6999999825,173619.342,174086.26,,38,whether
screen,html.Screen,1_1_0_1_39,2021-04-08T07:51:27.928Z,,,,,,,,,,,,,,,,53,,,,,,,,,,,,,,473.3599999563303,,response,,,,99,,,,,,,Space,keypress(Space),,,,,,,,---- -- ----- -- ------ - ------- --- ----------<br>------------- ------ ------ ---- ---- ------- ----- -- ----<br>-------- ------- -- ---------- --- - --- ----- ----- ----<br>---- --- --- ----- --- ---- ---- ------- ----- ---- -------<br>you --- -- ----- -- --- ---- -- --- ---- -- ------ ------<br>--- ----- -- ----,174560.30500005,174559.61999995634,174069.775,174080.6899999734,174086.26,174570.01,,39,you
screen,html.Screen,1_1_0_1_40,2021-04-08T07:51:28.608Z,,,,,,,,,,,,,,,,53,,,,,,,,,,,,,,669.6149999292102,,response,,,,99,,,,,,,Space,keypress(Space),,,,,,,,---- -- ----- -- ------ - ------- --- ----------<br>------------- ------ ------ ---- ---- ------- ----- -- ----<br>-------- ------- -- ---------- --- - --- ----- ----- ----<br>---- --- --- ----- --- ---- ---- ------- ----- ---- -------<br>--- are -- ----- -- --- ---- -- --- ---- -- ------ ------<br>--- ----- -- ----,175240.2749999892,175239.62499992922,174553.418,174560.53499993868,174570.01,175253.857,,40,are
screen,html.Screen,1_1_0_1_41,2021-04-08T07:51:29.040Z,,,,,,,,,,,,,,,,53,,,,,,,,,,,,,,417.5979998287221,,response,,,,99,,,,,,,Space,keypress(Space),,,,,,,,---- -- ----- -- ------ - ------- --- ----------<br>------------- ------ ------ ---- ---- ------- ----- -- ----<br>-------- ------- -- ---------- --- - --- ----- ----- ----<br>---- --- --- ----- --- ---- ---- ------- ----- ---- -------<br>--- --- as ----- -- --- ---- -- --- ---- -- ------ ------<br>--- ----- -- ----,175672.12999984622,175671.4549998287,175237.24,175240.52500003017,175253.857,175687.48,,41,as
screen,html.Screen,1_1_0_1_42,2021-04-08T07:51:29.456Z,,,,,,,,,,,,,,,,53,,,,,,,,,,,,,,399.9299999200448,,response,,,,99,,,,,,,Space,keypress(Space),,,,,,,,---- -- ----- -- ------ - ------- --- ----------<br>------------- ------ ------ ---- ---- ------- ----- -- ----<br>-------- ------- -- ---------- --- - --- ----- ----- ----<br>---- --- --- ----- --- ---- ---- ------- ----- ---- -------<br>--- --- -- close -- --- ---- -- --- ---- -- ------ ------<br>--- ----- -- ----,176088.08999997564,176087.40999992006,175670.768,175672.35999996774,175687.48,176104.402,,42,close
screen,html.Screen,1_1_0_1_43,2021-04-08T07:51:29.904Z,,,,,,,,,,,,,,,,53,,,,,,,,,,,,,,430.92299982975237,,response,,,,99,,,,,,,Space,keypress(Space),,,,,,,,---- -- ----- -- ------ - ------- --- ----------<br>------------- ------ ------ ---- ---- ------- ----- -- ----<br>-------- ------- -- ---------- --- - --- ----- ----- ----<br>---- --- --- ----- --- ---- ---- ------- ----- ---- -------<br>--- --- -- ----- as --- ---- -- --- ---- -- ------ ------<br>--- ----- -- ----,176536.02500003763,176535.32499982975,176087.749,176088.31499982625,176104.402,176537.962,,43,as
screen,html.Screen,1_1_0_1_44,2021-04-08T07:51:30.288Z,,,,,,,,,,,,,,,,53,,,,,,,,,,,,,,381.297999878705,,response,,,,99,,,,,,,Space,keypress(Space),,,,,,,,---- -- ----- -- ------ - ------- --- ----------<br>------------- ------ ------ ---- ---- ------- ----- -- ----<br>-------- ------- -- ---------- --- - --- ----- ----- ----<br>---- --- --- ----- --- ---- ---- ------- ----- ---- -------<br>--- --- -- ----- -- you ---- -- --- ---- -- ------ ------<br>--- ----- -- ----,176919.9250000529,176919.2599998787,176521.367,176536.26500000246,176537.962,176946.196,,44,you
screen,html.Screen,1_1_0_1_45,2021-04-08T07:51:30.745Z,,,,,,,,,,,,,,,,53,,,,,,,,,,,,,,429.7339998637326,,response,,,,99,,,,,,,Space,keypress(Space),,,,,,,,---- -- ----- -- ------ - ------- --- ----------<br>------------- ------ ------ ---- ---- ------- ----- -- ----<br>-------- ------- -- ---------- --- - --- ----- ----- ----<br>---- --- --- ----- --- ---- ---- ------- ----- ---- -------<br>--- --- -- ----- -- --- want -- --- ---- -- ------ ------<br>--- ----- -- ----,177376.6399999149,177375.92999986373,176904.952,176920.14999990351,176946.196,177388.528,,45,want
screen,html.Screen,1_1_0_1_46,2021-04-08T07:51:31.200Z,,,,,,,,,,,,,,,,53,,,,,,,,,,,,,,442.6419999030768,,response,,,,99,,,,,,,Space,keypress(Space),,,,,,,,---- -- ----- -- ------ - ------- --- ----------<br>------------- ------ ------ ---- ---- ------- ----- -- ----<br>-------- ------- -- ---------- --- - --- ----- ----- ----<br>---- --- --- ----- --- ---- ---- ------- ----- ---- -------<br>--- --- -- ----- -- --- ---- to --- ---- -- ------ ------<br>--- ----- -- ----,177831.8600000348,177831.16999990307,177371.923,177376.86499999836,177388.528,177838.789,,46,to
screen,html.Screen,1_1_0_1_47,2021-04-08T07:51:31.664Z,,,,,,,,,,,,,,,,53,,,,,,,,,,,,,,456.38099982298445,,response,,,,99,,,,,,,Space,keypress(Space),,,,,,,,"---- -- ----- -- ------ - ------- --- ----------<br>------------- ------ ------ ---- ---- ------- ----- -- ----<br>-------- ------- -- ---------- --- - --- ----- ----- ----<br>---- --- --- ----- --- ---- ---- ------- ----- ---- -------<br>--- --- -- ----- -- --- ---- -- be, ---- -- ------ ------<br>--- ----- -- ----",178296.02500004694,178295.16999982297,177822.226,177832.08999992348,177838.789,178305.814,,47,"be,"
screen,html.Screen,1_1_0_1_48,2021-04-08T07:51:32.120Z,,,,,,,,,,,,,,,,53,,,,,,,,,,,,,,445.25599999842234,,response,,,,99,,,,,,,Space,keypress(Space),,,,,,,,---- -- ----- -- ------ - ------- --- ----------<br>------------- ------ ------ ---- ---- ------- ----- -- ----<br>-------- ------- -- ---------- --- - --- ----- ----- ----<br>---- --- --- ----- --- ---- ---- ------- ----- ---- -------<br>--- --- -- ----- -- --- ---- -- --- even -- ------ ------<br>--- ----- -- ----,178751.86499999836,178751.06999999844,178289.2,178296.2599999737,178305.814,178756.126,,48,even
screen,html.Screen,1_1_0_1_49,2021-04-08T07:51:32.560Z,,,,,,,,,,,,,,,,53,,,,,,,,,,,,,,434.8589999938267,,response,,,,99,,,,,,,Space,keypress(Space),,,,,,,,---- -- ----- -- ------ - ------- --- ----------<br>------------- ------ ------ ---- ---- ------- ----- -- ----<br>-------- ------- -- ---------- --- - --- ----- ----- ----<br>---- --- --- ----- --- ---- ---- ------- ----- ---- -------<br>--- --- -- ----- -- --- ---- -- --- ---- if ------ ------<br>--- ----- -- ----,179191.71499996446,179190.98499999382,178739.498,178752.09999992512,178756.126,179206.46,,49,if
screen,html.Screen,1_1_0_1_50,2021-04-08T07:51:32.992Z,,,,,,,,,,,,,,,,53,,,,,,,,,,,,,,416.47499987573246,,response,,,,99,,,,,,,Space,keypress(Space),,,,,,,,---- -- ----- -- ------ - ------- --- ----------<br>------------- ------ ------ ---- ---- ------- ----- -- ----<br>-------- ------- -- ---------- --- - --- ----- ----- ----<br>---- --- --- ----- --- ---- ---- ------- ----- ---- -------<br>--- --- -- ----- -- --- ---- -- --- ---- -- that's ------<br>--- ----- -- ----,179623.66999988444,179622.93499987572,179189.791,179191.94499985315,179206.46,179640.075,,50,that's
screen,html.Screen,1_1_0_1_51,2021-04-08T07:51:33.824Z,,,,,,,,,,,,,,,,53,,,,,,,,,,,,,,814.7749998636427,,response,,,,99,,,,,,,Space,keypress(Space),,,,,,,,---- -- ----- -- ------ - ------- --- ----------<br>------------- ------ ------ ---- ---- ------- ----- -- ----<br>-------- ------- -- ---------- --- - --- ----- ----- ----<br>---- --- --- ----- --- ---- ---- ------- ----- ---- -------<br>--- --- -- ----- -- --- ---- -- --- ---- -- ------ really<br>--- ----- -- ----,180455.65499993972,180454.84999986365,179623.41,179623.90000000596,179640.075,180479.983,,51,really
screen,html.Screen,1_1_0_1_52,2021-04-08T07:51:34.320Z,,,,,,,,,,,,,,,,53,,,,,,,,,,,,,,470.7369998479262,,response,,,,99,,,,,,,Space,keypress(Space),,,,,,,,---- -- ----- -- ------ - ------- --- ----------<br>------------- ------ ------ ---- ---- ------- ----- -- ----<br>-------- ------- -- ---------- --- - --- ----- ----- ----<br>---- --- --- ----- --- ---- ---- ------- ----- ---- -------<br>--- --- -- ----- -- --- ---- -- --- ---- -- ------ ------<br>not ----- -- ----,180951.45999989472,180950.71999984793,180440.676,180455.8899998665,180479.983,180957.505,,52,not
screen,html.Screen,1_1_0_1_53,2021-04-08T07:51:34.768Z,,,,,,,,,,,,,,,,53,,,,,,,,,,,,,,441.1549999479903,,response,,,,99,,,,,,,Space,keypress(Space),,,,,,,,---- -- ----- -- ------ - ------- --- ----------<br>------------- ------ ------ ---- ---- ------- ----- -- ----<br>-------- ------- -- ---------- --- - --- ----- ----- ----<br>---- --- --- ----- --- ---- ---- ------- ----- ---- -------<br>--- --- -- ----- -- --- ---- -- --- ---- -- ------ ------<br>--- close -- ----,181399.47499986738,181398.659999948,180940.945,180951.69999985956,180957.505,181407.851,,53,close
screen,html.Screen,1_1_0_1_54,2021-04-08T07:51:35.191Z,,,,,,,,,,,,,,,,53,,,,,,,,,,,,,,414.72899991998565,,response,,,,99,,,,,,,Space,keypress(Space),,,,,,,,---- -- ----- -- ------ - ------- --- ----------<br>------------- ------ ------ ---- ---- ------- ----- -- ----<br>-------- ------- -- ---------- --- - --- ----- ----- ----<br>---- --- --- ----- --- ---- ---- ------- ----- ---- -------<br>--- --- -- ----- -- --- ---- -- --- ---- -- ------ ------<br>--- ----- at ----,181823.30499985255,181822.57999991998,181391.26,181399.7149998322,181407.851,181842.322,,54,at
screen,html.Screen,1_1_0_1_55,2021-04-08T07:51:35.792Z,,,,,,,,,,,,,,,,53,,,,,,,,,,,,,,580.2580000131275,,response,,,,99,,,,,,,Space,keypress(Space),,,,,,,,---- -- ----- -- ------ - ------- --- ----------<br>------------- ------ ------ ---- ---- ------- ----- -- ----<br>-------- ------- -- ---------- --- - --- ----- ----- ----<br>---- --- --- ----- --- ---- ---- ------- ----- ---- -------<br>--- --- -- ----- -- --- ---- -- --- ---- -- ------ ------<br>--- ----- -- all.,182423.31500002183,182422.5800000131,181808.187,181823.529999936,181842.322,182441.885,,55,all.
Item 99,flow.Loop,1_1_0_1,2021-04-08T07:51:35.793Z,,,,,,,,,,,,,,,,,,,,,,,,,,,,,,26264.63900001312,,completion,,,,,A,,,,,,,,,,,silence,,,,,182425.20499997772,182422.5800000131,156124.586,156125.60499995016,156157.941,182441.885,,,
Question 1,html.Screen,1_1_0_2,2021-04-08T07:51:40.133Z,,,,,,,,,,,,,,,,,,,,,,,,,,,true,FALSE,,4321.649999918183,,response,,,,99,A,,,,,,FALSE,click #choice-2,,,,silence,,,,,186764.67499998398,186763.5349999182,182425.27,182425.41499994695,182441.885,186778.081,,,
Question 2,html.Screen,1_1_0_3,2021-04-08T07:51:44.196Z,,,,,,,,,,,,,,,,,,,,,,,,,,,true,TRUE,,4048.8589998243842,,response,,,,99,A,,,,,,TRUE,click #choice-1,,,,silence,,,,,190827.9099999927,190826.9399998244,186761.383,186764.9149999488,186778.081,190830.718,,,
Item 99,flow.Sequence,1_1_0,2021-04-08T07:51:44.197Z,,,,,,,,,,,,,,,,,,,,,,,,,,,,,,44692.23099982439,,completion,,,,,,,,,,,,,,,,,,,,,190828.24499998242,190826.9399998244,146118.027,146129.2550000362,146134.709,190830.718,,,
Holding screen,html.Screen,1_1_1_0,2021-04-08T07:51:54.190Z,,,,,,,,,,,,,,,,,,,,,,,,,,,,,,10006.444000000018,,timeout,,,,,,,,,,,,,,,,,,,,,200821.23499992304,200820.61,190814.037,190828.46999983303,190830.718,200837.162,,,
screen,html.Screen,1_1_1_1_0,2021-04-08T07:51:54.725Z,,,,,,,,,,,,,,,,54,,,,,,,,,,,,,,519.0729998392053,,response,,,,100,,,,,,,Space,keypress(Space),,,,,,,,At --- ---- --- ------ ----- ------- ---- -- --- ------- --<br>------- ---------- ------ -- ----- -- ----- -- ---- ------<br>--- ----- --- --- ------ -------- ----- --- ------ ----- --<br>----- ----- ---------- --- --- ------ ------ ---- -- ------<br>------- --- ------ ----- --- ---- ------- -- ---- --- --<br>------- ------,201357.02999983914,201356.23499983922,200820.61,200821.50999992155,200837.162,201371.012,,0,At
screen,html.Screen,1_1_1_1_1,2021-04-08T07:51:55.181Z,,,,,,,,,,,,,,,,54,,,,,,,,,,,,,,440.45300003525335,,response,,,,100,,,,,,,Space,keypress(Space),,,,,,,,-- the ---- --- ------ ----- ------- ---- -- --- ------- --<br>------- ---------- ------ -- ----- -- ----- -- ---- ------<br>--- ----- --- --- ------ -------- ----- --- ------ ----- --<br>----- ----- ---------- --- --- ------ ------ ---- -- ------<br>------- --- ------ ----- --- ---- ------- -- ---- --- --<br>------- ------,201812.144999858,201811.46500003524,201354.294,201357.2549999226,201371.012,201821.244,,1,the
screen,html.Screen,1_1_1_1_2,2021-04-08T07:51:55.652Z,,,,,,,,,,,,,,,,54,,,,,,,,,,,,,,462.12599984457484,,response,,,,100,,,,,,,Space,keypress(Space),,,,,,,,-- --- time --- ------ ----- ------- ---- -- --- ------- --<br>------- ---------- ------ -- ----- -- ----- -- ---- ------<br>--- ----- --- --- ------ -------- ----- --- ------ ----- --<br>----- ----- ---------- --- --- ------ ------ ---- -- ------<br>------- --- ------ ----- --- ---- ------- -- ---- --- --<br>------- ------,202283.99499994703,202283.36999984458,201804.638,201812.36999994144,201821.244,202288.248,,2,time
screen,html.Screen,1_1_1_1_3,2021-04-08T07:51:56.108Z,,,,,,,,,,,,,,,,54,,,,,,,,,,,,,,451.0619998589682,,response,,,,100,,,,,,,Space,keypress(Space),,,,,,,,-- --- ---- the ------ ----- ------- ---- -- --- ------- --<br>------- ---------- ------ -- ----- -- ----- -- ---- ------<br>--- ----- --- --- ------ -------- ----- --- ------ ----- --<br>----- ----- ---------- --- --- ------ ------ ---- -- ------<br>------- --- ------ ----- --- ---- ------- -- ---- --- --<br>------- ------,202739.96999999508,202739.30999985896,202271.553,202284.22000003047,202288.248,202755.256,,3,the
screen,html.Screen,1_1_1_1_4,2021-04-08T07:51:56.572Z,,,,,,,,,,,,,,,,54,,,,,,,,,,,,,,447.91899991506943,,response,,,,100,,,,,,,Space,keypress(Space),,,,,,,,-- --- ---- --- French ----- ------- ---- -- --- ------- --<br>------- ---------- ------ -- ----- -- ----- -- ---- ------<br>--- ----- --- --- ------ -------- ----- --- ------ ----- --<br>----- ----- ---------- --- --- ------ ------ ---- -- ------<br>------- --- ------ ----- --- ---- ------- -- ---- --- --<br>------- ------,203203.87999992818,203203.17499991506,202738.554,202740.19999988377,202755.256,203222.759,,4,French
screen,html.Screen,1_1_1_1_5,2021-04-08T07:51:57.084Z,,,,,,,,,,,,,,,,54,,,,,,,,,,,,,,492.3560000281723,,response,,,,100,,,,,,,Space,keypress(Space),,,,,,,,-- --- ---- --- ------ crown ------- ---- -- --- ------- --<br>------- ---------- ------ -- ----- -- ----- -- ---- ------<br>--- ----- --- --- ------ -------- ----- --- ------ ----- --<br>----- ----- ---------- --- --- ------ ------ ---- -- ------<br>------- --- ------ ----- --- ---- ------- -- ---- --- --<br>------- ------,203715.79000004567,203715.11500002816,203188.881,203204.10500001162,203222.759,203722.388,,5,crown
screen,html.Screen,1_1_1_1_6,2021-04-08T07:51:57.500Z,,,,,,,,,,,,,,,,54,,,,,,,,,,,,,,408.6970000008878,,response,,,,100,,,,,,,Space,keypress(Space),,,,,,,,-- --- ---- --- ------ ----- secured ---- -- --- ------- --<br>------- ---------- ------ -- ----- -- ----- -- ---- ------<br>--- ----- --- --- ------ -------- ----- --- ------ ----- --<br>----- ----- ---------- --- --- ------ ------ ---- -- ------<br>------- --- ------ ----- --- ---- ------- -- ---- --- --<br>------- ------,204131.790000014,204131.0850000009,203705.896,203716.00999985822,203722.388,204139.364,,6,secured
screen,html.Screen,1_1_1_1_7,2021-04-08T07:51:57.940Z,,,,,,,,,,,,,,,,54,,,,,,,,,,,,,,431.63099995820085,,response,,,,100,,,,,,,Space,keypress(Space),,,,,,,,-- --- ---- --- ------ ----- ------- much -- --- ------- --<br>------- ---------- ------ -- ----- -- ----- -- ---- ------<br>--- ----- --- --- ------ -------- ----- --- ------ ----- --<br>----- ----- ---------- --- --- ------ ------ ---- -- ------<br>------- --- ------ ----- --- ---- ------- -- ---- --- --<br>------- ------,204571.69499993324,204570.9949999582,204122.825,204132.0050000213,204139.364,204605.329,,7,much
screen,html.Screen,1_1_1_1_8,2021-04-08T07:51:58.380Z,,,,,,,,,,,,,,,,54,,,,,,,,,,,,,,405.72099985546083,,response,,,,100,,,,,,,Space,keypress(Space),,,,,,,,-- --- ---- --- ------ ----- ------- ---- of --- ------- --<br>------- ---------- ------ -- ----- -- ----- -- ---- ------<br>--- ----- --- --- ------ -------- ----- --- ------ ----- --<br>----- ----- ---------- --- --- ------ ------ ---- -- ------<br>------- --- ------ ----- --- ---- ------- -- ---- --- --<br>------- ------,205011.7799998261,205011.04999985546,204556.442,204571.91499997862,204605.329,205023.36,,8,of
screen,html.Screen,1_1_1_1_9,2021-04-08T07:51:58.828Z,,,,,,,,,,,,,,,,54,,,,,,,,,,,,,,435.53499993064906,,response,,,,100,,,,,,,Space,keypress(Space),,,,,,,,-- --- ---- --- ------ ----- ------- ---- -- its ------- --<br>------- ---------- ------ -- ----- -- ----- -- ---- ------<br>--- ----- --- --- ------ -------- ----- --- ------ ----- --<br>----- ----- ---------- --- --- ------ ------ ---- -- ------<br>------- --- ------ ----- --- ---- ------- -- ---- --- --<br>------- ------,205459.61499982513,205458.89499993064,205006.74,205012.00499990955,205023.36,205473.712,,9,its
screen,html.Screen,1_1_1_1_10,2021-04-08T07:51:59.308Z,,,,,,,,,,,,,,,,54,,,,,,,,,,,,,,465.1229999208008,,response,,,,100,,,,,,,Space,keypress(Space),,,,,,,,-- --- ---- --- ------ ----- ------- ---- -- --- revenue --<br>------- ---------- ------ -- ----- -- ----- -- ---- ------<br>--- ----- --- --- ------ -------- ----- --- ------ ----- --<br>----- ----- ---------- --- --- ------ ------ ---- -- ------<br>------- --- ------ ----- --- ---- ------- -- ---- --- --<br>------- ------,205939.5399999339,205938.8349999208,205457.054,205459.83999990858,205473.712,205957.323,,10,revenue
screen,html.Screen,1_1_1_1_11,2021-04-08T07:51:59.788Z,,,,,,,,,,,,,,,,54,,,,,,,,,,,,,,461.69699991386733,,response,,,,100,,,,,,,Space,keypress(Space),,,,,,,,-- --- ---- --- ------ ----- ------- ---- -- --- ------- by<br>------- ---------- ------ -- ----- -- ----- -- ---- ------<br>--- ----- --- --- ------ -------- ----- --- ------ ----- --<br>----- ----- ---------- --- --- ------ ------ ---- -- ------<br>------- --- ------ ----- --- ---- ------- -- ---- --- --<br>------- ------,206419.72499992698,206419.01999991387,205924.024,205939.77499986067,205957.323,206424.292,,11,by
screen,html.Screen,1_1_1_1_12,2021-04-08T07:52:00.236Z,,,,,,,,,,,,,,,,54,,,,,,,,,,,,,,442.48300000224845,,response,,,,100,,,,,,,Space,keypress(Space),,,,,,,,-- --- ---- --- ------ ----- ------- ---- -- --- ------- --<br>issuing ---------- ------ -- ----- -- ----- -- ---- ------<br>--- ----- --- --- ------ -------- ----- --- ------ ----- --<br>----- ----- ---------- --- --- ------ ------ ---- -- ------<br>------- --- ------ ----- --- ---- ------- -- ---- --- --<br>------- ------,206867.54500004463,206866.77500000224,206407.672,206419.95000001043,206424.292,206874.419,,12,issuing
screen,html.Screen,1_1_1_1_13,2021-04-08T07:52:00.812Z,,,,,,,,,,,,,,,,54,,,,,,,,,,,,,,568.2359999043401,,response,,,,100,,,,,,,Space,keypress(Space),,,,,,,,-- --- ---- --- ------ ----- ------- ---- -- --- ------- --<br>------- government ------ -- ----- -- ----- -- ---- ------<br>--- ----- --- --- ------ -------- ----- --- ------ ----- --<br>----- ----- ---------- --- --- ------ ------ ---- -- ------<br>------- --- ------ ----- --- ---- ------- -- ---- --- --<br>------- ------,207443.41499987058,207442.65499990433,206857.962,206867.76999989524,206874.419,207458.345,,13,government
screen,html.Screen,1_1_1_1_14,2021-04-08T07:52:01.356Z,,,,,,,,,,,,,,,,54,,,,,,,,,,,,,,528.2149998738605,,response,,,,100,,,,,,,Space,keypress(Space),,,,,,,,-- --- ---- --- ------ ----- ------- ---- -- --- ------- --<br>------- ---------- bonds. -- ----- -- ----- -- ---- ------<br>--- ----- --- --- ------ -------- ----- --- ------ ----- --<br>----- ----- ---------- --- --- ------ ------ ---- -- ------<br>------- --- ------ ----- --- ---- ------- -- ---- --- --<br>------- ------,207987.2899998445,207986.55999987386,207441.684,207443.6449999921,207458.345,207991.994,,14,bonds.
screen,html.Screen,1_1_1_1_15,2021-04-08T07:52:01.908Z,,,,,,,,,,,,,,,,54,,,,,,,,,,,,,,546.4760000286042,,response,,,,100,,,,,,,Space,keypress(Space),,,,,,,,-- --- ---- --- ------ ----- ------- ---- -- --- ------- --<br>------- ---------- ------ In ----- -- ----- -- ---- ------<br>--- ----- --- --- ------ -------- ----- --- ------ ----- --<br>----- ----- ---------- --- --- ------ ------ ---- -- ------<br>------- --- ------ ----- --- ---- ------- -- ---- --- --<br>------- ------,208539.21499988064,208538.4700000286,207975.378,207987.50999988988,207991.994,208542.347,,15,In
screen,html.Screen,1_1_1_1_16,2021-04-08T07:52:02.428Z,,,,,,,,,,,,,,,,54,,,,,,,,,,,,,,516.0729998993338,,response,,,,100,,,,,,,Space,keypress(Space),,,,,,,,"-- --- ---- --- ------ ----- ------- ---- -- --- ------- --<br>------- ---------- ------ -- 1727, -- ----- -- ---- ------<br>--- ----- --- --- ------ -------- ----- --- ------ ----- --<br>----- ----- ---------- --- --- ------ ------ ---- -- ------<br>------- --- ------ ----- --- ---- ------- -- ---- --- --<br>------- ------",209059.104999993,209058.41999989934,208525.739,208539.45000004023,208542.347,209076.065,,16,"1727,"
screen,html.Screen,1_1_1_1_17,2021-04-08T07:52:02.939Z,,,,,,,,,,,,,,,,54,,,,,,,,,,,,,,494.2199999070144,,response,,,,100,,,,,,,Space,keypress(Space),,,,,,,,-- --- ---- --- ------ ----- ------- ---- -- --- ------- --<br>------- ---------- ------ -- ----- in ----- -- ---- ------<br>--- ----- --- --- ------ -------- ----- --- ------ ----- --<br>----- ----- ---------- --- --- ------ ------ ---- -- ------<br>------- --- ------ ----- --- ---- ------- -- ---- --- --<br>------- ------,209571.0249999538,209570.28499990702,209059.419,209059.3299998436,209076.065,209576.324,,17,in
screen,html.Screen,1_1_1_1_18,2021-04-08T07:52:03.388Z,,,,,,,,,,,,,,,,54,,,,,,,,,,,,,,441.9759998796799,,response,,,,100,,,,,,,Space,keypress(Space),,,,,,,,-- --- ---- --- ------ ----- ------- ---- -- --- ------- --<br>------- ---------- ------ -- ----- -- order -- ---- ------<br>--- ----- --- --- ------ -------- ----- --- ------ ----- --<br>----- ----- ---------- --- --- ------ ------ ---- -- ------<br>------- --- ------ ----- --- ---- ------- -- ---- --- --<br>------- ------,210019.05500004068,210018.29999987967,209559.746,209571.25000003725,209576.324,210026.628,,18,order
screen,html.Screen,1_1_1_1_19,2021-04-08T07:52:03.843Z,,,,,,,,,,,,,,,,54,,,,,,,,,,,,,,447.5419998267025,,response,,,,100,,,,,,,Space,keypress(Space),,,,,,,,-- --- ---- --- ------ ----- ------- ---- -- --- ------- --<br>------- ---------- ------ -- ----- -- ----- to ---- ------<br>--- ----- --- --- ------ -------- ----- --- ------ ----- --<br>----- ----- ---------- --- --- ------ ------ ---- -- ------<br>------- --- ------ ----- --- ---- ------- -- ---- --- --<br>------- ------,210474.9549999833,210474.1699998267,210010.038,210019.2950000055,210026.628,210476.96,,19,to
screen,html.Screen,1_1_1_1_20,2021-04-08T07:52:04.283Z,,,,,,,,,,,,,,,,54,,,,,,,,,,,,,,437.06000002563815,,response,,,,100,,,,,,,Space,keypress(Space),,,,,,,,-- --- ---- --- ------ ----- ------- ---- -- --- ------- --<br>------- ---------- ------ -- ----- -- ----- -- save ------<br>--- ----- --- --- ------ -------- ----- --- ------ ----- --<br>----- ----- ---------- --- --- ------ ------ ---- -- ------<br>------- --- ------ ----- --- ---- ------- -- ---- --- --<br>------- ------,210914.684999967,210914.02000002563,210460.328,210475.18999991007,210476.96,210927.21,,20,save
screen,html.Screen,1_1_1_1_21,2021-04-08T07:52:04.748Z,,,,,,,,,,,,,,,,54,,,,,,,,,,,,,,451.34999986641924,,response,,,,100,,,,,,,Space,keypress(Space),,,,,,,,"-- --- ---- --- ------ ----- ------- ---- -- --- ------- --<br>------- ---------- ------ -- ----- -- ----- -- ---- money,<br>--- ----- --- --- ------ -------- ----- --- ------ ----- --<br>----- ----- ---------- --- --- ------ ------ ---- -- ------<br>------- --- ------ ----- --- ---- ------- -- ---- --- --<br>------- ------",211379.22999984585,211378.5599998664,210910.625,210914.90500001237,210927.21,211394.253,,21,"money,"
screen,html.Screen,1_1_1_1_22,2021-04-08T07:52:05.227Z,,,,,,,,,,,,,,,,54,,,,,,,,,,,,,,463.61699994889204,,response,,,,100,,,,,,,Space,keypress(Space),,,,,,,,-- --- ---- --- ------ ----- ------- ---- -- --- ------- --<br>------- ---------- ------ -- ----- -- ----- -- ---- ------<br>the ----- --- --- ------ -------- ----- --- ------ ----- --<br>----- ----- ---------- --- --- ------ ------ ---- -- ------<br>------- --- ------ ----- --- ---- ------- -- ---- --- --<br>------- ------,211858.5449999664,211857.8699999489,211377.598,211379.44999989122,211394.253,211861.199,,22,the
screen,html.Screen,1_1_1_1_23,2021-04-08T07:52:05.683Z,,,,,,,,,,,,,,,,54,,,,,,,,,,,,,,452.5709998915263,,response,,,,100,,,,,,,Space,keypress(Space),,,,,,,,-- --- ---- --- ------ ----- ------- ---- -- --- ------- --<br>------- ---------- ------ -- ----- -- ----- -- ---- ------<br>--- state --- --- ------ -------- ----- --- ------ ----- --<br>----- ----- ---------- --- --- ------ ------ ---- -- ------<br>------- --- ------ ----- --- ---- ------- -- ---- --- --<br>------- ------,212314.4499999471,212313.76999989152,211844.572,211858.76500001177,211861.199,212328.155,,23,state
screen,html.Screen,1_1_1_1_24,2021-04-08T07:52:06.107Z,,,,,,,,,,,,,,,,54,,,,,,,,,,,,,,409.54499993965146,,response,,,,100,,,,,,,Space,keypress(Space),,,,,,,,-- --- ---- --- ------ ----- ------- ---- -- --- ------- --<br>------- ---------- ------ -- ----- -- ----- -- ---- ------<br>--- ----- cut --- ------ -------- ----- --- ------ ----- --<br>----- ----- ---------- --- --- ------ ------ ---- -- ------<br>------- --- ------ ----- --- ---- ------- -- ---- --- --<br>------- ------,212738.45499986783,212737.69999993965,212311.545,212314.66999999247,212328.155,212745.028,,24,cut
screen,html.Screen,1_1_1_1_25,2021-04-08T07:52:06.539Z,,,,,,,,,,,,,,,,54,,,,,,,,,,,,,,424.6069999401807,,response,,,,100,,,,,,,Space,keypress(Space),,,,,,,,-- --- ---- --- ------ ----- ------- ---- -- --- ------- --<br>------- ---------- ------ -- ----- -- ----- -- ---- ------<br>--- ----- --- the ------ -------- ----- --- ------ ----- --<br>----- ----- ---------- --- --- ------ ------ ---- -- ------<br>------- --- ------ ----- --- ---- ------- -- ---- --- --<br>------- ------,213170.37499998696,213169.63499994017,212728.478,212738.67999995127,212745.028,213178.64,,25,the
screen,html.Screen,1_1_1_1_26,2021-04-08T07:52:06.955Z,,,,,,,,,,,,,,,,54,,,,,,,,,,,,,,406.9599998748163,,response,,,,100,,,,,,,Space,keypress(Space),,,,,,,,-- --- ---- --- ------ ----- ------- ---- -- --- ------- --<br>------- ---------- ------ -- ----- -- ----- -- ---- ------<br>--- ----- --- --- bonds' -------- ----- --- ------ ----- --<br>----- ----- ---------- --- --- ------ ------ ---- -- ------<br>------- --- ------ ----- --- ---- ------- -- ---- --- --<br>------- ------,213586.27499989234,213585.59999987483,213162.098,213170.59500003234,213178.64,213595.586,,26,bonds'
screen,html.Screen,1_1_1_1_27,2021-04-08T07:52:07.459Z,,,,,,,,,,,,,,,,54,,,,,,,,,,,,,,493.94399999745656,,response,,,,100,,,,,,,Space,keypress(Space),,,,,,,,-- --- ---- --- ------ ----- ------- ---- -- --- ------- --<br>------- ---------- ------ -- ----- -- ----- -- ---- ------<br>--- ----- --- --- ------ interest ----- --- ------ ----- --<br>----- ----- ---------- --- --- ------ ------ ---- -- ------<br>------- --- ------ ----- --- ---- ------- -- ---- --- --<br>------- ------,214090.23500001058,214089.52999999747,213579.035,213586.4999999758,213595.586,214095.912,,27,interest
screen,html.Screen,1_1_1_1_28,2021-04-08T07:52:07.939Z,,,,,,,,,,,,,,,,54,,,,,,,,,,,,,,473.6029998646118,,response,,,,100,,,,,,,Space,keypress(Space),,,,,,,,-- --- ---- --- ------ ----- ------- ---- -- --- ------- --<br>------- ---------- ------ -- ----- -- ----- -- ---- ------<br>--- ----- --- --- ------ -------- rate. --- ------ ----- --<br>----- ----- ---------- --- --- ------ ------ ---- -- ------<br>------- --- ------ ----- --- ---- ------- -- ---- --- --<br>------- ------,214570.21499983966,214569.51499986462,214079.373,214090.4800000135,214095.912,214579.608,,28,rate.
screen,html.Screen,1_1_1_1_29,2021-04-08T07:52:08.339Z,,,,,,,,,,,,,,,,54,,,,,,,,,,,,,,389.7669998696074,,response,,,,100,,,,,,,Space,keypress(Space),,,,,,,,-- --- ---- --- ------ ----- ------- ---- -- --- ------- --<br>------- ---------- ------ -- ----- -- ----- -- ---- ------<br>--- ----- --- --- ------ -------- ----- The ------ ----- --<br>----- ----- ---------- --- --- ------ ------ ---- -- ------<br>------- --- ------ ----- --- ---- ------- -- ---- --- --<br>------- ------,214970.0549999252,214969.37499986961,214563.033,214570.43499988504,214579.608,214979.81,,29,The
screen,html.Screen,1_1_1_1_30,2021-04-08T07:52:08.739Z,,,,,,,,,,,,,,,,54,,,,,,,,,,,,,,389.57499985262984,,response,,,,100,,,,,,,Space,keypress(Space),,,,,,,,-- --- ---- --- ------ ----- ------- ---- -- --- ------- --<br>------- ---------- ------ -- ----- -- ----- -- ---- ------<br>--- ----- --- --- ------ -------- ----- --- market ----- --<br>----- ----- ---------- --- --- ------ ------ ---- -- ------<br>------- --- ------ ----- --- ---- ------- -- ---- --- --<br>------- ------,215370.04499998875,215369.38499985263,214963.276,214970.27499997057,214979.81,215380.135,,30,market
screen,html.Screen,1_1_1_1_31,2021-04-08T07:52:09.186Z,,,,,,,,,,,,,,,,54,,,,,,,,,,,,,,437.11999988532625,,response,,,,100,,,,,,,Space,keypress(Space),,,,,,,,-- --- ---- --- ------ ----- ------- ---- -- --- ------- --<br>------- ---------- ------ -- ----- -- ----- -- ---- ------<br>--- ----- --- --- ------ -------- ----- --- ------ value --<br>----- ----- ---------- --- --- ------ ------ ---- -- ------<br>------- --- ------ ----- --- ---- ------- -- ---- --- --<br>------- ------,215817.93499994092,215817.25499988534,215363.544,215370.27499987744,215380.135,215830.498,,31,value
screen,html.Screen,1_1_1_1_32,2021-04-08T07:52:09.674Z,,,,,,,,,,,,,,,,54,,,,,,,,,,,,,,474.7119999040442,,response,,,,100,,,,,,,Space,keypress(Space),,,,,,,,-- --- ---- --- ------ ----- ------- ---- -- --- ------- --<br>------- ---------- ------ -- ----- -- ----- -- ---- ------<br>--- ----- --- --- ------ -------- ----- --- ------ ----- of<br>----- ----- ---------- --- --- ------ ------ ---- -- ------<br>------- --- ------ ----- --- ---- ------- -- ---- --- --<br>------- ------,216305.88999995962,216305.20999990404,215813.845,215818.1549999863,215830.498,216314.106,,32,of
screen,html.Screen,1_1_1_1_33,2021-04-08T07:52:10.146Z,,,,,,,,,,,,,,,,54,,,,,,,,,,,,,,463.0139999842795,,response,,,,100,,,,,,,Space,keypress(Space),,,,,,,,-- --- ---- --- ------ ----- ------- ---- -- --- ------- --<br>------- ---------- ------ -- ----- -- ----- -- ---- ------<br>--- ----- --- --- ------ -------- ----- --- ------ ----- --<br>these ----- ---------- --- --- ------ ------ ---- -- ------<br>------- --- ------ ----- --- ---- ------- -- ---- --- --<br>------- ------,216777.78999996372,216777.11999998428,216297.506,216306.12999992445,216314.106,216781.105,,33,these
screen,html.Screen,1_1_1_1_34,2021-04-08T07:52:10.610Z,,,,,,,,,,,,,,,,54,,,,,,,,,,,,,,459.9449998368218,,response,,,,100,,,,,,,Space,keypress(Space),,,,,,,,-- --- ---- --- ------ ----- ------- ---- -- --- ------- --<br>------- ---------- ------ -- ----- -- ----- -- ---- ------<br>--- ----- --- --- ------ -------- ----- --- ------ ----- --<br>----- bonds ---------- --- --- ------ ------ ---- -- ------<br>------- --- ------ ----- --- ---- ------- -- ---- --- --<br>------- ------,217241.72499985434,217241.04999983683,216764.467,216778.0100000091,216781.105,217247.968,,34,bonds
screen,html.Screen,1_1_1_1_35,2021-04-08T07:52:11.066Z,,,,,,,,,,,,,,,,54,,,,,,,,,,,,,,449.2469999346649,,response,,,,100,,,,,,,Space,keypress(Space),,,,,,,,"-- --- ---- --- ------ ----- ------- ---- -- --- ------- --<br>------- ---------- ------ -- ----- -- ----- -- ---- ------<br>--- ----- --- --- ------ -------- ----- --- ------ ----- --<br>----- ----- plummeted, --- --- ------ ------ ---- -- ------<br>------- --- ------ ----- --- ---- ------- -- ---- --- --<br>------- ------",217697.93999986723,217697.21499993466,217231.396,217241.9499999378,217247.968,217715.085,,35,"plummeted,"
screen,html.Screen,1_1_1_1_36,2021-04-08T07:52:11.498Z,,,,,,,,,,,,,,,,54,,,,,,,,,,,,,,413.9199999952398,,response,,,,100,,,,,,,Space,keypress(Space),,,,,,,,-- --- ---- --- ------ ----- ------- ---- -- --- ------- --<br>------- ---------- ------ -- ----- -- ----- -- ---- ------<br>--- ----- --- --- ------ -------- ----- --- ------ ----- --<br>----- ----- ---------- and --- ------ ------ ---- -- ------<br>------- --- ------ ----- --- ---- ------- -- ---- --- --<br>------- ------,218129.79499995708,218129.00499999523,217698.419,217698.16999998875,217715.085,218131.988,,36,and
screen,html.Screen,1_1_1_1_37,2021-04-08T07:52:11.922Z,,,,,,,,,,,,,,,,54,,,,,,,,,,,,,,420.9269998910604,,response,,,,100,,,,,,,Space,keypress(Space),,,,,,,,-- --- ---- --- ------ ----- ------- ---- -- --- ------- --<br>------- ---------- ------ -- ----- -- ----- -- ---- ------<br>--- ----- --- --- ------ -------- ----- --- ------ ----- --<br>----- ----- ---------- --- the ------ ------ ---- -- ------<br>------- --- ------ ----- --- ---- ------- -- ---- --- --<br>------- ------,218553.67000005208,218552.91499989107,218115.312,218130.03999996,218131.988,218565.584,,37,the
screen,html.Screen,1_1_1_1_38,2021-04-08T07:52:12.402Z,,,,,,,,,,,,,,,,54,,,,,,,,,,,,,,467.2859999954526,,response,,,,100,,,,,,,Space,keypress(Space),,,,,,,,-- --- ---- --- ------ ----- ------- ---- -- --- ------- --<br>------- ---------- ------ -- ----- -- ----- -- ---- ------<br>--- ----- --- --- ------ -------- ----- --- ------ ----- --<br>----- ----- ---------- --- --- market ------ ---- -- ------<br>------- --- ------ ----- --- ---- ------- -- ---- --- --<br>------- ------,219033.58499985188,219032.86999999546,218548.973,218553.89999994077,218565.584,219049.29,,38,market
screen,html.Screen,1_1_1_1_39,2021-04-08T07:52:12.826Z,,,,,,,,,,,,,,,,54,,,,,,,,,,,,,,407.4849998532154,,response,,,,100,,,,,,,Space,keypress(Space),,,,,,,,-- --- ---- --- ------ ----- ------- ---- -- --- ------- --<br>------- ---------- ------ -- ----- -- ----- -- ---- ------<br>--- ----- --- --- ------ -------- ----- --- ------ ----- --<br>----- ----- ---------- --- --- ------ became ---- -- ------<br>------- --- ------ ----- --- ---- ------- -- ---- --- --<br>------- ------,219457.5199999381,219456.77499985322,219032.643,219033.8149999734,219049.29,219466.172,,39,became
screen,html.Screen,1_1_1_1_40,2021-04-08T07:52:13.258Z,,,,,,,,,,,,,,,,54,,,,,,,,,,,,,,422.50799985814956,,response,,,,100,,,,,,,Space,keypress(Space),,,,,,,,-- --- ---- --- ------ ----- ------- ---- -- --- ------- --<br>------- ---------- ------ -- ----- -- ----- -- ---- ------<br>--- ----- --- --- ------ -------- ----- --- ------ ----- --<br>----- ----- ---------- --- --- ------ ------ wary -- ------<br>------- --- ------ ----- --- ---- ------- -- ---- --- --<br>------- ------,219889.38999990933,219888.67999985814,219449.562,219457.74500002153,219466.172,219899.796,,40,wary
screen,html.Screen,1_1_1_1_41,2021-04-08T07:52:13.674Z,,,,,,,,,,,,,,,,54,,,,,,,,,,,,,,404.83899994948297,,response,,,,100,,,,,,,Space,keypress(Space),,,,,,,,-- --- ---- --- ------ ----- ------- ---- -- --- ------- --<br>------- ---------- ------ -- ----- -- ----- -- ---- ------<br>--- ----- --- --- ------ -------- ----- --- ------ ----- --<br>----- ----- ---------- --- --- ------ ------ ---- of ------<br>------- --- ------ ----- --- ---- ------- -- ---- --- --<br>------- ------,220305.35000003874,220304.63499994949,219883.178,219889.62000003085,219899.796,220316.73,,41,of
screen,html.Screen,1_1_1_1_42,2021-04-08T07:52:14.074Z,,,,,,,,,,,,,,,,54,,,,,,,,,,,,,,387.844999865134,,response,,,,100,,,,,,,Space,keypress(Space),,,,,,,,-- --- ---- --- ------ ----- ------- ---- -- --- ------- --<br>------- ---------- ------ -- ----- -- ----- -- ---- ------<br>--- ----- --- --- ------ -------- ----- --- ------ ----- --<br>----- ----- ---------- --- --- ------ ------ ---- -- French<br>------- --- ------ ----- --- ---- ------- -- ---- --- --<br>------- ------,220705.30000003055,220704.57499986514,220300.123,220305.57999992743,220316.73,220717.014,,42,French
screen,html.Screen,1_1_1_1_43,2021-04-08T07:52:14.490Z,,,,,,,,,,,,,,,,54,,,,,,,,,,,,,,403.4559999652847,,response,,,,100,,,,,,,Space,keypress(Space),,,,,,,,-- --- ---- --- ------ ----- ------- ---- -- --- ------- --<br>------- ---------- ------ -- ----- -- ----- -- ---- ------<br>--- ----- --- --- ------ -------- ----- --- ------ ----- --<br>----- ----- ---------- --- --- ------ ------ ---- -- ------<br>credit. --- ------ ----- --- ---- ------- -- ---- --- --<br>------- ------,221121.18000001647,221120.46999996528,220700.378,220705.52999991924,220717.014,221133.923,,43,credit.
screen,html.Screen,1_1_1_1_44,2021-04-08T07:52:14.930Z,,,,,,,,,,,,,,,,54,,,,,,,,,,,,,,427.20700004551327,,response,,,,100,,,,,,,Space,keypress(Space),,,,,,,,-- --- ---- --- ------ ----- ------- ---- -- --- ------- --<br>------- ---------- ------ -- ----- -- ----- -- ---- ------<br>--- ----- --- --- ------ -------- ----- --- ------ ----- --<br>----- ----- ---------- --- --- ------ ------ ---- -- ------<br>------- The ------ ----- --- ---- ------- -- ---- --- --<br>------- ------,221561.8049998302,221561.13000004552,221117.337,221121.40499986708,221133.923,221567.605,,44,The
screen,html.Screen,1_1_1_1_45,2021-04-08T07:52:15.409Z,,,,,,,,,,,,,,,,54,,,,,,,,,,,,,,472.7300000269606,,response,,,,100,,,,,,,Space,keypress(Space),,,,,,,,-- --- ---- --- ------ ----- ------- ---- -- --- ------- --<br>------- ---------- ------ -- ----- -- ----- -- ---- ------<br>--- ----- --- --- ------ -------- ----- --- ------ ----- --<br>----- ----- ---------- --- --- ------ ------ ---- -- ------<br>------- --- French ----- --- ---- ------- -- ---- --- --<br>------- ------,222040.9899998922,222040.33500002697,221550.949,221562.02999991365,221567.605,222051.222,,45,French
screen,html.Screen,1_1_1_1_46,2021-04-08T07:52:15.865Z,,,,,,,,,,,,,,,,54,,,,,,,,,,,,,,445.0530000413419,,response,,,,100,,,,,,,Space,keypress(Space),,,,,,,,-- --- ---- --- ------ ----- ------- ---- -- --- ------- --<br>------- ---------- ------ -- ----- -- ----- -- ---- ------<br>--- ----- --- --- ------ -------- ----- --- ------ ----- --<br>----- ----- ---------- --- --- ------ ------ ---- -- ------<br>------- --- ------ state --- ---- ------- -- ---- --- --<br>------- ------,222496.9849998597,222496.27500004135,222034.603,222041.2200000137,222051.222,222501.518,,46,state
screen,html.Screen,1_1_1_1_47,2021-04-08T07:52:16.274Z,,,,,,,,,,,,,,,,54,,,,,,,,,,,,,,402.79699993427494,,response,,,,100,,,,,,,Space,keypress(Space),,,,,,,,-- --- ---- --- ------ ----- ------- ---- -- --- ------- --<br>------- ---------- ------ -- ----- -- ----- -- ---- ------<br>--- ----- --- --- ------ -------- ----- --- ------ ----- --<br>----- ----- ---------- --- --- ------ ------ ---- -- ------<br>------- --- ------ ----- was ---- ------- -- ---- --- --<br>------- ------,222905.09999985807,222904.3149999343,222484.894,222497.21499998122,222501.518,222918.451,,47,was
screen,html.Screen,1_1_1_1_48,2021-04-08T07:52:16.633Z,,,,,,,,,,,,,,,,54,,,,,,,,,,,,,,345.7440000543138,,response,,,,100,,,,,,,Space,keypress(Space),,,,,,,,-- --- ---- --- ------ ----- ------- ---- -- --- ------- --<br>------- ---------- ------ -- ----- -- ----- -- ---- ------<br>--- ----- --- --- ------ -------- ----- --- ------ ----- --<br>----- ----- ---------- --- --- ------ ------ ---- -- ------<br>------- --- ------ ----- --- left ------- -- ---- --- --<br>------- ------,223264.99499985948,223264.19500005431,222901.832,222905.32999997959,222918.451,223268.7,,48,left
screen,html.Screen,1_1_1_1_49,2021-04-08T07:52:17.041Z,,,,,,,,,,,,,,,,54,,,,,,,,,,,,,,403.47499995602993,,response,,,,100,,,,,,,Space,keypress(Space),,,,,,,,-- --- ---- --- ------ ----- ------- ---- -- --- ------- --<br>------- ---------- ------ -- ----- -- ----- -- ---- ------<br>--- ----- --- --- ------ -------- ----- --- ------ ----- --<br>----- ----- ---------- --- --- ------ ------ ---- -- ------<br>------- --- ------ ----- --- ---- without -- ---- --- --<br>------- ------,223672.9649999179,223672.17499995604,223252.049,223265.23000001907,223268.7,223685.602,,49,without
screen,html.Screen,1_1_1_1_50,2021-04-08T07:52:17.409Z,,,,,,,,,,,,,,,,54,,,,,,,,,,,,,,354.37299984687706,,response,,,,100,,,,,,,Space,keypress(Space),,,,,,,,-- --- ---- --- ------ ----- ------- ---- -- --- ------- --<br>------- ---------- ------ -- ----- -- ----- -- ---- ------<br>--- ----- --- --- ------ -------- ----- --- ------ ----- --<br>----- ----- ---------- --- --- ------ ------ ---- -- ------<br>------- --- ------ ----- --- ---- ------- an ---- --- --<br>------- ------,224040.7000000123,224039.9749998469,223668.998,223673.19999984466,223685.602,224052.512,,50,an
screen,html.Screen,1_1_1_1_51,2021-04-08T07:52:17.809Z,,,,,,,,,,,,,,,,54,,,,,,,,,,,,,,387.4579999485286,,response,,,,100,,,,,,,Space,keypress(Space),,,,,,,,-- --- ---- --- ------ ----- ------- ---- -- --- ------- --<br>------- ---------- ------ -- ----- -- ----- -- ---- ------<br>--- ----- --- --- ------ -------- ----- --- ------ ----- --<br>----- ----- ---------- --- --- ------ ------ ---- -- ------<br>------- --- ------ ----- --- ---- ------- -- easy --- --<br>------- ------,224440.64499996603,224439.96999994852,224035.898,224040.9249998629,224052.512,224452.773,,51,easy
screen,html.Screen,1_1_1_1_52,2021-04-08T07:52:18.201Z,,,,,,,,,,,,,,,,54,,,,,,,,,,,,,,379.1019999161945,,response,,,,100,,,,,,,Space,keypress(Space),,,,,,,,-- --- ---- --- ------ ----- ------- ---- -- --- ------- --<br>------- ---------- ------ -- ----- -- ----- -- ---- ------<br>--- ----- --- --- ------ -------- ----- --- ------ ----- --<br>----- ----- ---------- --- --- ------ ------ ---- -- ------<br>------- --- ------ ----- --- ---- ------- -- ---- way --<br>------- ------,224832.5650000479,224831.87499991618,224436.164,224440.87000004947,224452.773,224836.395,,52,way
screen,html.Screen,1_1_1_1_53,2021-04-08T07:52:18.593Z,,,,,,,,,,,,,,,,54,,,,,,,,,,,,,,387.4099998413876,,response,,,,100,,,,,,,Space,keypress(Space),,,,,,,,-- --- ---- --- ------ ----- ------- ---- -- --- ------- --<br>------- ---------- ------ -- ----- -- ----- -- ---- ------<br>--- ----- --- --- ------ -------- ----- --- ------ ----- --<br>----- ----- ---------- --- --- ------ ------ ---- -- ------<br>------- --- ------ ----- --- ---- ------- -- ---- --- of<br>------- ------,225224.5099998545,225223.80499984138,224819.736,224832.77999982238,224836.395,225236.623,,53,of
screen,html.Screen,1_1_1_1_54,2021-04-08T07:52:19.033Z,,,,,,,,,,,,,,,,54,,,,,,,,,,,,,,427.141999946587,,response,,,,100,,,,,,,Space,keypress(Space),,,,,,,,-- --- ---- --- ------ ----- ------- ---- -- --- ------- --<br>------- ---------- ------ -- ----- -- ----- -- ---- ------<br>--- ----- --- --- ------ -------- ----- --- ------ ----- --<br>----- ----- ---------- --- --- ------ ------ ---- -- ------<br>------- --- ------ ----- --- ---- ------- -- ---- --- --<br>raising ------,225664.42499984987,225663.76499994658,225220.013,225224.72999989986,225236.623,225670.161,,54,raising
screen,html.Screen,1_1_1_1_55,2021-04-08T07:52:19.585Z,,,,,,,,,,,,,,,,54,,,,,,,,,,,,,,545.5340000207943,,response,,,,100,,,,,,,Space,keypress(Space),,,,,,,,-- --- ---- --- ------ ----- ------- ---- -- --- ------- --<br>------- ---------- ------ -- ----- -- ----- -- ---- ------<br>--- ----- --- --- ------ -------- ----- --- ------ ----- --<br>----- ----- ---------- --- --- ------ ------ ---- -- ------<br>------- --- ------ ----- --- ---- ------- -- ---- --- --<br>------- money.,226216.4000000339,226215.6950000208,225653.607,225664.66000000946,225670.161,226220.623,,55,money.
Item 100,flow.Loop,1_1_1_1,2021-04-08T07:52:19.585Z,,,,,,,,,,,,,,,,,,,,,,,,,,,,,,25378.533000020776,,completion,,,,,A,,,,,,,,,,,silence,,,,,226216.749999905,226215.6950000208,200820.61,200821.44499989226,200837.162,226220.623,,,
Question 1,html.Screen,1_1_1_2,2021-04-08T07:52:23.686Z,,,,,,,,,,,,,,,,,,,,,,,,,,,true,TRUE,,4096.231999866344,,response,,,,100,A,,,,,,TRUE,click #choice-1,,,,silence,,,,,230317.83499987796,230316.85499986634,226204.008,226216.92000003532,226220.623,230323.328,,,
Question 2,html.Screen,1_1_1_3,2021-04-08T07:52:28.342Z,,,,,,,,,,,,,,,,,,,,,,,,,,,true,FALSE,,4648.8969999176625,,response,,,,100,A,,,,,,FALSE,click #choice-2,,,,silence,,,,,234973.35499990731,234972.22499991767,230306.646,230318.06499999948,230323.328,234976.381,,,
Item 100,flow.Sequence,1_1_1,2021-04-08T07:52:28.342Z,,,,,,,,,,,,,,,,,,,,,,,,,,,,,,44141.50699991768,,completion,,,,,,,,,,,,,,,,,,,,,234973.78499992192,234972.22499991767,190814.037,190828.40999984182,190830.718,234976.381,,,
End of Practice,html.Page,1_1_2,2021-04-08T07:52:35.838Z,,,,,,,,,,,,,,,,,,,,,,,,,,,,,,7492.7239999091835,,form submission,,,,,,,,,,,,,,,,,,,,,242469.65999994427,242469.10499990918,234959.723,234973.96499989554,234976.381,242481.221,,,
Practice,flow.Sequence,1_1,2021-04-08T07:52:35.838Z,,,,,,,,,,,,,,,,,,,,,,,,,,,,,,96334.39599990917,,completion,,,,,,,,,,,,,,,,,,,,,242469.98999989592,242469.10499990918,146118.027,146129.18499996886,146134.709,242481.221,,,
Trap_instruction,html.Page,1_2_0,2021-04-08T07:52:48.899Z,,,,,,,,,,,,,,,,,,,,,,,,,,,,,,13050.034000038082,,form submission,,,,,,,,,,,,,,,,,,,,,255531.7400000058,255531.25500003807,242464.636,242470.2099999413,242481.221,255556.564,,,
trap_trial,html.Screen,1_2_1,2021-04-08T07:52:59.520Z,,,,,,,,,,,,,,,,,,,,,,,,,,,true,1,,10594.770999827655,,response,,,,,,,,,,,1,click #choice-1,,,,,,,,,266152.38499990664,266151.33499982767,255523.2,255531.9399998989,255556.564,266163.531,,,
end of trap trial,html.Page,1_2_2,2021-04-08T07:53:03.993Z,,,,,,,,,,,,,,,,,,,,,,,,,,,,,,4461.1889999634,,form submission,,,,,,,,,,,,,,,,,,,,,270625.2150000073,270624.7199999634,266146.857,266152.61500002816,266163.531,270633.039,,,
Trap 1,flow.Sequence,1_2,2021-04-08T07:53:03.993Z,,,,,,,,,,,,,,,,,,,,,,,,,,,,,,28143.498999963427,,completion,,,,,,,,,,,,,,,,,,,,,270625.5200000014,270624.7199999634,242464.636,242470.144999912,242481.221,270633.039,,,
Standby,html.Page,1_3_0,2021-04-08T07:53:11.990Z,,,,,,,,,,,,,,,,,,,,,,,,,,,,,,8005.331999999995,,timeout,,,,,,,,,,,,,,,,,,,,,278622.40999983624,278621.703,270616.46,270625.7350000087,270633.039,278638.371,,,
Holding screen,html.Screen,1_3_1_0_0,2021-04-08T07:53:18.994Z,,,,,,,,,,,,,,,,,,,,,,,,,,,,,,7004.579000000027,,timeout,,,,,,,,,,,,,,,,,,,,,285626.9799999427,285626.302,278621.703,278622.72999994457,278638.371,285642.95,,,
screen,html.Screen,1_3_1_0_1_0,2021-04-08T07:53:19.696Z,,,,,,,,,,,,,,,,51,,,,,,,,,,,,,,684.274999899033,,response,,,,13,A,,,,,,Space,keypress(Space),,,,silence,,,,American -------- --- --- ---- --- --- ------ -- --------<br>---- --------- --- ------- ------------ ---------- ---------<br>--- ---------- ------- ---------- ------- -- -------- ----<br>---- --- ------ ----- ------ -- ---- --- ----- -- - -------<br>-------- -- --- --- -- ----- ----------- ----- -----------<br>---- --- ---------- --- ---- --- -- ----------,286328.125,286327.22499989904,285626.302,285627.30000005104,285642.95,286343.47,,0,American
screen,html.Screen,1_3_1_0_1_1,2021-04-08T07:53:20.439Z,,,,,,,,,,,,,,,,51,,,,,,,,,,,,,,726.9099999319296,,response,,,,13,A,,,,,,Space,keypress(Space),,,,silence,,,,-------- industry --- --- ---- --- --- ------ -- --------<br>---- --------- --- ------- ------------ ---------- ---------<br>--- ---------- ------- ---------- ------- -- -------- ----<br>---- --- ------ ----- ------ -- ---- --- ----- -- - -------<br>-------- -- --- --- -- ----- ----------- ----- -----------<br>---- --- ---------- --- ---- --- -- ----------,287071.16000005044,287070.3799999319,286326.819,286328.3799998462,286343.47,287077.288,,1,industry
screen,html.Screen,1_3_1_0_1_2,2021-04-08T07:53:21.015Z,,,,,,,,,,,,,,,,51,,,,,,,,,,,,,,569.0270000199671,,response,,,,13,A,,,,,,Space,keypress(Space),,,,silence,,,,-------- -------- may --- ---- --- --- ------ -- --------<br>---- --------- --- ------- ------------ ---------- ---------<br>--- ---------- ------- ---------- ------- -- -------- ----<br>---- --- ------ ----- ------ -- ---- --- ----- -- - -------<br>-------- -- --- --- -- ----- ----------- ----- -----------<br>---- --- ---------- --- ---- --- -- ----------,287647.0899998676,287646.31500001997,287060.677,287071.38499990106,287077.288,287661.024,,2,may
screen,html.Screen,1_3_1_0_1_3,2021-04-08T07:53:21.398Z,,,,,,,,,,,,,,,,51,,,,,,,,,,,,,,369.13599984929897,,response,,,,13,A,,,,,,Space,keypress(Space),,,,silence,,,,-------- -------- --- not ---- --- --- ------ -- --------<br>---- --------- --- ------- ------------ ---------- ---------<br>--- ---------- ------- ---------- ------- -- -------- ----<br>---- --- ------ ----- ------ -- ---- --- ----- -- - -------<br>-------- -- --- --- -- ----- ----------- ----- -----------<br>---- --- ---------- --- ---- --- -- ----------,288030.90499993414,288030.1599998493,287644.325,287647.31499995105,287661.024,288044.609,,3,not
screen,html.Screen,1_3_1_0_1_4,2021-04-08T07:53:21.711Z,,,,,,,,,,,,,,,,51,,,,,,,,,,,,,,297.61600002943305,,response,,,,13,A,,,,,,Space,keypress(Space),,,,silence,,,,-------- -------- --- --- know --- --- ------ -- --------<br>---- --------- --- ------- ------------ ---------- ---------<br>--- ---------- ------- ---------- ------- -- -------- ----<br>---- --- ------ ----- ------ -- ---- --- ----- -- - -------<br>-------- -- --- --- -- ----- ----------- ----- -----------<br>---- --- ---------- --- ---- --- -- ----------,288343.0099999532,288342.22500002943,288027.926,288031.1349998228,288044.609,288344.761,,4,know
screen,html.Screen,1_3_1_0_1_5,2021-04-08T07:53:22.134Z,,,,,,,,,,,,,,,,51,,,,,,,,,,,,,,421.3739999252721,,response,,,,13,A,,,,,,Space,keypress(Space),,,,silence,,,,"-------- -------- --- --- ---- it, --- ------ -- --------<br>---- --------- --- ------- ------------ ---------- ---------<br>--- ---------- ------- ---------- ------- -- -------- ----<br>---- --- ------ ----- ------ -- ---- --- ----- -- - -------<br>-------- -- --- --- -- ----- ----------- ----- -----------<br>---- --- ---------- --- ---- --- -- ----------",288766.8949998915,288766.13499992527,288328.115,288343.2399998419,288344.761,288778.359,,5,"it,"
screen,html.Screen,1_3_1_0_1_6,2021-04-08T07:53:22.518Z,,,,,,,,,,,,,,,,51,,,,,,,,,,,,,,371.63599986879854,,response,,,,13,A,,,,,,Space,keypress(Space),,,,silence,,,,-------- -------- --- --- ---- --- but ------ -- --------<br>---- --------- --- ------- ------------ ---------- ---------<br>--- ---------- ------- ---------- ------- -- -------- ----<br>---- --- ------ ----- ------ -- ---- --- ----- -- - -------<br>-------- -- --- --- -- ----- ----------- ----- -----------<br>---- --- ---------- --- ---- --- -- ----------,289150.7349999156,289149.9949998688,288761.748,288767.12500001304,288778.359,289161.948,,6,but
screen,html.Screen,1_3_1_0_1_7,2021-04-08T07:53:22.958Z,,,,,,,,,,,,,,,,51,,,,,,,,,,,,,,428.0120000120951,,response,,,,13,A,,,,,,Space,keypress(Space),,,,silence,,,,-------- -------- --- --- ---- --- --- debate -- --------<br>---- --------- --- ------- ------------ ---------- ---------<br>--- ---------- ------- ---------- ------- -- -------- ----<br>---- --- ------ ----- ------ -- ---- --- ----- -- - -------<br>-------- -- --- --- -- ----- ----------- ----- -----------<br>---- --- ---------- --- ---- --- -- ----------,289590.71499994025,289589.96000001207,289145.331,289150.95499996096,289161.948,289595.53,,7,debate
screen,html.Screen,1_3_1_0_1_8,2021-04-08T07:53:23.374Z,,,,,,,,,,,,,,,,51,,,,,,,,,,,,,,410.4399998236913,,response,,,,13,A,,,,,,Space,keypress(Space),,,,silence,,,,-------- -------- --- --- ---- --- --- ------ in --------<br>---- --------- --- ------- ------------ ---------- ---------<br>--- ---------- ------- ---------- ------- -- -------- ----<br>---- --- ------ ----- ------ -- ---- --- ----- -- - -------<br>-------- -- --- --- -- ----- ----------- ----- -----------<br>---- --- ---------- --- ---- --- -- ----------,290006.8049998954,290005.9699998237,289578.893,289590.94499982893,289595.53,290012.574,,8,in
screen,html.Screen,1_3_1_0_1_9,2021-04-08T07:53:23.862Z,,,,,,,,,,,,,,,,51,,,,,,,,,,,,,,481.295999889262,,response,,,,13,A,,,,,,Space,keypress(Space),,,,silence,,,,-------- -------- --- --- ---- --- --- ------ -- Congress<br>---- --------- --- ------- ------------ ---------- ---------<br>--- ---------- ------- ---------- ------- -- -------- ----<br>---- --- ------ ----- ------ -- ---- --- ----- -- - -------<br>-------- -- --- --- -- ----- ----------- ----- -----------<br>---- --- ---------- --- ---- --- -- ----------,290494.6399999317,290493.8699998893,289995.889,290007.9099999275,290012.574,290514.923,,9,Congress
screen,html.Screen,1_3_1_0_1_10,2021-04-08T07:53:24.294Z,,,,,,,,,,,,,,,,51,,,,,,,,,,,,,,410.7019999161712,,response,,,,13,A,,,,,,Space,keypress(Space),,,,silence,,,,-------- -------- --- --- ---- --- --- ------ -- --------<br>over --------- --- ------- ------------ ---------- ---------<br>--- ---------- ------- ---------- ------- -- -------- ----<br>---- --- ------ ----- ------ -- ---- --- ----- -- - -------<br>-------- -- --- --- -- ----- ----------- ----- -----------<br>---- --- ---------- --- ---- --- -- ----------,290926.2999999337,290925.6249999162,290479.554,290494.8799998965,290514.923,290929.786,,10,over
screen,html.Screen,1_3_1_0_1_11,2021-04-08T07:53:24.702Z,,,,,,,,,,,,,,,,51,,,,,,,,,,,,,,403.78899982228177,,response,,,,13,A,,,,,,Space,keypress(Space),,,,silence,,,,-------- -------- --- --- ---- --- --- ------ -- --------<br>---- reforming --- ------- ------------ ---------- ---------<br>--- ---------- ------- ---------- ------- -- -------- ----<br>---- --- ------ ----- ------ -- ---- --- ----- -- - -------<br>-------- -- --- --- -- ----- ----------- ----- -----------<br>---- --- ---------- --- ---- --- -- ----------,291334.26499995403,291333.5749998223,290913.157,290926.514999941,290929.786,291346.705,,11,reforming
screen,html.Screen,1_3_1_0_1_12,2021-04-08T07:53:25.134Z,,,,,,,,,,,,,,,,51,,,,,,,,,,,,,,418.91499996191124,,response,,,,13,A,,,,,,Space,keypress(Space),,,,silence,,,,-------- -------- --- --- ---- --- --- ------ -- --------<br>---- --------- the ------- ------------ ---------- ---------<br>--- ---------- ------- ---------- ------- -- -------- ----<br>---- --- ------ ----- ------ -- ---- --- ----- -- - -------<br>-------- -- --- --- -- ----- ----------- ----- -----------<br>---- --- ---------- --- ---- --- -- ----------,291766.3449998945,291765.6199999619,291330.096,291334.4849999994,291346.705,291780.379,,12,the
screen,html.Screen,1_3_1_0_1_13,2021-04-08T07:53:25.590Z,,,,,,,,,,,,,,,,51,,,,,,,,,,,,,,441.10599987086607,,response,,,,13,A,,,,,,Space,keypress(Space),,,,silence,,,,-------- -------- --- --- ---- --- --- ------ -- --------<br>---- --------- --- federal ------------ ---------- ---------<br>--- ---------- ------- ---------- ------- -- -------- ----<br>---- --- ------ ----- ------ -- ---- --- ----- -- - -------<br>-------- -- --- --- -- ----- ----------- ----- -----------<br>---- --- ---------- --- ---- --- -- ----------,292222.2049999982,292221.4849998709,291763.719,291766.5599999018,291780.379,292230.506,,13,federal
screen,html.Screen,1_3_1_0_1_14,2021-04-08T07:53:26.142Z,,,,,,,,,,,,,,,,51,,,,,,,,,,,,,,542.8739999114187,,response,,,,13,A,,,,,,Space,keypress(Space),,,,silence,,,,-------- -------- --- --- ---- --- --- ------ -- --------<br>---- --------- --- ------- government's ---------- ---------<br>--- ---------- ------- ---------- ------- -- -------- ----<br>---- --- ------ ----- ------ -- ---- --- ----- -- - -------<br>-------- -- --- --- -- ----- ----------- ----- -----------<br>---- --- ---------- --- ---- --- -- ----------,292774.04000004753,292773.3799999114,292214.012,292222.41499996744,292230.506,292780.9,,14,government's
screen,html.Screen,1_3_1_0_1_15,2021-04-08T07:53:26.878Z,,,,,,,,,,,,,,,,51,,,,,,,,,,,,,,728.3899999581045,,response,,,,13,A,,,,,,Space,keypress(Space),,,,silence,,,,-------- -------- --- --- ---- --- --- ------ -- --------<br>---- --------- --- ------- ------------ regulatory ---------<br>--- ---------- ------- ---------- ------- -- -------- ----<br>---- --- ------ ----- ------ -- ---- --- ----- -- - -------<br>-------- -- --- --- -- ----- ----------- ----- -----------<br>---- --- ---------- --- ---- --- -- ----------,293510.0199999288,293509.2899999581,292764.393,292774.25500005484,292780.9,293514.829,,15,regulatory
screen,html.Screen,1_3_1_0_1_16,2021-04-08T07:53:27.349Z,,,,,,,,,,,,,,,,51,,,,,,,,,,,,,,466.27600001345854,,response,,,,13,A,,,,,,Space,keypress(Space),,,,silence,,,,-------- -------- --- --- ---- --- --- ------ -- --------<br>---- --------- --- ------- ------------ ---------- apparatus<br>--- ---------- ------- ---------- ------- -- -------- ----<br>---- --- ------ ----- ------ -- ---- --- ----- -- - -------<br>-------- -- --- --- -- ----- ----------- ----- -----------<br>---- --- ---------- --- ---- --- -- ----------,293981.9050000515,293981.1050000135,293498.23,293510.23999997415,293514.829,293998.498,,16,apparatus
screen,html.Screen,1_3_1_0_1_17,2021-04-08T07:53:27.797Z,,,,,,,,,,,,,,,,51,,,,,,,,,,,,,,430.6219999861205,,response,,,,13,A,,,,,,Space,keypress(Space),,,,silence,,,,-------- -------- --- --- ---- --- --- ------ -- --------<br>---- --------- --- ------- ------------ ---------- ---------<br>may ---------- ------- ---------- ------- -- -------- ----<br>---- --- ------ ----- ------ -- ---- --- ----- -- - -------<br>-------- -- --- --- -- ----- ----------- ----- -----------<br>---- --- ---------- --- ---- --- -- ----------,294429.8000000417,294429.11999998614,293981.86,293982.19999996945,293998.498,294432.093,,17,may
screen,html.Screen,1_3_1_0_1_18,2021-04-08T07:53:28.309Z,,,,,,,,,,,,,,,,51,,,,,,,,,,,,,,508.95199998503085,,response,,,,13,A,,,,,,Space,keypress(Space),,,,silence,,,,-------- -------- --- --- ---- --- --- ------ -- --------<br>---- --------- --- ------- ------------ ---------- ---------<br>--- profoundly ------- ---------- ------- -- -------- ----<br>---- --- ------ ----- ------ -- ---- --- ----- -- - -------<br>-------- -- --- --- -- ----- ----------- ----- -----------<br>---- --- ---------- --- ---- --- -- ----------,294941.75999984145,294941.044999985,294415.458,294430.01000001095,294432.093,294949.009,,18,profoundly
screen,html.Screen,1_3_1_0_1_19,2021-04-08T07:53:28.757Z,,,,,,,,,,,,,,,,51,,,,,,,,,,,,,,440.0359998434433,,response,,,,13,A,,,,,,Space,keypress(Space),,,,silence,,,,-------- -------- --- --- ---- --- --- ------ -- --------<br>---- --------- --- ------- ------------ ---------- ---------<br>--- ---------- improve ---------- ------- -- -------- ----<br>---- --- ------ ----- ------ -- ---- --- ----- -- - -------<br>-------- -- --- --- -- ----- ----------- ----- -----------<br>---- --- ---------- --- ---- --- -- ----------,295389.7349999752,295389.04499984346,294932.472,294941.97499984875,294949.009,295399.264,,19,improve
screen,html.Screen,1_3_1_0_1_20,2021-04-08T07:53:29.165Z,,,,,,,,,,,,,,,,51,,,,,,,,,,,,,,397.63099991943454,,response,,,,13,A,,,,,,Space,keypress(Space),,,,silence,,,,-------- -------- --- --- ---- --- --- ------ -- --------<br>---- --------- --- ------- ------------ ---------- ---------<br>--- ---------- ------- companies' ------- -- -------- ----<br>---- --- ------ ----- ------ -- ---- --- ----- -- - -------<br>-------- -- --- --- -- ----- ----------- ----- -----------<br>---- --- ---------- --- ---- --- -- ----------,295797.5999999326,295796.89499991946,295382.766,295389.9499999825,295399.264,295799.655,,20,companies'
screen,html.Screen,1_3_1_0_1_21,2021-04-08T07:53:29.613Z,,,,,,,,,,,,,,,,51,,,,,,,,,,,,,,445.21000001509674,,response,,,,13,A,,,,,,Space,keypress(Space),,,,silence,,,,-------- -------- --- --- ---- --- --- ------ -- --------<br>---- --------- --- ------- ------------ ---------- ---------<br>--- ---------- ------- ---------- ability -- -------- ----<br>---- --- ------ ----- ------ -- ---- --- ----- -- - -------<br>-------- -- --- --- -- ----- ----------- ----- -----------<br>---- --- ---------- --- ---- --- -- ----------,296245.5299999565,296244.8650000151,295783.019,295797.8099999018,295799.655,296249.953,,21,ability
screen,html.Screen,1_3_1_0_1_22,2021-04-08T07:53:30.110Z,,,,,,,,,,,,,,,,51,,,,,,,,,,,,,,491.5419999656733,,response,,,,13,A,,,,,,Space,keypress(Space),,,,silence,,,,-------- -------- --- --- ---- --- --- ------ -- --------<br>---- --------- --- ------- ------------ ---------- ---------<br>--- ---------- ------- ---------- ------- to -------- ----<br>---- --- ------ ----- ------ -- ---- --- ----- -- - -------<br>-------- -- --- --- -- ----- ----------- ----- -----------<br>---- --- ---------- --- ---- --- -- ----------,296742.22999997437,296741.49499996565,296233.284,296245.75000000186,296249.953,296750.187,,22,to
screen,html.Screen,1_3_1_0_1_23,2021-04-08T07:53:30.645Z,,,,,,,,,,,,,,,,51,,,,,,,,,,,,,,526.543000041449,,response,,,,13,A,,,,,,Space,keypress(Space),,,,silence,,,,-------- -------- --- --- ---- --- --- ------ -- --------<br>---- --------- --- ------- ------------ ---------- ---------<br>--- ---------- ------- ---------- ------- -- survive. ----<br>---- --- ------ ----- ------ -- ---- --- ----- -- - -------<br>-------- -- --- --- -- ----- ----------- ----- -----------<br>---- --- ---------- --- ---- --- -- ----------,297277.4249999784,297276.7300000414,296733.659,296742.4399999436,296750.187,297283.872,,23,survive.
screen,html.Screen,1_3_1_0_1_24,2021-04-08T07:53:31.173Z,,,,,,,,,,,,,,,,51,,,,,,,,,,,,,,520.8630000124685,,response,,,,13,A,,,,,,Space,keypress(Space),,,,silence,,,,-------- -------- --- --- ---- --- --- ------ -- --------<br>---- --------- --- ------- ------------ ---------- ---------<br>--- ---------- ------- ---------- ------- -- -------- This<br>---- --- ------ ----- ------ -- ---- --- ----- -- - -------<br>-------- -- --- --- -- ----- ----------- ----- -----------<br>---- --- ---------- --- ---- --- -- ----------,297805.5499999318,297804.73500001244,297267.343,297277.6349999476,297283.872,297817.633,,24,This
screen,html.Screen,1_3_1_0_1_25,2021-04-08T07:53:31.685Z,,,,,,,,,,,,,,,,51,,,,,,,,,,,,,,499.00200005382067,,response,,,,13,A,,,,,,Space,keypress(Space),,,,silence,,,,-------- -------- --- --- ---- --- --- ------ -- --------<br>---- --------- --- ------- ------------ ---------- ---------<br>--- ---------- ------- ---------- ------- -- -------- ----<br>week --- ------ ----- ------ -- ---- --- ----- -- - -------<br>-------- -- --- --- -- ----- ----------- ----- -----------<br>---- --- ---------- --- ---- --- -- ----------,298317.4099999014,298316.6350000538,297801.032,297805.78000005335,297817.633,298334.691,,25,week
screen,html.Screen,1_3_1_0_1_26,2021-04-08T07:53:32.149Z,,,,,,,,,,,,,,,,51,,,,,,,,,,,,,,445.83899987267796,,response,,,,13,A,,,,,,Space,keypress(Space),,,,silence,,,,-------- -------- --- --- ---- --- --- ------ -- --------<br>---- --------- --- ------- ------------ ---------- ---------<br>--- ---------- ------- ---------- ------- -- -------- ----<br>---- the ------ ----- ------ -- ---- --- ----- -- - -------<br>-------- -- --- --- -- ----- ----------- ----- -----------<br>---- --- ---------- --- ---- --- -- ----------,298781.2799999956,298780.52999987267,298318.038,298317.64000002295,298334.691,298784.948,,26,the
screen,html.Screen,1_3_1_0_1_27,2021-04-08T07:53:32.693Z,,,,,,,,,,,,,,,,51,,,,,,,,,,,,,,539.4769999989076,,response,,,,13,A,,,,,,Space,keypress(Space),,,,silence,,,,-------- -------- --- --- ---- --- --- ------ -- --------<br>---- --------- --- ------- ------------ ---------- ---------<br>--- ---------- ------- ---------- ------- -- -------- ----<br>---- --- Senate ----- ------ -- ---- --- ----- -- - -------<br>-------- -- --- --- -- ----- ----------- ----- -----------<br>---- --- ---------- --- ---- --- -- ----------,299325.1699998509,299324.4249999989,298768.23,298781.4950000029,298784.948,299335.275,,27,Senate
screen,html.Screen,1_3_1_0_1_28,2021-04-08T07:53:33.261Z,,,,,,,,,,,,,,,,51,,,,,,,,,,,,,,557.0749998636311,,response,,,,13,A,,,,,,Space,keypress(Space),,,,silence,,,,-------- -------- --- --- ---- --- --- ------ -- --------<br>---- --------- --- ------- ------------ ---------- ---------<br>--- ---------- ------- ---------- ------- -- -------- ----<br>---- --- ------ seems ------ -- ---- --- ----- -- - -------<br>-------- -- --- --- -- ----- ----------- ----- -----------<br>---- --- ---------- --- ---- --- -- ----------,299893.0949999485,299892.34999986365,299318.694,299325.39499993436,299335.275,299902.339,,28,seems
screen,html.Screen,1_3_1_0_1_29,2021-04-08T07:53:33.909Z,,,,,,,,,,,,,,,,51,,,,,,,,,,,,,,637.9809999127756,,response,,,,13,A,,,,,,Space,keypress(Space),,,,silence,,,,-------- -------- --- --- ---- --- --- ------ -- --------<br>---- --------- --- ------- ------------ ---------- ---------<br>--- ---------- ------- ---------- ------- -- -------- ----<br>---- --- ------ ----- poised -- ---- --- ----- -- - -------<br>-------- -- --- --- -- ----- ----------- ----- -----------<br>---- --- ---------- --- ---- --- -- ----------,300541.13499983214,300540.31999991275,299885.741,299893.30499991775,299902.339,300552.703,,29,poised
screen,html.Screen,1_3_1_0_1_30,2021-04-08T07:53:34.405Z,,,,,,,,,,,,,,,,51,,,,,,,,,,,,,,483.51199985458516,,response,,,,13,A,,,,,,Space,keypress(Space),,,,silence,,,,-------- -------- --- --- ---- --- --- ------ -- --------<br>---- --------- --- ------- ------------ ---------- ---------<br>--- ---------- ------- ---------- ------- -- -------- ----<br>---- --- ------ ----- ------ to ---- --- ----- -- - -------<br>-------- -- --- --- -- ----- ----------- ----- -----------<br>---- --- ---------- --- ---- --- -- ----------,301037.0000000112,301036.21499985456,300536.177,300541.3549998775,300552.703,301053.141,,30,to
screen,html.Screen,1_3_1_0_1_31,2021-04-08T07:53:34.940Z,,,,,,,,,,,,,,,,51,,,,,,,,,,,,,,518.9689998336253,,response,,,,13,A,,,,,,Space,keypress(Space),,,,silence,,,,-------- -------- --- --- ---- --- --- ------ -- --------<br>---- --------- --- ------- ------------ ---------- ---------<br>--- ---------- ------- ---------- ------- -- -------- ----<br>---- --- ------ ----- ------ -- join --- ----- -- - -------<br>-------- -- --- --- -- ----- ----------- ----- -----------<br>---- --- ---------- --- ---- --- -- ----------,301572.89499999024,301572.1099998336,301036.487,301037.2249998618,301053.141,301586.826,,31,join
screen,html.Screen,1_3_1_0_1_32,2021-04-08T07:53:35.468Z,,,,,,,,,,,,,,,,51,,,,,,,,,,,,,,513.1689998222282,,response,,,,13,A,,,,,,Space,keypress(Space),,,,silence,,,,-------- -------- --- --- ---- --- --- ------ -- --------<br>---- --------- --- ------- ------------ ---------- ---------<br>--- ---------- ------- ---------- ------- -- -------- ----<br>---- --- ------ ----- ------ -- ---- the ----- -- - -------<br>-------- -- --- --- -- ----- ----------- ----- -----------<br>---- --- ---------- --- ---- --- -- ----------,302100.71999998763,302099.99499982223,301570.173,301573.10999999754,301586.826,302103.796,,32,the
screen,html.Screen,1_3_1_0_1_33,2021-04-08T07:53:35.964Z,,,,,,,,,,,,,,,,51,,,,,,,,,,,,,,492.1089998782845,,response,,,,13,A,,,,,,Space,keypress(Space),,,,silence,,,,-------- -------- --- --- ---- --- --- ------ -- --------<br>---- --------- --- ------- ------------ ---------- ---------<br>--- ---------- ------- ---------- ------- -- -------- ----<br>---- --- ------ ----- ------ -- ---- --- House -- - -------<br>-------- -- --- --- -- ----- ----------- ----- -----------<br>---- --- ---------- --- ---- --- -- ----------,302596.6499999631,302595.90499987826,302087.181,302100.940000033,302103.796,302604.031,,33,House
screen,html.Screen,1_3_1_0_1_34,2021-04-08T07:53:36.652Z,,,,,,,,,,,,,,,,51,,,,,,,,,,,,,,679.9639999470091,,response,,,,13,A,,,,,,Space,keypress(Space),,,,silence,,,,-------- -------- --- --- ---- --- --- ------ -- --------<br>---- --------- --- ------- ------------ ---------- ---------<br>--- ---------- ------- ---------- ------- -- -------- ----<br>---- --- ------ ----- ------ -- ---- --- ----- in - -------<br>-------- -- --- --- -- ----- ----------- ----- -----------<br>---- --- ---------- --- ---- --- -- ----------,303284.80499982834,303283.994999947,302587.505,302596.8649999704,302604.031,303287.93,,34,in
screen,html.Screen,1_3_1_0_1_35,2021-04-08T07:53:37.084Z,,,,,,,,,,,,,,,,51,,,,,,,,,,,,,,427.894999846525,,response,,,,13,A,,,,,,Space,keypress(Space),,,,silence,,,,-------- -------- --- --- ---- --- --- ------ -- --------<br>---- --------- --- ------- ------------ ---------- ---------<br>--- ---------- ------- ---------- ------- -- -------- ----<br>---- --- ------ ----- ------ -- ---- --- ----- -- a -------<br>-------- -- --- --- -- ----- ----------- ----- -----------<br>---- --- ---------- --- ---- --- -- ----------,303716.63999999873,303715.8249998465,303271.312,303285.045000026,303287.93,303721.536,,35,a
screen,html.Screen,1_3_1_0_1_36,2021-04-08T07:53:37.628Z,,,,,,,,,,,,,,,,51,,,,,,,,,,,,,,538.0189998804708,,response,,,,13,A,,,,,,Space,keypress(Space),,,,silence,,,,-------- -------- --- --- ---- --- --- ------ -- --------<br>---- --------- --- ------- ------------ ---------- ---------<br>--- ---------- ------- ---------- ------- -- -------- ----<br>---- --- ------ ----- ------ -- ---- --- ----- -- - massive<br>-------- -- --- --- -- ----- ----------- ----- -----------<br>---- --- ---------- --- ---- --- -- ----------,304260.26999996975,304259.5549998805,303704.9,303716.8749999255,303721.536,304271.845,,36,massive
screen,html.Screen,1_3_1_0_1_37,2021-04-08T07:53:38.092Z,,,,,,,,,,,,,,,,51,,,,,,,,,,,,,,451.6999999571126,,response,,,,13,A,,,,,,Space,keypress(Space),,,,silence,,,,-------- -------- --- --- ---- --- --- ------ -- --------<br>---- --------- --- ------- ------------ ---------- ---------<br>--- ---------- ------- ---------- ------- -- -------- ----<br>---- --- ------ ----- ------ -- ---- --- ----- -- - -------<br>overhaul -- --- --- -- ----- ----------- ----- -----------<br>---- --- ---------- --- ---- --- -- ----------,304724.2049998604,304723.5449999571,304255.275,304260.52999985404,304271.845,304738.88,,37,overhaul
