sender,sender_type,sender_id,timestamp,meta,,Blues,Classical,Country,Dance,Electronic,Folk,Gospel,Hip-Hop,Jazz,Latin,Musical/Film,New-age,Pop,Provo_ID,R&B,Rap,Reggae,Religious,Rock,Soul,Swing,Traditional,age,artist_name,correct,correctResponse,distraction,duration,education,ended_on,familiarity,gender,headphone_check_performance,item,list,music_frequency,offensiveness,pleasantness,position_correct,preference,response,response_action,snippet_file,song_name,song_rating,sound,stimulus_1,stimulus_2,stimulus_3,text,time_commit,time_end,time_render,time_run,time_show,time_switch,url,word,word_ID
Introduction,html.Screen,0_0,2021-04-08T15:40:36.770Z,"{""labjs_version"":""20.2.2"",""labjs_build"":{""flavor"":""production"",""commit"":""a25486e0c714a0ae2ce03ff94b7bb6896854dcfa""},""location"":""https://run.pavlovia.org/mvasilev/music_c/"",""userAgent"":""Mozilla/5.0 (Windows NT 10.0; Win64; x64) AppleWebKit/537.36 (KHTML, like Gecko) Chrome/89.0.4389.114 Safari/537.36"",""platform"":""Win32"",""language"":""de-DE"",""locale"":""en-US"",""timeZone"":""Europe/London"",""timezoneOffset"":-60,""screen_width"":2560,""screen_height"":1440,""scroll_width"":3200,""scroll_height"":1621,""window_innerWidth"":3200,""window_innerHeight"":1668,""devicePixelRatio"":0.800000011920929}",,,,,,,,,,,,,,,,,,,,,,,,,,,,,8142.777999952987,,response,,,,,,,,,,,continue,click button,,,,,,,,,18941.510000033304,18939.144999952987,10763.712,10773.425000021234,10796.367,18968.405,{},,
Volume calibration,html.Screen,0_1,2021-04-08T15:40:38.397Z,,,,,,,,,,,,,,,,,,,,,,,,,,,,,,1594.4050000321877,,response,,,,,,,,,,,continue,click button,,,,,,,,,20568.029999965802,20562.810000032187,18935.043,18942.014999920502,18968.405,20569.388,,,
Task instructions,html.Screen,0_2,2021-04-08T15:40:39.489Z,,,,,,,,,,,,,,,,,,,,,,,,,,,,,,1089.4819999265383,,response,,,,,,,,,,,continue,click button,,,,,,,,,21659.99999991618,21658.869999926537,20552.782,20568.32000007853,20569.388,21670.138,,,
Sounds,html.Screen,0_3_0_0,2021-04-08T15:40:43.740Z,,,,,,,,,,,,,,,,,,,,,,,,,,,,,,4252.8290000000015,,timeout,,,,,,,,,1,,,,,,,,S,O,I,,25911.009999923408,25906.281,21653.506,21660.42000008747,21670.138,25922.967,,,
Judgement,html.Screen,0_3_0_1,2021-04-08T15:40:44.416Z,,,,,,,,,,,,,,,,,,,,,,,,,,,true,1,,663.1279999187136,,response,,,,,,,,,1,,1,click #choice-1,,,,,S,O,I,,26587.349999928847,26586.094999918714,25906.281,25911.400000099093,25922.967,26590.055,,,
Trial,flow.Sequence,0_3_0,2021-04-08T15:40:44.417Z,,,,,,,,,,,,,,,,,,,,,,,,,,,,,,4915.956999918715,,completion,,,,,,,,,1,,,,,,,,S,O,I,,26587.980000069365,26586.094999918714,21653.506,21660.309999948367,21670.138,26590.055,,,
Sounds,html.Screen,0_3_1_0,2021-04-08T15:40:48.656Z,,,,,,,,,,,,,,,,,,,,,,,,,,,,,,4252.757000000001,,timeout,,,,,,,,,1,,,,,,,,S,I,O,,30826.98499993421,30826.132,26573.392,26588.299999944866,26590.055,30842.812,,,
Judgement,html.Screen,0_3_1_1,2021-04-08T15:40:49.271Z,,,,,,,,,,,,,,,,,,,,,,,,,,,true,1,,598.428000072865,,response,,,,,,,,,1,,1,click #choice-1,,,,,S,I,O,,31442.289999919012,31441.240000072867,30826.132,30827.229999937117,30842.812,31443.235,,,
Trial,flow.Sequence,0_3_1,2021-04-08T15:40:49.271Z,,,,,,,,,,,,,,,,,,,,,,,,,,,,,,4851.185000072866,,completion,,,,,,,,,1,,,,,,,,S,I,O,,31442.675000056624,31441.240000072867,26573.392,26588.19999988191,26590.055,31443.235,,,
Sounds,html.Screen,0_3_2_0,2021-04-08T15:40:53.509Z,,,,,,,,,,,,,,,,,,,,,,,,,,,,,,4252.817999999999,,timeout,,,,,,,,,3,,,,,,,,I,O,S,,35680.39000011049,35679.37,31426.583,31442.96499993652,31443.235,35696.053,,,
Judgement,html.Screen,0_3_2_1,2021-04-08T15:40:54.038Z,,,,,,,,,,,,,,,,,,,,,,,,,,,true,3,,512.5870000844152,,response,,,,,,,,,3,,3,click #choice-3,,,,,I,O,S,,36209.81499995105,36208.640000084415,35679.37,35680.62500003725,35696.053,36213.058,,,
Trial,flow.Sequence,0_3_2,2021-04-08T15:40:54.039Z,,,,,,,,,,,,,,,,,,,,,,,,,,,,,,4765.4050000844145,,completion,,,,,,,,,3,,,,,,,,I,O,S,,36210.19000001252,36208.640000084415,31426.583,31442.87499994971,31443.235,36213.058,,,
Sounds,html.Screen,0_3_3_0,2021-04-08T15:40:58.279Z,,,,,,,,,,,,,,,,,,,,,,,,,,,,,,4252.790000000001,,timeout,,,,,,,,,2,,,,,,,,I,S,O,,40450.195000041276,40449.158,36196.383,36210.459999972954,36213.058,40465.848,,,
Judgement,html.Screen,0_3_3_1,2021-04-08T15:40:58.814Z,,,,,,,,,,,,,,,,,,,,,,,,,,,true,2,,518.0619999517221,,response,,,,,,,,,2,,2,click #choice-2,,,,,I,S,O,,40985.064999898896,40983.90999995172,40449.158,40450.41999989189,40465.848,40999.535,,,
Trial,flow.Sequence,0_3_3,2021-04-08T15:40:58.814Z,,,,,,,,,,,,,,,,,,,,,,,,,,,,,,4770.851999951723,,completion,,,,,,,,,2,,,,,,,,I,S,O,,40985.425000078976,40983.90999995172,36196.383,36210.36499994807,36213.058,40999.535,,,
Sounds,html.Screen,0_3_4_0,2021-04-08T15:41:03.065Z,,,,,,,,,,,,,,,,,,,,,,,,,,,,,,4252.786999999997,,timeout,,,,,,,,,2,,,,,,,,O,S,I,,45236.31500010379,45235.486,40982.874,40985.66000000574,40999.535,45252.322,,,
Judgement,html.Screen,0_3_4_1,2021-04-08T15:41:03.629Z,,,,,,,,,,,,,,,,,,,,,,,,,,,true,2,,546.6630000012665,,response,,,,,,,,,2,,2,click #choice-2,,,,,O,S,I,,45800.060000037774,45798.98500000127,45235.486,45236.55500006862,45252.322,45802.681,,,
Trial,flow.Sequence,0_3_4,2021-04-08T15:41:03.629Z,,,,,,,,,,,,,,,,,,,,,,,,,,,,,,4799.450000001263,,completion,,,,,,,,,2,,,,,,,,O,S,I,,45800.400000065565,45798.98500000127,40982.874,40985.589999938384,40999.535,45802.681,,,
Sounds,html.Screen,0_3_5_0,2021-04-08T15:41:07.868Z,,,,,,,,,,,,,,,,,,,,,,,,,,,,,,4252.799000000006,,timeout,,,,,,,,,3,,,,,,,,O,I,S,,50039.730000076815,50038.798,45786.032,45800.6400000304,45802.681,50055.48,,,
Judgement,html.Screen,0_3_5_1,2021-04-08T15:41:08.404Z,,,,,,,,,,,,,,,,,,,,,,,,,,,true,3,,518.8900000457434,,response,,,,,,,,,3,,3,click #choice-3,,,,,O,I,S,,50575.41000004858,50574.37000004575,50038.798,50039.95499992743,50055.48,50589.161,,,
Trial,flow.Sequence,0_3_5,2021-04-08T15:41:08.404Z,,,,,,,,,,,,,,,,,,,,,,,,,,,,,,4771.68900004575,,completion,,,,,,,,,3,,,,,,,,O,I,S,,50575.75499988161,50574.37000004575,45786.032,45800.569999963045,45802.681,50589.161,,,
Task,flow.Loop,0_3,2021-04-08T15:41:08.413Z,,,,,,,,,,,,,,,,,,,,,,,,,,,,,,28904.232000045748,,completion,,,1,,,,,,,,,,,,,,,,,,50584.150000009686,50574.37000004575,21653.506,21660.224999999627,21670.138,50589.161,,,
Trap,html.Screen,0_4,2021-04-08T15:41:08.415Z,,,,,,,,,,,,,,,,,,,,,,,,,,,,,,NaN,,skipped,,,,,,,,,,,,,,,,,,,,,50586.36500011198,50574.37000004575,,50586.115000071004,,50589.161,,,
Thanks,html.Screen,0_5,2021-04-08T15:43:02.818Z,,,,,,,,,,,,,,,,,,,,,,,,,,,,,,114399.52399998935,,response,,,,,,,,,,,continue,click button,,,,,,,,,164989.92000008002,164988.68499998935,50572.502,50586.57999988645,50589.161,166215.088,,,
Headphone screening,flow.Sequence,0,2021-04-08T15:43:02.819Z,,,,,,,,,,,,,,,,,,,,,,,,,,,,,,154192.31799998935,,completion,,,,,,,,,,,,,,,,,,,,,164990.34000001848,164988.68499998935,10763.712,10773.389999987558,10796.367,166215.088,,,
Instructions,html.Page,1_0,2021-04-08T15:43:06.770Z,,,,,,,,,,,,,,,,,,,,,,,,,,,,,,2726.3970000757836,,form submission,,,,,,,,,,,,,,,,,,,,,168941.8200000655,168941.48500007577,166181.72,166207.80500001274,166215.088,168950.245,,,
Holding screen,html.Screen,1_1_0_0,2021-04-08T15:43:16.769Z,,,,,,,,,,,,,,,,,,,,,,,,,,,,,,10023.236000000004,,timeout,,,,,,,,,,,,,,,,,,,,,178940.71500003338,178940.123,168933.561,168941.97999988683,168950.245,178973.481,,,
screen,html.Screen,1_1_0_1_0,2021-04-08T15:43:18.627Z,,,,,,,,,,,,,,,,53,,,,,,,,,,,,,,1820.6240000954422,,response,,,,99,,,,,,,Space,keypress(Space),,,,,,,,When -- ----- -- ------ - ------- --- ----------<br>------------- ------ ------ ---- ---- ------- ----- -- ----<br>-------- ------- -- ---------- --- - --- ----- ----- ----<br>---- --- --- ----- --- ---- ---- ------- ----- ---- -------<br>--- --- -- ----- -- --- ---- -- --- ---- -- ------ ------<br>--- ----- -- ----,180798.60000009649,180794.10500009544,178940.123,178941.03499990888,178973.481,180807.905,,0,When
screen,html.Screen,1_1_0_1_1,2021-04-08T15:43:19.062Z,,,,,,,,,,,,,,,,53,,,,,,,,,,,,,,425.38999992542085,,response,,,,99,,,,,,,Space,keypress(Space),,,,,,,,---- it ----- -- ------ - ------- --- ----------<br>------------- ------ ------ ---- ---- ------- ----- -- ----<br>-------- ------- -- ---------- --- - --- ----- ----- ----<br>---- --- --- ----- --- ---- ---- ------- ----- ---- -------<br>--- --- -- ----- -- --- ---- -- --- ---- -- ------ ------<br>--- ----- -- ----,181234.02499989606,181233.29499992542,180791.597,180798.875000095,180807.905,181241.564,,1,it
screen,html.Screen,1_1_0_1_2,2021-04-08T15:43:19.462Z,,,,,,,,,,,,,,,,53,,,,,,,,,,,,,,391.6459998835344,,response,,,,99,,,,,,,Space,keypress(Space),,,,,,,,---- -- comes -- ------ - ------- --- ----------<br>------------- ------ ------ ---- ---- ------- ----- -- ----<br>-------- ------- -- ---------- --- - --- ----- ----- ----<br>---- --- --- ----- --- ---- ---- ------- ----- ---- -------<br>--- --- -- ----- -- --- ---- -- --- ---- -- ------ ------<br>--- ----- -- ----,181633.97999992594,181633.20999988355,181225.018,181234.25500001758,181241.564,181641.812,,2,comes
screen,html.Screen,1_1_0_1_3,2021-04-08T15:43:19.870Z,,,,,,,,,,,,,,,,53,,,,,,,,,,,,,,399.35800009864033,,response,,,,99,,,,,,,Space,keypress(Space),,,,,,,,---- -- ----- to ------ - ------- --- ----------<br>------------- ------ ------ ---- ---- ------- ----- -- ----<br>-------- ------- -- ---------- --- - --- ----- ----- ----<br>---- --- --- ----- --- ---- ---- ------- ----- ---- -------<br>--- --- -- ----- -- --- ---- -- --- ---- -- ------ ------<br>--- ----- -- ----,182041.90500010736,182041.17000009865,181625.276,181634.2050000094,181641.812,182058.889,,3,to
screen,html.Screen,1_1_0_1_4,2021-04-08T15:43:20.326Z,,,,,,,,,,,,,,,,53,,,,,,,,,,,,,,438.1860000793531,,response,,,,99,,,,,,,Space,keypress(Space),,,,,,,,---- -- ----- -- having - ------- --- ----------<br>------------- ------ ------ ---- ---- ------- ----- -- ----<br>-------- ------- -- ---------- --- - --- ----- ----- ----<br>---- --- --- ----- --- ---- ---- ------- ----- ---- -------<br>--- --- -- ----- -- --- ---- -- --- ---- -- ------ ------<br>--- ----- -- ----,182497.80500005,182497.07500007935,182042.223,182042.11999988183,182058.889,182509.123,,4,having
screen,html.Screen,1_1_0_1_5,2021-04-08T15:43:20.614Z,,,,,,,,,,,,,,,,53,,,,,,,,,,,,,,275.902000106551,,response,,,,99,,,,,,,Space,keypress(Space),,,,,,,,---- -- ----- -- ------ a ------- --- ----------<br>------------- ------ ------ ---- ---- ------- ----- -- ----<br>-------- ------- -- ---------- --- - --- ----- ----- ----<br>---- --- --- ----- --- ---- ---- ------- ----- ---- -------<br>--- --- -- ----- -- --- ---- -- --- ---- -- ------ ------<br>--- ----- -- ----,182785.69500008598,182785.02500010654,182492.521,182498.03999997675,182509.123,182792.501,,5,a
screen,html.Screen,1_1_0_1_6,2021-04-08T15:43:20.950Z,,,,,,,,,,,,,,,,53,,,,,,,,,,,,,,328.4789998905617,,response,,,,99,,,,,,,Space,keypress(Space),,,,,,,,---- -- ----- -- ------ - lasting --- ----------<br>------------- ------ ------ ---- ---- ------- ----- -- ----<br>-------- ------- -- ---------- --- - --- ----- ----- ----<br>---- --- --- ----- --- ---- ---- ------- ----- ---- -------<br>--- --- -- ----- -- --- ---- -- --- ---- -- ------ ------<br>--- ----- -- ----,183121.68999994174,183120.97999989055,182776.013,182785.9199999366,182792.501,183126.224,,6,lasting
screen,html.Screen,1_1_0_1_7,2021-04-08T15:43:21.270Z,,,,,,,,,,,,,,,,53,,,,,,,,,,,,,,314.7559999557561,,response,,,,99,,,,,,,Space,keypress(Space),,,,,,,,---- -- ----- -- ------ - ------- and ----------<br>------------- ------ ------ ---- ---- ------- ----- -- ----<br>-------- ------- -- ---------- --- - --- ----- ----- ----<br>---- --- --- ----- --- ---- ---- ------- ----- ---- -------<br>--- --- -- ----- -- --- ---- -- --- ---- -- ------ ------<br>--- ----- -- ----,183441.73499988392,183440.97999995574,183109.576,183121.92000006326,183126.224,183463.841,,7,and
screen,html.Screen,1_1_0_1_8,2021-04-08T15:43:21.598Z,,,,,,,,,,,,,,,,53,,,,,,,,,,,,,,305.1240000538819,,response,,,,99,,,,,,,Space,keypress(Space),,,,,,,,---- -- ----- -- ------ - ------- --- fulfilling<br>------------- ------ ------ ---- ---- ------- ----- -- ----<br>-------- ------- -- ---------- --- - --- ----- ----- ----<br>---- --- --- ----- --- ---- ---- ------- ----- ---- -------<br>--- --- -- ----- -- --- ---- -- --- ---- -- ------ ------<br>--- ----- -- ----,183769.67000006698,183768.96500005387,183426.448,183441.9549999293,183463.841,183776.533,,8,fulfilling
screen,html.Screen,1_1_0_1_9,2021-04-08T15:43:21.966Z,,,,,,,,,,,,,,,,53,,,,,,,,,,,,,,360.3269999696058,,response,,,,99,,,,,,,Space,keypress(Space),,,,,,,,"---- -- ----- -- ------ - ------- --- ----------<br>relationship, ------ ------ ---- ---- ------- ----- -- ----<br>-------- ------- -- ---------- --- - --- ----- ----- ----<br>---- --- --- ----- --- ---- ---- ------- ----- ---- -------<br>--- --- -- ----- -- --- ---- -- --- ---- -- ------ ------<br>--- ----- -- ----",184137.54500006326,184136.8599999696,183760.002,183769.89999995567,183776.533,184143.443,,9,"relationship,"
screen,html.Screen,1_1_0_1_10,2021-04-08T15:43:22.406Z,,,,,,,,,,,,,,,,53,,,,,,,,,,,,,,433.5270000528253,,response,,,,99,,,,,,,Space,keypress(Space),,,,,,,,---- -- ----- -- ------ - ------- --- ----------<br>------------- common ------ ---- ---- ------- ----- -- ----<br>-------- ------- -- ---------- --- - --- ----- ----- ----<br>---- --- --- ----- --- ---- ---- ------- ----- ---- -------<br>--- --- -- ----- -- --- ---- -- --- ---- -- ------ ------<br>--- ----- -- ----,184577.77000009082,184576.97000005282,184126.918,184137.77999999002,184143.443,184593.887,,10,common
screen,html.Screen,1_1_0_1_11,2021-04-08T15:43:22.806Z,,,,,,,,,,,,,,,,53,,,,,,,,,,,,,,382.89799994800705,,response,,,,99,,,,,,,Space,keypress(Space),,,,,,,,---- -- ----- -- ------ - ------- --- ----------<br>------------- ------ wisdom ---- ---- ------- ----- -- ----<br>-------- ------- -- ---------- --- - --- ----- ----- ----<br>---- --- --- ----- --- ---- ---- ------- ----- ---- -------<br>--- --- -- ----- -- --- ---- -- --- ---- -- ------ ------<br>--- ----- -- ----,184977.5549999904,184976.784999948,184577.228,184578.01000005566,184593.887,184994.15,,11,wisdom
screen,html.Screen,1_1_0_1_12,2021-04-08T15:43:23.158Z,,,,,,,,,,,,,,,,53,,,,,,,,,,,,,,334.68000001311884,,response,,,,99,,,,,,,Space,keypress(Space),,,,,,,,---- -- ----- -- ------ - ------- --- ----------<br>------------- ------ ------ says ---- ------- ----- -- ----<br>-------- ------- -- ---------- --- - --- ----- ----- ----<br>---- --- --- ----- --- ---- ---- ------- ----- ---- -------<br>--- --- -- ----- -- --- ---- -- --- ---- -- ------ ------<br>--- ----- -- ----,185329.64999997057,185328.8300000131,184977.476,184977.7850001119,184994.15,185344.388,,12,says
screen,html.Screen,1_1_0_1_13,2021-04-08T15:43:23.486Z,,,,,,,,,,,,,,,,53,,,,,,,,,,,,,,312.26700005706516,,response,,,,99,,,,,,,Space,keypress(Space),,,,,,,,---- -- ----- -- ------ - ------- --- ----------<br>------------- ------ ------ ---- that ------- ----- -- ----<br>-------- ------- -- ---------- --- - --- ----- ----- ----<br>---- --- --- ----- --- ---- ---- ------- ----- ---- -------<br>--- --- -- ----- -- --- ---- -- --- ---- -- ------ ------<br>--- ----- -- ----,185657.3999999091,185656.65500005707,185327.7,185329.91499989294,185344.388,185661.215,,13,that
screen,html.Screen,1_1_0_1_14,2021-04-08T15:43:23.798Z,,,,,,,,,,,,,,,,53,,,,,,,,,,,,,,307.39500009812764,,response,,,,99,,,,,,,Space,keypress(Space),,,,,,,,---- -- ----- -- ------ - ------- --- ----------<br>------------- ------ ------ ---- ---- feeling ----- -- ----<br>-------- ------- -- ---------- --- - --- ----- ----- ----<br>---- --- --- ----- --- ---- ---- ------- ----- ---- -------<br>--- --- -- ----- -- --- ---- -- --- ---- -- ------ ------<br>--- ----- -- ----,185969.34000006877,185968.61000009812,185644.571,185657.6350000687,185661.215,185978.074,,14,feeling
screen,html.Screen,1_1_0_1_15,2021-04-08T15:43:24.142Z,,,,,,,,,,,,,,,,53,,,,,,,,,,,,,,334.51099994874676,,response,,,,99,,,,,,,Space,keypress(Space),,,,,,,,---- -- ----- -- ------ - ------- --- ----------<br>------------- ------ ------ ---- ---- ------- close -- ----<br>-------- ------- -- ---------- --- - --- ----- ----- ----<br>---- --- --- ----- --- ---- ---- ------- ----- ---- -------<br>--- --- -- ----- -- --- ---- -- --- ---- -- ------ ------<br>--- ----- -- ----,186313.37999994867,186312.58499994874,185961.445,185969.57499999553,185978.074,186328.371,,15,close
screen,html.Screen,1_1_0_1_16,2021-04-08T15:43:24.453Z,,,,,,,,,,,,,,,,53,,,,,,,,,,,,,,296.05900008350727,,response,,,,99,,,,,,,Space,keypress(Space),,,,,,,,---- -- ----- -- ------ - ------- --- ----------<br>------------- ------ ------ ---- ---- ------- ----- to ----<br>-------- ------- -- ---------- --- - --- ----- ----- ----<br>---- --- --- ----- --- ---- ---- ------- ----- ---- -------<br>--- --- -- ----- -- --- ---- -- --- ---- -- ------ ------<br>--- ----- -- ----,186625.1850000117,186624.43000008352,186311.685,186313.62999998964,186328.371,186628.516,,16,to
screen,html.Screen,1_1_0_1_17,2021-04-08T15:43:24.798Z,,,,,,,,,,,,,,,,53,,,,,,,,,,,,,,339.9290000058827,,response,,,,99,,,,,,,Space,keypress(Space),,,,,,,,---- -- ----- -- ------ - ------- --- ----------<br>------------- ------ ------ ---- ---- ------- ----- -- your<br>-------- ------- -- ---------- --- - --- ----- ----- ----<br>---- --- --- ----- --- ---- ---- ------- ----- ---- -------<br>--- --- -- ----- -- --- ---- -- --- ---- -- ------ ------<br>--- ----- -- ----,186969.21500004828,186968.4450000059,186611.873,186625.42499997653,186628.516,186978.687,,17,your
screen,html.Screen,1_1_0_1_18,2021-04-08T15:43:25.150Z,,,,,,,,,,,,,,,,53,,,,,,,,,,,,,,341.74300007979036,,response,,,,99,,,,,,,Space,keypress(Space),,,,,,,,---- -- ----- -- ------ - ------- --- ----------<br>------------- ------ ------ ---- ---- ------- ----- -- ----<br>romantic ------- -- ---------- --- - --- ----- ----- ----<br>---- --- --- ----- --- ---- ---- ------- ----- ---- -------<br>--- --- -- ----- -- --- ---- -- --- ---- -- ------ ------<br>--- ----- -- ----,187321.2099999655,187320.4300000798,186962.109,186969.44999997504,186978.687,187328.869,,18,romantic
screen,html.Screen,1_1_0_1_19,2021-04-08T15:43:25.485Z,,,,,,,,,,,,,,,,53,,,,,,,,,,,,,,327.4510000673472,,response,,,,99,,,,,,,Space,keypress(Space),,,,,,,,---- -- ----- -- ------ - ------- --- ----------<br>------------- ------ ------ ---- ---- ------- ----- -- ----<br>-------- partner -- ---------- --- - --- ----- ----- ----<br>---- --- --- ----- --- ---- ---- ------- ----- ---- -------<br>--- --- -- ----- -- --- ---- -- --- ---- -- ------ ------<br>--- ----- -- ----,187657.0599998813,187656.32000006735,187312.354,187321.44499989226,187328.869,187662.531,,19,partner
screen,html.Screen,1_1_0_1_20,2021-04-08T15:43:25.789Z,,,,,,,,,,,,,,,,53,,,,,,,,,,,,,,297.80399995247717,,response,,,,99,,,,,,,Space,keypress(Space),,,,,,,,---- -- ----- -- ------ - ------- --- ----------<br>------------- ------ ------ ---- ---- ------- ----- -- ----<br>-------- ------- is ---------- --- - --- ----- ----- ----<br>---- --- --- ----- --- ---- ---- ------- ----- ---- -------<br>--- --- -- ----- -- --- ---- -- --- ---- -- ------ ------<br>--- ----- -- ----,187961.12499991432,187960.33499995247,187645.887,187657.28499996476,187662.531,187983.761,,20,is
screen,html.Screen,1_1_0_1_21,2021-04-08T15:43:26.093Z,,,,,,,,,,,,,,,,53,,,,,,,,,,,,,,280.50399988883873,,response,,,,99,,,,,,,Space,keypress(Space),,,,,,,,---- -- ----- -- ------ - ------- --- ----------<br>------------- ------ ------ ---- ---- ------- ----- -- ----<br>-------- ------- -- paramount. --- - --- ----- ----- ----<br>---- --- --- ----- --- ---- ---- ------- ----- ---- -------<br>--- --- -- ----- -- --- ---- -- --- ---- -- ------ ------<br>--- ----- -- ----,188265.08000004105,188264.26499988884,187946.079,187961.34999999776,187983.761,188279.635,,21,paramount.
screen,html.Screen,1_1_0_1_22,2021-04-08T15:43:26.605Z,,,,,,,,,,,,,,,,53,,,,,,,,,,,,,,496.5500000824686,,response,,,,99,,,,,,,Space,keypress(Space),,,,,,,,---- -- ----- -- ------ - ------- --- ----------<br>------------- ------ ------ ---- ---- ------- ----- -- ----<br>-------- ------- -- ---------- But - --- ----- ----- ----<br>---- --- --- ----- --- ---- ---- ------- ----- ---- -------<br>--- --- -- ----- -- --- ---- -- --- ---- -- ------ ------<br>--- ----- -- ----,188776.9599999301,188776.18500008248,188262.914,188265.30999992974,188279.635,188779.931,,22,But
screen,html.Screen,1_1_0_1_23,2021-04-08T15:43:26.917Z,,,,,,,,,,,,,,,,53,,,,,,,,,,,,,,308.20400008544675,,response,,,,99,,,,,,,Space,keypress(Space),,,,,,,,---- -- ----- -- ------ - ------- --- ----------<br>------------- ------ ------ ---- ---- ------- ----- -- ----<br>-------- ------- -- ---------- --- a --- ----- ----- ----<br>---- --- --- ----- --- ---- ---- ------- ----- ---- -------<br>--- --- -- ----- -- --- ---- -- --- ---- -- ------ ------<br>--- ----- -- ----,189088.87000009418,189088.13500008546,188763.316,188777.19000005163,188779.931,189096.718,,23,a
screen,html.Screen,1_1_0_1_24,2021-04-08T15:43:27.237Z,,,,,,,,,,,,,,,,53,,,,,,,,,,,,,,311.4370000701165,,response,,,,99,,,,,,,Space,keypress(Space),,,,,,,,---- -- ----- -- ------ - ------- --- ----------<br>------------- ------ ------ ---- ---- ------- ----- -- ----<br>-------- ------- -- ---------- --- - new ----- ----- ----<br>---- --- --- ----- --- ---- ---- ------- ----- ---- -------<br>--- --- -- ----- -- --- ---- -- --- ---- -- ------ ------<br>--- ----- -- ----,189408.9999999851,189408.1550000701,189080.161,189089.0949999448,189096.718,189413.694,,24,new
screen,html.Screen,1_1_0_1_25,2021-04-08T15:43:27.549Z,,,,,,,,,,,,,,,,53,,,,,,,,,,,,,,306.3559998871351,,response,,,,99,,,,,,,Space,keypress(Space),,,,,,,,---- -- ----- -- ------ - ------- --- ----------<br>------------- ------ ------ ---- ---- ------- ----- -- ----<br>-------- ------- -- ---------- --- - --- study ----- ----<br>---- --- --- ----- --- ---- ---- ------- ----- ---- -------<br>--- --- -- ----- -- --- ---- -- --- ---- -- ------ ------<br>--- ----- -- ----,189720.7899999339,189720.04999988712,189397.048,189409.22500006855,189413.694,189730.536,,25,study
screen,html.Screen,1_1_0_1_26,2021-04-08T15:43:27.837Z,,,,,,,,,,,,,,,,53,,,,,,,,,,,,,,277.4590001090837,,response,,,,99,,,,,,,Space,keypress(Space),,,,,,,,---- -- ----- -- ------ - ------- --- ----------<br>------------- ------ ------ ---- ---- ------- ----- -- ----<br>-------- ------- -- ---------- --- - --- ----- finds ----<br>---- --- --- ----- --- ---- ---- ------- ----- ---- -------<br>--- --- -- ----- -- --- ---- -- --- ---- -- ------ ------<br>--- ----- -- ----,190008.79499991424,190007.99500010908,189713.916,189721.02000005543,189730.536,190014.087,,26,finds
screen,html.Screen,1_1_0_1_27,2021-04-08T15:43:28.085Z,,,,,,,,,,,,,,,,53,,,,,,,,,,,,,,241.918000090227,,response,,,,99,,,,,,,Space,keypress(Space),,,,,,,,---- -- ----- -- ------ - ------- --- ----------<br>------------- ------ ------ ---- ---- ------- ----- -- ----<br>-------- ------- -- ---------- --- - --- ----- ----- that<br>---- --- --- ----- --- ---- ---- ------- ----- ---- -------<br>--- --- -- ----- -- --- ---- -- --- ---- -- ------ ------<br>--- ----- -- ----,190256.8200000096,190256.00500009023,189997.431,190009.03999991715,190014.087,190264.165,,27,that
screen,html.Screen,1_1_0_1_28,2021-04-08T15:43:28.381Z,,,,,,,,,,,,,,,,53,,,,,,,,,,,,,,287.76000003612717,,response,,,,99,,,,,,,Space,keypress(Space),,,,,,,,---- -- ----- -- ------ - ------- --- ----------<br>------------- ------ ------ ---- ---- ------- ----- -- ----<br>-------- ------- -- ---------- --- - --- ----- ----- ----<br>it's --- --- ----- --- ---- ---- ------- ----- ---- -------<br>--- --- -- ----- -- --- ---- -- --- ---- -- ------ ------<br>--- ----- -- ----,190552.66999988817,190551.92500003614,190247.586,190257.04500009306,190264.165,190564.348,,28,it's
screen,html.Screen,1_1_0_1_29,2021-04-08T15:43:28.678Z,,,,,,,,,,,,,,,,53,,,,,,,,,,,,,,284.0969998941291,,response,,,,99,,,,,,,Space,keypress(Space),,,,,,,,---- -- ----- -- ------ - ------- --- ----------<br>------------- ------ ------ ---- ---- ------- ----- -- ----<br>-------- ------- -- ---------- --- - --- ----- ----- ----<br>---- not --- ----- --- ---- ---- ------- ----- ---- -------<br>--- --- -- ----- -- --- ---- -- --- ---- -- ------ ------<br>--- ----- -- ----,190849.6050001122,190848.44499989413,190547.796,190552.8949999716,190564.348,190864.656,,29,not
screen,html.Screen,1_1_0_1_30,2021-04-08T15:43:28.989Z,,,,,,,,,,,,,,,,53,,,,,,,,,,,,,,295.1140000275045,,response,,,,99,,,,,,,Space,keypress(Space),,,,,,,,---- -- ----- -- ------ - ------- --- ----------<br>------------- ------ ------ ---- ---- ------- ----- -- ----<br>-------- ------- -- ---------- --- - --- ----- ----- ----<br>---- --- how ----- --- ---- ---- ------- ----- ---- -------<br>--- --- -- ----- -- --- ---- -- --- ---- -- ------ ------<br>--- ----- -- ----,191160.52999999374,191159.7700000275,190847.988,190849.81500008143,190864.656,191164.838,,30,how
screen,html.Screen,1_1_0_1_31,2021-04-08T15:43:29.277Z,,,,,,,,,,,,,,,,53,,,,,,,,,,,,,,282.8520000590943,,response,,,,99,,,,,,,Space,keypress(Space),,,,,,,,---- -- ----- -- ------ - ------- --- ----------<br>------------- ------ ------ ---- ---- ------- ----- -- ----<br>-------- ------- -- ---------- --- - --- ----- ----- ----<br>---- --- --- close --- ---- ---- ------- ----- ---- -------<br>--- --- -- ----- -- --- ---- -- --- ---- -- ------ ------<br>--- ----- -- ----,191448.34999996237,191447.69000005908,191148.181,191160.74500000104,191164.838,191465.012,,31,close
screen,html.Screen,1_1_0_1_32,2021-04-08T15:43:29.581Z,,,,,,,,,,,,,,,,53,,,,,,,,,,,,,,286.6629999486031,,response,,,,99,,,,,,,Space,keypress(Space),,,,,,,,---- -- ----- -- ------ - ------- --- ----------<br>------------- ------ ------ ---- ---- ------- ----- -- ----<br>-------- ------- -- ---------- --- - --- ----- ----- ----<br>---- --- --- ----- you ---- ---- ------- ----- ---- -------<br>--- --- -- ----- -- --- ---- -- --- ---- -- ------ ------<br>--- ----- -- ----,191752.35500000417,191751.6749999486,191448.337,191448.5800000839,191465.012,191765.256,,32,you
screen,html.Screen,1_1_0_1_33,2021-04-08T15:43:29.869Z,,,,,,,,,,,,,,,,53,,,,,,,,,,,,,,274.35899989964673,,response,,,,99,,,,,,,Space,keypress(Space),,,,,,,,---- -- ----- -- ------ - ------- --- ----------<br>------------- ------ ------ ---- ---- ------- ----- -- ----<br>-------- ------- -- ---------- --- - --- ----- ----- ----<br>---- --- --- ----- --- feel ---- ------- ----- ---- -------<br>--- --- -- ----- -- --- ---- -- --- ---- -- ------ ------<br>--- ----- -- ----,192040.32499995083,192039.61499989964,191748.578,191752.5649999734,191765.256,192048.72,,33,feel
screen,html.Screen,1_1_0_1_34,2021-04-08T15:43:30.165Z,,,,,,,,,,,,,,,,53,,,,,,,,,,,,,,286.889999950974,,response,,,,99,,,,,,,Space,keypress(Space),,,,,,,,---- -- ----- -- ------ - ------- --- ----------<br>------------- ------ ------ ---- ---- ------- ----- -- ----<br>-------- ------- -- ---------- --- - --- ----- ----- ----<br>---- --- --- ----- --- ---- that ------- ----- ---- -------<br>--- --- -- ----- -- --- ---- -- --- ---- -- ------ ------<br>--- ----- -- ----,192336.27499989234,192335.60999995098,192032.097,192040.56000011042,192048.72,192348.913,,34,that
screen,html.Screen,1_1_0_1_35,2021-04-08T15:43:30.436Z,,,,,,,,,,,,,,,,53,,,,,,,,,,,,,,258.57700008217944,,response,,,,99,,,,,,,Space,keypress(Space),,,,,,,,---- -- ----- -- ------ - ------- --- ----------<br>------------- ------ ------ ---- ---- ------- ----- -- ----<br>-------- ------- -- ---------- --- - --- ----- ----- ----<br>---- --- --- ----- --- ---- ---- matters ----- ---- -------<br>--- --- -- ----- -- --- ---- -- --- ---- -- ------ ------<br>--- ----- -- ----,192608.19000005722,192607.49000008218,192332.29,192336.4949999377,192348.913,192615.691,,35,matters
screen,html.Screen,1_1_0_1_36,2021-04-08T15:43:30.748Z,,,,,,,,,,,,,,,,53,,,,,,,,,,,,,,303.7790000807727,,response,,,,99,,,,,,,Space,keypress(Space),,,,,,,,"---- -- ----- -- ------ - ------- --- ----------<br>------------- ------ ------ ---- ---- ------- ----- -- ----<br>-------- ------- -- ---------- --- - --- ----- ----- ----<br>---- --- --- ----- --- ---- ---- ------- most, ---- -------<br>--- --- -- ----- -- --- ---- -- --- ---- -- ------ ------<br>--- ----- -- ----",192920.1549999416,192919.47000008076,192599.127,192608.40500006452,192615.691,192932.636,,36,"most,"
screen,html.Screen,1_1_0_1_37,2021-04-08T15:43:31.028Z,,,,,,,,,,,,,,,,53,,,,,,,,,,,,,,266.75900000327965,,response,,,,99,,,,,,,Space,keypress(Space),,,,,,,,---- -- ----- -- ------ - ------- --- ----------<br>------------- ------ ------ ---- ---- ------- ----- -- ----<br>-------- ------- -- ---------- --- - --- ----- ----- ----<br>---- --- --- ----- --- ---- ---- ------- ----- it's -------<br>--- --- -- ----- -- --- ---- -- --- ---- -- ------ ------<br>--- ----- -- ----,193200.08000009693,193199.39500000328,192916.023,192920.3550000675,192932.636,193216.215,,37,it's
screen,html.Screen,1_1_0_1_38,2021-04-08T15:43:31.332Z,,,,,,,,,,,,,,,,53,,,,,,,,,,,,,,287.16499989278964,,response,,,,99,,,,,,,Space,keypress(Space),,,,,,,,---- -- ----- -- ------ - ------- --- ----------<br>------------- ------ ------ ---- ---- ------- ----- -- ----<br>-------- ------- -- ---------- --- - --- ----- ----- ----<br>---- --- --- ----- --- ---- ---- ------- ----- ---- whether<br>--- --- -- ----- -- --- ---- -- --- ---- -- ------ ------<br>--- ----- -- ----,193504.0549999103,193503.3799998928,193199.486,193200.2850000281,193216.215,193516.351,,38,whether
screen,html.Screen,1_1_0_1_39,2021-04-08T15:43:31.604Z,,,,,,,,,,,,,,,,53,,,,,,,,,,,,,,258.94900009574485,,response,,,,99,,,,,,,Space,keypress(Space),,,,,,,,---- -- ----- -- ------ - ------- --- ----------<br>------------- ------ ------ ---- ---- ------- ----- -- ----<br>-------- ------- -- ---------- --- - --- ----- ----- ----<br>---- --- --- ----- --- ---- ---- ------- ----- ---- -------<br>you --- -- ----- -- --- ---- -- --- ---- -- ------ ------<br>--- ----- -- ----,193775.98499995656,193775.30000009574,193499.669,193504.26000007428,193516.351,193783.071,,39,you
screen,html.Screen,1_1_0_1_40,2021-04-08T15:43:31.908Z,,,,,,,,,,,,,,,,53,,,,,,,,,,,,,,296.2089999471791,,response,,,,99,,,,,,,Space,keypress(Space),,,,,,,,---- -- ----- -- ------ - ------- --- ----------<br>------------- ------ ------ ---- ---- ------- ----- -- ----<br>-------- ------- -- ---------- --- - --- ----- ----- ----<br>---- --- --- ----- --- ---- ---- ------- ----- ---- -------<br>--- are -- ----- -- --- ---- -- --- ---- -- ------ ------<br>--- ----- -- ----,194079.95499996468,194079.27999994718,193766.565,193776.18500008248,193783.071,194083.41,,40,are
screen,html.Screen,1_1_0_1_41,2021-04-08T15:43:32.204Z,,,,,,,,,,,,,,,,53,,,,,,,,,,,,,,291.7899998930807,,response,,,,99,,,,,,,Space,keypress(Space),,,,,,,,---- -- ----- -- ------ - ------- --- ----------<br>------------- ------ ------ ---- ---- ------- ----- -- ----<br>-------- ------- -- ---------- --- - --- ----- ----- ----<br>---- --- --- ----- --- ---- ---- ------- ----- ---- -------<br>--- --- as ----- -- --- ---- -- --- ---- -- ------ ------<br>--- ----- -- ----,194375.87999994867,194375.19999989308,194066.779,194080.1550000906,194083.41,194383.518,,41,as
screen,html.Screen,1_1_0_1_42,2021-04-08T15:43:32.476Z,,,,,,,,,,,,,,,,53,,,,,,,,,,,,,,263.867000018392,,response,,,,99,,,,,,,Space,keypress(Space),,,,,,,,---- -- ----- -- ------ - ------- --- ----------<br>------------- ------ ------ ---- ---- ------- ----- -- ----<br>-------- ------- -- ---------- --- - --- ----- ----- ----<br>---- --- --- ----- --- ---- ---- ------- ----- ---- -------<br>--- --- -- close -- --- ---- -- --- ---- -- ------ ------<br>--- ----- -- ----,194648.0149999261,194647.3850000184,194366.961,194376.06999999844,194383.518,194650.457,,42,close
screen,html.Screen,1_1_0_1_43,2021-04-08T15:43:32.764Z,,,,,,,,,,,,,,,,53,,,,,,,,,,,,,,284.69300003390526,,response,,,,99,,,,,,,Space,keypress(Space),,,,,,,,---- -- ----- -- ------ - ------- --- ----------<br>------------- ------ ------ ---- ---- ------- ----- -- ----<br>-------- ------- -- ---------- --- - --- ----- ----- ----<br>---- --- --- ----- --- ---- ---- ------- ----- ---- -------<br>--- --- -- ----- as --- ---- -- --- ---- -- ------ ------<br>--- ----- -- ----,194935.83499989472,194935.1500000339,194633.8,194648.22000009008,194650.457,194950.68,,43,as
screen,html.Screen,1_1_0_1_44,2021-04-08T15:43:33.044Z,,,,,,,,,,,,,,,,53,,,,,,,,,,,,,,264.39999999449356,,response,,,,99,,,,,,,Space,keypress(Space),,,,,,,,---- -- ----- -- ------ - ------- --- ----------<br>------------- ------ ------ ---- ---- ------- ----- -- ----<br>-------- ------- -- ---------- --- - --- ----- ----- ----<br>---- --- --- ----- --- ---- ---- ------- ----- ---- -------<br>--- --- -- ----- -- you ---- -- --- ---- -- ------ ------<br>--- ----- -- ----,195215.76000005007,195215.0799999945,194934,194936.03500002064,194950.68,195217.455,,44,you
screen,html.Screen,1_1_0_1_45,2021-04-08T15:43:33.340Z,,,,,,,,,,,,,,,,53,,,,,,,,,,,,,,293.62500008390634,,response,,,,99,,,,,,,Space,keypress(Space),,,,,,,,---- -- ----- -- ------ - ------- --- ----------<br>------------- ------ ------ ---- ---- ------- ----- -- ----<br>-------- ------- -- ---------- --- - --- ----- ----- ----<br>---- --- --- ----- --- ---- ---- ------- ----- ---- -------<br>--- --- -- ----- -- --- want -- --- ---- -- ------ ------<br>--- ----- -- ----,195511.76499994472,195511.0800000839,195200.842,195215.97500005737,195217.455,195517.596,,45,want
screen,html.Screen,1_1_0_1_46,2021-04-08T15:43:33.628Z,,,,,,,,,,,,,,,,53,,,,,,,,,,,,,,281.5089999836928,,response,,,,99,,,,,,,Space,keypress(Space),,,,,,,,---- -- ----- -- ------ - ------- --- ----------<br>------------- ------ ------ ---- ---- ------- ----- -- ----<br>-------- ------- -- ---------- --- - --- ----- ----- ----<br>---- --- --- ----- --- ---- ---- ------- ----- ---- -------<br>--- --- -- ----- -- --- ---- to --- ---- -- ------ ------<br>--- ----- -- ----,195799.78500003926,195799.10499998368,195501.038,195511.96500007063,195517.596,195831.003,,46,to
screen,html.Screen,1_1_0_1_47,2021-04-08T15:43:33.916Z,,,,,,,,,,,,,,,,53,,,,,,,,,,,,,,255.93200002846424,,response,,,,99,,,,,,,Space,keypress(Space),,,,,,,,"---- -- ----- -- ------ - ------- --- ----------<br>------------- ------ ------ ---- ---- ------- ----- -- ----<br>-------- ------- -- ---------- --- - --- ----- ----- ----<br>---- --- --- ----- --- ---- ---- ------- ----- ---- -------<br>--- --- -- ----- -- --- ---- -- be, ---- -- ------ ------<br>--- ----- -- ----",196087.6499998849,196086.93500002846,195784.515,195799.98499993235,195831.003,196101.435,,47,"be,"
screen,html.Screen,1_1_0_1_48,2021-04-08T15:43:34.212Z,,,,,,,,,,,,,,,,53,,,,,,,,,,,,,,281.5449999948614,,response,,,,99,,,,,,,Space,keypress(Space),,,,,,,,---- -- ----- -- ------ - ------- --- ----------<br>------------- ------ ------ ---- ---- ------- ----- -- ----<br>-------- ------- -- ---------- --- - --- ----- ----- ----<br>---- --- --- ----- --- ---- ---- ------- ----- ---- -------<br>--- --- -- ----- -- --- ---- -- --- even -- ------ ------<br>--- ----- -- ----,196383.64499993622,196382.97999999486,196084.782,196087.8649998922,196101.435,196408.315,,48,even
screen,html.Screen,1_1_0_1_49,2021-04-08T15:43:34.524Z,,,,,,,,,,,,,,,,53,,,,,,,,,,,,,,286.5950000783778,,response,,,,99,,,,,,,Space,keypress(Space),,,,,,,,---- -- ----- -- ------ - ------- --- ----------<br>------------- ------ ------ ---- ---- ------- ----- -- ----<br>-------- ------- -- ---------- --- - --- ----- ----- ----<br>---- --- --- ----- --- ---- ---- ------- ----- ---- -------<br>--- --- -- ----- -- --- ---- -- --- ---- if ------ ------<br>--- ----- -- ----,196695.59999997728,196694.91000007838,196368.276,196383.84500006214,196408.315,196701.708,,49,if
screen,html.Screen,1_1_0_1_50,2021-04-08T15:43:34.828Z,,,,,,,,,,,,,,,,53,,,,,,,,,,,,,,297.1519999341981,,response,,,,99,,,,,,,Space,keypress(Space),,,,,,,,---- -- ----- -- ------ - ------- --- ----------<br>------------- ------ ------ ---- ---- ------- ----- -- ----<br>-------- ------- -- ---------- --- - --- ----- ----- ----<br>---- --- --- ----- --- ---- ---- ------- ----- ---- -------<br>--- --- -- ----- -- --- ---- -- --- ---- -- that's ------<br>--- ----- -- ----,196999.53499995172,196998.8599999342,196685.147,196695.80499990843,196701.708,197002.012,,50,that's
screen,html.Screen,1_1_0_1_51,2021-04-08T15:43:35.116Z,,,,,,,,,,,,,,,,53,,,,,,,,,,,,,,284.7780000419589,,response,,,,99,,,,,,,Space,keypress(Space),,,,,,,,---- -- ----- -- ------ - ------- --- ----------<br>------------- ------ ------ ---- ---- ------- ----- -- ----<br>-------- ------- -- ---------- --- - --- ----- ----- ----<br>---- --- --- ----- --- ---- ---- ------- ----- ---- -------<br>--- --- -- ----- -- --- ---- -- --- ---- -- ------ really<br>--- ----- -- ----,197287.53499989398,197286.79000004195,196985.347,196999.73500007764,197002.012,197302.241,,51,really
screen,html.Screen,1_1_0_1_52,2021-04-08T15:43:35.396Z,,,,,,,,,,,,,,,,53,,,,,,,,,,,,,,264.4689999263792,,response,,,,99,,,,,,,Space,keypress(Space),,,,,,,,---- -- ----- -- ------ - ------- --- ----------<br>------------- ------ ------ ---- ---- ------- ----- -- ----<br>-------- ------- -- ---------- --- - --- ----- ----- ----<br>---- --- --- ----- --- ---- ---- ------- ----- ---- -------<br>--- --- -- ----- -- --- ---- -- --- ---- -- ------ ------<br>not ----- -- ----,197567.37999990582,197566.7099999264,197285.548,197287.72999998182,197302.241,197568.996,,52,not
screen,html.Screen,1_1_0_1_53,2021-04-08T15:43:35.676Z,,,,,,,,,,,,,,,,53,,,,,,,,,,,,,,277.80899997919914,,response,,,,99,,,,,,,Space,keypress(Space),,,,,,,,---- -- ----- -- ------ - ------- --- ----------<br>------------- ------ ------ ---- ---- ------- ----- -- ----<br>-------- ------- -- ---------- --- - --- ----- ----- ----<br>---- --- --- ----- --- ---- ---- ------- ----- ---- -------<br>--- --- -- ----- -- --- ---- -- --- ---- -- ------ ------<br>--- close -- ----,197847.55000006407,197846.8049999792,197552.392,197567.58000003174,197568.996,197852.57,,53,close
screen,html.Screen,1_1_0_1_54,2021-04-08T15:43:36.020Z,,,,,,,,,,,,,,,,53,,,,,,,,,,,,,,338.13999999529915,,response,,,,99,,,,,,,Space,keypress(Space),,,,,,,,---- -- ----- -- ------ - ------- --- ----------<br>------------- ------ ------ ---- ---- ------- ----- -- ----<br>-------- ------- -- ---------- --- - --- ----- ----- ----<br>---- --- --- ----- --- ---- ---- ------- ----- ---- -------<br>--- --- -- ----- -- --- ---- -- --- ---- -- ------ ------<br>--- ----- at ----,198191.42500008456,198190.7099999953,197835.911,197847.74999995716,197852.57,198202.775,,54,at
screen,html.Screen,1_1_0_1_55,2021-04-08T15:43:36.516Z,,,,,,,,,,,,,,,,53,,,,,,,,,,,,,,483.8500000894128,,response,,,,99,,,,,,,Space,keypress(Space),,,,,,,,---- -- ----- -- ------ - ------- --- ----------<br>------------- ------ ------ ---- ---- ------- ----- -- ----<br>-------- ------- -- ---------- --- - --- ----- ----- ----<br>---- --- --- ----- --- ---- ---- ------- ----- ---- -------<br>--- --- -- ----- -- --- ---- -- --- ---- -- ------ ------<br>--- ----- -- all.,198687.33499990776,198686.6250000894,198186.056,198191.6350000538,198202.775,198703.118,,55,all.
Item 99,flow.Loop,1_1_0_1,2021-04-08T15:43:36.516Z,,,,,,,,,,,,,,,,,,,,,,,,,,,,,,19713.144000089407,,completion,,,,,C,,,,,,,,,,,silence,,,,,198687.75000004098,198686.6250000894,178940.123,178940.94499992207,178973.481,198703.118,,,
Question 1,html.Screen,1_1_0_2,2021-04-08T15:43:41.940Z,,,,,,,,,,,,,,,,,,,,,,,,,,,true,FALSE,,5407.487000052613,,response,,,,99,C,,,,,,FALSE,click #choice-2,,,,silence,,,,,204111.86000006273,204110.6050000526,198686.509,198687.93500005268,198703.118,204123.356,,,
Question 2,html.Screen,1_1_0_3,2021-04-08T15:43:45.707Z,,,,,,,,,,,,,,,,,,,,,,,,,,,true,TRUE,,3754.5490000011923,,response,,,,99,C,,,,,,TRUE,click #choice-1,,,,silence,,,,,207878.86500009336,207877.9050000012,204106.619,204112.08499991335,204123.356,207892.501,,,
Item 99,flow.Sequence,1_1_0,2021-04-08T15:43:45.707Z,,,,,,,,,,,,,,,,,,,,,,,,,,,,,,38927.6600000012,,completion,,,,,,,,,,,,,,,,,,,,,207879.18499996886,207877.9050000012,168933.561,168941.9549999293,168950.245,207892.501,,,
Holding screen,html.Screen,1_1_1_0,2021-04-08T15:43:55.715Z,,,,,,,,,,,,,,,,,,,,,,,,,,,,,,10006.58600000001,,timeout,,,,,,,,,,,,,,,,,,,,,217886.39499992132,217882.376,207875.825,207879.3899999,207892.501,217899.087,,,
screen,html.Screen,1_1_1_1_0,2021-04-08T15:43:56.225Z,,,,,,,,,,,,,,,,54,,,,,,,,,,,,,,497.0679999658023,,response,,,,100,,,,,,,Space,keypress(Space),,,,,,,,At --- ---- --- ------ ----- ------- ---- -- --- ------- --<br>------- ---------- ------ -- ----- -- ----- -- ---- ------<br>--- ----- --- --- ------ -------- ----- --- ------ ----- --<br>----- ----- ---------- --- --- ------ ------ ---- -- ------<br>------- --- ------ ----- --- ---- ------- -- ---- --- --<br>------- ------,218396.93000004627,218396.1549999658,217882.376,217886.7349999491,217899.087,218399.395,,0,At
screen,html.Screen,1_1_1_1_1,2021-04-08T15:43:56.568Z,,,,,,,,,,,,,,,,54,,,,,,,,,,,,,,340.10000010349904,,response,,,,100,,,,,,,Space,keypress(Space),,,,,,,,-- the ---- --- ------ ----- ------- ---- -- --- ------- --<br>------- ---------- ------ -- ----- -- ----- -- ---- ------<br>--- ----- --- --- ------ -------- ----- --- ------ ----- --<br>----- ----- ---------- --- --- ------ ------ ---- -- ------<br>------- --- ------ ----- --- ---- ------- -- ---- --- --<br>------- ------,218740.17499992624,218739.4950001035,218382.775,218397.15000009164,218399.395,218749.598,,1,the
screen,html.Screen,1_1_1_1_2,2021-04-08T15:43:56.936Z,,,,,,,,,,,,,,,,54,,,,,,,,,,,,,,357.7869999811519,,response,,,,100,,,,,,,Space,keypress(Space),,,,,,,,-- --- time --- ------ ----- ------- ---- -- --- ------- --<br>------- ---------- ------ -- ----- -- ----- -- ---- ------<br>--- ----- --- --- ------ -------- ----- --- ------ ----- --<br>----- ----- ---------- --- --- ------ ------ ---- -- ------<br>------- --- ------ ----- --- ---- ------- -- ---- --- --<br>------- ------,219108.0499999225,219107.38499998115,218732.978,218740.37500005215,218749.598,219116.491,,2,time
screen,html.Screen,1_1_1_1_3,2021-04-08T15:43:57.296Z,,,,,,,,,,,,,,,,54,,,,,,,,,,,,,,350.82900005430565,,response,,,,100,,,,,,,Space,keypress(Space),,,,,,,,-- --- ---- the ------ ----- ------- ---- -- --- ------- --<br>------- ---------- ------ -- ----- -- ----- -- ---- ------<br>--- ----- --- --- ------ -------- ----- --- ------ ----- --<br>----- ----- ---------- --- --- ------ ------ ---- -- ------<br>------- --- ------ ----- --- ---- ------- -- ---- --- --<br>------- ------,219467.99000003375,219467.32000005431,219099.885,219108.25999989174,219116.491,219483.391,,3,the
screen,html.Screen,1_1_1_1_4,2021-04-08T15:43:57.640Z,,,,,,,,,,,,,,,,54,,,,,,,,,,,,,,327.95400005282136,,response,,,,100,,,,,,,Space,keypress(Space),,,,,,,,-- --- ---- --- French ----- ------- ---- -- --- ------- --<br>------- ---------- ------ -- ----- -- ----- -- ---- ------<br>--- ----- --- --- ------ -------- ----- --- ------ ----- --<br>----- ----- ---------- --- --- ------ ------ ---- -- ------<br>------- --- ------ ----- --- ---- ------- -- ---- --- --<br>------- ------,219812.0099999942,219811.34500005282,219466.795,219468.18999992684,219483.391,219816.952,,4,French
screen,html.Screen,1_1_1_1_5,2021-04-08T15:43:57.984Z,,,,,,,,,,,,,,,,54,,,,,,,,,,,,,,338.27300011139596,,response,,,,100,,,,,,,Space,keypress(Space),,,,,,,,-- --- ---- --- ------ crown ------- ---- -- --- ------- --<br>------- ---------- ------ -- ----- -- ----- -- ---- ------<br>--- ----- --- --- ------ -------- ----- --- ------ ----- --<br>----- ----- ---------- --- --- ------ ------ ---- -- ------<br>------- --- ------ ----- --- ---- ------- -- ---- --- --<br>------- ------,220155.89000005275,220155.2250001114,219800.345,219812.2250000015,219816.952,220167.116,,5,crown
screen,html.Screen,1_1_1_1_6,2021-04-08T15:43:58.368Z,,,,,,,,,,,,,,,,54,,,,,,,,,,,,,,372.12400007099495,,response,,,,100,,,,,,,Space,keypress(Space),,,,,,,,-- --- ---- --- ------ ----- secured ---- -- --- ------- --<br>------- ---------- ------ -- ----- -- ----- -- ---- ------<br>--- ----- --- --- ------ -------- ----- --- ------ ----- --<br>----- ----- ---------- --- --- ------ ------ ---- -- ------<br>------- --- ------ ----- --- ---- ------- -- ---- --- --<br>------- ------,220539.97999988496,220539.240000071,220150.573,220156.08999994583,220167.116,220550.759,,6,secured
screen,html.Screen,1_1_1_1_7,2021-04-08T15:43:58.704Z,,,,,,,,,,,,,,,,54,,,,,,,,,,,,,,324.41599993556156,,response,,,,100,,,,,,,Space,keypress(Space),,,,,,,,-- --- ---- --- ------ ----- ------- much -- --- ------- --<br>------- ---------- ------ -- ----- -- ----- -- ---- ------<br>--- ----- --- --- ------ -------- ----- --- ------ ----- --<br>----- ----- ---------- --- --- ------ ------ ---- -- ------<br>------- --- ------ ----- --- ---- ------- -- ---- --- --<br>------- ------,220875.84000010975,220875.17499993555,220534.168,220540.19000008702,220550.759,220884.229,,7,much
screen,html.Screen,1_1_1_1_8,2021-04-08T15:43:59.048Z,,,,,,,,,,,,,,,,54,,,,,,,,,,,,,,334.9059999047895,,response,,,,100,,,,,,,Space,keypress(Space),,,,,,,,-- --- ---- --- ------ ----- ------- ---- of --- ------- --<br>------- ---------- ------ -- ----- -- ----- -- ---- ------<br>--- ----- --- --- ------ -------- ----- --- ------ ----- --<br>----- ----- ---------- --- --- ------ ------ ---- -- ------<br>------- --- ------ ----- --- ---- ------- -- ---- --- --<br>------- ------,221219.81999999844,221219.13499990478,220867.704,220876.0450000409,220884.229,221234.607,,8,of
screen,html.Screen,1_1_1_1_9,2021-04-08T15:43:59.360Z,,,,,,,,,,,,,,,,54,,,,,,,,,,,,,,296.4479999121686,,response,,,,100,,,,,,,Space,keypress(Space),,,,,,,,-- --- ---- --- ------ ----- ------- ---- -- its ------- --<br>------- ---------- ------ -- ----- -- ----- -- ---- ------<br>--- ----- --- --- ------ -------- ----- --- ------ ----- --<br>----- ----- ---------- --- --- ------ ------ ---- -- ------<br>------- --- ------ ----- --- ---- ------- -- ---- --- --<br>------- ------,221531.75999992527,221531.05499991216,221217.941,221220.01500008628,221234.607,221534.786,,9,its
screen,html.Screen,1_1_1_1_10,2021-04-08T15:43:59.880Z,,,,,,,,,,,,,,,,54,,,,,,,,,,,,,,516.2389999351872,,response,,,,100,,,,,,,Space,keypress(Space),,,,,,,,-- --- ---- --- ------ ----- ------- ---- -- --- revenue --<br>------- ---------- ------ -- ----- -- ----- -- ---- ------<br>--- ----- --- --- ------ -------- ----- --- ------ ----- --<br>----- ----- ---------- --- --- ------ ------ ---- -- ------<br>------- --- ------ ----- --- ---- ------- -- ---- --- --<br>------- ------,222051.6999999527,222051.02499993518,221518.134,221531.9550000131,221534.786,222068.501,,10,revenue
screen,html.Screen,1_1_1_1_11,2021-04-08T15:44:00.208Z,,,,,,,,,,,,,,,,54,,,,,,,,,,,,,,310.43899996596156,,response,,,,100,,,,,,,Space,keypress(Space),,,,,,,,-- --- ---- --- ------ ----- ------- ---- -- --- ------- by<br>------- ---------- ------ -- ----- -- ----- -- ---- ------<br>--- ----- --- --- ------ -------- ----- --- ------ ----- --<br>----- ----- ---------- --- --- ------ ------ ---- -- ------<br>------- --- ------ ----- --- ---- ------- -- ---- --- --<br>------- ------,222379.62000002153,222378.93999996595,222051.848,222051.9000000786,222068.501,222385.245,,11,by
screen,html.Screen,1_1_1_1_12,2021-04-08T15:44:00.584Z,,,,,,,,,,,,,,,,54,,,,,,,,,,,,,,369.6149999863701,,response,,,,100,,,,,,,Space,keypress(Space),,,,,,,,-- --- ---- --- ------ ----- ------- ---- -- --- ------- --<br>issuing ---------- ------ -- ----- -- ----- -- ---- ------<br>--- ----- --- --- ------ -------- ----- --- ------ ----- --<br>----- ----- ---------- --- --- ------ ------ ---- -- ------<br>------- --- ------ ----- --- ---- ------- -- ---- --- --<br>------- ------,222755.54999988526,222754.85999998637,222368.64,222379.81999991462,222385.245,222768.912,,12,issuing
screen,html.Screen,1_1_1_1_13,2021-04-08T15:44:00.952Z,,,,,,,,,,,,,,,,54,,,,,,,,,,,,,,353.9679999225773,,response,,,,100,,,,,,,Space,keypress(Space),,,,,,,,-- --- ---- --- ------ ----- ------- ---- -- --- ------- --<br>------- government ------ -- ----- -- ----- -- ---- ------<br>--- ----- --- --- ------ -------- ----- --- ------ ----- --<br>----- ----- ---------- --- --- ------ ------ ---- -- ------<br>------- --- ------ ----- --- ---- ------- -- ---- --- --<br>------- ------,223123.5849999357,223122.8799999226,222752.247,222755.75000001118,222768.912,223135.802,,13,government
screen,html.Screen,1_1_1_1_14,2021-04-08T15:44:01.328Z,,,,,,,,,,,,,,,,54,,,,,,,,,,,,,,362.96799994740286,,response,,,,100,,,,,,,Space,keypress(Space),,,,,,,,-- --- ---- --- ------ ----- ------- ---- -- --- ------- --<br>------- ---------- bonds. -- ----- -- ----- -- ---- ------<br>--- ----- --- --- ------ -------- ----- --- ------ ----- --<br>----- ----- ---------- --- --- ------ ------ ---- -- ------<br>------- --- ------ ----- --- ---- ------- -- ---- --- --<br>------- ------,223499.46000007913,223498.7699999474,223119.191,223123.78500006162,223135.802,223502.739,,14,bonds.
screen,html.Screen,1_1_1_1_15,2021-04-08T15:44:01.736Z,,,,,,,,,,,,,,,,54,,,,,,,,,,,,,,404.04599988280097,,response,,,,100,,,,,,,Space,keypress(Space),,,,,,,,-- --- ---- --- ------ ----- ------- ---- -- --- ------- --<br>------- ---------- ------ In ----- -- ----- -- ---- ------<br>--- ----- --- --- ------ -------- ----- --- ------ ----- --<br>----- ----- ---------- --- --- ------ ------ ---- -- ------<br>------- --- ------ ----- --- ---- ------- -- ---- --- --<br>------- ------,223907.45500009507,223906.7849998828,223486.038,223499.6599999722,223502.739,223919.658,,15,In
screen,html.Screen,1_1_1_1_16,2021-04-08T15:44:02.096Z,,,,,,,,,,,,,,,,54,,,,,,,,,,,,,,346.9220000540954,,response,,,,100,,,,,,,Space,keypress(Space),,,,,,,,"-- --- ---- --- ------ ----- ------- ---- -- --- ------- --<br>------- ---------- ------ -- 1727, -- ----- -- ---- ------<br>--- ----- --- --- ------ -------- ----- --- ------ ----- --<br>----- ----- ---------- --- --- ------ ------ ---- -- ------<br>------- --- ------ ----- --- ---- ------- -- ---- --- --<br>------- ------",224267.269999953,224266.5800000541,223903.045,223907.65499998815,223919.658,224269.916,,16,"1727,"
screen,html.Screen,1_1_1_1_17,2021-04-08T15:44:02.456Z,,,,,,,,,,,,,,,,54,,,,,,,,,,,,,,356.6389999661769,,response,,,,100,,,,,,,Space,keypress(Space),,,,,,,,-- --- ---- --- ------ ----- ------- ---- -- --- ------- --<br>------- ---------- ------ -- ----- in ----- -- ---- ------<br>--- ----- --- --- ------ -------- ----- --- ------ ----- --<br>----- ----- ---------- --- --- ------ ------ ---- -- ------<br>------- --- ------ ----- --- ---- ------- -- ---- --- --<br>------- ------,224627.2750000935,224626.55499996617,224253.267,224267.46500004083,224269.916,224636.795,,17,in
screen,html.Screen,1_1_1_1_18,2021-04-08T15:44:02.800Z,,,,,,,,,,,,,,,,54,,,,,,,,,,,,,,333.7400000876805,,response,,,,100,,,,,,,Space,keypress(Space),,,,,,,,-- --- ---- --- ------ ----- ------- ---- -- --- ------- --<br>------- ---------- ------ -- ----- -- order -- ---- ------<br>--- ----- --- --- ------ -------- ----- --- ------ ----- --<br>----- ----- ---------- --- --- ------ ------ ---- -- ------<br>------- --- ------ ----- --- ---- ------- -- ---- --- --<br>------- ------,224971.20500006713,224970.5350000877,224620.178,224627.52499990165,224636.795,224987.092,,18,order
screen,html.Screen,1_1_1_1_19,2021-04-08T15:44:03.160Z,,,,,,,,,,,,,,,,54,,,,,,,,,,,,,,343.33800008910475,,response,,,,100,,,,,,,Space,keypress(Space),,,,,,,,-- --- ---- --- ------ ----- ------- ---- -- --- ------- --<br>------- ---------- ------ -- ----- -- ----- to ---- ------<br>--- ----- --- --- ------ -------- ----- --- ------ ----- --<br>----- ----- ---------- --- --- ------ ------ ---- -- ------<br>------- --- ------ ----- --- ---- ------- -- ---- --- --<br>------- ------,225331.14499994554,225330.4300000891,224970.419,224971.39999992214,224987.092,225337.244,,19,to
screen,html.Screen,1_1_1_1_20,2021-04-08T15:44:03.504Z,,,,,,,,,,,,,,,,54,,,,,,,,,,,,,,337.37099990894785,,response,,,,100,,,,,,,Space,keypress(Space),,,,,,,,-- --- ---- --- ------ ----- ------- ---- -- --- ------- --<br>------- ---------- ------ -- ----- -- ----- -- save ------<br>--- ----- --- --- ------ -------- ----- --- ------ ----- --<br>----- ----- ---------- --- --- ------ ------ ---- -- ------<br>------- --- ------ ----- --- ---- ------- -- ---- --- --<br>------- ------,225675.4250000231,225674.61499990895,225320.651,225331.4300000202,225337.244,225687.495,,20,save
screen,html.Screen,1_1_1_1_21,2021-04-08T15:44:03.896Z,,,,,,,,,,,,,,,,54,,,,,,,,,,,,,,378.93499988981057,,response,,,,100,,,,,,,Space,keypress(Space),,,,,,,,"-- --- ---- --- ------ ----- ------- ---- -- --- ------- --<br>------- ---------- ------ -- ----- -- ----- -- ---- money,<br>--- ----- --- --- ------ -------- ----- --- ------ ----- --<br>----- ----- ---------- --- --- ------ ------ ---- -- ------<br>------- --- ------ ----- --- ---- ------- -- ---- --- --<br>------- ------",226067.16000009328,226066.4299998898,225670.859,225675.63499999233,225687.495,226071.092,,21,"money,"
screen,html.Screen,1_1_1_1_22,2021-04-08T15:44:04.272Z,,,,,,,,,,,,,,,,54,,,,,,,,,,,,,,371.30300002003787,,response,,,,100,,,,,,,Space,keypress(Space),,,,,,,,-- --- ---- --- ------ ----- ------- ---- -- --- ------- --<br>------- ---------- ------ -- ----- -- ----- -- ---- ------<br>the ----- --- --- ------ -------- ----- --- ------ ----- --<br>----- ----- ---------- --- --- ------ ------ ---- -- ------<br>------- --- ------ ----- --- ---- ------- -- ---- --- --<br>------- ------,226443.10500007123,226442.39500002004,226054.417,226067.35999998637,226071.092,226454.666,,22,the
screen,html.Screen,1_1_1_1_23,2021-04-08T15:44:04.624Z,,,,,,,,,,,,,,,,54,,,,,,,,,,,,,,339.64400002660113,,response,,,,100,,,,,,,Space,keypress(Space),,,,,,,,-- --- ---- --- ------ ----- ------- ---- -- --- ------- --<br>------- ---------- ------ -- ----- -- ----- -- ---- ------<br>--- state --- --- ------ -------- ----- --- ------ ----- --<br>----- ----- ---------- --- --- ------ ------ ---- -- ------<br>------- --- ------ ----- --- ---- ------- -- ---- --- --<br>------- ------,226795.03499995917,226794.3100000266,226438.013,226443.3049999643,226454.666,226804.881,,23,state
screen,html.Screen,1_1_1_1_24,2021-04-08T15:44:04.983Z,,,,,,,,,,,,,,,,54,,,,,,,,,,,,,,349.3640000997693,,response,,,,100,,,,,,,Space,keypress(Space),,,,,,,,-- --- ---- --- ------ ----- ------- ---- -- --- ------- --<br>------- ---------- ------ -- ----- -- ----- -- ---- ------<br>--- ----- cut --- ------ -------- ----- --- ------ ----- --<br>----- ----- ---------- --- --- ------ ------ ---- -- ------<br>------- --- ------ ----- --- ---- ------- -- ---- --- --<br>------- ------,227154.98499991372,227154.24500009976,226788.274,226795.23999989033,226804.881,227171.844,,24,cut
screen,html.Screen,1_1_1_1_25,2021-04-08T15:44:05.328Z,,,,,,,,,,,,,,,,54,,,,,,,,,,,,,,326.4909998947114,,response,,,,100,,,,,,,Space,keypress(Space),,,,,,,,-- --- ---- --- ------ ----- ------- ---- -- --- ------- --<br>------- ---------- ------ -- ----- -- ----- -- ---- ------<br>--- ----- --- the ------ -------- ----- --- ------ ----- --<br>----- ----- ---------- --- --- ------ ------ ---- -- ------<br>------- --- ------ ----- --- ---- ------- -- ---- --- --<br>------- ------,227499.14500000887,227498.33499989472,227155.181,227155.1900000777,227171.844,227505.335,,25,the
screen,html.Screen,1_1_1_1_26,2021-04-08T15:44:05.719Z,,,,,,,,,,,,,,,,54,,,,,,,,,,,,,,384.8750000996224,,response,,,,100,,,,,,,Space,keypress(Space),,,,,,,,-- --- ---- --- ------ ----- ------- ---- -- --- ------- --<br>------- ---------- ------ -- ----- -- ----- -- ---- ------<br>--- ----- --- --- bonds' -------- ----- --- ------ ----- --<br>----- ----- ---------- --- --- ------ ------ ---- -- ------<br>------- --- ------ ----- --- ---- ------- -- ---- --- --<br>------- ------,227890.94999991357,227890.2100000996,227488.677,227499.36000001617,227505.335,227905.678,,26,bonds'
screen,html.Screen,1_1_1_1_27,2021-04-08T15:44:06.111Z,,,,,,,,,,,,,,,,54,,,,,,,,,,,,,,376.36699999991106,,response,,,,100,,,,,,,Space,keypress(Space),,,,,,,,-- --- ---- --- ------ ----- ------- ---- -- --- ------- --<br>------- ---------- ------ -- ----- -- ----- -- ---- ------<br>--- ----- --- --- ------ interest ----- --- ------ ----- --<br>----- ----- ---------- --- --- ------ ------ ---- -- ------<br>------- --- ------ ----- --- ---- ------- -- ---- --- --<br>------- ------,228282.7999999281,228282.04499999993,227889.004,227891.14500000142,227905.678,228289.136,,27,interest
screen,html.Screen,1_1_1_1_28,2021-04-08T15:44:06.456Z,,,,,,,,,,,,,,,,54,,,,,,,,,,,,,,337.5989999398007,,response,,,,100,,,,,,,Space,keypress(Space),,,,,,,,-- --- ---- --- ------ ----- ------- ---- -- --- ------- --<br>------- ---------- ------ -- ----- -- ----- -- ---- ------<br>--- ----- --- --- ------ -------- rate. --- ------ ----- --<br>----- ----- ---------- --- --- ------ ------ ---- -- ------<br>------- --- ------ ----- --- ---- ------- -- ---- --- --<br>------- ------,228627.51000002027,228626.7349999398,228272.586,228283.0050000921,228289.136,228639.393,,28,rate.
screen,html.Screen,1_1_1_1_29,2021-04-08T15:44:06.783Z,,,,,,,,,,,,,,,,54,,,,,,,,,,,,,,314.63699990618625,,response,,,,100,,,,,,,Space,keypress(Space),,,,,,,,-- --- ---- --- ------ ----- ------- ---- -- --- ------- --<br>------- ---------- ------ -- ----- -- ----- -- ---- ------<br>--- ----- --- --- ------ -------- ----- The ------ ----- --<br>----- ----- ---------- --- --- ------ ------ ---- -- ------<br>------- --- ------ ----- --- ---- ------- -- ---- --- --<br>------- ------,228954.7999999486,228954.0299999062,228622.75,228627.72500002757,228639.393,228976.816,,29,The
screen,html.Screen,1_1_1_1_30,2021-04-08T15:44:07.143Z,,,,,,,,,,,,,,,,54,,,,,,,,,,,,,,337.12900005991105,,response,,,,100,,,,,,,Space,keypress(Space),,,,,,,,-- --- ---- --- ------ ----- ------- ---- -- --- ------- --<br>------- ---------- ------ -- ----- -- ----- -- ---- ------<br>--- ----- --- --- ------ -------- ----- --- market ----- --<br>----- ----- ---------- --- --- ------ ------ ---- -- ------<br>------- --- ------ ----- --- ---- ------- -- ---- --- --<br>------- ------,229314.7150001023,229313.9450000599,228939.679,228955.00500011258,228976.816,229323.212,,30,market
screen,html.Screen,1_1_1_1_31,2021-04-08T15:44:07.519Z,,,,,,,,,,,,,,,,54,,,,,,,,,,,,,,366.662999923632,,response,,,,100,,,,,,,Space,keypress(Space),,,,,,,,-- --- ---- --- ------ ----- ------- ---- -- --- ------- --<br>------- ---------- ------ -- ----- -- ----- -- ---- ------<br>--- ----- --- --- ------ -------- ----- --- ------ value --<br>----- ----- ---------- --- --- ------ ------ ---- -- ------<br>------- --- ------ ----- --- ---- ------- -- ---- --- --<br>------- ------,229690.6200000085,229689.87499992363,229306.592,229314.9399999529,229323.212,229706.861,,31,value
screen,html.Screen,1_1_1_1_32,2021-04-08T15:44:07.847Z,,,,,,,,,,,,,,,,54,,,,,,,,,,,,,,310.98399990753387,,response,,,,100,,,,,,,Space,keypress(Space),,,,,,,,-- --- ---- --- ------ ----- ------- ---- -- --- ------- --<br>------- ---------- ------ -- ----- -- ----- -- ---- ------<br>--- ----- --- --- ------ -------- ----- --- ------ ----- of<br>----- ----- ---------- --- --- ------ ------ ---- -- ------<br>------- --- ------ ----- --- ---- ------- -- ---- --- --<br>------- ------,230018.60500010662,230017.84499990754,229690.184,229690.8350000158,229706.861,230023.663,,32,of
screen,html.Screen,1_1_1_1_33,2021-04-08T15:44:08.175Z,,,,,,,,,,,,,,,,54,,,,,,,,,,,,,,322.0619999046321,,response,,,,100,,,,,,,Space,keypress(Space),,,,,,,,-- --- ---- --- ------ ----- ------- ---- -- --- ------- --<br>------- ---------- ------ -- ----- -- ----- -- ---- ------<br>--- ----- --- --- ------ -------- ----- --- ------ ----- --<br>these ----- ---------- --- --- ------ ------ ---- -- ------<br>------- --- ------ ----- --- ---- ------- -- ---- --- --<br>------- ------,230346.44500003196,230345.72499990463,230007.049,230018.79999996163,230023.663,230357.222,,33,these
screen,html.Screen,1_1_1_1_34,2021-04-08T15:44:08.551Z,,,,,,,,,,,,,,,,54,,,,,,,,,,,,,,364.53300006414065,,response,,,,100,,,,,,,Space,keypress(Space),,,,,,,,-- --- ---- --- ------ ----- ------- ---- -- --- ------- --<br>------- ---------- ------ -- ----- -- ----- -- ---- ------<br>--- ----- --- --- ------ -------- ----- --- ------ ----- --<br>----- bonds ---------- --- --- ------ ------ ---- -- ------<br>------- --- ------ ----- --- ---- ------- -- ---- --- --<br>------- ------,230722.58000005968,230721.75500006415,230340.605,230346.64499992505,230357.222,230744.178,,34,bonds
screen,html.Screen,1_1_1_1_35,2021-04-08T15:44:08.903Z,,,,,,,,,,,,,,,,54,,,,,,,,,,,,,,329.5369999476825,,response,,,,100,,,,,,,Space,keypress(Space),,,,,,,,"-- --- ---- --- ------ ----- ------- ---- -- --- ------- --<br>------- ---------- ------ -- ----- -- ----- -- ---- ------<br>--- ----- --- --- ------ -------- ----- --- ------ ----- --<br>----- ----- plummeted, --- --- ------ ------ ---- -- ------<br>------- --- ------ ----- --- ---- ------- -- ---- --- --<br>------- ------",231074.4849999901,231073.7149999477,230707.512,230722.79500006698,230744.178,231091.103,,35,"plummeted,"
screen,html.Screen,1_1_1_1_36,2021-04-08T15:44:09.239Z,,,,,,,,,,,,,,,,54,,,,,,,,,,,,,,318.5069999733241,,response,,,,100,,,,,,,Space,keypress(Space),,,,,,,,-- --- ---- --- ------ ----- ------- ---- -- --- ------- --<br>------- ---------- ------ -- ----- -- ----- -- ---- ------<br>--- ----- --- --- ------ -------- ----- --- ------ ----- --<br>----- ----- ---------- and --- ------ ------ ---- -- ------<br>------- --- ------ ----- --- ---- ------- -- ---- --- --<br>------- ------,231410.33999994397,231409.60999997333,231074.417,231074.69499995932,231091.103,231424.656,,36,and
screen,html.Screen,1_1_1_1_37,2021-04-08T15:44:09.599Z,,,,,,,,,,,,,,,,54,,,,,,,,,,,,,,344.81899997915025,,response,,,,100,,,,,,,Space,keypress(Space),,,,,,,,-- --- ---- --- ------ ----- ------- ---- -- --- ------- --<br>------- ---------- ------ -- ----- -- ----- -- ---- ------<br>--- ----- --- --- ------ -------- ----- --- ------ ----- --<br>----- ----- ---------- --- the ------ ------ ---- -- ------<br>------- --- ------ ----- --- ---- ------- -- ---- --- --<br>------- ------,231770.1099999249,231769.47499997914,231407.97,231410.57500010356,231424.656,231774.845,,37,the
screen,html.Screen,1_1_1_1_38,2021-04-08T15:44:09.927Z,,,,,,,,,,,,,,,,54,,,,,,,,,,,,,,322.59999996304396,,response,,,,100,,,,,,,Space,keypress(Space),,,,,,,,-- --- ---- --- ------ ----- ------- ---- -- --- ------- --<br>------- ---------- ------ -- ----- -- ----- -- ---- ------<br>--- ----- --- --- ------ -------- ----- --- ------ ----- --<br>----- ----- ---------- --- --- market ------ ---- -- ------<br>------- --- ------ ----- --- ---- ------- -- ---- --- --<br>------- ------,232098.0799999088,232097.44499996305,231758.203,231770.3100000508,231774.845,232108.368,,38,market
screen,html.Screen,1_1_1_1_39,2021-04-08T15:44:10.327Z,,,,,,,,,,,,,,,,54,,,,,,,,,,,,,,388.98699988311273,,response,,,,100,,,,,,,Space,keypress(Space),,,,,,,,-- --- ---- --- ------ ----- ------- ---- -- --- ------- --<br>------- ---------- ------ -- ----- -- ----- -- ---- ------<br>--- ----- --- --- ------ -------- ----- --- ------ ----- --<br>----- ----- ---------- --- --- ------ became ---- -- ------<br>------- --- ------ ----- --- ---- ------- -- ---- --- --<br>------- ------,232498.0299999006,232497.3549998831,232091.751,232098.2850000728,232108.368,232508.628,,39,became
screen,html.Screen,1_1_1_1_40,2021-04-08T15:44:10.694Z,,,,,,,,,,,,,,,,54,,,,,,,,,,,,,,356.6820000228763,,response,,,,100,,,,,,,Space,keypress(Space),,,,,,,,-- --- ---- --- ------ ----- ------- ---- -- --- ------- --<br>------- ---------- ------ -- ----- -- ----- -- ---- ------<br>--- ----- --- --- ------ -------- ----- --- ------ ----- --<br>----- ----- ---------- --- --- ------ ------ wary -- ------<br>------- --- ------ ----- --- ---- ------- -- ---- --- --<br>------- ------,232865.9500000067,232865.31000002287,232492.024,232498.23000002652,232508.628,232875.528,,40,wary
screen,html.Screen,1_1_1_1_41,2021-04-08T15:44:11.038Z,,,,,,,,,,,,,,,,54,,,,,,,,,,,,,,333.7319999159663,,response,,,,100,,,,,,,Space,keypress(Space),,,,,,,,-- --- ---- --- ------ ----- ------- ---- -- --- ------- --<br>------- ---------- ------ -- ----- -- ----- -- ---- ------<br>--- ----- --- --- ------ -------- ----- --- ------ ----- --<br>----- ----- ---------- --- --- ------ ------ ---- of ------<br>------- --- ------ ----- --- ---- ------- -- ---- --- --<br>------- ------,233209.93499993347,233209.25999991596,232858.926,232866.1499998998,232875.528,233225.84,,41,of
screen,html.Screen,1_1_1_1_42,2021-04-08T15:44:11.398Z,,,,,,,,,,,,,,,,54,,,,,,,,,,,,,,343.3499999510532,,response,,,,100,,,,,,,Space,keypress(Space),,,,,,,,-- --- ---- --- ------ ----- ------- ---- -- --- ------- --<br>------- ---------- ------ -- ----- -- ----- -- ---- ------<br>--- ----- --- --- ------ -------- ----- --- ------ ----- --<br>----- ----- ---------- --- --- ------ ------ ---- -- French<br>------- --- ------ ----- --- ---- ------- -- ---- --- --<br>------- ------,233569.86499996856,233569.18999995105,233209.113,233210.1300000213,233225.84,233575.936,,42,French
screen,html.Screen,1_1_1_1_43,2021-04-08T15:44:11.814Z,,,,,,,,,,,,,,,,54,,,,,,,,,,,,,,409.2140000804793,,response,,,,100,,,,,,,Space,keypress(Space),,,,,,,,-- --- ---- --- ------ ----- ------- ---- -- --- ------- --<br>------- ---------- ------ -- ----- -- ----- -- ---- ------<br>--- ----- --- --- ------ -------- ----- --- ------ ----- --<br>----- ----- ---------- --- --- ------ ------ ---- -- ------<br>credit. --- ------ ----- --- ---- ------- -- ---- --- --<br>------- ------,233985.82999990322,233985.15000008047,233559.385,233570.06500009447,233575.936,233992.869,,43,credit.
screen,html.Screen,1_1_1_1_44,2021-04-08T15:44:12.230Z,,,,,,,,,,,,,,,,54,,,,,,,,,,,,,,408.22100005758693,,response,,,,100,,,,,,,Space,keypress(Space),,,,,,,,-- --- ---- --- ------ ----- ------- ---- -- --- ------- --<br>------- ---------- ------ -- ----- -- ----- -- ---- ------<br>--- ----- --- --- ------ -------- ----- --- ------ ----- --<br>----- ----- ---------- --- --- ------ ------ ---- -- ------<br>------- The ------ ----- --- ---- ------- -- ---- --- --<br>------- ------,234401.79000003263,234401.0900000576,233976.336,233986.02499999106,233992.869,234409.811,,44,The
screen,html.Screen,1_1_1_1_45,2021-04-08T15:44:12.590Z,,,,,,,,,,,,,,,,54,,,,,,,,,,,,,,351.24399989354424,,response,,,,100,,,,,,,Space,keypress(Space),,,,,,,,-- --- ---- --- ------ ----- ------- ---- -- --- ------- --<br>------- ---------- ------ -- ----- -- ----- -- ---- ------<br>--- ----- --- --- ------ -------- ----- --- ------ ----- --<br>----- ----- ---------- --- --- ------ ------ ---- -- ------<br>------- --- French ----- --- ---- ------- -- ---- --- --<br>------- ------,234761.74500002526,234761.05499989353,234393.269,234401.9949999638,234409.811,234776.79,,45,French
screen,html.Screen,1_1_1_1_46,2021-04-08T15:44:12.934Z,,,,,,,,,,,,,,,,54,,,,,,,,,,,,,,328.13999991401215,,response,,,,100,,,,,,,Space,keypress(Space),,,,,,,,-- --- ---- --- ------ ----- ------- ---- -- --- ------- --<br>------- ---------- ------ -- ----- -- ----- -- ---- ------<br>--- ----- --- --- ------ -------- ----- --- ------ ----- --<br>----- ----- ---------- --- --- ------ ------ ---- -- ------<br>------- --- ------ state --- ---- ------- -- ---- --- --<br>------- ------,235105.62000004575,235104.92999991402,234760.176,234761.9499999564,234776.79,235110.377,,46,state
screen,html.Screen,1_1_1_1_47,2021-04-08T15:44:13.270Z,,,,,,,,,,,,,,,,54,,,,,,,,,,,,,,330.5629998839868,,response,,,,100,,,,,,,Space,keypress(Space),,,,,,,,-- --- ---- --- ------ ----- ------- ---- -- --- ------- --<br>------- ---------- ------ -- ----- -- ----- -- ---- ------<br>--- ----- --- --- ------ -------- ----- --- ------ ----- --<br>----- ----- ---------- --- --- ------ ------ ---- -- ------<br>------- --- ------ ----- was ---- ------- -- ---- --- --<br>------- ------,235441.63000001572,235440.939999884,235093.721,235105.8249999769,235110.377,235443.914,,47,was
screen,html.Screen,1_1_1_1_48,2021-04-08T15:44:13.646Z,,,,,,,,,,,,,,,,54,,,,,,,,,,,,,,372.9010000274284,,response,,,,100,,,,,,,Space,keypress(Space),,,,,,,,-- --- ---- --- ------ ----- ------- ---- -- --- ------- --<br>------- ---------- ------ -- ----- -- ----- -- ---- ------<br>--- ----- --- --- ------ -------- ----- --- ------ ----- --<br>----- ----- ---------- --- --- ------ ------ ---- -- ------<br>------- --- ------ ----- --- left ------- -- ---- --- --<br>------- ------,235817.52000004053,235816.81500002742,235427.269,235441.83499994688,235443.914,235827.473,,48,left
screen,html.Screen,1_1_1_1_49,2021-04-08T15:44:13.982Z,,,,,,,,,,,,,,,,54,,,,,,,,,,,,,,325.33200007793494,,response,,,,100,,,,,,,Space,keypress(Space),,,,,,,,-- --- ---- --- ------ ----- ------- ---- -- --- ------- --<br>------- ---------- ------ -- ----- -- ----- -- ---- ------<br>--- ----- --- --- ------ -------- ----- --- ------ ----- --<br>----- ----- ---------- --- --- ------ ------ ---- -- ------<br>------- --- ------ ----- --- ---- without -- ---- --- --<br>------- ------,236153.48499990068,236152.80500007793,235810.868,235817.71499989554,235827.473,236160.922,,49,without
screen,html.Screen,1_1_1_1_50,2021-04-08T15:44:14.310Z,,,,,,,,,,,,,,,,54,,,,,,,,,,,,,,319.83799994763103,,response,,,,100,,,,,,,Space,keypress(Space),,,,,,,,-- --- ---- --- ------ ----- ------- ---- -- --- ------- --<br>------- ---------- ------ -- ----- -- ----- -- ---- ------<br>--- ----- --- --- ------ -------- ----- --- ------ ----- --<br>----- ----- ---------- --- --- ------ ------ ---- -- ------<br>------- --- ------ ----- --- ---- ------- an ---- --- --<br>------- ------,236481.43499996513,236480.75999994762,236144.421,236153.6850000266,236160.922,236494.582,,50,an
screen,html.Screen,1_1_1_1_51,2021-04-08T15:44:14.630Z,,,,,,,,,,,,,,,,54,,,,,,,,,,,,,,306.0779999498627,,response,,,,100,,,,,,,Space,keypress(Space),,,,,,,,-- --- ---- --- ------ ----- ------- ---- -- --- ------- --<br>------- ---------- ------ -- ----- -- ----- -- ---- ------<br>--- ----- --- --- ------ -------- ----- --- ------ ----- --<br>----- ----- ---------- --- --- ------ ------ ---- -- ------<br>------- --- ------ ----- --- ---- ------- -- easy --- --<br>------- ------,236801.38499988243,236800.65999994986,236477.963,236481.63500009105,236494.582,236811.456,,51,easy
screen,html.Screen,1_1_1_1_52,2021-04-08T15:44:14.958Z,,,,,,,,,,,,,,,,54,,,,,,,,,,,,,,317.31400006846525,,response,,,,100,,,,,,,Space,keypress(Space),,,,,,,,-- --- ---- --- ------ ----- ------- ---- -- --- ------- --<br>------- ---------- ------ -- ----- -- ----- -- ---- ------<br>--- ----- --- --- ------ -------- ----- --- ------ ----- --<br>----- ----- ---------- --- --- ------ ------ ---- -- ------<br>------- --- ------ ----- --- ---- ------- -- ---- way --<br>------- ------,237129.4400000479,237128.77000006847,236794.831,236801.58500000834,236811.456,237145.064,,52,way
screen,html.Screen,1_1_1_1_53,2021-04-08T15:44:15.254Z,,,,,,,,,,,,,,,,54,,,,,,,,,,,,,,279.5110000700224,,response,,,,100,,,,,,,Space,keypress(Space),,,,,,,,-- --- ---- --- ------ ----- ------- ---- -- --- ------- --<br>------- ---------- ------ -- ----- -- ----- -- ---- ------<br>--- ----- --- --- ------ -------- ----- --- ------ ----- --<br>----- ----- ---------- --- --- ------ ------ ---- -- ------<br>------- --- ------ ----- --- ---- ------- -- ---- --- of<br>------- ------,237425.270000007,237424.57500007004,237128.389,237129.639999941,237145.064,237428.558,,53,of
screen,html.Screen,1_1_1_1_54,2021-04-08T15:44:15.614Z,,,,,,,,,,,,,,,,54,,,,,,,,,,,,,,356.08700000701356,,response,,,,100,,,,,,,Space,keypress(Space),,,,,,,,-- --- ---- --- ------ ----- ------- ---- -- --- ------- --<br>------- ---------- ------ -- ----- -- ----- -- ---- ------<br>--- ----- --- --- ------ -------- ----- --- ------ ----- --<br>----- ----- ---------- --- --- ------ ------ ---- -- ------<br>------- --- ------ ----- --- ---- ------- -- ---- --- --<br>raising ------,237785.27000010945,237784.645000007,237411.908,237425.4699999001,237428.558,237795.342,,54,raising
screen,html.Screen,1_1_1_1_55,2021-04-08T15:44:16.238Z,,,,,,,,,,,,,,,,54,,,,,,,,,,,,,,613.002999887045,,response,,,,100,,,,,,,Space,keypress(Space),,,,,,,,-- --- ---- --- ------ ----- ------- ---- -- --- ------- --<br>------- ---------- ------ -- ----- -- ----- -- ---- ------<br>--- ----- --- --- ------ -------- ----- --- ------ ----- --<br>----- ----- ---------- --- --- ------ ------ ---- -- ------<br>------- --- ------ ----- --- ---- ------- -- ---- --- --<br>------- money.,238409.05499993823,238408.34499988705,237778.823,237785.47000000253,237795.342,238412.534,,55,money.
Item 100,flow.Loop,1_1_1_1,2021-04-08T15:44:16.238Z,,,,,,,,,,,,,,,,,,,,,,,,,,,,,,20509.25799988705,,completion,,,,,C,,,,,,,,,,,silence,,,,,238409.44999991916,238408.34499988705,217882.376,217886.66000007652,217899.087,238412.534,,,
Question 1,html.Screen,1_1_1_2,2021-04-08T15:44:18.527Z,,,,,,,,,,,,,,,,,,,,,,,,,,,true,TRUE,,2284.4160000122793,,response,,,,100,C,,,,,,TRUE,click #choice-1,,,,silence,,,,,240698.26500001363,240696.9500000123,238395.932,238409.6150000114,238412.534,240714.064,,,
Question 2,html.Screen,1_1_1_3,2021-04-08T15:44:19.430Z,,,,,,,,,,,,,,,,,,,,,,,,,,,true,FALSE,,886.7159999788273,,response,,,,100,C,,,,,,FALSE,click #choice-2,,,,silence,,,,,241601.69499996118,241600.77999997884,240697.377,240698.49499990232,240714.064,241614.657,,,
Item 100,flow.Sequence,1_1_1,2021-04-08T15:44:19.431Z,,,,,,,,,,,,,,,,,,,,,,,,,,,,,,33708.27899997885,,completion,,,,,,,,,,,,,,,,,,,,,241602.0150000695,241600.77999997884,207875.825,207879.3299999088,207892.501,241614.657,,,
End of Practice,html.Page,1_1_2,2021-04-08T15:44:21.024Z,,,,,,,,,,,,,,,,,,,,,,,,,,,,,,1579.9730000417912,,form submission,,,,,,,,,,,,,,,,,,,,,243195.21000003442,243194.6300000418,241597.97,241602.17499989085,241614.657,243199.014,,,
Practice,flow.Sequence,1_1,2021-04-08T15:44:21.024Z,,,,,,,,,,,,,,,,,,,,,,,,,,,,,,74244.3850000418,,completion,,,,,,,,,,,,,,,,,,,,,243195.53999998607,243194.6300000418,168933.561,168941.91999989562,168950.245,243199.014,,,
Trap_instruction,html.Page,1_2_0,2021-04-08T15:44:22.983Z,,,,,,,,,,,,,,,,,,,,,,,,,,,,,,1955.145999918197,,form submission,,,,,,,,,,,,,,,,,,,,,245154.69500003383,245154.1599999182,243182.33,243195.74499991722,243199.014,245183.653,,,
trap_trial,html.Screen,1_2_1,2021-04-08T15:44:34.244Z,,,,,,,,,,,,,,,,,,,,,,,,,,,true,1,,11230.8970001032,,response,,,,,,,,,,,1,click #choice-1,,,,,,,,,256415.61500006355,256414.5500001032,245150.31,245154.8850000836,245183.653,256424.372,,,
end of trap trial,html.Page,1_2_2,2021-04-08T15:44:35.797Z,,,,,,,,,,,,,,,,,,,,,,,,,,,,,,1543.9580000615388,,form submission,,,,,,,,,,,,,,,,,,,,,257968.83499994874,257968.33000006154,256407.692,256415.83500010893,256424.372,257975.226,,,
Trap 1,flow.Sequence,1_2,2021-04-08T15:44:35.798Z,,,,,,,,,,,,,,,,,,,,,,,,,,,,,,14769.316000061546,,completion,,,,,,,,,,,,,,,,,,,,,257969.13999994285,257968.33000006154,243182.33,243195.68499992602,243199.014,257975.226,,,
Standby,html.Page,1_3_0,2021-04-08T15:44:43.793Z,,,,,,,,,,,,,,,,,,,,,,,,,,,,,,8005.382000000012,,timeout,,,,,,,,,,,,,,,,,,,,,265964.68500001356,265963.958,257958.701,257969.34500010684,257975.226,265980.608,,,
Holding screen,html.Screen,1_3_1_0_0,2021-04-08T15:44:50.798Z,,,,,,,,,,,,,,,,,,,,,,,,,,,,,,7004.621999999974,,timeout,,,,,,,,,,,,,,,,,,,,,272969.19999993406,272968.563,265963.958,265965.06499988027,265980.608,272985.23,,,
screen,html.Screen,1_3_1_0_1_0,2021-04-08T15:44:51.441Z,,,,,,,,,,,,,,,,48,,,,,,,,,,,,,,626.5650000334717,,response,,,,10,C,,,,,,Space,keypress(Space),,,,instrumental,,,,As -- --- ------ ------- --------- ----------- --------<br>--------- -------- --- ------- -- ------- ---- -- ------<br>-- --- -------- -------- ---------- ---- ---- ---- ------<br>-- --------- -- ---- -- --- -- --- ------- -- - -----<br>---------- -- -- -- ---- ----- -- ------ -- --- ------<br>-------,273612.5900000334,273611.79500003345,272968.563,272969.4900000468,272985.23,273618.847,,0,As
screen,html.Screen,1_3_1_0_1_1,2021-04-08T15:44:51.824Z,,,,,,,,,,,,,,,,48,,,,,,,,,,,,,,376.13299995946,,response,,,,10,C,,,,,,Space,keypress(Space),,,,instrumental,,,,-- in --- ------ ------- --------- ----------- --------<br>--------- -------- --- ------- -- ------- ---- -- ------<br>-- --- -------- -------- ---------- ---- ---- ---- ------<br>-- --------- -- ---- -- --- -- --- ------- -- - -----<br>---------- -- -- -- ---- ----- -- ------ -- --- ------<br>-------,273995.73499988765,273994.97999995947,273602.391,273612.81000007875,273618.847,274002.417,,1,in
screen,html.Screen,1_3_1_0_1_2,2021-04-08T15:44:52.224Z,,,,,,,,,,,,,,,,48,,,,,,,,,,,,,,392.5679999043932,,response,,,,10,C,,,,,,Space,keypress(Space),,,,instrumental,,,,-- -- the ------ ------- --------- ----------- --------<br>--------- -------- --- ------- -- ------- ---- -- ------<br>-- --- -------- -------- ---------- ---- ---- ---- ------<br>-- --------- -- ---- -- --- -- --- ------- -- - -----<br>---------- -- -- -- ---- ----- -- ------ -- --- ------<br>-------,274395.69999999367,274394.9849999044,273985.94,273995.91999989934,274002.417,274402.718,,2,the
screen,html.Screen,1_3_1_0_1_3,2021-04-08T15:44:52.600Z,,,,,,,,,,,,,,,,48,,,,,,,,,,,,,,368.1470000859117,,response,,,,10,C,,,,,,Space,keypress(Space),,,,instrumental,,,,-- -- --- United ------- --------- ----------- --------<br>--------- -------- --- ------- -- ------- ---- -- ------<br>-- --- -------- -------- ---------- ---- ---- ---- ------<br>-- --------- -- ---- -- --- -- --- ------- -- - -----<br>---------- -- -- -- ---- ----- -- ------ -- --- ------<br>-------,274771.50500006974,274770.8650000859,274386.206,274395.89000004344,274402.718,274786.48,,3,United
screen,html.Screen,1_3_1_0_1_4,2021-04-08T15:44:53.008Z,,,,,,,,,,,,,,,,48,,,,,,,,,,,,,,392.32499991590157,,response,,,,10,C,,,,,,Space,keypress(Space),,,,instrumental,,,,"-- -- --- ------ States, --------- ----------- --------<br>--------- -------- --- ------- -- ------- ---- -- ------<br>-- --- -------- -------- ---------- ---- ---- ---- ------<br>-- --------- -- ---- -- --- -- --- ------- -- - -----<br>---------- -- -- -- ---- ----- -- ------ -- --- ------<br>-------",275179.5049998909,275178.8049999159,274769.789,274771.7049999628,274786.48,275186.533,,4,"States,"
screen,html.Screen,1_3_1_0_1_5,2021-04-08T15:44:53.440Z,,,,,,,,,,,,,,,,48,,,,,,,,,,,,,,424.2220000306261,,response,,,,10,C,,,,,,Space,keypress(Space),,,,instrumental,,,,-- -- --- ------ ------- Colombian ----------- --------<br>--------- -------- --- ------- -- ------- ---- -- ------<br>-- --- -------- -------- ---------- ---- ---- ---- ------<br>-- --------- -- ---- -- --- -- --- ------- -- - -----<br>---------- -- -- -- ---- ----- -- ------ -- --- ------<br>-------,275611.39500001445,275610.7550000306,275170.053,275179.6949999407,275186.533,275620.265,,5,Colombian
screen,html.Screen,1_3_1_0_1_6,2021-04-08T15:44:53.864Z,,,,,,,,,,,,,,,,48,,,,,,,,,,,,,,414.55499994254205,,response,,,,10,C,,,,,,Space,keypress(Space),,,,instrumental,,,,-- -- --- ------ ------- --------- legislation --------<br>--------- -------- --- ------- -- ------- ---- -- ------<br>-- --- -------- -------- ---------- ---- ---- ---- ------<br>-- --------- -- ---- -- --- -- --- ------- -- - -----<br>---------- -- -- -- ---- ----- -- ------ -- --- ------<br>-------,276035.43499996886,276034.81999994256,275603.678,275611.5900001023,275620.265,276037.206,,6,legislation
screen,html.Screen,1_3_1_0_1_7,2021-04-08T15:44:54.304Z,,,,,,,,,,,,,,,,48,,,,,,,,,,,,,,437.36400007852353,,response,,,,10,C,,,,,,Space,keypress(Space),,,,instrumental,,,,-- -- --- ------ ------- --------- ----------- requires<br>--------- -------- --- ------- -- ------- ---- -- ------<br>-- --- -------- -------- ---------- ---- ---- ---- ------<br>-- --------- -- ---- -- --- -- --- ------- -- - -----<br>---------- -- -- -- ---- ----- -- ------ -- --- ------<br>-------,276475.2350000199,276474.57000007853,276020.411,276035.6250000186,276037.206,276487.54,,7,requires
screen,html.Screen,1_3_1_0_1_8,2021-04-08T15:44:54.720Z,,,,,,,,,,,,,,,,48,,,,,,,,,,,,,,402.989999975136,,response,,,,10,C,,,,,,Space,keypress(Space),,,,instrumental,,,,-- -- --- ------ ------- --------- ----------- --------<br>travelers -------- --- ------- -- ------- ---- -- ------<br>-- --- -------- -------- ---------- ---- ---- ---- ------<br>-- --------- -- ---- -- --- -- --- ------- -- - -----<br>---------- -- -- -- ---- ----- -- ------ -- --- ------<br>-------,276891.19000011124,276890.5299999751,276470.872,276475.4200000316,276487.54,276904.421,,8,travelers
screen,html.Screen,1_3_1_0_1_9,2021-04-08T15:44:55.080Z,,,,,,,,,,,,,,,,48,,,,,,,,,,,,,,346.02899993408937,,response,,,,10,C,,,,,,Space,keypress(Space),,,,instrumental,,,,-- -- --- ------ ------- --------- ----------- --------<br>--------- entering --- ------- -- ------- ---- -- ------<br>-- --- -------- -------- ---------- ---- ---- ---- ------<br>-- --------- -- ---- -- --- -- --- ------- -- - -----<br>---------- -- -- -- ---- ----- -- ------ -- --- ------<br>-------,277251.11500010826,277250.44999993406,276887.856,276891.38499996625,276904.421,277254.715,,9,entering
screen,html.Screen,1_3_1_0_1_10,2021-04-08T15:44:55.488Z,,,,,,,,,,,,,,,,48,,,,,,,,,,,,,,403.61500000563683,,response,,,,10,C,,,,,,Space,keypress(Space),,,,instrumental,,,,-- -- --- ------ ------- --------- ----------- --------<br>--------- -------- the ------- -- ------- ---- -- ------<br>-- --- -------- -------- ---------- ---- ---- ---- ------<br>-- --------- -- ---- -- --- -- --- ------- -- - -----<br>---------- -- -- -- ---- ----- -- ------ -- --- ------<br>-------,277659.0150000993,277658.33000000566,277238.092,277251.30999996327,277254.715,277671.576,,10,the
screen,html.Screen,1_3_1_0_1_11,2021-04-08T15:44:55.887Z,,,,,,,,,,,,,,,,48,,,,,,,,,,,,,,386.68899988324847,,response,,,,10,C,,,,,,Space,keypress(Space),,,,instrumental,,,,-- -- --- ------ ------- --------- ----------- --------<br>--------- -------- --- country -- ------- ---- -- ------<br>-- --- -------- -------- ---------- ---- ---- ---- ------<br>-- --------- -- ---- -- --- -- --- ------- -- - -----<br>---------- -- -- -- ---- ----- -- ------ -- --- ------<br>-------,278058.9499999769,278058.26499988325,277655.032,277659.20499991626,277671.576,278071.798,,11,country
screen,html.Screen,1_3_1_0_1_12,2021-04-08T15:44:56.271Z,,,,,,,,,,,,,,,,48,,,,,,,,,,,,,,370.46199992339825,,response,,,,10,C,,,,,,Space,keypress(Space),,,,instrumental,,,,-- -- --- ------ ------- --------- ----------- --------<br>--------- -------- --- ------- to ------- ---- -- ------<br>-- --- -------- -------- ---------- ---- ---- ---- ------<br>-- --------- -- ---- -- --- -- --- ------- -- - -----<br>---------- -- -- -- ---- ----- -- ------ -- --- ------<br>-------,278442.92999990284,278442.2599999234,278055.291,278059.14500006475,278071.798,278455.538,,12,to
screen,html.Screen,1_3_1_0_1_13,2021-04-08T15:44:56.743Z,,,,,,,,,,,,,,,,48,,,,,,,,,,,,,,458.6370000417228,,response,,,,10,C,,,,,,Space,keypress(Space),,,,instrumental,,,,-- -- --- ------ ------- --------- ----------- --------<br>--------- -------- --- ------- -- declare ---- -- ------<br>-- --- -------- -------- ---------- ---- ---- ---- ------<br>-- --------- -- ---- -- --- -- --- ------- -- - -----<br>---------- -- -- -- ---- ----- -- ------ -- --- ------<br>-------,278914.8399999831,278914.1750000417,278438.868,278443.13000002876,278455.538,278922.382,,13,declare
screen,html.Screen,1_3_1_0_1_14,2021-04-08T15:44:57.239Z,,,,,,,,,,,,,,,,48,,,,,,,,,,,,,,487.73300009337254,,response,,,,10,C,,,,,,Space,keypress(Space),,,,instrumental,,,,-- -- --- ------ ------- --------- ----------- --------<br>--------- -------- --- ------- -- ------- cash -- ------<br>-- --- -------- -------- ---------- ---- ---- ---- ------<br>-- --------- -- ---- -- --- -- --- ------- -- - -----<br>---------- -- -- -- ---- ----- -- ------ -- --- ------<br>-------,279410.7649999205,279410.11500009336,278905.852,278915.040000109,278922.382,279422.782,,14,cash
screen,html.Screen,1_3_1_0_1_15,2021-04-08T15:44:57.679Z,,,,,,,,,,,,,,,,48,,,,,,,,,,,,,,427.28799992764834,,response,,,,10,C,,,,,,Space,keypress(Space),,,,instrumental,,,,-- -- --- ------ ------- --------- ----------- --------<br>--------- -------- --- ------- -- ------- ---- in ------<br>-- --- -------- -------- ---------- ---- ---- ---- ------<br>-- --------- -- ---- -- --- -- --- ------- -- - -----<br>---------- -- -- -- ---- ----- -- ------ -- --- ------<br>-------,279850.76500009745,279850.06999992765,279406.189,279410.96000000834,279422.782,279856.327,,15,in
screen,html.Screen,1_3_1_0_1_16,2021-04-08T15:44:58.135Z,,,,,,,,,,,,,,,,48,,,,,,,,,,,,,,449.7779999669292,,response,,,,10,C,,,,,,Space,keypress(Space),,,,instrumental,,,,-- -- --- ------ ------- --------- ----------- --------<br>--------- -------- --- ------- -- ------- ---- -- excess<br>-- --- -------- -------- ---------- ---- ---- ---- ------<br>-- --------- -- ---- -- --- -- --- ------- -- - -----<br>---------- -- -- -- ---- ----- -- ------ -- --- ------<br>-------,280306.9499998819,280306.1049999669,279839.798,279850.96499999054,279856.327,280323.428,,16,excess
screen,html.Screen,1_3_1_0_1_17,2021-04-08T15:44:58.551Z,,,,,,,,,,,,,,,,48,,,,,,,,,,,,,,398.48699988547014,,response,,,,10,C,,,,,,Space,keypress(Space),,,,instrumental,,,,-- -- --- ------ ------- --------- ----------- --------<br>--------- -------- --- ------- -- ------- ---- -- ------<br>of --- -------- -------- ---------- ---- ---- ---- ------<br>-- --------- -- ---- -- --- -- --- ------- -- - -----<br>---------- -- -- -- ---- ----- -- ------ -- --- ------<br>-------,280722.6499998942,280721.9149998855,280306.772,280307.1550000459,280323.428,280740.335,,17,of
screen,html.Screen,1_3_1_0_1_18,2021-04-08T15:44:58.935Z,,,,,,,,,,,,,,,,48,,,,,,,,,,,,,,365.6649999124347,,response,,,,10,C,,,,,,Space,keypress(Space),,,,instrumental,,,,-- -- --- ------ ------- --------- ----------- --------<br>--------- -------- --- ------- -- ------- ---- -- ------<br>-- ten -------- -------- ---------- ---- ---- ---- ------<br>-- --------- -- ---- -- --- -- --- ------- -- - -----<br>---------- -- -- -- ---- ----- -- ------ -- --- ------<br>-------,281106.76999995485,281105.99999991246,280707.026,280722.84499998204,280740.335,281123.909,,18,ten
screen,html.Screen,1_3_1_0_1_19,2021-04-08T15:44:59.399Z,,,,,,,,,,,,,,,,48,,,,,,,,,,,,,,445.9459998924285,,response,,,,10,C,,,,,,Space,keypress(Space),,,,instrumental,,,,-- -- --- ------ ------- --------- ----------- --------<br>--------- -------- --- ------- -- ------- ---- -- ------<br>-- --- thousand -------- ---------- ---- ---- ---- ------<br>-- --------- -- ---- -- --- -- --- ------- -- - -----<br>---------- -- -- -- ---- ----- -- ------ -- --- ------<br>-------,281570.58999990113,281569.8549998924,281107.289,281106.97000008076,281123.909,281574.215,,19,thousand
screen,html.Screen,1_3_1_0_1_20,2021-04-08T15:44:59.807Z,,,,,,,,,,,,,,,,48,,,,,,,,,,,,,,403.5700001118821,,response,,,,10,C,,,,,,Space,keypress(Space),,,,instrumental,,,,-- -- --- ------ ------- --------- ----------- --------<br>--------- -------- --- ------- -- ------- ---- -- ------<br>-- --- -------- dollars. ---------- ---- ---- ---- ------<br>-- --------- -- ---- -- --- -- --- ------- -- - -----<br>---------- -- -- -- ---- ----- -- ------ -- --- ------<br>-------,281978.535000002,281977.7850001119,281557.591,281570.79000002705,281574.215,281991.14,,20,dollars.
screen,html.Screen,1_3_1_0_1_21,2021-04-08T15:45:00.303Z,,,,,,,,,,,,,,,,48,,,,,,,,,,,,,,482.6050000829855,,response,,,,10,C,,,,,,Space,keypress(Space),,,,instrumental,,,,-- -- --- ------ ------- --------- ----------- --------<br>--------- -------- --- ------- -- ------- ---- -- ------<br>-- --- -------- -------- Concealing ---- ---- ---- ------<br>-- --------- -- ---- -- --- -- --- ------- -- - -----<br>---------- -- -- -- ---- ----- -- ------ -- --- ------<br>-------,282474.5400000829,282473.745000083,281974.533,281978.73999993317,281991.14,282491.532,,21,Concealing
screen,html.Screen,1_3_1_0_1_22,2021-04-08T15:45:00.728Z,,,,,,,,,,,,,,,,48,,,,,,,,,,,,,,406.51799995976035,,response,,,,10,C,,,,,,Space,keypress(Space),,,,instrumental,,,,-- -- --- ------ ------- --------- ----------- --------<br>--------- -------- --- ------- -- ------- ---- -- ------<br>-- --- -------- -------- ---------- more ---- ---- ------<br>-- --------- -- ---- -- --- -- --- ------- -- - -----<br>---------- -- -- -- ---- ----- -- ------ -- --- ------<br>-------,282898.8399999216,282898.04999995977,282474.868,282474.739999976,282491.532,282908.428,,22,more
screen,html.Screen,1_3_1_0_1_23,2021-04-08T15:45:01.151Z,,,,,,,,,,,,,,,,48,,,,,,,,,,,,,,413.132000069425,,response,,,,10,C,,,,,,Space,keypress(Space),,,,instrumental,,,,-- -- --- ------ ------- --------- ----------- --------<br>--------- -------- --- ------- -- ------- ---- -- ------<br>-- --- -------- -------- ---------- ---- than ---- ------<br>-- --------- -- ---- -- --- -- --- ------- -- - -----<br>---------- -- -- -- ---- ----- -- ------ -- --- ------<br>-------,283322.32500007376,283321.56000006944,282891.85,282899.0450000856,282908.428,283325.371,,23,than
screen,html.Screen,1_3_1_0_1_24,2021-04-08T15:45:01.640Z,,,,,,,,,,,,,,,,48,,,,,,,,,,,,,,484.89900001633214,,response,,,,10,C,,,,,,Space,keypress(Space),,,,instrumental,,,,-- -- --- ------ ------- --------- ----------- --------<br>--------- -------- --- ------- -- ------- ---- -- ------<br>-- --- -------- -------- ---------- ---- ---- that ------<br>-- --------- -- ---- -- --- -- --- ------- -- - -----<br>---------- -- -- -- ---- ----- -- ------ -- --- ------<br>-------,283810.95500010997,283810.2700000163,283308.739,283322.5199999288,283325.371,283825.728,,24,that
screen,html.Screen,1_3_1_0_1_25,2021-04-08T15:45:02.119Z,,,,,,,,,,,,,,,,48,,,,,,,,,,,,,,463.9020000138553,,response,,,,10,C,,,,,,Space,keypress(Space),,,,instrumental,,,,-- -- --- ------ ------- --------- ----------- --------<br>--------- -------- --- ------- -- ------- ---- -- ------<br>-- --- -------- -------- ---------- ---- ---- ---- amount<br>-- --------- -- ---- -- --- -- --- ------- -- - -----<br>---------- -- -- -- ---- ----- -- ------ -- --- ------<br>-------,284290.4050000943,284289.63000001386,283809.081,283811.149999965,283825.728,284292.67,,25,amount
screen,html.Screen,1_3_1_0_1_26,2021-04-08T15:45:02.559Z,,,,,,,,,,,,,,,,48,,,,,,,,,,,,,,436.654999963881,,response,,,,10,C,,,,,,Space,keypress(Space),,,,instrumental,,,,-- -- --- ------ ------- --------- ----------- --------<br>--------- -------- --- ------- -- ------- ---- -- ------<br>-- --- -------- -------- ---------- ---- ---- ---- ------<br>to --------- -- ---- -- --- -- --- ------- -- - -----<br>---------- -- -- -- ---- ----- -- ------ -- --- ------<br>-------,284730.1700001117,284729.32499996386,284276.047,284290.61500006355,284292.67,284742.97,,26,to
screen,html.Screen,1_3_1_0_1_27,2021-04-08T15:45:03.031Z,,,,,,,,,,,,,,,,48,,,,,,,,,,,,,,458.42000006022863,,response,,,,10,C,,,,,,Space,keypress(Space),,,,instrumental,,,,-- -- --- ------ ------- --------- ----------- --------<br>--------- -------- --- ------- -- ------- ---- -- ------<br>-- --- -------- -------- ---------- ---- ---- ---- ------<br>-- transport -- ---- -- --- -- --- ------- -- - -----<br>---------- -- -- -- ---- ----- -- ------ -- --- ------<br>-------,285202.1999999415,285201.3900000602,284726.336,284730.40500003844,284742.97,285209.877,,27,transport
screen,html.Screen,1_3_1_0_1_28,2021-04-08T15:45:03.543Z,,,,,,,,,,,,,,,,48,,,,,,,,,,,,,,503.3830001059687,,response,,,,10,C,,,,,,Space,keypress(Space),,,,instrumental,,,,-- -- --- ------ ------- --------- ----------- --------<br>--------- -------- --- ------- -- ------- ---- -- ------<br>-- --- -------- -------- ---------- ---- ---- ---- ------<br>-- --------- it ---- -- --- -- --- ------- -- - -----<br>---------- -- -- -- ---- ----- -- ------ -- --- ------<br>-------,285714.06999998726,285713.26000010595,285193.32,285202.40999991074,285209.877,285726.935,,28,it
screen,html.Screen,1_3_1_0_1_29,2021-04-08T15:45:04.175Z,,,,,,,,,,,,,,,,48,,,,,,,,,,,,,,618.2250000262284,,response,,,,10,C,,,,,,Space,keypress(Space),,,,instrumental,,,,-- -- --- ------ ------- --------- ----------- --------<br>--------- -------- --- ------- -- ------- ---- -- ------<br>-- --- -------- -------- ---------- ---- ---- ---- ------<br>-- --------- -- into -- --- -- --- ------- -- - -----<br>---------- -- -- -- ---- ----- -- ------ -- --- ------<br>-------,286345.99999990314,286345.1600000262,285710.333,285714.3000001088,285726.935,286360.736,,29,into
screen,html.Screen,1_3_1_0_1_30,2021-04-08T15:45:04.616Z,,,,,,,,,,,,,,,,48,,,,,,,,,,,,,,424.2240000772872,,response,,,,10,C,,,,,,Space,keypress(Space),,,,instrumental,,,,-- -- --- ------ ------- --------- ----------- --------<br>--------- -------- --- ------- -- ------- ---- -- ------<br>-- --- -------- -------- ---------- ---- ---- ---- ------<br>-- --------- -- ---- or --- -- --- ------- -- - -----<br>---------- -- -- -- ---- ----- -- ------ -- --- ------<br>-------,286786.8749999907,286784.96000007726,286344.099,286346.2199999485,286360.736,286794.215,,30,or
screen,html.Screen,1_3_1_0_1_31,2021-04-08T15:45:04.982Z,,,,,,,,,,,,,,,,48,,,,,,,,,,,,,,358.6949999461067,,response,,,,10,C,,,,,,Space,keypress(Space),,,,instrumental,,,,-- -- --- ------ ------- --------- ----------- --------<br>--------- -------- --- ------- -- ------- ---- -- ------<br>-- --- -------- -------- ---------- ---- ---- ---- ------<br>-- --------- -- ---- -- out -- --- ------- -- - -----<br>---------- -- -- -- ---- ----- -- ------ -- --- ------<br>-------,287153.6099999212,287152.90999994613,286777.69,286787.07000007853,286794.215,287161.143,,31,out
screen,html.Screen,1_3_1_0_1_32,2021-04-08T15:45:05.382Z,,,,,,,,,,,,,,,,48,,,,,,,,,,,,,,391.7870000053081,,response,,,,10,C,,,,,,Space,keypress(Space),,,,instrumental,,,,-- -- --- ------ ------- --------- ----------- --------<br>--------- -------- --- ------- -- ------- ---- -- ------<br>-- --- -------- -------- ---------- ---- ---- ---- ------<br>-- --------- -- ---- -- --- of --- ------- -- - -----<br>---------- -- -- -- ---- ----- -- ------ -- --- ------<br>-------,287553.58500010334,287552.9300000053,287144.581,287153.8100000471,287161.143,287561.405,,32,of
screen,html.Screen,1_3_1_0_1_33,2021-04-08T15:45:05.774Z,,,,,,,,,,,,,,,,48,,,,,,,,,,,,,,383.36999998171814,,response,,,,10,C,,,,,,Space,keypress(Space),,,,instrumental,,,,-- -- --- ------ ------- --------- ----------- --------<br>--------- -------- --- ------- -- ------- ---- -- ------<br>-- --- -------- -------- ---------- ---- ---- ---- ------<br>-- --------- -- ---- -- --- -- the ------- -- - -----<br>---------- -- -- -- ---- ----- -- ------ -- --- ------<br>-------,287945.4550000373,287944.77499998175,287544.85,287553.77999995835,287561.405,287961.781,,33,the
screen,html.Screen,1_3_1_0_1_34,2021-04-08T15:45:06.142Z,,,,,,,,,,,,,,,,48,,,,,,,,,,,,,,350.97899988427525,,response,,,,10,C,,,,,,Space,keypress(Space),,,,instrumental,,,,-- -- --- ------ ------- --------- ----------- --------<br>--------- -------- --- ------- -- ------- ---- -- ------<br>-- --- -------- -------- ---------- ---- ---- ---- ------<br>-- --------- -- ---- -- --- -- --- country -- - -----<br>---------- -- -- -- ---- ----- -- ------ -- --- ------<br>-------,288313.4800000116,288312.7599998843,287945.115,287945.6549999304,287961.781,288328.681,,34,country
screen,html.Screen,1_3_1_0_1_35,2021-04-08T15:45:06.534Z,,,,,,,,,,,,,,,,48,,,,,,,,,,,,,,375.9939999281196,,response,,,,10,C,,,,,,Space,keypress(Space),,,,instrumental,,,,-- -- --- ------ ------- --------- ----------- --------<br>--------- -------- --- ------- -- ------- ---- -- ------<br>-- --- -------- -------- ---------- ---- ---- ---- ------<br>-- --------- -- ---- -- --- -- --- ------- is - -----<br>---------- -- -- -- ---- ----- -- ------ -- --- ------<br>-------,288705.40499989875,288704.6749999281,288312.014,288313.6849999428,288328.681,288712.198,,35,is
screen,html.Screen,1_3_1_0_1_36,2021-04-08T15:45:06.950Z,,,,,,,,,,,,,,,,48,,,,,,,,,,,,,,408.3820001044078,,response,,,,10,C,,,,,,Space,keypress(Space),,,,instrumental,,,,-- -- --- ------ ------- --------- ----------- --------<br>--------- -------- --- ------- -- ------- ---- -- ------<br>-- --- -------- -------- ---------- ---- ---- ---- ------<br>-- --------- -- ---- -- --- -- --- ------- -- a -----<br>---------- -- -- -- ---- ----- -- ------ -- --- ------<br>-------,289121.25499988906,289120.5800001044,288695.606,288705.60500002466,288712.198,289129.085,,36,a
screen,html.Screen,1_3_1_0_1_37,2021-04-08T15:45:07.310Z,,,,,,,,,,,,,,,,48,,,,,,,,,,,,,,351.40499998716405,,response,,,,10,C,,,,,,Space,keypress(Space),,,,instrumental,,,,-- -- --- ------ ------- --------- ----------- --------<br>--------- -------- --- ------- -- ------- ---- -- ------<br>-- --- -------- -------- ---------- ---- ---- ---- ------<br>-- --------- -- ---- -- --- -- --- ------- -- - crime<br>---------- -- -- -- ---- ----- -- ------ -- --- ------<br>-------,289481.1650000047,289480.4899999872,289112.488,289121.46000005305,289129.085,289496.118,,37,crime
screen,html.Screen,1_3_1_0_1_38,2021-04-08T15:45:07.662Z,,,,,,,,,,,,,,,,48,,,,,,,,,,,,,,336.33699990878813,,response,,,,10,C,,,,,,Space,keypress(Space),,,,instrumental,,,,-- -- --- ------ ------- --------- ----------- --------<br>--------- -------- --- ------- -- ------- ---- -- ------<br>-- --- -------- -------- ---------- ---- ---- ---- ------<br>-- --------- -- ---- -- --- -- --- ------- -- - -----<br>punishable -- -- -- ---- ----- -- ------ -- --- ------<br>-------,289832.9350000713,289832.4549999088,289479.452,289481.36999993585,289496.118,289846.32,,38,punishable
screen,html.Screen,1_3_1_0_1_39,2021-04-08T15:45:08.062Z,,,,,,,,,,,,,,,,48,,,,,,,,,,,,,,386.2550000309129,,response,,,,10,C,,,,,,Space,keypress(Space),,,,instrumental,,,,-- -- --- ------ ------- --------- ----------- --------<br>--------- -------- --- ------- -- ------- ---- -- ------<br>-- --- -------- -------- ---------- ---- ---- ---- ------<br>-- --------- -- ---- -- --- -- --- ------- -- - -----<br>---------- by -- -- ---- ----- -- ------ -- --- ------<br>-------,290233.24500001036,290232.5750000309,289829.673,289833.0550000537,289846.32,290246.618,,39,by
screen,html.Screen,1_3_1_0_1_40,2021-04-08T15:45:08.390Z,,,,,,,,,,,,,,,,48,,,,,,,,,,,,,,313.7520000792574,,response,,,,10,C,,,,,,Space,keypress(Space),,,,instrumental,,,,-- -- --- ------ ------- --------- ----------- --------<br>--------- -------- --- ------- -- ------- ---- -- ------<br>-- --- -------- -------- ---------- ---- ---- ---- ------<br>-- --------- -- ---- -- --- -- --- ------- -- - -----<br>---------- -- up -- ---- ----- -- ------ -- --- ------<br>-------,290561.0249999445,290560.3700000793,290229.948,290233.44499990344,290246.618,290563.454,,40,up
screen,html.Screen,1_3_1_0_1_41,2021-04-08T15:45:08.710Z,,,,,,,,,,,,,,,,48,,,,,,,,,,,,,,316.8509998823283,,response,,,,10,C,,,,,,Space,keypress(Space),,,,instrumental,,,,-- -- --- ------ ------- --------- ----------- --------<br>--------- -------- --- ------- -- ------- ---- -- ------<br>-- --- -------- -------- ---------- ---- ---- ---- ------<br>-- --------- -- ---- -- --- -- --- ------- -- - -----<br>---------- -- -- to ---- ----- -- ------ -- --- ------<br>-------,290880.9599999804,290880.30499988236,290546.82,290561.2399999518,290563.454,290897.047,,41,to
