sender,sender_type,sender_id,timestamp,meta,,Blues,Classical,Country,Dance,Electronic,Folk,Gospel,Hip-Hop,Jazz,Latin,Musical/Film,New-age,Pop,Provo_ID,R&B,Rap,Reggae,Religious,Rock,Soul,Swing,Traditional,age,artist_name,correct,correctResponse,distraction,duration,education,ended_on,familiarity,gender,headphone_check_performance,item,list,music_frequency,offensiveness,pleasantness,position_correct,preference,response,response_action,snippet_file,song_name,song_rating,sound,stimulus_1,stimulus_2,stimulus_3,text,time_commit,time_end,time_render,time_run,time_show,time_switch,url,word,word_ID
Introduction,html.Screen,0_0,2022-04-24T08:39:11.308Z,"{""labjs_version"":""20.2.2"",""labjs_build"":{""flavor"":""production"",""commit"":""a25486e0c714a0ae2ce03ff94b7bb6896854dcfa""},""location"":""https://run.pavlovia.org/mvasilev/music_a/"",""userAgent"":""Mozilla/5.0 (Windows NT 10.0; Win64; x64) AppleWebKit/537.36 (KHTML, like Gecko) Chrome/100.0.4896.127 Safari/537.36 Edg/100.0.1185.50"",""platform"":""Win32"",""language"":""en-GB"",""locale"":""en-GB"",""timeZone"":""Europe/London"",""timezoneOffset"":-60,""screen_width"":1280,""screen_height"":720,""scroll_width"":1232,""scroll_height"":553,""window_innerWidth"":1232,""window_innerHeight"":601,""devicePixelRatio"":1.5}",,,,,,,,,,,,,,,,,,,,,,,,,,,,,5793.445999976158,,response,,,,,,,,,,,continue,click button,,,,,,,,,15457.199999928474,15452.399999976158,9609.617,9624.199999928474,9658.954,15474.937,{},,
Volume calibration,html.Screen,0_1,2022-04-24T08:39:45.356Z,,,,,,,,,,,,,,,,,,,,,,,,,,,,,,34017.96299997616,,response,,,,,,,,,,,continue,click button,,,,,,,,,49505.5,49492.89999997616,15441.565,15458.199999928474,15474.937,49503.871,,,
Task instructions,html.Screen,0_2,2022-04-24T08:40:04.652Z,,,,,,,,,,,,,,,,,,,,,,,,,,,,,,19291.02899997616,,response,,,,,,,,,,,continue,click button,,,,,,,,,68797,68794.89999997616,49487.196,49506.199999928474,49503.871,68801.429,,,
Sounds,html.Screen,0_3_0_0,2022-04-24T08:40:08.895Z,,,,,,,,,,,,,,,,,,,,,,,,,,,,,,4249.430999999997,,timeout,,,,,,,,,2,,,,,,,,I,S,O,,73040.09999990463,73034.416,68784.998,68797.89999997616,68801.429,73050.86,,,
Judgement,html.Screen,0_3_0_1,2022-04-24T08:40:10.807Z,,,,,,,,,,,,,,,,,,,,,,,,,,,true,2,,1898.4399999523157,,response,,,,,,,,,2,,2,click #choice-2,,,,,I,S,O,,74952.69999992847,74949.29999995232,73034.416,73040.5,73050.86,74967.532,,,
Trial,flow.Sequence,0_3_0,2022-04-24T08:40:10.808Z,,,,,,,,,,,,,,,,,,,,,,,,,,,,,,6147.870999952313,,completion,,,,,,,,,2,,,,,,,,I,S,O,,74953.79999995232,74949.29999995232,68784.998,68797.69999992847,68801.429,74967.532,,,
Sounds,html.Screen,0_3_1_0,2022-04-24T08:40:15.056Z,,,,,,,,,,,,,,,,,,,,,,,,,,,,,,4249.418999999994,,timeout,,,,,,,,,2,,,,,,,,O,S,I,,79201.69999992847,79200.295,74950.64,74954.19999992847,74967.532,79216.951,,,
Judgement,html.Screen,0_3_1_1,2022-04-24T08:40:16.042Z,,,,,,,,,,,,,,,,,,,,,,,,,,,true,2,,968.1489999046316,,response,,,,,,,,,2,,2,click #choice-2,,,,,O,S,I,,80187.59999990463,80185.09999990463,79200.295,79202.09999990463,79216.951,80199.955,,,
Trial,flow.Sequence,0_3_1,2022-04-24T08:40:16.043Z,,,,,,,,,,,,,,,,,,,,,,,,,,,,,,5217.567999904626,,completion,,,,,,,,,2,,,,,,,,O,S,I,,80188.29999995232,80185.09999990463,74950.64,74954.19999992847,74967.532,80199.955,,,
Sounds,html.Screen,0_3_2_0,2022-04-24T08:40:20.289Z,,,,,,,,,,,,,,,,,,,,,,,,,,,,,,4249.6630000000005,,timeout,,,,,,,,,1,,,,,,,,S,O,I,,84434.5,84432.913,80183.572,80189.29999995232,80199.955,84449.618,,,
Judgement,html.Screen,0_3_2_1,2022-04-24T08:40:21.426Z,,,,,,,,,,,,,,,,,,,,,,,,,,,true,1,,1119.5819999284722,,response,,,,,,,,,1,,1,click #choice-1,,,,,S,O,I,,85571.59999990463,85569.19999992847,84432.913,84435.19999992847,84449.618,85582.605,,,
Trial,flow.Sequence,0_3_2,2022-04-24T08:40:21.427Z,,,,,,,,,,,,,,,,,,,,,,,,,,,,,,5369.244999928473,,completion,,,,,,,,,1,,,,,,,,S,O,I,,85572.5,85569.19999992847,80183.572,80189.09999990463,80199.955,85582.605,,,
Sounds,html.Screen,0_3_3_0,2022-04-24T08:40:25.672Z,,,,,,,,,,,,,,,,,,,,,,,,,,,,,,4249.6600000000035,,timeout,,,,,,,,,1,,,,,,,,S,I,O,,89817.29999995232,89815.555,85566.129,85573.09999990463,85582.605,89832.265,,,
Judgement,html.Screen,0_3_3_1,2022-04-24T08:40:26.792Z,,,,,,,,,,,,,,,,,,,,,,,,,,,true,1,,1102.934999928475,,response,,,,,,,,,1,,1,click #choice-1,,,,,S,I,O,,90937.59999990463,90935.19999992847,89815.555,89817.59999990463,89832.265,90948.697,,,
Trial,flow.Sequence,0_3_3,2022-04-24T08:40:26.793Z,,,,,,,,,,,,,,,,,,,,,,,,,,,,,,5352.5949999284785,,completion,,,,,,,,,1,,,,,,,,S,I,O,,90938.29999995232,90935.19999992847,85566.129,85572.89999997616,85582.605,90948.697,,,
Sounds,html.Screen,0_3_4_0,2022-04-24T08:40:31.038Z,,,,,,,,,,,,,,,,,,,,,,,,,,,,,,4249.349000000002,,timeout,,,,,,,,,3,,,,,,,,O,I,S,,95183.29999995232,95181.342,90931.887,90938.79999995232,90948.697,95198.046,,,
Judgement,html.Screen,0_3_4_1,2022-04-24T08:40:32.014Z,,,,,,,,,,,,,,,,,,,,,,,,,,,true,3,,959.4539999999979,,response,,,,,,,,,3,,3,click #choice-3,,,,,O,I,S,,96159.69999992847,96157.5,95181.342,95183.5,95198.046,96164.593,,,
Trial,flow.Sequence,0_3_4,2022-04-24T08:40:32.015Z,,,,,,,,,,,,,,,,,,,,,,,,,,,,,,5208.803,,completion,,,,,,,,,3,,,,,,,,O,I,S,,96160.29999995232,96157.5,90931.887,90938.59999990463,90948.697,96164.593,,,
Sounds,html.Screen,0_3_5_0,2022-04-24T08:40:36.254Z,,,,,,,,,,,,,,,,,,,,,,,,,,,,,,4249.6600000000035,,timeout,,,,,,,,,3,,,,,,,,I,O,S,,100399.09999990463,100397.535,96148.162,96160.79999995232,96164.593,100414.253,,,
Judgement,html.Screen,0_3_5_1,2022-04-24T08:40:37.122Z,,,,,,,,,,,,,,,,,,,,,,,,,,,true,3,,850.5469999523193,,response,,,,,,,,,3,,3,click #choice-3,,,,,I,O,S,,101267.09999990463,101264.79999995232,100397.535,100399.39999997616,100414.253,101280.55,,,
Trial,flow.Sequence,0_3_5,2022-04-24T08:40:37.122Z,,,,,,,,,,,,,,,,,,,,,,,,,,,,,,5100.206999952323,,completion,,,,,,,,,3,,,,,,,,I,O,S,,101267.69999992847,101264.79999995232,96148.162,96160.59999990463,96164.593,101280.55,,,
Task,flow.Loop,0_3,2022-04-24T08:40:37.130Z,,,,,,,,,,,,,,,,,,,,,,,,,,,,,,32463.370999952313,,completion,,,1,,,,,,,,,,,,,,,,,,101275.09999990463,101264.79999995232,68784.998,68797.5,68801.429,101280.55,,,
Trap,html.Screen,0_4,2022-04-24T08:40:37.131Z,,,,,,,,,,,,,,,,,,,,,,,,,,,,,,NaN,,skipped,,,,,,,,,,,,,,,,,,,,,101276.59999990463,101264.79999995232,,101276.39999997616,,101280.55,,,
Thanks,html.Screen,0_5,2022-04-24T08:40:41.665Z,,,,,,,,,,,,,,,,,,,,,,,,,,,,,,4527.349999976155,,response,,,,,,,,,,,continue,click button,,,,,,,,,105810.39999997616,105807.89999997616,101263.816,101276.69999992847,101280.55,111495.959,,,
Headphone screening,flow.Sequence,0,2022-04-24T08:40:41.665Z,,,,,,,,,,,,,,,,,,,,,,,,,,,,,,96148.94599997616,,completion,,,,,,,,,,,,,,,,,,,,,105811,105807.89999997616,9609.617,9624.199999928474,9658.954,111495.959,,,
Instructions,html.Page,1_0,2022-04-24T08:41:23.514Z,,,,,,,,,,,,,,,,,,,,,,,,,,,,,,36161.340999952314,,form submission,,,,,,,,,,,,,,,,,,,,,147659.19999992847,147657.29999995232,111479.446,111491.19999992847,111495.959,147674.659,,,
Holding screen,html.Screen,1_1_0_0,2022-04-24T08:41:33.513Z,,,,,,,,,,,,,,,,,,,,,,,,,,,,,,10048.712,,timeout,,,,,,,,,,,,,,,,,,,,,157658.39999997616,157656.717,147641.636,147660,147674.659,157723.371,,,
screen,html.Screen,1_1_0_1_0,2022-04-24T08:41:34.811Z,,,,,,,,,,,,,,,,53,,,,,,,,,,,,,,1223.4289999523025,,response,,,,99,,,,,,,Space,keypress(Space),,,,,,,,When -- ----- -- ------ - ------- --- ----------<br>------------- ------ ------ ---- ---- ------- ----- -- ----<br>-------- ------- -- ---------- --- - --- ----- ----- ----<br>---- --- --- ----- --- ---- ---- ------- ----- ---- -------<br>--- --- -- ----- -- --- ---- -- --- ---- -- ------ ------<br>--- ----- -- ----,158956.5,158946.79999995232,157656.717,157659,157723.371,158956.537,,0,When
screen,html.Screen,1_1_0_1_1,2022-04-24T08:41:35.790Z,,,,,,,,,,,,,,,,53,,,,,,,,,,,,,,976.9629999999888,,response,,,,99,,,,,,,Space,keypress(Space),,,,,,,,---- it ----- -- ------ - ------- --- ----------<br>------------- ------ ------ ---- ---- ------- ----- -- ----<br>-------- ------- -- ---------- --- - --- ----- ----- ----<br>---- --- --- ----- --- ---- ---- ------- ----- ---- -------<br>--- --- -- ----- -- --- ---- -- --- ---- -- ------ ------<br>--- ----- -- ----,159935.89999997616,159933.5,158939.946,158957.5,158956.537,159939.721,,1,it
screen,html.Screen,1_1_0_1_2,2022-04-24T08:41:36.894Z,,,,,,,,,,,,,,,,53,,,,,,,,,,,,,,1098.1789999761677,,response,,,,99,,,,,,,Space,keypress(Space),,,,,,,,---- -- comes -- ------ - ------- --- ----------<br>------------- ------ ------ ---- ---- ------- ----- -- ----<br>-------- ------- -- ---------- --- - --- ----- ----- ----<br>---- --- --- ----- --- ---- ---- ------- ----- ---- -------<br>--- --- -- ----- -- --- ---- -- --- ---- -- ------ ------<br>--- ----- -- ----,161040,161037.89999997616,159922.742,159936.29999995232,159939.721,161056.233,,2,comes
screen,html.Screen,1_1_0_1_3,2022-04-24T08:41:37.833Z,,,,,,,,,,,,,,,,53,,,,,,,,,,,,,,921.2669999999925,,response,,,,99,,,,,,,Space,keypress(Space),,,,,,,,---- -- ----- to ------ - ------- --- ----------<br>------------- ------ ------ ---- ---- ------- ----- -- ----<br>-------- ------- -- ---------- --- - --- ----- ----- ----<br>---- --- --- ----- --- ---- ---- ------- ----- ---- -------<br>--- --- -- ----- -- --- ---- -- --- ---- -- ------ ------<br>--- ----- -- ----,161978.39999997616,161977.5,161039.929,161040.29999995232,161056.233,161990.001,,3,to
screen,html.Screen,1_1_0_1_4,2022-04-24T08:41:38.916Z,,,,,,,,,,,,,,,,53,,,,,,,,,,,,,,1070.9990000000107,,response,,,,99,,,,,,,Space,keypress(Space),,,,,,,,---- -- ----- -- having - ------- --- ----------<br>------------- ------ ------ ---- ---- ------- ----- -- ----<br>-------- ------- -- ---------- --- - --- ----- ----- ----<br>---- --- --- ----- --- ---- ---- ------- ----- ---- -------<br>--- --- -- ----- -- --- ---- -- --- ---- -- ------ ------<br>--- ----- -- ----,163061.89999997616,163061,161972.801,161980,161990.001,163072.932,,4,having
screen,html.Screen,1_1_0_1_5,2022-04-24T08:41:40.183Z,,,,,,,,,,,,,,,,53,,,,,,,,,,,,,,1253.3679999523156,,response,,,,99,,,,,,,Space,keypress(Space),,,,,,,,---- -- ----- -- ------ a ------- --- ----------<br>------------- ------ ------ ---- ---- ------- ----- -- ----<br>-------- ------- -- ---------- --- - --- ----- ----- ----<br>---- --- --- ----- --- ---- ---- ------- ----- ---- -------<br>--- --- -- ----- -- --- ---- -- --- ---- -- ------ ------<br>--- ----- -- ----,164328.39999997616,164326.29999995232,163056.539,163062,163072.932,164339.179,,5,a
screen,html.Screen,1_1_0_1_6,2022-04-24T08:41:41.090Z,,,,,,,,,,,,,,,,53,,,,,,,,,,,,,,894.1209999523126,,response,,,,99,,,,,,,Space,keypress(Space),,,,,,,,---- -- ----- -- ------ - lasting --- ----------<br>------------- ------ ------ ---- ---- ------- ----- -- ----<br>-------- ------- -- ---------- --- - --- ----- ----- ----<br>---- --- --- ----- --- ---- ---- ------- ----- ---- -------<br>--- --- -- ----- -- --- ---- -- --- ---- -- ------ ------<br>--- ----- -- ----,165235.19999992847,165233.29999995232,164323.297,164328.79999995232,164339.179,165239.063,,6,lasting
screen,html.Screen,1_1_0_1_7,2022-04-24T08:41:41.882Z,,,,,,,,,,,,,,,,53,,,,,,,,,,,,,,786.6369999284798,,response,,,,99,,,,,,,Space,keypress(Space),,,,,,,,---- -- ----- -- ------ - ------- and ----------<br>------------- ------ ------ ---- ---- ------- ----- -- ----<br>-------- ------- -- ---------- --- - --- ----- ----- ----<br>---- --- --- ----- --- ---- ---- ------- ----- ---- -------<br>--- --- -- ----- -- --- ---- -- --- ---- -- ------ ------<br>--- ----- -- ----,166027.5,166025.69999992847,165222.72,165235.59999990463,165239.063,166038.954,,7,and
screen,html.Screen,1_1_0_1_8,2022-04-24T08:41:42.802Z,,,,,,,,,,,,,,,,53,,,,,,,,,,,,,,907.0460000000021,,response,,,,99,,,,,,,Space,keypress(Space),,,,,,,,---- -- ----- -- ------ - ------- --- fulfilling<br>------------- ------ ------ ---- ---- ------- ----- -- ----<br>-------- ------- -- ---------- --- - --- ----- ----- ----<br>---- --- --- ----- --- ---- ---- ------- ----- ---- -------<br>--- --- -- ----- -- --- ---- -- --- ---- -- ------ ------<br>--- ----- -- ----,166947.79999995232,166946,166022.109,166027.89999997616,166038.954,166955.501,,8,fulfilling
screen,html.Screen,1_1_0_1_9,2022-04-24T08:41:44.584Z,,,,,,,,,,,,,,,,53,,,,,,,,,,,,,,1772.1989999284851,,response,,,,99,,,,,,,Space,keypress(Space),,,,,,,,"---- -- ----- -- ------ - ------- --- ----------<br>relationship, ------ ------ ---- ---- ------- ----- -- ----<br>-------- ------- -- ---------- --- - --- ----- ----- ----<br>---- --- --- ----- --- ---- ---- ------- ----- ---- -------<br>--- --- -- ----- -- --- ---- -- --- ---- -- ------ ------<br>--- ----- -- ----",168729.89999997616,168727.69999992847,166938.88,166948.09999990463,166955.501,168738.61,,9,"relationship,"
screen,html.Screen,1_1_0_1_10,2022-04-24T08:41:45.616Z,,,,,,,,,,,,,,,,53,,,,,,,,,,,,,,1021.4899999046465,,response,,,,99,,,,,,,Space,keypress(Space),,,,,,,,---- -- ----- -- ------ - ------- --- ----------<br>------------- common ------ ---- ---- ------- ----- -- ----<br>-------- ------- -- ---------- --- - --- ----- ----- ----<br>---- --- --- ----- --- ---- ---- ------- ----- ---- -------<br>--- --- -- ----- -- --- ---- -- --- ---- -- ------ ------<br>--- ----- -- ----,169762,169760.09999990463,168721.078,168730.19999992847,168738.61,169771.826,,10,common
screen,html.Screen,1_1_0_1_11,2022-04-24T08:41:46.757Z,,,,,,,,,,,,,,,,53,,,,,,,,,,,,,,1128.5739999761572,,response,,,,99,,,,,,,Space,keypress(Space),,,,,,,,---- -- ----- -- ------ - ------- --- ----------<br>------------- ------ wisdom ---- ---- ------- ----- -- ----<br>-------- ------- -- ---------- --- - --- ----- ----- ----<br>---- --- --- ----- --- ---- ---- ------- ----- ---- -------<br>--- --- -- ----- -- --- ---- -- --- ---- -- ------ ------<br>--- ----- -- ----,170902.29999995232,170900.39999997616,169755.355,169762.39999997616,169771.826,170904.995,,11,wisdom
screen,html.Screen,1_1_0_1_12,2022-04-24T08:41:47.586Z,,,,,,,,,,,,,,,,53,,,,,,,,,,,,,,824.8049999523209,,response,,,,99,,,,,,,Space,keypress(Space),,,,,,,,---- -- ----- -- ------ - ------- --- ----------<br>------------- ------ ------ says ---- ------- ----- -- ----<br>-------- ------- -- ---------- --- - --- ----- ----- ----<br>---- --- --- ----- --- ---- ---- ------- ----- ---- -------<br>--- --- -- ----- -- --- ---- -- --- ---- -- ------ ------<br>--- ----- -- ----,171731.59999990463,171729.79999995232,170888.173,170902.59999990463,170904.995,171738.229,,12,says
screen,html.Screen,1_1_0_1_13,2022-04-24T08:41:48.600Z,,,,,,,,,,,,,,,,53,,,,,,,,,,,,,,1005.9709999284823,,response,,,,99,,,,,,,Space,keypress(Space),,,,,,,,---- -- ----- -- ------ - ------- --- ----------<br>------------- ------ ------ ---- that ------- ----- -- ----<br>-------- ------- -- ---------- --- - --- ----- ----- ----<br>---- --- --- ----- --- ---- ---- ------- ----- ---- -------<br>--- --- -- ----- -- --- ---- -- --- ---- -- ------ ------<br>--- ----- -- ----,172746.09999990463,172744.19999992847,171721.923,171732,171738.229,172754.777,,13,that
screen,html.Screen,1_1_0_1_14,2022-04-24T08:41:49.372Z,,,,,,,,,,,,,,,,53,,,,,,,,,,,,,,760.6229999761563,,response,,,,99,,,,,,,Space,keypress(Space),,,,,,,,---- -- ----- -- ------ - ------- --- ----------<br>------------- ------ ------ ---- ---- feeling ----- -- ----<br>-------- ------- -- ---------- --- - --- ----- ----- ----<br>---- --- --- ----- --- ---- ---- ------- ----- ---- -------<br>--- --- -- ----- -- --- ---- -- --- ---- -- ------ ------<br>--- ----- -- ----,173517.19999992847,173515.39999997616,172738.237,172746.5,172754.777,173521.338,,14,feeling
screen,html.Screen,1_1_0_1_15,2022-04-24T08:41:50.246Z,,,,,,,,,,,,,,,,53,,,,,,,,,,,,,,868.4619999523275,,response,,,,99,,,,,,,Space,keypress(Space),,,,,,,,---- -- ----- -- ------ - ------- --- ----------<br>------------- ------ ------ ---- ---- ------- close -- ----<br>-------- ------- -- ---------- --- - --- ----- ----- ----<br>---- --- --- ----- --- ---- ---- ------- ----- ---- -------<br>--- --- -- ----- -- --- ---- -- --- ---- -- ------ ------<br>--- ----- -- ----,174391.89999997616,174389.79999995232,173504.711,173517.59999990463,173521.338,174404.561,,15,close
screen,html.Screen,1_1_0_1_16,2022-04-24T08:41:50.849Z,,,,,,,,,,,,,,,,53,,,,,,,,,,,,,,588.1389999284875,,response,,,,99,,,,,,,Space,keypress(Space),,,,,,,,---- -- ----- -- ------ - ------- --- ----------<br>------------- ------ ------ ---- ---- ------- ----- to ----<br>-------- ------- -- ---------- --- - --- ----- ----- ----<br>---- --- --- ----- --- ---- ---- ------- ----- ---- -------<br>--- --- -- ----- -- --- ---- -- --- ---- -- ------ ------<br>--- ----- -- ----,174995,174992.69999992847,174388.159,174392.39999997616,174404.561,175004.467,,16,to
screen,html.Screen,1_1_0_1_17,2022-04-24T08:41:51.447Z,,,,,,,,,,,,,,,,53,,,,,,,,,,,,,,586.3329999523121,,response,,,,99,,,,,,,Space,keypress(Space),,,,,,,,---- -- ----- -- ------ - ------- --- ----------<br>------------- ------ ------ ---- ---- ------- ----- -- your<br>-------- ------- -- ---------- --- - --- ----- ----- ----<br>---- --- --- ----- --- ---- ---- ------- ----- ---- -------<br>--- --- -- ----- -- --- ---- -- --- ---- -- ------ ------<br>--- ----- -- ----,175592.69999992847,175590.79999995232,174987.782,174995.39999997616,175004.467,175604.398,,17,your
screen,html.Screen,1_1_0_1_18,2022-04-24T08:41:52.141Z,,,,,,,,,,,,,,,,53,,,,,,,,,,,,,,680.7019999046461,,response,,,,99,,,,,,,Space,keypress(Space),,,,,,,,---- -- ----- -- ------ - ------- --- ----------<br>------------- ------ ------ ---- ---- ------- ----- -- ----<br>romantic ------- -- ---------- --- - --- ----- ----- ----<br>---- --- --- ----- --- ---- ---- ------- ----- ---- -------<br>--- --- -- ----- -- --- ---- -- --- ---- -- ------ ------<br>--- ----- -- ----,176287.09999990463,176285.09999990463,175587.535,175593.09999990463,175604.398,176304.296,,18,romantic
screen,html.Screen,1_1_0_1_19,2022-04-24T08:41:53.045Z,,,,,,,,,,,,,,,,53,,,,,,,,,,,,,,884.603999976156,,response,,,,99,,,,,,,Space,keypress(Space),,,,,,,,---- -- ----- -- ------ - ------- --- ----------<br>------------- ------ ------ ---- ---- ------- ----- -- ----<br>-------- partner -- ---------- --- - --- ----- ----- ----<br>---- --- --- ----- --- ---- ---- ------- ----- ---- -------<br>--- --- -- ----- -- --- ---- -- --- ---- -- ------ ------<br>--- ----- -- ----,177190.89999997616,177188.89999997616,176287.9,176287.39999997616,176304.296,177204.201,,19,partner
screen,html.Screen,1_1_0_1_20,2022-04-24T08:41:54.109Z,,,,,,,,,,,,,,,,53,,,,,,,,,,,,,,1048.4989999284735,,response,,,,99,,,,,,,Space,keypress(Space),,,,,,,,---- -- ----- -- ------ - ------- --- ----------<br>------------- ------ ------ ---- ---- ------- ----- -- ----<br>-------- ------- is ---------- --- - --- ----- ----- ----<br>---- --- --- ----- --- ---- ---- ------- ----- ---- -------<br>--- --- -- ----- -- --- ---- -- --- ---- -- ------ ------<br>--- ----- -- ----,178254.59999990463,178252.69999992847,177187.792,177191.19999992847,177204.201,178270.846,,20,is
screen,html.Screen,1_1_0_1_21,2022-04-24T08:41:54.817Z,,,,,,,,,,,,,,,,53,,,,,,,,,,,,,,690.0539999761677,,response,,,,99,,,,,,,Space,keypress(Space),,,,,,,,---- -- ----- -- ------ - ------- --- ----------<br>------------- ------ ------ ---- ---- ------- ----- -- ----<br>-------- ------- -- paramount. --- - --- ----- ----- ----<br>---- --- --- ----- --- ---- ---- ------- ----- ---- -------<br>--- --- -- ----- -- --- ---- -- --- ---- -- ------ ------<br>--- ----- -- ----,178962.69999992847,178960.89999997616,178254.583,178255,178270.846,178970.644,,21,paramount.
screen,html.Screen,1_1_0_1_22,2022-04-24T08:41:55.804Z,,,,,,,,,,,,,,,,53,,,,,,,,,,,,,,977.0559999284742,,response,,,,99,,,,,,,Space,keypress(Space),,,,,,,,---- -- ----- -- ------ - ------- --- ----------<br>------------- ------ ------ ---- ---- ------- ----- -- ----<br>-------- ------- -- ---------- But - --- ----- ----- ----<br>---- --- --- ----- --- ---- ---- ------- ----- ---- -------<br>--- --- -- ----- -- --- ---- -- --- ---- -- ------ ------<br>--- ----- -- ----,179949.59999990463,179947.69999992847,178954.283,178963,178970.644,179953.849,,22,But
screen,html.Screen,1_1_0_1_23,2022-04-24T08:41:56.426Z,,,,,,,,,,,,,,,,53,,,,,,,,,,,,,,616.2509999046451,,response,,,,99,,,,,,,Space,keypress(Space),,,,,,,,---- -- ----- -- ------ - ------- --- ----------<br>------------- ------ ------ ---- ---- ------- ----- -- ----<br>-------- ------- -- ---------- --- a --- ----- ----- ----<br>---- --- --- ----- --- ---- ---- ------- ----- ---- -------<br>--- --- -- ----- -- --- ---- -- --- ---- -- ------ ------<br>--- ----- -- ----,180572.09999990463,180570.09999990463,179937.516,179950,179953.849,180587.188,,23,a
screen,html.Screen,1_1_0_1_24,2022-04-24T08:41:57.291Z,,,,,,,,,,,,,,,,53,,,,,,,,,,,,,,847.1119999523216,,response,,,,99,,,,,,,Space,keypress(Space),,,,,,,,---- -- ----- -- ------ - ------- --- ----------<br>------------- ------ ------ ---- ---- ------- ----- -- ----<br>-------- ------- -- ---------- --- - new ----- ----- ----<br>---- --- --- ----- --- ---- ---- ------- ----- ---- -------<br>--- --- -- ----- -- --- ---- -- --- ---- -- ------ ------<br>--- ----- -- ----,181436.29999995232,181434.29999995232,180570.331,180572.39999997616,180587.188,181453.906,,24,new
screen,html.Screen,1_1_0_1_25,2022-04-24T08:41:58.067Z,,,,,,,,,,,,,,,,53,,,,,,,,,,,,,,756.5940000000119,,response,,,,99,,,,,,,Space,keypress(Space),,,,,,,,---- -- ----- -- ------ - ------- --- ----------<br>------------- ------ ------ ---- ---- ------- ----- -- ----<br>-------- ------- -- ---------- --- - --- study ----- ----<br>---- --- --- ----- --- ---- ---- ------- ----- ---- -------<br>--- --- -- ----- -- --- ---- -- --- ---- -- ------ ------<br>--- ----- -- ----,182212.5,182210.5,181437.206,181436.69999992847,181453.906,182220.186,,25,study
screen,html.Screen,1_1_0_1_26,2022-04-24T08:41:58.811Z,,,,,,,,,,,,,,,,53,,,,,,,,,,,,,,735.314000000013,,response,,,,99,,,,,,,Space,keypress(Space),,,,,,,,---- -- ----- -- ------ - ------- --- ----------<br>------------- ------ ------ ---- ---- ------- ----- -- ----<br>-------- ------- -- ---------- --- - --- ----- finds ----<br>---- --- --- ----- --- ---- ---- ------- ----- ---- -------<br>--- --- -- ----- -- --- ---- -- --- ---- -- ------ ------<br>--- ----- -- ----,182956.5,182955.5,182203.379,182213,182220.186,182970.389,,26,finds
screen,html.Screen,1_1_0_1_27,2022-04-24T08:41:59.454Z,,,,,,,,,,,,,,,,53,,,,,,,,,,,,,,628.6110000000044,,response,,,,99,,,,,,,Space,keypress(Space),,,,,,,,---- -- ----- -- ------ - ------- --- ----------<br>------------- ------ ------ ---- ---- ------- ----- -- ----<br>-------- ------- -- ---------- --- - --- ----- ----- that<br>---- --- --- ----- --- ---- ---- ------- ----- ---- -------<br>--- --- -- ----- -- --- ---- -- --- ---- -- ------ ------<br>--- ----- -- ----,183599.89999997616,183599,182953.555,182956.59999990463,182970.389,183603.31,,27,that
screen,html.Screen,1_1_0_1_28,2022-04-24T08:42:00.228Z,,,,,,,,,,,,,,,,53,,,,,,,,,,,,,,768.6900000000023,,response,,,,99,,,,,,,Space,keypress(Space),,,,,,,,---- -- ----- -- ------ - ------- --- ----------<br>------------- ------ ------ ---- ---- ------- ----- -- ----<br>-------- ------- -- ---------- --- - --- ----- ----- ----<br>it's --- --- ----- --- ---- ---- ------- ----- ---- -------<br>--- --- -- ----- -- --- ---- -- --- ---- -- ------ ------<br>--- ----- -- ----,184373.59999990463,184372,183586.716,183600.09999990463,183603.31,184386.601,,28,it's
screen,html.Screen,1_1_0_1_29,2022-04-24T08:42:00.909Z,,,,,,,,,,,,,,,,53,,,,,,,,,,,,,,666.1989999523212,,response,,,,99,,,,,,,Space,keypress(Space),,,,,,,,---- -- ----- -- ------ - ------- --- ----------<br>------------- ------ ------ ---- ---- ------- ----- -- ----<br>-------- ------- -- ---------- --- - --- ----- ----- ----<br>---- not --- ----- --- ---- ---- ------- ----- ---- -------<br>--- --- -- ----- -- --- ---- -- --- ---- -- ------ ------<br>--- ----- -- ----,185054.59999990463,185052.79999995232,184370.399,184374,184386.601,185070.081,,29,not
screen,html.Screen,1_1_0_1_30,2022-04-24T08:42:01.595Z,,,,,,,,,,,,,,,,53,,,,,,,,,,,,,,669.1189999284688,,response,,,,99,,,,,,,Space,keypress(Space),,,,,,,,---- -- ----- -- ------ - ------- --- ----------<br>------------- ------ ------ ---- ---- ------- ----- -- ----<br>-------- ------- -- ---------- --- - --- ----- ----- ----<br>---- --- how ----- --- ---- ---- ------- ----- ---- -------<br>--- --- -- ----- -- --- ---- -- --- ---- -- ------ ------<br>--- ----- -- ----,185741.09999990463,185739.19999992847,185053.054,185055,185070.081,185753.131,,30,how
screen,html.Screen,1_1_0_1_31,2022-04-24T08:42:02.416Z,,,,,,,,,,,,,,,,53,,,,,,,,,,,,,,806.369000000006,,response,,,,99,,,,,,,Space,keypress(Space),,,,,,,,---- -- ----- -- ------ - ------- --- ----------<br>------------- ------ ------ ---- ---- ------- ----- -- ----<br>-------- ------- -- ---------- --- - --- ----- ----- ----<br>---- --- --- close --- ---- ---- ------- ----- ---- -------<br>--- --- -- ----- -- --- ---- -- --- ---- -- ------ ------<br>--- ----- -- ----,186561.5,186559.5,185736.497,185741.39999997616,185753.131,186569.67,,31,close
screen,html.Screen,1_1_0_1_32,2022-04-24T08:42:03.140Z,,,,,,,,,,,,,,,,53,,,,,,,,,,,,,,715.2299999761453,,response,,,,99,,,,,,,Space,keypress(Space),,,,,,,,---- -- ----- -- ------ - ------- --- ----------<br>------------- ------ ------ ---- ---- ------- ----- -- ----<br>-------- ------- -- ---------- --- - --- ----- ----- ----<br>---- --- --- ----- you ---- ---- ------- ----- ---- -------<br>--- --- -- ----- -- --- ---- -- --- ---- -- ------ ------<br>--- ----- -- ----,187285.79999995232,187284.89999997616,186553.263,186561.79999995232,186569.67,187319.508,,32,you
screen,html.Screen,1_1_0_1_33,2022-04-24T08:42:03.775Z,,,,,,,,,,,,,,,,53,,,,,,,,,,,,,,599.6919999284728,,response,,,,99,,,,,,,Space,keypress(Space),,,,,,,,---- -- ----- -- ------ - ------- --- ----------<br>------------- ------ ------ ---- ---- ------- ----- -- ----<br>-------- ------- -- ---------- --- - --- ----- ----- ----<br>---- --- --- ----- --- feel ---- ------- ----- ---- -------<br>--- --- -- ----- -- --- ---- -- --- ---- -- ------ ------<br>--- ----- -- ----,187921.09999990463,187919.19999992847,187302.861,187285.89999997616,187319.508,187936.226,,33,feel
screen,html.Screen,1_1_0_1_34,2022-04-24T08:42:04.371Z,,,,,,,,,,,,,,,,53,,,,,,,,,,,,,,578.8739999046375,,response,,,,99,,,,,,,Space,keypress(Space),,,,,,,,---- -- ----- -- ------ - ------- --- ----------<br>------------- ------ ------ ---- ---- ------- ----- -- ----<br>-------- ------- -- ---------- --- - --- ----- ----- ----<br>---- --- --- ----- --- ---- that ------- ----- ---- -------<br>--- --- -- ----- -- --- ---- -- --- ---- -- ------ ------<br>--- ----- -- ----,188517,188515.09999990463,187919.263,187921.5,187936.226,188544.893,,34,that
screen,html.Screen,1_1_0_1_35,2022-04-24T08:42:05.258Z,,,,,,,,,,,,,,,,53,,,,,,,,,,,,,,856.9069999523053,,response,,,,99,,,,,,,Space,keypress(Space),,,,,,,,---- -- ----- -- ------ - ------- --- ----------<br>------------- ------ ------ ---- ---- ------- ----- -- ----<br>-------- ------- -- ---------- --- - --- ----- ----- ----<br>---- --- --- ----- --- ---- ---- matters ----- ---- -------<br>--- --- -- ----- -- --- ---- -- --- ---- -- ------ ------<br>--- ----- -- ----,189403.69999992847,189401.79999995232,188502.991,188517.39999997616,188544.893,189419.299,,35,matters
screen,html.Screen,1_1_0_1_36,2022-04-24T08:42:05.867Z,,,,,,,,,,,,,,,,53,,,,,,,,,,,,,,591.3009999046335,,response,,,,99,,,,,,,Space,keypress(Space),,,,,,,,"---- -- ----- -- ------ - ------- --- ----------<br>------------- ------ ------ ---- ---- ------- ----- -- ----<br>-------- ------- -- ---------- --- - --- ----- ----- ----<br>---- --- --- ----- --- ---- ---- ------- most, ---- -------<br>--- --- -- ----- -- --- ---- -- --- ---- -- ------ ------<br>--- ----- -- ----",190012.29999995232,190010.59999990463,189402.796,189404,189419.299,190019.224,,36,"most,"
screen,html.Screen,1_1_0_1_37,2022-04-24T08:42:06.552Z,,,,,,,,,,,,,,,,53,,,,,,,,,,,,,,676.6759999761707,,response,,,,99,,,,,,,Space,keypress(Space),,,,,,,,---- -- ----- -- ------ - ------- --- ----------<br>------------- ------ ------ ---- ---- ------- ----- -- ----<br>-------- ------- -- ---------- --- - --- ----- ----- ----<br>---- --- --- ----- --- ---- ---- ------- ----- it's -------<br>--- --- -- ----- -- --- ---- -- --- ---- -- ------ ------<br>--- ----- -- ----,190697.79999995232,190695.89999997616,190003.071,190012.79999995232,190019.224,190702.466,,37,it's
screen,html.Screen,1_1_0_1_38,2022-04-24T08:42:07.209Z,,,,,,,,,,,,,,,,53,,,,,,,,,,,,,,650.0340000000142,,response,,,,99,,,,,,,Space,keypress(Space),,,,,,,,---- -- ----- -- ------ - ------- --- ----------<br>------------- ------ ------ ---- ---- ------- ----- -- ----<br>-------- ------- -- ---------- --- - --- ----- ----- ----<br>---- --- --- ----- --- ---- ---- ------- ----- ---- whether<br>--- --- -- ----- -- --- ---- -- --- ---- -- ------ ------<br>--- ----- -- ----,191354.39999997616,191352.5,190686.283,190698.09999990463,190702.466,191369.146,,38,whether
screen,html.Screen,1_1_0_1_39,2022-04-24T08:42:07.873Z,,,,,,,,,,,,,,,,53,,,,,,,,,,,,,,647.4539999046247,,response,,,,99,,,,,,,Space,keypress(Space),,,,,,,,---- -- ----- -- ------ - ------- --- ----------<br>------------- ------ ------ ---- ---- ------- ----- -- ----<br>-------- ------- -- ---------- --- - --- ----- ----- ----<br>---- --- --- ----- --- ---- ---- ------- ----- ---- -------<br>you --- -- ----- -- --- ---- -- --- ---- -- ------ ------<br>--- ----- -- ----,192018.39999997616,192016.59999990463,191352.472,191354.69999992847,191369.146,192035.89,,39,you
screen,html.Screen,1_1_0_1_40,2022-04-24T08:42:08.494Z,,,,,,,,,,,,,,,,53,,,,,,,,,,,,,,601.2099999046186,,response,,,,99,,,,,,,Space,keypress(Space),,,,,,,,---- -- ----- -- ------ - ------- --- ----------<br>------------- ------ ------ ---- ---- ------- ----- -- ----<br>-------- ------- -- ---------- --- - --- ----- ----- ----<br>---- --- --- ----- --- ---- ---- ------- ----- ---- -------<br>--- are -- ----- -- --- ---- -- --- ---- -- ------ ------<br>--- ----- -- ----,192639,192637.09999990463,192018.843,192018.79999995232,192035.89,192652.222,,40,are
screen,html.Screen,1_1_0_1_41,2022-04-24T08:42:09.077Z,,,,,,,,,,,,,,,,53,,,,,,,,,,,,,,568.4779999284656,,response,,,,99,,,,,,,Space,keypress(Space),,,,,,,,---- -- ----- -- ------ - ------- --- ----------<br>------------- ------ ------ ---- ---- ------- ----- -- ----<br>-------- ------- -- ---------- --- - --- ----- ----- ----<br>---- --- --- ----- --- ---- ---- ------- ----- ---- -------<br>--- --- as ----- -- --- ---- -- --- ---- -- ------ ------<br>--- ----- -- ----,193222.59999990463,193220.69999992847,192635.77,192639.39999997616,192652.222,193235.476,,41,as
screen,html.Screen,1_1_0_1_42,2022-04-24T08:42:09.617Z,,,,,,,,,,,,,,,,53,,,,,,,,,,,,,,524.423999976163,,response,,,,99,,,,,,,Space,keypress(Space),,,,,,,,---- -- ----- -- ------ - ------- --- ----------<br>------------- ------ ------ ---- ---- ------- ----- -- ----<br>-------- ------- -- ---------- --- - --- ----- ----- ----<br>---- --- --- ----- --- ---- ---- ------- ----- ---- -------<br>--- --- -- close -- --- ---- -- --- ---- -- ------ ------<br>--- ----- -- ----,193761.89999997616,193759.89999997616,193218.737,193222.89999997616,193235.476,193768.76,,42,close
screen,html.Screen,1_1_0_1_43,2022-04-24T08:42:10.326Z,,,,,,,,,,,,,,,,53,,,,,,,,,,,,,,701.1399999761488,,response,,,,99,,,,,,,Space,keypress(Space),,,,,,,,---- -- ----- -- ------ - ------- --- ----------<br>------------- ------ ------ ---- ---- ------- ----- -- ----<br>-------- ------- -- ---------- --- - --- ----- ----- ----<br>---- --- --- ----- --- ---- ---- ------- ----- ---- -------<br>--- --- -- ----- as --- ---- -- --- ---- -- ------ ------<br>--- ----- -- ----,194471.69999992847,194469.89999997616,193752.372,193762.19999992847,193768.76,194485.311,,43,as
screen,html.Screen,1_1_0_1_44,2022-04-24T08:42:11.036Z,,,,,,,,,,,,,,,,53,,,,,,,,,,,,,,694.7889999046456,,response,,,,99,,,,,,,Space,keypress(Space),,,,,,,,---- -- ----- -- ------ - ------- --- ----------<br>------------- ------ ------ ---- ---- ------- ----- -- ----<br>-------- ------- -- ---------- --- - --- ----- ----- ----<br>---- --- --- ----- --- ---- ---- ------- ----- ---- -------<br>--- --- -- ----- -- you ---- -- --- ---- -- ------ ------<br>--- ----- -- ----,195181.09999990463,195180.09999990463,194468.629,194472,194485.311,195185.333,,44,you
screen,html.Screen,1_1_0_1_45,2022-04-24T08:42:11.658Z,,,,,,,,,,,,,,,,53,,,,,,,,,,,,,,616.466999952303,,response,,,,99,,,,,,,Space,keypress(Space),,,,,,,,---- -- ----- -- ------ - ------- --- ----------<br>------------- ------ ------ ---- ---- ------- ----- -- ----<br>-------- ------- -- ---------- --- - --- ----- ----- ----<br>---- --- --- ----- --- ---- ---- ------- ----- ---- -------<br>--- --- -- ----- -- --- want -- --- ---- -- ------ ------<br>--- ----- -- ----,195803.69999992847,195801.79999995232,195168.894,195181.19999992847,195185.333,195818.528,,45,want
screen,html.Screen,1_1_0_1_46,2022-04-24T08:42:12.120Z,,,,,,,,,,,,,,,,53,,,,,,,,,,,,,,445.6719999284833,,response,,,,99,,,,,,,Space,keypress(Space),,,,,,,,---- -- ----- -- ------ - ------- --- ----------<br>------------- ------ ------ ---- ---- ------- ----- -- ----<br>-------- ------- -- ---------- --- - --- ----- ----- ----<br>---- --- --- ----- --- ---- ---- ------- ----- ---- -------<br>--- --- -- ----- -- --- ---- to --- ---- -- ------ ------<br>--- ----- -- ----,196265.89999997616,196264.19999992847,195801.879,195804.09999990463,195818.528,196268.414,,46,to
screen,html.Screen,1_1_0_1_47,2022-04-24T08:42:12.755Z,,,,,,,,,,,,,,,,53,,,,,,,,,,,,,,629.7859999284847,,response,,,,99,,,,,,,Space,keypress(Space),,,,,,,,"---- -- ----- -- ------ - ------- --- ----------<br>------------- ------ ------ ---- ---- ------- ----- -- ----<br>-------- ------- -- ---------- --- - --- ----- ----- ----<br>---- --- --- ----- --- ---- ---- ------- ----- ---- -------<br>--- --- -- ----- -- --- ---- -- be, ---- -- ------ ------<br>--- ----- -- ----",196900.19999992847,196898.19999992847,196251.693,196266.39999997616,196268.414,196918.539,,47,"be,"
screen,html.Screen,1_1_0_1_48,2022-04-24T08:42:13.472Z,,,,,,,,,,,,,,,,53,,,,,,,,,,,,,,698.2609999523265,,response,,,,99,,,,,,,Space,keypress(Space),,,,,,,,---- -- ----- -- ------ - ------- --- ----------<br>------------- ------ ------ ---- ---- ------- ----- -- ----<br>-------- ------- -- ---------- --- - --- ----- ----- ----<br>---- --- --- ----- --- ---- ---- ------- ----- ---- -------<br>--- --- -- ----- -- --- ---- -- --- even -- ------ ------<br>--- ----- -- ----,197617.79999995232,197616.79999995232,196885.066,196900.5,196918.539,197635.314,,48,even
screen,html.Screen,1_1_0_1_49,2022-04-24T08:42:14.163Z,,,,,,,,,,,,,,,,53,,,,,,,,,,,,,,671.3859999284614,,response,,,,99,,,,,,,Space,keypress(Space),,,,,,,,---- -- ----- -- ------ - ------- --- ----------<br>------------- ------ ------ ---- ---- ------- ----- -- ----<br>-------- ------- -- ---------- --- - --- ----- ----- ----<br>---- --- --- ----- --- ---- ---- ------- ----- ---- -------<br>--- --- -- ----- -- --- ---- -- --- ---- if ------ ------<br>--- ----- -- ----,198308.39999997616,198306.69999992847,197618.199,197617.89999997616,197635.314,198318.205,,49,if
screen,html.Screen,1_1_0_1_50,2022-04-24T08:42:14.862Z,,,,,,,,,,,,,,,,53,,,,,,,,,,,,,,686.694999976171,,response,,,,99,,,,,,,Space,keypress(Space),,,,,,,,---- -- ----- -- ------ - ------- --- ----------<br>------------- ------ ------ ---- ---- ------- ----- -- ----<br>-------- ------- -- ---------- --- - --- ----- ----- ----<br>---- --- --- ----- --- ---- ---- ------- ----- ---- -------<br>--- --- -- ----- -- --- ---- -- --- ---- -- that's ------<br>--- ----- -- ----,199007,199004.89999997616,198301.283,198308.79999995232,198318.205,199018.073,,50,that's
screen,html.Screen,1_1_0_1_51,2022-04-24T08:42:15.460Z,,,,,,,,,,,,,,,,53,,,,,,,,,,,,,,585.926999999996,,response,,,,99,,,,,,,Space,keypress(Space),,,,,,,,---- -- ----- -- ------ - ------- --- ----------<br>------------- ------ ------ ---- ---- ------- ----- -- ----<br>-------- ------- -- ---------- --- - --- ----- ----- ----<br>---- --- --- ----- --- ---- ---- ------- ----- ---- -------<br>--- --- -- ----- -- --- ---- -- --- ---- -- ------ really<br>--- ----- -- ----,199605.89999997616,199604,199001.657,199007.39999997616,199018.073,199617.992,,51,really
screen,html.Screen,1_1_0_1_52,2022-04-24T08:42:16.056Z,,,,,,,,,,,,,,,,53,,,,,,,,,,,,,,582.207999928476,,response,,,,99,,,,,,,Space,keypress(Space),,,,,,,,---- -- ----- -- ------ - ------- --- ----------<br>------------- ------ ------ ---- ---- ------- ----- -- ----<br>-------- ------- -- ---------- --- - --- ----- ----- ----<br>---- --- --- ----- --- ---- ---- ------- ----- ---- -------<br>--- --- -- ----- -- --- ---- -- --- ---- -- ------ ------<br>not ----- -- ----,200202,200200.19999992847,199601.51,199606.19999992847,199617.992,200218.137,,52,not
screen,html.Screen,1_1_0_1_53,2022-04-24T08:42:16.606Z,,,,,,,,,,,,,,,,53,,,,,,,,,,,,,,531.9629999046447,,response,,,,99,,,,,,,Space,keypress(Space),,,,,,,,---- -- ----- -- ------ - ------- --- ----------<br>------------- ------ ------ ---- ---- ------- ----- -- ----<br>-------- ------- -- ---------- --- - --- ----- ----- ----<br>---- --- --- ----- --- ---- ---- ------- ----- ---- -------<br>--- --- -- ----- -- --- ---- -- --- ---- -- ------ ------<br>--- close -- ----,200751.89999997616,200750.09999990463,200201.722,200202.29999995232,200218.137,200768.098,,53,close
screen,html.Screen,1_1_0_1_54,2022-04-24T08:42:17.116Z,,,,,,,,,,,,,,,,53,,,,,,,,,,,,,,491.80199997616,,response,,,,99,,,,,,,Space,keypress(Space),,,,,,,,---- -- ----- -- ------ - ------- --- ----------<br>------------- ------ ------ ---- ---- ------- ----- -- ----<br>-------- ------- -- ---------- --- - --- ----- ----- ----<br>---- --- --- ----- --- ---- ---- ------- ----- ---- -------<br>--- --- -- ----- -- --- ---- -- --- ---- -- ------ ------<br>--- ----- at ----,201261.69999992847,201259.89999997616,200751.599,200752.29999995232,200768.098,201267.789,,54,at
screen,html.Screen,1_1_0_1_55,2022-04-24T08:42:17.669Z,,,,,,,,,,,,,,,,53,,,,,,,,,,,,,,545.1109999761684,,response,,,,99,,,,,,,Space,keypress(Space),,,,,,,,---- -- ----- -- ------ - ------- --- ----------<br>------------- ------ ------ ---- ---- ------- ----- -- ----<br>-------- ------- -- ---------- --- - --- ----- ----- ----<br>---- --- --- ----- --- ---- ---- ------- ----- ---- -------<br>--- --- -- ----- -- --- ---- -- --- ---- -- ------ ------<br>--- ----- -- all.,201814.89999997616,201812.89999997616,201251.376,201262.09999990463,201267.789,201851.045,,55,all.
Item 99,flow.Loop,1_1_0_1,2022-04-24T08:42:17.670Z,,,,,,,,,,,,,,,,,,,,,,,,,,,,,,44089.528999976144,,completion,,,,,A,,,,,,,,,,,silence,,,,,201815.69999992847,201812.89999997616,157656.717,157658.79999995232,157723.371,201851.045,,,
Question 1,html.Screen,1_1_0_2,2022-04-24T08:42:24.420Z,,,,,,,,,,,,,,,,,,,,,,,,,,,false,FALSE,,6712.154999928462,,response,,,,99,A,,,,,,TRUE,click #choice-1,,,,silence,,,,,208565.5,208563.19999992847,201839.626,201816,201851.045,208566.845,,,
Question 2,html.Screen,1_1_0_3,2022-04-24T08:42:30.956Z,,,,,,,,,,,,,,,,,,,,,,,,,,,false,TRUE,,6531.754999904631,,response,,,,99,A,,,,,,FALSE,click #choice-2,,,,silence,,,,,215101.19999992847,215098.59999990463,208550.55,208565.79999995232,208566.845,215116.029,,,
Item 99,flow.Sequence,1_1_0,2022-04-24T08:42:30.956Z,,,,,,,,,,,,,,,,,,,,,,,,,,,,,,67423.94099990462,,completion,,,,,,,,,,,,,,,,,,,,,215101.79999995232,215098.59999990463,147641.636,147659.79999995232,147674.659,215116.029,,,
Holding screen,html.Screen,1_1_1_0,2022-04-24T08:42:40.955Z,,,,,,,,,,,,,,,,,,,,,,,,,,,,,,9998.677999999985,,timeout,,,,,,,,,,,,,,,,,,,,,225100,225098.32,215099.298,215102.19999992847,215116.029,225114.707,,,
screen,html.Screen,1_1_1_1_0,2022-04-24T08:42:41.887Z,,,,,,,,,,,,,,,,54,,,,,,,,,,,,,,915.7930000000051,,response,,,,100,,,,,,,Space,keypress(Space),,,,,,,,At --- ---- --- ------ ----- ------- ---- -- --- ------- --<br>------- ---------- ------ -- ----- -- ----- -- ---- ------<br>--- ----- --- --- ------ -------- ----- --- ------ ----- --<br>----- ----- ---------- --- --- ------ ------ ---- -- ------<br>------- --- ------ ----- --- ---- ------- -- ---- --- --<br>------- ------,226032.79999995232,226030.5,225098.32,225100.5,225114.707,226064.827,,0,At
screen,html.Screen,1_1_1_1_1,2022-04-24T08:42:42.784Z,,,,,,,,,,,,,,,,54,,,,,,,,,,,,,,862.6730000000098,,response,,,,100,,,,,,,Space,keypress(Space),,,,,,,,-- the ---- --- ------ ----- ------- ---- -- --- ------- --<br>------- ---------- ------ -- ----- -- ----- -- ---- ------<br>--- ----- --- --- ------ -------- ----- --- ------ ----- --<br>----- ----- ---------- --- --- ------ ------ ---- -- ------<br>------- --- ------ ----- --- ---- ------- -- ---- --- --<br>------- ------,226929.5,226927.5,226048.136,226033.29999995232,226064.827,226957.683,,1,the
screen,html.Screen,1_1_1_1_2,2022-04-24T08:42:43.594Z,,,,,,,,,,,,,,,,54,,,,,,,,,,,,,,779.81700000001,,response,,,,100,,,,,,,Space,keypress(Space),,,,,,,,-- --- time --- ------ ----- ------- ---- -- --- ------- --<br>------- ---------- ------ -- ----- -- ----- -- ---- ------<br>--- ----- --- --- ------ -------- ----- --- ------ ----- --<br>----- ----- ---------- --- --- ------ ------ ---- -- ------<br>------- --- ------ ----- --- ---- ------- -- ---- --- --<br>------- ------,227739.5,227737.5,226914.813,226929.69999992847,226957.683,227747.741,,2,time
screen,html.Screen,1_1_1_1_3,2022-04-24T08:42:44.478Z,,,,,,,,,,,,,,,,54,,,,,,,,,,,,,,873.7589999999909,,response,,,,100,,,,,,,Space,keypress(Space),,,,,,,,-- --- ---- the ------ ----- ------- ---- -- --- ------- --<br>------- ---------- ------ -- ----- -- ----- -- ---- ------<br>--- ----- --- --- ------ -------- ----- --- ------ ----- --<br>----- ----- ---------- --- --- ------ ------ ---- -- ------<br>------- --- ------ ----- --- ---- ------- -- ---- --- --<br>------- ------,228623.29999995232,228621.5,227730.983,227739.89999997616,227747.741,228630.928,,3,the
screen,html.Screen,1_1_1_1_4,2022-04-24T08:42:45.204Z,,,,,,,,,,,,,,,,54,,,,,,,,,,,,,,716.77199992846,,response,,,,100,,,,,,,Space,keypress(Space),,,,,,,,-- --- ---- --- French ----- ------- ---- -- --- ------- --<br>------- ---------- ------ -- ----- -- ----- -- ---- ------<br>--- ----- --- --- ------ -------- ----- --- ------ ----- --<br>----- ----- ---------- --- --- ------ ------ ---- -- ------<br>------- --- ------ ----- --- ---- ------- -- ---- --- --<br>------- ------,229350,229347.69999992847,228614.442,228623.79999995232,228630.928,229364.177,,4,French
screen,html.Screen,1_1_1_1_5,2022-04-24T08:42:46.003Z,,,,,,,,,,,,,,,,54,,,,,,,,,,,,,,782.7229999761621,,response,,,,100,,,,,,,Space,keypress(Space),,,,,,,,-- --- ---- --- ------ crown ------- ---- -- --- ------- --<br>------- ---------- ------ -- ----- -- ----- -- ---- ------<br>--- ----- --- --- ------ -------- ----- --- ------ ----- --<br>----- ----- ---------- --- --- ------ ------ ---- -- ------<br>------- --- ------ ----- --- ---- ------- -- ---- --- --<br>------- ------,230148.69999992847,230146.89999997616,229347.196,229350.29999995232,229364.177,230164.381,,5,crown
screen,html.Screen,1_1_1_1_6,2022-04-24T08:42:46.698Z,,,,,,,,,,,,,,,,54,,,,,,,,,,,,,,677.119000000006,,response,,,,100,,,,,,,Space,keypress(Space),,,,,,,,-- --- ---- --- ------ ----- secured ---- -- --- ------- --<br>------- ---------- ------ -- ----- -- ----- -- ---- ------<br>--- ----- --- --- ------ -------- ----- --- ------ ----- --<br>----- ----- ---------- --- --- ------ ------ ---- -- ------<br>------- --- ------ ----- --- ---- ------- -- ---- --- --<br>------- ------,230843.39999997616,230841.5,230147.536,230149.09999990463,230164.381,230847.322,,6,secured
screen,html.Screen,1_1_1_1_7,2022-04-24T08:42:47.368Z,,,,,,,,,,,,,,,,54,,,,,,,,,,,,,,664.277999904647,,response,,,,100,,,,,,,Space,keypress(Space),,,,,,,,-- --- ---- --- ------ ----- ------- much -- --- ------- --<br>------- ---------- ------ -- ----- -- ----- -- ---- ------<br>--- ----- --- --- ------ -------- ----- --- ------ ----- --<br>----- ----- ---------- --- --- ------ ------ ---- -- ------<br>------- --- ------ ----- --- ---- ------- -- ---- --- --<br>------- ------,231513.5,231511.59999990463,230830.645,230843.79999995232,230847.322,231530.79,,7,much
screen,html.Screen,1_1_1_1_8,2022-04-24T08:42:48.072Z,,,,,,,,,,,,,,,,54,,,,,,,,,,,,,,684.7099999999919,,response,,,,100,,,,,,,Space,keypress(Space),,,,,,,,-- --- ---- --- ------ ----- ------- ---- of --- ------- --<br>------- ---------- ------ -- ----- -- ----- -- ---- ------<br>--- ----- --- --- ------ -------- ----- --- ------ ----- --<br>----- ----- ---------- --- --- ------ ------ ---- -- ------<br>------- --- ------ ----- --- ---- ------- -- ---- --- --<br>------- ------,232217.29999995232,232215.5,231514.376,231513.79999995232,231530.79,232230.479,,8,of
screen,html.Screen,1_1_1_1_9,2022-04-24T08:42:48.669Z,,,,,,,,,,,,,,,,54,,,,,,,,,,,,,,581.8209999523242,,response,,,,100,,,,,,,Space,keypress(Space),,,,,,,,-- --- ---- --- ------ ----- ------- ---- -- its ------- --<br>------- ---------- ------ -- ----- -- ----- -- ---- ------<br>--- ----- --- --- ------ -------- ----- --- ------ ----- --<br>----- ----- ---------- --- --- ------ ------ ---- -- ------<br>------- --- ------ ----- --- ---- ------- -- ---- --- --<br>------- ------,232814.19999992847,232812.29999995232,232213.878,232217.69999992847,232230.479,232830.427,,9,its
screen,html.Screen,1_1_1_1_10,2022-04-24T08:42:49.427Z,,,,,,,,,,,,,,,,54,,,,,,,,,,,,,,740.573000000004,,response,,,,100,,,,,,,Space,keypress(Space),,,,,,,,-- --- ---- --- ------ ----- ------- ---- -- --- revenue --<br>------- ---------- ------ -- ----- -- ----- -- ---- ------<br>--- ----- --- --- ------ -------- ----- --- ------ ----- --<br>----- ----- ---------- --- --- ------ ------ ---- -- ------<br>------- --- ------ ----- --- ---- ------- -- ---- --- --<br>------- ------,233572.79999995232,233571,232813.819,232814.59999990463,232830.427,233580.305,,10,revenue
screen,html.Screen,1_1_1_1_11,2022-04-24T08:42:50.082Z,,,,,,,,,,,,,,,,54,,,,,,,,,,,,,,645.195000000007,,response,,,,100,,,,,,,Space,keypress(Space),,,,,,,,-- --- ---- --- ------ ----- ------- ---- -- --- ------- by<br>------- ---------- ------ -- ----- -- ----- -- ---- ------<br>--- ----- --- --- ------ -------- ----- --- ------ ----- --<br>----- ----- ---------- --- --- ------ ------ ---- -- ------<br>------- --- ------ ----- --- ---- ------- -- ---- --- --<br>------- ------,234227.29999995232,234225.5,233563.882,233573.19999992847,233580.305,234230.218,,11,by
screen,html.Screen,1_1_1_1_12,2022-04-24T08:42:50.902Z,,,,,,,,,,,,,,,,54,,,,,,,,,,,,,,815.5819999523228,,response,,,,100,,,,,,,Space,keypress(Space),,,,,,,,-- --- ---- --- ------ ----- ------- ---- -- --- ------- --<br>issuing ---------- ------ -- ----- -- ----- -- ---- ------<br>--- ----- --- --- ------ -------- ----- --- ------ ----- --<br>----- ----- ---------- --- --- ------ ------ ---- -- ------<br>------- --- ------ ----- --- ---- ------- -- ---- --- --<br>------- ------,235047.69999992847,235045.79999995232,234213.521,234227.59999990463,234230.218,235063.753,,12,issuing
screen,html.Screen,1_1_1_1_13,2022-04-24T08:42:51.656Z,,,,,,,,,,,,,,,,54,,,,,,,,,,,,,,736.4469999284775,,response,,,,100,,,,,,,Space,keypress(Space),,,,,,,,-- --- ---- --- ------ ----- ------- ---- -- --- ------- --<br>------- government ------ -- ----- -- ----- -- ---- ------<br>--- ----- --- --- ------ -------- ----- --- ------ ----- --<br>----- ----- ---------- --- --- ------ ------ ---- -- ------<br>------- --- ------ ----- --- ---- ------- -- ---- --- --<br>------- ------,235801.89999997616,235800.19999992847,235047.753,235048,235063.753,235813.457,,13,government
screen,html.Screen,1_1_1_1_14,2022-04-24T08:42:52.542Z,,,,,,,,,,,,,,,,54,,,,,,,,,,,,,,871.7429999284795,,response,,,,100,,,,,,,Space,keypress(Space),,,,,,,,-- --- ---- --- ------ ----- ------- ---- -- --- ------- --<br>------- ---------- bonds. -- ----- -- ----- -- ---- ------<br>--- ----- --- --- ------ -------- ----- --- ------ ----- --<br>----- ----- ---------- --- --- ------ ------ ---- -- ------<br>------- --- ------ ----- --- ---- ------- -- ---- --- --<br>------- ------,236687,236685.19999992847,235797.155,235802.19999992847,235813.457,236696.598,,14,bonds.
screen,html.Screen,1_1_1_1_15,2022-04-24T08:42:53.360Z,,,,,,,,,,,,,,,,54,,,,,,,,,,,,,,806.9020000000019,,response,,,,100,,,,,,,Space,keypress(Space),,,,,,,,-- --- ---- --- ------ ----- ------- ---- -- --- ------- --<br>------- ---------- ------ In ----- -- ----- -- ---- ------<br>--- ----- --- --- ------ -------- ----- --- ------ ----- --<br>----- ----- ---------- --- --- ------ ------ ---- -- ------<br>------- --- ------ ----- --- ---- ------- -- ---- --- --<br>------- ------,237505.29999995232,237503.5,236680.078,236687.39999997616,236696.598,237513.155,,15,In
screen,html.Screen,1_1_1_1_16,2022-04-24T08:42:55.403Z,,,,,,,,,,,,,,,,54,,,,,,,,,,,,,,2032.9449999046337,,response,,,,100,,,,,,,Space,keypress(Space),,,,,,,,"-- --- ---- --- ------ ----- ------- ---- -- --- ------- --<br>------- ---------- ------ -- 1727, -- ----- -- ---- ------<br>--- ----- --- --- ------ -------- ----- --- ------ ----- --<br>----- ----- ---------- --- --- ------ ------ ---- -- ------<br>------- --- ------ ----- --- ---- ------- -- ---- --- --<br>------- ------",239548,239546.09999990463,237497.062,237505.59999990463,237513.155,239563.101,,16,"1727,"
screen,html.Screen,1_1_1_1_17,2022-04-24T08:42:56.089Z,,,,,,,,,,,,,,,,54,,,,,,,,,,,,,,669.4989999046375,,response,,,,100,,,,,,,Space,keypress(Space),,,,,,,,-- --- ---- --- ------ ----- ------- ---- -- --- ------- --<br>------- ---------- ------ -- ----- in ----- -- ---- ------<br>--- ----- --- --- ------ -------- ----- --- ------ ----- --<br>----- ----- ---------- --- --- ------ ------ ---- -- ------<br>------- --- ------ ----- --- ---- ------- -- ---- --- --<br>------- ------,240234.59999990463,240232.59999990463,239547.3,239548.19999992847,239563.101,240246.134,,17,in
screen,html.Screen,1_1_1_1_18,2022-04-24T08:42:56.838Z,,,,,,,,,,,,,,,,54,,,,,,,,,,,,,,735.4659999046416,,response,,,,100,,,,,,,Space,keypress(Space),,,,,,,,-- --- ---- --- ------ ----- ------- ---- -- --- ------- --<br>------- ---------- ------ -- ----- -- order -- ---- ------<br>--- ----- --- --- ------ -------- ----- --- ------ ----- --<br>----- ----- ---------- --- --- ------ ------ ---- -- ------<br>------- --- ------ ----- --- ---- ------- -- ---- --- --<br>------- ------,240983.5,240981.59999990463,240229.741,240235,240246.134,240996.021,,18,order
screen,html.Screen,1_1_1_1_19,2022-04-24T08:42:57.434Z,,,,,,,,,,,,,,,,54,,,,,,,,,,,,,,581.0789999046247,,response,,,,100,,,,,,,Space,keypress(Space),,,,,,,,-- --- ---- --- ------ ----- ------- ---- -- --- ------- --<br>------- ---------- ------ -- ----- -- ----- to ---- ------<br>--- ----- --- --- ------ -------- ----- --- ------ ----- --<br>----- ----- ---------- --- --- ------ ------ ---- -- ------<br>------- --- ------ ----- --- ---- ------- -- ---- --- --<br>------- ------,241578.89999997616,241577.09999990463,240979.193,240983.89999997616,240996.021,241596.203,,19,to
screen,html.Screen,1_1_1_1_20,2022-04-24T08:42:58.252Z,,,,,,,,,,,,,,,,54,,,,,,,,,,,,,,799.0969999523077,,response,,,,100,,,,,,,Space,keypress(Space),,,,,,,,-- --- ---- --- ------ ----- ------- ---- -- --- ------- --<br>------- ---------- ------ -- ----- -- ----- -- save ------<br>--- ----- --- --- ------ -------- ----- --- ------ ----- --<br>----- ----- ---------- --- --- ------ ------ ---- -- ------<br>------- --- ------ ----- --- ---- ------- -- ---- --- --<br>------- ------,242397.19999992847,242395.29999995232,241579.458,241579.29999995232,241596.203,242412.649,,20,save
screen,html.Screen,1_1_1_1_21,2022-04-24T08:42:59.002Z,,,,,,,,,,,,,,,,54,,,,,,,,,,,,,,732.4509999046277,,response,,,,100,,,,,,,Space,keypress(Space),,,,,,,,"-- --- ---- --- ------ ----- ------- ---- -- --- ------- --<br>------- ---------- ------ -- ----- -- ----- -- ---- money,<br>--- ----- --- --- ------ -------- ----- --- ------ ----- --<br>----- ----- ---------- --- --- ------ ------ ---- -- ------<br>------- --- ------ ----- --- ---- ------- -- ---- --- --<br>------- ------",243147.19999992847,243145.09999990463,242395.461,242397.5,242412.649,243162.492,,21,"money,"
screen,html.Screen,1_1_1_1_22,2022-04-24T08:42:59.693Z,,,,,,,,,,,,,,,,54,,,,,,,,,,,,,,673.6079999046342,,response,,,,100,,,,,,,Space,keypress(Space),,,,,,,,-- --- ---- --- ------ ----- ------- ---- -- --- ------- --<br>------- ---------- ------ -- ----- -- ----- -- ---- ------<br>the ----- --- --- ------ -------- ----- --- ------ ----- --<br>----- ----- ---------- --- --- ------ ------ ---- -- ------<br>------- --- ------ ----- --- ---- ------- -- ---- --- --<br>------- ------,243838,243836.09999990463,243146.09,243147.5,243162.492,243845.66,,22,the
screen,html.Screen,1_1_1_1_23,2022-04-24T08:43:00.426Z,,,,,,,,,,,,,,,,54,,,,,,,,,,,,,,723.8399999999965,,response,,,,100,,,,,,,Space,keypress(Space),,,,,,,,-- --- ---- --- ------ ----- ------- ---- -- --- ------- --<br>------- ---------- ------ -- ----- -- ----- -- ---- ------<br>--- state --- --- ------ -------- ----- --- ------ ----- --<br>----- ----- ---------- --- --- ------ ------ ---- -- ------<br>------- --- ------ ----- --- ---- ------- -- ---- --- --<br>------- ------,244571.39999997616,244569.5,243829.025,243838.39999997616,243845.66,244578.873,,23,state
screen,html.Screen,1_1_1_1_24,2022-04-24T08:43:01.044Z,,,,,,,,,,,,,,,,54,,,,,,,,,,,,,,608.2269999046403,,response,,,,100,,,,,,,Space,keypress(Space),,,,,,,,-- --- ---- --- ------ ----- ------- ---- -- --- ------- --<br>------- ---------- ------ -- ----- -- ----- -- ---- ------<br>--- ----- cut --- ------ -------- ----- --- ------ ----- --<br>----- ----- ---------- --- --- ------ ------ ---- -- ------<br>------- --- ------ ----- --- ---- ------- -- ---- --- --<br>------- ------,245189,245187.09999990463,244562.573,244571.69999992847,244578.873,245195.519,,24,cut
screen,html.Screen,1_1_1_1_25,2022-04-24T08:43:01.869Z,,,,,,,,,,,,,,,,54,,,,,,,,,,,,,,816.5809999046323,,response,,,,100,,,,,,,Space,keypress(Space),,,,,,,,-- --- ---- --- ------ ----- ------- ---- -- --- ------- --<br>------- ---------- ------ -- ----- -- ----- -- ---- ------<br>--- ----- --- the ------ -------- ----- --- ------ ----- --<br>----- ----- ---------- --- --- ------ ------ ---- -- ------<br>------- --- ------ ----- --- ---- ------- -- ---- --- --<br>------- ------,246014.09999990463,246012.09999990463,245178.92,245189.39999997616,245195.519,246028.717,,25,the
screen,html.Screen,1_1_1_1_26,2022-04-24T08:43:02.579Z,,,,,,,,,,,,,,,,54,,,,,,,,,,,,,,695.2829999999958,,response,,,,100,,,,,,,Space,keypress(Space),,,,,,,,-- --- ---- --- ------ ----- ------- ---- -- --- ------- --<br>------- ---------- ------ -- ----- -- ----- -- ---- ------<br>--- ----- --- --- bonds' -------- ----- --- ------ ----- --<br>----- ----- ---------- --- --- ------ ------ ---- -- ------<br>------- --- ------ ----- --- ---- ------- -- ---- --- --<br>------- ------,246724.89999997616,246724,246012.242,246014.39999997616,246028.717,246728.573,,26,bonds'
screen,html.Screen,1_1_1_1_27,2022-04-24T08:43:03.373Z,,,,,,,,,,,,,,,,54,,,,,,,,,,,,,,787.926999999996,,response,,,,100,,,,,,,Space,keypress(Space),,,,,,,,-- --- ---- --- ------ ----- ------- ---- -- --- ------- --<br>------- ---------- ------ -- ----- -- ----- -- ---- ------<br>--- ----- --- --- ------ interest ----- --- ------ ----- --<br>----- ----- ---------- --- --- ------ ------ ---- -- ------<br>------- --- ------ ----- --- ---- ------- -- ---- --- --<br>------- ------,247518.29999995232,247516.5,246712.172,246725.09999990463,246728.573,247528.56,,27,interest
screen,html.Screen,1_1_1_1_28,2022-04-24T08:43:04.238Z,,,,,,,,,,,,,,,,54,,,,,,,,,,,,,,852.6399999284768,,response,,,,100,,,,,,,Space,keypress(Space),,,,,,,,-- --- ---- --- ------ ----- ------- ---- -- --- ------- --<br>------- ---------- ------ -- ----- -- ----- -- ---- ------<br>--- ----- --- --- ------ -------- rate. --- ------ ----- --<br>----- ----- ---------- --- --- ------ ------ ---- -- ------<br>------- --- ------ ----- --- ---- ------- -- ---- --- --<br>------- ------,248383.19999992847,248381.19999992847,247511.742,247518.79999995232,247528.56,248394.999,,28,rate.
screen,html.Screen,1_1_1_1_29,2022-04-24T08:43:04.918Z,,,,,,,,,,,,,,,,54,,,,,,,,,,,,,,666.3009999523056,,response,,,,100,,,,,,,Space,keypress(Space),,,,,,,,-- --- ---- --- ------ ----- ------- ---- -- --- ------- --<br>------- ---------- ------ -- ----- -- ----- -- ---- ------<br>--- ----- --- --- ------ -------- ----- The ------ ----- --<br>----- ----- ---------- --- --- ------ ------ ---- -- ------<br>------- --- ------ ----- --- ---- ------- -- ---- --- --<br>------- ------,249063.29999995232,249061.29999995232,248379.454,248383.39999997616,248394.999,249078.309,,29,The
screen,html.Screen,1_1_1_1_30,2022-04-24T08:43:05.650Z,,,,,,,,,,,,,,,,54,,,,,,,,,,,,,,715.0909999761498,,response,,,,100,,,,,,,Space,keypress(Space),,,,,,,,-- --- ---- --- ------ ----- ------- ---- -- --- ------- --<br>------- ---------- ------ -- ----- -- ----- -- ---- ------<br>--- ----- --- --- ------ -------- ----- --- market ----- --<br>----- ----- ---------- --- --- ------ ------ ---- -- ------<br>------- --- ------ ----- --- ---- ------- -- ---- --- --<br>------- ------,249795.19999992847,249793.39999997616,249062.101,249063.5,249078.309,249811.78,,30,market
screen,html.Screen,1_1_1_1_31,2022-04-24T08:43:06.446Z,,,,,,,,,,,,,,,,54,,,,,,,,,,,,,,777.2200000000012,,response,,,,100,,,,,,,Space,keypress(Space),,,,,,,,-- --- ---- --- ------ ----- ------- ---- -- --- ------- --<br>------- ---------- ------ -- ----- -- ----- -- ---- ------<br>--- ----- --- --- ------ -------- ----- --- ------ value --<br>----- ----- ---------- --- --- ------ ------ ---- -- ------<br>------- --- ------ ----- --- ---- ------- -- ---- --- --<br>------- ------,250590.89999997616,250589,249795.07,249795.69999992847,249811.78,250594.79,,31,value
screen,html.Screen,1_1_1_1_32,2022-04-24T08:43:07.110Z,,,,,,,,,,,,,,,,54,,,,,,,,,,,,,,658.5099999523081,,response,,,,100,,,,,,,Space,keypress(Space),,,,,,,,-- --- ---- --- ------ ----- ------- ---- -- --- ------- --<br>------- ---------- ------ -- ----- -- ----- -- ---- ------<br>--- ----- --- --- ------ -------- ----- --- ------ ----- of<br>----- ----- ---------- --- --- ------ ------ ---- -- ------<br>------- --- ------ ----- --- ---- ------- -- ---- --- --<br>------- ------,251255.29999995232,251253.29999995232,250578.699,250591.19999992847,250594.79,251261.38,,32,of
screen,html.Screen,1_1_1_1_33,2022-04-24T08:43:07.753Z,,,,,,,,,,,,,,,,54,,,,,,,,,,,,,,635.4199999523116,,response,,,,100,,,,,,,Space,keypress(Space),,,,,,,,-- --- ---- --- ------ ----- ------- ---- -- --- ------- --<br>------- ---------- ------ -- ----- -- ----- -- ---- ------<br>--- ----- --- --- ------ -------- ----- --- ------ ----- --<br>these ----- ---------- --- --- ------ ------ ---- -- ------<br>------- --- ------ ----- --- ---- ------- -- ---- --- --<br>------- ------,251898.59999990463,251896.79999995232,251244.995,251255.79999995232,251261.38,251911.294,,33,these
screen,html.Screen,1_1_1_1_34,2022-04-24T08:43:08.506Z,,,,,,,,,,,,,,,,54,,,,,,,,,,,,,,737.8059999046382,,response,,,,100,,,,,,,Space,keypress(Space),,,,,,,,-- --- ---- --- ------ ----- ------- ---- -- --- ------- --<br>------- ---------- ------ -- ----- -- ----- -- ---- ------<br>--- ----- --- --- ------ -------- ----- --- ------ ----- --<br>----- bonds ---------- --- --- ------ ------ ---- -- ------<br>------- --- ------ ----- --- ---- ------- -- ---- --- --<br>------- ------,252650.89999997616,252649.09999990463,251894.91,251899,251911.294,252661.227,,34,bonds
screen,html.Screen,1_1_1_1_35,2022-04-24T08:43:09.333Z,,,,,,,,,,,,,,,,54,,,,,,,,,,,,,,814.9729999284609,,response,,,,100,,,,,,,Space,keypress(Space),,,,,,,,"-- --- ---- --- ------ ----- ------- ---- -- --- ------- --<br>------- ---------- ------ -- ----- -- ----- -- ---- ------<br>--- ----- --- --- ------ -------- ----- --- ------ ----- --<br>----- ----- plummeted, --- --- ------ ------ ---- -- ------<br>------- --- ------ ----- --- ---- ------- -- ---- --- --<br>------- ------",253478.09999990463,253476.19999992847,252644.237,252651.19999992847,252661.227,253494.677,,35,"plummeted,"
screen,html.Screen,1_1_1_1_36,2022-04-24T08:43:09.939Z,,,,,,,,,,,,,,,,54,,,,,,,,,,,,,,587.7229999761621,,response,,,,100,,,,,,,Space,keypress(Space),,,,,,,,-- --- ---- --- ------ ----- ------- ---- -- --- ------- --<br>------- ---------- ------ -- ----- -- ----- -- ---- ------<br>--- ----- --- --- ------ -------- ----- --- ------ ----- --<br>----- ----- ---------- and --- ------ ------ ---- -- ------<br>------- --- ------ ----- --- ---- ------- -- ---- --- --<br>------- ------,254084.29999995232,254082.39999997616,253477.928,253478.5,253494.677,254094.35,,36,and
screen,html.Screen,1_1_1_1_37,2022-04-24T08:43:10.551Z,,,,,,,,,,,,,,,,54,,,,,,,,,,,,,,599.8499999284686,,response,,,,100,,,,,,,Space,keypress(Space),,,,,,,,-- --- ---- --- ------ ----- ------- ---- -- --- ------- --<br>------- ---------- ------ -- ----- -- ----- -- ---- ------<br>--- ----- --- --- ------ -------- ----- --- ------ ----- --<br>----- ----- ---------- --- the ------ ------ ---- -- ------<br>------- --- ------ ----- --- ---- ------- -- ---- --- --<br>------- ------,254696,254694.19999992847,254077.465,254084.69999992847,254094.35,254711.018,,37,the
screen,html.Screen,1_1_1_1_38,2022-04-24T08:43:11.493Z,,,,,,,,,,,,,,,,54,,,,,,,,,,,,,,925.5819999046216,,response,,,,100,,,,,,,Space,keypress(Space),,,,,,,,-- --- ---- --- ------ ----- ------- ---- -- --- ------- --<br>------- ---------- ------ -- ----- -- ----- -- ---- ------<br>--- ----- --- --- ------ -------- ----- --- ------ ----- --<br>----- ----- ---------- --- --- market ------ ---- -- ------<br>------- --- ------ ----- --- ---- ------- -- ---- --- --<br>------- ------,255638.39999997616,255636.59999990463,254694.545,254696.39999997616,254711.018,255644.154,,38,market
screen,html.Screen,1_1_1_1_39,2022-04-24T08:43:12.139Z,,,,,,,,,,,,,,,,54,,,,,,,,,,,,,,637.8459999999905,,response,,,,100,,,,,,,Space,keypress(Space),,,,,,,,-- --- ---- --- ------ ----- ------- ---- -- --- ------- --<br>------- ---------- ------ -- ----- -- ----- -- ---- ------<br>--- ----- --- --- ------ -------- ----- --- ------ ----- --<br>----- ----- ---------- --- --- ------ became ---- -- ------<br>------- --- ------ ----- --- ---- ------- -- ---- --- --<br>------- ------,256284.19999992847,256282,255627.386,255638.79999995232,255644.154,256294.159,,39,became
screen,html.Screen,1_1_1_1_40,2022-04-24T08:43:12.926Z,,,,,,,,,,,,,,,,54,,,,,,,,,,,,,,774.9409999046184,,response,,,,100,,,,,,,Space,keypress(Space),,,,,,,,-- --- ---- --- ------ ----- ------- ---- -- --- ------- --<br>------- ---------- ------ -- ----- -- ----- -- ---- ------<br>--- ----- --- --- ------ -------- ----- --- ------ ----- --<br>----- ----- ---------- --- --- ------ ------ wary -- ------<br>------- --- ------ ----- --- ---- ------- -- ---- --- --<br>------- ------,257070.89999997616,257069.09999990463,256277.717,256284.5,256294.159,257077.283,,40,wary
screen,html.Screen,1_1_1_1_41,2022-04-24T08:43:13.395Z,,,,,,,,,,,,,,,,54,,,,,,,,,,,,,,460.9169999284786,,response,,,,100,,,,,,,Space,keypress(Space),,,,,,,,-- --- ---- --- ------ ----- ------- ---- -- --- ------- --<br>------- ---------- ------ -- ----- -- ----- -- ---- ------<br>--- ----- --- --- ------ -------- ----- --- ------ ----- --<br>----- ----- ---------- --- --- ------ ------ ---- of ------<br>------- --- ------ ----- --- ---- ------- -- ---- --- --<br>------- ------,257540,257538.19999992847,257060.673,257071.29999995232,257077.283,257543.906,,41,of
screen,html.Screen,1_1_1_1_42,2022-04-24T08:43:14.037Z,,,,,,,,,,,,,,,,54,,,,,,,,,,,,,,636.7939999284863,,response,,,,100,,,,,,,Space,keypress(Space),,,,,,,,-- --- ---- --- ------ ----- ------- ---- -- --- ------- --<br>------- ---------- ------ -- ----- -- ----- -- ---- ------<br>--- ----- --- --- ------ -------- ----- --- ------ ----- --<br>----- ----- ---------- --- --- ------ ------ ---- -- French<br>------- --- ------ ----- --- ---- ------- -- ---- --- --<br>------- ------,258182.5,258180.69999992847,257527.348,257540.29999995232,257543.906,258193.808,,42,French
screen,html.Screen,1_1_1_1_43,2022-04-24T08:43:14.767Z,,,,,,,,,,,,,,,,54,,,,,,,,,,,,,,715.9919999523263,,response,,,,100,,,,,,,Space,keypress(Space),,,,,,,,-- --- ---- --- ------ ----- ------- ---- -- --- ------- --<br>------- ---------- ------ -- ----- -- ----- -- ---- ------<br>--- ----- --- --- ------ -------- ----- --- ------ ----- --<br>----- ----- ---------- --- --- ------ ------ ---- -- ------<br>credit. --- ------ ----- --- ---- ------- -- ---- --- --<br>------- ------,258911.79999995232,258909.79999995232,258177.366,258182.89999997616,258193.808,258927.209,,43,credit.
screen,html.Screen,1_1_1_1_44,2022-04-24T08:43:16.084Z,,,,,,,,,,,,,,,,54,,,,,,,,,,,,,,1299.9909999284719,,response,,,,100,,,,,,,Space,keypress(Space),,,,,,,,-- --- ---- --- ------ ----- ------- ---- -- --- ------- --<br>------- ---------- ------ -- ----- -- ----- -- ---- ------<br>--- ----- --- --- ------ -------- ----- --- ------ ----- --<br>----- ----- ---------- --- --- ------ ------ ---- -- ------<br>------- The ------ ----- --- ---- ------- -- ---- --- --<br>------- ------,260228.89999997616,260227.19999992847,258910.524,258912.09999990463,258927.209,260243.556,,44,The
screen,html.Screen,1_1_1_1_45,2022-04-24T08:43:16.915Z,,,,,,,,,,,,,,,,54,,,,,,,,,,,,,,814.643999928463,,response,,,,100,,,,,,,Space,keypress(Space),,,,,,,,-- --- ---- --- ------ ----- ------- ---- -- --- ------- --<br>------- ---------- ------ -- ----- -- ----- -- ---- ------<br>--- ----- --- --- ------ -------- ----- --- ------ ----- --<br>----- ----- ---------- --- --- ------ ------ ---- -- ------<br>------- --- French ----- --- ---- ------- -- ---- --- --<br>------- ------,261060.09999990463,261058.19999992847,260228.379,260229.19999992847,260243.556,261077.002,,45,French
screen,html.Screen,1_1_1_1_46,2022-04-24T08:43:17.594Z,,,,,,,,,,,,,,,,54,,,,,,,,,,,,,,660.8979999761505,,response,,,,100,,,,,,,Space,keypress(Space),,,,,,,,-- --- ---- --- ------ ----- ------- ---- -- --- ------- --<br>------- ---------- ------ -- ----- -- ----- -- ---- ------<br>--- ----- --- --- ------ -------- ----- --- ------ ----- --<br>----- ----- ---------- --- --- ------ ------ ---- -- ------<br>------- --- ------ state --- ---- ------- -- ---- --- --<br>------- ------,261739.69999992847,261737.89999997616,261060.62,261060.5,261077.002,261743.364,,46,state
screen,html.Screen,1_1_1_1_47,2022-04-24T08:43:18.885Z,,,,,,,,,,,,,,,,54,,,,,,,,,,,,,,1284.6359999999986,,response,,,,100,,,,,,,Space,keypress(Space),,,,,,,,-- --- ---- --- ------ ----- ------- ---- -- --- ------- --<br>------- ---------- ------ -- ----- -- ----- -- ---- ------<br>--- ----- --- --- ------ -------- ----- --- ------ ----- --<br>----- ----- ---------- --- --- ------ ------ ---- -- ------<br>------- --- ------ ----- was ---- ------- -- ---- --- --<br>------- ------,263029.7999999523,263028,261726.872,261740.09999990463,261743.364,263043.2,,47,was
screen,html.Screen,1_1_1_1_48,2022-04-24T08:43:19.442Z,,,,,,,,,,,,,,,,54,,,,,,,,,,,,,,542.6999999761465,,response,,,,100,,,,,,,Space,keypress(Space),,,,,,,,-- --- ---- --- ------ ----- ------- ---- -- --- ------- --<br>------- ---------- ------ -- ----- -- ----- -- ---- ------<br>--- ----- --- --- ------ -------- ----- --- ------ ----- --<br>----- ----- ---------- --- --- ------ ------ ---- -- ------<br>------- --- ------ ----- --- left ------- -- ---- --- --<br>------- ------,263587.59999990463,263585.89999997616,263027.362,263030.1999999285,263043.2,263593.114,,48,left
screen,html.Screen,1_1_1_1_49,2022-04-24T08:43:20.288Z,,,,,,,,,,,,,,,,54,,,,,,,,,,,,,,838.6859999523149,,response,,,,100,,,,,,,Space,keypress(Space),,,,,,,,-- --- ---- --- ------ ----- ------- ---- -- --- ------- --<br>------- ---------- ------ -- ----- -- ----- -- ---- ------<br>--- ----- --- --- ------ -------- ----- --- ------ ----- --<br>----- ----- ---------- --- --- ------ ------ ---- -- ------<br>------- --- ------ ----- --- ---- without -- ---- --- --<br>------- ------,264433.59999990463,264431.7999999523,263576.886,263588,263593.114,264443.196,,49,without
screen,html.Screen,1_1_1_1_50,2022-04-24T08:43:21.097Z,,,,,,,,,,,,,,,,54,,,,,,,,,,,,,,797.3040000000037,,response,,,,100,,,,,,,Space,keypress(Space),,,,,,,,-- --- ---- --- ------ ----- ------- ---- -- --- ------- --<br>------- ---------- ------ -- ----- -- ----- -- ---- ------<br>--- ----- --- --- ------ -------- ----- --- ------ ----- --<br>----- ----- ---------- --- --- ------ ------ ---- -- ------<br>------- --- ------ ----- --- ---- ------- an ---- --- --<br>------- ------,265242.2999999523,265240.5,264426.666,264434,264443.196,265259.622,,50,an
screen,html.Screen,1_1_1_1_51,2022-04-24T08:43:21.688Z,,,,,,,,,,,,,,,,54,,,,,,,,,,,,,,572.1779999523424,,response,,,,100,,,,,,,Space,keypress(Space),,,,,,,,-- --- ---- --- ------ ----- ------- ---- -- --- ------- --<br>------- ---------- ------ -- ----- -- ----- -- ---- ------<br>--- ----- --- --- ------ -------- ----- --- ------ ----- --<br>----- ----- ---------- --- --- ------ ------ ---- -- ------<br>------- --- ------ ----- --- ---- ------- -- easy --- --<br>------- ------,265833.59999990463,265831.7999999523,265242.718,265242.6999999285,265259.622,265842.988,,51,easy
screen,html.Screen,1_1_1_1_52,2022-04-24T08:43:22.327Z,,,,,,,,,,,,,,,,54,,,,,,,,,,,,,,627.911999976146,,response,,,,100,,,,,,,Space,keypress(Space),,,,,,,,-- --- ---- --- ------ ----- ------- ---- -- --- ------- --<br>------- ---------- ------ -- ----- -- ----- -- ---- ------<br>--- ----- --- --- ------ -------- ----- --- ------ ----- --<br>----- ----- ---------- --- --- ------ ------ ---- -- ------<br>------- --- ------ ----- --- ---- ------- -- ---- way --<br>------- ------,266472.6999999285,266470.89999997616,265826.355,265833.89999997616,265842.988,266476.1,,52,way
screen,html.Screen,1_1_1_1_53,2022-04-24T08:43:22.902Z,,,,,,,,,,,,,,,,54,,,,,,,,,,,,,,569.1999999523396,,response,,,,100,,,,,,,Space,keypress(Space),,,,,,,,-- --- ---- --- ------ ----- ------- ---- -- --- ------- --<br>------- ---------- ------ -- ----- -- ----- -- ---- ------<br>--- ----- --- --- ------ -------- ----- --- ------ ----- --<br>----- ----- ---------- --- --- ------ ------ ---- -- ------<br>------- --- ------ ----- --- ---- ------- -- ---- --- of<br>------- ------,267047.1999999285,267045.2999999523,266459.004,266473,266476.1,267059.352,,53,of
screen,html.Screen,1_1_1_1_54,2022-04-24T08:43:23.555Z,,,,,,,,,,,,,,,,54,,,,,,,,,,,,,,638.8479999284609,,response,,,,100,,,,,,,Space,keypress(Space),,,,,,,,-- --- ---- --- ------ ----- ------- ---- -- --- ------- --<br>------- ---------- ------ -- ----- -- ----- -- ---- ------<br>--- ----- --- --- ------ -------- ----- --- ------ ----- --<br>----- ----- ---------- --- --- ------ ------ ---- -- ------<br>------- --- ------ ----- --- ---- ------- -- ---- --- --<br>raising ------,267699.89999997616,267698.1999999285,267042.961,267047.5,267059.352,267709.35,,54,raising
screen,html.Screen,1_1_1_1_55,2022-04-24T08:43:24.028Z,,,,,,,,,,,,,,,,54,,,,,,,,,,,,,,461.6500000000233,,response,,,,100,,,,,,,Space,keypress(Space),,,,,,,,-- --- ---- --- ------ ----- ------- ---- -- --- ------- --<br>------- ---------- ------ -- ----- -- ----- -- ---- ------<br>--- ----- --- --- ------ -------- ----- --- ------ ----- --<br>----- ----- ---------- --- --- ------ ------ ---- -- ------<br>------- --- ------ ----- --- ---- ------- -- ---- --- --<br>------- money.,268172.7999999523,268171,267692.61,267700.2999999523,267709.35,268195.425,,55,money.
Item 100,flow.Loop,1_1_1_1,2022-04-24T08:43:24.028Z,,,,,,,,,,,,,,,,,,,,,,,,,,,,,,43056.293000000005,,completion,,,,,A,,,,,,,,,,,silence,,,,,268173.39999997616,268171,225098.32,225100.39999997616,225114.707,268195.425,,,
Question 1,html.Screen,1_1_1_2,2022-04-24T08:43:26.914Z,,,,,,,,,,,,,,,,,,,,,,,,,,,true,TRUE,,2861.0750000000116,,response,,,,100,A,,,,,,TRUE,click #choice-1,,,,silence,,,,,271058.7999999523,271056.5,268159.49,268173.7999999523,268195.425,271079.616,,,
Question 2,html.Screen,1_1_1_3,2022-04-24T08:43:29.354Z,,,,,,,,,,,,,,,,,,,,,,,,,,,true,FALSE,,2417.4839999046526,,response,,,,100,A,,,,,,FALSE,click #choice-2,,,,silence,,,,,273499.1999999285,273497.09999990463,271042.386,271059.1999999285,271079.616,273508.536,,,
Item 100,flow.Sequence,1_1_1,2022-04-24T08:43:29.355Z,,,,,,,,,,,,,,,,,,,,,,,,,,,,,,58381.07099990462,,completion,,,,,,,,,,,,,,,,,,,,,273499.7999999523,273497.09999990463,215099.298,215102.09999990463,215116.029,273508.536,,,
End of Practice,html.Page,1_1_2,2022-04-24T08:43:32.786Z,,,,,,,,,,,,,,,,,,,,,,,,,,,,,,3421.8639999761363,,form submission,,,,,,,,,,,,,,,,,,,,,276931.5,276930.39999997616,273492.022,273500.09999990463,273508.536,276941.43,,,
Practice,flow.Sequence,1_1,2022-04-24T08:43:32.787Z,,,,,,,,,,,,,,,,,,,,,,,,,,,,,,129255.74099997614,,completion,,,,,,,,,,,,,,,,,,,,,276932.09999990463,276930.39999997616,147641.636,147659.69999992847,147674.659,276941.43,,,
Trap_instruction,html.Page,1_2_0,2022-04-24T08:43:37.690Z,,,,,,,,,,,,,,,,,,,,,,,,,,,,,,4892.269999928481,,form submission,,,,,,,,,,,,,,,,,,,,,281834.6999999285,281833.6999999285,276924.931,276932.5,276941.43,281890.8,,,
trap_trial,html.Screen,1_2_1,2022-04-24T08:43:48.884Z,,,,,,,,,,,,,,,,,,,,,,,,,,,true,1,,11136.299999904644,,response,,,,,,,,,,,1,click #choice-1,,,,,,,,,293029.59999990463,293027.09999990463,281824.403,281835.09999990463,281890.8,293039.382,,,
end of trap trial,html.Page,1_2_2,2022-04-24T08:43:51.387Z,,,,,,,,,,,,,,,,,,,,,,,,,,,,,,2492.1180000000168,,form submission,,,,,,,,,,,,,,,,,,,,,295532.5,295531.5,293023.095,293030.09999990463,293039.382,295539.048,,,
Trap 1,flow.Sequence,1_2,2022-04-24T08:43:51.388Z,,,,,,,,,,,,,,,,,,,,,,,,,,,,,,18590.070000000007,,completion,,,,,,,,,,,,,,,,,,,,,295533,295531.5,276924.931,276932.39999997616,276941.43,295539.048,,,
Standby,html.Page,1_3_0,2022-04-24T08:43:59.378Z,,,,,,,,,,,,,,,,,,,,,,,,,,,,,,7998.902000000002,,timeout,,,,,,,,,,,,,,,,,,,,,303523,303521.56,295522.399,295533.39999997616,295539.048,303537.95,,,
Holding screen,html.Screen,1_3_1_0_0,2022-04-24T08:44:06.379Z,,,,,,,,,,,,,,,,,,,,,,,,,,,,,,6999.191999999981,,timeout,,,,,,,,,,,,,,,,,,,,,310524.39999997616,310520.645,303521.56,303523.59999990463,303537.95,310537.142,,,
screen,html.Screen,1_3_1_0_1_0,2022-04-24T08:44:07.786Z,,,,,,,,,,,,,,,,48,,,,,,,,,,,,,,1391.1579999523237,,response,,,,10,A,,,,,,Space,keypress(Space),,,,silence,,,,As -- --- ------ ------- --------- ----------- --------<br>--------- -------- --- ------- -- ------- ---- -- ------<br>-- --- -------- -------- ---------- ---- ---- ---- ------<br>-- --------- -- ---- -- --- -- --- ------- -- - -----<br>---------- -- -- -- ---- ----- -- ------ -- --- ------<br>-------,311930.89999997616,311928.2999999523,310520.645,310525,310537.142,311936.938,,0,As
screen,html.Screen,1_3_1_0_1_1,2022-04-24T08:44:08.775Z,,,,,,,,,,,,,,,,48,,,,,,,,,,,,,,981.1619999046088,,response,,,,10,A,,,,,,Space,keypress(Space),,,,silence,,,,-- in --- ------ ------- --------- ----------- --------<br>--------- -------- --- ------- -- ------- ---- -- ------<br>-- --- -------- -------- ---------- ---- ---- ---- ------<br>-- --------- -- ---- -- --- -- --- ------- -- - -----<br>---------- -- -- -- ---- ----- -- ------ -- --- ------<br>-------,312920,312918.09999990463,311920.5,311931.39999997616,311936.938,312937.06,,1,in
screen,html.Screen,1_3_1_0_1_2,2022-04-24T08:44:09.625Z,,,,,,,,,,,,,,,,48,,,,,,,,,,,,,,831.5399999046349,,response,,,,10,A,,,,,,Space,keypress(Space),,,,silence,,,,-- -- the ------ ------- --------- ----------- --------<br>--------- -------- --- ------- -- ------- ---- -- ------<br>-- --- -------- -------- ---------- ---- ---- ---- ------<br>-- --------- -- ---- -- --- -- --- ------- -- - -----<br>---------- -- -- -- ---- ----- -- ------ -- --- ------<br>-------,313770.5,313768.59999990463,312919.895,312920.5,312937.06,313786.722,,2,the
screen,html.Screen,1_3_1_0_1_3,2022-04-24T08:44:10.314Z,,,,,,,,,,,,,,,,48,,,,,,,,,,,,,,670.0779999523074,,response,,,,10,A,,,,,,Space,keypress(Space),,,,silence,,,,-- -- --- United ------- --------- ----------- --------<br>--------- -------- --- ------- -- ------- ---- -- ------<br>-- --- -------- -------- ---------- ---- ---- ---- ------<br>-- --------- -- ---- -- --- -- --- ------- -- - -----<br>---------- -- -- -- ---- ----- -- ------ -- --- ------<br>-------,314458.7999999523,314456.7999999523,313770.827,313770.7999999523,313786.722,314469.922,,3,United
screen,html.Screen,1_3_1_0_1_4,2022-04-24T08:44:11.152Z,,,,,,,,,,,,,,,,48,,,,,,,,,,,,,,825.2779999284539,,response,,,,10,A,,,,,,Space,keypress(Space),,,,silence,,,,"-- -- --- ------ States, --------- ----------- --------<br>--------- -------- --- ------- -- ------- ---- -- ------<br>-- --- -------- -------- ---------- ---- ---- ---- ------<br>-- --------- -- ---- -- --- -- --- ------- -- - -----<br>---------- -- -- -- ---- ----- -- ------ -- --- ------<br>-------",315297,315295.1999999285,314453.413,314459,314469.922,315303.15,,4,"States,"
screen,html.Screen,1_3_1_0_1_5,2022-04-24T08:44:12.165Z,,,,,,,,,,,,,,,,48,,,,,,,,,,,,,,1005.149999952293,,response,,,,10,A,,,,,,Space,keypress(Space),,,,silence,,,,-- -- --- ------ ------- Colombian ----------- --------<br>--------- -------- --- ------- -- ------- ---- -- ------<br>-- --- -------- -------- ---------- ---- ---- ---- ------<br>-- --------- -- ---- -- --- -- --- ------- -- - -----<br>---------- -- -- -- ---- ----- -- ------ -- --- ------<br>-------,316310.1999999285,316308.2999999523,315286.503,315297.2999999523,315303.15,316319.708,,5,Colombian
screen,html.Screen,1_3_1_0_1_6,2022-04-24T08:44:13.002Z,,,,,,,,,,,,,,,,48,,,,,,,,,,,,,,825.8919999046484,,response,,,,10,A,,,,,,Space,keypress(Space),,,,silence,,,,-- -- --- ------ ------- --------- legislation --------<br>--------- -------- --- ------- -- ------- ---- -- ------<br>-- --- -------- -------- ---------- ---- ---- ---- ------<br>-- --------- -- ---- -- --- -- --- ------- -- - -----<br>---------- -- -- -- ---- ----- -- ------ -- --- ------<br>-------,317147.5,317145.59999990463,316302.759,316310.5,316319.708,317152.941,,6,legislation
screen,html.Screen,1_3_1_0_1_7,2022-04-24T08:44:13.965Z,,,,,,,,,,,,,,,,48,,,,,,,,,,,,,,955.2589999284828,,response,,,,10,A,,,,,,Space,keypress(Space),,,,silence,,,,-- -- --- ------ ------- --------- ----------- requires<br>--------- -------- --- ------- -- ------- ---- -- ------<br>-- --- -------- -------- ---------- ---- ---- ---- ------<br>-- --------- -- ---- -- --- -- --- ------- -- - -----<br>---------- -- -- -- ---- ----- -- ------ -- --- ------<br>-------,318110,318108.1999999285,317136.257,317147.89999997616,317152.941,318119.476,,7,requires
screen,html.Screen,1_3_1_0_1_8,2022-04-24T08:44:14.843Z,,,,,,,,,,,,,,,,48,,,,,,,,,,,,,,866.8239999522921,,response,,,,10,A,,,,,,Space,keypress(Space),,,,silence,,,,-- -- --- ------ ------- --------- ----------- --------<br>travelers -------- --- ------- -- ------- ---- -- ------<br>-- --- -------- -------- ---------- ---- ---- ---- ------<br>-- --------- -- ---- -- --- -- --- ------- -- - -----<br>---------- -- -- -- ---- ----- -- ------ -- --- ------<br>-------,318988.09999990463,318986.2999999523,318103.125,318110.2999999523,318119.476,319002.692,,8,travelers
screen,html.Screen,1_3_1_0_1_9,2022-04-24T08:44:15.836Z,,,,,,,,,,,,,,,,48,,,,,,,,,,,,,,976.5079999284935,,response,,,,10,A,,,,,,Space,keypress(Space),,,,silence,,,,-- -- --- ------ ------- --------- ----------- --------<br>--------- entering --- ------- -- ------- ---- -- ------<br>-- --- -------- -------- ---------- ---- ---- ---- ------<br>-- --------- -- ---- -- --- -- --- ------- -- - -----<br>---------- -- -- -- ---- ----- -- ------ -- --- ------<br>-------,319981.1999999285,319979.1999999285,318985.601,318988.5,319002.692,319985.904,,9,entering
screen,html.Screen,1_3_1_0_1_10,2022-04-24T08:44:16.404Z,,,,,,,,,,,,,,,,48,,,,,,,,,,,,,,561.295999928494,,response,,,,10,A,,,,,,Space,keypress(Space),,,,silence,,,,-- -- --- ------ ------- --------- ----------- --------<br>--------- -------- the ------- -- ------- ---- -- ------<br>-- --- -------- -------- ---------- ---- ---- ---- ------<br>-- --------- -- ---- -- --- -- --- ------- -- - -----<br>---------- -- -- -- ---- ----- -- ------ -- --- ------<br>-------,320549.1999999285,320547.1999999285,319969.442,319981.5,319985.904,320552.491,,10,the
screen,html.Screen,1_3_1_0_1_11,2022-04-24T08:44:16.944Z,,,,,,,,,,,,,,,,48,,,,,,,,,,,,,,534.4089999761782,,response,,,,10,A,,,,,,Space,keypress(Space),,,,silence,,,,-- -- --- ------ ------- --------- ----------- --------<br>--------- -------- --- country -- ------- ---- -- ------<br>-- --- -------- -------- ---------- ---- ---- ---- ------<br>-- --------- -- ---- -- --- -- --- ------- -- - -----<br>---------- -- -- -- ---- ----- -- ------ -- --- ------<br>-------,321088.6999999285,321086.89999997616,320535.707,320549.59999990463,320552.491,321102.441,,11,country
screen,html.Screen,1_3_1_0_1_12,2022-04-24T08:44:17.741Z,,,,,,,,,,,,,,,,48,,,,,,,,,,,,,,782.3589999523247,,response,,,,10,A,,,,,,Space,keypress(Space),,,,silence,,,,-- -- --- ------ ------- --------- ----------- --------<br>--------- -------- --- ------- to ------- ---- -- ------<br>-- --- -------- -------- ---------- ---- ---- ---- ------<br>-- --------- -- ---- -- --- -- --- ------- -- - -----<br>---------- -- -- -- ---- ----- -- ------ -- --- ------<br>-------,321886.59999990463,321884.7999999523,321086.001,321089.1999999285,321102.441,321902.372,,12,to
screen,html.Screen,1_3_1_0_1_13,2022-04-24T08:44:18.366Z,,,,,,,,,,,,,,,,48,,,,,,,,,,,,,,606.6280000000261,,response,,,,10,A,,,,,,Space,keypress(Space),,,,silence,,,,-- -- --- ------ ------- --------- ----------- --------<br>--------- -------- --- ------- -- declare ---- -- ------<br>-- --- -------- -------- ---------- ---- ---- ---- ------<br>-- --------- -- ---- -- --- -- --- ------- -- - -----<br>---------- -- -- -- ---- ----- -- ------ -- --- ------<br>-------,322510.89999997616,322509,321885.654,321887,321902.372,322518.908,,13,declare
screen,html.Screen,1_3_1_0_1_14,2022-04-24T08:44:19.180Z,,,,,,,,,,,,,,,,48,,,,,,,,,,,,,,804.2919999284786,,response,,,,10,A,,,,,,Space,keypress(Space),,,,silence,,,,-- -- --- ------ ------- --------- ----------- --------<br>--------- -------- --- ------- -- ------- cash -- ------<br>-- --- -------- -------- ---------- ---- ---- ---- ------<br>-- --------- -- ---- -- --- -- --- ------- -- - -----<br>---------- -- -- -- ---- ----- -- ------ -- --- ------<br>-------,323325,323323.1999999285,322502.536,322511.2999999523,322518.908,323335.444,,14,cash
screen,html.Screen,1_3_1_0_1_15,2022-04-24T08:44:19.796Z,,,,,,,,,,,,,,,,48,,,,,,,,,,,,,,603.5559999999823,,response,,,,10,A,,,,,,Space,keypress(Space),,,,silence,,,,-- -- --- ------ ------- --------- ----------- --------<br>--------- -------- --- ------- -- ------- ---- in ------<br>-- --- -------- -------- ---------- ---- ---- ---- ------<br>-- --------- -- ---- -- --- -- --- ------- -- - -----<br>---------- -- -- -- ---- ----- -- ------ -- --- ------<br>-------,323940.7999999523,323939,323318.84,323325.39999997616,323335.444,323952.077,,15,in
screen,html.Screen,1_3_1_0_1_16,2022-04-24T08:44:20.534Z,,,,,,,,,,,,,,,,48,,,,,,,,,,,,,,724.9230000000098,,response,,,,10,A,,,,,,Space,keypress(Space),,,,silence,,,,-- -- --- ------ ------- --------- ----------- --------<br>--------- -------- --- ------- -- ------- ---- -- excess<br>-- --- -------- -------- ---------- ---- ---- ---- ------<br>-- --------- -- ---- -- --- -- --- ------- -- - -----<br>---------- -- -- -- ---- ----- -- ------ -- --- ------<br>-------,324678.89999997616,324677,323935.474,323941.2999999523,323952.077,324685.267,,16,excess
screen,html.Screen,1_3_1_0_1_17,2022-04-24T08:44:21.188Z,,,,,,,,,,,,,,,,48,,,,,,,,,,,,,,645.83299990464,,response,,,,10,A,,,,,,Space,keypress(Space),,,,silence,,,,-- -- --- ------ ------- --------- ----------- --------<br>--------- -------- --- ------- -- ------- ---- -- ------<br>of --- -------- -------- ---------- ---- ---- ---- ------<br>-- --------- -- ---- -- --- -- --- ------- -- - -----<br>---------- -- -- -- ---- ----- -- ------ -- --- ------<br>-------,325333,325331.09999990463,324668.862,324679.1999999285,324685.267,325353.998,,17,of
screen,html.Screen,1_3_1_0_1_18,2022-04-24T08:44:22.195Z,,,,,,,,,,,,,,,,48,,,,,,,,,,,,,,984.201999928453,,response,,,,10,A,,,,,,Space,keypress(Space),,,,silence,,,,-- -- --- ------ ------- --------- ----------- --------<br>--------- -------- --- ------- -- ------- ---- -- ------<br>-- ten -------- -------- ---------- ---- ---- ---- ------<br>-- --------- -- ---- -- --- -- --- ------- -- - -----<br>---------- -- -- -- ---- ----- -- ------ -- --- ------<br>-------,326340.09999990463,326338.1999999285,325318.337,325333.2999999523,325353.998,326351.751,,18,ten
screen,html.Screen,1_3_1_0_1_19,2022-04-24T08:44:22.854Z,,,,,,,,,,,,,,,,48,,,,,,,,,,,,,,645.3489999046433,,response,,,,10,A,,,,,,Space,keypress(Space),,,,silence,,,,-- -- --- ------ ------- --------- ----------- --------<br>--------- -------- --- ------- -- ------- ---- -- ------<br>-- --- thousand -------- ---------- ---- ---- ---- ------<br>-- --------- -- ---- -- --- -- --- ------- -- - -----<br>---------- -- -- -- ---- ----- -- ------ -- --- ------<br>-------,326999,326997.09999990463,326335.988,326340.2999999523,326351.751,327001.659,,19,thousand
screen,html.Screen,1_3_1_0_1_20,2022-04-24T08:44:23.632Z,,,,,,,,,,,,,,,,48,,,,,,,,,,,,,,774.0409999284893,,response,,,,10,A,,,,,,Space,keypress(Space),,,,silence,,,,-- -- --- ------ ------- --------- ----------- --------<br>--------- -------- --- ------- -- ------- ---- -- ------<br>-- --- -------- dollars. ---------- ---- ---- ---- ------<br>-- --------- -- ---- -- --- -- --- ------- -- - -----<br>---------- -- -- -- ---- ----- -- ------ -- --- ------<br>-------,327777.59999990463,327775.6999999285,326985.147,326999.39999997616,327001.659,327784.926,,20,dollars.
screen,html.Screen,1_3_1_0_1_21,2022-04-24T08:44:24.749Z,,,,,,,,,,,,,,,,48,,,,,,,,,,,,,,1107.7739999284968,,response,,,,10,A,,,,,,Space,keypress(Space),,,,silence,,,,-- -- --- ------ ------- --------- ----------- --------<br>--------- -------- --- ------- -- ------- ---- -- ------<br>-- --- -------- -------- Concealing ---- ---- ---- ------<br>-- --------- -- ---- -- --- -- --- ------- -- - -----<br>---------- -- -- -- ---- ----- -- ------ -- --- ------<br>-------,328894.5,328892.6999999285,327768.462,327777.89999997616,327784.926,328901.427,,21,Concealing
screen,html.Screen,1_3_1_0_1_22,2022-04-24T08:44:25.336Z,,,,,,,,,,,,,,,,48,,,,,,,,,,,,,,577.2729999284493,,response,,,,10,A,,,,,,Space,keypress(Space),,,,silence,,,,-- -- --- ------ ------- --------- ----------- --------<br>--------- -------- --- ------- -- ------- ---- -- ------<br>-- --- -------- -------- ---------- more ---- ---- ------<br>-- --------- -- ---- -- --- -- --- ------- -- - -----<br>---------- -- -- -- ---- ----- -- ------ -- --- ------<br>-------,329480.89999997616,329478.6999999285,328884.669,328894.7999999523,328901.427,329484.687,,22,more
screen,html.Screen,1_3_1_0_1_23,2022-04-24T08:44:26.026Z,,,,,,,,,,,,,,,,48,,,,,,,,,,,,,,684.2129999761819,,response,,,,10,A,,,,,,Space,keypress(Space),,,,silence,,,,-- -- --- ------ ------- --------- ----------- --------<br>--------- -------- --- ------- -- ------- ---- -- ------<br>-- --- -------- -------- ---------- ---- than ---- ------<br>-- --------- -- ---- -- --- -- --- ------- -- - -----<br>---------- -- -- -- ---- ----- -- ------ -- --- ------<br>-------,330170.7999999523,330168.89999997616,329467.993,329481.1999999285,329484.687,330184.588,,23,than
screen,html.Screen,1_3_1_0_1_24,2022-04-24T08:44:26.644Z,,,,,,,,,,,,,,,,48,,,,,,,,,,,,,,603.2119999523275,,response,,,,10,A,,,,,,Space,keypress(Space),,,,silence,,,,-- -- --- ------ ------- --------- ----------- --------<br>--------- -------- --- ------- -- ------- ---- -- ------<br>-- --- -------- -------- ---------- ---- ---- that ------<br>-- --------- -- ---- -- --- -- --- ------- -- - -----<br>---------- -- -- -- ---- ----- -- ------ -- --- ------<br>-------,330789.59999990463,330787.7999999523,330168.472,330171.1999999285,330184.588,330801.162,,24,that
screen,html.Screen,1_3_1_0_1_25,2022-04-24T08:44:27.209Z,,,,,,,,,,,,,,,,48,,,,,,,,,,,,,,551.6379999523051,,response,,,,10,A,,,,,,Space,keypress(Space),,,,silence,,,,-- -- --- ------ ------- --------- ----------- --------<br>--------- -------- --- ------- -- ------- ---- -- ------<br>-- --- -------- -------- ---------- ---- ---- ---- amount<br>-- --------- -- ---- -- --- -- --- ------- -- - -----<br>---------- -- -- -- ---- ----- -- ------ -- --- ------<br>-------,331354.6999999285,331352.7999999523,330784.334,330790,330801.162,331367.778,,25,amount
screen,html.Screen,1_3_1_0_1_26,2022-04-24T08:44:27.990Z,,,,,,,,,,,,,,,,48,,,,,,,,,,,,,,765.9219999284833,,response,,,,10,A,,,,,,Space,keypress(Space),,,,silence,,,,-- -- --- ------ ------- --------- ----------- --------<br>--------- -------- --- ------- -- ------- ---- -- ------<br>-- --- -------- -------- ---------- ---- ---- ---- ------<br>to --------- -- ---- -- --- -- --- ------- -- - -----<br>---------- -- -- -- ---- ----- -- ------ -- --- ------<br>-------,332135.5,332133.6999999285,331351.294,331355,331367.778,332151.027,,26,to
screen,html.Screen,1_3_1_0_1_27,2022-04-24T08:44:28.700Z,,,,,,,,,,,,,,,,48,,,,,,,,,,,,,,691.6729999284726,,response,,,,10,A,,,,,,Space,keypress(Space),,,,silence,,,,-- -- --- ------ ------- --------- ----------- --------<br>--------- -------- --- ------- -- ------- ---- -- ------<br>-- --- -------- -------- ---------- ---- ---- ---- ------<br>-- transport -- ---- -- --- -- --- ------- -- - -----<br>---------- -- -- -- ---- ----- -- ------ -- --- ------<br>-------,332844.6999999285,332842.6999999285,332134.077,332135.7999999523,332151.027,332850.899,,27,transport
screen,html.Screen,1_3_1_0_1_28,2022-04-24T08:44:29.314Z,,,,,,,,,,,,,,,,48,,,,,,,,,,,,,,606.8009999284986,,response,,,,10,A,,,,,,Space,keypress(Space),,,,silence,,,,-- -- --- ------ ------- --------- ----------- --------<br>--------- -------- --- ------- -- ------- ---- -- ------<br>-- --- -------- -------- ---------- ---- ---- ---- ------<br>-- --------- it ---- -- --- -- --- ------- -- - -----<br>---------- -- -- -- ---- ----- -- ------ -- --- ------<br>-------,333459.59999990463,333457.6999999285,332834.573,332845.1999999285,332850.899,333484.427,,28,it
screen,html.Screen,1_3_1_0_1_29,2022-04-24T08:44:30.059Z,,,,,,,,,,,,,,,,48,,,,,,,,,,,,,,717.6729999046074,,response,,,,10,A,,,,,,Space,keypress(Space),,,,silence,,,,-- -- --- ------ ------- --------- ----------- --------<br>--------- -------- --- ------- -- ------- ---- -- ------<br>-- --- -------- -------- ---------- ---- ---- ---- ------<br>-- --------- -- into -- --- -- --- ------- -- - -----<br>---------- -- -- -- ---- ----- -- ------ -- --- ------<br>-------,334204.1999999285,334202.09999990463,333450.886,333460,333484.427,334217.416,,29,into
screen,html.Screen,1_3_1_0_1_30,2022-04-24T08:44:30.766Z,,,,,,,,,,,,,,,,48,,,,,,,,,,,,,,691.683999904606,,response,,,,10,A,,,,,,Space,keypress(Space),,,,silence,,,,-- -- --- ------ ------- --------- ----------- --------<br>--------- -------- --- ------- -- ------- ---- -- ------<br>-- --- -------- -------- ---------- ---- ---- ---- ------<br>-- --------- -- ---- or --- -- --- ------- -- - -----<br>---------- -- -- -- ---- ----- -- ------ -- --- ------<br>-------,334911.09999990463,334909.09999990463,334201.089,334204.59999990463,334217.416,334917.303,,30,or
screen,html.Screen,1_3_1_0_1_31,2022-04-24T08:44:31.305Z,,,,,,,,,,,,,,,,48,,,,,,,,,,,,,,530.6969999999856,,response,,,,10,A,,,,,,Space,keypress(Space),,,,silence,,,,-- -- --- ------ ------- --------- ----------- --------<br>--------- -------- --- ------- -- ------- ---- -- ------<br>-- --- -------- -------- ---------- ---- ---- ---- ------<br>-- --------- -- ---- -- out -- --- ------- -- - -----<br>---------- -- -- -- ---- ----- -- ------ -- --- ------<br>-------,335449.89999997616,335448,334900.722,334911.2999999523,334917.303,335467.476,,31,out
screen,html.Screen,1_3_1_0_1_32,2022-04-24T08:44:31.831Z,,,,,,,,,,,,,,,,48,,,,,,,,,,,,,,507.2239999284502,,response,,,,10,A,,,,,,Space,keypress(Space),,,,silence,,,,-- -- --- ------ ------- --------- ----------- --------<br>--------- -------- --- ------- -- ------- ---- -- ------<br>-- --- -------- -------- ---------- ---- ---- ---- ------<br>-- --------- -- ---- -- --- of --- ------- -- - -----<br>---------- -- -- -- ---- ----- -- ------ -- --- ------<br>-------,335976.5,335974.6999999285,335450.678,335450.2999999523,335467.476,335983.853,,32,of
screen,html.Screen,1_3_1_0_1_33,2022-04-24T08:44:32.320Z,,,,,,,,,,,,,,,,48,,,,,,,,,,,,,,479.84699992847163,,response,,,,10,A,,,,,,Space,keypress(Space),,,,silence,,,,-- -- --- ------ ------- --------- ----------- --------<br>--------- -------- --- ------- -- ------- ---- -- ------<br>-- --- -------- -------- ---------- ---- ---- ---- ------<br>-- --------- -- ---- -- --- -- the ------- -- - -----<br>---------- -- -- -- ---- ----- -- ------ -- --- ------<br>-------,336465.59999990463,336463.6999999285,335967.395,335976.89999997616,335983.853,336484.016,,33,the
screen,html.Screen,1_3_1_0_1_34,2022-04-24T08:44:32.942Z,,,,,,,,,,,,,,,,48,,,,,,,,,,,,,,601.283999952313,,response,,,,10,A,,,,,,Space,keypress(Space),,,,silence,,,,-- -- --- ------ ------- --------- ----------- --------<br>--------- -------- --- ------- -- ------- ---- -- ------<br>-- --- -------- -------- ---------- ---- ---- ---- ------<br>-- --------- -- ---- -- --- -- --- country -- - -----<br>---------- -- -- -- ---- ----- -- ------ -- --- ------<br>-------,337087.09999990463,337085.2999999523,336450.489,336465.89999997616,336484.016,337100.371,,34,country
screen,html.Screen,1_3_1_0_1_35,2022-04-24T08:44:33.423Z,,,,,,,,,,,,,,,,48,,,,,,,,,,,,,,466.5289999761735,,response,,,,10,A,,,,,,Space,keypress(Space),,,,silence,,,,-- -- --- ------ ------- --------- ----------- --------<br>--------- -------- --- ------- -- ------- ---- -- ------<br>-- --- -------- -------- ---------- ---- ---- ---- ------<br>-- --------- -- ---- -- --- -- --- ------- is - -----<br>---------- -- -- -- ---- ----- -- ------ -- --- ------<br>-------,337567.7999999523,337566.89999997616,337084.33,337087.59999990463,337100.371,337583.618,,35,is
screen,html.Screen,1_3_1_0_1_36,2022-04-24T08:44:33.853Z,,,,,,,,,,,,,,,,48,,,,,,,,,,,,,,412.38199999998324,,response,,,,10,A,,,,,,Space,keypress(Space),,,,silence,,,,-- -- --- ------ ------- --------- ----------- --------<br>--------- -------- --- ------- -- ------- ---- -- ------<br>-- --- -------- -------- ---------- ---- ---- ---- ------<br>-- --------- -- ---- -- --- -- --- ------- -- a -----<br>---------- -- -- -- ---- ----- -- ------ -- --- ------<br>-------,337997.7999999523,337996,337566.931,337567.89999997616,337583.618,338024.497,,36,a
screen,html.Screen,1_3_1_0_1_37,2022-04-24T08:44:34.458Z,,,,,,,,,,,,,,,,48,,,,,,,,,,,,,,577.2029999285005,,response,,,,10,A,,,,,,Space,keypress(Space),,,,silence,,,,-- -- --- ------ ------- --------- ----------- --------<br>--------- -------- --- ------- -- ------- ---- -- ------<br>-- --- -------- -------- ---------- ---- ---- ---- ------<br>-- --------- -- ---- -- --- -- --- ------- -- - crime<br>---------- -- -- -- ---- ----- -- ------ -- --- ------<br>-------,338603.59999990463,338601.6999999285,337983.763,337998.1999999285,338024.497,338616.844,,37,crime
screen,html.Screen,1_3_1_0_1_38,2022-04-24T08:44:35.295Z,,,,,,,,,,,,,,,,48,,,,,,,,,,,,,,821.6560000000172,,response,,,,10,A,,,,,,Space,keypress(Space),,,,silence,,,,-- -- --- ------ ------- --------- ----------- --------<br>--------- -------- --- ------- -- ------- ---- -- ------<br>-- --- -------- -------- ---------- ---- ---- ---- ------<br>-- --------- -- ---- -- --- -- --- ------- -- - -----<br>punishable -- -- -- ---- ----- -- ------ -- --- ------<br>-------,339440.5,339438.5,338600.044,338604,338616.844,339450.288,,38,punishable
screen,html.Screen,1_3_1_0_1_39,2022-04-24T08:44:35.762Z,,,,,,,,,,,,,,,,48,,,,,,,,,,,,,,455.3119999046321,,response,,,,10,A,,,,,,Space,keypress(Space),,,,silence,,,,-- -- --- ------ ------- --------- ----------- --------<br>--------- -------- --- ------- -- ------- ---- -- ------<br>-- --- -------- -------- ---------- ---- ---- ---- ------<br>-- --------- -- ---- -- --- -- --- ------- -- - -----<br>---------- by -- -- ---- ----- -- ------ -- --- ------<br>-------,339907.5,339905.59999990463,339433.415,339440.89999997616,339450.288,339916.681,,39,by
screen,html.Screen,1_3_1_0_1_40,2022-04-24T08:44:36.247Z,,,,,,,,,,,,,,,,48,,,,,,,,,,,,,,473.618999952334,,response,,,,10,A,,,,,,Space,keypress(Space),,,,silence,,,,-- -- --- ------ ------- --------- ----------- --------<br>--------- -------- --- ------- -- ------- ---- -- ------<br>-- --- -------- -------- ---------- ---- ---- ---- ------<br>-- --------- -- ---- -- --- -- --- ------- -- - -----<br>---------- -- up -- ---- ----- -- ------ -- --- ------<br>-------,340392.2999999523,340390.2999999523,339900.344,339907.89999997616,339916.681,340399.954,,40,up
screen,html.Screen,1_3_1_0_1_41,2022-04-24T08:44:37.265Z,,,,,,,,,,,,,,,,48,,,,,,,,,,,,,,1008.4459999761311,,response,,,,10,A,,,,,,Space,keypress(Space),,,,silence,,,,-- -- --- ------ ------- --------- ----------- --------<br>--------- -------- --- ------- -- ------- ---- -- ------<br>-- --- -------- -------- ---------- ---- ---- ---- ------<br>-- --------- -- ---- -- --- -- --- ------- -- - -----<br>---------- -- -- to ---- ----- -- ------ -- --- ------<br>-------,341410.1999999285,341408.39999997616,340383.027,340392.59999990463,340399.954,341416.488,,41,to
screen,html.Screen,1_3_1_0_1_42,2022-04-24T08:44:37.929Z,,,,,,,,,,,,,,,,48,,,,,,,,,,,,,,655.911999976146,,response,,,,10,A,,,,,,Space,keypress(Space),,,,silence,,,,-- -- --- ------ ------- --------- ----------- --------<br>--------- -------- --- ------- -- ------- ---- -- ------<br>-- --- -------- -------- ---------- ---- ---- ---- ------<br>-- --------- -- ---- -- --- -- --- ------- -- - -----<br>---------- -- -- -- five ----- -- ------ -- --- ------<br>-------,342074.1999999285,342072.39999997616,341399.991,341410.59999990463,341416.488,342083.071,,42,five
screen,html.Screen,1_3_1_0_1_43,2022-04-24T08:44:38.514Z,,,,,,,,,,,,,,,,48,,,,,,,,,,,,,,573.72899995232,,response,,,,10,A,,,,,,Space,keypress(Space),,,,silence,,,,-- -- --- ------ ------- --------- ----------- --------<br>--------- -------- --- ------- -- ------- ---- -- ------<br>-- --- -------- -------- ---------- ---- ---- ---- ------<br>-- --------- -- ---- -- --- -- --- ------- -- - -----<br>---------- -- -- -- ---- years -- ------ -- --- ------<br>-------,342658.6999999285,342656.7999999523,342066.213,342074.59999990463,342083.071,342666.331,,43,years
screen,html.Screen,1_3_1_0_1_44,2022-04-24T08:44:39.189Z,,,,,,,,,,,,,,,,48,,,,,,,,,,,,,,665.768999904627,,response,,,,10,A,,,,,,Space,keypress(Space),,,,silence,,,,-- -- --- ------ ------- --------- ----------- --------<br>--------- -------- --- ------- -- ------- ---- -- ------<br>-- --- -------- -------- ---------- ---- ---- ---- ------<br>-- --------- -- ---- -- --- -- --- ------- -- - -----<br>---------- -- -- -- ---- ----- in ------ -- --- ------<br>-------,343333.89999997616,343332.09999990463,342649.734,342659.09999990463,342666.331,343349.829,,44,in
