sender,sender_type,sender_id,timestamp,meta,,Blues,Classical,Country,Dance,Electronic,Folk,Gospel,Hip-Hop,Jazz,Latin,Musical/Film,New-age,Pop,Provo_ID,R&B,Rap,Reggae,Religious,Rock,Soul,Swing,Traditional,age,artist_name,correct,correctResponse,distraction,duration,education,ended_on,familiarity,gender,headphone_check_performance,item,list,music_frequency,offensiveness,pleasantness,position_correct,preference,response,response_action,snippet_file,song_name,song_rating,sound,stimulus_1,stimulus_2,stimulus_3,text,time_commit,time_end,time_render,time_run,time_show,time_switch,url,word,word_ID
Introduction,html.Screen,0_0,2022-05-03T12:09:04.731Z,"{""labjs_version"":""20.2.2"",""labjs_build"":{""flavor"":""production"",""commit"":""a25486e0c714a0ae2ce03ff94b7bb6896854dcfa""},""location"":""https://run.pavlovia.org/mvasilev/music_f/"",""userAgent"":""Mozilla/5.0 (Macintosh; Intel Mac OS X 10_15_7) AppleWebKit/605.1.15 (KHTML, like Gecko) Version/15.3 Safari/605.1.15"",""platform"":""MacIntel"",""language"":""en-GB"",""locale"":""en-GB"",""timeZone"":""Europe/London"",""timezoneOffset"":-60,""screen_width"":1440,""screen_height"":900,""scroll_width"":1440,""scroll_height"":772,""window_innerWidth"":1440,""window_innerHeight"":820,""devicePixelRatio"":2}",,,,,,,,,,,,,,,,,,,,,,,,,,,,,47494,,response,,,,,,,,,,,continue,click button,,,,,,,,,50661,50709,3215,3207,3231,50682,{},,
Volume calibration,html.Screen,0_1,2022-05-03T12:09:30.685Z,,,,,,,,,,,,,,,,,,,,,,,,,,,,,,26004,,response,,,,,,,,,,,continue,click button,,,,,,,,,76616,76669,50665,50661,50682,76635,,,
Task instructions,html.Screen,0_2,2022-05-03T12:09:42.318Z,,,,,,,,,,,,,,,,,,,,,,,,,,,,,,11697,,response,,,,,,,,,,,continue,click button,,,,,,,,,88249,88315,76618,76616,76635,88277,,,
Sounds,html.Screen,0_3_0_0,2022-05-03T12:09:46.565Z,,,,,,,,,,,,,,,,,,,,,,,,,,,,,,4225,,timeout,,,,,,,,,3,,,,,,,,I,O,S,,92496,92495,88261,88249,88277,92502,,,
Judgement,html.Screen,0_3_0_1,2022-05-03T12:09:48.282Z,,,,,,,,,,,,,,,,,,,,,,,,,,,true,3,,1775,,response,,,,,,,,,3,,3,click #choice-3,,,,,I,O,S,,94214,94270,92495,92496,92502,94242,,,
Trial,flow.Sequence,0_3_0,2022-05-03T12:09:48.282Z,,,,,,,,,,,,,,,,,,,,,,,,,,,,,,5993,,completion,,,,,,,,,3,,,,,,,,I,O,S,,94214,94270,88261,88249,88277,94242,,,
Sounds,html.Screen,0_3_1_0,2022-05-03T12:09:52.540Z,,,,,,,,,,,,,,,,,,,,,,,,,,,,,,4235,,timeout,,,,,,,,,2,,,,,,,,O,S,I,,98472.00000000001,98471,94226,94214,94242,98477,,,
Judgement,html.Screen,0_3_1_1,2022-05-03T12:09:53.335Z,,,,,,,,,,,,,,,,,,,,,,,,,,,true,2,,860,,response,,,,,,,,,2,,2,click #choice-2,,,,,O,S,I,,99267,99331,98471,98472.00000000001,98477,99296,,,
Trial,flow.Sequence,0_3_1,2022-05-03T12:09:53.336Z,,,,,,,,,,,,,,,,,,,,,,,,,,,,,,5089,,completion,,,,,,,,,2,,,,,,,,O,S,I,,99268,99331,94226,94214,94242,99296,,,
Sounds,html.Screen,0_3_2_0,2022-05-03T12:09:57.599Z,,,,,,,,,,,,,,,,,,,,,,,,,,,,,,4252,,timeout,,,,,,,,,1,,,,,,,,S,O,I,,103531,103531,99279,99268,99296,103548,,,
Judgement,html.Screen,0_3_2_1,2022-05-03T12:09:58.275Z,,,,,,,,,,,,,,,,,,,,,,,,,,,true,1,,728,,response,,,,,,,,,1,,1,click #choice-1,,,,,S,O,I,,104207.00000000001,104259,103531,103532,103548,104226,,,
Trial,flow.Sequence,0_3_2,2022-05-03T12:09:58.275Z,,,,,,,,,,,,,,,,,,,,,,,,,,,,,,4963,,completion,,,,,,,,,1,,,,,,,,S,O,I,,104208,104259,99279,99268,99296,104226,,,
Sounds,html.Screen,0_3_3_0,2022-05-03T12:10:02.524Z,,,,,,,,,,,,,,,,,,,,,,,,,,,,,,4245,,timeout,,,,,,,,,3,,,,,,,,O,I,S,,108456,108454,104210,104208,104226,108471,,,
Judgement,html.Screen,0_3_3_1,2022-05-03T12:10:03.078Z,,,,,,,,,,,,,,,,,,,,,,,,,,,true,3,,619.0000000000146,,response,,,,,,,,,3,,3,click #choice-3,,,,,O,I,S,,109010,109073.00000000001,108454,108457.00000000001,108471,109037,,,
Trial,flow.Sequence,0_3_3,2022-05-03T12:10:03.078Z,,,,,,,,,,,,,,,,,,,,,,,,,,,,,,4847.000000000015,,completion,,,,,,,,,3,,,,,,,,O,I,S,,109011,109073.00000000001,104210,104208,104226,109037,,,
Sounds,html.Screen,0_3_4_0,2022-05-03T12:10:07.338Z,,,,,,,,,,,,,,,,,,,,,,,,,,,,,,4250,,timeout,,,,,,,,,1,,,,,,,,S,I,O,,113270,113270,109021,109011,109037,113287,,,
Judgement,html.Screen,0_3_4_1,2022-05-03T12:10:08.028Z,,,,,,,,,,,,,,,,,,,,,,,,,,,true,1,,745,,response,,,,,,,,,1,,1,click #choice-1,,,,,S,I,O,,113961,114015,113270,113270,113287,113989,,,
Trial,flow.Sequence,0_3_4,2022-05-03T12:10:08.029Z,,,,,,,,,,,,,,,,,,,,,,,,,,,,,,4978,,completion,,,,,,,,,1,,,,,,,,S,I,O,,113961,114015,109021,109011,109037,113989,,,
Sounds,html.Screen,0_3_5_0,2022-05-03T12:10:12.294Z,,,,,,,,,,,,,,,,,,,,,,,,,,,,,,4254,,timeout,,,,,,,,,2,,,,,,,,I,S,O,,118226,118226,113973,113961,113989,118243,,,
Judgement,html.Screen,0_3_5_1,2022-05-03T12:10:12.721Z,,,,,,,,,,,,,,,,,,,,,,,,,,,true,2,,496.00000000001455,,response,,,,,,,,,2,,2,click #choice-2,,,,,I,S,O,,118654,118722.00000000001,118226,118226,118243,118684,,,
Trial,flow.Sequence,0_3_5,2022-05-03T12:10:12.721Z,,,,,,,,,,,,,,,,,,,,,,,,,,,,,,4733.000000000015,,completion,,,,,,,,,2,,,,,,,,I,S,O,,118654,118722.00000000001,113973,113961,113989,118684,,,
Task,flow.Loop,0_3,2022-05-03T12:10:12.724Z,,,,,,,,,,,,,,,,,,,,,,,,,,,,,,30445.000000000015,,completion,,,1,,,,,,,,,,,,,,,,,,118656,118722.00000000001,88261,88249,88277,118684,,,
Trap,html.Screen,0_4,2022-05-03T12:10:12.725Z,,,,,,,,,,,,,,,,,,,,,,,,,,,,,,NaN,,skipped,,,,,,,,,,,,,,,,,,,,,118657,118722.00000000001,,118657,,118684,,,
Thanks,html.Screen,0_5,2022-05-03T12:10:28.674Z,,,,,,,,,,,,,,,,,,,,,,,,,,,,,,16001,,response,,,,,,,,,,,continue,click button,,,,,,,,,134608,134668,118667,118657,118684,136017,,,
Headphone screening,flow.Sequence,0,2022-05-03T12:10:28.674Z,,,,,,,,,,,,,,,,,,,,,,,,,,,,,,131437,,completion,,,,,,,,,,,,,,,,,,,,,134608,134668,3215,3207,3231,136017,,,
Instructions,html.Page,1_0,2022-05-03T12:11:05.646Z,,,,,,,,,,,,,,,,,,,,,,,,,,,,,,35563,,form submission,,,,,,,,,,,,,,,,,,,,,171581.00000000003,171580,136015,135993,136017,171604,,,
Holding screen,html.Screen,1_1_0_0,2022-05-03T12:11:15.651Z,,,,,,,,,,,,,,,,,,,,,,,,,,,,,,9999,,timeout,,,,,,,,,,,,,,,,,,,,,181586,181586,171587,171581.00000000003,171604,181603,,,
screen,html.Screen,1_1_0_1_0,2022-05-03T12:11:17.007Z,,,,,,,,,,,,,,,,53,,,,,,,,,,,,,,1430,,response,,,,99,,,,,,,Space,keypress(Space),,,,,,,,When -- ----- -- ------ - ------- --- ----------<br>------------- ------ ------ ---- ---- ------- ----- -- ----<br>-------- ------- -- ---------- --- - --- ----- ----- ----<br>---- --- --- ----- --- ---- ---- ------- ----- ---- -------<br>--- --- -- ----- -- --- ---- -- --- ---- -- ------ ------<br>--- ----- -- ----,182943,183016,181586,181587.00000000003,181603,182980,,0,When
screen,html.Screen,1_1_0_1_1,2022-05-03T12:11:17.763Z,,,,,,,,,,,,,,,,53,,,,,,,,,,,,,,811,,response,,,,99,,,,,,,Space,keypress(Space),,,,,,,,---- it ----- -- ------ - ------- --- ----------<br>------------- ------ ------ ---- ---- ------- ----- -- ----<br>-------- ------- -- ---------- --- - --- ----- ----- ----<br>---- --- --- ----- --- ---- ---- ------- ----- ---- -------<br>--- --- -- ----- -- --- ---- -- --- ---- -- ------ ------<br>--- ----- -- ----,183699,183773,182962,182943,182980,183726,,1,it
screen,html.Screen,1_1_0_1_2,2022-05-03T12:11:18.734Z,,,,,,,,,,,,,,,,53,,,,,,,,,,,,,,1034,,response,,,,99,,,,,,,Space,keypress(Space),,,,,,,,---- -- comes -- ------ - ------- --- ----------<br>------------- ------ ------ ---- ---- ------- ----- -- ----<br>-------- ------- -- ---------- --- - --- ----- ----- ----<br>---- --- --- ----- --- ---- ---- ------- ----- ---- -------<br>--- --- -- ----- -- --- ---- -- --- ---- -- ------ ------<br>--- ----- -- ----,184669,184744,183710,183699,183726,184692,,2,comes
screen,html.Screen,1_1_0_1_3,2022-05-03T12:11:19.231Z,,,,,,,,,,,,,,,,53,,,,,,,,,,,,,,566,,response,,,,99,,,,,,,Space,keypress(Space),,,,,,,,---- -- ----- to ------ - ------- --- ----------<br>------------- ------ ------ ---- ---- ------- ----- -- ----<br>-------- ------- -- ---------- --- - --- ----- ----- ----<br>---- --- --- ----- --- ---- ---- ------- ----- ---- -------<br>--- --- -- ----- -- --- ---- -- --- ---- -- ------ ------<br>--- ----- -- ----,185167,185241,184675,184670.00000000003,184692,185190,,3,to
screen,html.Screen,1_1_0_1_4,2022-05-03T12:11:20.054Z,,,,,,,,,,,,,,,,53,,,,,,,,,,,,,,890,,response,,,,99,,,,,,,Space,keypress(Space),,,,,,,,---- -- ----- -- having - ------- --- ----------<br>------------- ------ ------ ---- ---- ------- ----- -- ----<br>-------- ------- -- ---------- --- - --- ----- ----- ----<br>---- --- --- ----- --- ---- ---- ------- ----- ---- -------<br>--- --- -- ----- -- --- ---- -- --- ---- -- ------ ------<br>--- ----- -- ----,185989,186064,185174,185167,185190,186024,,4,having
screen,html.Screen,1_1_0_1_5,2022-05-03T12:11:20.546Z,,,,,,,,,,,,,,,,53,,,,,,,,,,,,,,549,,response,,,,99,,,,,,,Space,keypress(Space),,,,,,,,---- -- ----- -- ------ a ------- --- ----------<br>------------- ------ ------ ---- ---- ------- ----- -- ----<br>-------- ------- -- ---------- --- - --- ----- ----- ----<br>---- --- --- ----- --- ---- ---- ------- ----- ---- -------<br>--- --- -- ----- -- --- ---- -- --- ---- -- ------ ------<br>--- ----- -- ----,186482,186556,186007,185990,186024,186506,,5,a
screen,html.Screen,1_1_0_1_6,2022-05-03T12:11:21.257Z,,,,,,,,,,,,,,,,53,,,,,,,,,,,,,,776,,response,,,,99,,,,,,,Space,keypress(Space),,,,,,,,---- -- ----- -- ------ - lasting --- ----------<br>------------- ------ ------ ---- ---- ------- ----- -- ----<br>-------- ------- -- ---------- --- - --- ----- ----- ----<br>---- --- --- ----- --- ---- ---- ------- ----- ---- -------<br>--- --- -- ----- -- --- ---- -- --- ---- -- ------ ------<br>--- ----- -- ----,187193,187267,186491,186482,186506,187224,,6,lasting
screen,html.Screen,1_1_0_1_7,2022-05-03T12:11:22.117Z,,,,,,,,,,,,,,,,53,,,,,,,,,,,,,,921,,response,,,,99,,,,,,,Space,keypress(Space),,,,,,,,---- -- ----- -- ------ - ------- and ----------<br>------------- ------ ------ ---- ---- ------- ----- -- ----<br>-------- ------- -- ---------- --- - --- ----- ----- ----<br>---- --- --- ----- --- ---- ---- ------- ----- ---- -------<br>--- --- -- ----- -- --- ---- -- --- ---- -- ------ ------<br>--- ----- -- ----,188053,188128,187207,187193,187224,188089,,7,and
screen,html.Screen,1_1_0_1_8,2022-05-03T12:11:23.061Z,,,,,,,,,,,,,,,,53,,,,,,,,,,,,,,998,,response,,,,99,,,,,,,Space,keypress(Space),,,,,,,,---- -- ----- -- ------ - ------- --- fulfilling<br>------------- ------ ------ ---- ---- ------- ----- -- ----<br>-------- ------- -- ---------- --- - --- ----- ----- ----<br>---- --- --- ----- --- ---- ---- ------- ----- ---- -------<br>--- --- -- ----- -- --- ---- -- --- ---- -- ------ ------<br>--- ----- -- ----,188997,189071,188073,188053,188089,189022,,8,fulfilling
screen,html.Screen,1_1_0_1_9,2022-05-03T12:11:24.067Z,,,,,,,,,,,,,,,,53,,,,,,,,,,,,,,1071,,response,,,,99,,,,,,,Space,keypress(Space),,,,,,,,"---- -- ----- -- ------ - ------- --- ----------<br>relationship, ------ ------ ---- ---- ------- ----- -- ----<br>-------- ------- -- ---------- --- - --- ----- ----- ----<br>---- --- --- ----- --- ---- ---- ------- ----- ---- -------<br>--- --- -- ----- -- --- ---- -- --- ---- -- ------ ------<br>--- ----- -- ----",190003,190077,189006,188997,189022,190038,,9,"relationship,"
screen,html.Screen,1_1_0_1_10,2022-05-03T12:11:24.500Z,,,,,,,,,,,,,,,,53,,,,,,,,,,,,,,488,,response,,,,99,,,,,,,Space,keypress(Space),,,,,,,,---- -- ----- -- ------ - ------- --- ----------<br>------------- common ------ ---- ---- ------- ----- -- ----<br>-------- ------- -- ---------- --- - --- ----- ----- ----<br>---- --- --- ----- --- ---- ---- ------- ----- ---- -------<br>--- --- -- ----- -- --- ---- -- --- ---- -- ------ ------<br>--- ----- -- ----,190436,190510,190022,190003,190038,190472,,10,common
screen,html.Screen,1_1_0_1_11,2022-05-03T12:11:25.148Z,,,,,,,,,,,,,,,,53,,,,,,,,,,,,,,704,,response,,,,99,,,,,,,Space,keypress(Space),,,,,,,,---- -- ----- -- ------ - ------- --- ----------<br>------------- ------ wisdom ---- ---- ------- ----- -- ----<br>-------- ------- -- ---------- --- - --- ----- ----- ----<br>---- --- --- ----- --- ---- ---- ------- ----- ---- -------<br>--- --- -- ----- -- --- ---- -- --- ---- -- ------ ------<br>--- ----- -- ----,191084,191159,190455,190436,190472,191121,,11,wisdom
screen,html.Screen,1_1_0_1_12,2022-05-03T12:11:25.900Z,,,,,,,,,,,,,,,,53,,,,,,,,,,,,,,806,,response,,,,99,,,,,,,Space,keypress(Space),,,,,,,,---- -- ----- -- ------ - ------- --- ----------<br>------------- ------ ------ says ---- ------- ----- -- ----<br>-------- ------- -- ---------- --- - --- ----- ----- ----<br>---- --- --- ----- --- ---- ---- ------- ----- ---- -------<br>--- --- -- ----- -- --- ---- -- --- ---- -- ------ ------<br>--- ----- -- ----,191836,191911,191105,191085,191121,191872,,12,says
screen,html.Screen,1_1_0_1_13,2022-05-03T12:11:26.429Z,,,,,,,,,,,,,,,,53,,,,,,,,,,,,,,585,,response,,,,99,,,,,,,Space,keypress(Space),,,,,,,,---- -- ----- -- ------ - ------- --- ----------<br>------------- ------ ------ ---- that ------- ----- -- ----<br>-------- ------- -- ---------- --- - --- ----- ----- ----<br>---- --- --- ----- --- ---- ---- ------- ----- ---- -------<br>--- --- -- ----- -- --- ---- -- --- ---- -- ------ ------<br>--- ----- -- ----,192365,192440,191855,191837.00000000003,191872,192388,,13,that
screen,html.Screen,1_1_0_1_14,2022-05-03T12:11:27.349Z,,,,,,,,,,,,,,,,53,,,,,,,,,,,,,,988,,response,,,,99,,,,,,,Space,keypress(Space),,,,,,,,---- -- ----- -- ------ - ------- --- ----------<br>------------- ------ ------ ---- ---- feeling ----- -- ----<br>-------- ------- -- ---------- --- - --- ----- ----- ----<br>---- --- --- ----- --- ---- ---- ------- ----- ---- -------<br>--- --- -- ----- -- --- ---- -- --- ---- -- ------ ------<br>--- ----- -- ----,193285,193359,192371,192365,192388,193320,,14,feeling
screen,html.Screen,1_1_0_1_15,2022-05-03T12:11:27.964Z,,,,,,,,,,,,,,,,53,,,,,,,,,,,,,,671.0000000000291,,response,,,,99,,,,,,,Space,keypress(Space),,,,,,,,---- -- ----- -- ------ - ------- --- ----------<br>------------- ------ ------ ---- ---- ------- close -- ----<br>-------- ------- -- ---------- --- - --- ----- ----- ----<br>---- --- --- ----- --- ---- ---- ------- ----- ---- -------<br>--- --- -- ----- -- --- ---- -- --- ---- -- ------ ------<br>--- ----- -- ----,193900,193974.00000000003,193303,193285,193320,193937,,15,close
screen,html.Screen,1_1_0_1_16,2022-05-03T12:11:28.377Z,,,,,,,,,,,,,,,,53,,,,,,,,,,,,,,468,,response,,,,99,,,,,,,Space,keypress(Space),,,,,,,,---- -- ----- -- ------ - ------- --- ----------<br>------------- ------ ------ ---- ---- ------- ----- to ----<br>-------- ------- -- ---------- --- - --- ----- ----- ----<br>---- --- --- ----- --- ---- ---- ------- ----- ---- -------<br>--- --- -- ----- -- --- ---- -- --- ---- -- ------ ------<br>--- ----- -- ----,194313.00000000003,194388,193920,193900,193937,194337,,16,to
screen,html.Screen,1_1_0_1_17,2022-05-03T12:11:28.818Z,,,,,,,,,,,,,,,,53,,,,,,,,,,,,,,509,,response,,,,99,,,,,,,Space,keypress(Space),,,,,,,,---- -- ----- -- ------ - ------- --- ----------<br>------------- ------ ------ ---- ---- ------- ----- -- your<br>-------- ------- -- ---------- --- - --- ----- ----- ----<br>---- --- --- ----- --- ---- ---- ------- ----- ---- -------<br>--- --- -- ----- -- --- ---- -- --- ---- -- ------ ------<br>--- ----- -- ----,194754,194829,194320,194313.00000000003,194337,194787,,17,your
screen,html.Screen,1_1_0_1_18,2022-05-03T12:11:29.573Z,,,,,,,,,,,,,,,,53,,,,,,,,,,,,,,813,,response,,,,99,,,,,,,Space,keypress(Space),,,,,,,,---- -- ----- -- ------ - ------- --- ----------<br>------------- ------ ------ ---- ---- ------- ----- -- ----<br>romantic ------- -- ---------- --- - --- ----- ----- ----<br>---- --- --- ----- --- ---- ---- ------- ----- ---- -------<br>--- --- -- ----- -- --- ---- -- --- ---- -- ------ ------<br>--- ----- -- ----,195510,195584,194771,194755,194787,195536,,18,romantic
screen,html.Screen,1_1_0_1_19,2022-05-03T12:11:30.513Z,,,,,,,,,,,,,,,,53,,,,,,,,,,,,,,1004,,response,,,,99,,,,,,,Space,keypress(Space),,,,,,,,---- -- ----- -- ------ - ------- --- ----------<br>------------- ------ ------ ---- ---- ------- ----- -- ----<br>-------- partner -- ---------- --- - --- ----- ----- ----<br>---- --- --- ----- --- ---- ---- ------- ----- ---- -------<br>--- --- -- ----- -- --- ---- -- --- ---- -- ------ ------<br>--- ----- -- ----,196449,196524,195520,195510,195536,196486,,19,partner
screen,html.Screen,1_1_0_1_20,2022-05-03T12:11:30.923Z,,,,,,,,,,,,,,,,53,,,,,,,,,,,,,,464,,response,,,,99,,,,,,,Space,keypress(Space),,,,,,,,---- -- ----- -- ------ - ------- --- ----------<br>------------- ------ ------ ---- ---- ------- ----- -- ----<br>-------- ------- is ---------- --- - --- ----- ----- ----<br>---- --- --- ----- --- ---- ---- ------- ----- ---- -------<br>--- --- -- ----- -- --- ---- -- --- ---- -- ------ ------<br>--- ----- -- ----,196859,196934,196470,196450.00000000003,196486,196887,,20,is
screen,html.Screen,1_1_0_1_21,2022-05-03T12:11:32.443Z,,,,,,,,,,,,,,,,53,,,,,,,,,,,,,,1584,,response,,,,99,,,,,,,Space,keypress(Space),,,,,,,,---- -- ----- -- ------ - ------- --- ----------<br>------------- ------ ------ ---- ---- ------- ----- -- ----<br>-------- ------- -- paramount. --- - --- ----- ----- ----<br>---- --- --- ----- --- ---- ---- ------- ----- ---- -------<br>--- --- -- ----- -- --- ---- -- --- ---- -- ------ ------<br>--- ----- -- ----,198380,198454,196870,196860,196887,198402,,21,paramount.
screen,html.Screen,1_1_0_1_22,2022-05-03T12:11:32.916Z,,,,,,,,,,,,,,,,53,,,,,,,,,,,,,,541,,response,,,,99,,,,,,,Space,keypress(Space),,,,,,,,---- -- ----- -- ------ - ------- --- ----------<br>------------- ------ ------ ---- ---- ------- ----- -- ----<br>-------- ------- -- ---------- But - --- ----- ----- ----<br>---- --- --- ----- --- ---- ---- ------- ----- ---- -------<br>--- --- -- ----- -- --- ---- -- --- ---- -- ------ ------<br>--- ----- -- ----,198852,198927,198386,198380,198402,198886,,22,But
screen,html.Screen,1_1_0_1_23,2022-05-03T12:11:33.409Z,,,,,,,,,,,,,,,,53,,,,,,,,,,,,,,551.0000000000291,,response,,,,99,,,,,,,Space,keypress(Space),,,,,,,,---- -- ----- -- ------ - ------- --- ----------<br>------------- ------ ------ ---- ---- ------- ----- -- ----<br>-------- ------- -- ---------- --- a --- ----- ----- ----<br>---- --- --- ----- --- ---- ---- ------- ----- ---- -------<br>--- --- -- ----- -- --- ---- -- --- ---- -- ------ ------<br>--- ----- -- ----,199346,199420.00000000003,198869,198852,198886,199369,,23,a
screen,html.Screen,1_1_0_1_24,2022-05-03T12:11:34.372Z,,,,,,,,,,,,,,,,53,,,,,,,,,,,,,,1030,,response,,,,99,,,,,,,Space,keypress(Space),,,,,,,,---- -- ----- -- ------ - ------- --- ----------<br>------------- ------ ------ ---- ---- ------- ----- -- ----<br>-------- ------- -- ---------- --- - new ----- ----- ----<br>---- --- --- ----- --- ---- ---- ------- ----- ---- -------<br>--- --- -- ----- -- --- ---- -- --- ---- -- ------ ------<br>--- ----- -- ----,200309,200383,199353,199346,199369,200336,,24,new
screen,html.Screen,1_1_0_1_25,2022-05-03T12:11:35.263Z,,,,,,,,,,,,,,,,53,,,,,,,,,,,,,,955,,response,,,,99,,,,,,,Space,keypress(Space),,,,,,,,---- -- ----- -- ------ - ------- --- ----------<br>------------- ------ ------ ---- ---- ------- ----- -- ----<br>-------- ------- -- ---------- --- - --- study ----- ----<br>---- --- --- ----- --- ---- ---- ------- ----- ---- -------<br>--- --- -- ----- -- --- ---- -- --- ---- -- ------ ------<br>--- ----- -- ----,201200.00000000003,201275,200320,200309,200336,201236,,25,study
screen,html.Screen,1_1_0_1_26,2022-05-03T12:11:36.108Z,,,,,,,,,,,,,,,,53,,,,,,,,,,,,,,900,,response,,,,99,,,,,,,Space,keypress(Space),,,,,,,,---- -- ----- -- ------ - ------- --- ----------<br>------------- ------ ------ ---- ---- ------- ----- -- ----<br>-------- ------- -- ---------- --- - --- ----- finds ----<br>---- --- --- ----- --- ---- ---- ------- ----- ---- -------<br>--- --- -- ----- -- --- ---- -- --- ---- -- ------ ------<br>--- ----- -- ----,202045.00000000003,202120,201220,201200.00000000003,201236,202069,,26,finds
screen,html.Screen,1_1_0_1_27,2022-05-03T12:11:36.564Z,,,,,,,,,,,,,,,,53,,,,,,,,,,,,,,524,,response,,,,99,,,,,,,Space,keypress(Space),,,,,,,,---- -- ----- -- ------ - ------- --- ----------<br>------------- ------ ------ ---- ---- ------- ----- -- ----<br>-------- ------- -- ---------- --- - --- ----- ----- that<br>---- --- --- ----- --- ---- ---- ------- ----- ---- -------<br>--- --- -- ----- -- --- ---- -- --- ---- -- ------ ------<br>--- ----- -- ----,202501,202576,202052,202045.00000000003,202069,202536,,27,that
screen,html.Screen,1_1_0_1_28,2022-05-03T12:11:37.188Z,,,,,,,,,,,,,,,,53,,,,,,,,,,,,,,681,,response,,,,99,,,,,,,Space,keypress(Space),,,,,,,,---- -- ----- -- ------ - ------- --- ----------<br>------------- ------ ------ ---- ---- ------- ----- -- ----<br>-------- ------- -- ---------- --- - --- ----- ----- ----<br>it's --- --- ----- --- ---- ---- ------- ----- ---- -------<br>--- --- -- ----- -- --- ---- -- --- ---- -- ------ ------<br>--- ----- -- ----,203124,203199,202518,202501,202536,203152,,28,it's
screen,html.Screen,1_1_0_1_29,2022-05-03T12:11:38.085Z,,,,,,,,,,,,,,,,53,,,,,,,,,,,,,,961,,response,,,,99,,,,,,,Space,keypress(Space),,,,,,,,---- -- ----- -- ------ - ------- --- ----------<br>------------- ------ ------ ---- ---- ------- ----- -- ----<br>-------- ------- -- ---------- --- - --- ----- ----- ----<br>---- not --- ----- --- ---- ---- ------- ----- ---- -------<br>--- --- -- ----- -- --- ---- -- --- ---- -- ------ ------<br>--- ----- -- ----,204022,204097,203136,203124,203152,204053,,29,not
screen,html.Screen,1_1_0_1_30,2022-05-03T12:11:38.816Z,,,,,,,,,,,,,,,,53,,,,,,,,,,,,,,791,,response,,,,99,,,,,,,Space,keypress(Space),,,,,,,,---- -- ----- -- ------ - ------- --- ----------<br>------------- ------ ------ ---- ---- ------- ----- -- ----<br>-------- ------- -- ---------- --- - --- ----- ----- ----<br>---- --- how ----- --- ---- ---- ------- ----- ---- -------<br>--- --- -- ----- -- --- ---- -- --- ---- -- ------ ------<br>--- ----- -- ----,204752,204827,204036,204022,204053,204785,,30,how
screen,html.Screen,1_1_0_1_31,2022-05-03T12:11:39.341Z,,,,,,,,,,,,,,,,53,,,,,,,,,,,,,,584,,response,,,,99,,,,,,,Space,keypress(Space),,,,,,,,---- -- ----- -- ------ - ------- --- ----------<br>------------- ------ ------ ---- ---- ------- ----- -- ----<br>-------- ------- -- ---------- --- - --- ----- ----- ----<br>---- --- --- close --- ---- ---- ------- ----- ---- -------<br>--- --- -- ----- -- --- ---- -- --- ---- -- ------ ------<br>--- ----- -- ----,205277.00000000003,205353,204769,204753,204785,205302,,31,close
screen,html.Screen,1_1_0_1_32,2022-05-03T12:11:39.789Z,,,,,,,,,,,,,,,,53,,,,,,,,,,,,,,516.0000000000291,,response,,,,99,,,,,,,Space,keypress(Space),,,,,,,,---- -- ----- -- ------ - ------- --- ----------<br>------------- ------ ------ ---- ---- ------- ----- -- ----<br>-------- ------- -- ---------- --- - --- ----- ----- ----<br>---- --- --- ----- you ---- ---- ------- ----- ---- -------<br>--- --- -- ----- -- --- ---- -- --- ---- -- ------ ------<br>--- ----- -- ----,205726,205801.00000000003,205285,205277.00000000003,205302,205753,,32,you
screen,html.Screen,1_1_0_1_33,2022-05-03T12:11:40.386Z,,,,,,,,,,,,,,,,53,,,,,,,,,,,,,,662,,response,,,,99,,,,,,,Space,keypress(Space),,,,,,,,---- -- ----- -- ------ - ------- --- ----------<br>------------- ------ ------ ---- ---- ------- ----- -- ----<br>-------- ------- -- ---------- --- - --- ----- ----- ----<br>---- --- --- ----- --- feel ---- ------- ----- ---- -------<br>--- --- -- ----- -- --- ---- -- --- ---- -- ------ ------<br>--- ----- -- ----,206323,206398,205736,205726,205753,206351,,33,feel
screen,html.Screen,1_1_0_1_34,2022-05-03T12:11:40.942Z,,,,,,,,,,,,,,,,53,,,,,,,,,,,,,,620,,response,,,,99,,,,,,,Space,keypress(Space),,,,,,,,---- -- ----- -- ------ - ------- --- ----------<br>------------- ------ ------ ---- ---- ------- ----- -- ----<br>-------- ------- -- ---------- --- - --- ----- ----- ----<br>---- --- --- ----- --- ---- that ------- ----- ---- -------<br>--- --- -- ----- -- --- ---- -- --- ---- -- ------ ------<br>--- ----- -- ----,206879,206954,206334,206323,206351,206901,,34,that
screen,html.Screen,1_1_0_1_35,2022-05-03T12:11:41.389Z,,,,,,,,,,,,,,,,53,,,,,,,,,,,,,,517,,response,,,,99,,,,,,,Space,keypress(Space),,,,,,,,---- -- ----- -- ------ - ------- --- ----------<br>------------- ------ ------ ---- ---- ------- ----- -- ----<br>-------- ------- -- ---------- --- - --- ----- ----- ----<br>---- --- --- ----- --- ---- ---- matters ----- ---- -------<br>--- --- -- ----- -- --- ---- -- --- ---- -- ------ ------<br>--- ----- -- ----,207326,207401,206884,206879,206901,207350,,35,matters
screen,html.Screen,1_1_0_1_36,2022-05-03T12:11:42.329Z,,,,,,,,,,,,,,,,53,,,,,,,,,,,,,,1008,,response,,,,99,,,,,,,Space,keypress(Space),,,,,,,,"---- -- ----- -- ------ - ------- --- ----------<br>------------- ------ ------ ---- ---- ------- ----- -- ----<br>-------- ------- -- ---------- --- - --- ----- ----- ----<br>---- --- --- ----- --- ---- ---- ------- most, ---- -------<br>--- --- -- ----- -- --- ---- -- --- ---- -- ------ ------<br>--- ----- -- ----",208266,208342,207334,207326,207350,208300,,36,"most,"
screen,html.Screen,1_1_0_1_37,2022-05-03T12:11:42.718Z,,,,,,,,,,,,,,,,53,,,,,,,,,,,,,,447.0000000000291,,response,,,,99,,,,,,,Space,keypress(Space),,,,,,,,---- -- ----- -- ------ - ------- --- ----------<br>------------- ------ ------ ---- ---- ------- ----- -- ----<br>-------- ------- -- ---------- --- - --- ----- ----- ----<br>---- --- --- ----- --- ---- ---- ------- ----- it's -------<br>--- --- -- ----- -- --- ---- -- --- ---- -- ------ ------<br>--- ----- -- ----,208655,208730.00000000003,208283,208266,208300,208683,,37,it's
screen,html.Screen,1_1_0_1_38,2022-05-03T12:11:43.191Z,,,,,,,,,,,,,,,,53,,,,,,,,,,,,,,537,,response,,,,99,,,,,,,Space,keypress(Space),,,,,,,,---- -- ----- -- ------ - ------- --- ----------<br>------------- ------ ------ ---- ---- ------- ----- -- ----<br>-------- ------- -- ---------- --- - --- ----- ----- ----<br>---- --- --- ----- --- ---- ---- ------- ----- ---- whether<br>--- --- -- ----- -- --- ---- -- --- ---- -- ------ ------<br>--- ----- -- ----,209128,209203,208666,208655,208683,209150,,38,whether
screen,html.Screen,1_1_0_1_39,2022-05-03T12:11:43.804Z,,,,,,,,,,,,,,,,53,,,,,,,,,,,,,,682,,response,,,,99,,,,,,,Space,keypress(Space),,,,,,,,---- -- ----- -- ------ - ------- --- ----------<br>------------- ------ ------ ---- ---- ------- ----- -- ----<br>-------- ------- -- ---------- --- - --- ----- ----- ----<br>---- --- --- ----- --- ---- ---- ------- ----- ---- -------<br>you --- -- ----- -- --- ---- -- --- ---- -- ------ ------<br>--- ----- -- ----,209740,209816,209134,209128,209150,209766,,39,you
screen,html.Screen,1_1_0_1_40,2022-05-03T12:11:44.284Z,,,,,,,,,,,,,,,,53,,,,,,,,,,,,,,548,,response,,,,99,,,,,,,Space,keypress(Space),,,,,,,,---- -- ----- -- ------ - ------- --- ----------<br>------------- ------ ------ ---- ---- ------- ----- -- ----<br>-------- ------- -- ---------- --- - --- ----- ----- ----<br>---- --- --- ----- --- ---- ---- ------- ----- ---- -------<br>--- are -- ----- -- --- ---- -- --- ---- -- ------ ------<br>--- ----- -- ----,210221,210297,209749,209741,209766,210250,,40,are
screen,html.Screen,1_1_0_1_41,2022-05-03T12:11:44.950Z,,,,,,,,,,,,,,,,53,,,,,,,,,,,,,,729.0000000000291,,response,,,,99,,,,,,,Space,keypress(Space),,,,,,,,---- -- ----- -- ------ - ------- --- ----------<br>------------- ------ ------ ---- ---- ------- ----- -- ----<br>-------- ------- -- ---------- --- - --- ----- ----- ----<br>---- --- --- ----- --- ---- ---- ------- ----- ---- -------<br>--- --- as ----- -- --- ---- -- --- ---- -- ------ ------<br>--- ----- -- ----,210887,210962.00000000003,210233,210221,210250,210916,,41,as
screen,html.Screen,1_1_0_1_42,2022-05-03T12:11:45.600Z,,,,,,,,,,,,,,,,53,,,,,,,,,,,,,,713,,response,,,,99,,,,,,,Space,keypress(Space),,,,,,,,---- -- ----- -- ------ - ------- --- ----------<br>------------- ------ ------ ---- ---- ------- ----- -- ----<br>-------- ------- -- ---------- --- - --- ----- ----- ----<br>---- --- --- ----- --- ---- ---- ------- ----- ---- -------<br>--- --- -- close -- --- ---- -- --- ---- -- ------ ------<br>--- ----- -- ----,211537,211613,210900,210887,210916,211566,,42,close
screen,html.Screen,1_1_0_1_43,2022-05-03T12:11:46.071Z,,,,,,,,,,,,,,,,53,,,,,,,,,,,,,,533,,response,,,,99,,,,,,,Space,keypress(Space),,,,,,,,---- -- ----- -- ------ - ------- --- ----------<br>------------- ------ ------ ---- ---- ------- ----- -- ----<br>-------- ------- -- ---------- --- - --- ----- ----- ----<br>---- --- --- ----- --- ---- ---- ------- ----- ---- -------<br>--- --- -- ----- as --- ---- -- --- ---- -- ------ ------<br>--- ----- -- ----,212008,212083,211550,211538,211566,212033,,43,as
screen,html.Screen,1_1_0_1_44,2022-05-03T12:11:46.569Z,,,,,,,,,,,,,,,,53,,,,,,,,,,,,,,563,,response,,,,99,,,,,,,Space,keypress(Space),,,,,,,,---- -- ----- -- ------ - ------- --- ----------<br>------------- ------ ------ ---- ---- ------- ----- -- ----<br>-------- ------- -- ---------- --- - --- ----- ----- ----<br>---- --- --- ----- --- ---- ---- ------- ----- ---- -------<br>--- --- -- ----- -- you ---- -- --- ---- -- ------ ------<br>--- ----- -- ----,212506,212580,212017,212008,212033,212533,,44,you
screen,html.Screen,1_1_0_1_45,2022-05-03T12:11:47.109Z,,,,,,,,,,,,,,,,53,,,,,,,,,,,,,,604,,response,,,,99,,,,,,,Space,keypress(Space),,,,,,,,---- -- ----- -- ------ - ------- --- ----------<br>------------- ------ ------ ---- ---- ------- ----- -- ----<br>-------- ------- -- ---------- --- - --- ----- ----- ----<br>---- --- --- ----- --- ---- ---- ------- ----- ---- -------<br>--- --- -- ----- -- --- want -- --- ---- -- ------ ------<br>--- ----- -- ----,213046,213121,212517,212506,212533,213068,,45,want
screen,html.Screen,1_1_0_1_46,2022-05-03T12:11:47.548Z,,,,,,,,,,,,,,,,53,,,,,,,,,,,,,,510,,response,,,,99,,,,,,,Space,keypress(Space),,,,,,,,---- -- ----- -- ------ - ------- --- ----------<br>------------- ------ ------ ---- ---- ------- ----- -- ----<br>-------- ------- -- ---------- --- - --- ----- ----- ----<br>---- --- --- ----- --- ---- ---- ------- ----- ---- -------<br>--- --- -- ----- -- --- ---- to --- ---- -- ------ ------<br>--- ----- -- ----,213485,213561,213051,213046,213068,213518,,46,to
screen,html.Screen,1_1_0_1_47,2022-05-03T12:11:48.108Z,,,,,,,,,,,,,,,,53,,,,,,,,,,,,,,619,,response,,,,99,,,,,,,Space,keypress(Space),,,,,,,,"---- -- ----- -- ------ - ------- --- ----------<br>------------- ------ ------ ---- ---- ------- ----- -- ----<br>-------- ------- -- ---------- --- - --- ----- ----- ----<br>---- --- --- ----- --- ---- ---- ------- ----- ---- -------<br>--- --- -- ----- -- --- ---- -- be, ---- -- ------ ------<br>--- ----- -- ----",214045.00000000003,214120,213501,213486.00000000003,213518,214068,,47,"be,"
screen,html.Screen,1_1_0_1_48,2022-05-03T12:11:48.822Z,,,,,,,,,,,,,,,,53,,,,,,,,,,,,,,783,,response,,,,99,,,,,,,Space,keypress(Space),,,,,,,,---- -- ----- -- ------ - ------- --- ----------<br>------------- ------ ------ ---- ---- ------- ----- -- ----<br>-------- ------- -- ---------- --- - --- ----- ----- ----<br>---- --- --- ----- --- ---- ---- ------- ----- ---- -------<br>--- --- -- ----- -- --- ---- -- --- even -- ------ ------<br>--- ----- -- ----,214759,214834,214051,214045.00000000003,214068,214784,,48,even
screen,html.Screen,1_1_0_1_49,2022-05-03T12:11:49.318Z,,,,,,,,,,,,,,,,53,,,,,,,,,,,,,,563,,response,,,,99,,,,,,,Space,keypress(Space),,,,,,,,---- -- ----- -- ------ - ------- --- ----------<br>------------- ------ ------ ---- ---- ------- ----- -- ----<br>-------- ------- -- ---------- --- - --- ----- ----- ----<br>---- --- --- ----- --- ---- ---- ------- ----- ---- -------<br>--- --- -- ----- -- --- ---- -- --- ---- if ------ ------<br>--- ----- -- ----,215255,215330,214767,214759,214784,215283,,49,if
screen,html.Screen,1_1_0_1_50,2022-05-03T12:11:49.720Z,,,,,,,,,,,,,,,,53,,,,,,,,,,,,,,466,,response,,,,99,,,,,,,Space,keypress(Space),,,,,,,,---- -- ----- -- ------ - ------- --- ----------<br>------------- ------ ------ ---- ---- ------- ----- -- ----<br>-------- ------- -- ---------- --- - --- ----- ----- ----<br>---- --- --- ----- --- ---- ---- ------- ----- ---- -------<br>--- --- -- ----- -- --- ---- -- --- ---- -- that's ------<br>--- ----- -- ----,215657,215732,215266,215255,215283,215683,,50,that's
screen,html.Screen,1_1_0_1_51,2022-05-03T12:11:50.169Z,,,,,,,,,,,,,,,,53,,,,,,,,,,,,,,516,,response,,,,99,,,,,,,Space,keypress(Space),,,,,,,,---- -- ----- -- ------ - ------- --- ----------<br>------------- ------ ------ ---- ---- ------- ----- -- ----<br>-------- ------- -- ---------- --- - --- ----- ----- ----<br>---- --- --- ----- --- ---- ---- ------- ----- ---- -------<br>--- --- -- ----- -- --- ---- -- --- ---- -- ------ really<br>--- ----- -- ----,216106,216183,215667,215657,215683,216132,,51,really
screen,html.Screen,1_1_0_1_52,2022-05-03T12:11:50.614Z,,,,,,,,,,,,,,,,53,,,,,,,,,,,,,,510,,response,,,,99,,,,,,,Space,keypress(Space),,,,,,,,---- -- ----- -- ------ - ------- --- ----------<br>------------- ------ ------ ---- ---- ------- ----- -- ----<br>-------- ------- -- ---------- --- - --- ----- ----- ----<br>---- --- --- ----- --- ---- ---- ------- ----- ---- -------<br>--- --- -- ----- -- --- ---- -- --- ---- -- ------ ------<br>not ----- -- ----,216551.00000000003,216626,216116,216107,216132,216581,,52,not
screen,html.Screen,1_1_0_1_53,2022-05-03T12:11:51.119Z,,,,,,,,,,,,,,,,53,,,,,,,,,,,,,,566,,response,,,,99,,,,,,,Space,keypress(Space),,,,,,,,---- -- ----- -- ------ - ------- --- ----------<br>------------- ------ ------ ---- ---- ------- ----- -- ----<br>-------- ------- -- ---------- --- - --- ----- ----- ----<br>---- --- --- ----- --- ---- ---- ------- ----- ---- -------<br>--- --- -- ----- -- --- ---- -- --- ---- -- ------ ------<br>--- close -- ----,217056,217131,216565,216551.00000000003,216581,217081,,53,close
screen,html.Screen,1_1_0_1_54,2022-05-03T12:11:51.657Z,,,,,,,,,,,,,,,,53,,,,,,,,,,,,,,606.0000000000291,,response,,,,99,,,,,,,Space,keypress(Space),,,,,,,,---- -- ----- -- ------ - ------- --- ----------<br>------------- ------ ------ ---- ---- ------- ----- -- ----<br>-------- ------- -- ---------- --- - --- ----- ----- ----<br>---- --- --- ----- --- ---- ---- ------- ----- ---- -------<br>--- --- -- ----- -- --- ---- -- --- ---- -- ------ ------<br>--- ----- at ----,217594,217670.00000000003,217064,217056,217081,217630,,54,at
screen,html.Screen,1_1_0_1_55,2022-05-03T12:11:52.105Z,,,,,,,,,,,,,,,,53,,,,,,,,,,,,,,504,,response,,,,99,,,,,,,Space,keypress(Space),,,,,,,,---- -- ----- -- ------ - ------- --- ----------<br>------------- ------ ------ ---- ---- ------- ----- -- ----<br>-------- ------- -- ---------- --- - --- ----- ----- ----<br>---- --- --- ----- --- ---- ---- ------- ----- ---- -------<br>--- --- -- ----- -- --- ---- -- --- ---- -- ------ ------<br>--- ----- -- all.,218042,218118,217614,217595,217630,218064,,55,all.
Item 99,flow.Loop,1_1_0_1,2022-05-03T12:11:52.105Z,,,,,,,,,,,,,,,,,,,,,,,,,,,,,,36515,,completion,,,,,F,,,,,,,,,,,silence,,,,,218042,218118,181586,181587.00000000003,181603,218064,,,
Question 1,html.Screen,1_1_0_2,2022-05-03T12:11:58.503Z,,,,,,,,,,,,,,,,,,,,,,,,,,,true,FALSE,,6463,,response,,,,99,F,,,,,,FALSE,click #choice-2,,,,silence,,,,,224441,224510,218047,218042,218064,224470,,,
Question 2,html.Screen,1_1_0_3,2022-05-03T12:12:04.571Z,,,,,,,,,,,,,,,,,,,,,,,,,,,true,TRUE,,6124,,response,,,,99,F,,,,,,TRUE,click #choice-1,,,,silence,,,,,230509,230578,224454,224441,224470,230542,,,
Item 99,flow.Sequence,1_1_0,2022-05-03T12:12:04.571Z,,,,,,,,,,,,,,,,,,,,,,,,,,,,,,58974,,completion,,,,,,,,,,,,,,,,,,,,,230509,230578,171587,171581.00000000003,171604,230542,,,
Holding screen,html.Screen,1_1_1_0,2022-05-03T12:12:14.593Z,,,,,,,,,,,,,,,,,,,,,,,,,,,,,,10005,,timeout,,,,,,,,,,,,,,,,,,,,,240532,240531,230525,230509,230542,240547,,,
screen,html.Screen,1_1_1_1_0,2022-05-03T12:12:15.516Z,,,,,,,,,,,,,,,,54,,,,,,,,,,,,,,999,,response,,,,100,,,,,,,Space,keypress(Space),,,,,,,,At --- ---- --- ------ ----- ------- ---- -- --- ------- --<br>------- ---------- ------ -- ----- -- ----- -- ---- ------<br>--- ----- --- --- ------ -------- ----- --- ------ ----- --<br>----- ----- ---------- --- --- ------ ------ ---- -- ------<br>------- --- ------ ----- --- ---- ------- -- ---- --- --<br>------- ------,241454,241530,240531,240532,240547,241484,,0,At
screen,html.Screen,1_1_1_1_1,2022-05-03T12:12:16.082Z,,,,,,,,,,,,,,,,54,,,,,,,,,,,,,,630,,response,,,,100,,,,,,,Space,keypress(Space),,,,,,,,-- the ---- --- ------ ----- ------- ---- -- --- ------- --<br>------- ---------- ------ -- ----- -- ----- -- ---- ------<br>--- ----- --- --- ------ -------- ----- --- ------ ----- --<br>----- ----- ---------- --- --- ------ ------ ---- -- ------<br>------- --- ------ ----- --- ---- ------- -- ---- --- --<br>------- ------,242021.00000000003,242098,241468,241454,241484,242052,,1,the
screen,html.Screen,1_1_1_1_2,2022-05-03T12:12:16.742Z,,,,,,,,,,,,,,,,54,,,,,,,,,,,,,,722,,response,,,,100,,,,,,,Space,keypress(Space),,,,,,,,-- --- time --- ------ ----- ------- ---- -- --- ------- --<br>------- ---------- ------ -- ----- -- ----- -- ---- ------<br>--- ----- --- --- ------ -------- ----- --- ------ ----- --<br>----- ----- ---------- --- --- ------ ------ ---- -- ------<br>------- --- ------ ----- --- ---- ------- -- ---- --- --<br>------- ------,242680,242757,242035,242021.00000000003,242052,242701,,2,time
screen,html.Screen,1_1_1_1_3,2022-05-03T12:12:17.273Z,,,,,,,,,,,,,,,,54,,,,,,,,,,,,,,604.0000000000291,,response,,,,100,,,,,,,Space,keypress(Space),,,,,,,,-- --- ---- the ------ ----- ------- ---- -- --- ------- --<br>------- ---------- ------ -- ----- -- ----- -- ---- ------<br>--- ----- --- --- ------ -------- ----- --- ------ ----- --<br>----- ----- ---------- --- --- ------ ------ ---- -- ------<br>------- --- ------ ----- --- ---- ------- -- ---- --- --<br>------- ------,243212.00000000003,243289.00000000003,242685,242680,242701,243234,,3,the
screen,html.Screen,1_1_1_1_4,2022-05-03T12:12:17.850Z,,,,,,,,,,,,,,,,54,,,,,,,,,,,,,,647,,response,,,,100,,,,,,,Space,keypress(Space),,,,,,,,-- --- ---- --- French ----- ------- ---- -- --- ------- --<br>------- ---------- ------ -- ----- -- ----- -- ---- ------<br>--- ----- --- --- ------ -------- ----- --- ------ ----- --<br>----- ----- ---------- --- --- ------ ------ ---- -- ------<br>------- --- ------ ----- --- ---- ------- -- ---- --- --<br>------- ------,243788,243865,243218,243212.00000000003,243234,243817,,4,French
screen,html.Screen,1_1_1_1_5,2022-05-03T12:12:18.428Z,,,,,,,,,,,,,,,,54,,,,,,,,,,,,,,643.0000000000291,,response,,,,100,,,,,,,Space,keypress(Space),,,,,,,,-- --- ---- --- ------ crown ------- ---- -- --- ------- --<br>------- ---------- ------ -- ----- -- ----- -- ---- ------<br>--- ----- --- --- ------ -------- ----- --- ------ ----- --<br>----- ----- ---------- --- --- ------ ------ ---- -- ------<br>------- --- ------ ----- --- ---- ------- -- ---- --- --<br>------- ------,244367.00000000003,244444.00000000003,243801,243789.00000000003,243817,244401,,5,crown
screen,html.Screen,1_1_1_1_6,2022-05-03T12:12:19.000Z,,,,,,,,,,,,,,,,54,,,,,,,,,,,,,,632,,response,,,,100,,,,,,,Space,keypress(Space),,,,,,,,-- --- ---- --- ------ ----- secured ---- -- --- ------- --<br>------- ---------- ------ -- ----- -- ----- -- ---- ------<br>--- ----- --- --- ------ -------- ----- --- ------ ----- --<br>----- ----- ---------- --- --- ------ ------ ---- -- ------<br>------- --- ------ ----- --- ---- ------- -- ---- --- --<br>------- ------,244939,245016,244384,244367.00000000003,244401,244967,,6,secured
screen,html.Screen,1_1_1_1_7,2022-05-03T12:12:19.517Z,,,,,,,,,,,,,,,,54,,,,,,,,,,,,,,583.0000000000291,,response,,,,100,,,,,,,Space,keypress(Space),,,,,,,,-- --- ---- --- ------ ----- ------- much -- --- ------- --<br>------- ---------- ------ -- ----- -- ----- -- ---- ------<br>--- ----- --- --- ------ -------- ----- --- ------ ----- --<br>----- ----- ---------- --- --- ------ ------ ---- -- ------<br>------- --- ------ ----- --- ---- ------- -- ---- --- --<br>------- ------,245456.00000000003,245533.00000000003,244950,244939,244967,245484,,7,much
screen,html.Screen,1_1_1_1_8,2022-05-03T12:12:20.043Z,,,,,,,,,,,,,,,,54,,,,,,,,,,,,,,592,,response,,,,100,,,,,,,Space,keypress(Space),,,,,,,,-- --- ---- --- ------ ----- ------- ---- of --- ------- --<br>------- ---------- ------ -- ----- -- ----- -- ---- ------<br>--- ----- --- --- ------ -------- ----- --- ------ ----- --<br>----- ----- ---------- --- --- ------ ------ ---- -- ------<br>------- --- ------ ----- --- ---- ------- -- ---- --- --<br>------- ------,245982,246059,245467,245456.00000000003,245484,246017,,8,of
screen,html.Screen,1_1_1_1_9,2022-05-03T12:12:20.446Z,,,,,,,,,,,,,,,,54,,,,,,,,,,,,,,461.0000000000291,,response,,,,100,,,,,,,Space,keypress(Space),,,,,,,,-- --- ---- --- ------ ----- ------- ---- -- its ------- --<br>------- ---------- ------ -- ----- -- ----- -- ---- ------<br>--- ----- --- --- ------ -------- ----- --- ------ ----- --<br>----- ----- ---------- --- --- ------ ------ ---- -- ------<br>------- --- ------ ----- --- ---- ------- -- ---- --- --<br>------- ------,246384,246462.00000000003,246001,245982,246017,246417,,9,its
screen,html.Screen,1_1_1_1_10,2022-05-03T12:12:21.696Z,,,,,,,,,,,,,,,,54,,,,,,,,,,,,,,1311.000000000029,,response,,,,100,,,,,,,Space,keypress(Space),,,,,,,,-- --- ---- --- ------ ----- ------- ---- -- --- revenue --<br>------- ---------- ------ -- ----- -- ----- -- ---- ------<br>--- ----- --- --- ------ -------- ----- --- ------ ----- --<br>----- ----- ---------- --- --- ------ ------ ---- -- ------<br>------- --- ------ ----- --- ---- ------- -- ---- --- --<br>------- ------,247635.00000000003,247712.00000000003,246401,246384,246417,247667,,10,revenue
screen,html.Screen,1_1_1_1_11,2022-05-03T12:12:22.139Z,,,,,,,,,,,,,,,,54,,,,,,,,,,,,,,505,,response,,,,100,,,,,,,Space,keypress(Space),,,,,,,,-- --- ---- --- ------ ----- ------- ---- -- --- ------- by<br>------- ---------- ------ -- ----- -- ----- -- ---- ------<br>--- ----- --- --- ------ -------- ----- --- ------ ----- --<br>----- ----- ---------- --- --- ------ ------ ---- -- ------<br>------- --- ------ ----- --- ---- ------- -- ---- --- --<br>------- ------,248077,248155,247650,247635.00000000003,247667,248100,,11,by
screen,html.Screen,1_1_1_1_12,2022-05-03T12:12:22.724Z,,,,,,,,,,,,,,,,54,,,,,,,,,,,,,,657,,response,,,,100,,,,,,,Space,keypress(Space),,,,,,,,-- --- ---- --- ------ ----- ------- ---- -- --- ------- --<br>issuing ---------- ------ -- ----- -- ----- -- ---- ------<br>--- ----- --- --- ------ -------- ----- --- ------ ----- --<br>----- ----- ---------- --- --- ------ ------ ---- -- ------<br>------- --- ------ ----- --- ---- ------- -- ---- --- --<br>------- ------,248663,248740,248083,248078,248100,248699,,12,issuing
screen,html.Screen,1_1_1_1_13,2022-05-03T12:12:23.621Z,,,,,,,,,,,,,,,,54,,,,,,,,,,,,,,954,,response,,,,100,,,,,,,Space,keypress(Space),,,,,,,,-- --- ---- --- ------ ----- ------- ---- -- --- ------- --<br>------- government ------ -- ----- -- ----- -- ---- ------<br>--- ----- --- --- ------ -------- ----- --- ------ ----- --<br>----- ----- ---------- --- --- ------ ------ ---- -- ------<br>------- --- ------ ----- --- ---- ------- -- ---- --- --<br>------- ------,249560,249637,248683,248663,248699,249584,,13,government
screen,html.Screen,1_1_1_1_14,2022-05-03T12:12:24.849Z,,,,,,,,,,,,,,,,54,,,,,,,,,,,,,,1299,,response,,,,100,,,,,,,Space,keypress(Space),,,,,,,,-- --- ---- --- ------ ----- ------- ---- -- --- ------- --<br>------- ---------- bonds. -- ----- -- ----- -- ---- ------<br>--- ----- --- --- ------ -------- ----- --- ------ ----- --<br>----- ----- ---------- --- --- ------ ------ ---- -- ------<br>------- --- ------ ----- --- ---- ------- -- ---- --- --<br>------- ------,250788,250866,249567,249560,249584,250816,,14,bonds.
screen,html.Screen,1_1_1_1_15,2022-05-03T12:12:25.335Z,,,,,,,,,,,,,,,,54,,,,,,,,,,,,,,551,,response,,,,100,,,,,,,Space,keypress(Space),,,,,,,,-- --- ---- --- ------ ----- ------- ---- -- --- ------- --<br>------- ---------- ------ In ----- -- ----- -- ---- ------<br>--- ----- --- --- ------ -------- ----- --- ------ ----- --<br>----- ----- ---------- --- --- ------ ------ ---- -- ------<br>------- --- ------ ----- --- ---- ------- -- ---- --- --<br>------- ------,251273,251351,250800,250788,250816,251300,,15,In
screen,html.Screen,1_1_1_1_16,2022-05-03T12:12:26.800Z,,,,,,,,,,,,,,,,54,,,,,,,,,,,,,,1533,,response,,,,100,,,,,,,Space,keypress(Space),,,,,,,,"-- --- ---- --- ------ ----- ------- ---- -- --- ------- --<br>------- ---------- ------ -- 1727, -- ----- -- ---- ------<br>--- ----- --- --- ------ -------- ----- --- ------ ----- --<br>----- ----- ---------- --- --- ------ ------ ---- -- ------<br>------- --- ------ ----- --- ---- ------- -- ---- --- --<br>------- ------",252739,252817,251284,251274,251300,252766,,16,"1727,"
screen,html.Screen,1_1_1_1_17,2022-05-03T12:12:27.540Z,,,,,,,,,,,,,,,,54,,,,,,,,,,,,,,807,,response,,,,100,,,,,,,Space,keypress(Space),,,,,,,,-- --- ---- --- ------ ----- ------- ---- -- --- ------- --<br>------- ---------- ------ -- ----- in ----- -- ---- ------<br>--- ----- --- --- ------ -------- ----- --- ------ ----- --<br>----- ----- ---------- --- --- ------ ------ ---- -- ------<br>------- --- ------ ----- --- ---- ------- -- ---- --- --<br>------- ------,253479,253556,252749,252739,252766,253516,,17,in
screen,html.Screen,1_1_1_1_18,2022-05-03T12:12:28.184Z,,,,,,,,,,,,,,,,54,,,,,,,,,,,,,,702,,response,,,,100,,,,,,,Space,keypress(Space),,,,,,,,-- --- ---- --- ------ ----- ------- ---- -- --- ------- --<br>------- ---------- ------ -- ----- -- order -- ---- ------<br>--- ----- --- --- ------ -------- ----- --- ------ ----- --<br>----- ----- ---------- --- --- ------ ------ ---- -- ------<br>------- --- ------ ----- --- ---- ------- -- ---- --- --<br>------- ------,254123.00000000003,254201,253499,253479,253516,254149,,18,order
screen,html.Screen,1_1_1_1_19,2022-05-03T12:12:28.727Z,,,,,,,,,,,,,,,,54,,,,,,,,,,,,,,611,,response,,,,100,,,,,,,Space,keypress(Space),,,,,,,,-- --- ---- --- ------ ----- ------- ---- -- --- ------- --<br>------- ---------- ------ -- ----- -- ----- to ---- ------<br>--- ----- --- --- ------ -------- ----- --- ------ ----- --<br>----- ----- ---------- --- --- ------ ------ ---- -- ------<br>------- --- ------ ----- --- ---- ------- -- ---- --- --<br>------- ------,254666,254743,254132,254123.00000000003,254149,254699,,19,to
screen,html.Screen,1_1_1_1_20,2022-05-03T12:12:29.290Z,,,,,,,,,,,,,,,,54,,,,,,,,,,,,,,623,,response,,,,100,,,,,,,Space,keypress(Space),,,,,,,,-- --- ---- --- ------ ----- ------- ---- -- --- ------- --<br>------- ---------- ------ -- ----- -- ----- -- save ------<br>--- ----- --- --- ------ -------- ----- --- ------ ----- --<br>----- ----- ---------- --- --- ------ ------ ---- -- ------<br>------- --- ------ ----- --- ---- ------- -- ---- --- --<br>------- ------,255229,255306,254683,254666,254699,255249,,20,save
screen,html.Screen,1_1_1_1_21,2022-05-03T12:12:30.143Z,,,,,,,,,,,,,,,,54,,,,,,,,,,,,,,927,,response,,,,100,,,,,,,Space,keypress(Space),,,,,,,,"-- --- ---- --- ------ ----- ------- ---- -- --- ------- --<br>------- ---------- ------ -- ----- -- ----- -- ---- money,<br>--- ----- --- --- ------ -------- ----- --- ------ ----- --<br>----- ----- ---------- --- --- ------ ------ ---- -- ------<br>------- --- ------ ----- --- ---- ------- -- ---- --- --<br>------- ------",256082,256159,255232,255229,255249,256116,,21,"money,"
screen,html.Screen,1_1_1_1_22,2022-05-03T12:12:30.756Z,,,,,,,,,,,,,,,,54,,,,,,,,,,,,,,673,,response,,,,100,,,,,,,Space,keypress(Space),,,,,,,,-- --- ---- --- ------ ----- ------- ---- -- --- ------- --<br>------- ---------- ------ -- ----- -- ----- -- ---- ------<br>the ----- --- --- ------ -------- ----- --- ------ ----- --<br>----- ----- ---------- --- --- ------ ------ ---- -- ------<br>------- --- ------ ----- --- ---- ------- -- ---- --- --<br>------- ------,256695,256772,256099,256082,256116,256732,,22,the
screen,html.Screen,1_1_1_1_23,2022-05-03T12:12:31.333Z,,,,,,,,,,,,,,,,54,,,,,,,,,,,,,,634.0000000000291,,response,,,,100,,,,,,,Space,keypress(Space),,,,,,,,-- --- ---- --- ------ ----- ------- ---- -- --- ------- --<br>------- ---------- ------ -- ----- -- ----- -- ---- ------<br>--- state --- --- ------ -------- ----- --- ------ ----- --<br>----- ----- ---------- --- --- ------ ------ ---- -- ------<br>------- --- ------ ----- --- ---- ------- -- ---- --- --<br>------- ------,257272,257350.00000000003,256716,256695,256732,257300,,23,state
screen,html.Screen,1_1_1_1_24,2022-05-03T12:12:31.898Z,,,,,,,,,,,,,,,,54,,,,,,,,,,,,,,631,,response,,,,100,,,,,,,Space,keypress(Space),,,,,,,,-- --- ---- --- ------ ----- ------- ---- -- --- ------- --<br>------- ---------- ------ -- ----- -- ----- -- ---- ------<br>--- ----- cut --- ------ -------- ----- --- ------ ----- --<br>----- ----- ---------- --- --- ------ ------ ---- -- ------<br>------- --- ------ ----- --- ---- ------- -- ---- --- --<br>------- ------,257837,257914,257283,257272,257300,257866,,24,cut
screen,html.Screen,1_1_1_1_25,2022-05-03T12:12:33.036Z,,,,,,,,,,,,,,,,54,,,,,,,,,,,,,,1204,,response,,,,100,,,,,,,Space,keypress(Space),,,,,,,,-- --- ---- --- ------ ----- ------- ---- -- --- ------- --<br>------- ---------- ------ -- ----- -- ----- -- ---- ------<br>--- ----- --- the ------ -------- ----- --- ------ ----- --<br>----- ----- ---------- --- --- ------ ------ ---- -- ------<br>------- --- ------ ----- --- ---- ------- -- ---- --- --<br>------- ------,258976,259053,257849,257837,257866,258998,,25,the
screen,html.Screen,1_1_1_1_26,2022-05-03T12:12:33.696Z,,,,,,,,,,,,,,,,54,,,,,,,,,,,,,,731.0000000000291,,response,,,,100,,,,,,,Space,keypress(Space),,,,,,,,-- --- ---- --- ------ ----- ------- ---- -- --- ------- --<br>------- ---------- ------ -- ----- -- ----- -- ---- ------<br>--- ----- --- --- bonds' -------- ----- --- ------ ----- --<br>----- ----- ---------- --- --- ------ ------ ---- -- ------<br>------- --- ------ ----- --- ---- ------- -- ---- --- --<br>------- ------,259635,259713.00000000003,258982,258976,258998,259665,,26,bonds'
screen,html.Screen,1_1_1_1_27,2022-05-03T12:12:34.453Z,,,,,,,,,,,,,,,,54,,,,,,,,,,,,,,822.0000000000291,,response,,,,100,,,,,,,Space,keypress(Space),,,,,,,,-- --- ---- --- ------ ----- ------- ---- -- --- ------- --<br>------- ---------- ------ -- ----- -- ----- -- ---- ------<br>--- ----- --- --- ------ interest ----- --- ------ ----- --<br>----- ----- ---------- --- --- ------ ------ ---- -- ------<br>------- --- ------ ----- --- ---- ------- -- ---- --- --<br>------- ------,260392,260470.00000000003,259648,259635,259665,260415,,27,interest
screen,html.Screen,1_1_1_1_28,2022-05-03T12:12:35.289Z,,,,,,,,,,,,,,,,54,,,,,,,,,,,,,,907.9999999999709,,response,,,,100,,,,,,,Space,keypress(Space),,,,,,,,-- --- ---- --- ------ ----- ------- ---- -- --- ------- --<br>------- ---------- ------ -- ----- -- ----- -- ---- ------<br>--- ----- --- --- ------ -------- rate. --- ------ ----- --<br>----- ----- ---------- --- --- ------ ------ ---- -- ------<br>------- --- ------ ----- --- ---- ------- -- ---- --- --<br>------- ------,261228,261305.99999999997,260398,260392,260415,261264,,28,rate.
screen,html.Screen,1_1_1_1_29,2022-05-03T12:12:35.820Z,,,,,,,,,,,,,,,,54,,,,,,,,,,,,,,589,,response,,,,100,,,,,,,Space,keypress(Space),,,,,,,,-- --- ---- --- ------ ----- ------- ---- -- --- ------- --<br>------- ---------- ------ -- ----- -- ----- -- ---- ------<br>--- ----- --- --- ------ -------- ----- The ------ ----- --<br>----- ----- ---------- --- --- ------ ------ ---- -- ------<br>------- --- ------ ----- --- ---- ------- -- ---- --- --<br>------- ------,261760,261837,261248,261228,261264,261781,,29,The
screen,html.Screen,1_1_1_1_30,2022-05-03T12:12:36.373Z,,,,,,,,,,,,,,,,54,,,,,,,,,,,,,,626,,response,,,,100,,,,,,,Space,keypress(Space),,,,,,,,-- --- ---- --- ------ ----- ------- ---- -- --- ------- --<br>------- ---------- ------ -- ----- -- ----- -- ---- ------<br>--- ----- --- --- ------ -------- ----- --- market ----- --<br>----- ----- ---------- --- --- ------ ------ ---- -- ------<br>------- --- ------ ----- --- ---- ------- -- ---- --- --<br>------- ------,262312,262390,261764,261760,261781,262348,,30,market
screen,html.Screen,1_1_1_1_31,2022-05-03T12:12:37.041Z,,,,,,,,,,,,,,,,54,,,,,,,,,,,,,,727,,response,,,,100,,,,,,,Space,keypress(Space),,,,,,,,-- --- ---- --- ------ ----- ------- ---- -- --- ------- --<br>------- ---------- ------ -- ----- -- ----- -- ---- ------<br>--- ----- --- --- ------ -------- ----- --- ------ value --<br>----- ----- ---------- --- --- ------ ------ ---- -- ------<br>------- --- ------ ----- --- ---- ------- -- ---- --- --<br>------- ------,262981,263058,262331,262312,262348,263014,,31,value
screen,html.Screen,1_1_1_1_32,2022-05-03T12:12:37.590Z,,,,,,,,,,,,,,,,54,,,,,,,,,,,,,,609,,response,,,,100,,,,,,,Space,keypress(Space),,,,,,,,-- --- ---- --- ------ ----- ------- ---- -- --- ------- --<br>------- ---------- ------ -- ----- -- ----- -- ---- ------<br>--- ----- --- --- ------ -------- ----- --- ------ ----- of<br>----- ----- ---------- --- --- ------ ------ ---- -- ------<br>------- --- ------ ----- --- ---- ------- -- ---- --- --<br>------- ------,263529,263607,262998,262981,263014,263564,,32,of
screen,html.Screen,1_1_1_1_33,2022-05-03T12:12:38.127Z,,,,,,,,,,,,,,,,54,,,,,,,,,,,,,,596,,response,,,,100,,,,,,,Space,keypress(Space),,,,,,,,-- --- ---- --- ------ ----- ------- ---- -- --- ------- --<br>------- ---------- ------ -- ----- -- ----- -- ---- ------<br>--- ----- --- --- ------ -------- ----- --- ------ ----- --<br>these ----- ---------- --- --- ------ ------ ---- -- ------<br>------- --- ------ ----- --- ---- ------- -- ---- --- --<br>------- ------,264066.00000000006,264144,263548,263529,263564,264098,,33,these
screen,html.Screen,1_1_1_1_34,2022-05-03T12:12:38.755Z,,,,,,,,,,,,,,,,54,,,,,,,,,,,,,,691,,response,,,,100,,,,,,,Space,keypress(Space),,,,,,,,-- --- ---- --- ------ ----- ------- ---- -- --- ------- --<br>------- ---------- ------ -- ----- -- ----- -- ---- ------<br>--- ----- --- --- ------ -------- ----- --- ------ ----- --<br>----- bonds ---------- --- --- ------ ------ ---- -- ------<br>------- --- ------ ----- --- ---- ------- -- ---- --- --<br>------- ------,264694,264772,264081,264066.00000000006,264098,264732,,34,bonds
screen,html.Screen,1_1_1_1_35,2022-05-03T12:12:39.539Z,,,,,,,,,,,,,,,,54,,,,,,,,,,,,,,842,,response,,,,100,,,,,,,Space,keypress(Space),,,,,,,,"-- --- ---- --- ------ ----- ------- ---- -- --- ------- --<br>------- ---------- ------ -- ----- -- ----- -- ---- ------<br>--- ----- --- --- ------ -------- ----- --- ------ ----- --<br>----- ----- plummeted, --- --- ------ ------ ---- -- ------<br>------- --- ------ ----- --- ---- ------- -- ---- --- --<br>------- ------",265479,265557,264715,264694,264732,265514,,35,"plummeted,"
screen,html.Screen,1_1_1_1_36,2022-05-03T12:12:40.135Z,,,,,,,,,,,,,,,,54,,,,,,,,,,,,,,654,,response,,,,100,,,,,,,Space,keypress(Space),,,,,,,,-- --- ---- --- ------ ----- ------- ---- -- --- ------- --<br>------- ---------- ------ -- ----- -- ----- -- ---- ------<br>--- ----- --- --- ------ -------- ----- --- ------ ----- --<br>----- ----- ---------- and --- ------ ------ ---- -- ------<br>------- --- ------ ----- --- ---- ------- -- ---- --- --<br>------- ------,266074,266152,265498,265479,265514,266097,,36,and
screen,html.Screen,1_1_1_1_37,2022-05-03T12:12:40.658Z,,,,,,,,,,,,,,,,54,,,,,,,,,,,,,,595,,response,,,,100,,,,,,,Space,keypress(Space),,,,,,,,-- --- ---- --- ------ ----- ------- ---- -- --- ------- --<br>------- ---------- ------ -- ----- -- ----- -- ---- ------<br>--- ----- --- --- ------ -------- ----- --- ------ ----- --<br>----- ----- ---------- --- the ------ ------ ---- -- ------<br>------- --- ------ ----- --- ---- ------- -- ---- --- --<br>------- ------,266598,266676,266081,266074,266097,266630,,37,the
screen,html.Screen,1_1_1_1_38,2022-05-03T12:12:41.230Z,,,,,,,,,,,,,,,,54,,,,,,,,,,,,,,634,,response,,,,100,,,,,,,Space,keypress(Space),,,,,,,,-- --- ---- --- ------ ----- ------- ---- -- --- ------- --<br>------- ---------- ------ -- ----- -- ----- -- ---- ------<br>--- ----- --- --- ------ -------- ----- --- ------ ----- --<br>----- ----- ---------- --- --- market ------ ---- -- ------<br>------- --- ------ ----- --- ---- ------- -- ---- --- --<br>------- ------,267170,267248,266614,266598,266630,267198,,38,market
screen,html.Screen,1_1_1_1_39,2022-05-03T12:12:41.827Z,,,,,,,,,,,,,,,,54,,,,,,,,,,,,,,663,,response,,,,100,,,,,,,Space,keypress(Space),,,,,,,,-- --- ---- --- ------ ----- ------- ---- -- --- ------- --<br>------- ---------- ------ -- ----- -- ----- -- ---- ------<br>--- ----- --- --- ------ -------- ----- --- ------ ----- --<br>----- ----- ---------- --- --- ------ became ---- -- ------<br>------- --- ------ ----- --- ---- ------- -- ---- --- --<br>------- ------,267766,267844,267181,267170,267198,267798,,39,became
screen,html.Screen,1_1_1_1_40,2022-05-03T12:12:42.313Z,,,,,,,,,,,,,,,,54,,,,,,,,,,,,,,549,,response,,,,100,,,,,,,Space,keypress(Space),,,,,,,,-- --- ---- --- ------ ----- ------- ---- -- --- ------- --<br>------- ---------- ------ -- ----- -- ----- -- ---- ------<br>--- ----- --- --- ------ -------- ----- --- ------ ----- --<br>----- ----- ---------- --- --- ------ ------ wary -- ------<br>------- --- ------ ----- --- ---- ------- -- ---- --- --<br>------- ------,268252,268330,267781,267767,267798,268281,,40,wary
screen,html.Screen,1_1_1_1_41,2022-05-03T12:12:42.945Z,,,,,,,,,,,,,,,,54,,,,,,,,,,,,,,697,,response,,,,100,,,,,,,Space,keypress(Space),,,,,,,,-- --- ---- --- ------ ----- ------- ---- -- --- ------- --<br>------- ---------- ------ -- ----- -- ----- -- ---- ------<br>--- ----- --- --- ------ -------- ----- --- ------ ----- --<br>----- ----- ---------- --- --- ------ ------ ---- of ------<br>------- --- ------ ----- --- ---- ------- -- ---- --- --<br>------- ------,268885,268962,268265,268252,268281,268914,,41,of
screen,html.Screen,1_1_1_1_42,2022-05-03T12:12:43.553Z,,,,,,,,,,,,,,,,54,,,,,,,,,,,,,,674,,response,,,,100,,,,,,,Space,keypress(Space),,,,,,,,-- --- ---- --- ------ ----- ------- ---- -- --- ------- --<br>------- ---------- ------ -- ----- -- ----- -- ---- ------<br>--- ----- --- --- ------ -------- ----- --- ------ ----- --<br>----- ----- ---------- --- --- ------ ------ ---- -- French<br>------- --- ------ ----- --- ---- ------- -- ---- --- --<br>------- ------,269492,269571,268897,268885,268914,269513,,42,French
screen,html.Screen,1_1_1_1_43,2022-05-03T12:12:44.619Z,,,,,,,,,,,,,,,,54,,,,,,,,,,,,,,1140,,response,,,,100,,,,,,,Space,keypress(Space),,,,,,,,-- --- ---- --- ------ ----- ------- ---- -- --- ------- --<br>------- ---------- ------ -- ----- -- ----- -- ---- ------<br>--- ----- --- --- ------ -------- ----- --- ------ ----- --<br>----- ----- ---------- --- --- ------ ------ ---- -- ------<br>credit. --- ------ ----- --- ---- ------- -- ---- --- --<br>------- ------,270559,270637,269497,269492,269513,270580,,43,credit.
screen,html.Screen,1_1_1_1_44,2022-05-03T12:12:45.194Z,,,,,,,,,,,,,,,,54,,,,,,,,,,,,,,649,,response,,,,100,,,,,,,Space,keypress(Space),,,,,,,,-- --- ---- --- ------ ----- ------- ---- -- --- ------- --<br>------- ---------- ------ -- ----- -- ----- -- ---- ------<br>--- ----- --- --- ------ -------- ----- --- ------ ----- --<br>----- ----- ---------- --- --- ------ ------ ---- -- ------<br>------- The ------ ----- --- ---- ------- -- ---- --- --<br>------- ------,271134,271212,270563,270559,270580,271163,,44,The
screen,html.Screen,1_1_1_1_45,2022-05-03T12:12:45.812Z,,,,,,,,,,,,,,,,54,,,,,,,,,,,,,,683,,response,,,,100,,,,,,,Space,keypress(Space),,,,,,,,-- --- ---- --- ------ ----- ------- ---- -- --- ------- --<br>------- ---------- ------ -- ----- -- ----- -- ---- ------<br>--- ----- --- --- ------ -------- ----- --- ------ ----- --<br>----- ----- ---------- --- --- ------ ------ ---- -- ------<br>------- --- French ----- --- ---- ------- -- ---- --- --<br>------- ------,271752,271830,271147,271134,271163,271780,,45,French
screen,html.Screen,1_1_1_1_46,2022-05-03T12:12:46.454Z,,,,,,,,,,,,,,,,54,,,,,,,,,,,,,,707,,response,,,,100,,,,,,,Space,keypress(Space),,,,,,,,-- --- ---- --- ------ ----- ------- ---- -- --- ------- --<br>------- ---------- ------ -- ----- -- ----- -- ---- ------<br>--- ----- --- --- ------ -------- ----- --- ------ ----- --<br>----- ----- ---------- --- --- ------ ------ ---- -- ------<br>------- --- ------ state --- ---- ------- -- ---- --- --<br>------- ------,272393,272471,271764,271752,271780,272430,,46,state
screen,html.Screen,1_1_1_1_47,2022-05-03T12:12:47.061Z,,,,,,,,,,,,,,,,54,,,,,,,,,,,,,,666,,response,,,,100,,,,,,,Space,keypress(Space),,,,,,,,-- --- ---- --- ------ ----- ------- ---- -- --- ------- --<br>------- ---------- ------ -- ----- -- ----- -- ---- ------<br>--- ----- --- --- ------ -------- ----- --- ------ ----- --<br>----- ----- ---------- --- --- ------ ------ ---- -- ------<br>------- --- ------ ----- was ---- ------- -- ---- --- --<br>------- ------,273001.00000000006,273079,272413,272394,272430,273030,,47,was
screen,html.Screen,1_1_1_1_48,2022-05-03T12:12:47.650Z,,,,,,,,,,,,,,,,54,,,,,,,,,,,,,,655,,response,,,,100,,,,,,,Space,keypress(Space),,,,,,,,-- --- ---- --- ------ ----- ------- ---- -- --- ------- --<br>------- ---------- ------ -- ----- -- ----- -- ---- ------<br>--- ----- --- --- ------ -------- ----- --- ------ ----- --<br>----- ----- ---------- --- --- ------ ------ ---- -- ------<br>------- --- ------ ----- --- left ------- -- ---- --- --<br>------- ------,273590.00000000006,273668,273013,273001.00000000006,273030,273613,,48,left
screen,html.Screen,1_1_1_1_49,2022-05-03T12:12:48.294Z,,,,,,,,,,,,,,,,54,,,,,,,,,,,,,,716,,response,,,,100,,,,,,,Space,keypress(Space),,,,,,,,-- --- ---- --- ------ ----- ------- ---- -- --- ------- --<br>------- ---------- ------ -- ----- -- ----- -- ---- ------<br>--- ----- --- --- ------ -------- ----- --- ------ ----- --<br>----- ----- ---------- --- --- ------ ------ ---- -- ------<br>------- --- ------ ----- --- ---- without -- ---- --- --<br>------- ------,274234,274312,273596,273590.00000000006,273613,274262,,49,without
screen,html.Screen,1_1_1_1_50,2022-05-03T12:12:48.731Z,,,,,,,,,,,,,,,,54,,,,,,,,,,,,,,503,,response,,,,100,,,,,,,Space,keypress(Space),,,,,,,,-- --- ---- --- ------ ----- ------- ---- -- --- ------- --<br>------- ---------- ------ -- ----- -- ----- -- ---- ------<br>--- ----- --- --- ------ -------- ----- --- ------ ----- --<br>----- ----- ---------- --- --- ------ ------ ---- -- ------<br>------- --- ------ ----- --- ---- ------- an ---- --- --<br>------- ------,274671,274749,274246,274234,274262,274696,,50,an
screen,html.Screen,1_1_1_1_51,2022-05-03T12:12:49.316Z,,,,,,,,,,,,,,,,54,,,,,,,,,,,,,,655,,response,,,,100,,,,,,,Space,keypress(Space),,,,,,,,-- --- ---- --- ------ ----- ------- ---- -- --- ------- --<br>------- ---------- ------ -- ----- -- ----- -- ---- ------<br>--- ----- --- --- ------ -------- ----- --- ------ ----- --<br>----- ----- ---------- --- --- ------ ------ ---- -- ------<br>------- --- ------ ----- --- ---- ------- -- easy --- --<br>------- ------,275256,275335,274680,274671,274696,275280,,51,easy
screen,html.Screen,1_1_1_1_52,2022-05-03T12:12:49.801Z,,,,,,,,,,,,,,,,54,,,,,,,,,,,,,,556,,response,,,,100,,,,,,,Space,keypress(Space),,,,,,,,-- --- ---- --- ------ ----- ------- ---- -- --- ------- --<br>------- ---------- ------ -- ----- -- ----- -- ---- ------<br>--- ----- --- --- ------ -------- ----- --- ------ ----- --<br>----- ----- ---------- --- --- ------ ------ ---- -- ------<br>------- --- ------ ----- --- ---- ------- -- ---- way --<br>------- ------,275741,275819,275263,275256,275280,275763,,52,way
screen,html.Screen,1_1_1_1_53,2022-05-03T12:12:50.447Z,,,,,,,,,,,,,,,,54,,,,,,,,,,,,,,720,,response,,,,100,,,,,,,Space,keypress(Space),,,,,,,,-- --- ---- --- ------ ----- ------- ---- -- --- ------- --<br>------- ---------- ------ -- ----- -- ----- -- ---- ------<br>--- ----- --- --- ------ -------- ----- --- ------ ----- --<br>----- ----- ---------- --- --- ------ ------ ---- -- ------<br>------- --- ------ ----- --- ---- ------- -- ---- --- of<br>------- ------,276387,276466,275746,275741,275763,276413,,53,of
screen,html.Screen,1_1_1_1_54,2022-05-03T12:12:51.006Z,,,,,,,,,,,,,,,,54,,,,,,,,,,,,,,628,,response,,,,100,,,,,,,Space,keypress(Space),,,,,,,,-- --- ---- --- ------ ----- ------- ---- -- --- ------- --<br>------- ---------- ------ -- ----- -- ----- -- ---- ------<br>--- ----- --- --- ------ -------- ----- --- ------ ----- --<br>----- ----- ---------- --- --- ------ ------ ---- -- ------<br>------- --- ------ ----- --- ---- ------- -- ---- --- --<br>raising ------,276946,277024,276396,276387,276413,276980,,54,raising
screen,html.Screen,1_1_1_1_55,2022-05-03T12:12:51.413Z,,,,,,,,,,,,,,,,54,,,,,,,,,,,,,,468,,response,,,,100,,,,,,,Space,keypress(Space),,,,,,,,-- --- ---- --- ------ ----- ------- ---- -- --- ------- --<br>------- ---------- ------ -- ----- -- ----- -- ---- ------<br>--- ----- --- --- ------ -------- ----- --- ------ ----- --<br>----- ----- ---------- --- --- ------ ------ ---- -- ------<br>------- --- ------ ----- --- ---- ------- -- ---- --- --<br>------- money.,277353,277431,276963,276946,276980,277380,,55,money.
Item 100,flow.Loop,1_1_1_1,2022-05-03T12:12:51.413Z,,,,,,,,,,,,,,,,,,,,,,,,,,,,,,36884,,completion,,,,,F,,,,,,,,,,,silence,,,,,277353,277431,240531,240532,240547,277380,,,
Question 1,html.Screen,1_1_1_2,2022-05-03T12:12:53.539Z,,,,,,,,,,,,,,,,,,,,,,,,,,,true,TRUE,,2181,,response,,,,100,F,,,,,,TRUE,click #choice-1,,,,silence,,,,,279479,279545,277364,277353,277380,279502,,,
Question 2,html.Screen,1_1_1_3,2022-05-03T12:12:55.884Z,,,,,,,,,,,,,,,,,,,,,,,,,,,true,FALSE,,2412,,response,,,,100,F,,,,,,FALSE,click #choice-2,,,,silence,,,,,281824,281898,279486,279479,279502,281853,,,
Item 100,flow.Sequence,1_1_1,2022-05-03T12:12:55.884Z,,,,,,,,,,,,,,,,,,,,,,,,,,,,,,51356,,completion,,,,,,,,,,,,,,,,,,,,,281824,281898,230525,230509,230542,281853,,,
End of Practice,html.Page,1_1_2,2022-05-03T12:13:03.536Z,,,,,,,,,,,,,,,,,,,,,,,,,,,,,,7623,,form submission,,,,,,,,,,,,,,,,,,,,,289477.00000000006,289476,281837,281824,281853,289503,,,
Practice,flow.Sequence,1_1,2022-05-03T12:13:03.536Z,,,,,,,,,,,,,,,,,,,,,,,,,,,,,,117872,,completion,,,,,,,,,,,,,,,,,,,,,289477.00000000006,289476,171587,171581.00000000003,171604,289503,,,
Trap_instruction,html.Page,1_2_0,2022-05-03T12:13:08.777Z,,,,,,,,,,,,,,,,,,,,,,,,,,,,,,5214,,form submission,,,,,,,,,,,,,,,,,,,,,294718,294717,289486,289477.00000000006,289503,294745,,,
trap_trial,html.Screen,1_2_1,2022-05-03T12:13:11.537Z,,,,,,,,,,,,,,,,,,,,,,,,,,,true,1,,2820,,response,,,,,,,,,,,1,click #choice-1,,,,,,,,,297478,297548,294728,294718,294745,297500,,,
end of trap trial,html.Page,1_2_2,2022-05-03T12:13:13.745Z,,,,,,,,,,,,,,,,,,,,,,,,,,,,,,2186,,form submission,,,,,,,,,,,,,,,,,,,,,299686,299686,297497,297479,297500,299711,,,
Trap 1,flow.Sequence,1_2,2022-05-03T12:13:13.746Z,,,,,,,,,,,,,,,,,,,,,,,,,,,,,,10183,,completion,,,,,,,,,,,,,,,,,,,,,299687,299686,289486,289477.00000000006,289503,299711,,,
Standby,html.Page,1_3_0,2022-05-03T12:13:21.745Z,,,,,,,,,,,,,,,,,,,,,,,,,,,,,,7989,,timeout,,,,,,,,,,,,,,,,,,,,,307687,307687,299697,299687,299711,307700,,,
Holding screen,html.Screen,1_3_1_0_0,2022-05-03T12:13:28.742Z,,,,,,,,,,,,,,,,,,,,,,,,,,,,,,7000,,timeout,,,,,,,,,,,,,,,,,,,,,314684,314684,307687,307687,307700,314700,,,
screen,html.Screen,1_3_1_0_1_0,2022-05-03T12:13:33.991Z,,,,,,,,,,,,,,,,48,,,,,,,,,,,,,,5329.000000000058,,response,,,,10,F,,,,,,Space,keypress(Space),,,,instrumental,,,,As -- --- ------ ------- --------- ----------- --------<br>--------- -------- --- ------- -- ------- ---- -- ------<br>-- --- -------- -------- ---------- ---- ---- ---- ------<br>-- --------- -- ---- -- --- -- --- ------- -- - -----<br>---------- -- -- -- ---- ----- -- ------ -- --- ------<br>-------,319933,320013.00000000006,314684,314684,314700,319968,,0,As
screen,html.Screen,1_3_1_0_1_1,2022-05-03T12:13:34.532Z,,,,,,,,,,,,,,,,48,,,,,,,,,,,,,,603.0000000000582,,response,,,,10,F,,,,,,Space,keypress(Space),,,,instrumental,,,,-- in --- ------ ------- --------- ----------- --------<br>--------- -------- --- ------- -- ------- ---- -- ------<br>-- --- -------- -------- ---------- ---- ---- ---- ------<br>-- --------- -- ---- -- --- -- --- ------- -- - -----<br>---------- -- -- -- ---- ----- -- ------ -- --- ------<br>-------,320474,320554.00000000006,319951,319933,319968,320509,,1,in
screen,html.Screen,1_3_1_0_1_2,2022-05-03T12:13:35.125Z,,,,,,,,,,,,,,,,48,,,,,,,,,,,,,,656,,response,,,,10,F,,,,,,Space,keypress(Space),,,,instrumental,,,,-- -- the ------ ------- --------- ----------- --------<br>--------- -------- --- ------- -- ------- ---- -- ------<br>-- --- -------- -------- ---------- ---- ---- ---- ------<br>-- --------- -- ---- -- --- -- --- ------- -- - -----<br>---------- -- -- -- ---- ----- -- ------ -- --- ------<br>-------,321067,321148,320492,320474,320509,321103,,2,the
screen,html.Screen,1_3_1_0_1_3,2022-05-03T12:13:35.634Z,,,,,,,,,,,,,,,,48,,,,,,,,,,,,,,571,,response,,,,10,F,,,,,,Space,keypress(Space),,,,instrumental,,,,-- -- --- United ------- --------- ----------- --------<br>--------- -------- --- ------- -- ------- ---- -- ------<br>-- --- -------- -------- ---------- ---- ---- ---- ------<br>-- --------- -- ---- -- --- -- --- ------- -- - -----<br>---------- -- -- -- ---- ----- -- ------ -- --- ------<br>-------,321576,321657,321086,321067,321103,321611,,3,United
screen,html.Screen,1_3_1_0_1_4,2022-05-03T12:13:36.205Z,,,,,,,,,,,,,,,,48,,,,,,,,,,,,,,632.0000000000582,,response,,,,10,F,,,,,,Space,keypress(Space),,,,instrumental,,,,"-- -- --- ------ States, --------- ----------- --------<br>--------- -------- --- ------- -- ------- ---- -- ------<br>-- --- -------- -------- ---------- ---- ---- ---- ------<br>-- --------- -- ---- -- --- -- --- ------- -- - -----<br>---------- -- -- -- ---- ----- -- ------ -- --- ------<br>-------",322147,322227.00000000006,321595,321576,321611,322175,,4,"States,"
screen,html.Screen,1_3_1_0_1_5,2022-05-03T12:13:36.854Z,,,,,,,,,,,,,,,,48,,,,,,,,,,,,,,718.0000000000582,,response,,,,10,F,,,,,,Space,keypress(Space),,,,instrumental,,,,-- -- --- ------ ------- Colombian ----------- --------<br>--------- -------- --- ------- -- ------- ---- -- ------<br>-- --- -------- -------- ---------- ---- ---- ---- ------<br>-- --------- -- ---- -- --- -- --- ------- -- - -----<br>---------- -- -- -- ---- ----- -- ------ -- --- ------<br>-------,322796,322876.00000000006,322158,322147,322175,322819,,5,Colombian
screen,html.Screen,1_3_1_0_1_6,2022-05-03T12:13:37.507Z,,,,,,,,,,,,,,,,48,,,,,,,,,,,,,,728.0000000000582,,response,,,,10,F,,,,,,Space,keypress(Space),,,,instrumental,,,,-- -- --- ------ ------- --------- legislation --------<br>--------- -------- --- ------- -- ------- ---- -- ------<br>-- --- -------- -------- ---------- ---- ---- ---- ------<br>-- --------- -- ---- -- --- -- --- ------- -- - -----<br>---------- -- -- -- ---- ----- -- ------ -- --- ------<br>-------,323449,323530.00000000006,322802,322796,322819,323482,,6,legislation
screen,html.Screen,1_3_1_0_1_7,2022-05-03T12:13:38.167Z,,,,,,,,,,,,,,,,48,,,,,,,,,,,,,,725,,response,,,,10,F,,,,,,Space,keypress(Space),,,,instrumental,,,,-- -- --- ------ ------- --------- ----------- requires<br>--------- -------- --- ------- -- ------- ---- -- ------<br>-- --- -------- -------- ---------- ---- ---- ---- ------<br>-- --------- -- ---- -- --- -- --- ------- -- - -----<br>---------- -- -- -- ---- ----- -- ------ -- --- ------<br>-------,324109,324190,323465,323449,323482,324142,,7,requires
screen,html.Screen,1_3_1_0_1_8,2022-05-03T12:13:38.856Z,,,,,,,,,,,,,,,,48,,,,,,,,,,,,,,752,,response,,,,10,F,,,,,,Space,keypress(Space),,,,instrumental,,,,-- -- --- ------ ------- --------- ----------- --------<br>travelers -------- --- ------- -- ------- ---- -- ------<br>-- --- -------- -------- ---------- ---- ---- ---- ------<br>-- --------- -- ---- -- --- -- --- ------- -- - -----<br>---------- -- -- -- ---- ----- -- ------ -- --- ------<br>-------,324798,324878,324126,324109,324142,324822,,8,travelers
screen,html.Screen,1_3_1_0_1_9,2022-05-03T12:13:39.478Z,,,,,,,,,,,,,,,,48,,,,,,,,,,,,,,696.0000000000582,,response,,,,10,F,,,,,,Space,keypress(Space),,,,instrumental,,,,-- -- --- ------ ------- --------- ----------- --------<br>--------- entering --- ------- -- ------- ---- -- ------<br>-- --- -------- -------- ---------- ---- ---- ---- ------<br>-- --------- -- ---- -- --- -- --- ------- -- - -----<br>---------- -- -- -- ---- ----- -- ------ -- --- ------<br>-------,325420,325501.00000000006,324805,324798,324822,325448,,9,entering
screen,html.Screen,1_3_1_0_1_10,2022-05-03T12:13:40.031Z,,,,,,,,,,,,,,,,48,,,,,,,,,,,,,,623.0000000000582,,response,,,,10,F,,,,,,Space,keypress(Space),,,,instrumental,,,,-- -- --- ------ ------- --------- ----------- --------<br>--------- -------- the ------- -- ------- ---- -- ------<br>-- --- -------- -------- ---------- ---- ---- ---- ------<br>-- --------- -- ---- -- --- -- --- ------- -- - -----<br>---------- -- -- -- ---- ----- -- ------ -- --- ------<br>-------,325973,326054.00000000006,325431,325420,325448,325995,,10,the
screen,html.Screen,1_3_1_0_1_11,2022-05-03T12:13:40.679Z,,,,,,,,,,,,,,,,48,,,,,,,,,,,,,,724,,response,,,,10,F,,,,,,Space,keypress(Space),,,,instrumental,,,,-- -- --- ------ ------- --------- ----------- --------<br>--------- -------- --- country -- ------- ---- -- ------<br>-- --- -------- -------- ---------- ---- ---- ---- ------<br>-- --------- -- ---- -- --- -- --- ------- -- - -----<br>---------- -- -- -- ---- ----- -- ------ -- --- ------<br>-------,326621,326702,325978,325973,325995,326654,,11,country
screen,html.Screen,1_3_1_0_1_12,2022-05-03T12:13:41.110Z,,,,,,,,,,,,,,,,48,,,,,,,,,,,,,,495,,response,,,,10,F,,,,,,Space,keypress(Space),,,,instrumental,,,,-- -- --- ------ ------- --------- ----------- --------<br>--------- -------- --- ------- to ------- ---- -- ------<br>-- --- -------- -------- ---------- ---- ---- ---- ------<br>-- --------- -- ---- -- --- -- --- ------- -- - -----<br>---------- -- -- -- ---- ----- -- ------ -- --- ------<br>-------,327052,327133,326638,326622,326654,327085,,12,to
screen,html.Screen,1_3_1_0_1_13,2022-05-03T12:13:42.164Z,,,,,,,,,,,,,,,,48,,,,,,,,,,,,,,1119,,response,,,,10,F,,,,,,Space,keypress(Space),,,,instrumental,,,,-- -- --- ------ ------- --------- ----------- --------<br>--------- -------- --- ------- -- declare ---- -- ------<br>-- --- -------- -------- ---------- ---- ---- ---- ------<br>-- --------- -- ---- -- --- -- --- ------- -- - -----<br>---------- -- -- -- ---- ----- -- ------ -- --- ------<br>-------,328107,328187,327068,327052,327085,328128,,13,declare
screen,html.Screen,1_3_1_0_1_14,2022-05-03T12:13:42.671Z,,,,,,,,,,,,,,,,48,,,,,,,,,,,,,,583,,response,,,,10,F,,,,,,Space,keypress(Space),,,,instrumental,,,,-- -- --- ------ ------- --------- ----------- --------<br>--------- -------- --- ------- -- ------- cash -- ------<br>-- --- -------- -------- ---------- ---- ---- ---- ------<br>-- --------- -- ---- -- --- -- --- ------- -- - -----<br>---------- -- -- -- ---- ----- -- ------ -- --- ------<br>-------,328613,328694,328111,328107,328128,328641,,14,cash
screen,html.Screen,1_3_1_0_1_15,2022-05-03T12:13:43.138Z,,,,,,,,,,,,,,,,48,,,,,,,,,,,,,,536,,response,,,,10,F,,,,,,Space,keypress(Space),,,,instrumental,,,,-- -- --- ------ ------- --------- ----------- --------<br>--------- -------- --- ------- -- ------- ---- in ------<br>-- --- -------- -------- ---------- ---- ---- ---- ------<br>-- --------- -- ---- -- --- -- --- ------- -- - -----<br>---------- -- -- -- ---- ----- -- ------ -- --- ------<br>-------,329080,329161,328625,328613,328641,329102,,15,in
screen,html.Screen,1_3_1_0_1_16,2022-05-03T12:13:43.627Z,,,,,,,,,,,,,,,,48,,,,,,,,,,,,,,565.0000000000582,,response,,,,10,F,,,,,,Space,keypress(Space),,,,instrumental,,,,-- -- --- ------ ------- --------- ----------- --------<br>--------- -------- --- ------- -- ------- ---- -- excess<br>-- --- -------- -------- ---------- ---- ---- ---- ------<br>-- --------- -- ---- -- --- -- --- ------- -- - -----<br>---------- -- -- -- ---- ----- -- ------ -- --- ------<br>-------,329570,329650.00000000006,329085,329080,329102,329593,,16,excess
screen,html.Screen,1_3_1_0_1_17,2022-05-03T12:13:44.127Z,,,,,,,,,,,,,,,,48,,,,,,,,,,,,,,573.0000000000582,,response,,,,10,F,,,,,,Space,keypress(Space),,,,instrumental,,,,-- -- --- ------ ------- --------- ----------- --------<br>--------- -------- --- ------- -- ------- ---- -- ------<br>of --- -------- -------- ---------- ---- ---- ---- ------<br>-- --------- -- ---- -- --- -- --- ------- -- - -----<br>---------- -- -- -- ---- ----- -- ------ -- --- ------<br>-------,330069,330150.00000000006,329577,329570,329593,330102,,17,of
screen,html.Screen,1_3_1_0_1_18,2022-05-03T12:13:44.805Z,,,,,,,,,,,,,,,,48,,,,,,,,,,,,,,743.0000000000582,,response,,,,10,F,,,,,,Space,keypress(Space),,,,instrumental,,,,-- -- --- ------ ------- --------- ----------- --------<br>--------- -------- --- ------- -- ------- ---- -- ------<br>-- ten -------- -------- ---------- ---- ---- ---- ------<br>-- --------- -- ---- -- --- -- --- ------- -- - -----<br>---------- -- -- -- ---- ----- -- ------ -- --- ------<br>-------,330747,330828.00000000006,330085,330070,330102,330777,,18,ten
screen,html.Screen,1_3_1_0_1_19,2022-05-03T12:13:45.345Z,,,,,,,,,,,,,,,,48,,,,,,,,,,,,,,608,,response,,,,10,F,,,,,,Space,keypress(Space),,,,instrumental,,,,-- -- --- ------ ------- --------- ----------- --------<br>--------- -------- --- ------- -- ------- ---- -- ------<br>-- --- thousand -------- ---------- ---- ---- ---- ------<br>-- --------- -- ---- -- --- -- --- ------- -- - -----<br>---------- -- -- -- ---- ----- -- ------ -- --- ------<br>-------,331287.00000000006,331368,330760,330748,330777,331324,,19,thousand
screen,html.Screen,1_3_1_0_1_20,2022-05-03T12:13:46.341Z,,,,,,,,,,,,,,,,48,,,,,,,,,,,,,,1056.0000000000582,,response,,,,10,F,,,,,,Space,keypress(Space),,,,instrumental,,,,-- -- --- ------ ------- --------- ----------- --------<br>--------- -------- --- ------- -- ------- ---- -- ------<br>-- --- -------- dollars. ---------- ---- ---- ---- ------<br>-- --------- -- ---- -- --- -- --- ------- -- - -----<br>---------- -- -- -- ---- ----- -- ------ -- --- ------<br>-------,332284,332364.00000000006,331308,331287.00000000006,331324,332318,,20,dollars.
screen,html.Screen,1_3_1_0_1_21,2022-05-03T12:13:47.059Z,,,,,,,,,,,,,,,,48,,,,,,,,,,,,,,782,,response,,,,10,F,,,,,,Space,keypress(Space),,,,instrumental,,,,-- -- --- ------ ------- --------- ----------- --------<br>--------- -------- --- ------- -- ------- ---- -- ------<br>-- --- -------- -------- Concealing ---- ---- ---- ------<br>-- --------- -- ---- -- --- -- --- ------- -- - -----<br>---------- -- -- -- ---- ----- -- ------ -- --- ------<br>-------,333001.00000000006,333082,332300,332284,332318,333030,,21,Concealing
screen,html.Screen,1_3_1_0_1_22,2022-05-03T12:13:47.786Z,,,,,,,,,,,,,,,,48,,,,,,,,,,,,,,795,,response,,,,10,F,,,,,,Space,keypress(Space),,,,instrumental,,,,-- -- --- ------ ------- --------- ----------- --------<br>--------- -------- --- ------- -- ------- ---- -- ------<br>-- --- -------- -------- ---------- more ---- ---- ------<br>-- --------- -- ---- -- --- -- --- ------- -- - -----<br>---------- -- -- -- ---- ----- -- ------ -- --- ------<br>-------,333729,333809,333014,333001.00000000006,333030,333757,,22,more
screen,html.Screen,1_3_1_0_1_23,2022-05-03T12:13:48.457Z,,,,,,,,,,,,,,,,48,,,,,,,,,,,,,,740,,response,,,,10,F,,,,,,Space,keypress(Space),,,,instrumental,,,,-- -- --- ------ ------- --------- ----------- --------<br>--------- -------- --- ------- -- ------- ---- -- ------<br>-- --- -------- -------- ---------- ---- than ---- ------<br>-- --------- -- ---- -- --- -- --- ------- -- - -----<br>---------- -- -- -- ---- ----- -- ------ -- --- ------<br>-------,334399,334480,333740,333729,333757,334420,,23,than
screen,html.Screen,1_3_1_0_1_24,2022-05-03T12:13:49.218Z,,,,,,,,,,,,,,,,48,,,,,,,,,,,,,,837,,response,,,,10,F,,,,,,Space,keypress(Space),,,,instrumental,,,,-- -- --- ------ ------- --------- ----------- --------<br>--------- -------- --- ------- -- ------- ---- -- ------<br>-- --- -------- -------- ---------- ---- ---- that ------<br>-- --------- -- ---- -- --- -- --- ------- -- - -----<br>---------- -- -- -- ---- ----- -- ------ -- --- ------<br>-------,335161,335241,334404,334400.00000000006,334420,335197,,24,that
screen,html.Screen,1_3_1_0_1_25,2022-05-03T12:13:49.763Z,,,,,,,,,,,,,,,,48,,,,,,,,,,,,,,606,,response,,,,10,F,,,,,,Space,keypress(Space),,,,instrumental,,,,-- -- --- ------ ------- --------- ----------- --------<br>--------- -------- --- ------- -- ------- ---- -- ------<br>-- --- -------- -------- ---------- ---- ---- ---- amount<br>-- --------- -- ---- -- --- -- --- ------- -- - -----<br>---------- -- -- -- ---- ----- -- ------ -- --- ------<br>-------,335705,335786,335180,335161,335197,335727,,25,amount
screen,html.Screen,1_3_1_0_1_26,2022-05-03T12:13:50.354Z,,,,,,,,,,,,,,,,48,,,,,,,,,,,,,,667,,response,,,,10,F,,,,,,Space,keypress(Space),,,,instrumental,,,,-- -- --- ------ ------- --------- ----------- --------<br>--------- -------- --- ------- -- ------- ---- -- ------<br>-- --- -------- -------- ---------- ---- ---- ---- ------<br>to --------- -- ---- -- --- -- --- ------- -- - -----<br>---------- -- -- -- ---- ----- -- ------ -- --- ------<br>-------,336297,336377,335710,335706,335727,336321,,26,to
screen,html.Screen,1_3_1_0_1_27,2022-05-03T12:13:51.181Z,,,,,,,,,,,,,,,,48,,,,,,,,,,,,,,901,,response,,,,10,F,,,,,,Space,keypress(Space),,,,instrumental,,,,-- -- --- ------ ------- --------- ----------- --------<br>--------- -------- --- ------- -- ------- ---- -- ------<br>-- --- -------- -------- ---------- ---- ---- ---- ------<br>-- transport -- ---- -- --- -- --- ------- -- - -----<br>---------- -- -- -- ---- ----- -- ------ -- --- ------<br>-------,337124,337205,336304,336297,336321,337151,,27,transport
screen,html.Screen,1_3_1_0_1_28,2022-05-03T12:13:51.905Z,,,,,,,,,,,,,,,,48,,,,,,,,,,,,,,795.0000000000582,,response,,,,10,F,,,,,,Space,keypress(Space),,,,instrumental,,,,-- -- --- ------ ------- --------- ----------- --------<br>--------- -------- --- ------- -- ------- ---- -- ------<br>-- --- -------- -------- ---------- ---- ---- ---- ------<br>-- --------- it ---- -- --- -- --- ------- -- - -----<br>---------- -- -- -- ---- ----- -- ------ -- --- ------<br>-------,337848,337929.00000000006,337134,337124,337151,337877,,28,it
screen,html.Screen,1_3_1_0_1_29,2022-05-03T12:13:52.574Z,,,,,,,,,,,,,,,,48,,,,,,,,,,,,,,736,,response,,,,10,F,,,,,,Space,keypress(Space),,,,instrumental,,,,-- -- --- ------ ------- --------- ----------- --------<br>--------- -------- --- ------- -- ------- ---- -- ------<br>-- --- -------- -------- ---------- ---- ---- ---- ------<br>-- --------- -- into -- --- -- --- ------- -- - -----<br>---------- -- -- -- ---- ----- -- ------ -- --- ------<br>-------,338517,338597,337861,337848,337877,338540,,29,into
screen,html.Screen,1_3_1_0_1_30,2022-05-03T12:13:53.230Z,,,,,,,,,,,,,,,,48,,,,,,,,,,,,,,730,,response,,,,10,F,,,,,,Space,keypress(Space),,,,instrumental,,,,-- -- --- ------ ------- --------- ----------- --------<br>--------- -------- --- ------- -- ------- ---- -- ------<br>-- --- -------- -------- ---------- ---- ---- ---- ------<br>-- --------- -- ---- or --- -- --- ------- -- - -----<br>---------- -- -- -- ---- ----- -- ------ -- --- ------<br>-------,339173,339254,338524,338517,338540,339201,,30,or
screen,html.Screen,1_3_1_0_1_31,2022-05-03T12:13:53.762Z,,,,,,,,,,,,,,,,48,,,,,,,,,,,,,,602,,response,,,,10,F,,,,,,Space,keypress(Space),,,,instrumental,,,,-- -- --- ------ ------- --------- ----------- --------<br>--------- -------- --- ------- -- ------- ---- -- ------<br>-- --- -------- -------- ---------- ---- ---- ---- ------<br>-- --------- -- ---- -- out -- --- ------- -- - -----<br>---------- -- -- -- ---- ----- -- ------ -- --- ------<br>-------,339705,339786,339184,339173,339201,339730,,31,out
screen,html.Screen,1_3_1_0_1_32,2022-05-03T12:13:54.398Z,,,,,,,,,,,,,,,,48,,,,,,,,,,,,,,708,,response,,,,10,F,,,,,,Space,keypress(Space),,,,instrumental,,,,-- -- --- ------ ------- --------- ----------- --------<br>--------- -------- --- ------- -- ------- ---- -- ------<br>-- --- -------- -------- ---------- ---- ---- ---- ------<br>-- --------- -- ---- -- --- of --- ------- -- - -----<br>---------- -- -- -- ---- ----- -- ------ -- --- ------<br>-------,340341,340421,339713,339705,339730,340373,,32,of
screen,html.Screen,1_3_1_0_1_33,2022-05-03T12:13:54.851Z,,,,,,,,,,,,,,,,48,,,,,,,,,,,,,,519,,response,,,,10,F,,,,,,Space,keypress(Space),,,,instrumental,,,,-- -- --- ------ ------- --------- ----------- --------<br>--------- -------- --- ------- -- ------- ---- -- ------<br>-- --- -------- -------- ---------- ---- ---- ---- ------<br>-- --------- -- ---- -- --- -- the ------- -- - -----<br>---------- -- -- -- ---- ----- -- ------ -- --- ------<br>-------,340794,340875,340356,340342,340373,340820,,33,the
screen,html.Screen,1_3_1_0_1_34,2022-05-03T12:13:55.368Z,,,,,,,,,,,,,,,,48,,,,,,,,,,,,,,589,,response,,,,10,F,,,,,,Space,keypress(Space),,,,instrumental,,,,-- -- --- ------ ------- --------- ----------- --------<br>--------- -------- --- ------- -- ------- ---- -- ------<br>-- --- -------- -------- ---------- ---- ---- ---- ------<br>-- --------- -- ---- -- --- -- --- country -- - -----<br>---------- -- -- -- ---- ----- -- ------ -- --- ------<br>-------,341311.00000000006,341392,340803,340794,340820,341346,,34,country
screen,html.Screen,1_3_1_0_1_35,2022-05-03T12:13:56.022Z,,,,,,,,,,,,,,,,48,,,,,,,,,,,,,,717,,response,,,,10,F,,,,,,Space,keypress(Space),,,,instrumental,,,,-- -- --- ------ ------- --------- ----------- --------<br>--------- -------- --- ------- -- ------- ---- -- ------<br>-- --- -------- -------- ---------- ---- ---- ---- ------<br>-- --------- -- ---- -- --- -- --- ------- is - -----<br>---------- -- -- -- ---- ----- -- ------ -- --- ------<br>-------,341965.00000000006,342046,341329,341311.00000000006,341346,341989,,35,is
screen,html.Screen,1_3_1_0_1_36,2022-05-03T12:13:56.624Z,,,,,,,,,,,,,,,,48,,,,,,,,,,,,,,675,,response,,,,10,F,,,,,,Space,keypress(Space),,,,instrumental,,,,-- -- --- ------ ------- --------- ----------- --------<br>--------- -------- --- ------- -- ------- ---- -- ------<br>-- --- -------- -------- ---------- ---- ---- ---- ------<br>-- --------- -- ---- -- --- -- --- ------- -- a -----<br>---------- -- -- -- ---- ----- -- ------ -- --- ------<br>-------,342567,342648,341973,341966,341989,342603,,36,a
screen,html.Screen,1_3_1_0_1_37,2022-05-03T12:13:57.313Z,,,,,,,,,,,,,,,,48,,,,,,,,,,,,,,749,,response,,,,10,F,,,,,,Space,keypress(Space),,,,instrumental,,,,-- -- --- ------ ------- --------- ----------- --------<br>--------- -------- --- ------- -- ------- ---- -- ------<br>-- --- -------- -------- ---------- ---- ---- ---- ------<br>-- --------- -- ---- -- --- -- --- ------- -- - crime<br>---------- -- -- -- ---- ----- -- ------ -- --- ------<br>-------,343256,343336,342587,342567,342603,343279,,37,crime
screen,html.Screen,1_3_1_0_1_38,2022-05-03T12:13:57.974Z,,,,,,,,,,,,,,,,48,,,,,,,,,,,,,,736,,response,,,,10,F,,,,,,Space,keypress(Space),,,,instrumental,,,,-- -- --- ------ ------- --------- ----------- --------<br>--------- -------- --- ------- -- ------- ---- -- ------<br>-- --- -------- -------- ---------- ---- ---- ---- ------<br>-- --------- -- ---- -- --- -- --- ------- -- - -----<br>punishable -- -- -- ---- ----- -- ------ -- --- ------<br>-------,343918,343999,343263,343256,343279,343942,,38,punishable
screen,html.Screen,1_3_1_0_1_39,2022-05-03T12:13:58.467Z,,,,,,,,,,,,,,,,48,,,,,,,,,,,,,,565,,response,,,,10,F,,,,,,Space,keypress(Space),,,,instrumental,,,,-- -- --- ------ ------- --------- ----------- --------<br>--------- -------- --- ------- -- ------- ---- -- ------<br>-- --- -------- -------- ---------- ---- ---- ---- ------<br>-- --------- -- ---- -- --- -- --- ------- -- - -----<br>---------- by -- -- ---- ----- -- ------ -- --- ------<br>-------,344410,344491,343926,343918,343942,344436,,39,by
screen,html.Screen,1_3_1_0_1_40,2022-05-03T12:13:59.102Z,,,,,,,,,,,,,,,,48,,,,,,,,,,,,,,709,,response,,,,10,F,,,,,,Space,keypress(Space),,,,instrumental,,,,-- -- --- ------ ------- --------- ----------- --------<br>--------- -------- --- ------- -- ------- ---- -- ------<br>-- --- -------- -------- ---------- ---- ---- ---- ------<br>-- --------- -- ---- -- --- -- --- ------- -- - -----<br>---------- -- up -- ---- ----- -- ------ -- --- ------<br>-------,345045,345127,344418,344411,344436,345081,,40,up
screen,html.Screen,1_3_1_0_1_41,2022-05-03T12:13:59.527Z,,,,,,,,,,,,,,,,48,,,,,,,,,,,,,,486,,response,,,,10,F,,,,,,Space,keypress(Space),,,,instrumental,,,,-- -- --- ------ ------- --------- ----------- --------<br>--------- -------- --- ------- -- ------- ---- -- ------<br>-- --- -------- -------- ---------- ---- ---- ---- ------<br>-- --------- -- ---- -- --- -- --- ------- -- - -----<br>---------- -- -- to ---- ----- -- ------ -- --- ------<br>-------,345470,345551,345065,345046,345081,345508,,41,to
screen,html.Screen,1_3_1_0_1_42,2022-05-03T12:14:00.096Z,,,,,,,,,,,,,,,,48,,,,,,,,,,,,,,629,,response,,,,10,F,,,,,,Space,keypress(Space),,,,instrumental,,,,-- -- --- ------ ------- --------- ----------- --------<br>--------- -------- --- ------- -- ------- ---- -- ------<br>-- --- -------- -------- ---------- ---- ---- ---- ------<br>-- --------- -- ---- -- --- -- --- ------- -- - -----<br>---------- -- -- -- five ----- -- ------ -- --- ------<br>-------,346039,346121,345492,345473,345508,346073,,42,five
screen,html.Screen,1_3_1_0_1_43,2022-05-03T12:14:00.779Z,,,,,,,,,,,,,,,,48,,,,,,,,,,,,,,743.0000000000582,,response,,,,10,F,,,,,,Space,keypress(Space),,,,instrumental,,,,-- -- --- ------ ------- --------- ----------- --------<br>--------- -------- --- ------- -- ------- ---- -- ------<br>-- --- -------- -------- ---------- ---- ---- ---- ------<br>-- --------- -- ---- -- --- -- --- ------- -- - -----<br>---------- -- -- -- ---- years -- ------ -- --- ------<br>-------,346722,346799.00000000006,346056,346039,346073,346748,,43,years
screen,html.Screen,1_3_1_0_1_44,2022-05-03T12:14:01.199Z,,,,,,,,,,,,,,,,48,,,,,,,,,,,,,,492,,response,,,,10,F,,,,,,Space,keypress(Space),,,,instrumental,,,,-- -- --- ------ ------- --------- ----------- --------<br>--------- -------- --- ------- -- ------- ---- -- ------<br>-- --- -------- -------- ---------- ---- ---- ---- ------<br>-- --------- -- ---- -- --- -- --- ------- -- - -----<br>---------- -- -- -- ---- ----- in ------ -- --- ------<br>-------,347143,347224,346732,346722,346748,347179,,44,in
screen,html.Screen,1_3_1_0_1_45,2022-05-03T12:14:01.683Z,,,,,,,,,,,,,,,,48,,,,,,,,,,,,,,545,,response,,,,10,F,,,,,,Space,keypress(Space),,,,instrumental,,,,-- -- --- ------ ------- --------- ----------- --------<br>--------- -------- --- ------- -- ------- ---- -- ------<br>-- --- -------- -------- ---------- ---- ---- ---- ------<br>-- --------- -- ---- -- --- -- --- ------- -- - -----<br>---------- -- -- -- ---- ----- -- prison -- --- ------<br>-------,347626.00000000006,347708,347163,347143,347179,347655,,45,prison
screen,html.Screen,1_3_1_0_1_46,2022-05-03T12:14:02.045Z,,,,,,,,,,,,,,,,48,,,,,,,,,,,,,,432,,response,,,,10,F,,,,,,Space,keypress(Space),,,,instrumental,,,,-- -- --- ------ ------- --------- ----------- --------<br>--------- -------- --- ------- -- ------- ---- -- ------<br>-- --- -------- -------- ---------- ---- ---- ---- ------<br>-- --------- -- ---- -- --- -- --- ------- -- - -----<br>---------- -- -- -- ---- ----- -- ------ in --- ------<br>-------,347988,348070,347638,347626.00000000006,347655,348022,,46,in
screen,html.Screen,1_3_1_0_1_47,2022-05-03T12:14:02.386Z,,,,,,,,,,,,,,,,48,,,,,,,,,,,,,,406,,response,,,,10,F,,,,,,Space,keypress(Space),,,,instrumental,,,,-- -- --- ------ ------- --------- ----------- --------<br>--------- -------- --- ------- -- ------- ---- -- ------<br>-- --- -------- -------- ---------- ---- ---- ---- ------<br>-- --------- -- ---- -- --- -- --- ------- -- - -----<br>---------- -- -- -- ---- ----- -- ------ -- the ------<br>-------,348329,348411,348005,347988,348022,348348,,47,the
screen,html.Screen,1_3_1_0_1_48,2022-05-03T12:14:02.767Z,,,,,,,,,,,,,,,,48,,,,,,,,,,,,,,462.0000000000582,,response,,,,10,F,,,,,,Space,keypress(Space),,,,instrumental,,,,-- -- --- ------ ------- --------- ----------- --------<br>--------- -------- --- ------- -- ------- ---- -- ------<br>-- --- -------- -------- ---------- ---- ---- ---- ------<br>-- --------- -- ---- -- --- -- --- ------- -- - -----<br>---------- -- -- -- ---- ----- -- ------ -- --- United<br>-------,348711,348792.00000000006,348330,348329,348348,348732,,48,United
screen,html.Screen,1_3_1_0_1_49,2022-05-03T12:14:03.160Z,,,,,,,,,,,,,,,,48,,,,,,,,,,,,,,469,,response,,,,10,F,,,,,,Space,keypress(Space),,,,instrumental,,,,-- -- --- ------ ------- --------- ----------- --------<br>--------- -------- --- ------- -- ------- ---- -- ------<br>-- --- -------- -------- ---------- ---- ---- ---- ------<br>-- --------- -- ---- -- --- -- --- ------- -- - -----<br>---------- -- -- -- ---- ----- -- ------ -- --- ------<br>States.,349103,349184,348715,348711,348732,349140,,49,States.
Item 10,flow.Loop,1_3_1_0_1,2022-05-03T12:14:03.160Z,,,,,,,,,,,,,,,,,,,,,,,,,,,,,,34484,,completion,,,,,,,,,,,,,,,,,,,,,349104,349184,314684,314684,314700,349140,,,
Question 1,html.Screen,1_3_1_0_2,2022-05-03T12:14:06.366Z,,,,,,,,,,,,,,,,,,,,,,,,,,,true,TRUE,,3249,,response,,,,10,F,,,,,,TRUE,click #choice-1,,,,instrumental,,,,,352310,352373,349124,349104,349140,352329,,,
Question 2,html.Screen,1_3_1_0_3,2022-05-03T12:14:09.239Z,,,,,,,,,,,,,,,,,,,,,,,,,,,true,TRUE,,2933,,response,,,,10,F,,,,,,TRUE,click #choice-1,,,,instrumental,,,,,355182,355246,352313,352310,352329,355212,,,
Item 10,flow.Sequence,1_3_1_0,2022-05-03T12:14:09.239Z,,,,,,,,,,,,,,,,,,,,,,,,,,,,,,47546,,completion,,,,,,,,,,,,,,,,,,,,,355183,355246,307687,307687,307700,355212,,,
Holding screen,html.Screen,1_3_1_1_0,2022-05-03T12:14:16.243Z,,,,,,,,,,,,,,,,,,,,,,,,,,,,,,6991,,timeout,,,,,,,,,,,,,,,,,,,,,362187,362187,355196,355183,355212,362203,,,
screen,html.Screen,1_3_1_1_1_0,2022-05-03T12:14:17.515Z,,,,,,,,,,,,,,,,11,,,,,,,,,,,,,,1355.0000000000582,,response,,,,4,F,,,,,,Space,keypress(Space),,,,instrumental,,,,Known -- ---- --- -- --- -------- ------------ ---------- --<br>- ------- ------ --------- -- ------------ -- --- ---- -----<br>------ ---- ---- ------ ------ ------- --- ----- ---------<br>---- --- -------- -------- --- --- -- ------- --- --- -----<br>-- --- ------ ------- --- --- -------- ---- --------- --<br>---------- -- -------- ----------------,363459,363542.00000000006,362187,362188,362203,363496,,0,Known
screen,html.Screen,1_3_1_1_1_1,2022-05-03T12:14:17.896Z,,,,,,,,,,,,,,,,11,,,,,,,,,,,,,,444,,response,,,,4,F,,,,,,Space,keypress(Space),,,,instrumental,,,,----- as ---- --- -- --- -------- ------------ ---------- --<br>- ------- ------ --------- -- ------------ -- --- ---- -----<br>------ ---- ---- ------ ------ ------- --- ----- ---------<br>---- --- -------- -------- --- --- -- ------- --- --- -----<br>-- --- ------ ------- --- --- -------- ---- --------- --<br>---------- -- -------- ----------------,363840.00000000006,363923,363479,363460,363496,363862,,1,as
screen,html.Screen,1_3_1_1_1_2,2022-05-03T12:14:18.420Z,,,,,,,,,,,,,,,,11,,,,,,,,,,,,,,601,,response,,,,4,F,,,,,,Space,keypress(Space),,,,instrumental,,,,----- -- Rapa --- -- --- -------- ------------ ---------- --<br>- ------- ------ --------- -- ------------ -- --- ---- -----<br>------ ---- ---- ------ ------ ------- --- ----- ---------<br>---- --- -------- -------- --- --- -- ------- --- --- -----<br>-- --- ------ ------- --- --- -------- ---- --------- --<br>---------- -- -------- ----------------,364364.00000000006,364447,363846,363840.00000000006,363862,364388,,2,Rapa
screen,html.Screen,1_3_1_1_1_3,2022-05-03T12:14:18.892Z,,,,,,,,,,,,,,,,11,,,,,,,,,,,,,,548,,response,,,,4,F,,,,,,Space,keypress(Space),,,,instrumental,,,,----- -- ---- Nui -- --- -------- ------------ ---------- --<br>- ------- ------ --------- -- ------------ -- --- ---- -----<br>------ ---- ---- ------ ------ ------- --- ----- ---------<br>---- --- -------- -------- --- --- -- ------- --- --- -----<br>-- --- ------ ------- --- --- -------- ---- --------- --<br>---------- -- -------- ----------------,364836,364919,364371,364364.00000000006,364388,364863,,3,Nui
screen,html.Screen,1_3_1_1_1_4,2022-05-03T12:14:19.436Z,,,,,,,,,,,,,,,,11,,,,,,,,,,,,,,617,,response,,,,4,F,,,,,,Space,keypress(Space),,,,instrumental,,,,----- -- ---- --- to --- -------- ------------ ---------- --<br>- ------- ------ --------- -- ------------ -- --- ---- -----<br>------ ---- ---- ------ ------ ------- --- ----- ---------<br>---- --- -------- -------- --- --- -- ------- --- --- -----<br>-- --- ------ ------- --- --- -------- ---- --------- --<br>---------- -- -------- ----------------,365380,365463,364846,364837,364863,365405,,4,to
screen,html.Screen,1_3_1_1_1_5,2022-05-03T12:14:20.003Z,,,,,,,,,,,,,,,,11,,,,,,,,,,,,,,641,,response,,,,4,F,,,,,,Space,keypress(Space),,,,instrumental,,,,----- -- ---- --- -- the -------- ------------ ---------- --<br>- ------- ------ --------- -- ------------ -- --- ---- -----<br>------ ---- ---- ------ ------ ------- --- ----- ---------<br>---- --- -------- -------- --- --- -- ------- --- --- -----<br>-- --- ------ ------- --- --- -------- ---- --------- --<br>---------- -- -------- ----------------,365947,366029,365388,365380,365405,365980,,5,the
screen,html.Screen,1_3_1_1_1_6,2022-05-03T12:14:20.565Z,,,,,,,,,,,,,,,,11,,,,,,,,,,,,,,628,,response,,,,4,F,,,,,,Space,keypress(Space),,,,instrumental,,,,----- -- ---- --- -- --- island's ------------ ---------- --<br>- ------- ------ --------- -- ------------ -- --- ---- -----<br>------ ---- ---- ------ ------ ------- --- ----- ---------<br>---- --- -------- -------- --- --- -- ------- --- --- -----<br>-- --- ------ ------- --- --- -------- ---- --------- --<br>---------- -- -------- ----------------,366509,366592,365964,365947,365980,366544,,6,island's
screen,html.Screen,1_3_1_1_1_7,2022-05-03T12:14:21.420Z,,,,,,,,,,,,,,,,11,,,,,,,,,,,,,,920,,response,,,,4,F,,,,,,Space,keypress(Space),,,,instrumental,,,,"----- -- ---- --- -- --- -------- inhabitants, ---------- --<br>- ------- ------ --------- -- ------------ -- --- ---- -----<br>------ ---- ---- ------ ------ ------- --- ----- ---------<br>---- --- -------- -------- --- --- -- ------- --- --- -----<br>-- --- ------ ------- --- --- -------- ---- --------- --<br>---------- -- -------- ----------------",367364.00000000006,367447,366527,366509,366544,367388,,7,"inhabitants,"
screen,html.Screen,1_3_1_1_1_8,2022-05-03T12:14:23.010Z,,,,,,,,,,,,,,,,11,,,,,,,,,,,,,,1665.0000000000582,,response,,,,4,F,,,,,,Space,keypress(Space),,,,instrumental,,,,----- -- ---- --- -- --- -------- ------------ Rongorongo --<br>- ------- ------ --------- -- ------------ -- --- ---- -----<br>------ ---- ---- ------ ------ ------- --- ----- ---------<br>---- --- -------- -------- --- --- -- ------- --- --- -----<br>-- --- ------ ------- --- --- -------- ---- --------- --<br>---------- -- -------- ----------------,368954,369037.00000000006,367372,367365,367388,368984,,8,Rongorongo
