sender,sender_type,sender_id,timestamp,meta,,Blues,Classical,Country,Dance,Electronic,Folk,Gospel,Hip-Hop,Jazz,Latin,Musical/Film,New-age,Pop,Provo_ID,R&B,Rap,Reggae,Religious,Rock,Soul,Swing,Traditional,age,artist_name,correct,correctResponse,distraction,duration,education,ended_on,familiarity,gender,headphone_check_performance,item,list,music_frequency,offensiveness,pleasantness,position_correct,preference,response,response_action,snippet_file,song_name,song_rating,sound,stimulus_1,stimulus_2,stimulus_3,text,time_commit,time_end,time_render,time_run,time_show,time_switch,url,word,word_ID
Introduction,html.Screen,0_0,2022-04-28T10:38:04.666Z,"{""labjs_version"":""20.2.2"",""labjs_build"":{""flavor"":""production"",""commit"":""a25486e0c714a0ae2ce03ff94b7bb6896854dcfa""},""location"":""https://run.pavlovia.org/mvasilev/music_e/"",""userAgent"":""Mozilla/5.0 (Macintosh; Intel Mac OS X 10_13_6) AppleWebKit/605.1.15 (KHTML, like Gecko) Version/13.1.2 Safari/605.1.15"",""platform"":""MacIntel"",""language"":""en-gb"",""locale"":""en-GB"",""timeZone"":""Europe/London"",""timezoneOffset"":-60,""screen_width"":1440,""screen_height"":900,""scroll_width"":1440,""scroll_height"":789,""window_innerWidth"":1440,""window_innerHeight"":837,""devicePixelRatio"":2}",,,,,,,,,,,,,,,,,,,,,,,,,,,,,32501,,response,,,,,,,,,,,continue,click button,,,,,,,,,37379,37353,4852,4841,4868,37394,{},,
Volume calibration,html.Screen,0_1,2022-04-28T10:38:30.943Z,,,,,,,,,,,,,,,,,,,,,,,,,,,,,,26247,,response,,,,,,,,,,,continue,click button,,,,,,,,,63656,63630,37383,37380,37394,63677,,,
Task instructions,html.Screen,0_2,2022-04-28T10:38:39.840Z,,,,,,,,,,,,,,,,,,,,,,,,,,,,,,8868,,response,,,,,,,,,,,continue,click button,,,,,,,,,72553,72528,63660,63656,63677,72571,,,
Sounds,html.Screen,0_3_0_0,2022-04-28T10:38:44.093Z,,,,,,,,,,,,,,,,,,,,,,,,,,,,,,4250,,timeout,,,,,,,,,3,,,,,,,,I,O,S,,76806,76805,72555,72554,72571,76821,,,
Judgement,html.Screen,0_3_0_1,2022-04-28T10:38:48.465Z,,,,,,,,,,,,,,,,,,,,,,,,,,,false,3,,4348,,response,,,,,,,,,3,,2,click #choice-2,,,,,I,O,S,,81178,81153,76805,76806,76821,81207,,,
Trial,flow.Sequence,0_3_0,2022-04-28T10:38:48.466Z,,,,,,,,,,,,,,,,,,,,,,,,,,,,,,8582,,completion,,,,,,,,,3,,,,,,,,I,O,S,,81179,81153,72555,72554,72571,81207,,,
Sounds,html.Screen,0_3_1_0,2022-04-28T10:38:52.729Z,,,,,,,,,,,,,,,,,,,,,,,,,,,,,,4251,,timeout,,,,,,,,,3,,,,,,,,O,I,S,,85442,85442,81189,81179,81207,85458,,,
Judgement,html.Screen,0_3_1_1,2022-04-28T10:38:53.339Z,,,,,,,,,,,,,,,,,,,,,,,,,,,true,3,,585,,response,,,,,,,,,3,,3,click #choice-3,,,,,O,I,S,,86052,86027,85442,85442,85458,86075,,,
Trial,flow.Sequence,0_3_1,2022-04-28T10:38:53.339Z,,,,,,,,,,,,,,,,,,,,,,,,,,,,,,4820,,completion,,,,,,,,,3,,,,,,,,O,I,S,,86052,86027,81189,81179,81207,86075,,,
Sounds,html.Screen,0_3_2_0,2022-04-28T10:38:57.599Z,,,,,,,,,,,,,,,,,,,,,,,,,,,,,,4253,,timeout,,,,,,,,,1,,,,,,,,S,I,O,,90312,90312,86057,86052,86075,90328,,,
Judgement,html.Screen,0_3_2_1,2022-04-28T10:38:57.966Z,,,,,,,,,,,,,,,,,,,,,,,,,,,true,1,,342,,response,,,,,,,,,1,,1,click #choice-1,,,,,S,I,O,,90679,90654,90312,90312,90328,90713,,,
Trial,flow.Sequence,0_3_2,2022-04-28T10:38:57.967Z,,,,,,,,,,,,,,,,,,,,,,,,,,,,,,4579,,completion,,,,,,,,,1,,,,,,,,S,I,O,,90679,90654,86057,86052,86075,90713,,,
Sounds,html.Screen,0_3_3_0,2022-04-28T10:39:02.234Z,,,,,,,,,,,,,,,,,,,,,,,,,,,,,,4250,,timeout,,,,,,,,,2,,,,,,,,O,S,I,,94947,94947,90695,90680,90713,94963,,,
Judgement,html.Screen,0_3_3_1,2022-04-28T10:39:02.524Z,,,,,,,,,,,,,,,,,,,,,,,,,,,true,2,,265,,response,,,,,,,,,2,,2,click #choice-2,,,,,O,S,I,,95237.00000000001,95212,94947,94948.00000000001,94963,95264,,,
Trial,flow.Sequence,0_3_3,2022-04-28T10:39:02.524Z,,,,,,,,,,,,,,,,,,,,,,,,,,,,,,4499,,completion,,,,,,,,,2,,,,,,,,O,S,I,,95237.00000000001,95212,90695,90679,90713,95264,,,
Sounds,html.Screen,0_3_4_0,2022-04-28T10:39:06.786Z,,,,,,,,,,,,,,,,,,,,,,,,,,,,,,4251,,timeout,,,,,,,,,2,,,,,,,,I,S,O,,99499,99498,95247,95237.00000000001,95264,99515,,,
Judgement,html.Screen,0_3_4_1,2022-04-28T10:39:07.058Z,,,,,,,,,,,,,,,,,,,,,,,,,,,true,2,,248,,response,,,,,,,,,2,,2,click #choice-2,,,,,I,S,O,,99771,99746,99498,99499,99515,99798,,,
Trial,flow.Sequence,0_3_4,2022-04-28T10:39:07.058Z,,,,,,,,,,,,,,,,,,,,,,,,,,,,,,4482,,completion,,,,,,,,,2,,,,,,,,I,S,O,,99771,99746,95247,95237.00000000001,95264,99798,,,
Sounds,html.Screen,0_3_5_0,2022-04-28T10:39:11.323Z,,,,,,,,,,,,,,,,,,,,,,,,,,,,,,4254,,timeout,,,,,,,,,1,,,,,,,,S,O,I,,104035,104035,99783,99771,99798,104052,,,
Judgement,html.Screen,0_3_5_1,2022-04-28T10:39:12.102Z,,,,,,,,,,,,,,,,,,,,,,,,,,,true,1,,755,,response,,,,,,,,,1,,1,click #choice-1,,,,,S,O,I,,104815,104790,104035,104035,104052,104836,,,
Trial,flow.Sequence,0_3_5,2022-04-28T10:39:12.103Z,,,,,,,,,,,,,,,,,,,,,,,,,,,,,,4992,,completion,,,,,,,,,1,,,,,,,,S,O,I,,104815,104790,99783,99771,99798,104836,,,
Task,flow.Loop,0_3,2022-04-28T10:39:12.105Z,,,,,,,,,,,,,,,,,,,,,,,,,,,,,,32219,,completion,,,0.8333333333333334,,,,,,,,,,,,,,,,,,104818,104790,72555,72553,72571,104836,,,
Trap,html.Screen,0_4,2022-04-28T10:39:12.108Z,,,,,,,,,,,,,,,,,,,,,,,,,,,,,,NaN,,skipped,,,,,,,,,,,,,,,,,,,,,104820.00000000001,104790,,104820.00000000001,,104836,,,
Thanks,html.Screen,0_5,2022-04-28T10:39:22.658Z,,,,,,,,,,,,,,,,,,,,,,,,,,,,,,10523,,response,,,,,,,,,,,continue,click button,,,,,,,,,115371.00000000001,115346,104823,104821,104836,118122,,,
Headphone screening,flow.Sequence,0,2022-04-28T10:39:22.658Z,,,,,,,,,,,,,,,,,,,,,,,,,,,,,,110478,,completion,,,,,,,,,,,,,,,,,,,,,115371.00000000001,115346,4852,4841,4868,118122,,,
Instructions,html.Page,1_0,2022-04-28T10:39:46.246Z,,,,,,,,,,,,,,,,,,,,,,,,,,,,,,20836,,form submission,,,,,,,,,,,,,,,,,,,,,138958,138958,118111,118061,118122,138980,,,
Holding screen,html.Screen,1_1_0_0,2022-04-28T10:39:56.260Z,,,,,,,,,,,,,,,,,,,,,,,,,,,,,,10013,,timeout,,,,,,,,,,,,,,,,,,,,,148972,148972,138964,138959,138980,148993,,,
screen,html.Screen,1_1_0_1_0,2022-04-28T10:39:57.758Z,,,,,,,,,,,,,,,,53,,,,,,,,,,,,,,1472.000000000029,,response,,,,99,,,,,,,Space,keypress(Space),,,,,,,,When -- ----- -- ------ - ------- --- ----------<br>------------- ------ ------ ---- ---- ------- ----- -- ----<br>-------- ------- -- ---------- --- - --- ----- ----- ----<br>---- --- --- ----- --- ---- ---- ------- ----- ---- -------<br>--- --- -- ----- -- --- ---- -- --- ---- -- ------ ------<br>--- ----- -- ----,150470,150444.00000000003,148972,148972,148993,150505,,0,When
screen,html.Screen,1_1_0_1_1,2022-04-28T10:39:58.302Z,,,,,,,,,,,,,,,,53,,,,,,,,,,,,,,501,,response,,,,99,,,,,,,Space,keypress(Space),,,,,,,,---- it ----- -- ------ - ------- --- ----------<br>------------- ------ ------ ---- ---- ------- ----- -- ----<br>-------- ------- -- ---------- --- - --- ----- ----- ----<br>---- --- --- ----- --- ---- ---- ------- ----- ---- -------<br>--- --- -- ----- -- --- ---- -- --- ---- -- ------ ------<br>--- ----- -- ----,151014,150989,150488,150470,150505,151054,,1,it
screen,html.Screen,1_1_0_1_2,2022-04-28T10:39:58.723Z,,,,,,,,,,,,,,,,53,,,,,,,,,,,,,,373,,response,,,,99,,,,,,,Space,keypress(Space),,,,,,,,---- -- comes -- ------ - ------- --- ----------<br>------------- ------ ------ ---- ---- ------- ----- -- ----<br>-------- ------- -- ---------- --- - --- ----- ----- ----<br>---- --- --- ----- --- ---- ---- ------- ----- ---- -------<br>--- --- -- ----- -- --- ---- -- --- ---- -- ------ ------<br>--- ----- -- ----,151435,151410,151037,151014,151054,151472,,2,comes
screen,html.Screen,1_1_0_1_3,2022-04-28T10:39:59.099Z,,,,,,,,,,,,,,,,53,,,,,,,,,,,,,,332,,response,,,,99,,,,,,,Space,keypress(Space),,,,,,,,---- -- ----- to ------ - ------- --- ----------<br>------------- ------ ------ ---- ---- ------- ----- -- ----<br>-------- ------- -- ---------- --- - --- ----- ----- ----<br>---- --- --- ----- --- ---- ---- ------- ----- ---- -------<br>--- --- -- ----- -- --- ---- -- --- ---- -- ------ ------<br>--- ----- -- ----,151811,151786,151454,151435,151472,151838,,3,to
screen,html.Screen,1_1_0_1_4,2022-04-28T10:39:59.427Z,,,,,,,,,,,,,,,,53,,,,,,,,,,,,,,293,,response,,,,99,,,,,,,Space,keypress(Space),,,,,,,,---- -- ----- -- having - ------- --- ----------<br>------------- ------ ------ ---- ---- ------- ----- -- ----<br>-------- ------- -- ---------- --- - --- ----- ----- ----<br>---- --- --- ----- --- ---- ---- ------- ----- ---- -------<br>--- --- -- ----- -- --- ---- -- --- ---- -- ------ ------<br>--- ----- -- ----,152139,152114,151821,151811,151838,152171,,4,having
screen,html.Screen,1_1_0_1_5,2022-04-28T10:39:59.831Z,,,,,,,,,,,,,,,,53,,,,,,,,,,,,,,364,,response,,,,99,,,,,,,Space,keypress(Space),,,,,,,,---- -- ----- -- ------ a ------- --- ----------<br>------------- ------ ------ ---- ---- ------- ----- -- ----<br>-------- ------- -- ---------- --- - --- ----- ----- ----<br>---- --- --- ----- --- ---- ---- ------- ----- ---- -------<br>--- --- -- ----- -- --- ---- -- --- ---- -- ------ ------<br>--- ----- -- ----,152544,152518,152154,152139,152171,152575,,5,a
screen,html.Screen,1_1_0_1_6,2022-04-28T10:40:00.132Z,,,,,,,,,,,,,,,,53,,,,,,,,,,,,,,260.0000000000291,,response,,,,99,,,,,,,Space,keypress(Space),,,,,,,,---- -- ----- -- ------ - lasting --- ----------<br>------------- ------ ------ ---- ---- ------- ----- -- ----<br>-------- ------- -- ---------- --- - --- ----- ----- ----<br>---- --- --- ----- --- ---- ---- ------- ----- ---- -------<br>--- --- -- ----- -- --- ---- -- --- ---- -- ------ ------<br>--- ----- -- ----,152845,152819.00000000003,152559,152544,152575,152875,,6,lasting
screen,html.Screen,1_1_0_1_7,2022-04-28T10:40:00.433Z,,,,,,,,,,,,,,,,53,,,,,,,,,,,,,,260,,response,,,,99,,,,,,,Space,keypress(Space),,,,,,,,---- -- ----- -- ------ - ------- and ----------<br>------------- ------ ------ ---- ---- ------- ----- -- ----<br>-------- ------- -- ---------- --- - --- ----- ----- ----<br>---- --- --- ----- --- ---- ---- ------- ----- ---- -------<br>--- --- -- ----- -- --- ---- -- --- ---- -- ------ ------<br>--- ----- -- ----,153145,153119,152859,152845,152875,153175,,7,and
screen,html.Screen,1_1_0_1_8,2022-04-28T10:40:00.875Z,,,,,,,,,,,,,,,,53,,,,,,,,,,,,,,403,,response,,,,99,,,,,,,Space,keypress(Space),,,,,,,,---- -- ----- -- ------ - ------- --- fulfilling<br>------------- ------ ------ ---- ---- ------- ----- -- ----<br>-------- ------- -- ---------- --- - --- ----- ----- ----<br>---- --- --- ----- --- ---- ---- ------- ----- ---- -------<br>--- --- -- ----- -- --- ---- -- --- ---- -- ------ ------<br>--- ----- -- ----,153587,153562,153159,153145,153175,153626,,8,fulfilling
screen,html.Screen,1_1_0_1_9,2022-04-28T10:40:01.200Z,,,,,,,,,,,,,,,,53,,,,,,,,,,,,,,278,,response,,,,99,,,,,,,Space,keypress(Space),,,,,,,,"---- -- ----- -- ------ - ------- --- ----------<br>relationship, ------ ------ ---- ---- ------- ----- -- ----<br>-------- ------- -- ---------- --- - --- ----- ----- ----<br>---- --- --- ----- --- ---- ---- ------- ----- ---- -------<br>--- --- -- ----- -- --- ---- -- --- ---- -- ------ ------<br>--- ----- -- ----",153912,153887,153609,153588,153626,153942,,9,"relationship,"
screen,html.Screen,1_1_0_1_10,2022-04-28T10:40:01.553Z,,,,,,,,,,,,,,,,53,,,,,,,,,,,,,,316,,response,,,,99,,,,,,,Space,keypress(Space),,,,,,,,---- -- ----- -- ------ - ------- --- ----------<br>------------- common ------ ---- ---- ------- ----- -- ----<br>-------- ------- -- ---------- --- - --- ----- ----- ----<br>---- --- --- ----- --- ---- ---- ------- ----- ---- -------<br>--- --- -- ----- -- --- ---- -- --- ---- -- ------ ------<br>--- ----- -- ----,154266,154241,153925,153912,153942,154292,,10,common
screen,html.Screen,1_1_0_1_11,2022-04-28T10:40:02.014Z,,,,,,,,,,,,,,,,53,,,,,,,,,,,,,,426,,response,,,,99,,,,,,,Space,keypress(Space),,,,,,,,---- -- ----- -- ------ - ------- --- ----------<br>------------- ------ wisdom ---- ---- ------- ----- -- ----<br>-------- ------- -- ---------- --- - --- ----- ----- ----<br>---- --- --- ----- --- ---- ---- ------- ----- ---- -------<br>--- --- -- ----- -- --- ---- -- --- ---- -- ------ ------<br>--- ----- -- ----,154727,154701,154275,154266,154292,154759,,11,wisdom
screen,html.Screen,1_1_0_1_12,2022-04-28T10:40:02.351Z,,,,,,,,,,,,,,,,53,,,,,,,,,,,,,,295,,response,,,,99,,,,,,,Space,keypress(Space),,,,,,,,---- -- ----- -- ------ - ------- --- ----------<br>------------- ------ ------ says ---- ------- ----- -- ----<br>-------- ------- -- ---------- --- - --- ----- ----- ----<br>---- --- --- ----- --- ---- ---- ------- ----- ---- -------<br>--- --- -- ----- -- --- ---- -- --- ---- -- ------ ------<br>--- ----- -- ----,155063.00000000003,155038,154743,154727,154759,155092,,12,says
screen,html.Screen,1_1_0_1_13,2022-04-28T10:40:02.677Z,,,,,,,,,,,,,,,,53,,,,,,,,,,,,,,289,,response,,,,99,,,,,,,Space,keypress(Space),,,,,,,,---- -- ----- -- ------ - ------- --- ----------<br>------------- ------ ------ ---- that ------- ----- -- ----<br>-------- ------- -- ---------- --- - --- ----- ----- ----<br>---- --- --- ----- --- ---- ---- ------- ----- ---- -------<br>--- --- -- ----- -- --- ---- -- --- ---- -- ------ ------<br>--- ----- -- ----,155389,155364,155075,155063.00000000003,155092,155408,,13,that
screen,html.Screen,1_1_0_1_14,2022-04-28T10:40:02.941Z,,,,,,,,,,,,,,,,53,,,,,,,,,,,,,,236,,response,,,,99,,,,,,,Space,keypress(Space),,,,,,,,---- -- ----- -- ------ - ------- --- ----------<br>------------- ------ ------ ---- ---- feeling ----- -- ----<br>-------- ------- -- ---------- --- - --- ----- ----- ----<br>---- --- --- ----- --- ---- ---- ------- ----- ---- -------<br>--- --- -- ----- -- --- ---- -- --- ---- -- ------ ------<br>--- ----- -- ----,155653,155628,155392,155389,155408,155675,,14,feeling
screen,html.Screen,1_1_0_1_15,2022-04-28T10:40:03.272Z,,,,,,,,,,,,,,,,53,,,,,,,,,,,,,,299,,response,,,,99,,,,,,,Space,keypress(Space),,,,,,,,---- -- ----- -- ------ - ------- --- ----------<br>------------- ------ ------ ---- ---- ------- close -- ----<br>-------- ------- -- ---------- --- - --- ----- ----- ----<br>---- --- --- ----- --- ---- ---- ------- ----- ---- -------<br>--- --- -- ----- -- --- ---- -- --- ---- -- ------ ------<br>--- ----- -- ----,155984,155958,155659,155653,155675,156009,,15,close
screen,html.Screen,1_1_0_1_16,2022-04-28T10:40:03.629Z,,,,,,,,,,,,,,,,53,,,,,,,,,,,,,,323,,response,,,,99,,,,,,,Space,keypress(Space),,,,,,,,---- -- ----- -- ------ - ------- --- ----------<br>------------- ------ ------ ---- ---- ------- ----- to ----<br>-------- ------- -- ---------- --- - --- ----- ----- ----<br>---- --- --- ----- --- ---- ---- ------- ----- ---- -------<br>--- --- -- ----- -- --- ---- -- --- ---- -- ------ ------<br>--- ----- -- ----,156341,156315,155992,155984,156009,156359,,16,to
screen,html.Screen,1_1_0_1_17,2022-04-28T10:40:03.968Z,,,,,,,,,,,,,,,,53,,,,,,,,,,,,,,313,,response,,,,99,,,,,,,Space,keypress(Space),,,,,,,,---- -- ----- -- ------ - ------- --- ----------<br>------------- ------ ------ ---- ---- ------- ----- -- your<br>-------- ------- -- ---------- --- - --- ----- ----- ----<br>---- --- --- ----- --- ---- ---- ------- ----- ---- -------<br>--- --- -- ----- -- --- ---- -- --- ---- -- ------ ------<br>--- ----- -- ----,156681,156655,156342,156341,156359,156709,,17,your
screen,html.Screen,1_1_0_1_18,2022-04-28T10:40:04.369Z,,,,,,,,,,,,,,,,53,,,,,,,,,,,,,,364,,response,,,,99,,,,,,,Space,keypress(Space),,,,,,,,---- -- ----- -- ------ - ------- --- ----------<br>------------- ------ ------ ---- ---- ------- ----- -- ----<br>romantic ------- -- ---------- --- - --- ----- ----- ----<br>---- --- --- ----- --- ---- ---- ------- ----- ---- -------<br>--- --- -- ----- -- --- ---- -- --- ---- -- ------ ------<br>--- ----- -- ----,157082,157056,156692,156681,156709,157109,,18,romantic
screen,html.Screen,1_1_0_1_19,2022-04-28T10:40:04.667Z,,,,,,,,,,,,,,,,53,,,,,,,,,,,,,,262,,response,,,,99,,,,,,,Space,keypress(Space),,,,,,,,---- -- ----- -- ------ - ------- --- ----------<br>------------- ------ ------ ---- ---- ------- ----- -- ----<br>-------- partner -- ---------- --- - --- ----- ----- ----<br>---- --- --- ----- --- ---- ---- ------- ----- ---- -------<br>--- --- -- ----- -- --- ---- -- --- ---- -- ------ ------<br>--- ----- -- ----,157379,157354,157092,157082,157109,157396,,19,partner
screen,html.Screen,1_1_0_1_20,2022-04-28T10:40:04.985Z,,,,,,,,,,,,,,,,53,,,,,,,,,,,,,,292,,response,,,,99,,,,,,,Space,keypress(Space),,,,,,,,---- -- ----- -- ------ - ------- --- ----------<br>------------- ------ ------ ---- ---- ------- ----- -- ----<br>-------- ------- is ---------- --- - --- ----- ----- ----<br>---- --- --- ----- --- ---- ---- ------- ----- ---- -------<br>--- --- -- ----- -- --- ---- -- --- ---- -- ------ ------<br>--- ----- -- ----,157697,157672,157380,157379,157396,157730,,20,is
screen,html.Screen,1_1_0_1_21,2022-04-28T10:40:05.251Z,,,,,,,,,,,,,,,,53,,,,,,,,,,,,,,226,,response,,,,99,,,,,,,Space,keypress(Space),,,,,,,,---- -- ----- -- ------ - ------- --- ----------<br>------------- ------ ------ ---- ---- ------- ----- -- ----<br>-------- ------- -- paramount. --- - --- ----- ----- ----<br>---- --- --- ----- --- ---- ---- ------- ----- ---- -------<br>--- --- -- ----- -- --- ---- -- --- ---- -- ------ ------<br>--- ----- -- ----,157964,157939,157713,157697,157730,157996,,21,paramount.
screen,html.Screen,1_1_0_1_22,2022-04-28T10:40:05.895Z,,,,,,,,,,,,,,,,53,,,,,,,,,,,,,,602,,response,,,,99,,,,,,,Space,keypress(Space),,,,,,,,---- -- ----- -- ------ - ------- --- ----------<br>------------- ------ ------ ---- ---- ------- ----- -- ----<br>-------- ------- -- ---------- But - --- ----- ----- ----<br>---- --- --- ----- --- ---- ---- ------- ----- ---- -------<br>--- --- -- ----- -- --- ---- -- --- ---- -- ------ ------<br>--- ----- -- ----,158608,158582,157980,157964,157996,158646,,22,But
screen,html.Screen,1_1_0_1_23,2022-04-28T10:40:06.298Z,,,,,,,,,,,,,,,,53,,,,,,,,,,,,,,355,,response,,,,99,,,,,,,Space,keypress(Space),,,,,,,,---- -- ----- -- ------ - ------- --- ----------<br>------------- ------ ------ ---- ---- ------- ----- -- ----<br>-------- ------- -- ---------- --- a --- ----- ----- ----<br>---- --- --- ----- --- ---- ---- ------- ----- ---- -------<br>--- --- -- ----- -- --- ---- -- --- ---- -- ------ ------<br>--- ----- -- ----,159011,158985,158630,158608,158646,159045,,23,a
screen,html.Screen,1_1_0_1_24,2022-04-28T10:40:06.587Z,,,,,,,,,,,,,,,,53,,,,,,,,,,,,,,244,,response,,,,99,,,,,,,Space,keypress(Space),,,,,,,,---- -- ----- -- ------ - ------- --- ----------<br>------------- ------ ------ ---- ---- ------- ----- -- ----<br>-------- ------- -- ---------- --- - new ----- ----- ----<br>---- --- --- ----- --- ---- ---- ------- ----- ---- -------<br>--- --- -- ----- -- --- ---- -- --- ---- -- ------ ------<br>--- ----- -- ----,159300,159274,159030,159011,159045,159329,,24,new
screen,html.Screen,1_1_0_1_25,2022-04-28T10:40:06.824Z,,,,,,,,,,,,,,,,53,,,,,,,,,,,,,,199,,response,,,,99,,,,,,,Space,keypress(Space),,,,,,,,---- -- ----- -- ------ - ------- --- ----------<br>------------- ------ ------ ---- ---- ------- ----- -- ----<br>-------- ------- -- ---------- --- - --- study ----- ----<br>---- --- --- ----- --- ---- ---- ------- ----- ---- -------<br>--- --- -- ----- -- --- ---- -- --- ---- -- ------ ------<br>--- ----- -- ----,159537,159511,159312,159300,159329,159563,,25,study
screen,html.Screen,1_1_0_1_26,2022-04-28T10:40:07.822Z,,,,,,,,,,,,,,,,53,,,,,,,,,,,,,,962,,response,,,,99,,,,,,,Space,keypress(Space),,,,,,,,---- -- ----- -- ------ - ------- --- ----------<br>------------- ------ ------ ---- ---- ------- ----- -- ----<br>-------- ------- -- ---------- --- - --- ----- finds ----<br>---- --- --- ----- --- ---- ---- ------- ----- ---- -------<br>--- --- -- ----- -- --- ---- -- --- ---- -- ------ ------<br>--- ----- -- ----,160534,160508,159546,159537,159563,160563,,26,finds
screen,html.Screen,1_1_0_1_27,2022-04-28T10:40:08.102Z,,,,,,,,,,,,,,,,53,,,,,,,,,,,,,,243.0000000000291,,response,,,,99,,,,,,,Space,keypress(Space),,,,,,,,---- -- ----- -- ------ - ------- --- ----------<br>------------- ------ ------ ---- ---- ------- ----- -- ----<br>-------- ------- -- ---------- --- - --- ----- ----- that<br>---- --- --- ----- --- ---- ---- ------- ----- ---- -------<br>--- --- -- ----- -- --- ---- -- --- ---- -- ------ ------<br>--- ----- -- ----,160815,160789.00000000003,160546,160534,160563,160846,,27,that
screen,html.Screen,1_1_0_1_28,2022-04-28T10:40:08.366Z,,,,,,,,,,,,,,,,53,,,,,,,,,,,,,,224,,response,,,,99,,,,,,,Space,keypress(Space),,,,,,,,---- -- ----- -- ------ - ------- --- ----------<br>------------- ------ ------ ---- ---- ------- ----- -- ----<br>-------- ------- -- ---------- --- - --- ----- ----- ----<br>it's --- --- ----- --- ---- ---- ------- ----- ---- -------<br>--- --- -- ----- -- --- ---- -- --- ---- -- ------ ------<br>--- ----- -- ----,161078,161053,160829,160815,160846,161096,,28,it's
screen,html.Screen,1_1_0_1_29,2022-04-28T10:40:08.592Z,,,,,,,,,,,,,,,,53,,,,,,,,,,,,,,200,,response,,,,99,,,,,,,Space,keypress(Space),,,,,,,,---- -- ----- -- ------ - ------- --- ----------<br>------------- ------ ------ ---- ---- ------- ----- -- ----<br>-------- ------- -- ---------- --- - --- ----- ----- ----<br>---- not --- ----- --- ---- ---- ------- ----- ---- -------<br>--- --- -- ----- -- --- ---- -- --- ---- -- ------ ------<br>--- ----- -- ----,161305,161279,161079,161079,161096,161329,,29,not
screen,html.Screen,1_1_0_1_30,2022-04-28T10:40:08.777Z,,,,,,,,,,,,,,,,53,,,,,,,,,,,,,,151,,response,,,,99,,,,,,,Space,keypress(Space),,,,,,,,---- -- ----- -- ------ - ------- --- ----------<br>------------- ------ ------ ---- ---- ------- ----- -- ----<br>-------- ------- -- ---------- --- - --- ----- ----- ----<br>---- --- how ----- --- ---- ---- ------- ----- ---- -------<br>--- --- -- ----- -- --- ---- -- --- ---- -- ------ ------<br>--- ----- -- ----,161490,161464,161313,161305,161329,161512,,30,how
screen,html.Screen,1_1_0_1_31,2022-04-28T10:40:08.975Z,,,,,,,,,,,,,,,,53,,,,,,,,,,,,,,165,,response,,,,99,,,,,,,Space,keypress(Space),,,,,,,,---- -- ----- -- ------ - ------- --- ----------<br>------------- ------ ------ ---- ---- ------- ----- -- ----<br>-------- ------- -- ---------- --- - --- ----- ----- ----<br>---- --- --- close --- ---- ---- ------- ----- ---- -------<br>--- --- -- ----- -- --- ---- -- --- ---- -- ------ ------<br>--- ----- -- ----,161687,161661,161496,161490,161512,161712,,31,close
screen,html.Screen,1_1_0_1_32,2022-04-28T10:40:09.339Z,,,,,,,,,,,,,,,,53,,,,,,,,,,,,,,330,,response,,,,99,,,,,,,Space,keypress(Space),,,,,,,,---- -- ----- -- ------ - ------- --- ----------<br>------------- ------ ------ ---- ---- ------- ----- -- ----<br>-------- ------- -- ---------- --- - --- ----- ----- ----<br>---- --- --- ----- you ---- ---- ------- ----- ---- -------<br>--- --- -- ----- -- --- ---- -- --- ---- -- ------ ------<br>--- ----- -- ----,162052,162026,161696,161687,161712,162080,,32,you
screen,html.Screen,1_1_0_1_33,2022-04-28T10:40:09.654Z,,,,,,,,,,,,,,,,53,,,,,,,,,,,,,,279,,response,,,,99,,,,,,,Space,keypress(Space),,,,,,,,---- -- ----- -- ------ - ------- --- ----------<br>------------- ------ ------ ---- ---- ------- ----- -- ----<br>-------- ------- -- ---------- --- - --- ----- ----- ----<br>---- --- --- ----- --- feel ---- ------- ----- ---- -------<br>--- --- -- ----- -- --- ---- -- --- ---- -- ------ ------<br>--- ----- -- ----,162367,162341,162062,162052,162080,162400,,33,feel
screen,html.Screen,1_1_0_1_34,2022-04-28T10:40:09.928Z,,,,,,,,,,,,,,,,53,,,,,,,,,,,,,,231,,response,,,,99,,,,,,,Space,keypress(Space),,,,,,,,---- -- ----- -- ------ - ------- --- ----------<br>------------- ------ ------ ---- ---- ------- ----- -- ----<br>-------- ------- -- ---------- --- - --- ----- ----- ----<br>---- --- --- ----- --- ---- that ------- ----- ---- -------<br>--- --- -- ----- -- --- ---- -- --- ---- -- ------ ------<br>--- ----- -- ----,162640.00000000003,162615,162384,162367,162400,162667,,34,that
screen,html.Screen,1_1_0_1_35,2022-04-28T10:40:10.246Z,,,,,,,,,,,,,,,,53,,,,,,,,,,,,,,283,,response,,,,99,,,,,,,Space,keypress(Space),,,,,,,,---- -- ----- -- ------ - ------- --- ----------<br>------------- ------ ------ ---- ---- ------- ----- -- ----<br>-------- ------- -- ---------- --- - --- ----- ----- ----<br>---- --- --- ----- --- ---- ---- matters ----- ---- -------<br>--- --- -- ----- -- --- ---- -- --- ---- -- ------ ------<br>--- ----- -- ----,162959,162933,162650,162640.00000000003,162667,162984,,35,matters
screen,html.Screen,1_1_0_1_36,2022-04-28T10:40:10.548Z,,,,,,,,,,,,,,,,53,,,,,,,,,,,,,,268,,response,,,,99,,,,,,,Space,keypress(Space),,,,,,,,"---- -- ----- -- ------ - ------- --- ----------<br>------------- ------ ------ ---- ---- ------- ----- -- ----<br>-------- ------- -- ---------- --- - --- ----- ----- ----<br>---- --- --- ----- --- ---- ---- ------- most, ---- -------<br>--- --- -- ----- -- --- ---- -- --- ---- -- ------ ------<br>--- ----- -- ----",163261,163235,162967,162959,162984,163283,,36,"most,"
screen,html.Screen,1_1_0_1_37,2022-04-28T10:40:10.880Z,,,,,,,,,,,,,,,,53,,,,,,,,,,,,,,300,,response,,,,99,,,,,,,Space,keypress(Space),,,,,,,,---- -- ----- -- ------ - ------- --- ----------<br>------------- ------ ------ ---- ---- ------- ----- -- ----<br>-------- ------- -- ---------- --- - --- ----- ----- ----<br>---- --- --- ----- --- ---- ---- ------- ----- it's -------<br>--- --- -- ----- -- --- ---- -- --- ---- -- ------ ------<br>--- ----- -- ----,163592,163567,163267,163261,163283,163616,,37,it's
screen,html.Screen,1_1_0_1_38,2022-04-28T10:40:11.173Z,,,,,,,,,,,,,,,,53,,,,,,,,,,,,,,259,,response,,,,99,,,,,,,Space,keypress(Space),,,,,,,,---- -- ----- -- ------ - ------- --- ----------<br>------------- ------ ------ ---- ---- ------- ----- -- ----<br>-------- ------- -- ---------- --- - --- ----- ----- ----<br>---- --- --- ----- --- ---- ---- ------- ----- ---- whether<br>--- --- -- ----- -- --- ---- -- --- ---- -- ------ ------<br>--- ----- -- ----,163886,163860,163601,163592,163616,163917,,38,whether
screen,html.Screen,1_1_0_1_39,2022-04-28T10:40:11.431Z,,,,,,,,,,,,,,,,53,,,,,,,,,,,,,,217,,response,,,,99,,,,,,,Space,keypress(Space),,,,,,,,---- -- ----- -- ------ - ------- --- ----------<br>------------- ------ ------ ---- ---- ------- ----- -- ----<br>-------- ------- -- ---------- --- - --- ----- ----- ----<br>---- --- --- ----- --- ---- ---- ------- ----- ---- -------<br>you --- -- ----- -- --- ---- -- --- ---- -- ------ ------<br>--- ----- -- ----,164143,164117,163900,163886,163917,164167,,39,you
screen,html.Screen,1_1_0_1_40,2022-04-28T10:40:11.678Z,,,,,,,,,,,,,,,,53,,,,,,,,,,,,,,215,,response,,,,99,,,,,,,Space,keypress(Space),,,,,,,,---- -- ----- -- ------ - ------- --- ----------<br>------------- ------ ------ ---- ---- ------- ----- -- ----<br>-------- ------- -- ---------- --- - --- ----- ----- ----<br>---- --- --- ----- --- ---- ---- ------- ----- ---- -------<br>--- are -- ----- -- --- ---- -- --- ---- -- ------ ------<br>--- ----- -- ----,164390.00000000003,164365,164150,164143,164167,164417,,40,are
screen,html.Screen,1_1_0_1_41,2022-04-28T10:40:11.859Z,,,,,,,,,,,,,,,,53,,,,,,,,,,,,,,146,,response,,,,99,,,,,,,Space,keypress(Space),,,,,,,,---- -- ----- -- ------ - ------- --- ----------<br>------------- ------ ------ ---- ---- ------- ----- -- ----<br>-------- ------- -- ---------- --- - --- ----- ----- ----<br>---- --- --- ----- --- ---- ---- ------- ----- ---- -------<br>--- --- as ----- -- --- ---- -- --- ---- -- ------ ------<br>--- ----- -- ----,164572,164546,164400,164390.00000000003,164417,164600,,41,as
screen,html.Screen,1_1_0_1_42,2022-04-28T10:40:12.080Z,,,,,,,,,,,,,,,,53,,,,,,,,,,,,,,184,,response,,,,99,,,,,,,Space,keypress(Space),,,,,,,,---- -- ----- -- ------ - ------- --- ----------<br>------------- ------ ------ ---- ---- ------- ----- -- ----<br>-------- ------- -- ---------- --- - --- ----- ----- ----<br>---- --- --- ----- --- ---- ---- ------- ----- ---- -------<br>--- --- -- close -- --- ---- -- --- ---- -- ------ ------<br>--- ----- -- ----,164793,164767,164583,164572,164600,164817,,42,close
screen,html.Screen,1_1_0_1_43,2022-04-28T10:40:12.306Z,,,,,,,,,,,,,,,,53,,,,,,,,,,,,,,192,,response,,,,99,,,,,,,Space,keypress(Space),,,,,,,,---- -- ----- -- ------ - ------- --- ----------<br>------------- ------ ------ ---- ---- ------- ----- -- ----<br>-------- ------- -- ---------- --- - --- ----- ----- ----<br>---- --- --- ----- --- ---- ---- ------- ----- ---- -------<br>--- --- -- ----- as --- ---- -- --- ---- -- ------ ------<br>--- ----- -- ----,165019,164993,164801,164793,164817,165050,,43,as
screen,html.Screen,1_1_0_1_44,2022-04-28T10:40:12.539Z,,,,,,,,,,,,,,,,53,,,,,,,,,,,,,,191,,response,,,,99,,,,,,,Space,keypress(Space),,,,,,,,---- -- ----- -- ------ - ------- --- ----------<br>------------- ------ ------ ---- ---- ------- ----- -- ----<br>-------- ------- -- ---------- --- - --- ----- ----- ----<br>---- --- --- ----- --- ---- ---- ------- ----- ---- -------<br>--- --- -- ----- -- you ---- -- --- ---- -- ------ ------<br>--- ----- -- ----,165251,165225,165034,165019,165050,165284,,44,you
screen,html.Screen,1_1_0_1_45,2022-04-28T10:40:12.754Z,,,,,,,,,,,,,,,,53,,,,,,,,,,,,,,174,,response,,,,99,,,,,,,Space,keypress(Space),,,,,,,,---- -- ----- -- ------ - ------- --- ----------<br>------------- ------ ------ ---- ---- ------- ----- -- ----<br>-------- ------- -- ---------- --- - --- ----- ----- ----<br>---- --- --- ----- --- ---- ---- ------- ----- ---- -------<br>--- --- -- ----- -- --- want -- --- ---- -- ------ ------<br>--- ----- -- ----,165466,165441,165267,165251,165284,165483,,45,want
screen,html.Screen,1_1_0_1_46,2022-04-28T10:40:12.985Z,,,,,,,,,,,,,,,,53,,,,,,,,,,,,,,205,,response,,,,99,,,,,,,Space,keypress(Space),,,,,,,,---- -- ----- -- ------ - ------- --- ----------<br>------------- ------ ------ ---- ---- ------- ----- -- ----<br>-------- ------- -- ---------- --- - --- ----- ----- ----<br>---- --- --- ----- --- ---- ---- ------- ----- ---- -------<br>--- --- -- ----- -- --- ---- to --- ---- -- ------ ------<br>--- ----- -- ----,165698,165672,165467,165467,165483,165717,,46,to
screen,html.Screen,1_1_0_1_47,2022-04-28T10:40:13.186Z,,,,,,,,,,,,,,,,53,,,,,,,,,,,,,,173,,response,,,,99,,,,,,,Space,keypress(Space),,,,,,,,"---- -- ----- -- ------ - ------- --- ----------<br>------------- ------ ------ ---- ---- ------- ----- -- ----<br>-------- ------- -- ---------- --- - --- ----- ----- ----<br>---- --- --- ----- --- ---- ---- ------- ----- ---- -------<br>--- --- -- ----- -- --- ---- -- be, ---- -- ------ ------<br>--- ----- -- ----",165899,165873,165700,165698,165717,165917,,47,"be,"
screen,html.Screen,1_1_0_1_48,2022-04-28T10:40:13.395Z,,,,,,,,,,,,,,,,53,,,,,,,,,,,,,,183,,response,,,,99,,,,,,,Space,keypress(Space),,,,,,,,---- -- ----- -- ------ - ------- --- ----------<br>------------- ------ ------ ---- ---- ------- ----- -- ----<br>-------- ------- -- ---------- --- - --- ----- ----- ----<br>---- --- --- ----- --- ---- ---- ------- ----- ---- -------<br>--- --- -- ----- -- --- ---- -- --- even -- ------ ------<br>--- ----- -- ----,166107,166082,165899,165899,165917,166133,,48,even
screen,html.Screen,1_1_0_1_49,2022-04-28T10:40:13.616Z,,,,,,,,,,,,,,,,53,,,,,,,,,,,,,,186,,response,,,,99,,,,,,,Space,keypress(Space),,,,,,,,---- -- ----- -- ------ - ------- --- ----------<br>------------- ------ ------ ---- ---- ------- ----- -- ----<br>-------- ------- -- ---------- --- - --- ----- ----- ----<br>---- --- --- ----- --- ---- ---- ------- ----- ---- -------<br>--- --- -- ----- -- --- ---- -- --- ---- if ------ ------<br>--- ----- -- ----,166329,166303,166117,166108,166133,166351,,49,if
screen,html.Screen,1_1_0_1_50,2022-04-28T10:40:13.838Z,,,,,,,,,,,,,,,,53,,,,,,,,,,,,,,192,,response,,,,99,,,,,,,Space,keypress(Space),,,,,,,,---- -- ----- -- ------ - ------- --- ----------<br>------------- ------ ------ ---- ---- ------- ----- -- ----<br>-------- ------- -- ---------- --- - --- ----- ----- ----<br>---- --- --- ----- --- ---- ---- ------- ----- ---- -------<br>--- --- -- ----- -- --- ---- -- --- ---- -- that's ------<br>--- ----- -- ----,166551.00000000003,166525,166333,166329,166351,166584,,50,that's
screen,html.Screen,1_1_0_1_51,2022-04-28T10:40:14.128Z,,,,,,,,,,,,,,,,53,,,,,,,,,,,,,,249,,response,,,,99,,,,,,,Space,keypress(Space),,,,,,,,---- -- ----- -- ------ - ------- --- ----------<br>------------- ------ ------ ---- ---- ------- ----- -- ----<br>-------- ------- -- ---------- --- - --- ----- ----- ----<br>---- --- --- ----- --- ---- ---- ------- ----- ---- -------<br>--- --- -- ----- -- --- ---- -- --- ---- -- ------ really<br>--- ----- -- ----,166841,166815,166566,166551.00000000003,166584,166867,,51,really
screen,html.Screen,1_1_0_1_52,2022-04-28T10:40:14.476Z,,,,,,,,,,,,,,,,53,,,,,,,,,,,,,,313,,response,,,,99,,,,,,,Space,keypress(Space),,,,,,,,---- -- ----- -- ------ - ------- --- ----------<br>------------- ------ ------ ---- ---- ------- ----- -- ----<br>-------- ------- -- ---------- --- - --- ----- ----- ----<br>---- --- --- ----- --- ---- ---- ------- ----- ---- -------<br>--- --- -- ----- -- --- ---- -- --- ---- -- ------ ------<br>not ----- -- ----,167189,167163,166850,166841,166867,167216,,52,not
screen,html.Screen,1_1_0_1_53,2022-04-28T10:40:14.724Z,,,,,,,,,,,,,,,,53,,,,,,,,,,,,,,211,,response,,,,99,,,,,,,Space,keypress(Space),,,,,,,,---- -- ----- -- ------ - ------- --- ----------<br>------------- ------ ------ ---- ---- ------- ----- -- ----<br>-------- ------- -- ---------- --- - --- ----- ----- ----<br>---- --- --- ----- --- ---- ---- ------- ----- ---- -------<br>--- --- -- ----- -- --- ---- -- --- ---- -- ------ ------<br>--- close -- ----,167437,167411,167200,167189,167216,167470,,53,close
screen,html.Screen,1_1_0_1_54,2022-04-28T10:40:15.058Z,,,,,,,,,,,,,,,,53,,,,,,,,,,,,,,292,,response,,,,99,,,,,,,Space,keypress(Space),,,,,,,,---- -- ----- -- ------ - ------- --- ----------<br>------------- ------ ------ ---- ---- ------- ----- -- ----<br>-------- ------- -- ---------- --- - --- ----- ----- ----<br>---- --- --- ----- --- ---- ---- ------- ----- ---- -------<br>--- --- -- ----- -- --- ---- -- --- ---- -- ------ ------<br>--- ----- at ----,167771.00000000003,167745,167453,167437,167470,167804,,54,at
screen,html.Screen,1_1_0_1_55,2022-04-28T10:40:15.428Z,,,,,,,,,,,,,,,,53,,,,,,,,,,,,,,329,,response,,,,99,,,,,,,Space,keypress(Space),,,,,,,,---- -- ----- -- ------ - ------- --- ----------<br>------------- ------ ------ ---- ---- ------- ----- -- ----<br>-------- ------- -- ---------- --- - --- ----- ----- ----<br>---- --- --- ----- --- ---- ---- ------- ----- ---- -------<br>--- --- -- ----- -- --- ---- -- --- ---- -- ------ ------<br>--- ----- -- all.,168141,168115,167786,167771.00000000003,167804,168169,,55,all.
Item 99,flow.Loop,1_1_0_1,2022-04-28T10:40:15.429Z,,,,,,,,,,,,,,,,,,,,,,,,,,,,,,19122,,completion,,,,,E,,,,,,,,,,,silence,,,,,168141,168115,148972,148972,148993,168169,,,
Question 1,html.Screen,1_1_0_2,2022-04-28T10:40:21.558Z,,,,,,,,,,,,,,,,,,,,,,,,,,,true,FALSE,,6024,,response,,,,99,E,,,,,,FALSE,click #choice-2,,,,silence,,,,,174270,174177,168153,168141,168169,174289,,,
Question 2,html.Screen,1_1_0_3,2022-04-28T10:40:26.112Z,,,,,,,,,,,,,,,,,,,,,,,,,,,true,TRUE,,4525,,response,,,,99,E,,,,,,TRUE,click #choice-1,,,,silence,,,,,178824,178798,174273,174270,174289,178857,,,
Item 99,flow.Sequence,1_1_0,2022-04-28T10:40:26.112Z,,,,,,,,,,,,,,,,,,,,,,,,,,,,,,39818,,completion,,,,,,,,,,,,,,,,,,,,,178824,178798,138964,138959,138980,178857,,,
Holding screen,html.Screen,1_1_1_0,2022-04-28T10:40:36.136Z,,,,,,,,,,,,,,,,,,,,,,,,,,,,,,10008,,timeout,,,,,,,,,,,,,,,,,,,,,188848,188848,178840,178824,178857,188865,,,
screen,html.Screen,1_1_1_1_0,2022-04-28T10:40:37.055Z,,,,,,,,,,,,,,,,54,,,,,,,,,,,,,,893,,response,,,,100,,,,,,,Space,keypress(Space),,,,,,,,At --- ---- --- ------ ----- ------- ---- -- --- ------- --<br>------- ---------- ------ -- ----- -- ----- -- ---- ------<br>--- ----- --- --- ------ -------- ----- --- ------ ----- --<br>----- ----- ---------- --- --- ------ ------ ---- -- ------<br>------- --- ------ ----- --- ---- ------- -- ---- --- --<br>------- ------,189767,189741,188848,188848,188865,189797,,0,At
screen,html.Screen,1_1_1_1_1,2022-04-28T10:40:37.274Z,,,,,,,,,,,,,,,,54,,,,,,,,,,,,,,178,,response,,,,100,,,,,,,Space,keypress(Space),,,,,,,,-- the ---- --- ------ ----- ------- ---- -- --- ------- --<br>------- ---------- ------ -- ----- -- ----- -- ---- ------<br>--- ----- --- --- ------ -------- ----- --- ------ ----- --<br>----- ----- ---------- --- --- ------ ------ ---- -- ------<br>------- --- ------ ----- --- ---- ------- -- ---- --- --<br>------- ------,189986,189960,189782,189767,189797,190014,,1,the
screen,html.Screen,1_1_1_1_2,2022-04-28T10:40:37.549Z,,,,,,,,,,,,,,,,54,,,,,,,,,,,,,,237,,response,,,,100,,,,,,,Space,keypress(Space),,,,,,,,-- --- time --- ------ ----- ------- ---- -- --- ------- --<br>------- ---------- ------ -- ----- -- ----- -- ---- ------<br>--- ----- --- --- ------ -------- ----- --- ------ ----- --<br>----- ----- ---------- --- --- ------ ------ ---- -- ------<br>------- --- ------ ----- --- ---- ------- -- ---- --- --<br>------- ------,190261,190235,189998,189986,190014,190281,,2,time
screen,html.Screen,1_1_1_1_3,2022-04-28T10:40:37.844Z,,,,,,,,,,,,,,,,54,,,,,,,,,,,,,,266,,response,,,,100,,,,,,,Space,keypress(Space),,,,,,,,-- --- ---- the ------ ----- ------- ---- -- --- ------- --<br>------- ---------- ------ -- ----- -- ----- -- ---- ------<br>--- ----- --- --- ------ -------- ----- --- ------ ----- --<br>----- ----- ---------- --- --- ------ ------ ---- -- ------<br>------- --- ------ ----- --- ---- ------- -- ---- --- --<br>------- ------,190556,190530,190264,190261,190281,190580,,3,the
screen,html.Screen,1_1_1_1_4,2022-04-28T10:40:38.146Z,,,,,,,,,,,,,,,,54,,,,,,,,,,,,,,270,,response,,,,100,,,,,,,Space,keypress(Space),,,,,,,,-- --- ---- --- French ----- ------- ---- -- --- ------- --<br>------- ---------- ------ -- ----- -- ----- -- ---- ------<br>--- ----- --- --- ------ -------- ----- --- ------ ----- --<br>----- ----- ---------- --- --- ------ ------ ---- -- ------<br>------- --- ------ ----- --- ---- ------- -- ---- --- --<br>------- ------,190859,190833,190563,190556,190580,190881,,4,French
screen,html.Screen,1_1_1_1_5,2022-04-28T10:40:38.372Z,,,,,,,,,,,,,,,,54,,,,,,,,,,,,,,195,,response,,,,100,,,,,,,Space,keypress(Space),,,,,,,,-- --- ---- --- ------ crown ------- ---- -- --- ------- --<br>------- ---------- ------ -- ----- -- ----- -- ---- ------<br>--- ----- --- --- ------ -------- ----- --- ------ ----- --<br>----- ----- ---------- --- --- ------ ------ ---- -- ------<br>------- --- ------ ----- --- ---- ------- -- ---- --- --<br>------- ------,191085,191059,190864,190859,190881,191114,,5,crown
screen,html.Screen,1_1_1_1_6,2022-04-28T10:40:38.670Z,,,,,,,,,,,,,,,,54,,,,,,,,,,,,,,260,,response,,,,100,,,,,,,Space,keypress(Space),,,,,,,,-- --- ---- --- ------ ----- secured ---- -- --- ------- --<br>------- ---------- ------ -- ----- -- ----- -- ---- ------<br>--- ----- --- --- ------ -------- ----- --- ------ ----- --<br>----- ----- ---------- --- --- ------ ------ ---- -- ------<br>------- --- ------ ----- --- ---- ------- -- ---- --- --<br>------- ------,191383,191357,191097,191085,191114,191413,,6,secured
screen,html.Screen,1_1_1_1_7,2022-04-28T10:40:39.149Z,,,,,,,,,,,,,,,,54,,,,,,,,,,,,,,438,,response,,,,100,,,,,,,Space,keypress(Space),,,,,,,,-- --- ---- --- ------ ----- ------- much -- --- ------- --<br>------- ---------- ------ -- ----- -- ----- -- ---- ------<br>--- ----- --- --- ------ -------- ----- --- ------ ----- --<br>----- ----- ---------- --- --- ------ ------ ---- -- ------<br>------- --- ------ ----- --- ---- ------- -- ---- --- --<br>------- ------,191861,191836,191398,191383,191413,191898,,7,much
screen,html.Screen,1_1_1_1_8,2022-04-28T10:40:39.463Z,,,,,,,,,,,,,,,,54,,,,,,,,,,,,,,268,,response,,,,100,,,,,,,Space,keypress(Space),,,,,,,,-- --- ---- --- ------ ----- ------- ---- of --- ------- --<br>------- ---------- ------ -- ----- -- ----- -- ---- ------<br>--- ----- --- --- ------ -------- ----- --- ------ ----- --<br>----- ----- ---------- --- --- ------ ------ ---- -- ------<br>------- --- ------ ----- --- ---- ------- -- ---- --- --<br>------- ------,192175,192149,191881,191861,191898,192197,,8,of
screen,html.Screen,1_1_1_1_9,2022-04-28T10:40:39.776Z,,,,,,,,,,,,,,,,54,,,,,,,,,,,,,,281.0000000000291,,response,,,,100,,,,,,,Space,keypress(Space),,,,,,,,-- --- ---- --- ------ ----- ------- ---- -- its ------- --<br>------- ---------- ------ -- ----- -- ----- -- ---- ------<br>--- ----- --- --- ------ -------- ----- --- ------ ----- --<br>----- ----- ---------- --- --- ------ ------ ---- -- ------<br>------- --- ------ ----- --- ---- ------- -- ---- --- --<br>------- ------,192488,192462.00000000003,192181,192175,192197,192519,,9,its
screen,html.Screen,1_1_1_1_10,2022-04-28T10:40:40.044Z,,,,,,,,,,,,,,,,54,,,,,,,,,,,,,,229,,response,,,,100,,,,,,,Space,keypress(Space),,,,,,,,-- --- ---- --- ------ ----- ------- ---- -- --- revenue --<br>------- ---------- ------ -- ----- -- ----- -- ---- ------<br>--- ----- --- --- ------ -------- ----- --- ------ ----- --<br>----- ----- ---------- --- --- ------ ------ ---- -- ------<br>------- --- ------ ----- --- ---- ------- -- ---- --- --<br>------- ------,192756,192731,192502,192488,192519,192785,,10,revenue
screen,html.Screen,1_1_1_1_11,2022-04-28T10:40:40.386Z,,,,,,,,,,,,,,,,54,,,,,,,,,,,,,,303,,response,,,,100,,,,,,,Space,keypress(Space),,,,,,,,-- --- ---- --- ------ ----- ------- ---- -- --- ------- by<br>------- ---------- ------ -- ----- -- ----- -- ---- ------<br>--- ----- --- --- ------ -------- ----- --- ------ ----- --<br>----- ----- ---------- --- --- ------ ------ ---- -- ------<br>------- --- ------ ----- --- ---- ------- -- ---- --- --<br>------- ------,193098,193072,192769,192757,192785,193119,,11,by
screen,html.Screen,1_1_1_1_12,2022-04-28T10:40:40.773Z,,,,,,,,,,,,,,,,54,,,,,,,,,,,,,,358,,response,,,,100,,,,,,,Space,keypress(Space),,,,,,,,-- --- ---- --- ------ ----- ------- ---- -- --- ------- --<br>issuing ---------- ------ -- ----- -- ----- -- ---- ------<br>--- ----- --- --- ------ -------- ----- --- ------ ----- --<br>----- ----- ---------- --- --- ------ ------ ---- -- ------<br>------- --- ------ ----- --- ---- ------- -- ---- --- --<br>------- ------,193485,193460,193102,193098,193119,193518,,12,issuing
screen,html.Screen,1_1_1_1_13,2022-04-28T10:40:41.155Z,,,,,,,,,,,,,,,,54,,,,,,,,,,,,,,340,,response,,,,100,,,,,,,Space,keypress(Space),,,,,,,,-- --- ---- --- ------ ----- ------- ---- -- --- ------- --<br>------- government ------ -- ----- -- ----- -- ---- ------<br>--- ----- --- --- ------ -------- ----- --- ------ ----- --<br>----- ----- ---------- --- --- ------ ------ ---- -- ------<br>------- --- ------ ----- --- ---- ------- -- ---- --- --<br>------- ------,193867,193841,193501,193485,193518,193885,,13,government
screen,html.Screen,1_1_1_1_14,2022-04-28T10:40:41.529Z,,,,,,,,,,,,,,,,54,,,,,,,,,,,,,,348,,response,,,,100,,,,,,,Space,keypress(Space),,,,,,,,-- --- ---- --- ------ ----- ------- ---- -- --- ------- --<br>------- ---------- bonds. -- ----- -- ----- -- ---- ------<br>--- ----- --- --- ------ -------- ----- --- ------ ----- --<br>----- ----- ---------- --- --- ------ ------ ---- -- ------<br>------- --- ------ ----- --- ---- ------- -- ---- --- --<br>------- ------,194241,194216,193868,193867,193885,194284,,14,bonds.
screen,html.Screen,1_1_1_1_15,2022-04-28T10:40:41.949Z,,,,,,,,,,,,,,,,54,,,,,,,,,,,,,,368,,response,,,,100,,,,,,,Space,keypress(Space),,,,,,,,-- --- ---- --- ------ ----- ------- ---- -- --- ------- --<br>------- ---------- ------ In ----- -- ----- -- ---- ------<br>--- ----- --- --- ------ -------- ----- --- ------ ----- --<br>----- ----- ---------- --- --- ------ ------ ---- -- ------<br>------- --- ------ ----- --- ---- ------- -- ---- --- --<br>------- ------,194661,194635,194267,194242,194284,194701,,15,In
screen,html.Screen,1_1_1_1_16,2022-04-28T10:40:42.323Z,,,,,,,,,,,,,,,,54,,,,,,,,,,,,,,324,,response,,,,100,,,,,,,Space,keypress(Space),,,,,,,,"-- --- ---- --- ------ ----- ------- ---- -- --- ------- --<br>------- ---------- ------ -- 1727, -- ----- -- ---- ------<br>--- ----- --- --- ------ -------- ----- --- ------ ----- --<br>----- ----- ---------- --- --- ------ ------ ---- -- ------<br>------- --- ------ ----- --- ---- ------- -- ---- --- --<br>------- ------",195035,195009,194685,194661,194701,195068,,16,"1727,"
screen,html.Screen,1_1_1_1_17,2022-04-28T10:40:42.953Z,,,,,,,,,,,,,,,,54,,,,,,,,,,,,,,590.0000000000291,,response,,,,100,,,,,,,Space,keypress(Space),,,,,,,,-- --- ---- --- ------ ----- ------- ---- -- --- ------- --<br>------- ---------- ------ -- ----- in ----- -- ---- ------<br>--- ----- --- --- ------ -------- ----- --- ------ ----- --<br>----- ----- ---------- --- --- ------ ------ ---- -- ------<br>------- --- ------ ----- --- ---- ------- -- ---- --- --<br>------- ------,195666,195640.00000000003,195050,195035,195068,195700,,17,in
screen,html.Screen,1_1_1_1_18,2022-04-28T10:40:43.275Z,,,,,,,,,,,,,,,,54,,,,,,,,,,,,,,277,,response,,,,100,,,,,,,Space,keypress(Space),,,,,,,,-- --- ---- --- ------ ----- ------- ---- -- --- ------- --<br>------- ---------- ------ -- ----- -- order -- ---- ------<br>--- ----- --- --- ------ -------- ----- --- ------ ----- --<br>----- ----- ---------- --- --- ------ ------ ---- -- ------<br>------- --- ------ ----- --- ---- ------- -- ---- --- --<br>------- ------,195987,195961,195684,195666,195700,196018,,18,order
screen,html.Screen,1_1_1_1_19,2022-04-28T10:40:43.647Z,,,,,,,,,,,,,,,,54,,,,,,,,,,,,,,332,,response,,,,100,,,,,,,Space,keypress(Space),,,,,,,,-- --- ---- --- ------ ----- ------- ---- -- --- ------- --<br>------- ---------- ------ -- ----- -- ----- to ---- ------<br>--- ----- --- --- ------ -------- ----- --- ------ ----- --<br>----- ----- ---------- --- --- ------ ------ ---- -- ------<br>------- --- ------ ----- --- ---- ------- -- ---- --- --<br>------- ------,196359,196333,196001,195987,196018,196384,,19,to
screen,html.Screen,1_1_1_1_20,2022-04-28T10:40:43.924Z,,,,,,,,,,,,,,,,54,,,,,,,,,,,,,,243,,response,,,,100,,,,,,,Space,keypress(Space),,,,,,,,-- --- ---- --- ------ ----- ------- ---- -- --- ------- --<br>------- ---------- ------ -- ----- -- ----- -- save ------<br>--- ----- --- --- ------ -------- ----- --- ------ ----- --<br>----- ----- ---------- --- --- ------ ------ ---- -- ------<br>------- --- ------ ----- --- ---- ------- -- ---- --- --<br>------- ------,196637,196611,196368,196359,196384,196667,,20,save
screen,html.Screen,1_1_1_1_21,2022-04-28T10:40:44.300Z,,,,,,,,,,,,,,,,54,,,,,,,,,,,,,,335,,response,,,,100,,,,,,,Space,keypress(Space),,,,,,,,"-- --- ---- --- ------ ----- ------- ---- -- --- ------- --<br>------- ---------- ------ -- ----- -- ----- -- ---- money,<br>--- ----- --- --- ------ -------- ----- --- ------ ----- --<br>----- ----- ---------- --- --- ------ ------ ---- -- ------<br>------- --- ------ ----- --- ---- ------- -- ---- --- --<br>------- ------",197013,196987,196652,196637,196667,197034,,21,"money,"
screen,html.Screen,1_1_1_1_22,2022-04-28T10:40:44.734Z,,,,,,,,,,,,,,,,54,,,,,,,,,,,,,,404,,response,,,,100,,,,,,,Space,keypress(Space),,,,,,,,-- --- ---- --- ------ ----- ------- ---- -- --- ------- --<br>------- ---------- ------ -- ----- -- ----- -- ---- ------<br>the ----- --- --- ------ -------- ----- --- ------ ----- --<br>----- ----- ---------- --- --- ------ ------ ---- -- ------<br>------- --- ------ ----- --- ---- ------- -- ---- --- --<br>------- ------,197446,197421,197017,197013,197034,197487,,22,the
screen,html.Screen,1_1_1_1_23,2022-04-28T10:40:44.981Z,,,,,,,,,,,,,,,,54,,,,,,,,,,,,,,197,,response,,,,100,,,,,,,Space,keypress(Space),,,,,,,,-- --- ---- --- ------ ----- ------- ---- -- --- ------- --<br>------- ---------- ------ -- ----- -- ----- -- ---- ------<br>--- state --- --- ------ -------- ----- --- ------ ----- --<br>----- ----- ---------- --- --- ------ ------ ---- -- ------<br>------- --- ------ ----- --- ---- ------- -- ---- --- --<br>------- ------,197693,197668,197471,197446,197487,197720,,23,state
screen,html.Screen,1_1_1_1_24,2022-04-28T10:40:45.217Z,,,,,,,,,,,,,,,,54,,,,,,,,,,,,,,199,,response,,,,100,,,,,,,Space,keypress(Space),,,,,,,,-- --- ---- --- ------ ----- ------- ---- -- --- ------- --<br>------- ---------- ------ -- ----- -- ----- -- ---- ------<br>--- ----- cut --- ------ -------- ----- --- ------ ----- --<br>----- ----- ---------- --- --- ------ ------ ---- -- ------<br>------- --- ------ ----- --- ---- ------- -- ---- --- --<br>------- ------,197929,197903,197704,197694.00000000003,197720,197955,,24,cut
screen,html.Screen,1_1_1_1_25,2022-04-28T10:40:45.498Z,,,,,,,,,,,,,,,,54,,,,,,,,,,,,,,247,,response,,,,100,,,,,,,Space,keypress(Space),,,,,,,,-- --- ---- --- ------ ----- ------- ---- -- --- ------- --<br>------- ---------- ------ -- ----- -- ----- -- ---- ------<br>--- ----- --- the ------ -------- ----- --- ------ ----- --<br>----- ----- ---------- --- --- ------ ------ ---- -- ------<br>------- --- ------ ----- --- ---- ------- -- ---- --- --<br>------- ------,198210,198184,197937,197929,197955,198237,,25,the
screen,html.Screen,1_1_1_1_26,2022-04-28T10:40:45.819Z,,,,,,,,,,,,,,,,54,,,,,,,,,,,,,,285,,response,,,,100,,,,,,,Space,keypress(Space),,,,,,,,-- --- ---- --- ------ ----- ------- ---- -- --- ------- --<br>------- ---------- ------ -- ----- -- ----- -- ---- ------<br>--- ----- --- --- bonds' -------- ----- --- ------ ----- --<br>----- ----- ---------- --- --- ------ ------ ---- -- ------<br>------- --- ------ ----- --- ---- ------- -- ---- --- --<br>------- ------,198531,198506,198221,198210,198237,198554,,26,bonds'
screen,html.Screen,1_1_1_1_27,2022-04-28T10:40:46.075Z,,,,,,,,,,,,,,,,54,,,,,,,,,,,,,,224,,response,,,,100,,,,,,,Space,keypress(Space),,,,,,,,-- --- ---- --- ------ ----- ------- ---- -- --- ------- --<br>------- ---------- ------ -- ----- -- ----- -- ---- ------<br>--- ----- --- --- ------ interest ----- --- ------ ----- --<br>----- ----- ---------- --- --- ------ ------ ---- -- ------<br>------- --- ------ ----- --- ---- ------- -- ---- --- --<br>------- ------,198788,198762,198538,198532,198554,198820,,27,interest
screen,html.Screen,1_1_1_1_28,2022-04-28T10:40:46.422Z,,,,,,,,,,,,,,,,54,,,,,,,,,,,,,,304,,response,,,,100,,,,,,,Space,keypress(Space),,,,,,,,-- --- ---- --- ------ ----- ------- ---- -- --- ------- --<br>------- ---------- ------ -- ----- -- ----- -- ---- ------<br>--- ----- --- --- ------ -------- rate. --- ------ ----- --<br>----- ----- ---------- --- --- ------ ------ ---- -- ------<br>------- --- ------ ----- --- ---- ------- -- ---- --- --<br>------- ------,199134,199109,198805,198788,198820,199154,,28,rate.
screen,html.Screen,1_1_1_1_29,2022-04-28T10:40:46.978Z,,,,,,,,,,,,,,,,54,,,,,,,,,,,,,,528,,response,,,,100,,,,,,,Space,keypress(Space),,,,,,,,-- --- ---- --- ------ ----- ------- ---- -- --- ------- --<br>------- ---------- ------ -- ----- -- ----- -- ---- ------<br>--- ----- --- --- ------ -------- ----- The ------ ----- --<br>----- ----- ---------- --- --- ------ ------ ---- -- ------<br>------- --- ------ ----- --- ---- ------- -- ---- --- --<br>------- ------,199690,199665,199137,199134,199154,199721,,29,The
screen,html.Screen,1_1_1_1_30,2022-04-28T10:40:47.270Z,,,,,,,,,,,,,,,,54,,,,,,,,,,,,,,253.0000000000291,,response,,,,100,,,,,,,Space,keypress(Space),,,,,,,,-- --- ---- --- ------ ----- ------- ---- -- --- ------- --<br>------- ---------- ------ -- ----- -- ----- -- ---- ------<br>--- ----- --- --- ------ -------- ----- --- market ----- --<br>----- ----- ---------- --- --- ------ ------ ---- -- ------<br>------- --- ------ ----- --- ---- ------- -- ---- --- --<br>------- ------,199982,199956.00000000003,199703,199690,199721,200005,,30,market
screen,html.Screen,1_1_1_1_31,2022-04-28T10:40:47.515Z,,,,,,,,,,,,,,,,54,,,,,,,,,,,,,,214,,response,,,,100,,,,,,,Space,keypress(Space),,,,,,,,-- --- ---- --- ------ ----- ------- ---- -- --- ------- --<br>------- ---------- ------ -- ----- -- ----- -- ---- ------<br>--- ----- --- --- ------ -------- ----- --- ------ value --<br>----- ----- ---------- --- --- ------ ------ ---- -- ------<br>------- --- ------ ----- --- ---- ------- -- ---- --- --<br>------- ------,200227,200202,199988,199982,200005,200254,,31,value
screen,html.Screen,1_1_1_1_32,2022-04-28T10:40:47.859Z,,,,,,,,,,,,,,,,54,,,,,,,,,,,,,,309,,response,,,,100,,,,,,,Space,keypress(Space),,,,,,,,-- --- ---- --- ------ ----- ------- ---- -- --- ------- --<br>------- ---------- ------ -- ----- -- ----- -- ---- ------<br>--- ----- --- --- ------ -------- ----- --- ------ ----- of<br>----- ----- ---------- --- --- ------ ------ ---- -- ------<br>------- --- ------ ----- --- ---- ------- -- ---- --- --<br>------- ------,200572,200546,200237,200227,200254,200605,,32,of
screen,html.Screen,1_1_1_1_33,2022-04-28T10:40:48.169Z,,,,,,,,,,,,,,,,54,,,,,,,,,,,,,,268,,response,,,,100,,,,,,,Space,keypress(Space),,,,,,,,-- --- ---- --- ------ ----- ------- ---- -- --- ------- --<br>------- ---------- ------ -- ----- -- ----- -- ---- ------<br>--- ----- --- --- ------ -------- ----- --- ------ ----- --<br>these ----- ---------- --- --- ------ ------ ---- -- ------<br>------- --- ------ ----- --- ---- ------- -- ---- --- --<br>------- ------,200881,200856,200588,200572,200605,200905,,33,these
screen,html.Screen,1_1_1_1_34,2022-04-28T10:40:48.443Z,,,,,,,,,,,,,,,,54,,,,,,,,,,,,,,243,,response,,,,100,,,,,,,Space,keypress(Space),,,,,,,,-- --- ---- --- ------ ----- ------- ---- -- --- ------- --<br>------- ---------- ------ -- ----- -- ----- -- ---- ------<br>--- ----- --- --- ------ -------- ----- --- ------ ----- --<br>----- bonds ---------- --- --- ------ ------ ---- -- ------<br>------- --- ------ ----- --- ---- ------- -- ---- --- --<br>------- ------,201155,201130,200887,200881,200905,201187,,34,bonds
screen,html.Screen,1_1_1_1_35,2022-04-28T10:40:48.727Z,,,,,,,,,,,,,,,,54,,,,,,,,,,,,,,242,,response,,,,100,,,,,,,Space,keypress(Space),,,,,,,,"-- --- ---- --- ------ ----- ------- ---- -- --- ------- --<br>------- ---------- ------ -- ----- -- ----- -- ---- ------<br>--- ----- --- --- ------ -------- ----- --- ------ ----- --<br>----- ----- plummeted, --- --- ------ ------ ---- -- ------<br>------- --- ------ ----- --- ---- ------- -- ---- --- --<br>------- ------",201439,201413,201171,201155,201187,201471,,35,"plummeted,"
screen,html.Screen,1_1_1_1_36,2022-04-28T10:40:49.079Z,,,,,,,,,,,,,,,,54,,,,,,,,,,,,,,312,,response,,,,100,,,,,,,Space,keypress(Space),,,,,,,,-- --- ---- --- ------ ----- ------- ---- -- --- ------- --<br>------- ---------- ------ -- ----- -- ----- -- ---- ------<br>--- ----- --- --- ------ -------- ----- --- ------ ----- --<br>----- ----- ---------- and --- ------ ------ ---- -- ------<br>------- --- ------ ----- --- ---- ------- -- ---- --- --<br>------- ------,201792,201766,201454,201439,201471,201821,,36,and
screen,html.Screen,1_1_1_1_37,2022-04-28T10:40:49.412Z,,,,,,,,,,,,,,,,54,,,,,,,,,,,,,,294,,response,,,,100,,,,,,,Space,keypress(Space),,,,,,,,-- --- ---- --- ------ ----- ------- ---- -- --- ------- --<br>------- ---------- ------ -- ----- -- ----- -- ---- ------<br>--- ----- --- --- ------ -------- ----- --- ------ ----- --<br>----- ----- ---------- --- the ------ ------ ---- -- ------<br>------- --- ------ ----- --- ---- ------- -- ---- --- --<br>------- ------,202124,202098,201804,201792,201821,202154,,37,the
screen,html.Screen,1_1_1_1_38,2022-04-28T10:40:49.661Z,,,,,,,,,,,,,,,,54,,,,,,,,,,,,,,210,,response,,,,100,,,,,,,Space,keypress(Space),,,,,,,,-- --- ---- --- ------ ----- ------- ---- -- --- ------- --<br>------- ---------- ------ -- ----- -- ----- -- ---- ------<br>--- ----- --- --- ------ -------- ----- --- ------ ----- --<br>----- ----- ---------- --- --- market ------ ---- -- ------<br>------- --- ------ ----- --- ---- ------- -- ---- --- --<br>------- ------,202373,202348,202138,202124,202154,202391,,38,market
screen,html.Screen,1_1_1_1_39,2022-04-28T10:40:49.929Z,,,,,,,,,,,,,,,,54,,,,,,,,,,,,,,241,,response,,,,100,,,,,,,Space,keypress(Space),,,,,,,,-- --- ---- --- ------ ----- ------- ---- -- --- ------- --<br>------- ---------- ------ -- ----- -- ----- -- ---- ------<br>--- ----- --- --- ------ -------- ----- --- ------ ----- --<br>----- ----- ---------- --- --- ------ became ---- -- ------<br>------- --- ------ ----- --- ---- ------- -- ---- --- --<br>------- ------,202641,202615,202374,202374,202391,202674,,39,became
screen,html.Screen,1_1_1_1_40,2022-04-28T10:40:50.306Z,,,,,,,,,,,,,,,,54,,,,,,,,,,,,,,335,,response,,,,100,,,,,,,Space,keypress(Space),,,,,,,,-- --- ---- --- ------ ----- ------- ---- -- --- ------- --<br>------- ---------- ------ -- ----- -- ----- -- ---- ------<br>--- ----- --- --- ------ -------- ----- --- ------ ----- --<br>----- ----- ---------- --- --- ------ ------ wary -- ------<br>------- --- ------ ----- --- ---- ------- -- ---- --- --<br>------- ------,203018,202993,202658,202641,202674,203041,,40,wary
screen,html.Screen,1_1_1_1_41,2022-04-28T10:40:50.617Z,,,,,,,,,,,,,,,,54,,,,,,,,,,,,,,280,,response,,,,100,,,,,,,Space,keypress(Space),,,,,,,,-- --- ---- --- ------ ----- ------- ---- -- --- ------- --<br>------- ---------- ------ -- ----- -- ----- -- ---- ------<br>--- ----- --- --- ------ -------- ----- --- ------ ----- --<br>----- ----- ---------- --- --- ------ ------ ---- of ------<br>------- --- ------ ----- --- ---- ------- -- ---- --- --<br>------- ------,203329,203304,203024,203019,203041,203357,,41,of
screen,html.Screen,1_1_1_1_42,2022-04-28T10:40:50.927Z,,,,,,,,,,,,,,,,54,,,,,,,,,,,,,,273,,response,,,,100,,,,,,,Space,keypress(Space),,,,,,,,-- --- ---- --- ------ ----- ------- ---- -- --- ------- --<br>------- ---------- ------ -- ----- -- ----- -- ---- ------<br>--- ----- --- --- ------ -------- ----- --- ------ ----- --<br>----- ----- ---------- --- --- ------ ------ ---- -- French<br>------- --- ------ ----- --- ---- ------- -- ---- --- --<br>------- ------,203639,203614,203341,203329,203357,203658,,42,French
screen,html.Screen,1_1_1_1_43,2022-04-28T10:40:51.269Z,,,,,,,,,,,,,,,,54,,,,,,,,,,,,,,316.0000000000291,,response,,,,100,,,,,,,Space,keypress(Space),,,,,,,,-- --- ---- --- ------ ----- ------- ---- -- --- ------- --<br>------- ---------- ------ -- ----- -- ----- -- ---- ------<br>--- ----- --- --- ------ -------- ----- --- ------ ----- --<br>----- ----- ---------- --- --- ------ ------ ---- -- ------<br>credit. --- ------ ----- --- ---- ------- -- ---- --- --<br>------- ------,203981,203956.00000000003,203640,203640.00000000003,203658,204007,,43,credit.
screen,html.Screen,1_1_1_1_44,2022-04-28T10:40:51.610Z,,,,,,,,,,,,,,,,54,,,,,,,,,,,,,,306,,response,,,,100,,,,,,,Space,keypress(Space),,,,,,,,-- --- ---- --- ------ ----- ------- ---- -- --- ------- --<br>------- ---------- ------ -- ----- -- ----- -- ---- ------<br>--- ----- --- --- ------ -------- ----- --- ------ ----- --<br>----- ----- ---------- --- --- ------ ------ ---- -- ------<br>------- The ------ ----- --- ---- ------- -- ---- --- --<br>------- ------,204322,204297,203991,203982,204007,204341,,44,The
screen,html.Screen,1_1_1_1_45,2022-04-28T10:40:51.905Z,,,,,,,,,,,,,,,,54,,,,,,,,,,,,,,268,,response,,,,100,,,,,,,Space,keypress(Space),,,,,,,,-- --- ---- --- ------ ----- ------- ---- -- --- ------- --<br>------- ---------- ------ -- ----- -- ----- -- ---- ------<br>--- ----- --- --- ------ -------- ----- --- ------ ----- --<br>----- ----- ---------- --- --- ------ ------ ---- -- ------<br>------- --- French ----- --- ---- ------- -- ---- --- --<br>------- ------,204617,204592,204324,204323,204341,204640,,45,French
screen,html.Screen,1_1_1_1_46,2022-04-28T10:40:52.198Z,,,,,,,,,,,,,,,,54,,,,,,,,,,,,,,260,,response,,,,100,,,,,,,Space,keypress(Space),,,,,,,,-- --- ---- --- ------ ----- ------- ---- -- --- ------- --<br>------- ---------- ------ -- ----- -- ----- -- ---- ------<br>--- ----- --- --- ------ -------- ----- --- ------ ----- --<br>----- ----- ---------- --- --- ------ ------ ---- -- ------<br>------- --- ------ state --- ---- ------- -- ---- --- --<br>------- ------,204910,204885,204625,204617,204640,204941,,46,state
screen,html.Screen,1_1_1_1_47,2022-04-28T10:40:52.564Z,,,,,,,,,,,,,,,,54,,,,,,,,,,,,,,325,,response,,,,100,,,,,,,Space,keypress(Space),,,,,,,,-- --- ---- --- ------ ----- ------- ---- -- --- ------- --<br>------- ---------- ------ -- ----- -- ----- -- ---- ------<br>--- ----- --- --- ------ -------- ----- --- ------ ----- --<br>----- ----- ---------- --- --- ------ ------ ---- -- ------<br>------- --- ------ ----- was ---- ------- -- ---- --- --<br>------- ------,205276,205250,204925,204911,204941,205308,,47,was
screen,html.Screen,1_1_1_1_48,2022-04-28T10:40:52.880Z,,,,,,,,,,,,,,,,54,,,,,,,,,,,,,,276,,response,,,,100,,,,,,,Space,keypress(Space),,,,,,,,-- --- ---- --- ------ ----- ------- ---- -- --- ------- --<br>------- ---------- ------ -- ----- -- ----- -- ---- ------<br>--- ----- --- --- ------ -------- ----- --- ------ ----- --<br>----- ----- ---------- --- --- ------ ------ ---- -- ------<br>------- --- ------ ----- --- left ------- -- ---- --- --<br>------- ------,205592,205566,205290,205276,205308,205624,,48,left
screen,html.Screen,1_1_1_1_49,2022-04-28T10:40:53.168Z,,,,,,,,,,,,,,,,54,,,,,,,,,,,,,,247,,response,,,,100,,,,,,,Space,keypress(Space),,,,,,,,-- --- ---- --- ------ ----- ------- ---- -- --- ------- --<br>------- ---------- ------ -- ----- -- ----- -- ---- ------<br>--- ----- --- --- ------ -------- ----- --- ------ ----- --<br>----- ----- ---------- --- --- ------ ------ ---- -- ------<br>------- --- ------ ----- --- ---- without -- ---- --- --<br>------- ------,205880,205854,205607,205592,205624,205908,,49,without
screen,html.Screen,1_1_1_1_50,2022-04-28T10:40:53.460Z,,,,,,,,,,,,,,,,54,,,,,,,,,,,,,,255.0000000000291,,response,,,,100,,,,,,,Space,keypress(Space),,,,,,,,-- --- ---- --- ------ ----- ------- ---- -- --- ------- --<br>------- ---------- ------ -- ----- -- ----- -- ---- ------<br>--- ----- --- --- ------ -------- ----- --- ------ ----- --<br>----- ----- ---------- --- --- ------ ------ ---- -- ------<br>------- --- ------ ----- --- ---- ------- an ---- --- --<br>------- ------,206172,206146.00000000003,205891,205880,205908,206191,,50,an
screen,html.Screen,1_1_1_1_51,2022-04-28T10:40:53.760Z,,,,,,,,,,,,,,,,54,,,,,,,,,,,,,,272,,response,,,,100,,,,,,,Space,keypress(Space),,,,,,,,-- --- ---- --- ------ ----- ------- ---- -- --- ------- --<br>------- ---------- ------ -- ----- -- ----- -- ---- ------<br>--- ----- --- --- ------ -------- ----- --- ------ ----- --<br>----- ----- ---------- --- --- ------ ------ ---- -- ------<br>------- --- ------ ----- --- ---- ------- -- easy --- --<br>------- ------,206472,206447,206175,206172,206191,206491,,51,easy
screen,html.Screen,1_1_1_1_52,2022-04-28T10:40:54.080Z,,,,,,,,,,,,,,,,54,,,,,,,,,,,,,,292,,response,,,,100,,,,,,,Space,keypress(Space),,,,,,,,-- --- ---- --- ------ ----- ------- ---- -- --- ------- --<br>------- ---------- ------ -- ----- -- ----- -- ---- ------<br>--- ----- --- --- ------ -------- ----- --- ------ ----- --<br>----- ----- ---------- --- --- ------ ------ ---- -- ------<br>------- --- ------ ----- --- ---- ------- -- ---- way --<br>------- ------,206792,206767,206475,206472,206491,206825,,52,way
screen,html.Screen,1_1_1_1_53,2022-04-28T10:40:54.439Z,,,,,,,,,,,,,,,,54,,,,,,,,,,,,,,318,,response,,,,100,,,,,,,Space,keypress(Space),,,,,,,,-- --- ---- --- ------ ----- ------- ---- -- --- ------- --<br>------- ---------- ------ -- ----- -- ----- -- ---- ------<br>--- ----- --- --- ------ -------- ----- --- ------ ----- --<br>----- ----- ---------- --- --- ------ ------ ---- -- ------<br>------- --- ------ ----- --- ---- ------- -- ---- --- of<br>------- ------,207151,207126,206808,206792,206825,207174,,53,of
screen,html.Screen,1_1_1_1_54,2022-04-28T10:40:54.743Z,,,,,,,,,,,,,,,,54,,,,,,,,,,,,,,272,,response,,,,100,,,,,,,Space,keypress(Space),,,,,,,,-- --- ---- --- ------ ----- ------- ---- -- --- ------- --<br>------- ---------- ------ -- ----- -- ----- -- ---- ------<br>--- ----- --- --- ------ -------- ----- --- ------ ----- --<br>----- ----- ---------- --- --- ------ ------ ---- -- ------<br>------- --- ------ ----- --- ---- ------- -- ---- --- --<br>raising ------,207455,207430,207158,207151,207174,207478,,54,raising
screen,html.Screen,1_1_1_1_55,2022-04-28T10:40:55.062Z,,,,,,,,,,,,,,,,54,,,,,,,,,,,,,,287,,response,,,,100,,,,,,,Space,keypress(Space),,,,,,,,-- --- ---- --- ------ ----- ------- ---- -- --- ------- --<br>------- ---------- ------ -- ----- -- ----- -- ---- ------<br>--- ----- --- --- ------ -------- ----- --- ------ ----- --<br>----- ----- ---------- --- --- ------ ------ ---- -- ------<br>------- --- ------ ----- --- ---- ------- -- ---- --- --<br>------- money.,207774,207748,207461,207456.00000000003,207478,207795,,55,money.
Item 100,flow.Loop,1_1_1_1,2022-04-28T10:40:55.062Z,,,,,,,,,,,,,,,,,,,,,,,,,,,,,,18883,,completion,,,,,E,,,,,,,,,,,silence,,,,,207774,207748,188848,188848,188865,207795,,,
Question 1,html.Screen,1_1_1_2,2022-04-28T10:40:57.747Z,,,,,,,,,,,,,,,,,,,,,,,,,,,true,TRUE,,2655,,response,,,,100,E,,,,,,TRUE,click #choice-1,,,,silence,,,,,210459,210433,207778,207774,207795,210477,,,
Question 2,html.Screen,1_1_1_3,2022-04-28T10:40:59.751Z,,,,,,,,,,,,,,,,,,,,,,,,,,,true,FALSE,,1974,,response,,,,100,E,,,,,,FALSE,click #choice-2,,,,silence,,,,,212463,212436,210462,210459,210477,212497,,,
Item 100,flow.Sequence,1_1_1,2022-04-28T10:40:59.751Z,,,,,,,,,,,,,,,,,,,,,,,,,,,,,,33579,,completion,,,,,,,,,,,,,,,,,,,,,212463,212436,178840,178824,178857,212497,,,
End of Practice,html.Page,1_1_2,2022-04-28T10:41:02.800Z,,,,,,,,,,,,,,,,,,,,,,,,,,,,,,3015,,form submission,,,,,,,,,,,,,,,,,,,,,215512,215512,212480,212464,212497,215530,,,
Practice,flow.Sequence,1_1,2022-04-28T10:41:02.800Z,,,,,,,,,,,,,,,,,,,,,,,,,,,,,,76532,,completion,,,,,,,,,,,,,,,,,,,,,215512,215512,138964,138959,138980,215530,,,
Trap_instruction,html.Page,1_2_0,2022-04-28T10:41:07.524Z,,,,,,,,,,,,,,,,,,,,,,,,,,,,,,4706.000000000029,,form submission,,,,,,,,,,,,,,,,,,,,,220236.00000000003,220236.00000000003,215515,215512,215530,220285,,,
trap_trial,html.Screen,1_2_1,2022-04-28T10:41:11.050Z,,,,,,,,,,,,,,,,,,,,,,,,,,,true,1,,3474.000000000029,,response,,,,,,,,,,,1,click #choice-1,,,,,,,,,223762,223736.00000000003,220262,220236.00000000003,220285,223803,,,
end of trap trial,html.Page,1_2_2,2022-04-28T10:41:12.656Z,,,,,,,,,,,,,,,,,,,,,,,,,,,,,,1565,,form submission,,,,,,,,,,,,,,,,,,,,,225368,225368,223800,223762,223803,225384,,,
Trap 1,flow.Sequence,1_2,2022-04-28T10:41:12.656Z,,,,,,,,,,,,,,,,,,,,,,,,,,,,,,9838,,completion,,,,,,,,,,,,,,,,,,,,,225368,225368,215515,215512,215530,225384,,,
Standby,html.Page,1_3_0,2022-04-28T10:41:20.663Z,,,,,,,,,,,,,,,,,,,,,,,,,,,,,,8007,,timeout,,,,,,,,,,,,,,,,,,,,,233375,233375,225370,225369,225384,233391,,,
Holding screen,html.Screen,1_3_1_0_0,2022-04-28T10:41:27.665Z,,,,,,,,,,,,,,,,,,,,,,,,,,,,,,7002,,timeout,,,,,,,,,,,,,,,,,,,,,240377,240376,233375,233375,233391,240393,,,
screen,html.Screen,1_3_1_0_1_0,2022-04-28T10:41:28.824Z,,,,,,,,,,,,,,,,15,,,,,,,,,,,,,,1130,,response,,,,7,E,,,,,,Space,keypress(Space),,,,lyrical,,,,Greg --------- ---------- - --- ------- -- --- ------------<br>----- -- -------- ------- ---- ------ - -------- ---- -----<br>--- ------- ---- -- --- -------- --- - ----- ------ ---- --<br>-------- --- -------- -------- --- -------- ---- -- ----- -<br>-------- ---- --- ---------- --------- -- ------- ------ -<br>--------- ----- -----,241535,241506,240376,240377,240393,241576,,0,Greg
screen,html.Screen,1_3_1_0_1_1,2022-04-28T10:41:29.128Z,,,,,,,,,,,,,,,,15,,,,,,,,,,,,,,254,,response,,,,7,E,,,,,,Space,keypress(Space),,,,lyrical,,,,"---- Anderson, ---------- - --- ------- -- --- ------------<br>----- -- -------- ------- ---- ------ - -------- ---- -----<br>--- ------- ---- -- --- -------- --- - ----- ------ ---- --<br>-------- --- -------- -------- --- -------- ---- -- ----- -<br>-------- ---- --- ---------- --------- -- ------- ------ -<br>--------- ----- -----",241840,241814,241560,241536,241576,241860,,1,"Anderson,"
screen,html.Screen,1_3_1_0_1_2,2022-04-28T10:41:29.626Z,,,,,,,,,,,,,,,,15,,,,,,,,,,,,,,468,,response,,,,7,E,,,,,,Space,keypress(Space),,,,lyrical,,,,---- --------- considered - --- ------- -- --- ------------<br>----- -- -------- ------- ---- ------ - -------- ---- -----<br>--- ------- ---- -- --- -------- --- - ----- ------ ---- --<br>-------- --- -------- -------- --- -------- ---- -- ----- -<br>-------- ---- --- ---------- --------- -- ------- ------ -<br>--------- ----- -----,242338,242312,241844,241840,241860,242377,,2,considered
screen,html.Screen,1_3_1_0_1_3,2022-04-28T10:41:29.956Z,,,,,,,,,,,,,,,,15,,,,,,,,,,,,,,281,,response,,,,7,E,,,,,,Space,keypress(Space),,,,lyrical,,,,---- --------- ---------- a --- ------- -- --- ------------<br>----- -- -------- ------- ---- ------ - -------- ---- -----<br>--- ------- ---- -- --- -------- --- - ----- ------ ---- --<br>-------- --- -------- -------- --- -------- ---- -- ----- -<br>-------- ---- --- ---------- --------- -- ------- ------ -<br>--------- ----- -----,242668,242642,242361,242338,242377,242697,,3,a
screen,html.Screen,1_3_1_0_1_4,2022-04-28T10:41:30.301Z,,,,,,,,,,,,,,,,15,,,,,,,,,,,,,,307,,response,,,,7,E,,,,,,Space,keypress(Space),,,,lyrical,,,,---- --------- ---------- - key ------- -- --- ------------<br>----- -- -------- ------- ---- ------ - -------- ---- -----<br>--- ------- ---- -- --- -------- --- - ----- ------ ---- --<br>-------- --- -------- -------- --- -------- ---- -- ----- -<br>-------- ---- --- ---------- --------- -- ------- ------ -<br>--------- ----- -----,243013,242987,242680,242668,242697,243029,,4,key
screen,html.Screen,1_3_1_0_1_5,2022-04-28T10:41:30.656Z,,,,,,,,,,,,,,,,15,,,,,,,,,,,,,,328,,response,,,,7,E,,,,,,Space,keypress(Space),,,,lyrical,,,,---- --------- ---------- - --- witness -- --- ------------<br>----- -- -------- ------- ---- ------ - -------- ---- -----<br>--- ------- ---- -- --- -------- --- - ----- ------ ---- --<br>-------- --- -------- -------- --- -------- ---- -- ----- -<br>-------- ---- --- ---------- --------- -- ------- ------ -<br>--------- ----- -----,243368,243342,243014,243013,243029,243396,,5,witness
screen,html.Screen,1_3_1_0_1_6,2022-04-28T10:41:30.957Z,,,,,,,,,,,,,,,,15,,,,,,,,,,,,,,263,,response,,,,7,E,,,,,,Space,keypress(Space),,,,lyrical,,,,---- --------- ---------- - --- ------- by --- ------------<br>----- -- -------- ------- ---- ------ - -------- ---- -----<br>--- ------- ---- -- --- -------- --- - ----- ------ ---- --<br>-------- --- -------- -------- --- -------- ---- -- ----- -<br>-------- ---- --- ---------- --------- -- ------- ------ -<br>--------- ----- -----,243669,243643,243380,243368,243396,243696,,6,by
screen,html.Screen,1_3_1_0_1_7,2022-04-28T10:41:31.281Z,,,,,,,,,,,,,,,,15,,,,,,,,,,,,,,287,,response,,,,7,E,,,,,,Space,keypress(Space),,,,lyrical,,,,---- --------- ---------- - --- ------- -- the ------------<br>----- -- -------- ------- ---- ------ - -------- ---- -----<br>--- ------- ---- -- --- -------- --- - ----- ------ ---- --<br>-------- --- -------- -------- --- -------- ---- -- ----- -<br>-------- ---- --- ---------- --------- -- ------- ------ -<br>--------- ----- -----,243992.00000000003,243966,243679,243669,243696,244012,,7,the
screen,html.Screen,1_3_1_0_1_8,2022-04-28T10:41:31.716Z,,,,,,,,,,,,,,,,15,,,,,,,,,,,,,,405.0000000000291,,response,,,,7,E,,,,,,Space,keypress(Space),,,,lyrical,,,,"---- --------- ---------- - --- ------- -- --- prosecution,<br>----- -- -------- ------- ---- ------ - -------- ---- -----<br>--- ------- ---- -- --- -------- --- - ----- ------ ---- --<br>-------- --- -------- -------- --- -------- ---- -- ----- -<br>-------- ---- --- ---------- --------- -- ------- ------ -<br>--------- ----- -----",244428,244402.00000000003,243997,243993,244012,244462,,8,"prosecution,"
screen,html.Screen,1_3_1_0_1_9,2022-04-28T10:41:32.065Z,,,,,,,,,,,,,,,,15,,,,,,,,,,,,,,305,,response,,,,7,E,,,,,,Space,keypress(Space),,,,lyrical,,,,---- --------- ---------- - --- ------- -- --- ------------<br>vowed -- -------- ------- ---- ------ - -------- ---- -----<br>--- ------- ---- -- --- -------- --- - ----- ------ ---- --<br>-------- --- -------- -------- --- -------- ---- -- ----- -<br>-------- ---- --- ---------- --------- -- ------- ------ -<br>--------- ----- -----,244777.00000000003,244751,244446,244428,244462,244796,,9,vowed
screen,html.Screen,1_3_1_0_1_10,2022-04-28T10:41:32.328Z,,,,,,,,,,,,,,,,15,,,,,,,,,,,,,,234,,response,,,,7,E,,,,,,Space,keypress(Space),,,,lyrical,,,,---- --------- ---------- - --- ------- -- --- ------------<br>----- he -------- ------- ---- ------ - -------- ---- -----<br>--- ------- ---- -- --- -------- --- - ----- ------ ---- --<br>-------- --- -------- -------- --- -------- ---- -- ----- -<br>-------- ---- --- ---------- --------- -- ------- ------ -<br>--------- ----- -----,245040,245014,244780,244777.00000000003,244796,245063,,10,he
screen,html.Screen,1_3_1_0_1_11,2022-04-28T10:41:32.568Z,,,,,,,,,,,,,,,,15,,,,,,,,,,,,,,208.0000000000291,,response,,,,7,E,,,,,,Space,keypress(Space),,,,lyrical,,,,---- --------- ---------- - --- ------- -- --- ------------<br>----- -- wouldn't ------- ---- ------ - -------- ---- -----<br>--- ------- ---- -- --- -------- --- - ----- ------ ---- --<br>-------- --- -------- -------- --- -------- ---- -- ----- -<br>-------- ---- --- ---------- --------- -- ------- ------ -<br>--------- ----- -----,245280,245254.00000000003,245046,245040,245063,245313,,11,wouldn't
screen,html.Screen,1_3_1_0_1_12,2022-04-28T10:41:32.912Z,,,,,,,,,,,,,,,,15,,,,,,,,,,,,,,301,,response,,,,7,E,,,,,,Space,keypress(Space),,,,lyrical,,,,---- --------- ---------- - --- ------- -- --- ------------<br>----- -- -------- testify ---- ------ - -------- ---- -----<br>--- ------- ---- -- --- -------- --- - ----- ------ ---- --<br>-------- --- -------- -------- --- -------- ---- -- ----- -<br>-------- ---- --- ---------- --------- -- ------- ------ -<br>--------- ----- -----,245624,245598,245297,245280,245313,245647,,12,testify
screen,html.Screen,1_3_1_0_1_13,2022-04-28T10:41:33.172Z,,,,,,,,,,,,,,,,15,,,,,,,,,,,,,,229,,response,,,,7,E,,,,,,Space,keypress(Space),,,,lyrical,,,,---- --------- ---------- - --- ------- -- --- ------------<br>----- -- -------- ------- when ------ - -------- ---- -----<br>--- ------- ---- -- --- -------- --- - ----- ------ ---- --<br>-------- --- -------- -------- --- -------- ---- -- ----- -<br>-------- ---- --- ---------- --------- -- ------- ------ -<br>--------- ----- -----,245884,245858,245629,245624,245647,245913,,13,when
screen,html.Screen,1_3_1_0_1_14,2022-04-28T10:41:33.475Z,,,,,,,,,,,,,,,,15,,,,,,,,,,,,,,265,,response,,,,7,E,,,,,,Space,keypress(Space),,,,lyrical,,,,---- --------- ---------- - --- ------- -- --- ------------<br>----- -- -------- ------- ---- served - -------- ---- -----<br>--- ------- ---- -- --- -------- --- - ----- ------ ---- --<br>-------- --- -------- -------- --- -------- ---- -- ----- -<br>-------- ---- --- ---------- --------- -- ------- ------ -<br>--------- ----- -----,246187,246161,245896,245884,245913,246212,,14,served
screen,html.Screen,1_3_1_0_1_15,2022-04-28T10:41:33.803Z,,,,,,,,,,,,,,,,15,,,,,,,,,,,,,,291,,response,,,,7,E,,,,,,Space,keypress(Space),,,,lyrical,,,,---- --------- ---------- - --- ------- -- --- ------------<br>----- -- -------- ------- ---- ------ a -------- ---- -----<br>--- ------- ---- -- --- -------- --- - ----- ------ ---- --<br>-------- --- -------- -------- --- -------- ---- -- ----- -<br>-------- ---- --- ---------- --------- -- ------- ------ -<br>--------- ----- -----,246514,246488,246197,246187,246212,246546,,15,a
screen,html.Screen,1_3_1_0_1_16,2022-04-28T10:41:34.221Z,,,,,,,,,,,,,,,,15,,,,,,,,,,,,,,378,,response,,,,7,E,,,,,,Space,keypress(Space),,,,lyrical,,,,---- --------- ---------- - --- ------- -- --- ------------<br>----- -- -------- ------- ---- ------ - subpoena ---- -----<br>--- ------- ---- -- --- -------- --- - ----- ------ ---- --<br>-------- --- -------- -------- --- -------- ---- -- ----- -<br>-------- ---- --- ---------- --------- -- ------- ------ -<br>--------- ----- -----,246933,246907,246529,246514,246546,246963,,16,subpoena
screen,html.Screen,1_3_1_0_1_17,2022-04-28T10:41:34.812Z,,,,,,,,,,,,,,,,15,,,,,,,,,,,,,,551.0000000000291,,response,,,,7,E,,,,,,Space,keypress(Space),,,,lyrical,,,,---- --------- ---------- - --- ------- -- --- ------------<br>----- -- -------- ------- ---- ------ - -------- last -----<br>--- ------- ---- -- --- -------- --- - ----- ------ ---- --<br>-------- --- -------- -------- --- -------- ---- -- ----- -<br>-------- ---- --- ---------- --------- -- ------- ------ -<br>--------- ----- -----,247524,247498.00000000003,246947,246933,246963,247566,,17,last
screen,html.Screen,1_3_1_0_1_18,2022-04-28T10:41:35.133Z,,,,,,,,,,,,,,,,15,,,,,,,,,,,,,,268.0000000000291,,response,,,,7,E,,,,,,Space,keypress(Space),,,,lyrical,,,,---- --------- ---------- - --- ------- -- --- ------------<br>----- -- -------- ------- ---- ------ - -------- ---- week.<br>--- ------- ---- -- --- -------- --- - ----- ------ ---- --<br>-------- --- -------- -------- --- -------- ---- -- ----- -<br>-------- ---- --- ---------- --------- -- ------- ------ -<br>--------- ----- -----,247845,247819.00000000003,247551,247524,247566,247867,,18,week.
screen,html.Screen,1_3_1_0_1_19,2022-04-28T10:41:35.477Z,,,,,,,,,,,,,,,,15,,,,,,,,,,,,,,313,,response,,,,7,E,,,,,,Space,keypress(Space),,,,lyrical,,,,---- --------- ---------- - --- ------- -- --- ------------<br>----- -- -------- ------- ---- ------ - -------- ---- -----<br>His ------- ---- -- --- -------- --- - ----- ------ ---- --<br>-------- --- -------- -------- --- -------- ---- -- ----- -<br>-------- ---- --- ---------- --------- -- ------- ------ -<br>--------- ----- -----,248189,248163,247850,247845,247867,248216,,19,His
screen,html.Screen,1_3_1_0_1_20,2022-04-28T10:41:35.783Z,,,,,,,,,,,,,,,,15,,,,,,,,,,,,,,269,,response,,,,7,E,,,,,,Space,keypress(Space),,,,lyrical,,,,---- --------- ---------- - --- ------- -- --- ------------<br>----- -- -------- ------- ---- ------ - -------- ---- -----<br>--- lawyers ---- -- --- -------- --- - ----- ------ ---- --<br>-------- --- -------- -------- --- -------- ---- -- ----- -<br>-------- ---- --- ---------- --------- -- ------- ------ -<br>--------- ----- -----,248495,248469,248200,248189,248216,248517,,20,lawyers
screen,html.Screen,1_3_1_0_1_21,2022-04-28T10:41:36.106Z,,,,,,,,,,,,,,,,15,,,,,,,,,,,,,,292,,response,,,,7,E,,,,,,Space,keypress(Space),,,,lyrical,,,,---- --------- ---------- - --- ------- -- --- ------------<br>----- -- -------- ------- ---- ------ - -------- ---- -----<br>--- ------- said -- --- -------- --- - ----- ------ ---- --<br>-------- --- -------- -------- --- -------- ---- -- ----- -<br>-------- ---- --- ---------- --------- -- ------- ------ -<br>--------- ----- -----,248818,248792,248500,248495,248517,248849,,21,said
screen,html.Screen,1_3_1_0_1_22,2022-04-28T10:41:36.401Z,,,,,,,,,,,,,,,,15,,,,,,,,,,,,,,253.0000000000291,,response,,,,7,E,,,,,,Space,keypress(Space),,,,lyrical,,,,---- --------- ---------- - --- ------- -- --- ------------<br>----- -- -------- ------- ---- ------ - -------- ---- -----<br>--- ------- ---- he --- -------- --- - ----- ------ ---- --<br>-------- --- -------- -------- --- -------- ---- -- ----- -<br>-------- ---- --- ---------- --------- -- ------- ------ -<br>--------- ----- -----,249113,249087.00000000003,248834,248818,248849,249133,,22,he
screen,html.Screen,1_3_1_0_1_23,2022-04-28T10:41:36.654Z,,,,,,,,,,,,,,,,15,,,,,,,,,,,,,,223,,response,,,,7,E,,,,,,Space,keypress(Space),,,,lyrical,,,,---- --------- ---------- - --- ------- -- --- ------------<br>----- -- -------- ------- ---- ------ - -------- ---- -----<br>--- ------- ---- -- was -------- --- - ----- ------ ---- --<br>-------- --- -------- -------- --- -------- ---- -- ----- -<br>-------- ---- --- ---------- --------- -- ------- ------ -<br>--------- ----- -----,249365,249339,249116,249113,249133,249384,,23,was
screen,html.Screen,1_3_1_0_1_24,2022-04-28T10:41:36.889Z,,,,,,,,,,,,,,,,15,,,,,,,,,,,,,,208,,response,,,,7,E,,,,,,Space,keypress(Space),,,,lyrical,,,,---- --------- ---------- - --- ------- -- --- ------------<br>----- -- -------- ------- ---- ------ - -------- ---- -----<br>--- ------- ---- -- --- prepared --- - ----- ------ ---- --<br>-------- --- -------- -------- --- -------- ---- -- ----- -<br>-------- ---- --- ---------- --------- -- ------- ------ -<br>--------- ----- -----,249600,249574,249366,249365,249384,249633,,24,prepared
screen,html.Screen,1_3_1_0_1_25,2022-04-28T10:41:37.217Z,,,,,,,,,,,,,,,,15,,,,,,,,,,,,,,286,,response,,,,7,E,,,,,,Space,keypress(Space),,,,lyrical,,,,---- --------- ---------- - --- ------- -- --- ------------<br>----- -- -------- ------- ---- ------ - -------- ---- -----<br>--- ------- ---- -- --- -------- for - ----- ------ ---- --<br>-------- --- -------- -------- --- -------- ---- -- ----- -<br>-------- ---- --- ---------- --------- -- ------- ------ -<br>--------- ----- -----,249929,249903,249617,249601,249633,249950,,25,for
screen,html.Screen,1_3_1_0_1_26,2022-04-28T10:41:37.505Z,,,,,,,,,,,,,,,,15,,,,,,,,,,,,,,257,,response,,,,7,E,,,,,,Space,keypress(Space),,,,lyrical,,,,---- --------- ---------- - --- ------- -- --- ------------<br>----- -- -------- ------- ---- ------ - -------- ---- -----<br>--- ------- ---- -- --- -------- --- a ----- ------ ---- --<br>-------- --- -------- -------- --- -------- ---- -- ----- -<br>-------- ---- --- ---------- --------- -- ------- ------ -<br>--------- ----- -----,250217,250191,249934,249929,249950,250250,,26,a
screen,html.Screen,1_3_1_0_1_27,2022-04-28T10:41:37.769Z,,,,,,,,,,,,,,,,15,,,,,,,,,,,,,,222,,response,,,,7,E,,,,,,Space,keypress(Space),,,,lyrical,,,,---- --------- ---------- - --- ------- -- --- ------------<br>----- -- -------- ------- ---- ------ - -------- ---- -----<br>--- ------- ---- -- --- -------- --- - third ------ ---- --<br>-------- --- -------- -------- --- -------- ---- -- ----- -<br>-------- ---- --- ---------- --------- -- ------- ------ -<br>--------- ----- -----,250481,250455,250233,250217,250250,250500,,27,third
screen,html.Screen,1_3_1_0_1_28,2022-04-28T10:41:38.058Z,,,,,,,,,,,,,,,,15,,,,,,,,,,,,,,261,,response,,,,7,E,,,,,,Space,keypress(Space),,,,lyrical,,,,---- --------- ---------- - --- ------- -- --- ------------<br>----- -- -------- ------- ---- ------ - -------- ---- -----<br>--- ------- ---- -- --- -------- --- - ----- prison ---- --<br>-------- --- -------- -------- --- -------- ---- -- ----- -<br>-------- ---- --- ---------- --------- -- ------- ------ -<br>--------- ----- -----,250770,250744,250483,250481,250500,250800,,28,prison
screen,html.Screen,1_3_1_0_1_29,2022-04-28T10:41:38.364Z,,,,,,,,,,,,,,,,15,,,,,,,,,,,,,,266,,response,,,,7,E,,,,,,Space,keypress(Space),,,,lyrical,,,,---- --------- ---------- - --- ------- -- --- ------------<br>----- -- -------- ------- ---- ------ - -------- ---- -----<br>--- ------- ---- -- --- -------- --- - ----- ------ stay --<br>-------- --- -------- -------- --- -------- ---- -- ----- -<br>-------- ---- --- ---------- --------- -- ------- ------ -<br>--------- ----- -----,251076,251050,250784,250770,250800,251100,,29,stay
screen,html.Screen,1_3_1_0_1_30,2022-04-28T10:41:38.651Z,,,,,,,,,,,,,,,,15,,,,,,,,,,,,,,254.0000000000291,,response,,,,7,E,,,,,,Space,keypress(Space),,,,lyrical,,,,---- --------- ---------- - --- ------- -- --- ------------<br>----- -- -------- ------- ---- ------ - -------- ---- -----<br>--- ------- ---- -- --- -------- --- - ----- ------ ---- to<br>-------- --- -------- -------- --- -------- ---- -- ----- -<br>-------- ---- --- ---------- --------- -- ------- ------ -<br>--------- ----- -----,251363,251337.00000000003,251083,251076,251100,251384,,30,to
screen,html.Screen,1_3_1_0_1_31,2022-04-28T10:41:38.949Z,,,,,,,,,,,,,,,,15,,,,,,,,,,,,,,269.0000000000291,,response,,,,7,E,,,,,,Space,keypress(Space),,,,lyrical,,,,---- --------- ---------- - --- ------- -- --- ------------<br>----- -- -------- ------- ---- ------ - -------- ---- -----<br>--- ------- ---- -- --- -------- --- - ----- ------ ---- --<br>maintain --- -------- -------- --- -------- ---- -- ----- -<br>-------- ---- --- ---------- --------- -- ------- ------ -<br>--------- ----- -----,251661,251635.00000000003,251366,251363,251384,251684,,31,maintain
screen,html.Screen,1_3_1_0_1_32,2022-04-28T10:41:39.261Z,,,,,,,,,,,,,,,,15,,,,,,,,,,,,,,281,,response,,,,7,E,,,,,,Space,keypress(Space),,,,lyrical,,,,---- --------- ---------- - --- ------- -- --- ------------<br>----- -- -------- ------- ---- ------ - -------- ---- -----<br>--- ------- ---- -- --- -------- --- - ----- ------ ---- --<br>-------- his -------- -------- --- -------- ---- -- ----- -<br>-------- ---- --- ---------- --------- -- ------- ------ -<br>--------- ----- -----,251973,251947,251666,251661,251684,252000,,32,his
screen,html.Screen,1_3_1_0_1_33,2022-04-28T10:41:39.654Z,,,,,,,,,,,,,,,,15,,,,,,,,,,,,,,357,,response,,,,7,E,,,,,,Space,keypress(Space),,,,lyrical,,,,---- --------- ---------- - --- ------- -- --- ------------<br>----- -- -------- ------- ---- ------ - -------- ---- -----<br>--- ------- ---- -- --- -------- --- - ----- ------ ---- --<br>-------- --- silence. -------- --- -------- ---- -- ----- -<br>-------- ---- --- ---------- --------- -- ------- ------ -<br>--------- ----- -----,252366,252340,251983,251973,252000,252400,,33,silence.
screen,html.Screen,1_3_1_0_1_34,2022-04-28T10:41:39.942Z,,,,,,,,,,,,,,,,15,,,,,,,,,,,,,,244,,response,,,,7,E,,,,,,Space,keypress(Space),,,,lyrical,,,,---- --------- ---------- - --- ------- -- --- ------------<br>----- -- -------- ------- ---- ------ - -------- ---- -----<br>--- ------- ---- -- --- -------- --- - ----- ------ ---- --<br>-------- --- -------- Anderson --- -------- ---- -- ----- -<br>-------- ---- --- ---------- --------- -- ------- ------ -<br>--------- ----- -----,252654,252628,252384,252366,252400,252687,,34,Anderson
screen,html.Screen,1_3_1_0_1_35,2022-04-28T10:41:40.349Z,,,,,,,,,,,,,,,,15,,,,,,,,,,,,,,365,,response,,,,7,E,,,,,,Space,keypress(Space),,,,lyrical,,,,---- --------- ---------- - --- ------- -- --- ------------<br>----- -- -------- ------- ---- ------ - -------- ---- -----<br>--- ------- ---- -- --- -------- --- - ----- ------ ---- --<br>-------- --- -------- -------- was -------- ---- -- ----- -<br>-------- ---- --- ---------- --------- -- ------- ------ -<br>--------- ----- -----,253061,253035,252670,252654,252687,253103,,35,was
screen,html.Screen,1_3_1_0_1_36,2022-04-28T10:41:40.611Z,,,,,,,,,,,,,,,,15,,,,,,,,,,,,,,210,,response,,,,7,E,,,,,,Space,keypress(Space),,,,lyrical,,,,---- --------- ---------- - --- ------- -- --- ------------<br>----- -- -------- ------- ---- ------ - -------- ---- -----<br>--- ------- ---- -- --- -------- --- - ----- ------ ---- --<br>-------- --- -------- -------- --- released ---- -- ----- -<br>-------- ---- --- ---------- --------- -- ------- ------ -<br>--------- ----- -----,253323,253297,253087,253061,253103,253353,,36,released
screen,html.Screen,1_3_1_0_1_37,2022-04-28T10:41:40.983Z,,,,,,,,,,,,,,,,15,,,,,,,,,,,,,,332,,response,,,,7,E,,,,,,Space,keypress(Space),,,,lyrical,,,,---- --------- ---------- - --- ------- -- --- ------------<br>----- -- -------- ------- ---- ------ - -------- ---- -----<br>--- ------- ---- -- --- -------- --- - ----- ------ ---- --<br>-------- --- -------- -------- --- -------- July -- ----- -<br>-------- ---- --- ---------- --------- -- ------- ------ -<br>--------- ----- -----,253695,253669,253337,253323,253353,253720,,37,July
screen,html.Screen,1_3_1_0_1_38,2022-04-28T10:41:41.310Z,,,,,,,,,,,,,,,,15,,,,,,,,,,,,,,292,,response,,,,7,E,,,,,,Space,keypress(Space),,,,lyrical,,,,---- --------- ---------- - --- ------- -- --- ------------<br>----- -- -------- ------- ---- ------ - -------- ---- -----<br>--- ------- ---- -- --- -------- --- - ----- ------ ---- --<br>-------- --- -------- -------- --- -------- ---- 20 ----- -<br>-------- ---- --- ---------- --------- -- ------- ------ -<br>--------- ----- -----,254022,253996,253704,253695,253720,254053,,38,20
screen,html.Screen,1_3_1_0_1_39,2022-04-28T10:41:41.667Z,,,,,,,,,,,,,,,,15,,,,,,,,,,,,,,317,,response,,,,7,E,,,,,,Space,keypress(Space),,,,lyrical,,,,---- --------- ---------- - --- ------- -- --- ------------<br>----- -- -------- ------- ---- ------ - -------- ---- -----<br>--- ------- ---- -- --- -------- --- - ----- ------ ---- --<br>-------- --- -------- -------- --- -------- ---- -- after -<br>-------- ---- --- ---------- --------- -- ------- ------ -<br>--------- ----- -----,254379.00000000003,254353,254036,254022,254053,254403,,39,after
screen,html.Screen,1_3_1_0_1_40,2022-04-28T10:41:42.051Z,,,,,,,,,,,,,,,,15,,,,,,,,,,,,,,351,,response,,,,7,E,,,,,,Space,keypress(Space),,,,lyrical,,,,---- --------- ---------- - --- ------- -- --- ------------<br>----- -- -------- ------- ---- ------ - -------- ---- -----<br>--- ------- ---- -- --- -------- --- - ----- ------ ---- --<br>-------- --- -------- -------- --- -------- ---- -- ----- a<br>-------- ---- --- ---------- --------- -- ------- ------ -<br>--------- ----- -----,254763,254737,254386,254379.00000000003,254403,254803,,40,a
screen,html.Screen,1_3_1_0_1_41,2022-04-28T10:41:42.332Z,,,,,,,,,,,,,,,,15,,,,,,,,,,,,,,232,,response,,,,7,E,,,,,,Space,keypress(Space),,,,lyrical,,,,---- --------- ---------- - --- ------- -- --- ------------<br>----- -- -------- ------- ---- ------ - -------- ---- -----<br>--- ------- ---- -- --- -------- --- - ----- ------ ---- --<br>-------- --- -------- -------- --- -------- ---- -- ----- -<br>two-week ---- --- ---------- --------- -- ------- ------ -<br>--------- ----- -----,255044,255018,254786,254763,254803,255070,,41,two-week
screen,html.Screen,1_3_1_0_1_42,2022-04-28T10:41:42.722Z,,,,,,,,,,,,,,,,15,,,,,,,,,,,,,,354.0000000000291,,response,,,,7,E,,,,,,Space,keypress(Space),,,,lyrical,,,,---- --------- ---------- - --- ------- -- --- ------------<br>----- -- -------- ------- ---- ------ - -------- ---- -----<br>--- ------- ---- -- --- -------- --- - ----- ------ ---- --<br>-------- --- -------- -------- --- -------- ---- -- ----- -<br>-------- stay --- ---------- --------- -- ------- ------ -<br>--------- ----- -----,255434,255408.00000000003,255054,255044,255070,255470,,42,stay
screen,html.Screen,1_3_1_0_1_43,2022-04-28T10:41:43.044Z,,,,,,,,,,,,,,,,15,,,,,,,,,,,,,,277.0000000000291,,response,,,,7,E,,,,,,Space,keypress(Space),,,,lyrical,,,,---- --------- ---------- - --- ------- -- --- ------------<br>----- -- -------- ------- ---- ------ - -------- ---- -----<br>--- ------- ---- -- --- -------- --- - ----- ------ ---- --<br>-------- --- -------- -------- --- -------- ---- -- ----- -<br>-------- ---- for ---------- --------- -- ------- ------ -<br>--------- ----- -----,255756,255730.00000000003,255453,255434,255470,255786,,43,for
screen,html.Screen,1_3_1_0_1_44,2022-04-28T10:41:43.324Z,,,,,,,,,,,,,,,,15,,,,,,,,,,,,,,239,,response,,,,7,E,,,,,,Space,keypress(Space),,,,lyrical,,,,---- --------- ---------- - --- ------- -- --- ------------<br>----- -- -------- ------- ---- ------ - -------- ---- -----<br>--- ------- ---- -- --- -------- --- - ----- ------ ---- --<br>-------- --- -------- -------- --- -------- ---- -- ----- -<br>-------- ---- --- previously --------- -- ------- ------ -<br>--------- ----- -----,256036,256010,255771,255756,255786,256054,,44,previously
screen,html.Screen,1_3_1_0_1_45,2022-04-28T10:41:43.966Z,,,,,,,,,,,,,,,,15,,,,,,,,,,,,,,614,,response,,,,7,E,,,,,,Space,keypress(Space),,,,lyrical,,,,---- --------- ---------- - --- ------- -- --- ------------<br>----- -- -------- ------- ---- ------ - -------- ---- -----<br>--- ------- ---- -- --- -------- --- - ----- ------ ---- --<br>-------- --- -------- -------- --- -------- ---- -- ----- -<br>-------- ---- --- ---------- declining -- ------- ------ -<br>--------- ----- -----,256677.00000000003,256651,256037,256036,256054,256720,,45,declining
screen,html.Screen,1_3_1_0_1_46,2022-04-28T10:41:44.276Z,,,,,,,,,,,,,,,,15,,,,,,,,,,,,,,259,,response,,,,7,E,,,,,,Space,keypress(Space),,,,lyrical,,,,---- --------- ---------- - --- ------- -- --- ------------<br>----- -- -------- ------- ---- ------ - -------- ---- -----<br>--- ------- ---- -- --- -------- --- - ----- ------ ---- --<br>-------- --- -------- -------- --- -------- ---- -- ----- -<br>-------- ---- --- ---------- --------- to ------- ------ -<br>--------- ----- -----,256988,256962,256703,256677.00000000003,256720,257020,,46,to
screen,html.Screen,1_3_1_0_1_47,2022-04-28T10:41:44.584Z,,,,,,,,,,,,,,,,15,,,,,,,,,,,,,,265.9999999999709,,response,,,,7,E,,,,,,Space,keypress(Space),,,,lyrical,,,,---- --------- ---------- - --- ------- -- --- ------------<br>----- -- -------- ------- ---- ------ - -------- ---- -----<br>--- ------- ---- -- --- -------- --- - ----- ------ ---- --<br>-------- --- -------- -------- --- -------- ---- -- ----- -<br>-------- ---- --- ---------- --------- -- testify ------ -<br>--------- ----- -----,257295.00000000003,257269.99999999997,257004,256988,257020,257320,,47,testify
screen,html.Screen,1_3_1_0_1_48,2022-04-28T10:41:44.892Z,,,,,,,,,,,,,,,,15,,,,,,,,,,,,,,275.0000000000291,,response,,,,7,E,,,,,,Space,keypress(Space),,,,lyrical,,,,---- --------- ---------- - --- ------- -- --- ------------<br>----- -- -------- ------- ---- ------ - -------- ---- -----<br>--- ------- ---- -- --- -------- --- - ----- ------ ---- --<br>-------- --- -------- -------- --- -------- ---- -- ----- -<br>-------- ---- --- ---------- --------- -- ------- before -<br>--------- ----- -----,257603,257578.00000000003,257303,257296,257320,257625,,48,before
screen,html.Screen,1_3_1_0_1_49,2022-04-28T10:41:45.226Z,,,,,,,,,,,,,,,,15,,,,,,,,,,,,,,303.9999999999709,,response,,,,7,E,,,,,,Space,keypress(Space),,,,lyrical,,,,---- --------- ---------- - --- ------- -- --- ------------<br>----- -- -------- ------- ---- ------ - -------- ---- -----<br>--- ------- ---- -- --- -------- --- - ----- ------ ---- --<br>-------- --- -------- -------- --- -------- ---- -- ----- -<br>-------- ---- --- ---------- --------- -- ------- ------ a<br>--------- ----- -----,257937,257911.99999999997,257608,257603.99999999997,257625,257957,,49,a
screen,html.Screen,1_3_1_0_1_50,2022-04-28T10:41:45.549Z,,,,,,,,,,,,,,,,15,,,,,,,,,,,,,,294,,response,,,,7,E,,,,,,Space,keypress(Space),,,,lyrical,,,,---- --------- ---------- - --- ------- -- --- ------------<br>----- -- -------- ------- ---- ------ - -------- ---- -----<br>--- ------- ---- -- --- -------- --- - ----- ------ ---- --<br>-------- --- -------- -------- --- -------- ---- -- ----- -<br>-------- ---- --- ---------- --------- -- ------- ------ -<br>different ----- -----,258260,258235,257941,257937,257957,258290,,50,different
screen,html.Screen,1_3_1_0_1_51,2022-04-28T10:41:45.802Z,,,,,,,,,,,,,,,,15,,,,,,,,,,,,,,213,,response,,,,7,E,,,,,,Space,keypress(Space),,,,lyrical,,,,---- --------- ---------- - --- ------- -- --- ------------<br>----- -- -------- ------- ---- ------ - -------- ---- -----<br>--- ------- ---- -- --- -------- --- - ----- ------ ---- --<br>-------- --- -------- -------- --- -------- ---- -- ----- -<br>-------- ---- --- ---------- --------- -- ------- ------ -<br>--------- grand -----,258513.00000000003,258488,258275,258261.00000000003,258290,258540,,51,grand
screen,html.Screen,1_3_1_0_1_52,2022-04-28T10:41:46.192Z,,,,,,,,,,,,,,,,15,,,,,,,,,,,,,,353,,response,,,,7,E,,,,,,Space,keypress(Space),,,,lyrical,,,,---- --------- ---------- - --- ------- -- --- ------------<br>----- -- -------- ------- ---- ------ - -------- ---- -----<br>--- ------- ---- -- --- -------- --- - ----- ------ ---- --<br>-------- --- -------- -------- --- -------- ---- -- ----- -<br>-------- ---- --- ---------- --------- -- ------- ------ -<br>--------- ----- jury.,258904,258878,258525,258514,258540,258940,,52,jury.
Item 7,flow.Loop,1_3_1_0_1,2022-04-28T10:41:46.193Z,,,,,,,,,,,,,,,,,,,,,,,,,,,,,,18485,,completion,,,,,,,,,,,,,,,,,,,,,258904,258878,240376,240377,240393,258940,,,
Question 1,html.Screen,1_3_1_0_2,2022-04-28T10:41:48.513Z,,,,,,,,,,,,,,,,,,,,,,,,,,,false,FALSE,,2274,,response,,,,7,E,,,,,,TRUE,click #choice-1,,,,lyrical,,,,,261225.00000000003,261199,258925,258904,258940,261257,,,
Question 2,html.Screen,1_3_1_0_3,2022-04-28T10:41:51.226Z,,,,,,,,,,,,,,,,,,,,,,,,,,,true,TRUE,,2670,,response,,,,7,E,,,,,,TRUE,click #choice-1,,,,lyrical,,,,,263938,263912,261242,261225.00000000003,261257,263959,,,
Item 7,flow.Sequence,1_3_1_0,2022-04-28T10:41:51.226Z,,,,,,,,,,,,,,,,,,,,,,,,,,,,,,30521,,completion,,,,,,,,,,,,,,,,,,,,,263938,263912,233375,233375,233391,263959,,,
Holding screen,html.Screen,1_3_1_1_0,2022-04-28T10:41:58.236Z,,,,,,,,,,,,,,,,,,,,,,,,,,,,,,7003,,timeout,,,,,,,,,,,,,,,,,,,,,270947,270947,263944,263938,263959,270962,,,
screen,html.Screen,1_3_1_1_1_0,2022-04-28T10:41:59.355Z,,,,,,,,,,,,,,,,11,,,,,,,,,,,,,,1092,,response,,,,4,E,,,,,,Space,keypress(Space),,,,lyrical,,,,Known -- ---- --- -- --- -------- ------------ ---------- --<br>- ------- ------ --------- -- ------------ -- --- ---- -----<br>------ ---- ---- ------ ------ ------- --- ----- ---------<br>---- --- -------- -------- --- --- -- ------- --- --- -----<br>-- --- ------ ------- --- --- -------- ---- --------- --<br>---------- -- -------- ----------------,272067,272039,270947,270947,270962,272097,,0,Known
screen,html.Screen,1_3_1_1_1_1,2022-04-28T10:41:59.660Z,,,,,,,,,,,,,,,,11,,,,,,,,,,,,,,265,,response,,,,4,E,,,,,,Space,keypress(Space),,,,lyrical,,,,----- as ---- --- -- --- -------- ------------ ---------- --<br>- ------- ------ --------- -- ------------ -- --- ---- -----<br>------ ---- ---- ------ ------ ------- --- ----- ---------<br>---- --- -------- -------- --- --- -- ------- --- --- -----<br>-- --- ------ ------- --- --- -------- ---- --------- --<br>---------- -- -------- ----------------,272371,272345,272080,272067,272097,272396,,1,as
screen,html.Screen,1_3_1_1_1_2,2022-04-28T10:42:01.673Z,,,,,,,,,,,,,,,,11,,,,,,,,,,,,,,1978,,response,,,,4,E,,,,,,Space,keypress(Space),,,,lyrical,,,,----- -- Rapa --- -- --- -------- ------------ ---------- --<br>- ------- ------ --------- -- ------------ -- --- ---- -----<br>------ ---- ---- ------ ------ ------- --- ----- ---------<br>---- --- -------- -------- --- --- -- ------- --- --- -----<br>-- --- ------ ------- --- --- -------- ---- --------- --<br>---------- -- -------- ----------------,274384,274358,272380,272371,272396,274417,,2,Rapa
screen,html.Screen,1_3_1_1_1_3,2022-04-28T10:42:02.125Z,,,,,,,,,,,,,,,,11,,,,,,,,,,,,,,409,,response,,,,4,E,,,,,,Space,keypress(Space),,,,lyrical,,,,----- -- ---- Nui -- --- -------- ------------ ---------- --<br>- ------- ------ --------- -- ------------ -- --- ---- -----<br>------ ---- ---- ------ ------ ------- --- ----- ---------<br>---- --- -------- -------- --- --- -- ------- --- --- -----<br>-- --- ------ ------- --- --- -------- ---- --------- --<br>---------- -- -------- ----------------,274836,274810,274401,274385,274417,274866,,3,Nui
screen,html.Screen,1_3_1_1_1_4,2022-04-28T10:42:02.458Z,,,,,,,,,,,,,,,,11,,,,,,,,,,,,,,292,,response,,,,4,E,,,,,,Space,keypress(Space),,,,lyrical,,,,----- -- ---- --- to --- -------- ------------ ---------- --<br>- ------- ------ --------- -- ------------ -- --- ---- -----<br>------ ---- ---- ------ ------ ------- --- ----- ---------<br>---- --- -------- -------- --- --- -- ------- --- --- -----<br>-- --- ------ ------- --- --- -------- ---- --------- --<br>---------- -- -------- ----------------,275169,275143,274851,274836,274866,275200,,4,to
