sender,sender_type,sender_id,timestamp,meta,,Blues,Classical,Country,Dance,Electronic,Folk,Gospel,Hip-Hop,Jazz,Latin,Musical/Film,New-age,Pop,Provo_ID,R&B,Rap,Reggae,Religious,Rock,Soul,Swing,Traditional,age,artist_name,correct,correctResponse,distraction,duration,education,ended_on,familiarity,gender,headphone_check_performance,item,list,music_frequency,offensiveness,pleasantness,position_correct,preference,response,response_action,snippet_file,song_name,song_rating,sound,stimulus_1,stimulus_2,stimulus_3,text,time_commit,time_end,time_render,time_run,time_show,time_switch,url,word,word_ID
Introduction,html.Screen,0_0,2021-04-23T10:19:53.481Z,"{""labjs_version"":""20.2.2"",""labjs_build"":{""flavor"":""production"",""commit"":""a25486e0c714a0ae2ce03ff94b7bb6896854dcfa""},""location"":""https://run.pavlovia.org/mvasilev/music_e/"",""userAgent"":""Mozilla/5.0 (Windows NT 10.0; Win64; x64) AppleWebKit/537.36 (KHTML, like Gecko) Chrome/89.0.4389.128 Safari/537.36"",""platform"":""Win32"",""language"":""en-GB"",""locale"":""en-US"",""timeZone"":""Europe/London"",""timezoneOffset"":-60,""screen_width"":1280,""screen_height"":720,""scroll_width"":1280,""scroll_height"":562,""window_innerWidth"":1280,""window_innerHeight"":610,""devicePixelRatio"":1.5}",,,,,,,,,,,,,,,,,,,,,,,,,,,,,13780.250999985023,,response,,,,,,,,,,,continue,click button,,,,,,,,,46094.11000000546,46081.669999985024,32034.947,32019.725000020117,32301.419,46155.19,{},,
Volume calibration,html.Screen,0_1,2021-04-23T10:20:57.223Z,,,,,,,,,,,,,,,,,,,,,,,,,,,,,,63672.994999991206,,response,,,,,,,,,,,continue,click button,,,,,,,,,109835.9599999967,109828.18499999121,46071.961,46095.38000001339,46155.19,109862.23,,,
Task instructions,html.Screen,0_2,2021-04-23T10:21:05.603Z,,,,,,,,,,,,,,,,,,,,,,,,,,,,,,8352.035000016898,,response,,,,,,,,,,,continue,click button,,,,,,,,,118215.7850000076,118214.2650000169,109828.952,109836.36999997543,109862.23,118221.033,,,
Sounds,html.Screen,0_3_0_0,2021-04-23T10:21:09.847Z,,,,,,,,,,,,,,,,,,,,,,,,,,,,,,4246.006999999998,,timeout,,,,,,,,,3,,,,,,,,O,I,S,,122459.87500000047,122450.379,118204.375,118216.63999999873,118221.033,122467.04,,,
Judgement,html.Screen,0_3_0_1,2021-04-23T10:21:11.970Z,,,,,,,,,,,,,,,,,,,,,,,,,,,false,3,,2115.055000019769,,response,,,,,,,,,3,,1,click #choice-1,,,,,O,I,S,,124583.53000000352,124582.09500001976,122450.379,122460.23500000592,122467.04,124598.381,,,
Trial,flow.Sequence,0_3_0,2021-04-23T10:21:11.971Z,,,,,,,,,,,,,,,,,,,,,,,,,,,,,,6361.062000019767,,completion,,,,,,,,,3,,,,,,,,O,I,S,,124584.28999996977,124582.09500001976,118204.375,118216.38499997789,118221.033,124598.381,,,
Sounds,html.Screen,0_3_1_0,2021-04-23T10:21:16.216Z,,,,,,,,,,,,,,,,,,,,,,,,,,,,,,4246.021000000008,,timeout,,,,,,,,,2,,,,,,,,I,S,O,,128829.09999997355,128827.767,124581.739,124584.6550000133,124598.381,128844.402,,,
Judgement,html.Screen,0_3_1_1,2021-04-23T10:21:17.152Z,,,,,,,,,,,,,,,,,,,,,,,,,,,true,2,,917.307999991579,,response,,,,,,,,,2,,2,click #choice-2,,,,,I,S,O,,129765.09000000078,129761.70999999158,128827.767,128829.4299999834,128844.402,129777.336,,,
Trial,flow.Sequence,0_3_1,2021-04-23T10:21:17.153Z,,,,,,,,,,,,,,,,,,,,,,,,,,,,,,5163.328999991587,,completion,,,,,,,,,2,,,,,,,,I,S,O,,129766.37500000652,129761.70999999158,124581.739,124584.56499996828,124598.381,129777.336,,,
Sounds,html.Screen,0_3_2_0,2021-04-23T10:21:21.394Z,,,,,,,,,,,,,,,,,,,,,,,,,,,,,,4245.599999999991,,timeout,,,,,,,,,1,,,,,,,,S,O,I,,134007.12000002386,134006.242,129760.279,129767.49499997823,129777.336,134022.936,,,
Judgement,html.Screen,0_3_2_1,2021-04-23T10:21:22.625Z,,,,,,,,,,,,,,,,,,,,,,,,,,,true,1,,1214.5039999971632,,response,,,,,,,,,1,,1,click #choice-1,,,,,S,O,I,,135238.5849999846,135237.43999999715,134006.242,134007.40000000224,134022.936,135267.997,,,
Trial,flow.Sequence,0_3_2,2021-04-23T10:21:22.626Z,,,,,,,,,,,,,,,,,,,,,,,,,,,,,,5460.1039999971545,,completion,,,,,,,,,1,,,,,,,,S,O,I,,135239.09499996807,135237.43999999715,129760.279,129767.17000000644,129777.336,135267.997,,,
Sounds,html.Screen,0_3_3_0,2021-04-23T10:21:26.889Z,,,,,,,,,,,,,,,,,,,,,,,,,,,,,,4249.779999999999,,timeout,,,,,,,,,3,,,,,,,,I,O,S,,139502.2749999771,139501.115,135221.777,135239.4000000204,135267.997,139517.777,,,
Judgement,html.Screen,0_3_3_1,2021-04-23T10:21:27.845Z,,,,,,,,,,,,,,,,,,,,,,,,,,,true,3,,937.9630000048783,,response,,,,,,,,,3,,3,click #choice-3,,,,,I,O,S,,140457.96999998856,140455.74000000488,139501.115,139502.66499997815,139517.777,140466.911,,,
Trial,flow.Sequence,0_3_3,2021-04-23T10:21:27.846Z,,,,,,,,,,,,,,,,,,,,,,,,,,,,,,5187.743000004877,,completion,,,,,,,,,3,,,,,,,,I,O,S,,140458.89499998884,140455.74000000488,135221.777,135239.32499997318,135267.997,140466.911,,,
Sounds,html.Screen,0_3_4_0,2021-04-23T10:21:32.084Z,,,,,,,,,,,,,,,,,,,,,,,,,,,,,,4246.056000000011,,timeout,,,,,,,,,1,,,,,,,,S,I,O,,144697.8549999767,144696.311,140450.322,140459.3149999855,140466.911,144712.967,,,
Judgement,html.Screen,0_3_4_1,2021-04-23T10:21:33.222Z,,,,,,,,,,,,,,,,,,,,,,,,,,,true,1,,1120.1530000247876,,response,,,,,,,,,1,,1,click #choice-1,,,,,S,I,O,,145836.1900000018,145833.1200000248,144696.311,144698.16999998875,144712.967,145845.583,,,
Trial,flow.Sequence,0_3_4,2021-04-23T10:21:33.223Z,,,,,,,,,,,,,,,,,,,,,,,,,,,,,,5366.209000024799,,completion,,,,,,,,,1,,,,,,,,S,I,O,,145837.11999998195,145833.1200000248,140450.322,140459.21499998076,140466.911,145845.583,,,
Sounds,html.Screen,0_3_5_0,2021-04-23T10:21:37.462Z,,,,,,,,,,,,,,,,,,,,,,,,,,,,,,4245.692999999999,,timeout,,,,,,,,,2,,,,,,,,O,S,I,,150076.16499997675,150074.607,145828.625,145837.84499997273,145845.583,150091.276,,,
Judgement,html.Screen,0_3_5_1,2021-04-23T10:21:39.371Z,,,,,,,,,,,,,,,,,,,,,,,,,,,true,2,,1892.719000016863,,response,,,,,,,,,2,,2,click #choice-2,,,,,O,S,I,,151985.1749999798,151983.99500001688,150074.607,150076.56499999575,150091.276,151989.419,,,
Trial,flow.Sequence,0_3_5,2021-04-23T10:21:39.372Z,,,,,,,,,,,,,,,,,,,,,,,,,,,,,,6138.412000016862,,completion,,,,,,,,,2,,,,,,,,O,S,I,,151985.53499998525,151983.99500001688,145828.625,145837.6050000079,145845.583,151989.419,,,
Task,flow.Loop,0_3,2021-04-23T10:21:39.380Z,,,,,,,,,,,,,,,,,,,,,,,,,,,,,,33762.96200001688,,completion,,,0.8333333333333334,,,,,,,,,,,,,,,,,,151993.57499997132,151983.99500001688,118204.375,118216.20500000427,118221.033,151989.419,,,
Trap,html.Screen,0_4,2021-04-23T10:21:39.384Z,,,,,,,,,,,,,,,,,,,,,,,,,,,,,,NaN,,skipped,,,,,,,,,,,,,,,,,,,,,151997.80999997165,151983.99500001688,,151997.45999998413,,151989.419,,,
Thanks,html.Screen,0_5,2021-04-23T10:21:47.210Z,,,,,,,,,,,,,,,,,,,,,,,,,,,,,,7833.145999980392,,response,,,,,,,,,,,continue,click button,,,,,,,,,159824.22000000952,159822.5649999804,151972.937,151998.00999998115,151989.419,163795.052,,,
Headphone screening,flow.Sequence,0,2021-04-23T10:21:47.211Z,,,,,,,,,,,,,,,,,,,,,,,,,,,,,,127521.14599998039,,completion,,,,,,,,,,,,,,,,,,,,,159824.62999998825,159822.5649999804,32034.947,32017.334999982268,32301.419,163795.052,,,
Instructions,html.Page,1_0,2021-04-23T10:21:53.196Z,,,,,,,,,,,,,,,,,,,,,,,,,,,,,,2012.8930000077526,,form submission,,,,,,,,,,,,,,,,,,,,,165809.48499997612,165807.94500000775,163762.229,163792.01500001363,163795.052,165826.577,,,
Holding screen,html.Screen,1_1_0_0,2021-04-23T10:22:03.205Z,,,,,,,,,,,,,,,,,,,,,,,,,,,,,,10057.224000000017,,timeout,,,,,,,,,,,,,,,,,,,,,175818.41000000713,175817.188,165793.288,165810.95499999356,165826.577,175883.801,,,
screen,html.Screen,1_1_0_1_0,2021-04-23T10:22:04.270Z,,,,,,,,,,,,,,,,53,,,,,,,,,,,,,,987.7939999750524,,response,,,,99,,,,,,,Space,keypress(Space),,,,,,,,When -- ----- -- ------ - ------- --- ----------<br>------------- ------ ------ ---- ---- ------- ----- -- ----<br>-------- ------- -- ---------- --- - --- ----- ----- ----<br>---- --- --- ----- --- ---- ---- ------- ----- ---- -------<br>--- --- -- ----- -- --- ---- -- --- ---- -- ------ ------<br>--- ----- -- ----,176883.62999999663,176871.59499997506,175817.188,175818.9199999906,175883.801,176882.88,,0,When
screen,html.Screen,1_1_0_1_1,2021-04-23T10:22:04.800Z,,,,,,,,,,,,,,,,53,,,,,,,,,,,,,,529.4400000030873,,response,,,,99,,,,,,,Space,keypress(Space),,,,,,,,---- it ----- -- ------ - ------- --- ----------<br>------------- ------ ------ ---- ---- ------- ----- -- ----<br>-------- ------- -- ---------- --- - --- ----- ----- ----<br>---- --- --- ----- --- ---- ---- ------- ----- ---- -------<br>--- --- -- ----- -- --- ---- -- --- ---- -- ------ ------<br>--- ----- -- ----,177413.78499998245,177412.3200000031,176866.324,176884.1249999823,176882.88,177450.717,,1,it
screen,html.Screen,1_1_0_1_2,2021-04-23T10:22:05.222Z,,,,,,,,,,,,,,,,53,,,,,,,,,,,,,,384.0130000023055,,response,,,,99,,,,,,,Space,keypress(Space),,,,,,,,---- -- comes -- ------ - ------- --- ----------<br>------------- ------ ------ ---- ---- ------- ----- -- ----<br>-------- ------- -- ---------- --- - --- ----- ----- ----<br>---- --- --- ----- --- ---- ---- ------- ----- ---- -------<br>--- --- -- ----- -- --- ---- -- --- ---- -- ------ ------<br>--- ----- -- ----,177836.26000001095,177834.7300000023,177399.069,177414.12500001024,177450.717,177848.656,,2,comes
screen,html.Screen,1_1_0_1_3,2021-04-23T10:22:05.546Z,,,,,,,,,,,,,,,,53,,,,,,,,,,,,,,309.9139999705076,,response,,,,99,,,,,,,Space,keypress(Space),,,,,,,,---- -- ----- to ------ - ------- --- ----------<br>------------- ------ ------ ---- ---- ------- ----- -- ----<br>-------- ------- -- ---------- --- - --- ----- ----- ----<br>---- --- --- ----- --- ---- ---- ------- ----- ---- -------<br>--- --- -- ----- -- --- ---- -- --- ---- -- ------ ------<br>--- ----- -- ----,178159.9849999766,178158.5699999705,177831.984,177836.60999999847,177848.656,178164.988,,3,to
screen,html.Screen,1_1_0_1_4,2021-04-23T10:22:05.922Z,,,,,,,,,,,,,,,,53,,,,,,,,,,,,,,369.1370000055758,,response,,,,99,,,,,,,Space,keypress(Space),,,,,,,,---- -- ----- -- having - ------- --- ----------<br>------------- ------ ------ ---- ---- ------- ----- -- ----<br>-------- ------- -- ---------- --- - --- ----- ----- ----<br>---- --- --- ----- --- ---- ---- ------- ----- ---- -------<br>--- --- -- ----- -- --- ---- -- --- ---- -- ------ ------<br>--- ----- -- ----,178535.67999997176,178534.1250000056,178148.355,178160.3200000245,178164.988,178547.955,,4,having
screen,html.Screen,1_1_0_1_5,2021-04-23T10:22:06.282Z,,,,,,,,,,,,,,,,53,,,,,,,,,,,,,,346.184999989433,,response,,,,99,,,,,,,Space,keypress(Space),,,,,,,,---- -- ----- -- ------ a ------- --- ----------<br>------------- ------ ------ ---- ---- ------- ----- -- ----<br>-------- ------- -- ---------- --- - --- ----- ----- ----<br>---- --- --- ----- --- ---- ---- ------- ----- ---- -------<br>--- --- -- ----- -- --- ---- -- --- ---- -- ------ ------<br>--- ----- -- ----,178895.47499996843,178894.13999998942,178531.334,178536.2450000248,178547.955,178930.465,,5,a
screen,html.Screen,1_1_0_1_6,2021-04-23T10:22:06.698Z,,,,,,,,,,,,,,,,53,,,,,,,,,,,,,,380.0449999811535,,response,,,,99,,,,,,,Space,keypress(Space),,,,,,,,---- -- ----- -- ------ - lasting --- ----------<br>------------- ------ ------ ---- ---- ------- ----- -- ----<br>-------- ------- -- ---------- --- - --- ----- ----- ----<br>---- --- --- ----- --- ---- ---- ------- ----- ---- -------<br>--- --- -- ----- -- --- ---- -- --- ---- -- ------ ------<br>--- ----- -- ----,179312.28000001283,179310.50999998115,178880.995,178896.00000000792,178930.465,179347.248,,6,lasting
screen,html.Screen,1_1_0_1_7,2021-04-23T10:22:07.038Z,,,,,,,,,,,,,,,,53,,,,,,,,,,,,,,302.96199999251985,,response,,,,99,,,,,,,Space,keypress(Space),,,,,,,,---- -- ----- -- ------ - ------- and ----------<br>------------- ------ ------ ---- ---- ------- ----- -- ----<br>-------- ------- -- ---------- --- - --- ----- ----- ----<br>---- --- --- ----- --- ---- ---- ------- ----- ---- -------<br>--- --- -- ----- -- --- ---- -- --- ---- -- ------ ------<br>--- ----- -- ----,179651.94000001065,179650.2099999925,179330.621,179312.79499997618,179347.248,179663.573,,7,and
screen,html.Screen,1_1_0_1_8,2021-04-23T10:22:07.453Z,,,,,,,,,,,,,,,,53,,,,,,,,,,,,,,402.09699998176075,,response,,,,99,,,,,,,Space,keypress(Space),,,,,,,,---- -- ----- -- ------ - ------- --- fulfilling<br>------------- ------ ------ ---- ---- ------- ----- -- ----<br>-------- ------- -- ---------- --- - --- ----- ----- ----<br>---- --- --- ----- --- ---- ---- ------- ----- ---- -------<br>--- --- -- ----- -- --- ---- -- --- ---- -- ------ ------<br>--- ----- -- ----,180066.96500000544,180065.66999998176,179646.939,179652.41500001866,179663.573,180079.867,,8,fulfilling
screen,html.Screen,1_1_0_1_9,2021-04-23T10:22:07.847Z,,,,,,,,,,,,,,,,53,,,,,,,,,,,,,,380.3380000103207,,response,,,,99,,,,,,,Space,keypress(Space),,,,,,,,"---- -- ----- -- ------ - ------- --- ----------<br>relationship, ------ ------ ---- ---- ------- ----- -- ----<br>-------- ------- -- ---------- --- - --- ----- ----- ----<br>---- --- --- ----- --- ---- ---- ------- ----- ---- -------<br>--- --- -- ----- -- --- ---- -- --- ---- -- ------ ------<br>--- ----- -- ----",180460.71999997366,180460.20500001032,180063.279,180067.29999999516,180079.867,180462.761,,9,"relationship,"
screen,html.Screen,1_1_0_1_10,2021-04-23T10:22:08.199Z,,,,,,,,,,,,,,,,53,,,,,,,,,,,,,,348.8240000176593,,response,,,,99,,,,,,,Space,keypress(Space),,,,,,,,---- -- ----- -- ------ - ------- --- ----------<br>------------- common ------ ---- ---- ------- ----- -- ----<br>-------- ------- -- ---------- --- - --- ----- ----- ----<br>---- --- --- ----- --- ---- ---- ------- ----- ---- -------<br>--- --- -- ----- -- --- ---- -- --- ---- -- ------ ------<br>--- ----- -- ----,180813.0699999747,180811.58500001766,180446.233,180460.9000000055,180462.761,180829.325,,10,common
screen,html.Screen,1_1_0_1_11,2021-04-23T10:22:08.522Z,,,,,,,,,,,,,,,,53,,,,,,,,,,,,,,304.6949999976787,,response,,,,99,,,,,,,Space,keypress(Space),,,,,,,,---- -- ----- -- ------ - ------- --- ----------<br>------------- ------ wisdom ---- ---- ------- ----- -- ----<br>-------- ------- -- ---------- --- - --- ----- ----- ----<br>---- --- --- ----- --- ---- ---- ------- ----- ---- -------<br>--- --- -- ----- -- --- ---- -- --- ---- -- ------ ------<br>--- ----- -- ----,181135.40999998804,181134.0199999977,180812.473,180813.44499997795,180829.325,181145.555,,11,wisdom
screen,html.Screen,1_1_0_1_12,2021-04-23T10:22:08.905Z,,,,,,,,,,,,,,,,53,,,,,,,,,,,,,,372.08499997638864,,response,,,,99,,,,,,,Space,keypress(Space),,,,,,,,---- -- ----- -- ------ - ------- --- ----------<br>------------- ------ ------ says ---- ------- ----- -- ----<br>-------- ------- -- ---------- --- - --- ----- ----- ----<br>---- --- --- ----- --- ---- ---- ------- ----- ---- -------<br>--- --- -- ----- -- --- ---- -- --- ---- -- ------ ------<br>--- ----- -- ----,181519.0650000004,181517.63999997638,181129.133,181135.89999999385,181145.555,181528.537,,12,says
screen,html.Screen,1_1_0_1_13,2021-04-23T10:22:09.242Z,,,,,,,,,,,,,,,,53,,,,,,,,,,,,,,325.80300001986325,,response,,,,99,,,,,,,Space,keypress(Space),,,,,,,,---- -- ----- -- ------ - ------- --- ----------<br>------------- ------ ------ ---- that ------- ----- -- ----<br>-------- ------- -- ---------- --- - --- ----- ----- ----<br>---- --- --- ----- --- ---- ---- ------- ----- ---- -------<br>--- --- -- ----- -- --- ---- -- --- ---- -- ------ ------<br>--- ----- -- ----,181855.70999997435,181854.34000001987,181511.876,181519.39999999013,181528.537,181861.579,,13,that
screen,html.Screen,1_1_0_1_14,2021-04-23T10:22:09.568Z,,,,,,,,,,,,,,,,53,,,,,,,,,,,,,,318.7210000072664,,response,,,,99,,,,,,,Space,keypress(Space),,,,,,,,---- -- ----- -- ------ - ------- --- ----------<br>------------- ------ ------ ---- ---- feeling ----- -- ----<br>-------- ------- -- ---------- --- - --- ----- ----- ----<br>---- --- --- ----- --- ---- ---- ------- ----- ---- -------<br>--- --- -- ----- -- --- ---- -- --- ---- -- ------ ------<br>--- ----- -- ----,182181.77999998443,182180.30000000726,181844.892,181856.07500001788,181861.579,182194.55,,14,feeling
screen,html.Screen,1_1_0_1_15,2021-04-23T10:22:09.940Z,,,,,,,,,,,,,,,,53,,,,,,,,,,,,,,358.3749999672291,,response,,,,99,,,,,,,Space,keypress(Space),,,,,,,,---- -- ----- -- ------ - ------- --- ----------<br>------------- ------ ------ ---- ---- ------- close -- ----<br>-------- ------- -- ---------- --- - --- ----- ----- ----<br>---- --- --- ----- --- ---- ---- ------- ----- ---- -------<br>--- --- -- ----- -- --- ---- -- --- ---- -- ------ ------<br>--- ----- -- ----,182553.45499998657,182552.92499996722,182177.938,182182.32999998145,182194.55,182560.846,,15,close
screen,html.Screen,1_1_0_1_16,2021-04-23T10:22:10.216Z,,,,,,,,,,,,,,,,53,,,,,,,,,,,,,,267.624000007665,,response,,,,99,,,,,,,Space,keypress(Space),,,,,,,,---- -- ----- -- ------ - ------- --- ----------<br>------------- ------ ------ ---- ---- ------- ----- to ----<br>-------- ------- -- ---------- --- - --- ----- ----- ----<br>---- --- --- ----- --- ---- ---- ------- ----- ---- -------<br>--- --- -- ----- -- --- ---- -- --- ---- -- ------ ------<br>--- ----- -- ----,182829.29000002332,182828.47000000766,182544.271,182553.665000014,182560.846,182844.001,,16,to
screen,html.Screen,1_1_0_1_17,2021-04-23T10:22:10.563Z,,,,,,,,,,,,,,,,53,,,,,,,,,,,,,,331.26900000701426,,response,,,,99,,,,,,,Space,keypress(Space),,,,,,,,---- -- ----- -- ------ - ------- --- ----------<br>------------- ------ ------ ---- ---- ------- ----- -- your<br>-------- ------- -- ---------- --- - --- ----- ----- ----<br>---- --- --- ----- --- ---- ---- ------- ----- ---- -------<br>--- --- -- ----- -- --- ---- -- --- ---- -- ------ ------<br>--- ----- -- ----,183176.60000000615,183175.270000007,182827.243,182829.56500002183,182844.001,183193.676,,17,your
screen,html.Screen,1_1_0_1_18,2021-04-23T10:22:10.868Z,,,,,,,,,,,,,,,,53,,,,,,,,,,,,,,286.7090000025637,,response,,,,99,,,,,,,Space,keypress(Space),,,,,,,,---- -- ----- -- ------ - ------- --- ----------<br>------------- ------ ------ ---- ---- ------- ----- -- ----<br>romantic ------- -- ---------- --- - --- ----- ----- ----<br>---- --- --- ----- --- ---- ---- ------- ----- ---- -------<br>--- --- -- ----- -- --- ---- -- --- ---- -- ------ ------<br>--- ----- -- ----,183482.09499998484,183480.38500000257,183176.955,183177.06000001635,183193.676,183493.308,,18,romantic
screen,html.Screen,1_1_0_1_19,2021-04-23T10:22:11.179Z,,,,,,,,,,,,,,,,53,,,,,,,,,,,,,,297.48199999911594,,response,,,,99,,,,,,,Space,keypress(Space),,,,,,,,---- -- ----- -- ------ - ------- --- ----------<br>------------- ------ ------ ---- ---- ------- ----- -- ----<br>-------- partner -- ---------- --- - --- ----- ----- ----<br>---- --- --- ----- --- ---- ---- ------- ----- ---- -------<br>--- --- -- ----- -- --- ---- -- --- ---- -- ------ ------<br>--- ----- -- ----,183792.31499996968,183790.7899999991,183476.746,183482.53999999724,183493.308,183809.863,,19,partner
screen,html.Screen,1_1_0_1_20,2021-04-23T10:22:11.459Z,,,,,,,,,,,,,,,,53,,,,,,,,,,,,,,261.31699996988755,,response,,,,99,,,,,,,Space,keypress(Space),,,,,,,,---- -- ----- -- ------ - ------- --- ----------<br>------------- ------ ------ ---- ---- ------- ----- -- ----<br>-------- ------- is ---------- --- - --- ----- ----- ----<br>---- --- --- ----- --- ---- ---- ------- ----- ---- -------<br>--- --- -- ----- -- --- ---- -- --- ---- -- ------ ------<br>--- ----- -- ----,184072.58500001626,184071.1799999699,183793.188,183796.71500000404,183809.863,184076.126,,20,is
screen,html.Screen,1_1_0_1_21,2021-04-23T10:22:11.819Z,,,,,,,,,,,,,,,,53,,,,,,,,,,,,,,355.508999986283,,response,,,,99,,,,,,,Space,keypress(Space),,,,,,,,---- -- ----- -- ------ - ------- --- ----------<br>------------- ------ ------ ---- ---- ------- ----- -- ----<br>-------- ------- -- paramount. --- - --- ----- ----- ----<br>---- --- --- ----- --- ---- ---- ------- ----- ---- -------<br>--- --- -- ----- -- --- ---- -- --- ---- -- ------ ------<br>--- ----- -- ----,184432.8300000052,184431.63499998627,184059.502,184073.13999999315,184076.126,184442.491,,21,paramount.
screen,html.Screen,1_1_0_1_22,2021-04-23T10:22:12.159Z,,,,,,,,,,,,,,,,53,,,,,,,,,,,,,,329.11899999613524,,response,,,,99,,,,,,,Space,keypress(Space),,,,,,,,---- -- ----- -- ------ - ------- --- ----------<br>------------- ------ ------ ---- ---- ------- ----- -- ----<br>-------- ------- -- ---------- But - --- ----- ----- ----<br>---- --- --- ----- --- ---- ---- ------- ----- ---- -------<br>--- --- -- ----- -- --- ---- -- --- ---- -- ------ ------<br>--- ----- -- ----,184772.49499998288,184771.60999999614,184425.82,184433.19999997038,184442.491,184775.442,,22,But
screen,html.Screen,1_1_0_1_23,2021-04-23T10:22:12.474Z,,,,,,,,,,,,,,,,53,,,,,,,,,,,,,,310.9979999845673,,response,,,,99,,,,,,,Space,keypress(Space),,,,,,,,---- -- ----- -- ------ - ------- --- ----------<br>------------- ------ ------ ---- ---- ------- ----- -- ----<br>-------- ------- -- ---------- --- a --- ----- ----- ----<br>---- --- --- ----- --- ---- ---- ------- ----- ---- -------<br>--- --- -- ----- -- --- ---- -- --- ---- -- ------ ------<br>--- ----- -- ----,185087.30000001378,185086.43999998458,184758.786,184772.799999977,184775.442,185091.783,,23,a
screen,html.Screen,1_1_0_1_24,2021-04-23T10:22:12.781Z,,,,,,,,,,,,,,,,53,,,,,,,,,,,,,,301.63699997850927,,response,,,,99,,,,,,,Space,keypress(Space),,,,,,,,---- -- ----- -- ------ - ------- --- ----------<br>------------- ------ ------ ---- ---- ------- ----- -- ----<br>-------- ------- -- ---------- --- - new ----- ----- ----<br>---- --- --- ----- --- ---- ---- ------- ----- ---- -------<br>--- --- -- ----- -- --- ---- -- --- ---- -- ------ ------<br>--- ----- -- ----,185395.2649999992,185393.4199999785,185075.276,185087.50500000315,185091.783,185408.277,,24,new
screen,html.Screen,1_1_0_1_25,2021-04-23T10:22:13.101Z,,,,,,,,,,,,,,,,53,,,,,,,,,,,,,,304.9729999715928,,response,,,,99,,,,,,,Space,keypress(Space),,,,,,,,---- -- ----- -- ------ - ------- --- ----------<br>------------- ------ ------ ---- ---- ------- ----- -- ----<br>-------- ------- -- ---------- --- - --- study ----- ----<br>---- --- --- ----- --- ---- ---- ------- ----- ---- -------<br>--- --- -- ----- -- --- ---- -- --- ---- -- ------ ------<br>--- ----- -- ----,185714.94999999413,185713.2499999716,185391.537,185395.58499999112,185408.277,185724.594,,25,study
screen,html.Screen,1_1_0_1_26,2021-04-23T10:22:13.366Z,,,,,,,,,,,,,,,,53,,,,,,,,,,,,,,254.03099998881225,,response,,,,99,,,,,,,Space,keypress(Space),,,,,,,,---- -- ----- -- ------ - ------- --- ----------<br>------------- ------ ------ ---- ---- ------- ----- -- ----<br>-------- ------- -- ---------- --- - --- ----- finds ----<br>---- --- --- ----- --- ---- ---- ------- ----- ---- -------<br>--- --- -- ----- -- --- ---- -- --- ---- -- ------ ------<br>--- ----- -- ----,185979.9800000037,185978.62499998882,185707.903,185715.50499997102,185724.594,185990.989,,26,finds
screen,html.Screen,1_1_0_1_27,2021-04-23T10:22:13.657Z,,,,,,,,,,,,,,,,53,,,,,,,,,,,,,,278.0259999689297,,response,,,,99,,,,,,,Space,keypress(Space),,,,,,,,---- -- ----- -- ------ - ------- --- ----------<br>------------- ------ ------ ---- ---- ------- ----- -- ----<br>-------- ------- -- ---------- --- - --- ----- ----- that<br>---- --- --- ----- --- ---- ---- ------- ----- ---- -------<br>--- --- -- ----- -- --- ---- -- --- ---- -- ------ ------<br>--- ----- -- ----,186270.6650000182,186269.01499996893,185974.352,185980.48500000732,185990.989,186290.743,,27,that
screen,html.Screen,1_1_0_1_28,2021-04-23T10:22:13.927Z,,,,,,,,,,,,,,,,53,,,,,,,,,,,,,,248.48200001500663,,response,,,,99,,,,,,,Space,keypress(Space),,,,,,,,---- -- ----- -- ------ - ------- --- ----------<br>------------- ------ ------ ---- ---- ------- ----- -- ----<br>-------- ------- -- ---------- --- - --- ----- ----- ----<br>it's --- --- ----- --- ---- ---- ------- ----- ---- -------<br>--- --- -- ----- -- --- ---- -- --- ---- -- ------ ------<br>--- ----- -- ----,186540.68999999436,186539.225000015,186274.094,186272.47999998508,186290.743,186557.152,,28,it's
screen,html.Screen,1_1_0_1_29,2021-04-23T10:22:14.209Z,,,,,,,,,,,,,,,,53,,,,,,,,,,,,,,263.12799998535775,,response,,,,99,,,,,,,Space,keypress(Space),,,,,,,,---- -- ----- -- ------ - ------- --- ----------<br>------------- ------ ------ ---- ---- ------- ----- -- ----<br>-------- ------- -- ---------- --- - --- ----- ----- ----<br>---- not --- ----- --- ---- ---- ------- ----- ---- -------<br>--- --- -- ----- -- --- ---- -- --- ---- -- ------ ------<br>--- ----- -- ----,186822.95499998145,186820.27999998536,186540.512,186541.29500000272,186557.152,186840.303,,29,not
screen,html.Screen,1_1_0_1_30,2021-04-23T10:22:14.458Z,,,,,,,,,,,,,,,,53,,,,,,,,,,,,,,229.64699997549178,,response,,,,99,,,,,,,Space,keypress(Space),,,,,,,,---- -- ----- -- ------ - ------- --- ----------<br>------------- ------ ------ ---- ---- ------- ----- -- ----<br>-------- ------- -- ---------- --- - --- ----- ----- ----<br>---- --- how ----- --- ---- ---- ------- ----- ---- -------<br>--- --- -- ----- -- --- ---- -- --- ---- -- ------ ------<br>--- ----- -- ----,187071.4249999728,187069.9499999755,186823.657,186823.2849999913,186840.303,187089.957,,30,how
screen,html.Screen,1_1_0_1_31,2021-04-23T10:22:14.708Z,,,,,,,,,,,,,,,,53,,,,,,,,,,,,,,230.05800000479212,,response,,,,99,,,,,,,Space,keypress(Space),,,,,,,,---- -- ----- -- ------ - ------- --- ----------<br>------------- ------ ------ ---- ---- ------- ----- -- ----<br>-------- ------- -- ---------- --- - --- ----- ----- ----<br>---- --- --- close --- ---- ---- ------- ----- ---- -------<br>--- --- -- ----- -- --- ---- -- --- ---- -- ------ ------<br>--- ----- -- ----,187321.84499996947,187320.0150000048,187073.372,187080.88500000304,187089.957,187356.438,,31,close
screen,html.Screen,1_1_0_1_32,2021-04-23T10:22:14.988Z,,,,,,,,,,,,,,,,53,,,,,,,,,,,,,,244.0570000206062,,response,,,,99,,,,,,,Space,keypress(Space),,,,,,,,---- -- ----- -- ------ - ------- --- ----------<br>------------- ------ ------ ---- ---- ------- ----- -- ----<br>-------- ------- -- ---------- --- - --- ----- ----- ----<br>---- --- --- ----- you ---- ---- ------- ----- ---- -------<br>--- --- -- ----- -- --- ---- -- --- ---- -- ------ ------<br>--- ----- -- ----,187601.94999998203,187600.4950000206,187339.749,187322.1950000152,187356.438,187606.218,,32,you
screen,html.Screen,1_1_0_1_33,2021-04-23T10:22:15.253Z,,,,,,,,,,,,,,,,53,,,,,,,,,,,,,,259.60699998622295,,response,,,,99,,,,,,,Space,keypress(Space),,,,,,,,---- -- ----- -- ------ - ------- --- ----------<br>------------- ------ ------ ---- ---- ------- ----- -- ----<br>-------- ------- -- ---------- --- - --- ----- ----- ----<br>---- --- --- ----- --- feel ---- ------- ----- ---- -------<br>--- --- -- ----- -- --- ---- -- --- ---- -- ------ ------<br>--- ----- -- ----,187867.16000002343,187865.82499998622,187589.508,187602.46500000358,187606.218,187872.576,,33,feel
screen,html.Screen,1_1_0_1_34,2021-04-23T10:22:15.524Z,,,,,,,,,,,,,,,,53,,,,,,,,,,,,,,263.91400000441354,,response,,,,99,,,,,,,Space,keypress(Space),,,,,,,,---- -- ----- -- ------ - ------- --- ----------<br>------------- ------ ------ ---- ---- ------- ----- -- ----<br>-------- ------- -- ---------- --- - --- ----- ----- ----<br>---- --- --- ----- --- ---- that ------- ----- ---- -------<br>--- --- -- ----- -- --- ---- -- --- ---- -- ------ ------<br>--- ----- -- ----,188137.76000001235,188136.4900000044,187856.007,187867.6700000069,187872.576,188172.34,,34,that
screen,html.Screen,1_1_0_1_35,2021-04-23T10:22:15.786Z,,,,,,,,,,,,,,,,53,,,,,,,,,,,,,,225.75999999124906,,response,,,,99,,,,,,,Space,keypress(Space),,,,,,,,---- -- ----- -- ------ - ------- --- ----------<br>------------- ------ ------ ---- ---- ------- ----- -- ----<br>-------- ------- -- ---------- --- - --- ----- ----- ----<br>---- --- --- ----- --- ---- ---- matters ----- ---- -------<br>--- --- -- ----- -- --- ---- -- --- ---- -- ------ ------<br>--- ----- -- ----,188399.59500002442,188398.09999999125,188155.657,188138.15999997314,188172.34,188405.412,,35,matters
screen,html.Screen,1_1_0_1_36,2021-04-23T10:22:16.070Z,,,,,,,,,,,,,,,,53,,,,,,,,,,,,,,276.60299996938556,,response,,,,99,,,,,,,Space,keypress(Space),,,,,,,,"---- -- ----- -- ------ - ------- --- ----------<br>------------- ------ ------ ---- ---- ------- ----- -- ----<br>-------- ------- -- ---------- --- - --- ----- ----- ----<br>---- --- --- ----- --- ---- ---- ------- most, ---- -------<br>--- --- -- ----- -- --- ---- -- --- ---- -- ------ ------<br>--- ----- -- ----",188683.6749999784,188682.0149999694,188388.776,188399.94500001194,188405.412,188688.471,,36,"most,"
screen,html.Screen,1_1_0_1_37,2021-04-23T10:22:16.340Z,,,,,,,,,,,,,,,,53,,,,,,,,,,,,,,263.87899997775094,,response,,,,99,,,,,,,Space,keypress(Space),,,,,,,,---- -- ----- -- ------ - ------- --- ----------<br>------------- ------ ------ ---- ---- ------- ----- -- ----<br>-------- ------- -- ---------- --- - --- ----- ----- ----<br>---- --- --- ----- --- ---- ---- ------- ----- it's -------<br>--- --- -- ----- -- --- ---- -- --- ---- -- ------ ------<br>--- ----- -- ----,188953.73499998823,188952.34999997774,188671.847,188684.06499997946,188688.471,188988.238,,37,it's
screen,html.Screen,1_1_0_1_38,2021-04-23T10:22:16.571Z,,,,,,,,,,,,,,,,53,,,,,,,,,,,,,,194.93700001284014,,response,,,,99,,,,,,,Space,keypress(Space),,,,,,,,---- -- ----- -- ------ - ------- --- ----------<br>------------- ------ ------ ---- ---- ------- ----- -- ----<br>-------- ------- -- ---------- --- - --- ----- ----- ----<br>---- --- --- ----- --- ---- ---- ------- ----- ---- whether<br>--- --- -- ----- -- --- ---- -- --- ---- -- ------ ------<br>--- ----- -- ----,189184.53999998746,189183.17500001285,188971.57,188954.07500001602,188988.238,189188.012,,38,whether
screen,html.Screen,1_1_0_1_39,2021-04-23T10:22:16.871Z,,,,,,,,,,,,,,,,53,,,,,,,,,,,,,,295.09799997194204,,response,,,,99,,,,,,,Space,keypress(Space),,,,,,,,---- -- ----- -- ------ - ------- --- ----------<br>------------- ------ ------ ---- ---- ------- ----- -- ----<br>-------- ------- -- ---------- --- - --- ----- ----- ----<br>---- --- --- ----- --- ---- ---- ------- ----- ---- -------<br>you --- -- ----- -- --- ---- -- --- ---- -- ------ ------<br>--- ----- -- ----,189484.44500000915,189483.10999997193,189171.379,189184.98499999987,189188.012,189487.811,,39,you
screen,html.Screen,1_1_0_1_40,2021-04-23T10:22:17.166Z,,,,,,,,,,,,,,,,53,,,,,,,,,,,,,,290.7490000061225,,response,,,,99,,,,,,,Space,keypress(Space),,,,,,,,---- -- ----- -- ------ - ------- --- ----------<br>------------- ------ ------ ---- ---- ------- ----- -- ----<br>-------- ------- -- ---------- --- - --- ----- ----- ----<br>---- --- --- ----- --- ---- ---- ------- ----- ---- -------<br>--- are -- ----- -- --- ---- -- --- ---- -- ------ ------<br>--- ----- -- ----,189780.06999997888,189778.5600000061,189471.124,189484.79999997653,189487.811,189787.503,,40,are
screen,html.Screen,1_1_0_1_41,2021-04-23T10:22:17.422Z,,,,,,,,,,,,,,,,53,,,,,,,,,,,,,,247.36699997403775,,response,,,,99,,,,,,,Space,keypress(Space),,,,,,,,---- -- ----- -- ------ - ------- --- ----------<br>------------- ------ ------ ---- ---- ------- ----- -- ----<br>-------- ------- -- ---------- --- - --- ----- ----- ----<br>---- --- --- ----- --- ---- ---- ------- ----- ---- -------<br>--- --- as ----- -- --- ---- -- --- ---- -- ------ ------<br>--- ----- -- ----,190036.19000001345,190034.86999997403,189770.829,189780.5899999803,189787.503,190053.892,,41,as
screen,html.Screen,1_1_0_1_42,2021-04-23T10:22:17.678Z,,,,,,,,,,,,,,,,53,,,,,,,,,,,,,,230.3679999858141,,response,,,,99,,,,,,,Space,keypress(Space),,,,,,,,---- -- ----- -- ------ - ------- --- ----------<br>------------- ------ ------ ---- ---- ------- ----- -- ----<br>-------- ------- -- ---------- --- - --- ----- ----- ----<br>---- --- --- ----- --- ---- ---- ------- ----- ---- -------<br>--- --- -- close -- --- ---- -- --- ---- -- ------ ------<br>--- ----- -- ----,190291.81500000414,190284.2599999858,190037.24,190036.67000000132,190053.892,190303.611,,42,close
screen,html.Screen,1_1_0_1_43,2021-04-23T10:22:17.929Z,,,,,,,,,,,,,,,,53,,,,,,,,,,,,,,236.17900000981172,,response,,,,99,,,,,,,Space,keypress(Space),,,,,,,,---- -- ----- -- ------ - ------- --- ----------<br>------------- ------ ------ ---- ---- ------- ----- -- ----<br>-------- ------- -- ---------- --- - --- ----- ----- ----<br>---- --- --- ----- --- ---- ---- ------- ----- ---- -------<br>--- --- -- ----- as --- ---- -- --- ---- -- ------ ------<br>--- ----- -- ----,190542.29000001214,190539.79000000982,190287.008,190292.30500000995,190303.611,190553.403,,43,as
screen,html.Screen,1_1_0_1_44,2021-04-23T10:22:18.223Z,,,,,,,,,,,,,,,,53,,,,,,,,,,,,,,281.7519999788492,,response,,,,99,,,,,,,Space,keypress(Space),,,,,,,,---- -- ----- -- ------ - ------- --- ----------<br>------------- ------ ------ ---- ---- ------- ----- -- ----<br>-------- ------- -- ---------- --- - --- ----- ----- ----<br>---- --- --- ----- --- ---- ---- ------- ----- ---- -------<br>--- --- -- ----- -- you ---- -- --- ---- -- ------ ------<br>--- ----- -- ----,190836.5900000208,190835.15499997884,190536.794,190542.77499997988,190553.403,190853.173,,44,you
screen,html.Screen,1_1_0_1_45,2021-04-23T10:22:18.480Z,,,,,,,,,,,,,,,,53,,,,,,,,,,,,,,238.6820000060252,,response,,,,99,,,,,,,Space,keypress(Space),,,,,,,,---- -- ----- -- ------ - ------- --- ----------<br>------------- ------ ------ ---- ---- ------- ----- -- ----<br>-------- ------- -- ---------- --- - --- ----- ----- ----<br>---- --- --- ----- --- ---- ---- ------- ----- ---- -------<br>--- --- -- ----- -- --- want -- --- ---- -- ------ ------<br>--- ----- -- ----,191093.55499997037,191091.85500000603,190836.59,190836.96500002407,190853.173,191102.914,,45,want
screen,html.Screen,1_1_0_1_46,2021-04-23T10:22:18.775Z,,,,,,,,,,,,,,,,53,,,,,,,,,,,,,,284.43599997542333,,response,,,,99,,,,,,,Space,keypress(Space),,,,,,,,---- -- ----- -- ------ - ------- --- ----------<br>------------- ------ ------ ---- ---- ------- ----- -- ----<br>-------- ------- -- ---------- --- - --- ----- ----- ----<br>---- --- --- ----- --- ---- ---- ------- ----- ---- -------<br>--- --- -- ----- -- --- ---- to --- ---- -- ------ ------<br>--- ----- -- ----,191388.68500001263,191387.3499999754,191086.256,191093.9050000161,191102.914,191402.627,,46,to
screen,html.Screen,1_1_0_1_47,2021-04-23T10:22:19.026Z,,,,,,,,,,,,,,,,53,,,,,,,,,,,,,,235.55799998887233,,response,,,,99,,,,,,,Space,keypress(Space),,,,,,,,"---- -- ----- -- ------ - ------- --- ----------<br>------------- ------ ------ ---- ---- ------- ----- -- ----<br>-------- ------- -- ---------- --- - --- ----- ----- ----<br>---- --- --- ----- --- ---- ---- ------- ----- ---- -------<br>--- --- -- ----- -- --- ---- -- be, ---- -- ------ ------<br>--- ----- -- ----",191639.65999998618,191638.18499998888,191385.969,191389.0600000159,191402.627,191652.399,,47,"be,"
screen,html.Screen,1_1_0_1_48,2021-04-23T10:22:19.274Z,,,,,,,,,,,,,,,,53,,,,,,,,,,,,,,234.0259999751288,,response,,,,99,,,,,,,Space,keypress(Space),,,,,,,,---- -- ----- -- ------ - ------- --- ----------<br>------------- ------ ------ ---- ---- ------- ----- -- ----<br>-------- ------- -- ---------- --- - --- ----- ----- ----<br>---- --- --- ----- --- ---- ---- ------- ----- ---- -------<br>--- --- -- ----- -- --- ---- -- --- even -- ------ ------<br>--- ----- -- ----,191887.76000001235,191886.42499997513,191635.754,191640.03000000957,191652.399,191902.236,,48,even
screen,html.Screen,1_1_0_1_49,2021-04-23T10:22:19.537Z,,,,,,,,,,,,,,,,53,,,,,,,,,,,,,,244.40899997160886,,response,,,,99,,,,,,,Space,keypress(Space),,,,,,,,---- -- ----- -- ------ - ------- --- ----------<br>------------- ------ ------ ---- ---- ------- ----- -- ----<br>-------- ------- -- ---------- --- - --- ----- ----- ----<br>---- --- --- ----- --- ---- ---- ------- ----- ---- -------<br>--- --- -- ----- -- --- ---- -- --- ---- if ------ ------<br>--- ----- -- ----,192150.5200000247,192146.6449999716,191885.489,191888.18499998888,191902.236,192185.239,,49,if
screen,html.Screen,1_1_0_1_50,2021-04-23T10:22:19.790Z,,,,,,,,,,,,,,,,53,,,,,,,,,,,,,,217.23600000987062,,response,,,,99,,,,,,,Space,keypress(Space),,,,,,,,---- -- ----- -- ------ - ------- --- ----------<br>------------- ------ ------ ---- ---- ------- ----- -- ----<br>-------- ------- -- ---------- --- - --- ----- ----- ----<br>---- --- --- ----- --- ---- ---- ------- ----- ---- -------<br>--- --- -- ----- -- --- ---- -- --- ---- -- that's ------<br>--- ----- -- ----,192404.06500000972,192402.47500000987,192175.478,192150.87000001222,192185.239,192418.401,,50,that's
screen,html.Screen,1_1_0_1_51,2021-04-23T10:22:20.060Z,,,,,,,,,,,,,,,,53,,,,,,,,,,,,,,254.1340000196942,,response,,,,99,,,,,,,Space,keypress(Space),,,,,,,,---- -- ----- -- ------ - ------- --- ----------<br>------------- ------ ------ ---- ---- ------- ----- -- ----<br>-------- ------- -- ---------- --- - --- ----- ----- ----<br>---- --- --- ----- --- ---- ---- ------- ----- ---- -------<br>--- --- -- ----- -- --- ---- -- --- ---- -- ------ really<br>--- ----- -- ----,192673.89999999432,192672.5350000197,192401.67,192404.56499997526,192418.401,192684.737,,51,really
screen,html.Screen,1_1_0_1_52,2021-04-23T10:22:20.335Z,,,,,,,,,,,,,,,,53,,,,,,,,,,,,,,262.9129999873403,,response,,,,99,,,,,,,Space,keypress(Space),,,,,,,,---- -- ----- -- ------ - ------- --- ----------<br>------------- ------ ------ ---- ---- ------- ----- -- ----<br>-------- ------- -- ---------- --- - --- ----- ----- ----<br>---- --- --- ----- --- ---- ---- ------- ----- ---- -------<br>--- --- -- ----- -- --- ---- -- --- ---- -- ------ ------<br>not ----- -- ----,192948.9300000132,192947.64999998733,192668.072,192674.23499998404,192684.737,192981.789,,52,not
screen,html.Screen,1_1_0_1_53,2021-04-23T10:22:20.596Z,,,,,,,,,,,,,,,,53,,,,,,,,,,,,,,226.14600001310464,,response,,,,99,,,,,,,Space,keypress(Space),,,,,,,,---- -- ----- -- ------ - ------- --- ----------<br>------------- ------ ------ ---- ---- ------- ----- -- ----<br>-------- ------- -- ---------- --- - --- ----- ----- ----<br>---- --- --- ----- --- ---- ---- ------- ----- ---- -------<br>--- --- -- ----- -- --- ---- -- --- ---- -- ------ ------<br>--- close -- ----,193209.81500000926,193207.9350000131,192934.585,192949.38499998534,192981.789,193234.284,,53,close
screen,html.Screen,1_1_0_1_54,2021-04-23T10:22:20.867Z,,,,,,,,,,,,,,,,53,,,,,,,,,,,,,,244.58100001185085,,response,,,,99,,,,,,,Space,keypress(Space),,,,,,,,---- -- ----- -- ------ - ------- --- ----------<br>------------- ------ ------ ---- ---- ------- ----- -- ----<br>-------- ------- -- ---------- --- - --- ----- ----- ----<br>---- --- --- ----- --- ---- ---- ------- ----- ---- -------<br>--- --- -- ----- -- --- ---- -- --- ---- -- ------ ------<br>--- ----- at ----,193480.35999998683,193478.86500001187,193200.945,193210.2699999814,193234.284,193483.994,,54,at
screen,html.Screen,1_1_0_1_55,2021-04-23T10:22:21.188Z,,,,,,,,,,,,,,,,53,,,,,,,,,,,,,,316.1359999887063,,response,,,,99,,,,,,,Space,keypress(Space),,,,,,,,---- -- ----- -- ------ - ------- --- ----------<br>------------- ------ ------ ---- ---- ------- ----- -- ----<br>-------- ------- -- ---------- --- - --- ----- ----- ----<br>---- --- --- ----- --- ---- ---- ------- ----- ---- -------<br>--- --- -- ----- -- --- ---- -- --- ---- -- ------ ------<br>--- ----- -- all.,193801.48999998346,193800.1299999887,193467.384,193480.8549999725,193483.994,193817.015,,55,all.
Item 99,flow.Loop,1_1_0_1,2021-04-23T10:22:21.189Z,,,,,,,,,,,,,,,,,,,,,,,,,,,,,,17916.328999988706,,completion,,,,,E,,,,,,,,,,,silence,,,,,193802.45000001742,193800.1299999887,175817.188,175818.7850000104,175883.801,193817.015,,,
Question 1,html.Screen,1_1_0_2,2021-04-23T10:22:26.947Z,,,,,,,,,,,,,,,,,,,,,,,,,,,false,FALSE,,5741.279999995255,,response,,,,99,E,,,,,,TRUE,click #choice-1,,,,silence,,,,,199560.76999998186,199558.29499999527,193800.446,193802.82500002068,193817.015,199561.647,,,
Question 2,html.Screen,1_1_0_3,2021-04-23T10:22:33.843Z,,,,,,,,,,,,,,,,,,,,,,,,,,,true,TRUE,,6894.798000017996,,response,,,,99,E,,,,,,TRUE,click #choice-1,,,,silence,,,,,206457.81499997247,206456.445000018,199545.108,199561.0999999917,199561.647,206472.247,,,
Item 99,flow.Sequence,1_1_0,2021-04-23T10:22:33.844Z,,,,,,,,,,,,,,,,,,,,,,,,,,,,,,40629.868000018,,completion,,,,,,,,,,,,,,,,,,,,,206458.31499999622,206456.445000018,165793.288,165810.43499999214,165826.577,206472.247,,,
Holding screen,html.Screen,1_1_1_0,2021-04-23T10:22:43.849Z,,,,,,,,,,,,,,,,,,,,,,,,,,,,,,10006.899000000005,,timeout,,,,,,,,,,,,,,,,,,,,,216463.219999976,216462.453,206455.174,206458.64999998594,206472.247,216479.146,,,
screen,html.Screen,1_1_1_1_0,2021-04-23T10:22:44.557Z,,,,,,,,,,,,,,,,54,,,,,,,,,,,,,,691.6039999902132,,response,,,,100,,,,,,,Space,keypress(Space),,,,,,,,At --- ---- --- ------ ----- ------- ---- -- --- ------- --<br>------- ---------- ------ -- ----- -- ----- -- ---- ------<br>--- ----- --- --- ------ -------- ----- --- ------ ----- --<br>----- ----- ---------- --- --- ------ ------ ---- -- ------<br>------- --- ------ ----- --- ---- ------- -- ---- --- --<br>------- ------,217172.03499999596,217170.74999999022,216462.453,216463.5249999701,216479.146,217178.491,,0,At
screen,html.Screen,1_1_1_1_1,2021-04-23T10:22:44.918Z,,,,,,,,,,,,,,,,54,,,,,,,,,,,,,,352.51899997695,,response,,,,100,,,,,,,Space,keypress(Space),,,,,,,,-- the ---- --- ------ ----- ------- ---- -- --- ------- --<br>------- ---------- ------ -- ----- -- ----- -- ---- ------<br>--- ----- --- --- ------ -------- ----- --- ------ ----- --<br>----- ----- ---------- --- --- ------ ------ ---- -- ------<br>------- --- ------ ----- --- ---- ------- -- ---- --- --<br>------- ------,217532.43000002112,217531.00999997696,217161.823,217172.39500000142,217178.491,217544.819,,1,the
screen,html.Screen,1_1_1_1_2,2021-04-23T10:22:45.168Z,,,,,,,,,,,,,,,,54,,,,,,,,,,,,,,236.80600000327104,,response,,,,100,,,,,,,Space,keypress(Space),,,,,,,,-- --- time --- ------ ----- ------- ---- -- --- ------- --<br>------- ---------- ------ -- ----- -- ----- -- ---- ------<br>--- ----- --- --- ------ -------- ----- --- ------ ----- --<br>----- ----- ---------- --- --- ------ ------ ---- -- ------<br>------- --- ------ ----- --- ---- ------- -- ---- --- --<br>------- ------,217782.88999997312,217781.62500000326,217528.179,217532.93500002474,217544.819,217794.661,,2,time
screen,html.Screen,1_1_1_1_3,2021-04-23T10:22:45.464Z,,,,,,,,,,,,,,,,54,,,,,,,,,,,,,,282.12900002099923,,response,,,,100,,,,,,,Space,keypress(Space),,,,,,,,-- --- ---- the ------ ----- ------- ---- -- --- ------- --<br>------- ---------- ------ -- ----- -- ----- -- ---- ------<br>--- ----- --- --- ------ -------- ----- --- ------ ----- --<br>----- ----- ---------- --- --- ------ ------ ---- -- ------<br>------- --- ------ ----- --- ---- ------- -- ---- --- --<br>------- ------,218078.19500000915,218076.790000021,217777.941,217783.21999998298,217794.661,218094.325,,3,the
screen,html.Screen,1_1_1_1_4,2021-04-23T10:22:45.710Z,,,,,,,,,,,,,,,,54,,,,,,,,,,,,,,228.14500001369743,,response,,,,100,,,,,,,Space,keypress(Space),,,,,,,,-- --- ---- --- French ----- ------- ---- -- --- ------- --<br>------- ---------- ------ -- ----- -- ----- -- ---- ------<br>--- ----- --- --- ------ -------- ----- --- ------ ----- --<br>----- ----- ---------- --- --- ------ ------ ---- -- ------<br>------- --- ------ ----- --- ---- ------- -- ---- --- --<br>------- ------,218324.52000002377,218322.4700000137,218077.715,218078.68999999482,218094.325,218327.419,,4,French
screen,html.Screen,1_1_1_1_5,2021-04-23T10:22:45.979Z,,,,,,,,,,,,,,,,54,,,,,,,,,,,,,,265.2610000015702,,response,,,,100,,,,,,,Space,keypress(Space),,,,,,,,-- --- ---- --- ------ crown ------- ---- -- --- ------- --<br>------- ---------- ------ -- ----- -- ----- -- ---- ------<br>--- ----- --- --- ------ -------- ----- --- ------ ----- --<br>----- ----- ---------- --- --- ------ ------ ---- -- ------<br>------- --- ------ ----- --- ---- ------- -- ---- --- --<br>------- ------,218594.11499998532,218592.68000000156,218310.909,218324.90499998676,218327.419,218610.509,,5,crown
screen,html.Screen,1_1_1_1_6,2021-04-23T10:22:46.224Z,,,,,,,,,,,,,,,,54,,,,,,,,,,,,,,227.2359999679902,,response,,,,100,,,,,,,Space,keypress(Space),,,,,,,,-- --- ---- --- ------ ----- secured ---- -- --- ------- --<br>------- ---------- ------ -- ----- -- ----- -- ---- ------<br>--- ----- --- --- ------ -------- ----- --- ------ ----- --<br>----- ----- ---------- --- --- ------ ------ ---- -- ------<br>------- --- ------ ----- --- ---- ------- -- ---- --- --<br>------- ------,218839.0800000052,218837.74499996798,218593.857,218594.60000001127,218610.509,218843.629,,6,secured
screen,html.Screen,1_1_1_1_7,2021-04-23T10:22:46.496Z,,,,,,,,,,,,,,,,54,,,,,,,,,,,,,,265.60599998172256,,response,,,,100,,,,,,,Space,keypress(Space),,,,,,,,-- --- ---- --- ------ ----- ------- much -- --- ------- --<br>------- ---------- ------ -- ----- -- ----- -- ---- ------<br>--- ----- --- --- ------ -------- ----- --- ------ ----- --<br>----- ----- ---------- --- --- ------ ------ ---- -- ------<br>------- --- ------ ----- --- ---- ------- -- ---- --- --<br>------- ------,219110.86000001524,219109.2349999817,218826.965,218839.38999997918,218843.629,219126.704,,7,much
screen,html.Screen,1_1_1_1_8,2021-04-23T10:22:46.765Z,,,,,,,,,,,,,,,,54,,,,,,,,,,,,,,251.54600000884966,,response,,,,100,,,,,,,Space,keypress(Space),,,,,,,,-- --- ---- --- ------ ----- ------- ---- of --- ------- --<br>------- ---------- ------ -- ----- -- ----- -- ---- ------<br>--- ----- --- --- ------ -------- ----- --- ------ ----- --<br>----- ----- ---------- --- --- ------ ------ ---- -- ------<br>------- --- ------ ----- --- ---- ------- -- ---- --- --<br>------- ------,219379.55499999225,219378.25000000885,219110.105,219111.18000000715,219126.704,219393.229,,8,of
screen,html.Screen,1_1_1_1_9,2021-04-23T10:22:47.051Z,,,,,,,,,,,,,,,,54,,,,,,,,,,,,,,271.04599998827325,,response,,,,100,,,,,,,Space,keypress(Space),,,,,,,,-- --- ---- --- ------ ----- ------- ---- -- its ------- --<br>------- ---------- ------ -- ----- -- ----- -- ---- ------<br>--- ----- --- --- ------ -------- ----- --- ------ ----- --<br>----- ----- ---------- --- --- ------ ------ ---- -- ------<br>------- --- ------ ----- --- ---- ------- -- ---- --- --<br>------- ------,219665.77000002144,219664.27499998827,219376.455,219379.90499997977,219393.229,219676.199,,9,its
screen,html.Screen,1_1_1_1_10,2021-04-23T10:22:47.336Z,,,,,,,,,,,,,,,,54,,,,,,,,,,,,,,273.49600001753424,,response,,,,100,,,,,,,Space,keypress(Space),,,,,,,,-- --- ---- --- ------ ----- ------- ---- -- --- revenue --<br>------- ---------- ------ -- ----- -- ----- -- ---- ------<br>--- ----- --- --- ------ -------- ----- --- ------ ----- --<br>----- ----- ---------- --- --- ------ ------ ---- -- ------<br>------- --- ------ ----- --- ---- ------- -- ---- --- --<br>------- ------,219950.9749999852,219949.69500001753,219659.534,219666.28000000492,219676.199,219959.223,,10,revenue
screen,html.Screen,1_1_1_1_11,2021-04-23T10:22:47.616Z,,,,,,,,,,,,,,,,54,,,,,,,,,,,,,,270.33700000704266,,response,,,,100,,,,,,,Space,keypress(Space),,,,,,,,-- --- ---- --- ------ ----- ------- ---- -- --- ------- by<br>------- ---------- ------ -- ----- -- ----- -- ---- ------<br>--- ----- --- --- ------ -------- ----- --- ------ ----- --<br>----- ----- ---------- --- --- ------ ------ ---- -- ------<br>------- --- ------ ----- --- ---- ------- -- ---- --- --<br>------- ------,220230.98499997286,220229.56000000704,219942.627,219951.2799999793,219959.223,220242.299,,11,by
screen,html.Screen,1_1_1_1_12,2021-04-23T10:22:47.952Z,,,,,,,,,,,,,,,,54,,,,,,,,,,,,,,323.3859999795677,,response,,,,100,,,,,,,Space,keypress(Space),,,,,,,,-- --- ---- --- ------ ----- ------- ---- -- --- ------- --<br>issuing ---------- ------ -- ----- -- ----- -- ---- ------<br>--- ----- --- --- ------ -------- ----- --- ------ ----- --<br>----- ----- ---------- --- --- ------ ------ ---- -- ------<br>------- --- ------ ----- --- ---- ------- -- ---- --- --<br>------- ------,220567.08999996772,220565.68499997957,220225.668,220231.41999996733,220242.299,220575.335,,12,issuing
screen,html.Screen,1_1_1_1_13,2021-04-23T10:22:48.187Z,,,,,,,,,,,,,,,,54,,,,,,,,,,,,,,225.03500001176144,,response,,,,100,,,,,,,Space,keypress(Space),,,,,,,,-- --- ---- --- ------ ----- ------- ---- -- --- ------- --<br>------- government ------ -- ----- -- ----- -- ---- ------<br>--- ----- --- --- ------ -------- ----- --- ------ ----- --<br>----- ----- ---------- --- --- ------ ------ ---- -- ------<br>------- --- ------ ----- --- ---- ------- -- ---- --- --<br>------- ------,220802.04999999842,220800.37000001175,220558.695,220567.44000001345,220575.335,220808.43,,13,government
screen,html.Screen,1_1_1_1_14,2021-04-23T10:22:48.408Z,,,,,,,,,,,,,,,,54,,,,,,,,,,,,,,212.8450000064331,,response,,,,100,,,,,,,Space,keypress(Space),,,,,,,,-- --- ---- --- ------ ----- ------- ---- -- --- ------- --<br>------- ---------- bonds. -- ----- -- ----- -- ---- ------<br>--- ----- --- --- ------ -------- ----- --- ------ ----- --<br>----- ----- ---------- --- --- ------ ------ ---- -- ------<br>------- --- ------ ----- --- ---- ------- -- ---- --- --<br>------- ------,221022.5399999763,221021.27500000643,220791.814,220802.45000001742,220808.43,221024.937,,14,bonds.
screen,html.Screen,1_1_1_1_15,2021-04-23T10:22:48.749Z,,,,,,,,,,,,,,,,54,,,,,,,,,,,,,,337.01799997119815,,response,,,,100,,,,,,,Space,keypress(Space),,,,,,,,-- --- ---- --- ------ ----- ------- ---- -- --- ------- --<br>------- ---------- ------ In ----- -- ----- -- ---- ------<br>--- ----- --- --- ------ -------- ----- --- ------ ----- --<br>----- ----- ---------- --- --- ------ ------ ---- -- ------<br>------- --- ------ ----- --- ---- ------- -- ---- --- --<br>------- ------,221363.59500000253,221361.9549999712,221008.337,221022.92499999749,221024.937,221374.593,,15,In
screen,html.Screen,1_1_1_1_16,2021-04-23T10:22:49.015Z,,,,,,,,,,,,,,,,54,,,,,,,,,,,,,,253.8669999780832,,response,,,,100,,,,,,,Space,keypress(Space),,,,,,,,"-- --- ---- --- ------ ----- ------- ---- -- --- ------- --<br>------- ---------- ------ -- 1727, -- ----- -- ---- ------<br>--- ----- --- --- ------ -------- ----- --- ------ ----- --<br>----- ----- ---------- --- --- ------ ------ ---- -- ------<br>------- --- ------ ----- --- ---- ------- -- ---- --- --<br>------- ------",221629.95500001125,221628.45999997808,221357.937,221364.06499997247,221374.593,221640.997,,16,"1727,"
screen,html.Screen,1_1_1_1_17,2021-04-23T10:22:49.319Z,,,,,,,,,,,,,,,,54,,,,,,,,,,,,,,290.7679999866232,,response,,,,100,,,,,,,Space,keypress(Space),,,,,,,,-- --- ---- --- ------ ----- ------- ---- -- --- ------- --<br>------- ---------- ------ -- ----- in ----- -- ---- ------<br>--- ----- --- --- ------ -------- ----- --- ------ ----- --<br>----- ----- ---------- --- --- ------ ------ ---- -- ------<br>------- --- ------ ----- --- ---- ------- -- ---- --- --<br>------- ------,221933.22000000626,221931.76499998663,221624.351,221630.39499998558,221640.997,221940.78,,17,in
screen,html.Screen,1_1_1_1_18,2021-04-23T10:22:49.607Z,,,,,,,,,,,,,,,,54,,,,,,,,,,,,,,276.65499999866006,,response,,,,100,,,,,,,Space,keypress(Space),,,,,,,,-- --- ---- --- ------ ----- ------- ---- -- --- ------- --<br>------- ---------- ------ -- ----- -- order -- ---- ------<br>--- ----- --- --- ------ -------- ----- --- ------ ----- --<br>----- ----- ---------- --- --- ------ ------ ---- -- ------<br>------- --- ------ ----- --- ---- ------- -- ---- --- --<br>------- ------,222221.30500001367,222217.43499999866,221924.17,221933.55999997584,221940.78,222252.731,,18,order
screen,html.Screen,1_1_1_1_19,2021-04-23T10:22:49.864Z,,,,,,,,,,,,,,,,54,,,,,,,,,,,,,,225.02399999988847,,response,,,,100,,,,,,,Space,keypress(Space),,,,,,,,-- --- ---- --- ------ ----- ------- ---- -- --- ------- --<br>------- ---------- ------ -- ----- -- ----- to ---- ------<br>--- ----- --- --- ------ -------- ----- --- ------ ----- --<br>----- ----- ---------- --- --- ------ ------ ---- -- ------<br>------- --- ------ ----- --- ---- ------- -- ---- --- --<br>------- ------,222479.1199999745,222477.7549999999,222207.194,222221.8700000085,222252.731,222490.179,,19,to
screen,html.Screen,1_1_1_1_20,2021-04-23T10:22:50.156Z,,,,,,,,,,,,,,,,54,,,,,,,,,,,,,,279.1160000055097,,response,,,,100,,,,,,,Space,keypress(Space),,,,,,,,-- --- ---- --- ------ ----- ------- ---- -- --- ------- --<br>------- ---------- ------ -- ----- -- ----- -- save ------<br>--- ----- --- --- ------ -------- ----- --- ------ ----- --<br>----- ----- ---------- --- --- ------ ------ ---- -- ------<br>------- --- ------ ----- --- ---- ------- -- ---- --- --<br>------- ------,222770.55000001565,222769.2950000055,222473.56,222479.5649999869,222490.179,222773.277,,20,save
screen,html.Screen,1_1_1_1_21,2021-04-23T10:22:50.425Z,,,,,,,,,,,,,,,,54,,,,,,,,,,,,,,265.1179999813903,,response,,,,100,,,,,,,Space,keypress(Space),,,,,,,,"-- --- ---- --- ------ ----- ------- ---- -- --- ------- --<br>------- ---------- ------ -- ----- -- ----- -- ---- money,<br>--- ----- --- --- ------ -------- ----- --- ------ ----- --<br>----- ----- ---------- --- --- ------ ------ ---- -- ------<br>------- --- ------ ----- --- ---- ------- -- ---- --- --<br>------- ------",223039.66499998933,223038.3949999814,222756.652,222771.01999998558,222773.277,223056.347,,21,"money,"
screen,html.Screen,1_1_1_1_22,2021-04-23T10:22:50.786Z,,,,,,,,,,,,,,,,54,,,,,,,,,,,,,,343.07299997244263,,response,,,,100,,,,,,,Space,keypress(Space),,,,,,,,-- --- ---- --- ------ ----- ------- ---- -- --- ------- --<br>------- ---------- ------ -- ----- -- ----- -- ---- ------<br>the ----- --- --- ------ -------- ----- --- ------ ----- --<br>----- ----- ---------- --- --- ------ ------ ---- -- ------<br>------- --- ------ ----- --- ---- ------- -- ---- --- --<br>------- ------,223400.7349999738,223399.41999997245,223039.708,223040.1449999772,223056.347,223406.013,,22,the
screen,html.Screen,1_1_1_1_23,2021-04-23T10:22:51.076Z,,,,,,,,,,,,,,,,54,,,,,,,,,,,,,,283.4319999672298,,response,,,,100,,,,,,,Space,keypress(Space),,,,,,,,-- --- ---- --- ------ ----- ------- ---- -- --- ------- --<br>------- ---------- ------ -- ----- -- ----- -- ---- ------<br>--- state --- --- ------ -------- ----- --- ------ ----- --<br>----- ----- ---------- --- --- ------ ------ ---- -- ------<br>------- --- ------ ----- --- ---- ------- -- ---- --- --<br>------- ------,223690.82999997772,223689.44499996724,223389.371,223401.21500001987,223406.013,223705.746,,23,state
screen,html.Screen,1_1_1_1_24,2021-04-23T10:22:51.347Z,,,,,,,,,,,,,,,,54,,,,,,,,,,,,,,255.0739999783982,,response,,,,100,,,,,,,Space,keypress(Space),,,,,,,,-- --- ---- --- ------ ----- ------- ---- -- --- ------- --<br>------- ---------- ------ -- ----- -- ----- -- ---- ------<br>--- ----- cut --- ------ -------- ----- --- ------ ----- --<br>----- ----- ---------- --- --- ------ ------ ---- -- ------<br>------- --- ------ ----- --- ---- ------- -- ---- --- --<br>------- ------,223962.1299999999,223960.8199999784,223689.076,223691.21000001905,223705.746,223988.848,,24,cut
screen,html.Screen,1_1_1_1_25,2021-04-23T10:22:51.632Z,,,,,,,,,,,,,,,,54,,,,,,,,,,,,,,256.2419999821577,,response,,,,100,,,,,,,Space,keypress(Space),,,,,,,,-- --- ---- --- ------ ----- ------- ---- -- --- ------- --<br>------- ---------- ------ -- ----- -- ----- -- ---- ------<br>--- ----- --- the ------ -------- ----- --- ------ ----- --<br>----- ----- ---------- --- --- ------ ------ ---- -- ------<br>------- --- ------ ----- --- ---- ------- -- ---- --- --<br>------- ------,224246.5099999681,224245.08999998216,223955.537,223962.53499999875,223988.848,224255.211,,25,the
screen,html.Screen,1_1_1_1_26,2021-04-23T10:22:51.867Z,,,,,,,,,,,,,,,,54,,,,,,,,,,,,,,225.53899998788256,,response,,,,100,,,,,,,Space,keypress(Space),,,,,,,,-- --- ---- --- ------ ----- ------- ---- -- --- ------- --<br>------- ---------- ------ -- ----- -- ----- -- ---- ------<br>--- ----- --- --- bonds' -------- ----- --- ------ ----- --<br>----- ----- ---------- --- --- ------ ------ ---- -- ------<br>------- --- ------ ----- --- ---- ------- -- ---- --- --<br>------- ------,224482.01999999583,224480.7499999879,224238.559,224246.84500001604,224255.211,224488.32,,26,bonds'
screen,html.Screen,1_1_1_1_27,2021-04-23T10:22:52.118Z,,,,,,,,,,,,,,,,54,,,,,,,,,,,,,,242.61999997944804,,response,,,,100,,,,,,,Space,keypress(Space),,,,,,,,-- --- ---- --- ------ ----- ------- ---- -- --- ------- --<br>------- ---------- ------ -- ----- -- ----- -- ---- ------<br>--- ----- --- --- ------ interest ----- --- ------ ----- --<br>----- ----- ---------- --- --- ------ ------ ---- -- ------<br>------- --- ------ ----- --- ---- ------- -- ---- --- --<br>------- ------,224732.23500000313,224730.93999997946,224471.722,224482.52499999944,224488.32,224738.086,,27,interest
screen,html.Screen,1_1_1_1_28,2021-04-23T10:22:52.398Z,,,,,,,,,,,,,,,,54,,,,,,,,,,,,,,273.12900000589434,,response,,,,100,,,,,,,Space,keypress(Space),,,,,,,,-- --- ---- --- ------ ----- ------- ---- -- --- ------- --<br>------- ---------- ------ -- ----- -- ----- -- ---- ------<br>--- ----- --- --- ------ -------- rate. --- ------ ----- --<br>----- ----- ---------- --- --- ------ ------ ---- -- ------<br>------- --- ------ ----- --- ---- ------- -- ---- --- --<br>------- ------,225012.80500000576,225011.2150000059,224721.484,224732.5749999727,224738.086,225021.207,,28,rate.
screen,html.Screen,1_1_1_1_29,2021-04-23T10:22:52.669Z,,,,,,,,,,,,,,,,54,,,,,,,,,,,,,,260.7129999794415,,response,,,,100,,,,,,,Space,keypress(Space),,,,,,,,-- --- ---- --- ------ ----- ------- ---- -- --- ------- --<br>------- ---------- ------ -- ----- -- ----- -- ---- ------<br>--- ----- --- --- ------ -------- ----- The ------ ----- --<br>----- ----- ---------- --- --- ------ ------ ---- -- ------<br>------- --- ------ ----- --- ---- ------- -- ---- --- --<br>------- ------,225283.5549999727,225281.91999997944,225004.53,225013.12499999767,225021.207,225287.578,,29,The
screen,html.Screen,1_1_1_1_30,2021-04-23T10:22:52.925Z,,,,,,,,,,,,,,,,54,,,,,,,,,,,,,,250.80700002165395,,response,,,,100,,,,,,,Space,keypress(Space),,,,,,,,-- --- ---- --- ------ ----- ------- ---- -- --- ------- --<br>------- ---------- ------ -- ----- -- ----- -- ---- ------<br>--- ----- --- --- ------ -------- ----- --- market ----- --<br>----- ----- ---------- --- --- ------ ------ ---- -- ------<br>------- --- ------ ----- --- ---- ------- -- ---- --- --<br>------- ------,225539.86499999883,225538.38500002166,225270.942,225283.93500001403,225287.578,225553.995,,30,market
screen,html.Screen,1_1_1_1_31,2021-04-23T10:22:53.184Z,,,,,,,,,,,,,,,,54,,,,,,,,,,,,,,243.29999999667052,,response,,,,100,,,,,,,Space,keypress(Space),,,,,,,,-- --- ---- --- ------ ----- ------- ---- -- --- ------- --<br>------- ---------- ------ -- ----- -- ----- -- ---- ------<br>--- ----- --- --- ------ -------- ----- --- ------ value --<br>----- ----- ---------- --- --- ------ ------ ---- -- ------<br>------- --- ------ ----- --- ---- ------- -- ---- --- --<br>------- ------,225798.80499996943,225797.29499999667,225537.362,225540.1899999706,225553.995,225803.749,,31,value
screen,html.Screen,1_1_1_1_32,2021-04-23T10:22:53.426Z,,,,,,,,,,,,,,,,54,,,,,,,,,,,,,,235.79099996882724,,response,,,,100,,,,,,,Space,keypress(Space),,,,,,,,-- --- ---- --- ------ ----- ------- ---- -- --- ------- --<br>------- ---------- ------ -- ----- -- ----- -- ---- ------<br>--- ----- --- --- ------ -------- ----- --- ------ ----- of<br>----- ----- ---------- --- --- ------ ------ ---- -- ------<br>------- --- ------ ----- --- ---- ------- -- ---- --- --<br>------- ------,226040.885000024,226039.53999996884,225787.128,225799.2700000177,225803.749,226053.552,,32,of
screen,html.Screen,1_1_1_1_33,2021-04-23T10:22:53.694Z,,,,,,,,,,,,,,,,54,,,,,,,,,,,,,,254.12299998910748,,response,,,,100,,,,,,,Space,keypress(Space),,,,,,,,-- --- ---- --- ------ ----- ------- ---- -- --- ------- --<br>------- ---------- ------ -- ----- -- ----- -- ---- ------<br>--- ----- --- --- ------ -------- ----- --- ------ ----- --<br>these ----- ---------- --- --- ------ ------ ---- -- ------<br>------- --- ------ ----- --- ---- ------- -- ---- --- --<br>------- ------,226309.00000000838,226307.6749999891,226036.908,226041.23999999138,226053.552,226319.917,,33,these
screen,html.Screen,1_1_1_1_34,2021-04-23T10:22:53.960Z,,,,,,,,,,,,,,,,54,,,,,,,,,,,,,,253.33799999571056,,response,,,,100,,,,,,,Space,keypress(Space),,,,,,,,-- --- ---- --- ------ ----- ------- ---- -- --- ------- --<br>------- ---------- ------ -- ----- -- ----- -- ---- ------<br>--- ----- --- --- ------ -------- ----- --- ------ ----- --<br>----- bonds ---------- --- --- ------ ------ ---- -- ------<br>------- --- ------ ----- --- ---- ------- -- ---- --- --<br>------- ------,226575.13999997173,226573.2549999957,226303.287,226309.46999997832,226319.917,226586.348,,34,bonds
screen,html.Screen,1_1_1_1_35,2021-04-23T10:22:54.216Z,,,,,,,,,,,,,,,,54,,,,,,,,,,,,,,242.34699997468852,,response,,,,100,,,,,,,Space,keypress(Space),,,,,,,,"-- --- ---- --- ------ ----- ------- ---- -- --- ------- --<br>------- ---------- ------ -- ----- -- ----- -- ---- ------<br>--- ----- --- --- ------ -------- ----- --- ------ ----- --<br>----- ----- plummeted, --- --- ------ ------ ---- -- ------<br>------- --- ------ ----- --- ---- ------- -- ---- --- --<br>------- ------",226830.23999998113,226828.6949999747,226569.695,226575.62499999767,226586.348,226836.125,,35,"plummeted,"
screen,html.Screen,1_1_1_1_36,2021-04-23T10:22:54.471Z,,,,,,,,,,,,,,,,54,,,,,,,,,,,,,,247.8100000023842,,response,,,,100,,,,,,,Space,keypress(Space),,,,,,,,-- --- ---- --- ------ ----- ------- ---- -- --- ------- --<br>------- ---------- ------ -- ----- -- ----- -- ---- ------<br>--- ----- --- --- ------ -------- ----- --- ------ ----- --<br>----- ----- ---------- and --- ------ ------ ---- -- ------<br>------- --- ------ ----- --- ---- ------- -- ---- --- --<br>------- ------,227085.45000001322,227083.93500000238,226819.526,226830.55999997305,226836.125,227115.661,,36,and
screen,html.Screen,1_1_1_1_37,2021-04-23T10:22:54.736Z,,,,,,,,,,,,,,,,54,,,,,,,,,,,,,,233.74399998629815,,response,,,,100,,,,,,,Space,keypress(Space),,,,,,,,-- --- ---- --- ------ ----- ------- ---- -- --- ------- --<br>------- ---------- ------ -- ----- -- ----- -- ---- ------<br>--- ----- --- --- ------ -------- ----- --- ------ ----- --<br>----- ----- ---------- --- the ------ ------ ---- -- ------<br>------- --- ------ ----- --- ---- ------- -- ---- --- --<br>------- ------,227350.35999998217,227349.4049999863,227085.94,227085.87499998976,227115.661,227352.279,,37,the
screen,html.Screen,1_1_1_1_38,2021-04-23T10:22:54.992Z,,,,,,,,,,,,,,,,54,,,,,,,,,,,,,,252.5359999696666,,response,,,,100,,,,,,,Space,keypress(Space),,,,,,,,-- --- ---- --- ------ ----- ------- ---- -- --- ------- --<br>------- ---------- ------ -- ----- -- ----- -- ---- ------<br>--- ----- --- --- ------ -------- ----- --- ------ ----- --<br>----- ----- ---------- --- --- market ------ ---- -- ------<br>------- --- ------ ----- --- ---- ------- -- ---- --- --<br>------- ------,227606.35499999626,227604.81499996968,227335.603,227350.59499996714,227352.279,227618.772,,38,market
screen,html.Screen,1_1_1_1_39,2021-04-23T10:22:55.232Z,,,,,,,,,,,,,,,,54,,,,,,,,,,,,,,226.39799998595845,,response,,,,100,,,,,,,Space,keypress(Space),,,,,,,,-- --- ---- --- ------ ----- ------- ---- -- --- ------- --<br>------- ---------- ------ -- ----- -- ----- -- ---- ------<br>--- ----- --- --- ------ -------- ----- --- ------ ----- --<br>----- ----- ---------- --- --- ------ became ---- -- ------<br>------- --- ------ ----- --- ---- ------- -- ---- --- --<br>------- ------,227846.6400000034,227845.16999998596,227602.082,227606.80499998853,227618.772,227851.858,,39,became
screen,html.Screen,1_1_1_1_40,2021-04-23T10:22:55.477Z,,,,,,,,,,,,,,,,54,,,,,,,,,,,,,,238.6269999933429,,response,,,,100,,,,,,,Space,keypress(Space),,,,,,,,-- --- ---- --- ------ ----- ------- ---- -- --- ------- --<br>------- ---------- ------ -- ----- -- ----- -- ---- ------<br>--- ----- --- --- ------ -------- ----- --- ------ ----- --<br>----- ----- ---------- --- --- ------ ------ wary -- ------<br>------- --- ------ ----- --- ---- ------- -- ---- --- --<br>------- ------,228092.0599999954,228090.48499999335,227835.314,227847.10999997333,227851.858,228101.609,,40,wary
screen,html.Screen,1_1_1_1_41,2021-04-23T10:22:55.746Z,,,,,,,,,,,,,,,,54,,,,,,,,,,,,,,258.41100002190797,,response,,,,100,,,,,,,Space,keypress(Space),,,,,,,,-- --- ---- --- ------ ----- ------- ---- -- --- ------- --<br>------- ---------- ------ -- ----- -- ----- -- ---- ------<br>--- ----- --- --- ------ -------- ----- --- ------ ----- --<br>----- ----- ---------- --- --- ------ ------ ---- of ------<br>------- --- ------ ----- --- ---- ------- -- ---- --- --<br>------- ------,228360.83000001963,228360.0200000219,228084.972,228092.63500000816,228101.609,228368.059,,41,of
screen,html.Screen,1_1_1_1_42,2021-04-23T10:22:56.002Z,,,,,,,,,,,,,,,,54,,,,,,,,,,,,,,247.31100001407322,,response,,,,100,,,,,,,Space,keypress(Space),,,,,,,,-- --- ---- --- ------ ----- ------- ---- -- --- ------- --<br>------- ---------- ------ -- ----- -- ----- -- ---- ------<br>--- ----- --- --- ------ -------- ----- --- ------ ----- --<br>----- ----- ---------- --- --- ------ ------ ---- -- French<br>------- --- ------ ----- --- ---- ------- -- ---- --- --<br>------- ------,228616.2100000074,228615.37000001408,228351.388,228361.0950000002,228368.059,228643.396,,42,French
screen,html.Screen,1_1_1_1_43,2021-04-23T10:22:56.282Z,,,,,,,,,,,,,,,,54,,,,,,,,,,,,,,252.37400000280468,,response,,,,100,,,,,,,Space,keypress(Space),,,,,,,,-- --- ---- --- ------ ----- ------- ---- -- --- ------- --<br>------- ---------- ------ -- ----- -- ----- -- ---- ------<br>--- ----- --- --- ------ -------- ----- --- ------ ----- --<br>----- ----- ---------- --- --- ------ ------ ---- -- ------<br>credit. --- ------ ----- --- ---- ------- -- ---- --- --<br>------- ------,228896.56000002287,228895.7700000028,228601.101,228616.38999998104,228643.396,228900.828,,43,credit.
screen,html.Screen,1_1_1_1_44,2021-04-23T10:22:56.603Z,,,,,,,,,,,,,,,,54,,,,,,,,,,,,,,315.8169999785896,,response,,,,100,,,,,,,Space,keypress(Space),,,,,,,,-- --- ---- --- ------ ----- ------- ---- -- --- ------- --<br>------- ---------- ------ -- ----- -- ----- -- ---- ------<br>--- ----- --- --- ------ -------- ----- --- ------ ----- --<br>----- ----- ---------- --- --- ------ ------ ---- -- ------<br>------- The ------ ----- --- ---- ------- -- ---- --- --<br>------- ------,229217.52499998547,229216.6449999786,228884.178,228896.7999999877,228900.828,229233.909,,44,The
screen,html.Screen,1_1_1_1_45,2021-04-23T10:22:56.859Z,,,,,,,,,,,,,,,,54,,,,,,,,,,,,,,239.21600001861225,,response,,,,100,,,,,,,Space,keypress(Space),,,,,,,,-- --- ---- --- ------ ----- ------- ---- -- --- ------- --<br>------- ---------- ------ -- ----- -- ----- -- ---- ------<br>--- ----- --- --- ------ -------- ----- --- ------ ----- --<br>----- ----- ---------- --- --- ------ ------ ---- -- ------<br>------- --- French ----- --- ---- ------- -- ---- --- --<br>------- ------,229473.89999998268,229473.12500001863,229217.191,229217.78499998618,229233.909,229483.59,,45,French
screen,html.Screen,1_1_1_1_46,2021-04-23T10:22:57.104Z,,,,,,,,,,,,,,,,54,,,,,,,,,,,,,,233.9099999697355,,response,,,,100,,,,,,,Space,keypress(Space),,,,,,,,-- --- ---- --- ------ ----- ------- ---- -- --- ------- --<br>------- ---------- ------ -- ----- -- ----- -- ---- ------<br>--- ----- --- --- ------ -------- ----- --- ------ ----- --<br>----- ----- ---------- --- --- ------ ------ ---- -- ------<br>------- --- ------ state --- ---- ------- -- ---- --- --<br>------- ------,229718.82999996888,229717.49999996973,229466.957,229474.13499996765,229483.59,229733.368,,46,state
screen,html.Screen,1_1_1_1_47,2021-04-23T10:22:57.374Z,,,,,,,,,,,,,,,,54,,,,,,,,,,,,,,254.16199998397497,,response,,,,100,,,,,,,Space,keypress(Space),,,,,,,,-- --- ---- --- ------ ----- ------- ---- -- --- ------- --<br>------- ---------- ------ -- ----- -- ----- -- ---- ------<br>--- ----- --- --- ------ -------- ----- --- ------ ----- --<br>----- ----- ---------- --- --- ------ ------ ---- -- ------<br>------- --- ------ ----- was ---- ------- -- ---- --- --<br>------- ------,229988.554999989,229987.52999998396,229716.745,229719.3800000241,229733.368,229999.849,,47,was
screen,html.Screen,1_1_1_1_48,2021-04-23T10:22:57.656Z,,,,,,,,,,,,,,,,54,,,,,,,,,,,,,,269.21600000042235,,response,,,,100,,,,,,,Space,keypress(Space),,,,,,,,-- --- ---- --- ------ ----- ------- ---- -- --- ------- --<br>------- ---------- ------ -- ----- -- ----- -- ---- ------<br>--- ----- --- --- ------ -------- ----- --- ------ ----- --<br>----- ----- ---------- --- --- ------ ------ ---- -- ------<br>------- --- ------ ----- --- left ------- -- ---- --- --<br>------- ------,230270.205000008,230269.0650000004,229983.203,229988.9700000058,229999.849,230282.959,,48,left
screen,html.Screen,1_1_1_1_49,2021-04-23T10:22:57.912Z,,,,,,,,,,,,,,,,54,,,,,,,,,,,,,,241.95099997826037,,response,,,,100,,,,,,,Space,keypress(Space),,,,,,,,-- --- ---- --- ------ ----- ------- ---- -- --- ------- --<br>------- ---------- ------ -- ----- -- ----- -- ---- ------<br>--- ----- --- --- ------ -------- ----- --- ------ ----- --<br>----- ----- ---------- --- --- ------ ------ ---- -- ------<br>------- --- ------ ----- --- ---- without -- ---- --- --<br>------- ------,230526.2249999796,230524.90999997826,230266.204,230270.58999997098,230282.959,230532.667,,49,without
screen,html.Screen,1_1_1_1_50,2021-04-23T10:22:58.192Z,,,,,,,,,,,,,,,,54,,,,,,,,,,,,,,272.8429999765067,,response,,,,100,,,,,,,Space,keypress(Space),,,,,,,,-- --- ---- --- ------ ----- ------- ---- -- --- ------- --<br>------- ---------- ------ -- ----- -- ----- -- ---- ------<br>--- ----- --- --- ------ -------- ----- --- ------ ----- --<br>----- ----- ---------- --- --- ------ ------ ---- -- ------<br>------- --- ------ ----- --- ---- ------- an ---- --- --<br>------- ------,230806.82499997783,230805.5099999765,230516.016,230526.68000000995,230532.667,230815.746,,50,an
screen,html.Screen,1_1_1_1_51,2021-04-23T10:22:58.511Z,,,,,,,,,,,,,,,,54,,,,,,,,,,,,,,308.8539999809873,,response,,,,100,,,,,,,Space,keypress(Space),,,,,,,,-- --- ---- --- ------ ----- ------- ---- -- --- ------- --<br>------- ---------- ------ -- ----- -- ----- -- ---- ------<br>--- ----- --- --- ------ -------- ----- --- ------ ----- --<br>----- ----- ---------- --- --- ------ ------ ---- -- ------<br>------- --- ------ ----- --- ---- ------- -- easy --- --<br>------- ------,231125.6300000241,231124.599999981,230799.13,230807.46500001987,230815.746,231132.109,,51,easy
screen,html.Screen,1_1_1_1_52,2021-04-23T10:22:58.762Z,,,,,,,,,,,,,,,,54,,,,,,,,,,,,,,243.33600001240848,,response,,,,100,,,,,,,Space,keypress(Space),,,,,,,,-- --- ---- --- ------ ----- ------- ---- -- --- ------- --<br>------- ---------- ------ -- ----- -- ----- -- ---- ------<br>--- ----- --- --- ------ -------- ----- --- ------ ----- --<br>----- ----- ---------- --- --- ------ ------ ---- -- ------<br>------- --- ------ ----- --- ---- ------- -- ---- way --<br>------- ------,231376.64999999106,231375.4450000124,231115.471,231126.05000002077,231132.109,231381.863,,52,way
screen,html.Screen,1_1_1_1_53,2021-04-23T10:22:59.126Z,,,,,,,,,,,,,,,,54,,,,,,,,,,,,,,357.9870000126539,,response,,,,100,,,,,,,Space,keypress(Space),,,,,,,,-- --- ---- --- ------ ----- ------- ---- -- --- ------- --<br>------- ---------- ------ -- ----- -- ----- -- ---- ------<br>--- ----- --- --- ------ -------- ----- --- ------ ----- --<br>----- ----- ---------- --- --- ------ ------ ---- -- ------<br>------- --- ------ ----- --- ---- ------- -- ---- --- of<br>------- ------,231740.75499997707,231739.85000001267,231365.257,231377.09999998333,231381.863,231748.151,,53,of
screen,html.Screen,1_1_1_1_54,2021-04-23T10:22:59.506Z,,,,,,,,,,,,,,,,54,,,,,,,,,,,,,,371.989000013622,,response,,,,100,,,,,,,Space,keypress(Space),,,,,,,,-- --- ---- --- ------ ----- ------- ---- -- --- ------- --<br>------- ---------- ------ -- ----- -- ----- -- ---- ------<br>--- ----- --- --- ------ -------- ----- --- ------ ----- --<br>----- ----- ---------- --- --- ------ ------ ---- -- ------<br>------- --- ------ ----- --- ---- ------- -- ---- --- --<br>raising ------,232120.73500000406,232120.14000001363,231731.52,231741.06999998912,231748.151,232131.097,,54,raising
screen,html.Screen,1_1_1_1_55,2021-04-23T10:22:59.922Z,,,,,,,,,,,,,,,,54,,,,,,,,,,,,,,405.03800000209594,,response,,,,100,,,,,,,Space,keypress(Space),,,,,,,,-- --- ---- --- ------ ----- ------- ---- -- --- ------- --<br>------- ---------- ------ -- ----- -- ----- -- ---- ------<br>--- ----- --- --- ------ -------- ----- --- ------ ----- --<br>----- ----- ---------- --- --- ------ ------ ---- -- ------<br>------- --- ------ ----- --- ---- ------- -- ---- --- --<br>------- money.,232536.8899999885,232536.1350000021,232114.495,232121.01499998244,232131.097,232547.425,,55,money.
Item 100,flow.Loop,1_1_1_1,2021-04-23T10:22:59.923Z,,,,,,,,,,,,,,,,,,,,,,,,,,,,,,16056.989000002097,,completion,,,,,E,,,,,,,,,,,silence,,,,,232537.50999999465,232536.1350000021,216462.453,216463.47000001697,216479.146,232547.425,,,
Question 1,html.Screen,1_1_1_2,2021-04-23T10:23:03.693Z,,,,,,,,,,,,,,,,,,,,,,,,,,,true,TRUE,,3759.0399999723886,,response,,,,100,E,,,,,,TRUE,click #choice-1,,,,silence,,,,,236308.15499997698,236306.46499997238,232530.72,232537.78999997303,232547.425,236310.565,,,
Question 2,html.Screen,1_1_1_3,2021-04-23T10:23:07.427Z,,,,,,,,,,,,,,,,,,,,,,,,,,,true,FALSE,,3729.530000003928,,response,,,,100,E,,,,,,FALSE,click #choice-2,,,,silence,,,,,240041.62500001257,240040.09500000393,236293.899,236308.52500000037,236310.565,240057.151,,,
Item 100,flow.Sequence,1_1_1,2021-04-23T10:23:07.427Z,,,,,,,,,,,,,,,,,,,,,,,,,,,,,,33567.84800000393,,completion,,,,,,,,,,,,,,,,,,,,,240041.96499998216,240040.09500000393,206455.174,206458.5499999812,206472.247,240057.151,,,
End of Practice,html.Page,1_1_2,2021-04-23T10:23:19.394Z,,,,,,,,,,,,,,,,,,,,,,,,,,,,,,11949.974000003713,,form submission,,,,,,,,,,,,,,,,,,,,,252008.39500001166,252007.12500000373,240040.403,240042.11500001838,240057.151,252012.57,,,
Practice,flow.Sequence,1_1,2021-04-23T10:23:19.394Z,,,,,,,,,,,,,,,,,,,,,,,,,,,,,,86180.54800000374,,completion,,,,,,,,,,,,,,,,,,,,,252008.90499999514,252007.12500000373,165793.288,165809.85000001965,165826.577,252012.57,,,
Trap_instruction,html.Page,1_2_0,2021-04-23T10:23:32.947Z,,,,,,,,,,,,,,,,,,,,,,,,,,,,,,13547.089999969874,,form submission,,,,,,,,,,,,,,,,,,,,,265560.1449999958,265559.6599999699,251995.938,252009.235000005,252012.57,265583.157,,,
trap_trial,html.Screen,1_2_1,2021-04-23T10:23:38.167Z,,,,,,,,,,,,,,,,,,,,,,,,,,,true,1,,5195.192999978666,,response,,,,,,,,,,,1,click #choice-1,,,,,,,,,270780.67499998724,270778.3499999787,265549.895,265560.2749999962,265583.157,270795.238,,,
end of trap trial,html.Page,1_2_2,2021-04-23T10:23:40.979Z,,,,,,,,,,,,,,,,,,,,,,,,,,,,,,2795.7569999768166,,form submission,,,,,,,,,,,,,,,,,,,,,273592.04000001773,273590.9949999768,270778.353,270781.3099999912,270795.238,273592.343,,,
Trap 1,flow.Sequence,1_2,2021-04-23T10:23:40.979Z,,,,,,,,,,,,,,,,,,,,,,,,,,,,,,21578.42499997682,,completion,,,,,,,,,,,,,,,,,,,,,273592.5050000078,273590.9949999768,251995.938,252009.13500000024,252012.57,273592.343,,,
Standby,html.Page,1_3_0,2021-04-23T10:23:48.956Z,,,,,,,,,,,,,,,,,,,,,,,,,,,,,,7992.754000000015,,timeout,,,,,,,,,,,,,,,,,,,,,281568.7850000104,281568.188,273575.682,273593.3199999854,273592.343,281585.097,,,
Holding screen,html.Screen,1_3_1_0_0,2021-04-23T10:23:55.950Z,,,,,,,,,,,,,,,,,,,,,,,,,,,,,,6993.239000000001,,timeout,,,,,,,,,,,,,,,,,,,,,288563.2200000109,288561.881,281568.188,281568.98999999976,281585.097,288578.336,,,
screen,html.Screen,1_3_1_0_1_0,2021-04-23T10:23:57.921Z,,,,,,,,,,,,,,,,48,,,,,,,,,,,,,,1953.2840000233846,,response,,,,10,E,,,,,,Space,keypress(Space),,,,lyrical,,,,As -- --- ------ ------- --------- ----------- --------<br>--------- -------- --- ------- -- ------- ---- -- ------<br>-- --- -------- -------- ---------- ---- ---- ---- ------<br>-- --------- -- ---- -- --- -- --- ------- -- - -----<br>---------- -- -- -- ---- ----- -- ------ -- --- ------<br>-------,290533.9699999895,290531.6200000234,288561.881,288563.5950000142,288578.336,290543.196,,0,As
screen,html.Screen,1_3_1_0_1_1,2021-04-23T10:23:58.299Z,,,,,,,,,,,,,,,,48,,,,,,,,,,,,,,368.2939999694936,,response,,,,10,E,,,,,,Space,keypress(Space),,,,lyrical,,,,-- in --- ------ ------- --------- ----------- --------<br>--------- -------- --- ------- -- ------- ---- -- ------<br>-- --- -------- -------- ---------- ---- ---- ---- ------<br>-- --------- -- ---- -- --- -- --- ------- -- - -----<br>---------- -- -- -- ---- ----- -- ------ -- --- ------<br>-------,290912.53999999026,290911.4899999695,290526.697,290534.35999999056,290543.196,290926.24,,1,in
screen,html.Screen,1_3_1_0_1_2,2021-04-23T10:23:58.594Z,,,,,,,,,,,,,,,,48,,,,,,,,,,,,,,280.1750000223983,,response,,,,10,E,,,,,,Space,keypress(Space),,,,lyrical,,,,-- -- the ------ ------- --------- ----------- --------<br>--------- -------- --- ------- -- ------- ---- -- ------<br>-- --- -------- -------- ---------- ---- ---- ---- ------<br>-- --------- -- ---- -- --- -- --- ------- -- - -----<br>---------- -- -- -- ---- ----- -- ------ -- --- ------<br>-------,291207.5199999963,291206.4150000224,290909.525,290912.7950000111,290926.24,291242.618,,2,the
screen,html.Screen,1_3_1_0_1_3,2021-04-23T10:23:58.901Z,,,,,,,,,,,,,,,,48,,,,,,,,,,,,,,270.09700001892634,,response,,,,10,E,,,,,,Space,keypress(Space),,,,lyrical,,,,-- -- --- United ------- --------- ----------- --------<br>--------- -------- --- ------- -- ------- ---- -- ------<br>-- --- -------- -------- ---------- ---- ---- ---- ------<br>-- --------- -- ---- -- --- -- --- ------- -- - -----<br>---------- -- -- -- ---- ----- -- ------ -- --- ------<br>-------,291513.8450000086,291512.71500001894,291192.745,291207.8099999926,291242.618,291525.67,,3,United
screen,html.Screen,1_3_1_0_1_4,2021-04-23T10:23:59.250Z,,,,,,,,,,,,,,,,48,,,,,,,,,,,,,,336.58000000560423,,response,,,,10,E,,,,,,Space,keypress(Space),,,,lyrical,,,,"-- -- --- ------ States, --------- ----------- --------<br>--------- -------- --- ------- -- ------- ---- -- ------<br>-- --- -------- -------- ---------- ---- ---- ---- ------<br>-- --------- -- ---- -- --- -- --- ------- -- - -----<br>---------- -- -- -- ---- ----- -- ------ -- --- ------<br>-------",291863.3699999773,291862.2500000056,291509.075,291514.12499998696,291525.67,291875.338,,4,"States,"
screen,html.Screen,1_3_1_0_1_5,2021-04-23T10:23:59.582Z,,,,,,,,,,,,,,,,48,,,,,,,,,,,,,,318.37700000125915,,response,,,,10,E,,,,,,Space,keypress(Space),,,,lyrical,,,,-- -- --- ------ ------- Colombian ----------- --------<br>--------- -------- --- ------- -- ------- ---- -- ------<br>-- --- -------- -------- ---------- ---- ---- ---- ------<br>-- --------- -- ---- -- --- -- --- ------- -- - -----<br>---------- -- -- -- ---- ----- -- ------ -- --- ------<br>-------,292195.32499997877,292193.71500000125,291858.755,291863.6200000183,291875.338,292208.817,,5,Colombian
screen,html.Screen,1_3_1_0_1_6,2021-04-23T10:24:00.107Z,,,,,,,,,,,,,,,,48,,,,,,,,,,,,,,510.53800000838237,,response,,,,10,E,,,,,,Space,keypress(Space),,,,lyrical,,,,-- -- --- ------ ------- --------- legislation --------<br>--------- -------- --- ------- -- ------- ---- -- ------<br>-- --- -------- -------- ---------- ---- ---- ---- ------<br>-- --------- -- ---- -- --- -- --- ------- -- - -----<br>---------- -- -- -- ---- ----- -- ------ -- --- ------<br>-------,292720.4250000068,292719.35500000836,292191.686,292195.6449999707,292208.817,292724.464,,6,legislation
screen,html.Screen,1_3_1_0_1_7,2021-04-23T10:24:00.437Z,,,,,,,,,,,,,,,,48,,,,,,,,,,,,,,324.9060000224854,,response,,,,10,E,,,,,,Space,keypress(Space),,,,lyrical,,,,-- -- --- ------ ------- --------- ----------- requires<br>--------- -------- --- ------- -- ------- ---- -- ------<br>-- --- -------- -------- ---------- ---- ---- ---- ------<br>-- --------- -- ---- -- --- -- --- ------- -- - -----<br>---------- -- -- -- ---- ----- -- ------ -- --- ------<br>-------,293050.3949999693,293049.37000002246,292707.993,292720.7300000009,292724.464,293057.521,,7,requires
screen,html.Screen,1_3_1_0_1_8,2021-04-23T10:24:00.814Z,,,,,,,,,,,,,,,,48,,,,,,,,,,,,,,368.2090000172029,,response,,,,10,E,,,,,,Space,keypress(Space),,,,lyrical,,,,-- -- --- ------ ------- --------- ----------- --------<br>travelers -------- --- ------- -- ------- ---- -- ------<br>-- --- -------- -------- ---------- ---- ---- ---- ------<br>-- --------- -- ---- -- --- -- --- ------- -- - -----<br>---------- -- -- -- ---- ----- -- ------ -- --- ------<br>-------,293427.1600000211,293425.7300000172,293040.989,293050.7199999993,293057.521,293440.499,,8,travelers
screen,html.Screen,1_3_1_0_1_9,2021-04-23T10:24:01.178Z,,,,,,,,,,,,,,,,48,,,,,,,,,,,,,,350.00100000278326,,response,,,,10,E,,,,,,Space,keypress(Space),,,,lyrical,,,,-- -- --- ------ ------- --------- ----------- --------<br>--------- entering --- ------- -- ------- ---- -- ------<br>-- --- -------- -------- ---------- ---- ---- ---- ------<br>-- --------- -- ---- -- --- -- --- ------- -- - -----<br>---------- -- -- -- ---- ----- -- ------ -- --- ------<br>-------,293791.6649999679,293790.5000000028,293423.964,293427.6499999687,293440.499,293806.794,,9,entering
screen,html.Screen,1_3_1_0_1_10,2021-04-23T10:24:01.545Z,,,,,,,,,,,,,,,,48,,,,,,,,,,,,,,350.02099999482743,,response,,,,10,E,,,,,,Space,keypress(Space),,,,lyrical,,,,-- -- --- ------ ------- --------- ----------- --------<br>--------- -------- the ------- -- ------- ---- -- ------<br>-- --- -------- -------- ---------- ---- ---- ---- ------<br>-- --------- -- ---- -- --- -- --- ------- -- - -----<br>---------- -- -- -- ---- ----- -- ------ -- --- ------<br>-------,294157.9250000068,294156.8149999948,293790.192,293792.04500000924,293806.794,294173.333,,10,the
screen,html.Screen,1_3_1_0_1_11,2021-04-23T10:24:01.920Z,,,,,,,,,,,,,,,,48,,,,,,,,,,,,,,358.2219999941299,,response,,,,10,E,,,,,,Space,keypress(Space),,,,lyrical,,,,-- -- --- ------ ------- --------- ----------- --------<br>--------- -------- --- country -- ------- ---- -- ------<br>-- --- -------- -------- ---------- ---- ---- ---- ------<br>-- --------- -- ---- -- --- -- --- ------- -- - -----<br>---------- -- -- -- ---- ----- -- ------ -- --- ------<br>-------,294532.8950000112,294531.5549999941,294156.524,294158.21000002325,294173.333,294540.107,,11,country
screen,html.Screen,1_3_1_0_1_12,2021-04-23T10:24:02.180Z,,,,,,,,,,,,,,,,48,,,,,,,,,,,,,,252.0930000253138,,response,,,,10,E,,,,,,Space,keypress(Space),,,,lyrical,,,,-- -- --- ------ ------- --------- ----------- --------<br>--------- -------- --- ------- to ------- ---- -- ------<br>-- --- -------- -------- ---------- ---- ---- ---- ------<br>-- --------- -- ---- -- --- -- --- ------- -- - -----<br>---------- -- -- -- ---- ----- -- ------ -- --- ------<br>-------,294793.5399999842,294792.20000002533,294522.879,294533.15999999177,294540.107,294806.438,,12,to
screen,html.Screen,1_3_1_0_1_13,2021-04-23T10:24:02.576Z,,,,,,,,,,,,,,,,48,,,,,,,,,,,,,,295.27200001716847,,response,,,,10,E,,,,,,Space,keypress(Space),,,,lyrical,,,,-- -- --- ------ ------- --------- ----------- --------<br>--------- -------- --- ------- -- declare ---- -- ------<br>-- --- -------- -------- ---------- ---- ---- ---- ------<br>-- --------- -- ---- -- --- -- --- ------- -- - -----<br>---------- -- -- -- ---- ----- -- ------ -- --- ------<br>-------,295189.1900000046,295101.7100000172,294789.249,294793.9049999695,294806.438,295205.424,,13,declare
screen,html.Screen,1_3_1_0_1_14,2021-04-23T10:24:02.761Z,,,,,,,,,,,,,,,,48,,,,,,,,,,,,,,167.65599999029655,,response,,,,10,E,,,,,,Space,keypress(Space),,,,lyrical,,,,-- -- --- ------ ------- --------- ----------- --------<br>--------- -------- --- ------- -- ------- cash -- ------<br>-- --- -------- -------- ---------- ---- ---- ---- ------<br>-- --------- -- ---- -- --- -- --- ------- -- - -----<br>---------- -- -- -- ---- ----- -- ------ -- --- ------<br>-------,295374.16000000667,295373.0799999903,295189.07,295189.4350000075,295205.424,295388.797,,14,cash
screen,html.Screen,1_3_1_0_1_15,2021-04-23T10:24:03.096Z,,,,,,,,,,,,,,,,48,,,,,,,,,,,,,,318.9729999790434,,response,,,,10,E,,,,,,Space,keypress(Space),,,,lyrical,,,,-- -- --- ------ ------- --------- ----------- --------<br>--------- -------- --- ------- -- ------- ---- in ------<br>-- --- -------- -------- ---------- ---- ---- ---- ------<br>-- --------- -- ---- -- --- -- --- ------- -- - -----<br>---------- -- -- -- ---- ----- -- ------ -- --- ------<br>-------,295709.3749999767,295707.76999997906,295371.987,295374.42499998724,295388.797,295721.753,,15,in
screen,html.Screen,1_3_1_0_1_16,2021-04-23T10:24:03.383Z,,,,,,,,,,,,,,,,48,,,,,,,,,,,,,,272.7220000140369,,response,,,,10,E,,,,,,Space,keypress(Space),,,,lyrical,,,,-- -- --- ------ ------- --------- ----------- --------<br>--------- -------- --- ------- -- ------- ---- -- excess<br>-- --- -------- -------- ---------- ---- ---- ---- ------<br>-- --------- -- ---- -- --- -- --- ------- -- - -----<br>---------- -- -- -- ---- ----- -- ------ -- --- ------<br>-------,295996.2700000033,295994.47500001406,295705.197,295709.7150000045,295721.753,296004.766,,16,excess
screen,html.Screen,1_3_1_0_1_17,2021-04-23T10:24:03.842Z,,,,,,,,,,,,,,,,48,,,,,,,,,,,,,,449.02399999956833,,response,,,,10,E,,,,,,Space,keypress(Space),,,,lyrical,,,,-- -- --- ------ ------- --------- ----------- --------<br>--------- -------- --- ------- -- ------- ---- -- ------<br>of --- -------- -------- ---------- ---- ---- ---- ------<br>-- --------- -- ---- -- --- -- --- ------- -- - -----<br>---------- -- -- -- ---- ----- -- ------ -- --- ------<br>-------,296455.4299999727,296453.7899999996,295988.153,295996.68999999994,296004.766,296471.172,,17,of
screen,html.Screen,1_3_1_0_1_18,2021-04-23T10:24:04.153Z,,,,,,,,,,,,,,,,48,,,,,,,,,,,,,,293.2780000169296,,response,,,,10,E,,,,,,Space,keypress(Space),,,,lyrical,,,,-- -- --- ------ ------- --------- ----------- --------<br>--------- -------- --- ------- -- ------- ---- -- ------<br>-- ten -------- -------- ---------- ---- ---- ---- ------<br>-- --------- -- ---- -- --- -- --- ------- -- - -----<br>---------- -- -- -- ---- ----- -- ------ -- --- ------<br>-------,296766.5649999981,296764.45000001695,296454.372,296455.75999998255,296471.172,296770.711,,18,ten
screen,html.Screen,1_3_1_0_1_19,2021-04-23T10:24:04.523Z,,,,,,,,,,,,,,,,48,,,,,,,,,,,,,,364.37400001625065,,response,,,,10,E,,,,,,Space,keypress(Space),,,,lyrical,,,,-- -- --- ------ ------- --------- ----------- --------<br>--------- -------- --- ------- -- ------- ---- -- ------<br>-- --- thousand -------- ---------- ---- ---- ---- ------<br>-- --------- -- ---- -- --- -- --- ------- -- - -----<br>---------- -- -- -- ---- ----- -- ------ -- --- ------<br>-------,297136.445000011,297135.08500001626,296754.331,296766.96999999695,296770.711,297153.857,,19,thousand
screen,html.Screen,1_3_1_0_1_20,2021-04-23T10:24:04.889Z,,,,,,,,,,,,,,,,48,,,,,,,,,,,,,,346.66300000139745,,response,,,,10,E,,,,,,Space,keypress(Space),,,,lyrical,,,,-- -- --- ------ ------- --------- ----------- --------<br>--------- -------- --- ------- -- ------- ---- -- ------<br>-- --- -------- dollars. ---------- ---- ---- ---- ------<br>-- --------- -- ---- -- --- -- --- ------- -- - -----<br>---------- -- -- -- ---- ----- -- ------ -- --- ------<br>-------,297501.9500000053,297500.5200000014,297137.224,297136.7650000029,297153.857,297536.803,,20,dollars.
screen,html.Screen,1_3_1_0_1_21,2021-04-23T10:24:05.475Z,,,,,,,,,,,,,,,,48,,,,,,,,,,,,,,550.246999972791,,response,,,,10,E,,,,,,Space,keypress(Space),,,,lyrical,,,,-- -- --- ------ ------- --------- ----------- --------<br>--------- -------- --- ------- -- ------- ---- -- ------<br>-- --- -------- -------- Concealing ---- ---- ---- ------<br>-- --------- -- ---- -- --- -- --- ------- -- - -----<br>---------- -- -- -- ---- ----- -- ------ -- --- ------<br>-------,298088.3449999965,298087.0499999728,297523.585,297502.3999999976,297536.803,298102.828,,21,Concealing
screen,html.Screen,1_3_1_0_1_22,2021-04-23T10:24:05.760Z,,,,,,,,,,,,,,,,48,,,,,,,,,,,,,,269.30199997429736,,response,,,,10,E,,,,,,Space,keypress(Space),,,,lyrical,,,,-- -- --- ------ ------- --------- ----------- --------<br>--------- -------- --- ------- -- ------- ---- -- ------<br>-- --- -------- -------- ---------- more ---- ---- ------<br>-- --------- -- ---- -- --- -- --- ------- -- - -----<br>---------- -- -- -- ---- ----- -- ------ -- --- ------<br>-------,298373.55000001844,298372.1299999743,298086.36,298088.7549999752,298102.828,298385.87,,22,more
screen,html.Screen,1_3_1_0_1_23,2021-04-23T10:24:06.075Z,,,,,,,,,,,,,,,,48,,,,,,,,,,,,,,301.0050000139745,,response,,,,10,E,,,,,,Space,keypress(Space),,,,lyrical,,,,-- -- --- ------ ------- --------- ----------- --------<br>--------- -------- --- ------- -- ------- ---- -- ------<br>-- --- -------- -------- ---------- ---- than ---- ------<br>-- --------- -- ---- -- --- -- --- ------- -- - -----<br>---------- -- -- -- ---- ----- -- ------ -- --- ------<br>-------,298688.09000001056,298686.87500001397,298369.237,298373.9100000239,298385.87,298702.355,,23,than
screen,html.Screen,1_3_1_0_1_24,2021-04-23T10:24:06.312Z,,,,,,,,,,,,,,,,48,,,,,,,,,,,,,,220.8499999991618,,response,,,,10,E,,,,,,Space,keypress(Space),,,,lyrical,,,,-- -- --- ------ ------- --------- ----------- --------<br>--------- -------- --- ------- -- ------- ---- -- ------<br>-- --- -------- -------- ---------- ---- ---- that ------<br>-- --------- -- ---- -- --- -- --- ------- -- - -----<br>---------- -- -- -- ---- ----- -- ------ -- --- ------<br>-------,298924.89500000374,298923.20499999914,298685.674,298688.3800000069,298702.355,298935.418,,24,that
screen,html.Screen,1_3_1_0_1_25,2021-04-23T10:24:06.662Z,,,,,,,,,,,,,,,,48,,,,,,,,,,,,,,337.9269999941462,,response,,,,10,E,,,,,,Space,keypress(Space),,,,lyrical,,,,-- -- --- ------ ------- --------- ----------- --------<br>--------- -------- --- ------- -- ------- ---- -- ------<br>-- --- -------- -------- ---------- ---- ---- ---- amount<br>-- --------- -- ---- -- --- -- --- ------- -- - -----<br>---------- -- -- -- ---- ----- -- ------ -- --- ------<br>-------,299275.1200000057,299273.34499999415,298918.714,298925.3049999825,298935.418,299284.993,,25,amount
screen,html.Screen,1_3_1_0_1_26,2021-04-23T10:24:06.941Z,,,,,,,,,,,,,,,,48,,,,,,,,,,,,,,268.3219999682624,,response,,,,10,E,,,,,,Space,keypress(Space),,,,lyrical,,,,-- -- --- ------ ------- --------- ----------- --------<br>--------- -------- --- ------- -- ------- ---- -- ------<br>-- --- -------- -------- ---------- ---- ---- ---- ------<br>to --------- -- ---- -- --- -- --- ------- -- - -----<br>---------- -- -- -- ---- ----- -- ------ -- --- ------<br>-------,299554.67500002123,299553.3149999683,299268.353,299275.484999991,299284.993,299568.239,,26,to
screen,html.Screen,1_3_1_0_1_27,2021-04-23T10:24:07.198Z,,,,,,,,,,,,,,,,48,,,,,,,,,,,,,,241.4309999878169,,response,,,,10,E,,,,,,Space,keypress(Space),,,,lyrical,,,,-- -- --- ------ ------- --------- ----------- --------<br>--------- -------- --- ------- -- ------- ---- -- ------<br>-- --- -------- -------- ---------- ---- ---- ---- ------<br>-- transport -- ---- -- --- -- --- ------- -- - -----<br>---------- -- -- -- ---- ----- -- ------ -- --- ------<br>-------,299810.8849999844,299809.6699999878,299551.46,299555.1100000157,299568.239,299817.843,,27,transport
screen,html.Screen,1_3_1_0_1_28,2021-04-23T10:24:07.488Z,,,,,,,,,,,,,,,,48,,,,,,,,,,,,,,282.47199998877477,,response,,,,10,E,,,,,,Space,keypress(Space),,,,lyrical,,,,-- -- --- ------ ------- --------- ----------- --------<br>--------- -------- --- ------- -- ------- ---- -- ------<br>-- --- -------- -------- ---------- ---- ---- ---- ------<br>-- --------- it ---- -- --- -- --- ------- -- - -----<br>---------- -- -- -- ---- ----- -- ------ -- --- ------<br>-------,300101.7049999791,300100.31499998877,299801.236,299811.3649999723,299817.843,300117.629,,28,it
screen,html.Screen,1_3_1_0_1_29,2021-04-23T10:24:07.794Z,,,,,,,,,,,,,,,,48,,,,,,,,,,,,,,288.3959999747458,,response,,,,10,E,,,,,,Space,keypress(Space),,,,lyrical,,,,-- -- --- ------ ------- --------- ----------- --------<br>--------- -------- --- ------- -- ------- ---- -- ------<br>-- --- -------- -------- ---------- ---- ---- ---- ------<br>-- --------- -- into -- --- -- --- ------- -- - -----<br>---------- -- -- -- ---- ----- -- ------ -- --- ------<br>-------,300407.42499998305,300406.02499997476,300100.941,300102.4949999992,300117.629,300417.266,,29,into
screen,html.Screen,1_3_1_0_1_30,2021-04-23T10:24:08.069Z,,,,,,,,,,,,,,,,48,,,,,,,,,,,,,,262.98399997578235,,response,,,,10,E,,,,,,Space,keypress(Space),,,,lyrical,,,,-- -- --- ------ ------- --------- ----------- --------<br>--------- -------- --- ------- -- ------- ---- -- ------<br>-- --- -------- -------- ---------- ---- ---- ---- ------<br>-- --------- -- ---- or --- -- --- ------- -- - -----<br>---------- -- -- -- ---- ----- -- ------ -- --- ------<br>-------,300681.73000001116,300680.2499999758,300400.767,300407.8500000178,300417.266,300713.777,,30,or
screen,html.Screen,1_3_1_0_1_31,2021-04-23T10:24:08.328Z,,,,,,,,,,,,,,,,48,,,,,,,,,,,,,,226.47800002316944,,response,,,,10,E,,,,,,Space,keypress(Space),,,,lyrical,,,,-- -- --- ------ ------- --------- ----------- --------<br>--------- -------- --- ------- -- ------- ---- -- ------<br>-- --- -------- -------- ---------- ---- ---- ---- ------<br>-- --------- -- ---- -- out -- --- ------- -- - -----<br>---------- -- -- -- ---- ----- -- ------ -- --- ------<br>-------,300941.4049999905,300940.2550000232,300667.141,300682.03999998514,300713.777,300950.13,,31,out
screen,html.Screen,1_3_1_0_1_32,2021-04-23T10:24:08.604Z,,,,,,,,,,,,,,,,48,,,,,,,,,,,,,,265.8949999724282,,response,,,,10,E,,,,,,Space,keypress(Space),,,,lyrical,,,,-- -- --- ------ ------- --------- ----------- --------<br>--------- -------- --- ------- -- ------- ---- -- ------<br>-- --- -------- -------- ---------- ---- ---- ---- ------<br>-- --------- -- ---- -- --- of --- ------- -- - -----<br>---------- -- -- -- ---- ----- -- ------ -- --- ------<br>-------,301217.6299999701,301216.02499997243,300933.488,300941.7600000161,300950.13,301233.357,,32,of
screen,html.Screen,1_3_1_0_1_33,2021-04-23T10:24:08.884Z,,,,,,,,,,,,,,,,48,,,,,,,,,,,,,,262.6930000160937,,response,,,,10,E,,,,,,Space,keypress(Space),,,,lyrical,,,,-- -- --- ------ ------- --------- ----------- --------<br>--------- -------- --- ------- -- ------- ---- -- ------<br>-- --- -------- -------- ---------- ---- ---- ---- ------<br>-- --------- -- ---- -- --- -- the ------- -- - -----<br>---------- -- -- -- ---- ----- -- ------ -- --- ------<br>-------,301497.4299999885,301496.0500000161,301216.657,301217.94499998214,301233.357,301499.663,,33,the
screen,html.Screen,1_3_1_0_1_34,2021-04-23T10:24:09.139Z,,,,,,,,,,,,,,,,48,,,,,,,,,,,,,,251.53699999878881,,response,,,,10,E,,,,,,Space,keypress(Space),,,,lyrical,,,,-- -- --- ------ ------- --------- ----------- --------<br>--------- -------- --- ------- -- ------- ---- -- ------<br>-- --- -------- -------- ---------- ---- ---- ---- ------<br>-- --------- -- ---- -- --- -- --- country -- - -----<br>---------- -- -- -- ---- ----- -- ------ -- --- ------<br>-------,301752.3349999683,301751.1999999988,301483.103,301497.74999998044,301499.663,301766.041,,34,country
screen,html.Screen,1_3_1_0_1_35,2021-04-23T10:24:09.424Z,,,,,,,,,,,,,,,,48,,,,,,,,,,,,,,269.94400002405746,,response,,,,10,E,,,,,,Space,keypress(Space),,,,lyrical,,,,-- -- --- ------ ------- --------- ----------- --------<br>--------- -------- --- ------- -- ------- ---- -- ------<br>-- --- -------- -------- ---------- ---- ---- ---- ------<br>-- --------- -- ---- -- --- -- --- ------- is - -----<br>---------- -- -- -- ---- ----- -- ------ -- --- ------<br>-------,302036.9349999819,302035.9850000241,301749.385,301752.7550000232,301766.041,302049.077,,35,is
screen,html.Screen,1_3_1_0_1_36,2021-04-23T10:24:09.704Z,,,,,,,,,,,,,,,,48,,,,,,,,,,,,,,267.27299997914815,,response,,,,10,E,,,,,,Space,keypress(Space),,,,lyrical,,,,-- -- --- ------ ------- --------- ----------- --------<br>--------- -------- --- ------- -- ------- ---- -- ------<br>-- --- -------- -------- ---------- ---- ---- ---- ------<br>-- --------- -- ---- -- --- -- --- ------- -- a -----<br>---------- -- -- -- ---- ----- -- ------ -- --- ------<br>-------,302317.6799999783,302316.34999997914,302032.443,302037.2150000185,302049.077,302332.129,,36,a
screen,html.Screen,1_3_1_0_1_37,2021-04-23T10:24:09.995Z,,,,,,,,,,,,,,,,48,,,,,,,,,,,,,,274.71100002218736,,response,,,,10,E,,,,,,Space,keypress(Space),,,,lyrical,,,,-- -- --- ------ ------- --------- ----------- --------<br>--------- -------- --- ------- -- ------- ---- -- ------<br>-- --- -------- -------- ---------- ---- ---- ---- ------<br>-- --------- -- ---- -- --- -- --- ------- -- - crime<br>---------- -- -- -- ---- ----- -- ------ -- --- ------<br>-------,302607.79999999795,302606.8400000222,302315.512,302317.9999999702,302332.129,302615.206,,37,crime
screen,html.Screen,1_3_1_0_1_38,2021-04-23T10:24:10.240Z,,,,,,,,,,,,,,,,48,,,,,,,,,,,,,,236.9339999735821,,response,,,,10,E,,,,,,Space,keypress(Space),,,,lyrical,,,,-- -- --- ------ ------- --------- ----------- --------<br>--------- -------- --- ------- -- ------- ---- -- ------<br>-- --- -------- -------- ---------- ---- ---- ---- ------<br>-- --------- -- ---- -- --- -- --- ------- -- - -----<br>punishable -- -- -- ---- ----- -- ------ -- --- ------<br>-------,302852.985000005,302852.1399999736,302598.519,302608.10999997193,302615.206,302864.976,,38,punishable
screen,html.Screen,1_3_1_0_1_39,2021-04-23T10:24:10.500Z,,,,,,,,,,,,,,,,48,,,,,,,,,,,,,,247.39899996784516,,response,,,,10,E,,,,,,Space,keypress(Space),,,,lyrical,,,,-- -- --- ------ ------- --------- ----------- --------<br>--------- -------- --- ------- -- ------- ---- -- ------<br>-- --- -------- -------- ---------- ---- ---- ---- ------<br>-- --------- -- ---- -- --- -- --- ------- -- - -----<br>---------- by -- -- ---- ----- -- ------ -- --- ------<br>-------,303113.13000001246,303112.37499996787,302848.34,302853.18999999436,302864.976,303143.583,,39,by
screen,html.Screen,1_3_1_0_1_40,2021-04-23T10:24:10.750Z,,,,,,,,,,,,,,,,48,,,,,,,,,,,,,,219.13199999567587,,response,,,,10,E,,,,,,Space,keypress(Space),,,,lyrical,,,,-- -- --- ------ ------- --------- ----------- --------<br>--------- -------- --- ------- -- ------- ---- -- ------<br>-- --- -------- -------- ---------- ---- ---- ---- ------<br>-- --------- -- ---- -- --- -- --- ------- -- - -----<br>---------- -- up -- ---- ----- -- ------ -- --- ------<br>-------,303363.63999999594,303362.71499999566,303098.085,303113.46999998204,303143.583,303381.172,,40,up
screen,html.Screen,1_3_1_0_1_41,2021-04-23T10:24:11.001Z,,,,,,,,,,,,,,,,48,,,,,,,,,,,,,,231.95299997436814,,response,,,,10,E,,,,,,Space,keypress(Space),,,,lyrical,,,,-- -- --- ------ ------- --------- ----------- --------<br>--------- -------- --- ------- -- ------- ---- -- ------<br>-- --- -------- -------- ---------- ---- ---- ---- ------<br>-- --------- -- ---- -- --- -- --- ------- -- - -----<br>---------- -- -- to ---- ----- -- ------ -- --- ------<br>-------,303613.94499999005,303613.1249999744,303364.502,303363.98000002373,303381.172,303630.948,,41,to
