sender,sender_type,sender_id,timestamp,meta,,Blues,Classical,Country,Dance,Electronic,Folk,Gospel,Hip-Hop,Jazz,Latin,Musical/Film,New-age,Pop,Provo_ID,R&B,Rap,Reggae,Religious,Rock,Soul,Swing,Traditional,age,artist_name,correct,correctResponse,distraction,duration,education,ended_on,familiarity,gender,headphone_check_performance,item,list,music_frequency,offensiveness,pleasantness,position_correct,preference,response,response_action,snippet_file,song_name,song_rating,sound,stimulus_1,stimulus_2,stimulus_3,text,time_commit,time_end,time_render,time_run,time_show,time_switch,url,word,word_ID
Introduction,html.Screen,0_0,2021-04-26T12:38:47.316Z,"{""labjs_version"":""20.2.2"",""labjs_build"":{""flavor"":""production"",""commit"":""a25486e0c714a0ae2ce03ff94b7bb6896854dcfa""},""location"":""https://run.pavlovia.org/mvasilev/music_a/"",""userAgent"":""Mozilla/5.0 (Windows NT 10.0; Win64; x64) AppleWebKit/537.36 (KHTML, like Gecko) Chrome/90.0.4430.72 Safari/537.36 Edg/90.0.818.42"",""platform"":""Win32"",""language"":""en-GB"",""locale"":""en-GB"",""timeZone"":""Europe/London"",""timezoneOffset"":-60,""screen_width"":1536,""screen_height"":864,""scroll_width"":1536,""scroll_height"":706,""window_innerWidth"":1536,""window_innerHeight"":754,""devicePixelRatio"":1.25}",,,,,,,,,,,,,,,,,,,,,,,,,,,,,7976.541000022724,,response,,,,,,,,,,,continue,click button,,,,,,,,,21213.580000097863,21210.650000022724,13119.193,13131.875000079162,13234.109,21232.676,{},,
Volume calibration,html.Screen,0_1,2021-04-26T12:39:06.156Z,,,,,,,,,,,,,,,,,,,,,,,,,,,,,,18814.359000054166,,response,,,,,,,,,,,continue,click button,,,,,,,,,40053.29499999061,40047.035000054166,21199.485,21214.695000089705,21232.676,40063.138,,,
Task instructions,html.Screen,0_2,2021-04-26T12:39:12.412Z,,,,,,,,,,,,,,,,,,,,,,,,,,,,,,6243.826999996127,,response,,,,,,,,,,,continue,click button,,,,,,,,,46309.104999993,46306.964999996126,40046.483,40053.705000085756,40063.138,46312.03,,,
Sounds,html.Screen,0_3_0_0,2021-04-26T12:39:16.657Z,,,,,,,,,,,,,,,,,,,,,,,,,,,,,,4249.4389999999985,,timeout,,,,,,,,,1,,,,,,,,S,O,I,,50553.85500006378,50544.888,46295.663,46309.82500000391,46312.03,50561.469,,,
Judgement,html.Screen,0_3_0_1,2021-04-26T12:39:18.938Z,,,,,,,,,,,,,,,,,,,,,,,,,,,true,1,,2272.586000101219,,response,,,,,,,,,1,,1,click #choice-1,,,,,S,O,I,,52835.590000031516,52834.055000101216,50544.888,50554.26000000443,50561.469,52844.856,,,
Trial,flow.Sequence,0_3_0,2021-04-26T12:39:18.939Z,,,,,,,,,,,,,,,,,,,,,,,,,,,,,,6522.025000101217,,completion,,,,,,,,,1,,,,,,,,S,O,I,,52836.01000008639,52834.055000101216,46295.663,46309.69000002369,46312.03,52844.856,,,
Sounds,html.Screen,0_3_1_0,2021-04-26T12:39:23.181Z,,,,,,,,,,,,,,,,,,,,,,,,,,,,,,4248.9100000000035,,timeout,,,,,,,,,1,,,,,,,,S,I,O,,57078.66500003729,57077.009,52827.825,52836.17000002414,52844.856,57093.766,,,
Judgement,html.Screen,0_3_1_1,2021-04-26T12:39:24.703Z,,,,,,,,,,,,,,,,,,,,,,,,,,,true,1,,1504.2140000786749,,response,,,,,,,,,1,,1,click #choice-1,,,,,S,I,O,,58600.07000004407,58597.98000007868,57077.009,57078.994999988936,57093.766,58610.175,,,
Trial,flow.Sequence,0_3_1,2021-04-26T12:39:24.704Z,,,,,,,,,,,,,,,,,,,,,,,,,,,,,,5753.124000078678,,completion,,,,,,,,,1,,,,,,,,S,I,O,,58600.790000054985,58597.98000007868,52827.825,52836.130000068806,52844.856,58610.175,,,
Sounds,html.Screen,0_3_2_0,2021-04-26T12:39:28.949Z,,,,,,,,,,,,,,,,,,,,,,,,,,,,,,4249.399999999994,,timeout,,,,,,,,,3,,,,,,,,O,I,S,,62845.3800000716,62842.945,58593.571,58601.140000042506,58610.175,62859.575,,,
Judgement,html.Screen,0_3_2_1,2021-04-26T12:39:29.820Z,,,,,,,,,,,,,,,,,,,,,,,,,,,true,3,,855.2800000274583,,response,,,,,,,,,3,,3,click #choice-3,,,,,O,I,S,,63716.32000000682,63714.855000027455,62842.945,62845.80000001006,62859.575,63725.933,,,
Trial,flow.Sequence,0_3_2,2021-04-26T12:39:29.820Z,,,,,,,,,,,,,,,,,,,,,,,,,,,,,,5104.6800000274525,,completion,,,,,,,,,3,,,,,,,,O,I,S,,63716.855000006035,63714.855000027455,58593.571,58601.04500001762,58610.175,63725.933,,,
Sounds,html.Screen,0_3_3_0,2021-04-26T12:39:34.064Z,,,,,,,,,,,,,,,,,,,,,,,,,,,,,,4249.340000000004,,timeout,,,,,,,,,3,,,,,,,,I,O,S,,67960.26500000153,67958.643,63709.262,63717.10000000894,63725.933,67975.273,,,
Judgement,html.Screen,0_3_3_1,2021-04-26T12:39:34.842Z,,,,,,,,,,,,,,,,,,,,,,,,,,,true,3,,761.6070000986074,,response,,,,,,,,,3,,3,click #choice-3,,,,,I,O,S,,68738.57500008307,68736.88000009861,67958.643,67960.59999999125,67975.273,68741.802,,,
Trial,flow.Sequence,0_3_3,2021-04-26T12:39:34.843Z,,,,,,,,,,,,,,,,,,,,,,,,,,,,,,5010.947000098611,,completion,,,,,,,,,3,,,,,,,,I,O,S,,68739.03500009328,68736.88000009861,63709.262,63717.04000001773,63725.933,68741.802,,,
Sounds,html.Screen,0_3_4_0,2021-04-26T12:39:39.080Z,,,,,,,,,,,,,,,,,,,,,,,,,,,,,,4249.434999999998,,timeout,,,,,,,,,2,,,,,,,,I,S,O,,72976.63000004832,72974.605,68725.251,68739.29500009399,68741.802,72991.237,,,
Judgement,html.Screen,0_3_4_1,2021-04-26T12:39:39.803Z,,,,,,,,,,,,,,,,,,,,,,,,,,,true,2,,705.7980000774551,,response,,,,,,,,,2,,2,click #choice-2,,,,,I,S,O,,73699.11500008311,73697.03500007745,72974.605,72976.90500004683,72991.237,73707.782,,,
Trial,flow.Sequence,0_3_4,2021-04-26T12:39:39.803Z,,,,,,,,,,,,,,,,,,,,,,,,,,,,,,4955.233000077453,,completion,,,,,,,,,2,,,,,,,,I,S,O,,73699.64500004426,73697.03500007745,68725.251,68739.21999998856,68741.802,73707.782,,,
Sounds,html.Screen,0_3_5_0,2021-04-26T12:39:44.046Z,,,,,,,,,,,,,,,,,,,,,,,,,,,,,,4249.216,,timeout,,,,,,,,,2,,,,,,,,O,S,I,,77942.33500002883,77940.475,73691.133,73699.92500008084,73707.782,77956.998,,,
Judgement,html.Screen,0_3_5_1,2021-04-26T12:39:44.662Z,,,,,,,,,,,,,,,,,,,,,,,,,,,true,2,,599.802000020296,,response,,,,,,,,,2,,2,click #choice-2,,,,,O,S,I,,78558.74500004575,78556.8000000203,77940.475,77942.61500006542,77956.998,78573.57,,,
Trial,flow.Sequence,0_3_5,2021-04-26T12:39:44.663Z,,,,,,,,,,,,,,,,,,,,,,,,,,,,,,4849.018000020296,,completion,,,,,,,,,2,,,,,,,,O,S,I,,78559.22000005376,78556.8000000203,73691.133,73699.85500001349,73707.782,78573.57,,,
Task,flow.Loop,0_3,2021-04-26T12:39:44.672Z,,,,,,,,,,,,,,,,,,,,,,,,,,,,,,32244.770000020304,,completion,,,1,,,,,,,,,,,,,,,,,,78568.07999999728,78556.8000000203,46295.663,46309.57500007935,46312.03,78573.57,,,
Trap,html.Screen,0_4,2021-04-26T12:39:44.680Z,,,,,,,,,,,,,,,,,,,,,,,,,,,,,,NaN,,skipped,,,,,,,,,,,,,,,,,,,,,78576.13500009757,78556.8000000203,,78575.86000009906,,78573.57,,,
Thanks,html.Screen,0_5,2021-04-26T12:39:48.813Z,,,,,,,,,,,,,,,,,,,,,,,,,,,,,,4134.085000034713,,response,,,,,,,,,,,continue,click button,,,,,,,,,82709.73000000231,82707.65500003472,78557.076,78576.39500009827,78573.57,89905.224,,,
Headphone screening,flow.Sequence,0,2021-04-26T12:39:48.814Z,,,,,,,,,,,,,,,,,,,,,,,,,,,,,,69473.54600003472,,completion,,,,,,,,,,,,,,,,,,,,,82710.240000044,82707.65500003472,13119.193,13131.325000082143,13234.109,89905.224,,,
Instructions,html.Page,1_0,2021-04-26T12:40:11.283Z,,,,,,,,,,,,,,,,,,,,,,,,,,,,,,15273.326000069661,,form submission,,,,,,,,,,,,,,,,,,,,,105179.00000000373,105178.55000006966,89888.458,89902.53000007942,89905.224,105192.205,,,
Holding screen,html.Screen,1_1_0_0,2021-04-26T12:40:21.274Z,,,,,,,,,,,,,,,,,,,,,,,,,,,,,,10025.580999999991,,timeout,,,,,,,,,,,,,,,,,,,,,115170.03999999724,115167.858,105152.819,105179.4200000586,105192.205,115217.786,,,
screen,html.Screen,1_1_0_1_0,2021-04-26T12:40:22.490Z,,,,,,,,,,,,,,,,53,,,,,,,,,,,,,,1162.7190000082774,,response,,,,99,,,,,,,Space,keypress(Space),,,,,,,,When -- ----- -- ------ - ------- --- ----------<br>------------- ------ ------ ---- ---- ------- ----- -- ----<br>-------- ------- -- ---------- --- - --- ----- ----- ----<br>---- --- --- ----- --- ---- ---- ------- ----- ---- -------<br>--- --- -- ----- -- --- ---- -- --- ---- -- ------ ------<br>--- ----- -- ----,116386.62000000477,116380.50500000827,115167.858,115170.84999999497,115217.786,116401.067,,0,When
screen,html.Screen,1_1_0_1_1,2021-04-26T12:40:23.160Z,,,,,,,,,,,,,,,,53,,,,,,,,,,,,,,654.5330000797258,,response,,,,99,,,,,,,Space,keypress(Space),,,,,,,,---- it ----- -- ------ - ------- --- ----------<br>------------- ------ ------ ---- ---- ------- ----- -- ----<br>-------- ------- -- ---------- --- - --- ----- ----- ----<br>---- --- --- ----- --- ---- ---- ------- ----- ---- -------<br>--- --- -- ----- -- --- ---- -- --- ---- -- ------ ------<br>--- ----- -- ----,117056.8150000181,117055.60000007972,116384.464,116386.95000007283,116401.067,117067.59,,1,it
screen,html.Screen,1_1_0_1_2,2021-04-26T12:40:23.819Z,,,,,,,,,,,,,,,,53,,,,,,,,,,,,,,646.8950000040641,,response,,,,99,,,,,,,Space,keypress(Space),,,,,,,,---- -- comes -- ------ - ------- --- ----------<br>------------- ------ ------ ---- ---- ------- ----- -- ----<br>-------- ------- -- ---------- --- - --- ----- ----- ----<br>---- --- --- ----- --- ---- ---- ------- ----- ---- -------<br>--- --- -- ----- -- --- ---- -- --- ---- -- ------ ------<br>--- ----- -- ----,117715.84499999881,117714.48500000406,117050.993,117057.12000001222,117067.59,117744.152,,2,comes
screen,html.Screen,1_1_0_1_3,2021-04-26T12:40:24.401Z,,,,,,,,,,,,,,,,53,,,,,,,,,,,,,,551.8730000469368,,response,,,,99,,,,,,,Space,keypress(Space),,,,,,,,---- -- ----- to ------ - ------- --- ----------<br>------------- ------ ------ ---- ---- ------- ----- -- ----<br>-------- ------- -- ---------- --- - --- ----- ----- ----<br>---- --- --- ----- --- ---- ---- ------- ----- ---- -------<br>--- --- -- ----- -- --- ---- -- --- ---- -- ------ ------<br>--- ----- -- ----,118297.33000008855,118296.02500004694,117700.87,117716.16000006907,117744.152,118300.613,,3,to
screen,html.Screen,1_1_0_1_4,2021-04-26T12:40:25.059Z,,,,,,,,,,,,,,,,53,,,,,,,,,,,,,,653.1420000241051,,response,,,,99,,,,,,,Space,keypress(Space),,,,,,,,---- -- ----- -- having - ------- --- ----------<br>------------- ------ ------ ---- ---- ------- ----- -- ----<br>-------- ------- -- ---------- --- - --- ----- ----- ----<br>---- --- --- ----- --- ---- ---- ------- ----- ---- -------<br>--- --- -- ----- -- --- ---- -- --- ---- -- ------ ------<br>--- ----- -- ----,118954.97500000056,118953.7550000241,118284.109,118297.60000004899,118300.613,118967.412,,4,having
screen,html.Screen,1_1_0_1_5,2021-04-26T12:40:25.514Z,,,,,,,,,,,,,,,,53,,,,,,,,,,,,,,441.58800010151754,,response,,,,99,,,,,,,Space,keypress(Space),,,,,,,,---- -- ----- -- ------ a ------- --- ----------<br>------------- ------ ------ ---- ---- ------- ----- -- ----<br>-------- ------- -- ---------- --- - --- ----- ----- ----<br>---- --- --- ----- --- ---- ---- ------- ----- ---- -------<br>--- --- -- ----- -- --- ---- -- --- ---- -- ------ ------<br>--- ----- -- ----,119410.16000008676,119409.00000010151,118950.674,118955.29000007082,118967.412,119417.193,,5,a
screen,html.Screen,1_1_0_1_6,2021-04-26T12:40:26.077Z,,,,,,,,,,,,,,,,53,,,,,,,,,,,,,,554.8970000538684,,response,,,,99,,,,,,,Space,keypress(Space),,,,,,,,---- -- ----- -- ------ - lasting --- ----------<br>------------- ------ ------ ---- ---- ------- ----- -- ----<br>-------- ------- -- ---------- --- - --- ----- ----- ----<br>---- --- --- ----- --- ---- ---- ------- ----- ---- -------<br>--- --- -- ----- -- --- ---- -- --- ---- -- ------ ------<br>--- ----- -- ----,119973.53499999736,119972.09000005387,119400.535,119410.49500007648,119417.193,119983.799,,6,lasting
screen,html.Screen,1_1_0_1_7,2021-04-26T12:40:26.579Z,,,,,,,,,,,,,,,,53,,,,,,,,,,,,,,490.7010000111768,,response,,,,99,,,,,,,Space,keypress(Space),,,,,,,,---- -- ----- -- ------ - ------- and ----------<br>------------- ------ ------ ---- ---- ------- ----- -- ----<br>-------- ------- -- ---------- --- - --- ----- ----- ----<br>---- --- --- ----- --- ---- ---- ------- ----- ---- -------<br>--- --- -- ----- -- --- ---- -- --- ---- -- ------ ------<br>--- ----- -- ----,120475.87000008207,120474.50000001118,119967.186,119973.82499999367,119983.799,120483.535,,7,and
screen,html.Screen,1_1_0_1_8,2021-04-26T12:40:27.119Z,,,,,,,,,,,,,,,,53,,,,,,,,,,,,,,530.1900000843743,,response,,,,99,,,,,,,Space,keypress(Space),,,,,,,,---- -- ----- -- ------ - ------- --- fulfilling<br>------------- ------ ------ ---- ---- ------- ----- -- ----<br>-------- ------- -- ---------- --- - --- ----- ----- ----<br>---- --- --- ----- --- ---- ---- ------- ----- ---- -------<br>--- --- -- ----- -- --- ---- -- --- ---- -- ------ ------<br>--- ----- -- ----,121014.90499998908,121013.72500008438,120467.086,120476.15000000224,120483.535,121045.692,,8,fulfilling
screen,html.Screen,1_1_0_1_9,2021-04-26T12:40:28.383Z,,,,,,,,,,,,,,,,53,,,,,,,,,,,,,,1232.0980000801355,,response,,,,99,,,,,,,Space,keypress(Space),,,,,,,,"---- -- ----- -- ------ - ------- --- ----------<br>relationship, ------ ------ ---- ---- ------- ----- -- ----<br>-------- ------- -- ---------- --- - --- ----- ----- ----<br>---- --- --- ----- --- ---- ---- ------- ----- ---- -------<br>--- --- -- ----- -- --- ---- -- --- ---- -- ------ ------<br>--- ----- -- ----",122278.85000000242,122277.79000008013,121000.329,121015.17000002787,121045.692,122283.24,,9,"relationship,"
screen,html.Screen,1_1_0_1_10,2021-04-26T12:40:28.927Z,,,,,,,,,,,,,,,,53,,,,,,,,,,,,,,538.7550000056945,,response,,,,99,,,,,,,Space,keypress(Space),,,,,,,,---- -- ----- -- ------ - ------- --- ----------<br>------------- common ------ ---- ---- ------- ----- -- ----<br>-------- ------- -- ---------- --- - --- ----- ----- ----<br>---- --- --- ----- --- ---- ---- ------- ----- ---- -------<br>--- --- -- ----- -- --- ---- -- --- ---- -- ------ ------<br>--- ----- -- ----,122823.0400000466,122821.9950000057,122266.85,122279.13500007708,122283.24,122833.286,,10,common
screen,html.Screen,1_1_0_1_11,2021-04-26T12:40:29.574Z,,,,,,,,,,,,,,,,53,,,,,,,,,,,,,,635.6140000944433,,response,,,,99,,,,,,,Space,keypress(Space),,,,,,,,---- -- ----- -- ------ - ------- --- ----------<br>------------- ------ wisdom ---- ---- ------- ----- -- ----<br>-------- ------- -- ---------- --- - --- ----- ----- ----<br>---- --- --- ----- --- ---- ---- ------- ----- ---- -------<br>--- --- -- ----- -- --- ---- -- --- ---- -- ------ ------<br>--- ----- -- ----,123470.1350000687,123468.90000009444,122816.65,122823.32000008319,122833.286,123483.293,,11,wisdom
screen,html.Screen,1_1_0_1_12,2021-04-26T12:40:30.015Z,,,,,,,,,,,,,,,,53,,,,,,,,,,,,,,426.65700000111246,,response,,,,99,,,,,,,Space,keypress(Space),,,,,,,,---- -- ----- -- ------ - ------- --- ----------<br>------------- ------ ------ says ---- ------- ----- -- ----<br>-------- ------- -- ---------- --- - --- ----- ----- ----<br>---- --- --- ----- --- ---- ---- ------- ----- ---- -------<br>--- --- -- ----- -- --- ---- -- --- ---- -- ------ ------<br>--- ----- -- ----,123910.69500008598,123909.95000000112,123466.426,123470.39000003133,123483.293,123916.497,,12,says
screen,html.Screen,1_1_0_1_13,2021-04-26T12:40:30.601Z,,,,,,,,,,,,,,,,53,,,,,,,,,,,,,,579.4730000472337,,response,,,,99,,,,,,,Space,keypress(Space),,,,,,,,---- -- ----- -- ------ - ------- --- ----------<br>------------- ------ ------ ---- that ------- ----- -- ----<br>-------- ------- -- ---------- --- - --- ----- ----- ----<br>---- --- --- ----- --- ---- ---- ------- ----- ---- -------<br>--- --- -- ----- -- --- ---- -- --- ---- -- ------ ------<br>--- ----- -- ----,124496.91000010353,124495.97000004724,123899.886,123910.89500009548,123916.497,124499.579,,13,that
screen,html.Screen,1_1_0_1_14,2021-04-26T12:40:31.342Z,,,,,,,,,,,,,,,,53,,,,,,,,,,,,,,737.5610000993183,,response,,,,99,,,,,,,Space,keypress(Space),,,,,,,,---- -- ----- -- ------ - ------- --- ----------<br>------------- ------ ------ ---- ---- feeling ----- -- ----<br>-------- ------- -- ---------- --- - --- ----- ----- ----<br>---- --- --- ----- --- ---- ---- ------- ----- ---- -------<br>--- --- -- ----- -- --- ---- -- --- ---- -- ------ ------<br>--- ----- -- ----,125237.81000007875,125237.14000009932,124482.935,124497.25500005297,124499.579,125249.788,,14,feeling
screen,html.Screen,1_1_0_1_15,2021-04-26T12:40:31.908Z,,,,,,,,,,,,,,,,53,,,,,,,,,,,,,,553.3920000462676,,response,,,,99,,,,,,,Space,keypress(Space),,,,,,,,---- -- ----- -- ------ - ------- --- ----------<br>------------- ------ ------ ---- ---- ------- close -- ----<br>-------- ------- -- ---------- --- - --- ----- ----- ----<br>---- --- --- ----- --- ---- ---- ------- ----- ---- -------<br>--- --- -- ----- -- --- ---- -- --- ---- -- ------ ------<br>--- ----- -- ----,125804.20000001322,125803.18000004627,125232.94,125238.02000004798,125249.788,125816.239,,15,close
screen,html.Screen,1_1_0_1_16,2021-04-26T12:40:32.364Z,,,,,,,,,,,,,,,,53,,,,,,,,,,,,,,442.9610000877292,,response,,,,99,,,,,,,Space,keypress(Space),,,,,,,,---- -- ----- -- ------ - ------- --- ----------<br>------------- ------ ------ ---- ---- ------- ----- to ----<br>-------- ------- -- ---------- --- - --- ----- ----- ----<br>---- --- --- ----- --- ---- ---- ------- ----- ---- -------<br>--- --- -- ----- -- --- ---- -- --- ---- -- ------ ------<br>--- ----- -- ----,126260.52000001073,126259.20000008773,125799.384,125804.53500000294,125816.239,126265.945,,16,to
screen,html.Screen,1_1_0_1_17,2021-04-26T12:40:32.841Z,,,,,,,,,,,,,,,,53,,,,,,,,,,,,,,469.7500000394066,,response,,,,99,,,,,,,Space,keypress(Space),,,,,,,,---- -- ----- -- ------ - ------- --- ----------<br>------------- ------ ------ ---- ---- ------- ----- -- your<br>-------- ------- -- ---------- --- - --- ----- ----- ----<br>---- --- --- ----- --- ---- ---- ------- ----- ---- -------<br>--- --- -- ----- -- --- ---- -- --- ---- -- ------ ------<br>--- ----- -- ----,126736.75000004005,126735.69500003941,126249.473,126260.86999999825,126265.945,126749.443,,17,your
screen,html.Screen,1_1_0_1_18,2021-04-26T12:40:33.459Z,,,,,,,,,,,,,,,,53,,,,,,,,,,,,,,604.127000035689,,response,,,,99,,,,,,,Space,keypress(Space),,,,,,,,---- -- ----- -- ------ - ------- --- ----------<br>------------- ------ ------ ---- ---- ------- ----- -- ----<br>romantic ------- -- ---------- --- - --- ----- ----- ----<br>---- --- --- ----- --- ---- ---- ------- ----- ---- -------<br>--- --- -- ----- -- --- ---- -- --- ---- -- ------ ------<br>--- ----- -- ----,127355.35500000697,127353.57000003569,126732.689,126737.01500007883,126749.443,127365.864,,18,romantic
screen,html.Screen,1_1_0_1_19,2021-04-26T12:40:34.046Z,,,,,,,,,,,,,,,,53,,,,,,,,,,,,,,575.0360000450746,,response,,,,99,,,,,,,Space,keypress(Space),,,,,,,,---- -- ----- -- ------ - ------- --- ----------<br>------------- ------ ------ ---- ---- ------- ----- -- ----<br>-------- partner -- ---------- --- - --- ----- ----- ----<br>---- --- --- ----- --- ---- ---- ------- ----- ---- -------<br>--- --- -- ----- -- --- ---- -- --- ---- -- ------ ------<br>--- ----- -- ----,127942.19000008889,127940.90000004508,127349.268,127355.83000001498,127365.864,127949.017,,19,partner
screen,html.Screen,1_1_0_1_20,2021-04-26T12:40:34.449Z,,,,,,,,,,,,,,,,53,,,,,,,,,,,,,,394.55300002636795,,response,,,,99,,,,,,,Space,keypress(Space),,,,,,,,---- -- ----- -- ------ - ------- --- ----------<br>------------- ------ ------ ---- ---- ------- ----- -- ----<br>-------- ------- is ---------- --- - --- ----- ----- ----<br>---- --- --- ----- --- ---- ---- ------- ----- ---- -------<br>--- --- -- ----- -- --- ---- -- --- ---- -- ------ ------<br>--- ----- -- ----,128344.68500001822,128343.57000002638,127932.561,127942.47500004712,127949.017,128349.071,,20,is
screen,html.Screen,1_1_0_1_21,2021-04-26T12:40:35.700Z,,,,,,,,,,,,,,,,53,,,,,,,,,,,,,,1245.5339999911375,,response,,,,99,,,,,,,Space,keypress(Space),,,,,,,,---- -- ----- -- ------ - ------- --- ----------<br>------------- ------ ------ ---- ---- ------- ----- -- ----<br>-------- ------- -- paramount. --- - --- ----- ----- ----<br>---- --- --- ----- --- ---- ---- ------- ----- ---- -------<br>--- --- -- ----- -- --- ---- -- --- ---- -- ------ ------<br>--- ----- -- ----,129595.92500003055,129594.60499999113,128332.479,128345.02000000793,128349.071,129625.596,,21,paramount.
screen,html.Screen,1_1_0_1_22,2021-04-26T12:40:36.160Z,,,,,,,,,,,,,,,,53,,,,,,,,,,,,,,429.4440000065515,,response,,,,99,,,,,,,Space,keypress(Space),,,,,,,,---- -- ----- -- ------ - ------- --- ----------<br>------------- ------ ------ ---- ---- ------- ----- -- ----<br>-------- ------- -- ---------- But - --- ----- ----- ----<br>---- --- --- ----- --- ---- ---- ------- ----- ---- -------<br>--- --- -- ----- -- --- ---- -- --- ---- -- ------ ------<br>--- ----- -- ----,130056.45999999251,130055.04000000656,129582.397,129596.25500009861,129625.596,130065.555,,22,But
screen,html.Screen,1_1_0_1_23,2021-04-26T12:40:36.665Z,,,,,,,,,,,,,,,,53,,,,,,,,,,,,,,494.385000064678,,response,,,,99,,,,,,,Space,keypress(Space),,,,,,,,---- -- ----- -- ------ - ------- --- ----------<br>------------- ------ ------ ---- ---- ------- ----- -- ----<br>-------- ------- -- ---------- --- a --- ----- ----- ----<br>---- --- --- ----- --- ---- ---- ------- ----- ---- -------<br>--- --- -- ----- -- --- ---- -- --- ---- -- ------ ------<br>--- ----- -- ----,130561.19000003673,130559.94000006467,130048.849,130056.82000005618,130065.555,130565.256,,23,a
screen,html.Screen,1_1_0_1_24,2021-04-26T12:40:37.109Z,,,,,,,,,,,,,,,,53,,,,,,,,,,,,,,438.60400005528936,,response,,,,99,,,,,,,Space,keypress(Space),,,,,,,,---- -- ----- -- ------ - ------- --- ----------<br>------------- ------ ------ ---- ---- ------- ----- -- ----<br>-------- ------- -- ---------- --- - new ----- ----- ----<br>---- --- --- ----- --- ---- ---- ------- ----- ---- -------<br>--- --- -- ----- -- --- ---- -- --- ---- -- ------ ------<br>--- ----- -- ----,131005.13500010129,131003.86000005528,130548.8,130561.47000007331,130565.256,131015.495,,24,new
screen,html.Screen,1_1_0_1_25,2021-04-26T12:40:37.530Z,,,,,,,,,,,,,,,,53,,,,,,,,,,,,,,409.61999999091495,,response,,,,99,,,,,,,Space,keypress(Space),,,,,,,,---- -- ----- -- ------ - ------- --- ----------<br>------------- ------ ------ ---- ---- ------- ----- -- ----<br>-------- ------- -- ---------- --- - --- study ----- ----<br>---- --- --- ----- --- ---- ---- ------- ----- ---- -------<br>--- --- -- ----- -- --- ---- -- --- ---- -- ------ ------<br>--- ----- -- ----,131426.2400000589,131425.1149999909,130998.658,131005.395000102,131015.495,131431.816,,25,study
screen,html.Screen,1_1_0_1_26,2021-04-26T12:40:37.999Z,,,,,,,,,,,,,,,,53,,,,,,,,,,,,,,462.1090000985423,,response,,,,99,,,,,,,Space,keypress(Space),,,,,,,,---- -- ----- -- ------ - ------- --- ----------<br>------------- ------ ------ ---- ---- ------- ----- -- ----<br>-------- ------- -- ---------- --- - --- ----- finds ----<br>---- --- --- ----- --- ---- ---- ------- ----- ---- -------<br>--- --- -- ----- -- --- ---- -- --- ---- -- ------ ------<br>--- ----- -- ----,131895.3450000845,131893.92500009853,131415.314,131426.55500001274,131431.816,131898.386,,26,finds
screen,html.Screen,1_1_0_1_27,2021-04-26T12:40:38.454Z,,,,,,,,,,,,,,,,53,,,,,,,,,,,,,,450.5290000968962,,response,,,,99,,,,,,,Space,keypress(Space),,,,,,,,---- -- ----- -- ------ - ------- --- ----------<br>------------- ------ ------ ---- ---- ------- ----- -- ----<br>-------- ------- -- ---------- --- - --- ----- ----- that<br>---- --- --- ----- --- ---- ---- ------- ----- ---- -------<br>--- --- -- ----- -- --- ---- -- --- ---- -- ------ ------<br>--- ----- -- ----,132350.06000008434,132348.9150000969,131881.917,131895.61000000685,131898.386,132365.1,,27,that
screen,html.Screen,1_1_0_1_28,2021-04-26T12:40:38.916Z,,,,,,,,,,,,,,,,53,,,,,,,,,,,,,,446.22500001694425,,response,,,,99,,,,,,,Space,keypress(Space),,,,,,,,---- -- ----- -- ------ - ------- --- ----------<br>------------- ------ ------ ---- ---- ------- ----- -- ----<br>-------- ------- -- ---------- --- - --- ----- ----- ----<br>it's --- --- ----- --- ---- ---- ------- ----- ---- -------<br>--- --- -- ----- -- --- ---- -- --- ---- -- ------ ------<br>--- ----- -- ----,132812.44500004686,132811.32500001695,132348.451,132350.3550000023,132365.1,132814.92,,28,it's
screen,html.Screen,1_1_0_1_29,2021-04-26T12:40:39.417Z,,,,,,,,,,,,,,,,53,,,,,,,,,,,,,,497.5400000446534,,response,,,,99,,,,,,,Space,keypress(Space),,,,,,,,---- -- ----- -- ------ - ------- --- ----------<br>------------- ------ ------ ---- ---- ------- ----- -- ----<br>-------- ------- -- ---------- --- - --- ----- ----- ----<br>---- not --- ----- --- ---- ---- ------- ----- ---- -------<br>--- --- -- ----- -- --- ---- -- --- ---- -- ------ ------<br>--- ----- -- ----,133313.64499998745,133312.46000004467,132798.318,132812.71000008564,132814.92,133331.68,,29,not
screen,html.Screen,1_1_0_1_30,2021-04-26T12:40:39.844Z,,,,,,,,,,,,,,,,53,,,,,,,,,,,,,,407.7300000383402,,response,,,,99,,,,,,,Space,keypress(Space),,,,,,,,---- -- ----- -- ------ - ------- --- ----------<br>------------- ------ ------ ---- ---- ------- ----- -- ----<br>-------- ------- -- ---------- --- - --- ----- ----- ----<br>---- --- how ----- --- ---- ---- ------- ----- ---- -------<br>--- --- -- ----- -- --- ---- -- --- ---- -- ------ ------<br>--- ----- -- ----,133740.615000017,133739.41000003833,133298.306,133313.91000002623,133331.68,133748.408,,30,how
screen,html.Screen,1_1_0_1_31,2021-04-26T12:40:40.301Z,,,,,,,,,,,,,,,,53,,,,,,,,,,,,,,446.91700009518536,,response,,,,99,,,,,,,Space,keypress(Space),,,,,,,,---- -- ----- -- ------ - ------- --- ----------<br>------------- ------ ------ ---- ---- ------- ----- -- ----<br>-------- ------- -- ---------- --- - --- ----- ----- ----<br>---- --- --- close --- ---- ---- ------- ----- ---- -------<br>--- --- -- ----- -- --- ---- -- --- ---- -- ------ ------<br>--- ----- -- ----,134196.68000005186,134195.32500009518,133731.569,133740.94000004698,133748.408,134224.5,,31,close
screen,html.Screen,1_1_0_1_32,2021-04-26T12:40:40.742Z,,,,,,,,,,,,,,,,53,,,,,,,,,,,,,,411.58000008389354,,response,,,,99,,,,,,,Space,keypress(Space),,,,,,,,---- -- ----- -- ------ - ------- --- ----------<br>------------- ------ ------ ---- ---- ------- ----- -- ----<br>-------- ------- -- ---------- --- - --- ----- ----- ----<br>---- --- --- ----- you ---- ---- ------- ----- ---- -------<br>--- --- -- ----- -- --- ---- -- --- ---- -- ------ ------<br>--- ----- -- ----,134638.23500007857,134636.0800000839,134181.515,134196.96000008844,134224.5,134648.099,,32,you
screen,html.Screen,1_1_0_1_33,2021-04-26T12:40:41.172Z,,,,,,,,,,,,,,,,53,,,,,,,,,,,,,,418.8810000032536,,response,,,,99,,,,,,,Space,keypress(Space),,,,,,,,---- -- ----- -- ------ - ------- --- ----------<br>------------- ------ ------ ---- ---- ------- ----- -- ----<br>-------- ------- -- ---------- --- - --- ----- ----- ----<br>---- --- --- ----- --- feel ---- ------- ----- ---- -------<br>--- --- -- ----- -- --- ---- -- --- ---- -- ------ ------<br>--- ----- -- ----,135068.05500003975,135066.98000000324,134631.413,134638.5200000368,134648.099,135081.349,,33,feel
screen,html.Screen,1_1_0_1_34,2021-04-26T12:40:41.997Z,,,,,,,,,,,,,,,,53,,,,,,,,,,,,,,810.081000076083,,response,,,,99,,,,,,,Space,keypress(Space),,,,,,,,---- -- ----- -- ------ - ------- --- ----------<br>------------- ------ ------ ---- ---- ------- ----- -- ----<br>-------- ------- -- ---------- --- - --- ----- ----- ----<br>---- --- --- ----- --- ---- that ------- ----- ---- -------<br>--- --- -- ----- -- --- ---- -- --- ---- -- ------ ------<br>--- ----- -- ----,135892.99000008032,135891.43000007607,135064.735,135068.38000006974,135081.349,135897.743,,34,that
screen,html.Screen,1_1_0_1_35,2021-04-26T12:40:42.910Z,,,,,,,,,,,,,,,,53,,,,,,,,,,,,,,907.2920000849117,,response,,,,99,,,,,,,Space,keypress(Space),,,,,,,,---- -- ----- -- ------ - ------- --- ----------<br>------------- ------ ------ ---- ---- ------- ----- -- ----<br>-------- ------- -- ---------- --- - --- ----- ----- ----<br>---- --- --- ----- --- ---- ---- matters ----- ---- -------<br>--- --- -- ----- -- --- ---- -- --- ---- -- ------ ------<br>--- ----- -- ----,136806.1549999984,136805.0350000849,135881.309,135893.24000000488,135897.743,136814.446,,35,matters
screen,html.Screen,1_1_0_1_36,2021-04-26T12:40:43.288Z,,,,,,,,,,,,,,,,53,,,,,,,,,,,,,,368.18900009198114,,response,,,,99,,,,,,,Space,keypress(Space),,,,,,,,"---- -- ----- -- ------ - ------- --- ----------<br>------------- ------ ------ ---- ---- ------- ----- -- ----<br>-------- ------- -- ---------- --- - --- ----- ----- ----<br>---- --- --- ----- --- ---- ---- ------- most, ---- -------<br>--- --- -- ----- -- --- ---- -- --- ---- -- ------ ------<br>--- ----- -- ----",137184.2750000069,137182.63500009198,136797.853,136806.41000007745,136814.446,137197.724,,36,"most,"
screen,html.Screen,1_1_0_1_37,2021-04-26T12:40:43.771Z,,,,,,,,,,,,,,,,53,,,,,,,,,,,,,,467.7710000811494,,response,,,,99,,,,,,,Space,keypress(Space),,,,,,,,---- -- ----- -- ------ - ------- --- ----------<br>------------- ------ ------ ---- ---- ------- ----- -- ----<br>-------- ------- -- ---------- --- - --- ----- ----- ----<br>---- --- --- ----- --- ---- ---- ------- ----- it's -------<br>--- --- -- ----- -- --- ---- -- --- ---- -- ------ ------<br>--- ----- -- ----,137667.06000000704,137665.49500008114,137181.065,137184.54000004567,137197.724,137681.064,,37,it's
screen,html.Screen,1_1_0_1_38,2021-04-26T12:40:44.195Z,,,,,,,,,,,,,,,,53,,,,,,,,,,,,,,409.09100009989925,,response,,,,99,,,,,,,Space,keypress(Space),,,,,,,,---- -- ----- -- ------ - ------- --- ----------<br>------------- ------ ------ ---- ---- ------- ----- -- ----<br>-------- ------- -- ---------- --- - --- ----- ----- ----<br>---- --- --- ----- --- ---- ---- ------- ----- ---- whether<br>--- --- -- ----- -- --- ---- -- --- ---- -- ------ ------<br>--- ----- -- ----,138091.37500007637,138090.1550000999,137664.353,137667.30500000995,137681.064,138097.498,,38,whether
screen,html.Screen,1_1_0_1_39,2021-04-26T12:40:44.562Z,,,,,,,,,,,,,,,,53,,,,,,,,,,,,,,359.8320000047388,,response,,,,99,,,,,,,Space,keypress(Space),,,,,,,,---- -- ----- -- ------ - ------- --- ----------<br>------------- ------ ------ ---- ---- ------- ----- -- ----<br>-------- ------- -- ---------- --- - --- ----- ----- ----<br>---- --- --- ----- --- ---- ---- ------- ----- ---- -------<br>you --- -- ----- -- --- ---- -- --- ---- -- ------ ------<br>--- ----- -- ----,138458.47000007052,138457.33000000473,138080.942,138091.68000007048,138097.498,138464.008,,39,you
screen,html.Screen,1_1_0_1_40,2021-04-26T12:40:44.930Z,,,,,,,,,,,,,,,,53,,,,,,,,,,,,,,361.177000081545,,response,,,,99,,,,,,,Space,keypress(Space),,,,,,,,---- -- ----- -- ------ - ------- --- ----------<br>------------- ------ ------ ---- ---- ------- ----- -- ----<br>-------- ------- -- ---------- --- - --- ----- ----- ----<br>---- --- --- ----- --- ---- ---- ------- ----- ---- -------<br>--- are -- ----- -- --- ---- -- --- ---- -- ------ ------<br>--- ----- -- ----,138826.55500003602,138825.18500008155,138447.538,138458.71500007343,138464.008,138830.61,,40,are
screen,html.Screen,1_1_0_1_41,2021-04-26T12:40:45.315Z,,,,,,,,,,,,,,,,53,,,,,,,,,,,,,,379.3100000520935,,response,,,,99,,,,,,,Space,keypress(Space),,,,,,,,---- -- ----- -- ------ - ------- --- ----------<br>------------- ------ ------ ---- ---- ------- ----- -- ----<br>-------- ------- -- ---------- --- - --- ----- ----- ----<br>---- --- --- ----- --- ---- ---- ------- ----- ---- -------<br>--- --- as ----- -- --- ---- -- --- ---- -- ------ ------<br>--- ----- -- ----,139211.08999999706,139209.92000005208,138814.094,138826.83000003453,138830.61,139213.943,,41,as
screen,html.Screen,1_1_0_1_42,2021-04-26T12:40:45.667Z,,,,,,,,,,,,,,,,53,,,,,,,,,,,,,,347.9470000117726,,response,,,,99,,,,,,,Space,keypress(Space),,,,,,,,---- -- ----- -- ------ - ------- --- ----------<br>------------- ------ ------ ---- ---- ------- ----- -- ----<br>-------- ------- -- ---------- --- - --- ----- ----- ----<br>---- --- --- ----- --- ---- ---- ------- ----- ---- -------<br>--- --- -- close -- --- ---- -- --- ---- -- ------ ------<br>--- ----- -- ----,139563.18000005558,139561.89000001177,139197.418,139211.36499999557,139213.943,139580.679,,42,close
screen,html.Screen,1_1_0_1_43,2021-04-26T12:40:46.020Z,,,,,,,,,,,,,,,,53,,,,,,,,,,,,,,334.886000032071,,response,,,,99,,,,,,,Space,keypress(Space),,,,,,,,---- -- ----- -- ------ - ------- --- ----------<br>------------- ------ ------ ---- ---- ------- ----- -- ----<br>-------- ------- -- ---------- --- - --- ----- ----- ----<br>---- --- --- ----- --- ---- ---- ------- ----- ---- -------<br>--- --- -- ----- as --- ---- -- --- ---- -- ------ ------<br>--- ----- -- ----,139916.6350000305,139915.56500003207,139564.019,139563.49000008777,139580.679,139930.668,,43,as
screen,html.Screen,1_1_0_1_44,2021-04-26T12:40:46.367Z,,,,,,,,,,,,,,,,53,,,,,,,,,,,,,,331.38700005743885,,response,,,,99,,,,,,,Space,keypress(Space),,,,,,,,---- -- ----- -- ------ - ------- --- ----------<br>------------- ------ ------ ---- ---- ------- ----- -- ----<br>-------- ------- -- ---------- --- - --- ----- ----- ----<br>---- --- --- ----- --- ---- ---- ------- ----- ---- -------<br>--- --- -- ----- -- you ---- -- --- ---- -- ------ ------<br>--- ----- -- ----,140263.38000001851,140262.05500005744,139913.963,139916.8650000356,139930.668,140280.644,,44,you
screen,html.Screen,1_1_0_1_45,2021-04-26T12:40:46.738Z,,,,,,,,,,,,,,,,53,,,,,,,,,,,,,,351.601000102557,,response,,,,99,,,,,,,Space,keypress(Space),,,,,,,,---- -- ----- -- ------ - ------- --- ----------<br>------------- ------ ------ ---- ---- ------- ----- -- ----<br>-------- ------- -- ---------- --- - --- ----- ----- ----<br>---- --- --- ----- --- ---- ---- ------- ----- ---- -------<br>--- --- -- ----- -- --- want -- --- ---- -- ------ ------<br>--- ----- -- ----,140633.91000009142,140632.24500010256,140263.9,140263.77000007778,140280.644,140647.208,,45,want
screen,html.Screen,1_1_0_1_46,2021-04-26T12:40:47.087Z,,,,,,,,,,,,,,,,53,,,,,,,,,,,,,,334.9970000075118,,response,,,,99,,,,,,,Space,keypress(Space),,,,,,,,---- -- ----- -- ------ - ------- --- ----------<br>------------- ------ ------ ---- ---- ------- ----- -- ----<br>-------- ------- -- ---------- --- - --- ----- ----- ----<br>---- --- --- ----- --- ---- ---- ------- ----- ---- -------<br>--- --- -- ----- -- --- ---- to --- ---- -- ------ ------<br>--- ----- -- ----,140983.20000001695,140982.20500000753,140630.546,140634.18500008993,140647.208,140997.176,,46,to
screen,html.Screen,1_1_0_1_47,2021-04-26T12:40:47.444Z,,,,,,,,,,,,,,,,53,,,,,,,,,,,,,,341.1040000253997,,response,,,,99,,,,,,,Space,keypress(Space),,,,,,,,"---- -- ----- -- ------ - ------- --- ----------<br>------------- ------ ------ ---- ---- ------- ----- -- ----<br>-------- ------- -- ---------- --- - --- ----- ----- ----<br>---- --- --- ----- --- ---- ---- ------- ----- ---- -------<br>--- --- -- ----- -- --- ---- -- be, ---- -- ------ ------<br>--- ----- -- ----",141339.81000003405,141338.2800000254,140980.383,140983.49500005133,140997.176,141347.117,,47,"be,"
screen,html.Screen,1_1_0_1_48,2021-04-26T12:40:47.797Z,,,,,,,,,,,,,,,,53,,,,,,,,,,,,,,344.768000094773,,response,,,,99,,,,,,,Space,keypress(Space),,,,,,,,---- -- ----- -- ------ - ------- --- ----------<br>------------- ------ ------ ---- ---- ------- ----- -- ----<br>-------- ------- -- ---------- --- - --- ----- ----- ----<br>---- --- --- ----- --- ---- ---- ------- ----- ---- -------<br>--- --- -- ----- -- --- ---- -- --- even -- ------ ------<br>--- ----- -- ----,141692.89000006393,141691.88500009477,141330.42,141340.04999999888,141347.117,141696.801,,48,even
screen,html.Screen,1_1_0_1_49,2021-04-26T12:40:48.149Z,,,,,,,,,,,,,,,,53,,,,,,,,,,,,,,347.01900002078037,,response,,,,99,,,,,,,Space,keypress(Space),,,,,,,,---- -- ----- -- ------ - ------- --- ----------<br>------------- ------ ------ ---- ---- ------- ----- -- ----<br>-------- ------- -- ---------- --- - --- ----- ----- ----<br>---- --- --- ----- --- ---- ---- ------- ----- ---- -------<br>--- --- -- ----- -- --- ---- -- --- ---- if ------ ------<br>--- ----- -- ----,142044.91500009317,142043.8200000208,141680.348,141693.1249999907,141696.801,142066.881,,49,if
screen,html.Screen,1_1_0_1_50,2021-04-26T12:40:48.498Z,,,,,,,,,,,,,,,,53,,,,,,,,,,,,,,326.25400002027163,,response,,,,99,,,,,,,Space,keypress(Space),,,,,,,,---- -- ----- -- ------ - ------- --- ----------<br>------------- ------ ------ ---- ---- ------- ----- -- ----<br>-------- ------- -- ---------- --- - --- ----- ----- ----<br>---- --- --- ----- --- ---- ---- ------- ----- ---- -------<br>--- --- -- ----- -- --- ---- -- --- ---- -- that's ------<br>--- ----- -- ----,142394.29000008386,142393.13500002027,142030.292,142045.17500009388,142066.881,142396.708,,50,that's
screen,html.Screen,1_1_0_1_51,2021-04-26T12:40:48.847Z,,,,,,,,,,,,,,,,53,,,,,,,,,,,,,,345.0320000849606,,response,,,,99,,,,,,,Space,keypress(Space),,,,,,,,---- -- ----- -- ------ - ------- --- ----------<br>------------- ------ ------ ---- ---- ------- ----- -- ----<br>-------- ------- -- ---------- --- - --- ----- ----- ----<br>---- --- --- ----- --- ---- ---- ------- ----- ---- -------<br>--- --- -- ----- -- --- ---- -- --- ---- -- ------ really<br>--- ----- -- ----,142742.7800000878,142741.74000008497,142380.204,142394.5300000487,142396.708,142746.628,,51,really
screen,html.Screen,1_1_0_1_52,2021-04-26T12:40:49.208Z,,,,,,,,,,,,,,,,53,,,,,,,,,,,,,,356.7420000261918,,response,,,,99,,,,,,,Space,keypress(Space),,,,,,,,---- -- ----- -- ------ - ------- --- ----------<br>------------- ------ ------ ---- ---- ------- ----- -- ----<br>-------- ------- -- ---------- --- - --- ----- ----- ----<br>---- --- --- ----- --- ---- ---- ------- ----- ---- -------<br>--- --- -- ----- -- --- ---- -- --- ---- -- ------ ------<br>not ----- -- ----,143104.61999999825,143103.3700000262,142730.188,142743.0250000907,142746.628,143113.624,,52,not
screen,html.Screen,1_1_0_1_53,2021-04-26T12:40:49.570Z,,,,,,,,,,,,,,,,53,,,,,,,,,,,,,,351.1910000721109,,response,,,,99,,,,,,,Space,keypress(Space),,,,,,,,---- -- ----- -- ------ - ------- --- ----------<br>------------- ------ ------ ---- ---- ------- ----- -- ----<br>-------- ------- -- ---------- --- - --- ----- ----- ----<br>---- --- --- ----- --- ---- ---- ------- ----- ---- -------<br>--- --- -- ----- -- --- ---- -- --- ---- -- ------ ------<br>--- close -- ----,143466.155000031,143464.81500007212,143096.804,143104.88500003703,143113.624,143480.091,,53,close
screen,html.Screen,1_1_0_1_54,2021-04-26T12:40:49.916Z,,,,,,,,,,,,,,,,53,,,,,,,,,,,,,,330.799000080704,,response,,,,99,,,,,,,Space,keypress(Space),,,,,,,,---- -- ----- -- ------ - ------- --- ----------<br>------------- ------ ------ ---- ---- ------- ----- -- ----<br>-------- ------- -- ---------- --- - --- ----- ----- ----<br>---- --- --- ----- --- ---- ---- ------- ----- ---- -------<br>--- --- -- ----- -- --- ---- -- --- ---- -- ------ ------<br>--- ----- at ----,143812.15000001248,143810.8900000807,143463.378,143466.43999998923,143480.091,143830.522,,54,at
screen,html.Screen,1_1_0_1_55,2021-04-26T12:40:50.292Z,,,,,,,,,,,,,,,,53,,,,,,,,,,,,,,356.8080001025228,,response,,,,99,,,,,,,Space,keypress(Space),,,,,,,,---- -- ----- -- ------ - ------- --- ----------<br>------------- ------ ------ ---- ---- ------- ----- -- ----<br>-------- ------- -- ---------- --- - --- ----- ----- ----<br>---- --- --- ----- --- ---- ---- ------- ----- ---- -------<br>--- --- -- ----- -- --- ---- -- --- ---- -- ------ ------<br>--- ----- -- all.,144188.35000006948,144187.33000010252,143796.721,143812.38000001758,143830.522,144196.446,,55,all.
Item 99,flow.Loop,1_1_0_1,2021-04-26T12:40:50.293Z,,,,,,,,,,,,,,,,,,,,,,,,,,,,,,28969.544000102527,,completion,,,,,A,,,,,,,,,,,silence,,,,,144188.83500003722,144187.33000010252,115167.858,115170.71500001475,115217.786,144196.446,,,
Question 1,html.Screen,1_1_0_2,2021-04-26T12:40:53.720Z,,,,,,,,,,,,,,,,,,,,,,,,,,,true,FALSE,,3417.6390000083484,,response,,,,99,A,,,,,,FALSE,click #choice-2,,,,silence,,,,,147616.2450000411,147614.08500000834,144179.939,144189.04500000644,144196.446,147629.241,,,
Question 2,html.Screen,1_1_0_3,2021-04-26T12:40:57.841Z,,,,,,,,,,,,,,,,,,,,,,,,,,,true,TRUE,,4105.639000003604,,response,,,,99,A,,,,,,TRUE,click #choice-1,,,,silence,,,,,151736.9100000942,151734.8800000036,147612.767,147616.52999999933,147629.241,151745.242,,,
Item 99,flow.Sequence,1_1_0,2021-04-26T12:40:57.841Z,,,,,,,,,,,,,,,,,,,,,,,,,,,,,,46542.67500000361,,completion,,,,,,,,,,,,,,,,,,,,,151737.3099999968,151734.8800000036,105152.819,105179.36000006739,105192.205,151745.242,,,
Holding screen,html.Screen,1_1_1_0,2021-04-26T12:41:07.832Z,,,,,,,,,,,,,,,,,,,,,,,,,,,,,,9998.741999999998,,timeout,,,,,,,,,,,,,,,,,,,,,161728.535000002,161727.131,151728.728,151737.53500008024,151745.242,161743.984,,,
screen,html.Screen,1_1_1_1_0,2021-04-26T12:41:08.680Z,,,,,,,,,,,,,,,,54,,,,,,,,,,,,,,831.4310000866535,,response,,,,100,,,,,,,Space,keypress(Space),,,,,,,,At --- ---- --- ------ ----- ------- ---- -- --- ------- --<br>------- ---------- ------ -- ----- -- ----- -- ---- ------<br>--- ----- --- --- ------ -------- ----- --- ------ ----- --<br>----- ----- ---------- --- --- ------ ------ ---- -- ------<br>------- --- ------ ----- --- ---- ------- -- ---- --- --<br>------- ------,162576.64000010118,162575.41500008665,161727.131,161728.9050000254,161743.984,162593.668,,0,At
screen,html.Screen,1_1_1_1_1,2021-04-26T12:41:09.039Z,,,,,,,,,,,,,,,,54,,,,,,,,,,,,,,340.28700001497054,,response,,,,100,,,,,,,Space,keypress(Space),,,,,,,,-- the ---- --- ------ ----- ------- ---- -- --- ------- --<br>------- ---------- ------ -- ----- -- ----- -- ---- ------<br>--- ----- --- --- ------ -------- ----- --- ------ ----- --<br>----- ----- ---------- --- --- ------ ------ ---- -- ------<br>------- --- ------ ----- --- ---- ------- -- ---- --- --<br>------- ------,162934.97500009835,162933.95500001498,162577.068,162577.0950000733,162593.668,162943.636,,1,the
screen,html.Screen,1_1_1_1_2,2021-04-26T12:41:09.494Z,,,,,,,,,,,,,,,,54,,,,,,,,,,,,,,445.4390000718995,,response,,,,100,,,,,,,Space,keypress(Space),,,,,,,,-- --- time --- ------ ----- ------- ---- -- --- ------- --<br>------- ---------- ------ -- ----- -- ----- -- ---- ------<br>--- ----- --- --- ------ -------- ----- --- ------ ----- --<br>----- ----- ---------- --- --- ------ ------ ---- -- ------<br>------- --- ------ ----- --- ---- ------- -- ---- --- --<br>------- ------,163390.149999992,163389.0750000719,162927.003,162935.22000010125,162943.636,163393.42,,2,time
screen,html.Screen,1_1_1_1_3,2021-04-26T12:41:09.994Z,,,,,,,,,,,,,,,,54,,,,,,,,,,,,,,495.4600001004583,,response,,,,100,,,,,,,Space,keypress(Space),,,,,,,,-- --- ---- the ------ ----- ------- ---- -- --- ------- --<br>------- ---------- ------ -- ----- -- ----- -- ---- ------<br>--- ----- --- --- ------ -------- ----- --- ------ ----- --<br>----- ----- ---------- --- --- ------ ------ ---- -- ------<br>------- --- ------ ----- --- ---- ------- -- ---- --- --<br>------- ------,163890.09000000078,163888.88000010047,163376.863,163390.37500007544,163393.42,163893.364,,3,the
screen,html.Screen,1_1_1_1_4,2021-04-26T12:41:10.531Z,,,,,,,,,,,,,,,,54,,,,,,,,,,,,,,533.0160000771866,,response,,,,100,,,,,,,Space,keypress(Space),,,,,,,,-- --- ---- --- French ----- ------- ---- -- --- ------- --<br>------- ---------- ------ -- ----- -- ----- -- ---- ------<br>--- ----- --- --- ------ -------- ----- --- ------ ----- --<br>----- ----- ---------- --- --- ------ ------ ---- -- ------<br>------- --- ------ ----- --- ---- ------- -- ---- --- --<br>------- ------,164427.5450001005,164426.3800000772,163876.776,163890.3799999971,163893.364,164443.436,,4,French
screen,html.Screen,1_1_1_1_5,2021-04-26T12:41:11.092Z,,,,,,,,,,,,,,,,54,,,,,,,,,,,,,,543.7240000187885,,response,,,,100,,,,,,,Space,keypress(Space),,,,,,,,-- --- ---- --- ------ crown ------- ---- -- --- ------- --<br>------- ---------- ------ -- ----- -- ----- -- ---- ------<br>--- ----- --- --- ------ -------- ----- --- ------ ----- --<br>----- ----- ---------- --- --- ------ ------ ---- -- ------<br>------- --- ------ ----- --- ---- ------- -- ---- --- --<br>------- ------,164988.36499999743,164987.16000001878,164426.751,164427.84000001848,164443.436,164993.182,,5,crown
screen,html.Screen,1_1_1_1_6,2021-04-26T12:41:11.630Z,,,,,,,,,,,,,,,,54,,,,,,,,,,,,,,531.9680000013032,,response,,,,100,,,,,,,Space,keypress(Space),,,,,,,,-- --- ---- --- ------ ----- secured ---- -- --- ------- --<br>------- ---------- ------ -- ----- -- ----- -- ---- ------<br>--- ----- --- --- ------ -------- ----- --- ------ ----- --<br>----- ----- ---------- --- --- ------ ------ ---- -- ------<br>------- --- ------ ----- --- ---- ------- -- ---- --- --<br>------- ------,165526.4100000495,165525.1500000013,164976.701,164988.6000000406,164993.182,165543.185,,6,secured
screen,html.Screen,1_1_1_1_7,2021-04-26T12:41:12.096Z,,,,,,,,,,,,,,,,54,,,,,,,,,,,,,,447.5850000330829,,response,,,,100,,,,,,,Space,keypress(Space),,,,,,,,-- --- ---- --- ------ ----- ------- much -- --- ------- --<br>------- ---------- ------ -- ----- -- ----- -- ---- ------<br>--- ----- --- --- ------ -------- ----- --- ------ ----- --<br>----- ----- ---------- --- --- ------ ------ ---- -- ------<br>------- --- ------ ----- --- ---- ------- -- ---- --- --<br>------- ------,165991.8600000674,165990.77000003308,165526.545,165526.7200000817,165543.185,166023.119,,7,much
screen,html.Screen,1_1_1_1_8,2021-04-26T12:41:12.467Z,,,,,,,,,,,,,,,,54,,,,,,,,,,,,,,338.7960000158637,,response,,,,100,,,,,,,Space,keypress(Space),,,,,,,,-- --- ---- --- ------ ----- ------- ---- of --- ------- --<br>------- ---------- ------ -- ----- -- ----- -- ---- ------<br>--- ----- --- --- ------ -------- ----- --- ------ ----- --<br>----- ----- ---------- --- --- ------ ------ ---- -- ------<br>------- --- ------ ----- --- ---- ------- -- ---- --- --<br>------- ------,166362.99000005238,166361.91500001587,165976.484,165992.13000002783,166023.119,166376.471,,8,of
screen,html.Screen,1_1_1_1_9,2021-04-26T12:41:12.736Z,,,,,,,,,,,,,,,,54,,,,,,,,,,,,,,254.07900000168593,,response,,,,100,,,,,,,Space,keypress(Space),,,,,,,,-- --- ---- --- ------ ----- ------- ---- -- its ------- --<br>------- ---------- ------ -- ----- -- ----- -- ---- ------<br>--- ----- --- --- ------ -------- ----- --- ------ ----- --<br>----- ----- ---------- --- --- ------ ------ ---- -- ------<br>------- --- ------ ----- --- ---- ------- -- ---- --- --<br>------- ------,166631.85000000522,166630.55000000168,166359.688,166363.27500001062,166376.471,166643.057,,9,its
screen,html.Screen,1_1_1_1_10,2021-04-26T12:41:13.820Z,,,,,,,,,,,,,,,,54,,,,,,,,,,,,,,1071.7430000743188,,response,,,,100,,,,,,,Space,keypress(Space),,,,,,,,-- --- ---- --- ------ ----- ------- ---- -- --- revenue --<br>------- ---------- ------ -- ----- -- ----- -- ---- ------<br>--- ----- --- --- ------ -------- ----- --- ------ ----- --<br>----- ----- ---------- --- --- ------ ------ ---- -- ------<br>------- --- ------ ----- --- ---- ------- -- ---- --- --<br>------- ------,167716.01000009105,167714.80000007432,166626.404,166632.15499999933,166643.057,167726.191,,10,revenue
screen,html.Screen,1_1_1_1_11,2021-04-26T12:41:14.191Z,,,,,,,,,,,,,,,,54,,,,,,,,,,,,,,359.8790000776062,,response,,,,100,,,,,,,Space,keypress(Space),,,,,,,,-- --- ---- --- ------ ----- ------- ---- -- --- ------- by<br>------- ---------- ------ -- ----- -- ----- -- ---- ------<br>--- ----- --- --- ------ -------- ----- --- ------ ----- --<br>----- ----- ---------- --- --- ------ ------ ---- -- ------<br>------- --- ------ ----- --- ---- ------- -- ---- --- --<br>------- ------,168087.27000001818,168086.0700000776,167709.586,167716.27000009175,167726.191,168092.581,,11,by
screen,html.Screen,1_1_1_1_12,2021-04-26T12:41:14.552Z,,,,,,,,,,,,,,,,54,,,,,,,,,,,,,,354.51899999030866,,response,,,,100,,,,,,,Space,keypress(Space),,,,,,,,-- --- ---- --- ------ ----- ------- ---- -- --- ------- --<br>issuing ---------- ------ -- ----- -- ----- -- ---- ------<br>--- ----- --- --- ------ -------- ----- --- ------ ----- --<br>----- ----- ---------- --- --- ------ ------ ---- -- ------<br>------- --- ------ ----- --- ---- ------- -- ---- --- --<br>------- ------,168448.29500000924,168447.0999999903,168076.128,168087.52500009723,168092.581,168459.462,,12,issuing
screen,html.Screen,1_1_1_1_13,2021-04-26T12:41:14.907Z,,,,,,,,,,,,,,,,54,,,,,,,,,,,,,,343.0580000265618,,response,,,,100,,,,,,,Space,keypress(Space),,,,,,,,-- --- ---- --- ------ ----- ------- ---- -- --- ------- --<br>------- government ------ -- ----- -- ----- -- ---- ------<br>--- ----- --- --- ------ -------- ----- --- ------ ----- --<br>----- ----- ---------- --- --- ------ ------ ---- -- ------<br>------- --- ------ ----- --- ---- ------- -- ---- --- --<br>------- ------,168803.58000006527,168802.52000002656,168442.75,168448.53000005241,168459.462,168809.23,,13,government
screen,html.Screen,1_1_1_1_14,2021-04-26T12:41:15.255Z,,,,,,,,,,,,,,,,54,,,,,,,,,,,,,,341.0800000554591,,response,,,,100,,,,,,,Space,keypress(Space),,,,,,,,-- --- ---- --- ------ ----- ------- ---- -- --- ------- --<br>------- ---------- bonds. -- ----- -- ----- -- ---- ------<br>--- ----- --- --- ------ -------- ----- --- ------ ----- --<br>----- ----- ---------- --- --- ------ ------ ---- -- ------<br>------- --- ------ ----- --- ---- ------- -- ---- --- --<br>------- ------,169151.53000003193,169150.31000005547,168792.679,168803.86000010185,168809.23,169159.27,,14,bonds.
screen,html.Screen,1_1_1_1_15,2021-04-26T12:41:15.639Z,,,,,,,,,,,,,,,,54,,,,,,,,,,,,,,374.8950000773475,,response,,,,100,,,,,,,Space,keypress(Space),,,,,,,,-- --- ---- --- ------ ----- ------- ---- -- --- ------- --<br>------- ---------- ------ In ----- -- ----- -- ---- ------<br>--- ----- --- --- ------ -------- ----- --- ------ ----- --<br>----- ----- ---------- --- --- ------ ------ ---- -- ------<br>------- --- ------ ----- --- ---- ------- -- ---- --- --<br>------- ------,169535.36500001792,169534.16500007734,169142.578,169151.79000003263,169159.27,169542.357,,15,In
screen,html.Screen,1_1_1_1_16,2021-04-26T12:41:17.274Z,,,,,,,,,,,,,,,,54,,,,,,,,,,,,,,1626.4280001035368,,response,,,,100,,,,,,,Space,keypress(Space),,,,,,,,"-- --- ---- --- ------ ----- ------- ---- -- --- ------- --<br>------- ---------- ------ -- 1727, -- ----- -- ---- ------<br>--- ----- --- --- ------ -------- ----- --- ------ ----- --<br>----- ----- ---------- --- --- ------ ------ ---- -- ------<br>------- --- ------ ----- --- ---- ------- -- ---- --- --<br>------- ------",171169.93000009097,171168.78500010353,169525.923,169535.68000008818,169542.357,171175.494,,16,"1727,"
screen,html.Screen,1_1_1_1_17,2021-04-26T12:41:17.792Z,,,,,,,,,,,,,,,,54,,,,,,,,,,,,,,511.06600006012013,,response,,,,100,,,,,,,Space,keypress(Space),,,,,,,,-- --- ---- --- ------ ----- ------- ---- -- --- ------- --<br>------- ---------- ------ -- ----- in ----- -- ---- ------<br>--- ----- --- --- ------ -------- ----- --- ------ ----- --<br>----- ----- ---------- --- --- ------ ------ ---- -- ------<br>------- --- ------ ----- --- ---- ------- -- ---- --- --<br>------- ------,171687.7450000029,171686.56000006013,171159.086,171170.19000009168,171175.494,171692.13,,17,in
screen,html.Screen,1_1_1_1_18,2021-04-26T12:41:18.225Z,,,,,,,,,,,,,,,,54,,,,,,,,,,,,,,427.4400000971509,,response,,,,100,,,,,,,Space,keypress(Space),,,,,,,,-- --- ---- --- ------ ----- ------- ---- -- --- ------- --<br>------- ---------- ------ -- ----- -- order -- ---- ------<br>--- ----- --- --- ------ -------- ----- --- ------ ----- --<br>----- ----- ---------- --- --- ------ ------ ---- -- ------<br>------- --- ------ ----- --- ---- ------- -- ---- --- --<br>------- ------,172120.6700000912,172119.57000009716,171675.581,171688.0250000395,171692.13,172125.376,,18,order
screen,html.Screen,1_1_1_1_19,2021-04-26T12:41:18.776Z,,,,,,,,,,,,,,,,54,,,,,,,,,,,,,,545.3290000550332,,response,,,,100,,,,,,,Space,keypress(Space),,,,,,,,-- --- ---- --- ------ ----- ------- ---- -- --- ------- --<br>------- ---------- ------ -- ----- -- ----- to ---- ------<br>--- ----- --- --- ------ -------- ----- --- ------ ----- --<br>----- ----- ---------- --- --- ------ ------ ---- -- ------<br>------- --- ------ ----- --- ---- ------- -- ---- --- --<br>------- ------,172671.96500010323,172670.70500005502,172108.838,172120.92000001576,172125.376,172675.197,,19,to
screen,html.Screen,1_1_1_1_20,2021-04-26T12:41:19.203Z,,,,,,,,,,,,,,,,54,,,,,,,,,,,,,,422.35300006408943,,response,,,,100,,,,,,,Space,keypress(Space),,,,,,,,-- --- ---- --- ------ ----- ------- ---- -- --- ------- --<br>------- ---------- ------ -- ----- -- ----- -- save ------<br>--- ----- --- --- ------ -------- ----- --- ------ ----- --<br>----- ----- ---------- --- --- ------ ------ ---- -- ------<br>------- --- ------ ----- --- ---- ------- -- ---- --- --<br>------- ------,173098.72000000905,173097.55000006407,172658.707,172672.2300000256,172675.197,173108.67,,20,save
screen,html.Screen,1_1_1_1_21,2021-04-26T12:41:19.719Z,,,,,,,,,,,,,,,,54,,,,,,,,,,,,,,505.2350000347069,,response,,,,100,,,,,,,Space,keypress(Space),,,,,,,,"-- --- ---- --- ------ ----- ------- ---- -- --- ------- --<br>------- ---------- ------ -- ----- -- ----- -- ---- money,<br>--- ----- --- --- ------ -------- ----- --- ------ ----- --<br>----- ----- ---------- --- --- ------ ------ ---- -- ------<br>------- --- ------ ----- --- ---- ------- -- ---- --- --<br>------- ------",173615.07000005804,173613.90500003472,173091.954,173098.95500005223,173108.67,173625.301,,21,"money,"
screen,html.Screen,1_1_1_1_22,2021-04-26T12:41:20.202Z,,,,,,,,,,,,,,,,54,,,,,,,,,,,,,,471.6690000714443,,response,,,,100,,,,,,,Space,keypress(Space),,,,,,,,-- --- ---- --- ------ ----- ------- ---- -- --- ------- --<br>------- ---------- ------ -- ----- -- ----- -- ---- ------<br>the ----- --- --- ------ -------- ----- --- ------ ----- --<br>----- ----- ---------- --- --- ------ ------ ---- -- ------<br>------- --- ------ ----- --- ---- ------- -- ---- --- --<br>------- ------,174098.6550000962,174096.97000007145,173608.645,173615.33000005875,173625.301,174108.407,,22,the
screen,html.Screen,1_1_1_1_23,2021-04-26T12:41:20.599Z,,,,,,,,,,,,,,,,54,,,,,,,,,,,,,,385.2230000408599,,response,,,,100,,,,,,,Space,keypress(Space),,,,,,,,-- --- ---- --- ------ ----- ------- ---- -- --- ------- --<br>------- ---------- ------ -- ----- -- ----- -- ---- ------<br>--- state --- --- ------ -------- ----- --- ------ ----- --<br>----- ----- ---------- --- --- ------ ------ ---- -- ------<br>------- --- ------ ----- --- ---- ------- -- ---- --- --<br>------- ------,174494.81500010006,174493.63000004087,174091.854,174098.9750000881,174108.407,174508.466,,23,state
screen,html.Screen,1_1_1_1_24,2021-04-26T12:41:20.999Z,,,,,,,,,,,,,,,,54,,,,,,,,,,,,,,385.1890000216954,,response,,,,100,,,,,,,Space,keypress(Space),,,,,,,,-- --- ---- --- ------ ----- ------- ---- -- --- ------- --<br>------- ---------- ------ -- ----- -- ----- -- ---- ------<br>--- ----- cut --- ------ -------- ----- --- ------ ----- --<br>----- ----- ---------- --- --- ------ ------ ---- -- ------<br>------- --- ------ ----- --- ---- ------- -- ---- --- --<br>------- ------,174894.81500000693,174893.65500002168,174491.77,174495.05000002682,174508.466,174908.405,,24,cut
screen,html.Screen,1_1_1_1_25,2021-04-26T12:41:21.425Z,,,,,,,,,,,,,,,,54,,,,,,,,,,,,,,411.8100000724953,,response,,,,100,,,,,,,Space,keypress(Space),,,,,,,,-- --- ---- --- ------ ----- ------- ---- -- --- ------- --<br>------- ---------- ------ -- ----- -- ----- -- ---- ------<br>--- ----- --- the ------ -------- ----- --- ------ ----- --<br>----- ----- ---------- --- --- ------ ------ ---- -- ------<br>------- --- ------ ----- --- ---- ------- -- ---- --- --<br>------- ------,175321.52500003576,175320.2150000725,174891.733,174895.12500003912,174908.405,175324.791,,25,the
screen,html.Screen,1_1_1_1_26,2021-04-26T12:41:21.869Z,,,,,,,,,,,,,,,,54,,,,,,,,,,,,,,438.94900008218247,,response,,,,100,,,,,,,Space,keypress(Space),,,,,,,,-- --- ---- --- ------ ----- ------- ---- -- --- ------- --<br>------- ---------- ------ -- ----- -- ----- -- ---- ------<br>--- ----- --- --- bonds' -------- ----- --- ------ ----- --<br>----- ----- ---------- --- --- ------ ------ ---- -- ------<br>------- --- ------ ----- --- ---- ------- -- ---- --- --<br>------- ------,175764.91000002716,175763.74000008218,175308.301,175321.8549999874,175324.791,175774.946,,26,bonds'
screen,html.Screen,1_1_1_1_27,2021-04-26T12:41:22.439Z,,,,,,,,,,,,,,,,54,,,,,,,,,,,,,,559.1840000902303,,response,,,,100,,,,,,,Space,keypress(Space),,,,,,,,-- --- ---- --- ------ ----- ------- ---- -- --- ------- --<br>------- ---------- ------ -- ----- -- ----- -- ---- ------<br>--- ----- --- --- ------ interest ----- --- ------ ----- --<br>----- ----- ---------- --- --- ------ ------ ---- -- ------<br>------- --- ------ ----- --- ---- ------- -- ---- --- --<br>------- ------,176335.09499998763,176334.13000009023,175758.271,175765.31000004616,175774.946,176341.307,,27,interest
screen,html.Screen,1_1_1_1_28,2021-04-26T12:41:22.820Z,,,,,,,,,,,,,,,,54,,,,,,,,,,,,,,373.2880000267469,,response,,,,100,,,,,,,Space,keypress(Space),,,,,,,,-- --- ---- --- ------ ----- ------- ---- -- --- ------- --<br>------- ---------- ------ -- ----- -- ----- -- ---- ------<br>--- ----- --- --- ------ -------- rate. --- ------ ----- --<br>----- ----- ---------- --- --- ------ ------ ---- -- ------<br>------- --- ------ ----- --- ---- ------- -- ---- --- --<br>------- ------,176716.13000007346,176714.59500002675,176324.829,176335.39000002202,176341.307,176724.633,,28,rate.
screen,html.Screen,1_1_1_1_29,2021-04-26T12:41:23.248Z,,,,,,,,,,,,,,,,54,,,,,,,,,,,,,,418.32700008471147,,response,,,,100,,,,,,,Space,keypress(Space),,,,,,,,-- --- ---- --- ------ ----- ------- ---- -- --- ------- --<br>------- ---------- ------ -- ----- -- ----- -- ---- ------<br>--- ----- --- --- ------ -------- ----- The ------ ----- --<br>----- ----- ---------- --- --- ------ ------ ---- -- ------<br>------- --- ------ ----- --- ---- ------- -- ---- --- --<br>------- ------,177143.91000010073,177142.9600000847,176708.041,176716.36500000022,176724.633,177158.097,,29,The
screen,html.Screen,1_1_1_1_30,2021-04-26T12:41:23.622Z,,,,,,,,,,,,,,,,54,,,,,,,,,,,,,,358.8280000035302,,response,,,,100,,,,,,,Space,keypress(Space),,,,,,,,-- --- ---- --- ------ ----- ------- ---- -- --- ------- --<br>------- ---------- ------ -- ----- -- ----- -- ---- ------<br>--- ----- --- --- ------ -------- ----- --- market ----- --<br>----- ----- ---------- --- --- ------ ------ ---- -- ------<br>------- --- ------ ----- --- ---- ------- -- ---- --- --<br>------- ------,177518.19000008982,177516.92500000354,177141.353,177144.21000005677,177158.097,177524.572,,30,market
screen,html.Screen,1_1_1_1_31,2021-04-26T12:41:24.111Z,,,,,,,,,,,,,,,,54,,,,,,,,,,,,,,481.18800008733524,,response,,,,100,,,,,,,Space,keypress(Space),,,,,,,,-- --- ---- --- ------ ----- ------- ---- -- --- ------- --<br>------- ---------- ------ -- ----- -- ----- -- ---- ------<br>--- ----- --- --- ------ -------- ----- --- ------ value --<br>----- ----- ---------- --- --- ------ ------ ---- -- ------<br>------- --- ------ ----- --- ---- ------- -- ---- --- --<br>------- ------,178007.01000005938,178005.76000008732,177507.968,177518.42500001658,177524.572,178024.564,,31,value
screen,html.Screen,1_1_1_1_32,2021-04-26T12:41:24.536Z,,,,,,,,,,,,,,,,54,,,,,,,,,,,,,,406.1410000643227,,response,,,,100,,,,,,,Space,keypress(Space),,,,,,,,-- --- ---- --- ------ ----- ------- ---- -- --- ------- --<br>------- ---------- ------ -- ----- -- ----- -- ---- ------<br>--- ----- --- --- ------ -------- ----- --- ------ ----- of<br>----- ----- ---------- --- --- ------ ------ ---- -- ------<br>------- --- ------ ----- --- ---- ------- -- ---- --- --<br>------- ------,178431.70000007376,178430.70500006434,178007.862,178007.39500008058,178024.564,178441.192,,32,of
screen,html.Screen,1_1_1_1_33,2021-04-26T12:41:24.976Z,,,,,,,,,,,,,,,,54,,,,,,,,,,,,,,429.44800009558094,,response,,,,100,,,,,,,Space,keypress(Space),,,,,,,,-- --- ---- --- ------ ----- ------- ---- -- --- ------- --<br>------- ---------- ------ -- ----- -- ----- -- ---- ------<br>--- ----- --- --- ------ -------- ----- --- ------ ----- --<br>these ----- ---------- --- --- ------ ------ ---- -- ------<br>------- --- ------ ----- --- ---- ------- -- ---- --- --<br>------- ------,178871.78500008304,178870.6400000956,178424.485,178431.96499999613,178441.192,178874.275,,33,these
screen,html.Screen,1_1_1_1_34,2021-04-26T12:41:25.381Z,,,,,,,,,,,,,,,,54,,,,,,,,,,,,,,401.6050000883697,,response,,,,100,,,,,,,Space,keypress(Space),,,,,,,,-- --- ---- --- ------ ----- ------- ---- -- --- ------- --<br>------- ---------- ------ -- ----- -- ----- -- ---- ------<br>--- ----- --- --- ------ -------- ----- --- ------ ----- --<br>----- bonds ---------- --- --- ------ ------ ---- -- ------<br>------- --- ------ ----- --- ---- ------- -- ---- --- --<br>------- ------,179277.16000005603,179275.88000008836,178857.749,178872.06000008155,178874.275,179291.106,,34,bonds
screen,html.Screen,1_1_1_1_35,2021-04-26T12:41:25.811Z,,,,,,,,,,,,,,,,54,,,,,,,,,,,,,,414.31400001296424,,response,,,,100,,,,,,,Space,keypress(Space),,,,,,,,"-- --- ---- --- ------ ----- ------- ---- -- --- ------- --<br>------- ---------- ------ -- ----- -- ----- -- ---- ------<br>--- ----- --- --- ------ -------- ----- --- ------ ----- --<br>----- ----- plummeted, --- --- ------ ------ ---- -- ------<br>------- --- ------ ----- --- ---- ------- -- ---- --- --<br>------- ------",179706.70000009704,179705.42000001296,179274.284,179277.4250000948,179291.106,179724.256,,35,"plummeted,"
screen,html.Screen,1_1_1_1_36,2021-04-26T12:41:26.265Z,,,,,,,,,,,,,,,,54,,,,,,,,,,,,,,435.84400009555975,,response,,,,100,,,,,,,Space,keypress(Space),,,,,,,,-- --- ---- --- ------ ----- ------- ---- -- --- ------- --<br>------- ---------- ------ -- ----- -- ----- -- ---- ------<br>--- ----- --- --- ------ -------- ----- --- ------ ----- --<br>----- ----- ---------- and --- ------ ------ ---- -- ------<br>------- --- ------ ----- --- ---- ------- -- ---- --- --<br>------- ------,180161.4450000925,180160.10000009555,179707.668,179707.0300000487,179724.256,180174.18,,36,and
screen,html.Screen,1_1_1_1_37,2021-04-26T12:41:26.672Z,,,,,,,,,,,,,,,,54,,,,,,,,,,,,,,392.3800000647898,,response,,,,100,,,,,,,Space,keypress(Space),,,,,,,,-- --- ---- --- ------ ----- ------- ---- -- --- ------- --<br>------- ---------- ------ -- ----- -- ----- -- ---- ------<br>--- ----- --- --- ------ -------- ----- --- ------ ----- --<br>----- ----- ---------- --- the ------ ------ ---- -- ------<br>------- --- ------ ----- --- ---- ------- -- ---- --- --<br>------- ------,180567.76000000536,180566.56000006478,180157.569,180161.81499999948,180174.18,180573.981,,37,the
screen,html.Screen,1_1_1_1_38,2021-04-26T12:41:27.134Z,,,,,,,,,,,,,,,,54,,,,,,,,,,,,,,455.4840000287222,,response,,,,100,,,,,,,Space,keypress(Space),,,,,,,,-- --- ---- --- ------ ----- ------- ---- -- --- ------- --<br>------- ---------- ------ -- ----- -- ----- -- ---- ------<br>--- ----- --- --- ------ -------- ----- --- ------ ----- --<br>----- ----- ---------- --- --- market ------ ---- -- ------<br>------- --- ------ ----- --- ---- ------- -- ---- --- --<br>------- ------,181030.58000002056,181029.46500002872,180557.453,180568.00500000827,180573.981,181040.755,,38,market
screen,html.Screen,1_1_1_1_39,2021-04-26T12:41:27.515Z,,,,,,,,,,,,,,,,54,,,,,,,,,,,,,,368.7049999953015,,response,,,,100,,,,,,,Space,keypress(Space),,,,,,,,-- --- ---- --- ------ ----- ------- ---- -- --- ------- --<br>------- ---------- ------ -- ----- -- ----- -- ---- ------<br>--- ----- --- --- ------ -------- ----- --- ------ ----- --<br>----- ----- ---------- --- --- ------ became ---- -- ------<br>------- --- ------ ----- --- ---- ------- -- ---- --- --<br>------- ------,181410.7550000772,181409.4599999953,181024.068,181030.81000002567,181040.755,181424.014,,39,became
screen,html.Screen,1_1_1_1_40,2021-04-26T12:41:27.899Z,,,,,,,,,,,,,,,,54,,,,,,,,,,,,,,370.05600006176974,,response,,,,100,,,,,,,Space,keypress(Space),,,,,,,,-- --- ---- --- ------ ----- ------- ---- -- --- ------- --<br>------- ---------- ------ -- ----- -- ----- -- ---- ------<br>--- ----- --- --- ------ -------- ----- --- ------ ----- --<br>----- ----- ---------- --- --- ------ ------ wary -- ------<br>------- --- ------ ----- --- ---- ------- -- ---- --- --<br>------- ------,181795.20500008948,181794.07000006177,181407.378,181411.14000009838,181424.014,181807.354,,40,wary
screen,html.Screen,1_1_1_1_41,2021-04-26T12:41:28.243Z,,,,,,,,,,,,,,,,54,,,,,,,,,,,,,,331.03600009466754,,response,,,,100,,,,,,,Space,keypress(Space),,,,,,,,-- --- ---- --- ------ ----- ------- ---- -- --- ------- --<br>------- ---------- ------ -- ----- -- ----- -- ---- ------<br>--- ----- --- --- ------ -------- ----- --- ------ ----- --<br>----- ----- ---------- --- --- ------ ------ ---- of ------<br>------- --- ------ ----- --- ---- ------- -- ---- --- --<br>------- ------,182139.45000001695,182138.39000009466,181790.56,181795.4500000924,181807.354,182170.377,,41,of
screen,html.Screen,1_1_1_1_42,2021-04-26T12:41:28.652Z,,,,,,,,,,,,,,,,54,,,,,,,,,,,,,,377.1380001002399,,response,,,,100,,,,,,,Space,keypress(Space),,,,,,,,-- --- ---- --- ------ ----- ------- ---- -- --- ------- --<br>------- ---------- ------ -- ----- -- ----- -- ---- ------<br>--- ----- --- --- ------ -------- ----- --- ------ ----- --<br>----- ----- ---------- --- --- ------ ------ ---- -- French<br>------- --- ------ ----- --- ---- ------- -- ---- --- --<br>------- ------,182548.67000004742,182547.51500010025,182123.944,182139.68000002205,182170.377,182557.158,,42,French
screen,html.Screen,1_1_1_1_43,2021-04-26T12:41:29.041Z,,,,,,,,,,,,,,,,54,,,,,,,,,,,,,,378.7270000426215,,response,,,,100,,,,,,,Space,keypress(Space),,,,,,,,-- --- ---- --- ------ ----- ------- ---- -- --- ------- --<br>------- ---------- ------ -- ----- -- ----- -- ---- ------<br>--- ----- --- --- ------ -------- ----- --- ------ ----- --<br>----- ----- ---------- --- --- ------ ------ ---- -- ------<br>credit. --- ------ ----- --- ---- ------- -- ---- --- --<br>------- ------,182937.14000005275,182935.88500004262,182540.463,182548.9050000906,182557.158,182940.241,,43,credit.
screen,html.Screen,1_1_1_1_44,2021-04-26T12:41:29.418Z,,,,,,,,,,,,,,,,54,,,,,,,,,,,,,,372.5090000409691,,response,,,,100,,,,,,,Space,keypress(Space),,,,,,,,-- --- ---- --- ------ ----- ------- ---- -- --- ------- --<br>------- ---------- ------ -- ----- -- ----- -- ---- ------<br>--- ----- --- --- ------ -------- ----- --- ------ ----- --<br>----- ----- ---------- --- --- ------ ------ ---- -- ------<br>------- The ------ ----- --- ---- ------- -- ---- --- --<br>------- ------,183313.99500009138,183312.75000004098,182923.722,182937.41500005126,182940.241,183323.698,,44,The
screen,html.Screen,1_1_1_1_45,2021-04-26T12:41:29.786Z,,,,,,,,,,,,,,,,54,,,,,,,,,,,,,,357.12200000867597,,response,,,,100,,,,,,,Space,keypress(Space),,,,,,,,-- --- ---- --- ------ ----- ------- ---- -- --- ------- --<br>------- ---------- ------ -- ----- -- ----- -- ---- ------<br>--- ----- --- --- ------ -------- ----- --- ------ ----- --<br>----- ----- ---------- --- --- ------ ------ ---- -- ------<br>------- --- French ----- --- ---- ------- -- ---- --- --<br>------- ------,183681.96499999613,183680.82000000868,183307.019,183314.26000001375,183323.698,183690.33,,45,French
screen,html.Screen,1_1_1_1_46,2021-04-26T12:41:30.269Z,,,,,,,,,,,,,,,,54,,,,,,,,,,,,,,473.940000066621,,response,,,,100,,,,,,,Space,keypress(Space),,,,,,,,-- --- ---- --- ------ ----- ------- ---- -- --- ------- --<br>------- ---------- ------ -- ----- -- ----- -- ---- ------<br>--- ----- --- --- ------ -------- ----- --- ------ ----- --<br>----- ----- ---------- --- --- ------ ------ ---- -- ------<br>------- --- ------ state --- ---- ------- -- ---- --- --<br>------- ------,184165.62500002328,184164.2700000666,183673.7,183682.23500007298,183690.33,184173.49,,46,state
screen,html.Screen,1_1_1_1_47,2021-04-26T12:41:30.595Z,,,,,,,,,,,,,,,,54,,,,,,,,,,,,,,316.46499999728985,,response,,,,100,,,,,,,Space,keypress(Space),,,,,,,,-- --- ---- --- ------ ----- ------- ---- -- --- ------- --<br>------- ---------- ------ -- ----- -- ----- -- ---- ------<br>--- ----- --- --- ------ -------- ----- --- ------ ----- --<br>----- ----- ---------- --- --- ------ ------ ---- -- ------<br>------- --- ------ ----- was ---- ------- -- ---- --- --<br>------- ------,184491.2900000345,184489.95499999728,184156.907,184165.89500010014,184173.49,184506.916,,47,was
screen,html.Screen,1_1_1_1_48,2021-04-26T12:41:30.978Z,,,,,,,,,,,,,,,,54,,,,,,,,,,,,,,366.15400008877623,,response,,,,100,,,,,,,Space,keypress(Space),,,,,,,,-- --- ---- --- ------ ----- ------- ---- -- --- ------- --<br>------- ---------- ------ -- ----- -- ----- -- ---- ------<br>--- ----- --- --- ------ -------- ----- --- ------ ----- --<br>----- ----- ---------- --- --- ------ ------ ---- -- ------<br>------- --- ------ ----- --- left ------- -- ---- --- --<br>------- ------,184874.47000003885,184873.07000008877,184490.122,184491.57499999274,184506.916,184890.145,,48,left
screen,html.Screen,1_1_1_1_49,2021-04-26T12:41:31.309Z,,,,,,,,,,,,,,,,54,,,,,,,,,,,,,,313.75500008047675,,response,,,,100,,,,,,,Space,keypress(Space),,,,,,,,-- --- ---- --- ------ ----- ------- ---- -- --- ------- --<br>------- ---------- ------ -- ----- -- ----- -- ---- ------<br>--- ----- --- --- ------ -------- ----- --- ------ ----- --<br>----- ----- ---------- --- --- ------ ------ ---- -- ------<br>------- --- ------ ----- --- ---- without -- ---- --- --<br>------- ------,185205.04999998957,185203.90000008047,184873.478,184874.82000002638,184890.145,185227.922,,49,without
screen,html.Screen,1_1_1_1_50,2021-04-26T12:41:31.664Z,,,,,,,,,,,,,,,,54,,,,,,,,,,,,,,330.8580000794318,,response,,,,100,,,,,,,Space,keypress(Space),,,,,,,,-- --- ---- --- ------ ----- ------- ---- -- --- ------- --<br>------- ---------- ------ -- ----- -- ----- -- ---- ------<br>--- ----- --- --- ------ -------- ----- --- ------ ----- --<br>----- ----- ---------- --- --- ------ ------ ---- -- ------<br>------- --- ------ ----- --- ---- ------- an ---- --- --<br>------- ------,185559.85499999952,185558.78000007942,185190.065,185205.38000005763,185227.922,185573.44,,50,an
screen,html.Screen,1_1_1_1_51,2021-04-26T12:41:32.047Z,,,,,,,,,,,,,,,,54,,,,,,,,,,,,,,368.26000008307165,,response,,,,100,,,,,,,Space,keypress(Space),,,,,,,,-- --- ---- --- ------ ----- ------- ---- -- --- ------- --<br>------- ---------- ------ -- ----- -- ----- -- ---- ------<br>--- ----- --- --- ------ -------- ----- --- ------ ----- --<br>----- ----- ---------- --- --- ------ ------ ---- -- ------<br>------- --- ------ ----- --- ---- ------- -- easy --- --<br>------- ------,185942.83000007272,185941.70000008307,185556.681,185560.1500000339,185573.44,185956.689,,51,easy
screen,html.Screen,1_1_1_1_52,2021-04-26T12:41:32.389Z,,,,,,,,,,,,,,,,54,,,,,,,,,,,,,,327.71600004215725,,response,,,,100,,,,,,,Space,keypress(Space),,,,,,,,-- --- ---- --- ------ ----- ------- ---- -- --- ------- --<br>------- ---------- ------ -- ----- -- ----- -- ---- ------<br>--- ----- --- --- ------ -------- ----- --- ------ ----- --<br>----- ----- ---------- --- --- ------ ------ ---- -- ------<br>------- --- ------ ----- --- ---- ------- -- ---- way --<br>------- ------,186285.66500009038,186284.40500004217,185939.97,185943.16000002436,185956.689,186289.831,,52,way
screen,html.Screen,1_1_1_1_53,2021-04-26T12:41:32.733Z,,,,,,,,,,,,,,,,54,,,,,,,,,,,,,,338.68900002748705,,response,,,,100,,,,,,,Space,keypress(Space),,,,,,,,-- --- ---- --- ------ ----- ------- ---- -- --- ------- --<br>------- ---------- ------ -- ----- -- ----- -- ---- ------<br>--- ----- --- --- ------ -------- ----- --- ------ ----- --<br>----- ----- ---------- --- --- ------ ------ ---- -- ------<br>------- --- ------ ----- --- ---- ------- -- ---- --- of<br>------- ------,186629.66500001494,186628.5200000275,186273.273,186285.99500004202,186289.831,186639.864,,53,of
screen,html.Screen,1_1_1_1_54,2021-04-26T12:41:33.091Z,,,,,,,,,,,,,,,,54,,,,,,,,,,,,,,346.43100006791065,,response,,,,100,,,,,,,Space,keypress(Space),,,,,,,,-- --- ---- --- ------ ----- ------- ---- -- --- ------- --<br>------- ---------- ------ -- ----- -- ----- -- ---- ------<br>--- ----- --- --- ------ -------- ----- --- ------ ----- --<br>----- ----- ---------- --- --- ------ ------ ---- -- ------<br>------- --- ------ ----- --- ---- ------- -- ---- --- --<br>raising ------,186987.43500001729,186986.2950000679,186623.181,186629.9050000962,186639.864,186989.582,,54,raising
screen,html.Screen,1_1_1_1_55,2021-04-26T12:41:33.496Z,,,,,,,,,,,,,,,,54,,,,,,,,,,,,,,401.87300003360724,,response,,,,100,,,,,,,Space,keypress(Space),,,,,,,,-- --- ---- --- ------ ----- ------- ---- -- --- ------- --<br>------- ---------- ------ -- ----- -- ----- -- ---- ------<br>--- ----- --- --- ------ -------- ----- --- ------ ----- --<br>----- ----- ---------- --- --- ------ ------ ---- -- ------<br>------- --- ------ ----- --- ---- ------- -- ---- --- --<br>------- money.,187392.45000004303,187391.4550000336,186973.082,186987.6800000202,186989.582,187406.174,,55,money.
Item 100,flow.Loop,1_1_1_1,2021-04-26T12:41:33.497Z,,,,,,,,,,,,,,,,,,,,,,,,,,,,,,25647.471000033605,,completion,,,,,A,,,,,,,,,,,silence,,,,,187392.83500006422,187391.4550000336,161727.131,161728.82499999832,161743.984,187406.174,,,
Question 1,html.Screen,1_1_1_2,2021-04-26T12:41:36.040Z,,,,,,,,,,,,,,,,,,,,,,,,,,,true,TRUE,,2527.286000087508,,response,,,,100,A,,,,,,TRUE,click #choice-1,,,,silence,,,,,189935.79000001773,189933.4600000875,187389.663,187392.99500000197,187406.174,189939.101,,,
Question 2,html.Screen,1_1_1_3,2021-04-26T12:41:38.169Z,,,,,,,,,,,,,,,,,,,,,,,,,,,true,FALSE,,2124.7739999925543,,response,,,,100,A,,,,,,FALSE,click #choice-2,,,,silence,,,,,192065.53500005975,192063.87499999255,189922.627,189936.12500000745,189939.101,192072.133,,,
Item 100,flow.Sequence,1_1_1,2021-04-26T12:41:38.170Z,,,,,,,,,,,,,,,,,,,,,,,,,,,,,,40318.63299999255,,completion,,,,,,,,,,,,,,,,,,,,,192066.0950000165,192063.87499999255,151728.728,151737.4800000107,151745.242,192072.133,,,
End of Practice,html.Page,1_1_2,2021-04-26T12:41:42.297Z,,,,,,,,,,,,,,,,,,,,,,,,,,,,,,4120.5670000141545,,form submission,,,,,,,,,,,,,,,,,,,,,196193.21500009391,196192.70000001416,192055.62,192066.3100000238,192072.133,196205.157,,,
Practice,flow.Sequence,1_1,2021-04-26T12:41:42.297Z,,,,,,,,,,,,,,,,,,,,,,,,,,,,,,91000.49500001415,,completion,,,,,,,,,,,,,,,,,,,,,196193.6149999965,196192.70000001416,105152.819,105179.28000004031,105192.205,196205.157,,,
Trap_instruction,html.Page,1_2_0,2021-04-26T12:41:46.464Z,,,,,,,,,,,,,,,,,,,,,,,,,,,,,,4154.398000090034,,form submission,,,,,,,,,,,,,,,,,,,,,200360.0350000197,200359.55500009004,196188.358,196193.87000007555,196205.157,200404.241,,,
trap_trial,html.Screen,1_2_1,2021-04-26T12:41:50.354Z,,,,,,,,,,,,,,,,,,,,,,,,,,,true,1,,3843.919000075577,,response,,,,,,,,,,,1,click #choice-1,,,,,,,,,204249.82000002638,204248.1600000756,200354.34,200360.27500010096,200404.241,204253.496,,,
end of trap trial,html.Page,1_2_2,2021-04-26T12:41:52.067Z,,,,,,,,,,,,,,,,,,,,,,,,,,,,,,1709.2640000239771,,form submission,,,,,,,,,,,,,,,,,,,,,205963.22999999393,205962.760000024,204237.002,204250.33000006806,204253.496,205969.893,,,
Trap 1,flow.Sequence,1_2,2021-04-26T12:41:52.067Z,,,,,,,,,,,,,,,,,,,,,,,,,,,,,,9757.603000023984,,completion,,,,,,,,,,,,,,,,,,,,,205963.57000002172,205962.760000024,196188.358,196193.8000000082,196205.157,205969.893,,,
Standby,html.Page,1_3_0,2021-04-26T12:42:00.057Z,,,,,,,,,,,,,,,,,,,,,,,,,,,,,,7998.864000000001,,timeout,,,,,,,,,,,,,,,,,,,,,213953.1100000022,213951.999,205953.377,205963.7900000671,205969.893,213968.757,,,
Holding screen,html.Screen,1_3_1_0_0,2021-04-26T12:42:07.057Z,,,,,,,,,,,,,,,,,,,,,,,,,,,,,,6999.039999999979,,timeout,,,,,,,,,,,,,,,,,,,,,220952.85500003956,220951.03,213951.999,213953.42500007246,213968.757,220967.797,,,
screen,html.Screen,1_3_1_0_1_0,2021-04-26T12:42:07.930Z,,,,,,,,,,,,,,,,48,,,,,,,,,,,,,,856.638000075036,,response,,,,10,A,,,,,,Space,keypress(Space),,,,silence,,,,As -- --- ------ ------- --------- ----------- --------<br>--------- -------- --- ------- -- ------- ---- -- ------<br>-- --- -------- -------- ---------- ---- ---- ---- ------<br>-- --------- -- ---- -- --- -- --- ------- -- - -----<br>---------- -- -- -- ---- ----- -- ------ -- --- ------<br>-------,221825.87000005879,221824.43500007503,220951.03,220953.2800000161,220967.797,221834.326,,0,As
screen,html.Screen,1_3_1_0_1_1,2021-04-26T12:42:08.370Z,,,,,,,,,,,,,,,,48,,,,,,,,,,,,,,431.0740000329679,,response,,,,10,A,,,,,,Space,keypress(Space),,,,silence,,,,-- in --- ------ ------- --------- ----------- --------<br>--------- -------- --- ------- -- ------- ---- -- ------<br>-- --- -------- -------- ---------- ---- ---- ---- ------<br>-- --------- -- ---- -- --- -- --- ------- -- - -----<br>---------- -- -- -- ---- ----- -- ------ -- --- ------<br>-------,222266.49499998894,222265.40000003297,221817.662,221826.21000008658,221834.326,222300.957,,1,in
screen,html.Screen,1_3_1_0_1_2,2021-04-26T12:42:08.756Z,,,,,,,,,,,,,,,,48,,,,,,,,,,,,,,350.2830000356189,,response,,,,10,A,,,,,,Space,keypress(Space),,,,silence,,,,-- -- the ------ ------- --------- ----------- --------<br>--------- -------- --- ------- -- ------- ---- -- ------<br>-- --- -------- -------- ---------- ---- ---- ---- ------<br>-- --------- -- ---- -- --- -- --- ------- -- - -----<br>---------- -- -- -- ---- ----- -- ------ -- --- ------<br>-------,222652.66500005964,222651.2400000356,222284.092,222266.7300000321,222300.957,222667.451,,2,the
screen,html.Screen,1_3_1_0_1_3,2021-04-26T12:42:09.224Z,,,,,,,,,,,,,,,,48,,,,,,,,,,,,,,451.08900005405303,,response,,,,10,A,,,,,,Space,keypress(Space),,,,silence,,,,-- -- --- United ------- --------- ----------- --------<br>--------- -------- --- ------- -- ------- ---- -- ------<br>-- --- -------- -------- ---------- ---- ---- ---- ------<br>-- --------- -- ---- -- --- -- --- ------- -- - -----<br>---------- -- -- -- ---- ----- -- ------ -- --- ------<br>-------,223119.91000000853,223118.54000005405,222650.739,222652.90000010282,222667.451,223134.046,,3,United
screen,html.Screen,1_3_1_0_1_4,2021-04-26T12:42:09.849Z,,,,,,,,,,,,,,,,48,,,,,,,,,,,,,,609.619000074541,,response,,,,10,A,,,,,,Space,keypress(Space),,,,silence,,,,"-- -- --- ------ States, --------- ----------- --------<br>--------- -------- --- ------- -- ------- ---- -- ------<br>-- --- -------- -------- ---------- ---- ---- ---- ------<br>-- --------- -- ---- -- --- -- --- ------- -- - -----<br>---------- -- -- -- ---- ----- -- ------ -- --- ------<br>-------",223744.80000010226,223743.66500007454,223117.397,223120.16500008758,223134.046,223750.475,,4,"States,"
screen,html.Screen,1_3_1_0_1_5,2021-04-26T12:42:10.273Z,,,,,,,,,,,,,,,,48,,,,,,,,,,,,,,417.7100000750215,,response,,,,10,A,,,,,,Space,keypress(Space),,,,silence,,,,-- -- --- ------ ------- Colombian ----------- --------<br>--------- -------- --- ------- -- ------- ---- -- ------<br>-- --- -------- -------- ---------- ---- ---- ---- ------<br>-- --------- -- ---- -- --- -- --- ------- -- - -----<br>---------- -- -- -- ---- ----- -- ------ -- --- ------<br>-------,224169.62500009686,224168.18500007503,223733.985,223745.08000002243,223750.475,224183.945,,5,Colombian
screen,html.Screen,1_3_1_0_1_6,2021-04-26T12:42:10.739Z,,,,,,,,,,,,,,,,48,,,,,,,,,,,,,,450.1550000247662,,response,,,,10,A,,,,,,Space,keypress(Space),,,,silence,,,,-- -- --- ------ ------- --------- legislation --------<br>--------- -------- --- ------- -- ------- ---- -- ------<br>-- --- -------- -------- ---------- ---- ---- ---- ------<br>-- --------- -- ---- -- --- -- --- ------- -- - -----<br>---------- -- -- -- ---- ----- -- ------ -- --- ------<br>-------,224634.87499998882,224634.10000002477,224167.187,224169.8800000595,224183.945,224650.429,,6,legislation
screen,html.Screen,1_3_1_0_1_7,2021-04-26T12:42:11.204Z,,,,,,,,,,,,,,,,48,,,,,,,,,,,,,,448.3809999958612,,response,,,,10,A,,,,,,Space,keypress(Space),,,,silence,,,,-- -- --- ------ ------- --------- ----------- requires<br>--------- -------- --- ------- -- ------- ---- -- ------<br>-- --- -------- -------- ---------- ---- ---- ---- ------<br>-- --------- -- ---- -- --- -- --- ------- -- - -----<br>---------- -- -- -- ---- ----- -- ------ -- --- ------<br>-------,225100.1900000265,225098.80999999586,224633.869,224635.05500007886,224650.429,225117.043,,7,requires
screen,html.Screen,1_3_1_0_1_8,2021-04-26T12:42:11.660Z,,,,,,,,,,,,,,,,48,,,,,,,,,,,,,,438.0569999977597,,response,,,,10,A,,,,,,Space,keypress(Space),,,,silence,,,,-- -- --- ------ ------- --------- ----------- --------<br>travelers -------- --- ------- -- ------- ---- -- ------<br>-- --- -------- -------- ---------- ---- ---- ---- ------<br>-- --------- -- ---- -- --- -- --- ------- -- - -----<br>---------- -- -- -- ---- ----- -- ------ -- --- ------<br>-------,225556.37500004377,225555.09999999776,225100.297,225100.53000005428,225117.043,225567.038,,8,travelers
screen,html.Screen,1_3_1_0_1_9,2021-04-26T12:42:12.093Z,,,,,,,,,,,,,,,,48,,,,,,,,,,,,,,420.45200008683605,,response,,,,10,A,,,,,,Space,keypress(Space),,,,silence,,,,-- -- --- ------ ------- --------- ----------- --------<br>--------- entering --- ------- -- ------- ---- -- ------<br>-- --- -------- -------- ---------- ---- ---- ---- ------<br>-- --------- -- ---- -- --- -- --- ------- -- - -----<br>---------- -- -- -- ---- ----- -- ------ -- --- ------<br>-------,225988.89000003692,225987.49000008684,225550.284,225556.64000008255,225567.038,226000.219,,9,entering
screen,html.Screen,1_3_1_0_1_10,2021-04-26T12:42:12.502Z,,,,,,,,,,,,,,,,48,,,,,,,,,,,,,,396.6760000125796,,response,,,,10,A,,,,,,Space,keypress(Space),,,,silence,,,,-- -- --- ------ ------- --------- ----------- --------<br>--------- -------- the ------- -- ------- ---- -- ------<br>-- --- -------- -------- ---------- ---- ---- ---- ------<br>-- --------- -- ---- -- --- -- --- ------- -- - -----<br>---------- -- -- -- ---- ----- -- ------ -- --- ------<br>-------,226397.90000009816,226396.8950000126,225983.549,225989.13500003982,226000.219,226400.03,,10,the
screen,html.Screen,1_3_1_0_1_11,2021-04-26T12:42:12.930Z,,,,,,,,,,,,,,,,48,,,,,,,,,,,,,,424.7900000962254,,response,,,,10,A,,,,,,Space,keypress(Space),,,,silence,,,,-- -- --- ------ ------- --------- ----------- --------<br>--------- -------- --- country -- ------- ---- -- ------<br>-- --- -------- -------- ---------- ---- ---- ---- ------<br>-- --------- -- ---- -- --- -- --- ------- -- - -----<br>---------- -- -- -- ---- ----- -- ------ -- --- ------<br>-------,226826.02500007488,226824.82000009622,226383.463,226398.19000009447,226400.03,226833.374,,11,country
screen,html.Screen,1_3_1_0_1_12,2021-04-26T12:42:13.311Z,,,,,,,,,,,,,,,,48,,,,,,,,,,,,,,372.39100007881643,,response,,,,10,A,,,,,,Space,keypress(Space),,,,silence,,,,-- -- --- ------ ------- --------- ----------- --------<br>--------- -------- --- ------- to ------- ---- -- ------<br>-- --- -------- -------- ---------- ---- ---- ---- ------<br>-- --------- -- ---- -- --- -- --- ------- -- - -----<br>---------- -- -- -- ---- ----- -- ------ -- --- ------<br>-------,227206.85499999672,227205.76500007883,226816.607,226826.25500007998,226833.374,227216.708,,12,to
screen,html.Screen,1_3_1_0_1_13,2021-04-26T12:42:13.650Z,,,,,,,,,,,,,,,,48,,,,,,,,,,,,,,328.027000003116,,response,,,,10,A,,,,,,Space,keypress(Space),,,,silence,,,,-- -- --- ------ ------- --------- ----------- --------<br>--------- -------- --- ------- -- declare ---- -- ------<br>-- --- -------- -------- ---------- ---- ---- ---- ------<br>-- --------- -- ---- -- --- -- --- ------- -- - -----<br>---------- -- -- -- ---- ----- -- ------ -- --- ------<br>-------,227545.93000002205,227544.73500000313,227200.02,227207.08500000183,227216.708,227549.785,,13,declare
screen,html.Screen,1_3_1_0_1_14,2021-04-26T12:42:14.014Z,,,,,,,,,,,,,,,,48,,,,,,,,,,,,,,359.56500008903095,,response,,,,10,A,,,,,,Space,keypress(Space),,,,silence,,,,-- -- --- ------ ------- --------- ----------- --------<br>--------- -------- --- ------- -- ------- cash -- ------<br>-- --- -------- -------- ---------- ---- ---- ---- ------<br>-- --------- -- ---- -- --- -- --- ------- -- - -----<br>---------- -- -- -- ---- ----- -- ------ -- --- ------<br>-------,227910.445000045,227909.35000008903,227533.232,227546.19500006083,227549.785,227916.39,,14,cash
screen,html.Screen,1_3_1_0_1_15,2021-04-26T12:42:14.599Z,,,,,,,,,,,,,,,,48,,,,,,,,,,,,,,577.6650000173831,,response,,,,10,A,,,,,,Space,keypress(Space),,,,silence,,,,-- -- --- ------ ------- --------- ----------- --------<br>--------- -------- --- ------- -- ------- ---- in ------<br>-- --- -------- -------- ---------- ---- ---- ---- ------<br>-- --------- -- ---- -- --- -- --- ------- -- - -----<br>---------- -- -- -- ---- ----- -- ------ -- --- ------<br>-------,228495.25999999605,228494.0550000174,227899.868,227910.68000008818,227916.39,228499.704,,15,in
screen,html.Screen,1_3_1_0_1_16,2021-04-26T12:42:15.178Z,,,,,,,,,,,,,,,,48,,,,,,,,,,,,,,573.9110000011569,,response,,,,10,A,,,,,,Space,keypress(Space),,,,silence,,,,-- -- --- ------ ------- --------- ----------- --------<br>--------- -------- --- ------- -- ------- ---- -- excess<br>-- --- -------- -------- ---------- ---- ---- ---- ------<br>-- --------- -- ---- -- --- -- --- ------- -- - -----<br>---------- -- -- -- ---- ----- -- ------ -- --- ------<br>-------,229074.72500007134,229073.61500000115,228483.175,228495.49500003923,228499.704,229083.074,,16,excess
screen,html.Screen,1_3_1_0_1_17,2021-04-26T12:42:15.558Z,,,,,,,,,,,,,,,,48,,,,,,,,,,,,,,369.611000025674,,response,,,,10,A,,,,,,Space,keypress(Space),,,,silence,,,,-- -- --- ------ ------- --------- ----------- --------<br>--------- -------- --- ------- -- ------- ---- -- ------<br>of --- -------- -------- ---------- ---- ---- ---- ------<br>-- --------- -- ---- -- --- -- --- ------- -- - -----<br>---------- -- -- -- ---- ----- -- ------ -- --- ------<br>-------,229453.9400000358,229452.68500002567,229066.432,229074.9599999981,229083.074,229466.386,,17,of
screen,html.Screen,1_3_1_0_1_18,2021-04-26T12:42:15.893Z,,,,,,,,,,,,,,,,48,,,,,,,,,,,,,,321.8640000996529,,response,,,,10,A,,,,,,Space,keypress(Space),,,,silence,,,,-- -- --- ------ ------- --------- ----------- --------<br>--------- -------- --- ------- -- ------- ---- -- ------<br>-- ten -------- -------- ---------- ---- ---- ---- ------<br>-- --------- -- ---- -- --- -- --- ------- -- - -----<br>---------- -- -- -- ---- ----- -- ------ -- --- ------<br>-------,229789.51000003144,229788.25000009965,229449.608,229454.26999998745,229466.386,229799.512,,18,ten
screen,html.Screen,1_3_1_0_1_19,2021-04-26T12:42:16.254Z,,,,,,,,,,,,,,,,48,,,,,,,,,,,,,,349.49800005194265,,response,,,,10,A,,,,,,Space,keypress(Space),,,,silence,,,,-- -- --- ------ ------- --------- ----------- --------<br>--------- -------- --- ------- -- ------- ---- -- ------<br>-- --- thousand -------- ---------- ---- ---- ---- ------<br>-- --------- -- ---- -- --- -- --- ------- -- - -----<br>---------- -- -- -- ---- ----- -- ------ -- --- ------<br>-------,230150.3950000042,230149.01000005193,229782.933,229789.77000003215,229799.512,230166.254,,19,thousand
screen,html.Screen,1_3_1_0_1_20,2021-04-26T12:42:17.323Z,,,,,,,,,,,,,,,,48,,,,,,,,,,,,,,1052.2460000754509,,response,,,,10,A,,,,,,Space,keypress(Space),,,,silence,,,,-- -- --- ------ ------- --------- ----------- --------<br>--------- -------- --- ------- -- ------- ---- -- ------<br>-- --- -------- dollars. ---------- ---- ---- ---- ------<br>-- --------- -- ---- -- --- -- --- ------- -- - -----<br>---------- -- -- -- ---- ----- -- ------ -- --- ------<br>-------,231219.66500009876,231218.50000007544,230149.611,230150.79000010155,230166.254,231232.779,,20,dollars.
screen,html.Screen,1_3_1_0_1_21,2021-04-26T12:42:17.857Z,,,,,,,,,,,,,,,,48,,,,,,,,,,,,,,519.1660000254342,,response,,,,10,A,,,,,,Space,keypress(Space),,,,silence,,,,-- -- --- ------ ------- --------- ----------- --------<br>--------- -------- --- ------- -- ------- ---- -- ------<br>-- --- -------- -------- Concealing ---- ---- ---- ------<br>-- --------- -- ---- -- --- -- --- ------- -- - -----<br>---------- -- -- -- ---- ----- -- ------ -- --- ------<br>-------,231753.14000004437,231751.94500002544,231216.105,231219.950000057,231232.779,231766.033,,21,Concealing
screen,html.Screen,1_3_1_0_1_22,2021-04-26T12:42:18.229Z,,,,,,,,,,,,,,,,48,,,,,,,,,,,,,,357.65700003673555,,response,,,,10,A,,,,,,Space,keypress(Space),,,,silence,,,,-- -- --- ------ ------- --------- ----------- --------<br>--------- -------- --- ------- -- ------- ---- -- ------<br>-- --- -------- -------- ---------- more ---- ---- ------<br>-- --------- -- ---- -- --- -- --- ------- -- - -----<br>---------- -- -- -- ---- ----- -- ------ -- --- ------<br>-------,232124.8950000154,232123.69000003673,231749.386,231753.4100000048,231766.033,232132.478,,22,more
screen,html.Screen,1_3_1_0_1_23,2021-04-26T12:42:18.580Z,,,,,,,,,,,,,,,,48,,,,,,,,,,,,,,342.3820000748383,,response,,,,10,A,,,,,,Space,keypress(Space),,,,silence,,,,-- -- --- ------ ------- --------- ----------- --------<br>--------- -------- --- ------- -- ------- ---- -- ------<br>-- --- -------- -------- ---------- ---- than ---- ------<br>-- --------- -- ---- -- --- -- --- ------- -- - -----<br>---------- -- -- -- ---- ----- -- ------ -- --- ------<br>-------,232475.99000006448,232474.86000007484,232115.95,232125.13500009663,232132.478,232482.326,,23,than
screen,html.Screen,1_3_1_0_1_24,2021-04-26T12:42:18.919Z,,,,,,,,,,,,,,,,48,,,,,,,,,,,,,,332.5140000063693,,response,,,,10,A,,,,,,Space,keypress(Space),,,,silence,,,,-- -- --- ------ ------- --------- ----------- --------<br>--------- -------- --- ------- -- ------- ---- -- ------<br>-- --- -------- -------- ---------- ---- ---- that ------<br>-- --------- -- ---- -- --- -- --- ------- -- - -----<br>---------- -- -- -- ---- ----- -- ------ -- --- ------<br>-------,232815.3900000034,232814.84000000637,232465.852,232476.3100000564,232482.326,232832.619,,24,that
screen,html.Screen,1_3_1_0_1_25,2021-04-26T12:42:19.314Z,,,,,,,,,,,,,,,,48,,,,,,,,,,,,,,376.6710000279709,,response,,,,10,A,,,,,,Space,keypress(Space),,,,silence,,,,-- -- --- ------ ------- --------- ----------- --------<br>--------- -------- --- ------- -- ------- ---- -- ------<br>-- --- -------- -------- ---------- ---- ---- ---- amount<br>-- --------- -- ---- -- --- -- --- ------- -- - -----<br>---------- -- -- -- ---- ----- -- ------ -- --- ------<br>-------,233210.715000052,233209.29000002798,232815.775,232815.5750000151,232832.619,233215.54,,25,amount
screen,html.Screen,1_3_1_0_1_26,2021-04-26T12:42:19.633Z,,,,,,,,,,,,,,,,48,,,,,,,,,,,,,,312.0549999922805,,response,,,,10,A,,,,,,Space,keypress(Space),,,,silence,,,,-- -- --- ------ ------- --------- ----------- --------<br>--------- -------- --- ------- -- ------- ---- -- ------<br>-- --- -------- -------- ---------- ---- ---- ---- ------<br>to --------- -- ---- -- --- -- --- ------- -- - -----<br>---------- -- -- -- ---- ----- -- ------ -- --- ------<br>-------,233528.7600000156,233527.5949999923,233199.082,233211.0250000842,233215.54,233532.161,,26,to
screen,html.Screen,1_3_1_0_1_27,2021-04-26T12:42:20.078Z,,,,,,,,,,,,,,,,48,,,,,,,,,,,,,,441.049000083789,,response,,,,10,A,,,,,,Space,keypress(Space),,,,silence,,,,-- -- --- ------ ------- --------- ----------- --------<br>--------- -------- --- ------- -- ------- ---- -- ------<br>-- --- -------- -------- ---------- ---- ---- ---- ------<br>-- transport -- ---- -- --- -- --- ------- -- - -----<br>---------- -- -- -- ---- ----- -- ------ -- --- ------<br>-------,233974.51500000898,233973.21000008378,233515.501,233529.00500001851,233532.161,233982.315,,27,transport
screen,html.Screen,1_3_1_0_1_28,2021-04-26T12:42:20.500Z,,,,,,,,,,,,,,,,48,,,,,,,,,,,,,,412.65500002301997,,response,,,,10,A,,,,,,Space,keypress(Space),,,,silence,,,,-- -- --- ------ ------- --------- ----------- --------<br>--------- -------- --- ------- -- ------- ---- -- ------<br>-- --- -------- -------- ---------- ---- ---- ---- ------<br>-- --------- it ---- -- --- -- --- ------- -- - -----<br>---------- -- -- -- ---- ----- -- ------ -- --- ------<br>-------,234396.03000006173,234394.97000002302,233965.59,233974.84500007704,233982.315,234398.676,,28,it
screen,html.Screen,1_3_1_0_1_29,2021-04-26T12:42:20.873Z,,,,,,,,,,,,,,,,48,,,,,,,,,,,,,,368.5940000693954,,response,,,,10,A,,,,,,Space,keypress(Space),,,,silence,,,,-- -- --- ------ ------- --------- ----------- --------<br>--------- -------- --- ------- -- ------- ---- -- ------<br>-- --- -------- -------- ---------- ---- ---- ---- ------<br>-- --------- -- into -- --- -- --- ------- -- - -----<br>---------- -- -- -- ---- ----- -- ------ -- --- ------<br>-------,234768.77000008244,234767.2700000694,234382.163,234396.28500002436,234398.676,234782.947,,29,into
screen,html.Screen,1_3_1_0_1_30,2021-04-26T12:42:21.213Z,,,,,,,,,,,,,,,,48,,,,,,,,,,,,,,324.5830000375281,,response,,,,10,A,,,,,,Space,keypress(Space),,,,silence,,,,-- -- --- ------ ------- --------- ----------- --------<br>--------- -------- --- ------- -- ------- ---- -- ------<br>-- --- -------- -------- ---------- ---- ---- ---- ------<br>-- --------- -- ---- or --- -- --- ------- -- - -----<br>---------- -- -- -- ---- ----- -- ------ -- --- ------<br>-------,235108.81500004325,235107.5300000375,234765.489,234770.7600001013,234782.947,235115.325,,30,or
screen,html.Screen,1_3_1_0_1_31,2021-04-26T12:42:21.601Z,,,,,,,,,,,,,,,,48,,,,,,,,,,,,,,380.2650000641006,,response,,,,10,A,,,,,,Space,keypress(Space),,,,silence,,,,-- -- --- ------ ------- --------- ----------- --------<br>--------- -------- --- ------- -- ------- ---- -- ------<br>-- --- -------- -------- ---------- ---- ---- ---- ------<br>-- --------- -- ---- -- out -- --- ------- -- - -----<br>---------- -- -- -- ---- ----- -- ------ -- --- ------<br>-------,235496.77000008523,235495.5900000641,235099.177,235109.14000007324,235115.325,235523.311,,31,out
screen,html.Screen,1_3_1_0_1_32,2021-04-26T12:42:21.936Z,,,,,,,,,,,,,,,,48,,,,,,,,,,,,,,307.4790000363719,,response,,,,10,A,,,,,,Space,keypress(Space),,,,silence,,,,-- -- --- ------ ------- --------- ----------- --------<br>--------- -------- --- ------- -- ------- ---- -- ------<br>-- --- -------- -------- ---------- ---- ---- ---- ------<br>-- --------- -- ---- -- --- of --- ------- -- - -----<br>---------- -- -- -- ---- ----- -- ------ -- --- ------<br>-------,235832.15999999084,235830.79000003636,235481.989,235497.0650000032,235523.311,235848.743,,32,of
screen,html.Screen,1_3_1_0_1_33,2021-04-26T12:42:22.286Z,,,,,,,,,,,,,,,,48,,,,,,,,,,,,,,332.8070000957523,,response,,,,10,A,,,,,,Space,keypress(Space),,,,silence,,,,-- -- --- ------ ------- --------- ----------- --------<br>--------- -------- --- ------- -- ------- ---- -- ------<br>-- --- -------- -------- ---------- ---- ---- ---- ------<br>-- --------- -- ---- -- --- -- the ------- -- - -----<br>---------- -- -- -- ---- ----- -- ------ -- --- ------<br>-------,236182.66500008758,236181.55000009574,235831.976,235832.51000009477,235848.743,236198.691,,33,the
screen,html.Screen,1_3_1_0_1_34,2021-04-26T12:42:22.649Z,,,,,,,,,,,,,,,,48,,,,,,,,,,,,,,345.1640000544721,,response,,,,10,A,,,,,,Space,keypress(Space),,,,silence,,,,-- -- --- ------ ------- --------- ----------- --------<br>--------- -------- --- ------- -- ------- ---- -- ------<br>-- --- -------- -------- ---------- ---- ---- ---- ------<br>-- --------- -- ---- -- --- -- --- country -- - -----<br>---------- -- -- -- ---- ----- -- ------ -- --- ------<br>-------,236544.93500001263,236543.85500005446,236181.919,236182.97500000335,236198.691,236548.34,,34,country
screen,html.Screen,1_3_1_0_1_35,2021-04-26T12:42:23.020Z,,,,,,,,,,,,,,,,48,,,,,,,,,,,,,,366.2000000270491,,response,,,,10,A,,,,,,Space,keypress(Space),,,,silence,,,,-- -- --- ------ ------- --------- ----------- --------<br>--------- -------- --- ------- -- ------- ---- -- ------<br>-- --- -------- -------- ---------- ---- ---- ---- ------<br>-- --------- -- ---- -- --- -- --- ------- is - -----<br>---------- -- -- -- ---- ----- -- ------ -- --- ------<br>-------,236916.10999999102,236914.54000002705,236531.869,236545.21000001114,236548.34,236931.97,,35,is
screen,html.Screen,1_3_1_0_1_36,2021-04-26T12:42:23.384Z,,,,,,,,,,,,,,,,48,,,,,,,,,,,,,,346.6900000690657,,response,,,,10,A,,,,,,Space,keypress(Space),,,,silence,,,,-- -- --- ------ ------- --------- ----------- --------<br>--------- -------- --- ------- -- ------- ---- -- ------<br>-- --- -------- -------- ---------- ---- ---- ---- ------<br>-- --------- -- ---- -- --- -- --- ------- -- a -----<br>---------- -- -- -- ---- ----- -- ------ -- --- ------<br>-------,237279.8850000836,237278.66000006907,236915.143,236916.49000009056,236931.97,237304.088,,36,a
screen,html.Screen,1_3_1_0_1_37,2021-04-26T12:42:23.749Z,,,,,,,,,,,,,,,,48,,,,,,,,,,,,,,340.087000023108,,response,,,,10,A,,,,,,Space,keypress(Space),,,,silence,,,,-- -- --- ------ ------- --------- ----------- --------<br>--------- -------- --- ------- -- ------- ---- -- ------<br>-- --- -------- -------- ---------- ---- ---- ---- ------<br>-- --------- -- ---- -- --- -- --- ------- -- - crime<br>---------- -- -- -- ---- ----- -- ------ -- --- ------<br>-------,237645.36500000395,237644.1750000231,237265.147,237280.10500001255,237304.088,237648.139,,37,crime
screen,html.Screen,1_3_1_0_1_38,2021-04-26T12:42:24.114Z,,,,,,,,,,,,,,,,48,,,,,,,,,,,,,,361.30600009064074,,response,,,,10,A,,,,,,Space,keypress(Space),,,,silence,,,,-- -- --- ------ ------- --------- ----------- --------<br>--------- -------- --- ------- -- ------- ---- -- ------<br>-- --- -------- -------- ---------- ---- ---- ---- ------<br>-- --------- -- ---- -- --- -- --- ------- -- - -----<br>punishable -- -- -- ---- ----- -- ------ -- --- ------<br>-------,238010.66000002902,238009.44500009064,237631.685,237645.5900000874,237648.139,238014.856,,38,punishable
screen,html.Screen,1_3_1_0_1_39,2021-04-26T12:42:24.498Z,,,,,,,,,,,,,,,,48,,,,,,,,,,,,,,378.13900000197464,,response,,,,10,A,,,,,,Space,keypress(Space),,,,silence,,,,-- -- --- ------ ------- --------- ----------- --------<br>--------- -------- --- ------- -- ------- ---- -- ------<br>-- --- -------- -------- ---------- ---- ---- ---- ------<br>-- --------- -- ---- -- --- -- --- ------- -- - -----<br>---------- by -- -- ---- ----- -- ------ -- --- ------<br>-------,238394.0799999982,238392.99500000197,237998.294,238010.8800000744,238014.856,238398.156,,39,by
screen,html.Screen,1_3_1_0_1_40,2021-04-26T12:42:24.807Z,,,,,,,,,,,,,,,,48,,,,,,,,,,,,,,304.17900003815885,,response,,,,10,A,,,,,,Space,keypress(Space),,,,silence,,,,-- -- --- ------ ------- --------- ----------- --------<br>--------- -------- --- ------- -- ------- ---- -- ------<br>-- --- -------- -------- ---------- ---- ---- ---- ------<br>-- --------- -- ---- -- --- -- --- ------- -- - -----<br>---------- -- up -- ---- ----- -- ------ -- --- ------<br>-------,238703.6950000329,238702.33500003815,238381.581,238394.2950000055,238398.156,238714.927,,40,up
screen,html.Screen,1_3_1_0_1_41,2021-04-26T12:42:25.156Z,,,,,,,,,,,,,,,,48,,,,,,,,,,,,,,335.8630000084231,,response,,,,10,A,,,,,,Space,keypress(Space),,,,silence,,,,-- -- --- ------ ------- --------- ----------- --------<br>--------- -------- --- ------- -- ------- ---- -- ------<br>-- --- -------- -------- ---------- ---- ---- ---- ------<br>-- --------- -- ---- -- --- -- --- ------- -- - -----<br>---------- -- -- to ---- ----- -- ------ -- --- ------<br>-------,239052.1000000881,239050.79000000842,238698.177,238703.9400000358,238714.927,239064.891,,41,to
