sender,sender_type,sender_id,timestamp,meta,,Blues,Classical,Country,Dance,Electronic,Folk,Gospel,Hip-Hop,Jazz,Latin,Musical/Film,New-age,Pop,Provo_ID,R&B,Rap,Reggae,Religious,Rock,Soul,Swing,Traditional,age,artist_name,correct,correctResponse,distraction,duration,education,ended_on,familiarity,gender,headphone_check_performance,item,list,music_frequency,offensiveness,pleasantness,position_correct,preference,response,response_action,snippet_file,song_name,song_rating,sound,stimulus_1,stimulus_2,stimulus_3,text,time_commit,time_end,time_render,time_run,time_show,time_switch,url,word,word_ID
Introduction,html.Screen,0_0,2021-04-22T20:36:09.786Z,"{""labjs_version"":""20.2.2"",""labjs_build"":{""flavor"":""production"",""commit"":""a25486e0c714a0ae2ce03ff94b7bb6896854dcfa""},""location"":""https://run.pavlovia.org/mvasilev/music_d/"",""userAgent"":""Mozilla/5.0 (Windows NT 10.0; Win64; x64; rv:87.0) Gecko/20100101 Firefox/87.0"",""platform"":""Win32"",""language"":""en-GB"",""locale"":""en-GB"",""timeZone"":""Europe/London"",""timezoneOffset"":-60,""screen_width"":1920,""screen_height"":1080,""scroll_width"":1920,""scroll_height"":918,""window_innerWidth"":1920,""window_innerHeight"":966,""devicePixelRatio"":1}",,,,,,,,,,,,,,,,,,,,,,,,,,,,,4942.759999999998,,response,,,,,,,,,,,continue,click button,,,,,,,,,34048,34032,29084.7,29084,29089.24,34105.96,{},,
Volume calibration,html.Screen,0_1,2021-04-22T20:36:23.702Z,,,,,,,,,,,,,,,,,,,,,,,,,,,,,,13848.04,,response,,,,,,,,,,,continue,click button,,,,,,,,,47963,47954,34056.04,34048,34105.96,47989.3,,,
Task instructions,html.Screen,0_2,2021-04-22T20:36:28.697Z,,,,,,,,,,,,,,,,,,,,,,,,,,,,,,4963.699999999997,,response,,,,,,,,,,,continue,click button,,,,,,,,,52957,52953,47972.62,47963,47989.3,52989.32,,,
Sounds,html.Screen,0_3_0_0,2021-04-22T20:36:32.963Z,,,,,,,,,,,,,,,,,,,,,,,,,,,,,,4266.739999999998,,timeout,,,,,,,,,1,,,,,,,,S,I,O,,57224,57222.72,52972.66,52957,52989.32,57256.06,,,
Judgement,html.Screen,0_3_0_1,2021-04-22T20:36:34.568Z,,,,,,,,,,,,,,,,,,,,,,,,,,,true,1,,1556.9400000000023,,response,,,,,,,,,1,,1,click #choice-1,,,,,S,I,O,,58828,58813,57222.72,57224,57256.06,58856.14,,,
Trial,flow.Sequence,0_3_0,2021-04-22T20:36:34.568Z,,,,,,,,,,,,,,,,,,,,,,,,,,,,,,5823.68,,completion,,,,,,,,,1,,,,,,,,S,I,O,,58829,58813,52972.66,52957,52989.32,58856.14,,,
Sounds,html.Screen,0_3_1_0,2021-04-22T20:36:38.829Z,,,,,,,,,,,,,,,,,,,,,,,,,,,,,,4249.940000000002,,timeout,,,,,,,,,1,,,,,,,,S,O,I,,63090,63089.44,58839.46,58829,58856.14,63106.08,,,
Judgement,html.Screen,0_3_1_1,2021-04-22T20:36:39.501Z,,,,,,,,,,,,,,,,,,,,,,,,,,,false,1,,644.9199999999983,,response,,,,,,,,,1,,3,click #choice-3,,,,,S,O,I,,63761,63751,63089.44,63090,63106.08,63789.44,,,
Trial,flow.Sequence,0_3_1,2021-04-22T20:36:39.501Z,,,,,,,,,,,,,,,,,,,,,,,,,,,,,,4894.860000000001,,completion,,,,,,,,,1,,,,,,,,S,O,I,,63762,63751,58839.46,58829,58856.14,63789.44,,,
Sounds,html.Screen,0_3_2_0,2021-04-22T20:36:43.763Z,,,,,,,,,,,,,,,,,,,,,,,,,,,,,,4250,,timeout,,,,,,,,,2,,,,,,,,I,S,O,,68024,68022.78,63772.76,63762,63789.44,68039.44,,,
Judgement,html.Screen,0_3_2_1,2021-04-22T20:36:44.790Z,,,,,,,,,,,,,,,,,,,,,,,,,,,true,2,,1007.5599999999977,,response,,,,,,,,,2,,2,click #choice-2,,,,,I,S,O,,69051,69047,68022.78,68024,68039.44,69072.76,,,
Trial,flow.Sequence,0_3_2,2021-04-22T20:36:44.790Z,,,,,,,,,,,,,,,,,,,,,,,,,,,,,,5257.559999999998,,completion,,,,,,,,,2,,,,,,,,I,S,O,,69051,69047,63772.76,63762,63789.44,69072.76,,,
Sounds,html.Screen,0_3_3_0,2021-04-22T20:36:49.046Z,,,,,,,,,,,,,,,,,,,,,,,,,,,,,,4250.020000000004,,timeout,,,,,,,,,3,,,,,,,,I,O,S,,73307,73306.1,69056.14,69051,69072.76,73322.78,,,
Judgement,html.Screen,0_3_3_1,2021-04-22T20:36:49.556Z,,,,,,,,,,,,,,,,,,,,,,,,,,,true,3,,490.22000000000116,,response,,,,,,,,,3,,3,click #choice-3,,,,,I,O,S,,73816,73813,73306.1,73308,73322.78,73839.48,,,
Trial,flow.Sequence,0_3_3,2021-04-22T20:36:49.556Z,,,,,,,,,,,,,,,,,,,,,,,,,,,,,,4740.240000000005,,completion,,,,,,,,,3,,,,,,,,I,O,S,,73817,73813,69056.14,69051,69072.76,73839.48,,,
Sounds,html.Screen,0_3_4_0,2021-04-22T20:36:53.813Z,,,,,,,,,,,,,,,,,,,,,,,,,,,,,,4249.960000000006,,timeout,,,,,,,,,2,,,,,,,,O,S,I,,78073,78072.78,73822.88,73817,73839.48,78089.44,,,
Judgement,html.Screen,0_3_4_1,2021-04-22T20:36:55.592Z,,,,,,,,,,,,,,,,,,,,,,,,,,,true,2,,1754.5599999999977,,response,,,,,,,,,2,,2,click #choice-2,,,,,O,S,I,,79852,79844,78072.78,78073,78089.44,79872.78,,,
Trial,flow.Sequence,0_3_4,2021-04-22T20:36:55.592Z,,,,,,,,,,,,,,,,,,,,,,,,,,,,,,6004.520000000004,,completion,,,,,,,,,2,,,,,,,,O,S,I,,79853,79844,73822.88,73817,73839.48,79872.78,,,
Sounds,html.Screen,0_3_5_0,2021-04-22T20:36:59.846Z,,,,,,,,,,,,,,,,,,,,,,,,,,,,,,4250.059999999998,,timeout,,,,,,,,,3,,,,,,,,O,I,S,,84106,84106.18,79856.12,79853,79872.78,84122.84,,,
Judgement,html.Screen,0_3_5_1,2021-04-22T20:37:01.841Z,,,,,,,,,,,,,,,,,,,,,,,,,,,true,3,,1971.1600000000035,,response,,,,,,,,,3,,3,click #choice-3,,,,,O,I,S,,86102,86094,84106.18,84107,84122.84,86156.16,,,
Trial,flow.Sequence,0_3_5,2021-04-22T20:37:01.841Z,,,,,,,,,,,,,,,,,,,,,,,,,,,,,,6221.220000000001,,completion,,,,,,,,,3,,,,,,,,O,I,S,,86102,86094,79856.12,79853,79872.78,86156.16,,,
Task,flow.Loop,0_3,2021-04-22T20:37:01.842Z,,,,,,,,,,,,,,,,,,,,,,,,,,,,,,33104.68,,completion,,,0.8333333333333334,,,,,,,,,,,,,,,,,,86103,86094,52972.66,52957,52989.32,86156.16,,,
Trap,html.Screen,0_4,2021-04-22T20:37:01.844Z,,,,,,,,,,,,,,,,,,,,,,,,,,,,,,NaN,,skipped,,,,,,,,,,,,,,,,,,,,,86105,86094,,86105,,86156.16,,,
Thanks,html.Screen,0_5,2021-04-22T20:37:04.866Z,,,,,,,,,,,,,,,,,,,,,,,,,,,,,,2952.8399999999965,,response,,,,,,,,,,,continue,click button,,,,,,,,,89127,89109,86106.16,86105,86156.16,91239.5,,,
Headphone screening,flow.Sequence,0,2021-04-22T20:37:04.866Z,,,,,,,,,,,,,,,,,,,,,,,,,,,,,,60019.759999999995,,completion,,,,,,,,,,,,,,,,,,,,,89127,89109,29084.7,29084,29089.24,91239.5,,,
Instructions,html.Page,1_0,2021-04-22T20:37:16.396Z,,,,,,,,,,,,,,,,,,,,,,,,,,,,,,9416.5,,form submission,,,,,,,,,,,,,,,,,,,,,100656,100656,91222.84,91217,91239.5,100672.92,,,
Holding screen,html.Screen,1_1_0_0,2021-04-22T20:37:26.396Z,,,,,,,,,,,,,,,,,,,,,,,,,,,,,,10050.080000000002,,timeout,,,,,,,,,,,,,,,,,,,,,110657,110656.32,100656.28,100657,100672.92,110723,,,
screen,html.Screen,1_1_0_1_0,2021-04-22T20:37:27.292Z,,,,,,,,,,,,,,,,53,,,,,,,,,,,,,,825,,response,,,,99,,,,,,,Space,keypress(Space),,,,,,,,When -- ----- -- ------ - ------- --- ----------<br>------------- ------ ------ ---- ---- ------- ----- -- ----<br>-------- ------- -- ---------- --- - --- ----- ----- ----<br>---- --- --- ----- --- ---- ---- ------- ----- ---- -------<br>--- --- -- ----- -- --- ---- -- --- ---- -- ------ ------<br>--- ----- -- ----,111553,111548,110656.32,110658,110723,111556.32,,0,When
screen,html.Screen,1_1_0_1_1,2021-04-22T20:37:27.748Z,,,,,,,,,,,,,,,,53,,,,,,,,,,,,,,444.679999999993,,response,,,,99,,,,,,,Space,keypress(Space),,,,,,,,---- it ----- -- ------ - ------- --- ----------<br>------------- ------ ------ ---- ---- ------- ----- -- ----<br>-------- ------- -- ---------- --- - --- ----- ----- ----<br>---- --- --- ----- --- ---- ---- ------- ----- ---- -------<br>--- --- -- ----- -- --- ---- -- --- ---- -- ------ ------<br>--- ----- -- ----,112008,112001,111553.56,111553,111556.32,112023.02,,1,it
screen,html.Screen,1_1_0_1_2,2021-04-22T20:37:28.091Z,,,,,,,,,,,,,,,,53,,,,,,,,,,,,,,319.9799999999959,,response,,,,99,,,,,,,Space,keypress(Space),,,,,,,,---- -- comes -- ------ - ------- --- ----------<br>------------- ------ ------ ---- ---- ------- ----- -- ----<br>-------- ------- -- ---------- --- - --- ----- ----- ----<br>---- --- --- ----- --- ---- ---- ------- ----- ---- -------<br>--- --- -- ----- -- --- ---- -- --- ---- -- ------ ------<br>--- ----- -- ----,112353,112343,112008.98,112009,112023.02,112356.32,,2,comes
screen,html.Screen,1_1_0_1_3,2021-04-22T20:37:28.628Z,,,,,,,,,,,,,,,,53,,,,,,,,,,,,,,519.679999999993,,response,,,,99,,,,,,,Space,keypress(Space),,,,,,,,---- -- ----- to ------ - ------- --- ----------<br>------------- ------ ------ ---- ---- ------- ----- -- ----<br>-------- ------- -- ---------- --- - --- ----- ----- ----<br>---- --- --- ----- --- ---- ---- ------- ----- ---- -------<br>--- --- -- ----- -- --- ---- -- --- ---- -- ------ ------<br>--- ----- -- ----,112889,112876,112353.28,112353,112356.32,112906.36,,3,to
screen,html.Screen,1_1_0_1_4,2021-04-22T20:37:29.108Z,,,,,,,,,,,,,,,,53,,,,,,,,,,,,,,452.6399999999994,,response,,,,99,,,,,,,Space,keypress(Space),,,,,,,,---- -- ----- -- having - ------- --- ----------<br>------------- ------ ------ ---- ---- ------- ----- -- ----<br>-------- ------- -- ---------- --- - --- ----- ----- ----<br>---- --- --- ----- --- ---- ---- ------- ----- ---- -------<br>--- --- -- ----- -- --- ---- -- --- ---- -- ------ ------<br>--- ----- -- ----,113369,113359,112889.04,112889,112906.36,113373.04,,4,having
screen,html.Screen,1_1_0_1_5,2021-04-22T20:37:29.500Z,,,,,,,,,,,,,,,,53,,,,,,,,,,,,,,376.9600000000064,,response,,,,99,,,,,,,Space,keypress(Space),,,,,,,,---- -- ----- -- ------ a ------- --- ----------<br>------------- ------ ------ ---- ---- ------- ----- -- ----<br>-------- ------- -- ---------- --- - --- ----- ----- ----<br>---- --- --- ----- --- ---- ---- ------- ----- ---- -------<br>--- --- -- ----- -- --- ---- -- --- ---- -- ------ ------<br>--- ----- -- ----,113761,113750,113368.78,113369,113373.04,113773.08,,5,a
screen,html.Screen,1_1_0_1_6,2021-04-22T20:37:29.900Z,,,,,,,,,,,,,,,,53,,,,,,,,,,,,,,382.91999999999825,,response,,,,99,,,,,,,Space,keypress(Space),,,,,,,,---- -- ----- -- ------ - lasting --- ----------<br>------------- ------ ------ ---- ---- ------- ----- -- ----<br>-------- ------- -- ---------- --- - --- ----- ----- ----<br>---- --- --- ----- --- ---- ---- ------- ----- ---- -------<br>--- --- -- ----- -- --- ---- -- --- ---- -- ------ ------<br>--- ----- -- ----,114160,114156,113761.3,113761,113773.08,114173.02,,6,lasting
screen,html.Screen,1_1_0_1_7,2021-04-22T20:37:30.356Z,,,,,,,,,,,,,,,,53,,,,,,,,,,,,,,436.9799999999959,,response,,,,99,,,,,,,Space,keypress(Space),,,,,,,,---- -- ----- -- ------ - ------- and ----------<br>------------- ------ ------ ---- ---- ------- ----- -- ----<br>-------- ------- -- ---------- --- - --- ----- ----- ----<br>---- --- --- ----- --- ---- ---- ------- ----- ---- -------<br>--- --- -- ----- -- --- ---- -- --- ---- -- ------ ------<br>--- ----- -- ----,114616,114610,114161.16,114161,114173.02,114623.02,,7,and
screen,html.Screen,1_1_0_1_8,2021-04-22T20:37:30.747Z,,,,,,,,,,,,,,,,53,,,,,,,,,,,,,,377.9799999999959,,response,,,,99,,,,,,,Space,keypress(Space),,,,,,,,---- -- ----- -- ------ - ------- --- fulfilling<br>------------- ------ ------ ---- ---- ------- ----- -- ----<br>-------- ------- -- ---------- --- - --- ----- ----- ----<br>---- --- --- ----- --- ---- ---- ------- ----- ---- -------<br>--- --- -- ----- -- --- ---- -- --- ---- -- ------ ------<br>--- ----- -- ----,115009,115001,114616.84,114616,114623.02,115023.04,,8,fulfilling
screen,html.Screen,1_1_0_1_9,2021-04-22T20:37:31.140Z,,,,,,,,,,,,,,,,53,,,,,,,,,,,,,,367.9600000000064,,response,,,,99,,,,,,,Space,keypress(Space),,,,,,,,"---- -- ----- -- ------ - ------- --- ----------<br>relationship, ------ ------ ---- ---- ------- ----- -- ----<br>-------- ------- -- ---------- --- - --- ----- ----- ----<br>---- --- --- ----- --- ---- ---- ------- ----- ---- -------<br>--- --- -- ----- -- --- ---- -- --- ---- -- ------ ------<br>--- ----- -- ----",115400,115391,115009.16,115009,115023.04,115406.32,,9,"relationship,"
screen,html.Screen,1_1_0_1_10,2021-04-22T20:37:31.523Z,,,,,,,,,,,,,,,,53,,,,,,,,,,,,,,375.679999999993,,response,,,,99,,,,,,,Space,keypress(Space),,,,,,,,---- -- ----- -- ------ - ------- --- ----------<br>------------- common ------ ---- ---- ------- ----- -- ----<br>-------- ------- -- ---------- --- - --- ----- ----- ----<br>---- --- --- ----- --- ---- ---- ------- ----- ---- -------<br>--- --- -- ----- -- --- ---- -- --- ---- -- ------ ------<br>--- ----- -- ----,115785,115782,115401.08,115400,115406.32,115789.7,,10,common
screen,html.Screen,1_1_0_1_11,2021-04-22T20:37:31.908Z,,,,,,,,,,,,,,,,53,,,,,,,,,,,,,,367.3000000000029,,response,,,,99,,,,,,,Space,keypress(Space),,,,,,,,---- -- ----- -- ------ - ------- --- ----------<br>------------- ------ wisdom ---- ---- ------- ----- -- ----<br>-------- ------- -- ---------- --- - --- ----- ----- ----<br>---- --- --- ----- --- ---- ---- ------- ----- ---- -------<br>--- --- -- ----- -- --- ---- -- --- ---- -- ------ ------<br>--- ----- -- ----,116168,116157,115785.1,115785,115789.7,116173.02,,11,wisdom
screen,html.Screen,1_1_0_1_12,2021-04-22T20:37:32.308Z,,,,,,,,,,,,,,,,53,,,,,,,,,,,,,,388.9799999999959,,response,,,,99,,,,,,,Space,keypress(Space),,,,,,,,---- -- ----- -- ------ - ------- --- ----------<br>------------- ------ ------ says ---- ------- ----- -- ----<br>-------- ------- -- ---------- --- - --- ----- ----- ----<br>---- --- --- ----- --- ---- ---- ------- ----- ---- -------<br>--- --- -- ----- -- --- ---- -- --- ---- -- ------ ------<br>--- ----- -- ----,116569,116562,116168.68,116168,116173.02,116573.04,,12,says
screen,html.Screen,1_1_0_1_13,2021-04-22T20:37:32.700Z,,,,,,,,,,,,,,,,53,,,,,,,,,,,,,,380.9600000000064,,response,,,,99,,,,,,,Space,keypress(Space),,,,,,,,---- -- ----- -- ------ - ------- --- ----------<br>------------- ------ ------ ---- that ------- ----- -- ----<br>-------- ------- -- ---------- --- - --- ----- ----- ----<br>---- --- --- ----- --- ---- ---- ------- ----- ---- -------<br>--- --- -- ----- -- --- ---- -- --- ---- -- ------ ------<br>--- ----- -- ----,116961,116954,116569.2,116569,116573.04,116973.04,,13,that
screen,html.Screen,1_1_0_1_14,2021-04-22T20:37:33.092Z,,,,,,,,,,,,,,,,53,,,,,,,,,,,,,,370.9600000000064,,response,,,,99,,,,,,,Space,keypress(Space),,,,,,,,---- -- ----- -- ------ - ------- --- ----------<br>------------- ------ ------ ---- ---- feeling ----- -- ----<br>-------- ------- -- ---------- --- - --- ----- ----- ----<br>---- --- --- ----- --- ---- ---- ------- ----- ---- -------<br>--- --- -- ----- -- --- ---- -- --- ---- -- ------ ------<br>--- ----- -- ----,117353,117344,116961.22,116961,116973.04,117356.36,,14,feeling
screen,html.Screen,1_1_0_1_15,2021-04-22T20:37:33.500Z,,,,,,,,,,,,,,,,53,,,,,,,,,,,,,,394.6399999999994,,response,,,,99,,,,,,,Space,keypress(Space),,,,,,,,---- -- ----- -- ------ - ------- --- ----------<br>------------- ------ ------ ---- ---- ------- close -- ----<br>-------- ------- -- ---------- --- - --- ----- ----- ----<br>---- --- --- ----- --- ---- ---- ------- ----- ---- -------<br>--- --- -- ----- -- --- ---- -- --- ---- -- ------ ------<br>--- ----- -- ----,117761,117751,117352.98,117353,117356.36,117773.1,,15,close
screen,html.Screen,1_1_0_1_16,2021-04-22T20:37:33.860Z,,,,,,,,,,,,,,,,53,,,,,,,,,,,,,,336.8999999999942,,response,,,,99,,,,,,,Space,keypress(Space),,,,,,,,---- -- ----- -- ------ - ------- --- ----------<br>------------- ------ ------ ---- ---- ------- ----- to ----<br>-------- ------- -- ---------- --- - --- ----- ----- ----<br>---- --- --- ----- --- ---- ---- ------- ----- ---- -------<br>--- --- -- ----- -- --- ---- -- --- ---- -- ------ ------<br>--- ----- -- ----,118120,118110,117761.06,117761,117773.1,118123.04,,16,to
screen,html.Screen,1_1_0_1_17,2021-04-22T20:37:34.284Z,,,,,,,,,,,,,,,,53,,,,,,,,,,,,,,408.9600000000064,,response,,,,99,,,,,,,Space,keypress(Space),,,,,,,,---- -- ----- -- ------ - ------- --- ----------<br>------------- ------ ------ ---- ---- ------- ----- -- your<br>-------- ------- -- ---------- --- - --- ----- ----- ----<br>---- --- --- ----- --- ---- ---- ------- ----- ---- -------<br>--- --- -- ----- -- --- ---- -- --- ---- -- ------ ------<br>--- ----- -- ----,118544,118532,118120.86,118120,118123.04,118556.4,,17,your
screen,html.Screen,1_1_0_1_18,2021-04-22T20:37:34.708Z,,,,,,,,,,,,,,,,53,,,,,,,,,,,,,,396.6000000000058,,response,,,,99,,,,,,,Space,keypress(Space),,,,,,,,---- -- ----- -- ------ - ------- --- ----------<br>------------- ------ ------ ---- ---- ------- ----- -- ----<br>romantic ------- -- ---------- --- - --- ----- ----- ----<br>---- --- --- ----- --- ---- ---- ------- ----- ---- -------<br>--- --- -- ----- -- --- ---- -- --- ---- -- ------ ------<br>--- ----- -- ----,118968,118953,118545.12,118544,118556.4,118973.04,,18,romantic
screen,html.Screen,1_1_0_1_19,2021-04-22T20:37:35.132Z,,,,,,,,,,,,,,,,53,,,,,,,,,,,,,,417.9600000000064,,response,,,,99,,,,,,,Space,keypress(Space),,,,,,,,---- -- ----- -- ------ - ------- --- ----------<br>------------- ------ ------ ---- ---- ------- ----- -- ----<br>-------- partner -- ---------- --- - --- ----- ----- ----<br>---- --- --- ----- --- ---- ---- ------- ----- ---- -------<br>--- --- -- ----- -- --- ---- -- --- ---- -- ------ ------<br>--- ----- -- ----,119393,119391,118968.94,118968,118973.04,119406.38,,19,partner
screen,html.Screen,1_1_0_1_20,2021-04-22T20:37:35.532Z,,,,,,,,,,,,,,,,53,,,,,,,,,,,,,,374.61999999999534,,response,,,,99,,,,,,,Space,keypress(Space),,,,,,,,---- -- ----- -- ------ - ------- --- ----------<br>------------- ------ ------ ---- ---- ------- ----- -- ----<br>-------- ------- is ---------- --- - --- ----- ----- ----<br>---- --- --- ----- --- ---- ---- ------- ----- ---- -------<br>--- --- -- ----- -- --- ---- -- --- ---- -- ------ ------<br>--- ----- -- ----,119793,119781,119392.98,119393,119406.38,119839.74,,20,is
screen,html.Screen,1_1_0_1_21,2021-04-22T20:37:36.020Z,,,,,,,,,,,,,,,,53,,,,,,,,,,,,,,425.25999999999476,,response,,,,99,,,,,,,Space,keypress(Space),,,,,,,,---- -- ----- -- ------ - ------- --- ----------<br>------------- ------ ------ ---- ---- ------- ----- -- ----<br>-------- ------- -- paramount. --- - --- ----- ----- ----<br>---- --- --- ----- --- ---- ---- ------- ----- ---- -------<br>--- --- -- ----- -- --- ---- -- --- ---- -- ------ ------<br>--- ----- -- ----,120281,120265,119793.18,119793,119839.74,120289.72,,21,paramount.
screen,html.Screen,1_1_0_1_22,2021-04-22T20:37:36.396Z,,,,,,,,,,,,,,,,53,,,,,,,,,,,,,,350.27999999999884,,response,,,,99,,,,,,,Space,keypress(Space),,,,,,,,---- -- ----- -- ------ - ------- --- ----------<br>------------- ------ ------ ---- ---- ------- ----- -- ----<br>-------- ------- -- ---------- But - --- ----- ----- ----<br>---- --- --- ----- --- ---- ---- ------- ----- ---- -------<br>--- --- -- ----- -- --- ---- -- --- ---- -- ------ ------<br>--- ----- -- ----,120657,120640,120281.1,120281,120289.72,120673.12,,22,But
screen,html.Screen,1_1_0_1_23,2021-04-22T20:37:36.772Z,,,,,,,,,,,,,,,,53,,,,,,,,,,,,,,342.88000000000466,,response,,,,99,,,,,,,Space,keypress(Space),,,,,,,,---- -- ----- -- ------ - ------- --- ----------<br>------------- ------ ------ ---- ---- ------- ----- -- ----<br>-------- ------- -- ---------- --- a --- ----- ----- ----<br>---- --- --- ----- --- ---- ---- ------- ----- ---- -------<br>--- --- -- ----- -- --- ---- -- --- ---- -- ------ ------<br>--- ----- -- ----,121033,121016,120657.24,120657,120673.12,121039.78,,23,a
screen,html.Screen,1_1_0_1_24,2021-04-22T20:37:37.132Z,,,,,,,,,,,,,,,,53,,,,,,,,,,,,,,350.22000000000116,,response,,,,99,,,,,,,Space,keypress(Space),,,,,,,,---- -- ----- -- ------ - ------- --- ----------<br>------------- ------ ------ ---- ---- ------- ----- -- ----<br>-------- ------- -- ---------- --- - new ----- ----- ----<br>---- --- --- ----- --- ---- ---- ------- ----- ---- -------<br>--- --- -- ----- -- --- ---- -- --- ---- -- ------ ------<br>--- ----- -- ----,121392,121390,121033,121033,121039.78,121406.38,,24,new
screen,html.Screen,1_1_0_1_25,2021-04-22T20:37:37.532Z,,,,,,,,,,,,,,,,53,,,,,,,,,,,,,,375.61999999999534,,response,,,,99,,,,,,,Space,keypress(Space),,,,,,,,---- -- ----- -- ------ - ------- --- ----------<br>------------- ------ ------ ---- ---- ------- ----- -- ----<br>-------- ------- -- ---------- --- - --- study ----- ----<br>---- --- --- ----- --- ---- ---- ------- ----- ---- -------<br>--- --- -- ----- -- --- ---- -- --- ---- -- ------ ------<br>--- ----- -- ----,121792,121782,121393.14,121393,121406.38,121806.46,,25,study
screen,html.Screen,1_1_0_1_26,2021-04-22T20:37:37.900Z,,,,,,,,,,,,,,,,53,,,,,,,,,,,,,,350.5399999999936,,response,,,,99,,,,,,,Space,keypress(Space),,,,,,,,---- -- ----- -- ------ - ------- --- ----------<br>------------- ------ ------ ---- ---- ------- ----- -- ----<br>-------- ------- -- ---------- --- - --- ----- finds ----<br>---- --- --- ----- --- ---- ---- ------- ----- ---- -------<br>--- --- -- ----- -- --- ---- -- --- ---- -- ------ ------<br>--- ----- -- ----,122161,122157,121793.02,121793,121806.46,122173.12,,26,finds
screen,html.Screen,1_1_0_1_27,2021-04-22T20:37:38.363Z,,,,,,,,,,,,,,,,53,,,,,,,,,,,,,,436.88000000000466,,response,,,,99,,,,,,,Space,keypress(Space),,,,,,,,---- -- ----- -- ------ - ------- --- ----------<br>------------- ------ ------ ---- ---- ------- ----- -- ----<br>-------- ------- -- ---------- --- - --- ----- ----- that<br>---- --- --- ----- --- ---- ---- ------- ----- ---- -------<br>--- --- -- ----- -- --- ---- -- --- ---- -- ------ ------<br>--- ----- -- ----,122625,122610,122161.06,122161,122173.12,122639.8,,27,that
screen,html.Screen,1_1_0_1_28,2021-04-22T20:37:38.788Z,,,,,,,,,,,,,,,,53,,,,,,,,,,,,,,408.1999999999971,,response,,,,99,,,,,,,Space,keypress(Space),,,,,,,,---- -- ----- -- ------ - ------- --- ----------<br>------------- ------ ------ ---- ---- ------- ----- -- ----<br>-------- ------- -- ---------- --- - --- ----- ----- ----<br>it's --- --- ----- --- ---- ---- ------- ----- ---- -------<br>--- --- -- ----- -- --- ---- -- --- ---- -- ------ ------<br>--- ----- -- ----,123049,123048,122624.86,122625,122639.8,123056.4,,28,it's
screen,html.Screen,1_1_0_1_29,2021-04-22T20:37:39.188Z,,,,,,,,,,,,,,,,53,,,,,,,,,,,,,,381.6000000000058,,response,,,,99,,,,,,,Space,keypress(Space),,,,,,,,---- -- ----- -- ------ - ------- --- ----------<br>------------- ------ ------ ---- ---- ------- ----- -- ----<br>-------- ------- -- ---------- --- - --- ----- ----- ----<br>---- not --- ----- --- ---- ---- ------- ----- ---- -------<br>--- --- -- ----- -- --- ---- -- --- ---- -- ------ ------<br>--- ----- -- ----,123448,123438,123049.18,123049,123056.4,123456.42,,29,not
screen,html.Screen,1_1_0_1_30,2021-04-22T20:37:39.556Z,,,,,,,,,,,,,,,,53,,,,,,,,,,,,,,356.58000000000175,,response,,,,99,,,,,,,Space,keypress(Space),,,,,,,,---- -- ----- -- ------ - ------- --- ----------<br>------------- ------ ------ ---- ---- ------- ----- -- ----<br>-------- ------- -- ---------- --- - --- ----- ----- ----<br>---- --- how ----- --- ---- ---- ------- ----- ---- -------<br>--- --- -- ----- -- --- ---- -- --- ---- -- ------ ------<br>--- ----- -- ----,123817,123813,123448.82,123448,123456.42,123823.08,,30,how
screen,html.Screen,1_1_0_1_31,2021-04-22T20:37:39.948Z,,,,,,,,,,,,,,,,53,,,,,,,,,,,,,,380.91999999999825,,response,,,,99,,,,,,,Space,keypress(Space),,,,,,,,---- -- ----- -- ------ - ------- --- ----------<br>------------- ------ ------ ---- ---- ------- ----- -- ----<br>-------- ------- -- ---------- --- - --- ----- ----- ----<br>---- --- --- close --- ---- ---- ------- ----- ---- -------<br>--- --- -- ----- -- --- ---- -- --- ---- -- ------ ------<br>--- ----- -- ----,124209,124204,123817.04,123817,123823.08,124223.08,,31,close
screen,html.Screen,1_1_0_1_32,2021-04-22T20:37:40.340Z,,,,,,,,,,,,,,,,53,,,,,,,,,,,,,,370.91999999999825,,response,,,,99,,,,,,,Space,keypress(Space),,,,,,,,---- -- ----- -- ------ - ------- --- ----------<br>------------- ------ ------ ---- ---- ------- ----- -- ----<br>-------- ------- -- ---------- --- - --- ----- ----- ----<br>---- --- --- ----- you ---- ---- ------- ----- ---- -------<br>--- --- -- ----- -- --- ---- -- --- ---- -- ------ ------<br>--- ----- -- ----,124601,124594,124208.82,124209,124223.08,124606.42,,32,you
screen,html.Screen,1_1_0_1_33,2021-04-22T20:37:40.748Z,,,,,,,,,,,,,,,,53,,,,,,,,,,,,,,393.58000000000175,,response,,,,99,,,,,,,Space,keypress(Space),,,,,,,,---- -- ----- -- ------ - ------- --- ----------<br>------------- ------ ------ ---- ---- ------- ----- -- ----<br>-------- ------- -- ---------- --- - --- ----- ----- ----<br>---- --- --- ----- --- feel ---- ------- ----- ---- -------<br>--- --- -- ----- -- --- ---- -- --- ---- -- ------ ------<br>--- ----- -- ----,125009,125000,124601.06,124601,124606.42,125023.1,,33,feel
screen,html.Screen,1_1_0_1_34,2021-04-22T20:37:41.084Z,,,,,,,,,,,,,,,,53,,,,,,,,,,,,,,305.8999999999942,,response,,,,99,,,,,,,Space,keypress(Space),,,,,,,,---- -- ----- -- ------ - ------- --- ----------<br>------------- ------ ------ ---- ---- ------- ----- -- ----<br>-------- ------- -- ---------- --- - --- ----- ----- ----<br>---- --- --- ----- --- ---- that ------- ----- ---- -------<br>--- --- -- ----- -- --- ---- -- --- ---- -- ------ ------<br>--- ----- -- ----,125345,125329,125008.88,125009,125023.1,125356.48,,34,that
screen,html.Screen,1_1_0_1_35,2021-04-22T20:37:41.499Z,,,,,,,,,,,,,,,,53,,,,,,,,,,,,,,393.5200000000041,,response,,,,99,,,,,,,Space,keypress(Space),,,,,,,,---- -- ----- -- ------ - ------- --- ----------<br>------------- ------ ------ ---- ---- ------- ----- -- ----<br>-------- ------- -- ---------- --- - --- ----- ----- ----<br>---- --- --- ----- --- ---- ---- matters ----- ---- -------<br>--- --- -- ----- -- --- ---- -- --- ---- -- ------ ------<br>--- ----- -- ----,125761,125750,125345.08,125345,125356.48,125773.1,,35,matters
screen,html.Screen,1_1_0_1_36,2021-04-22T20:37:41.852Z,,,,,,,,,,,,,,,,53,,,,,,,,,,,,,,336.8999999999942,,response,,,,99,,,,,,,Space,keypress(Space),,,,,,,,"---- -- ----- -- ------ - ------- --- ----------<br>------------- ------ ------ ---- ---- ------- ----- -- ----<br>-------- ------- -- ---------- --- - --- ----- ----- ----<br>---- --- --- ----- --- ---- ---- ------- most, ---- -------<br>--- --- -- ----- -- --- ---- -- --- ---- -- ------ ------<br>--- ----- -- ----",126112,126110,125761.12,125761,125773.1,126123.14,,36,"most,"
screen,html.Screen,1_1_0_1_37,2021-04-22T20:37:42.236Z,,,,,,,,,,,,,,,,53,,,,,,,,,,,,,,361.8600000000006,,response,,,,99,,,,,,,Space,keypress(Space),,,,,,,,---- -- ----- -- ------ - ------- --- ----------<br>------------- ------ ------ ---- ---- ------- ----- -- ----<br>-------- ------- -- ---------- --- - --- ----- ----- ----<br>---- --- --- ----- --- ---- ---- ------- ----- it's -------<br>--- --- -- ----- -- --- ---- -- --- ---- -- ------ ------<br>--- ----- -- ----,126497,126485,126113.04,126112,126123.14,126506.38,,37,it's
screen,html.Screen,1_1_0_1_38,2021-04-22T20:37:42.652Z,,,,,,,,,,,,,,,,53,,,,,,,,,,,,,,400.61999999999534,,response,,,,99,,,,,,,Space,keypress(Space),,,,,,,,---- -- ----- -- ------ - ------- --- ----------<br>------------- ------ ------ ---- ---- ------- ----- -- ----<br>-------- ------- -- ---------- --- - --- ----- ----- ----<br>---- --- --- ----- --- ---- ---- ------- ----- ---- whether<br>--- --- -- ----- -- --- ---- -- --- ---- -- ------ ------<br>--- ----- -- ----,126913,126907,126496.86,126497,126506.38,126923.1,,38,whether
screen,html.Screen,1_1_0_1_39,2021-04-22T20:37:43.060Z,,,,,,,,,,,,,,,,53,,,,,,,,,,,,,,389.8999999999942,,response,,,,99,,,,,,,Space,keypress(Space),,,,,,,,---- -- ----- -- ------ - ------- --- ----------<br>------------- ------ ------ ---- ---- ------- ----- -- ----<br>-------- ------- -- ---------- --- - --- ----- ----- ----<br>---- --- --- ----- --- ---- ---- ------- ----- ---- -------<br>you --- -- ----- -- --- ---- -- --- ---- -- ------ ------<br>--- ----- -- ----,127321,127313,126913.1,126913,126923.1,127323.12,,39,you
screen,html.Screen,1_1_0_1_40,2021-04-22T20:37:43.428Z,,,,,,,,,,,,,,,,53,,,,,,,,,,,,,,348.88000000000466,,response,,,,99,,,,,,,Space,keypress(Space),,,,,,,,---- -- ----- -- ------ - ------- --- ----------<br>------------- ------ ------ ---- ---- ------- ----- -- ----<br>-------- ------- -- ---------- --- - --- ----- ----- ----<br>---- --- --- ----- --- ---- ---- ------- ----- ---- -------<br>--- are -- ----- -- --- ---- -- --- ---- -- ------ ------<br>--- ----- -- ----,127688,127672,127321.1,127321,127323.12,127706.38,,40,are
screen,html.Screen,1_1_0_1_41,2021-04-22T20:37:43.787Z,,,,,,,,,,,,,,,,53,,,,,,,,,,,,,,324.61999999999534,,response,,,,99,,,,,,,Space,keypress(Space),,,,,,,,---- -- ----- -- ------ - ------- --- ----------<br>------------- ------ ------ ---- ---- ------- ----- -- ----<br>-------- ------- -- ---------- --- - --- ----- ----- ----<br>---- --- --- ----- --- ---- ---- ------- ----- ---- -------<br>--- --- as ----- -- --- ---- -- --- ---- -- ------ ------<br>--- ----- -- ----,128048,128031,127689.02,127688,127706.38,128056.44,,41,as
screen,html.Screen,1_1_0_1_42,2021-04-22T20:37:44.212Z,,,,,,,,,,,,,,,,53,,,,,,,,,,,,,,411.5599999999977,,response,,,,99,,,,,,,Space,keypress(Space),,,,,,,,---- -- ----- -- ------ - ------- --- ----------<br>------------- ------ ------ ---- ---- ------- ----- -- ----<br>-------- ------- -- ---------- --- - --- ----- ----- ----<br>---- --- --- ----- --- ---- ---- ------- ----- ---- -------<br>--- --- -- close -- --- ---- -- --- ---- -- ------ ------<br>--- ----- -- ----,128473,128468,128048.74,128048,128056.44,128489.82,,42,close
screen,html.Screen,1_1_0_1_43,2021-04-22T20:37:44.579Z,,,,,,,,,,,,,,,,53,,,,,,,,,,,,,,338.179999999993,,response,,,,99,,,,,,,Space,keypress(Space),,,,,,,,---- -- ----- -- ------ - ------- --- ----------<br>------------- ------ ------ ---- ---- ------- ----- -- ----<br>-------- ------- -- ---------- --- - --- ----- ----- ----<br>---- --- --- ----- --- ---- ---- ------- ----- ---- -------<br>--- --- -- ----- as --- ---- -- --- ---- -- ------ ------<br>--- ----- -- ----,128840,128828,128473.12,128473,128489.82,128856.44,,43,as
screen,html.Screen,1_1_0_1_44,2021-04-22T20:37:44.948Z,,,,,,,,,,,,,,,,53,,,,,,,,,,,,,,346.5599999999977,,response,,,,99,,,,,,,Space,keypress(Space),,,,,,,,---- -- ----- -- ------ - ------- --- ----------<br>------------- ------ ------ ---- ---- ------- ----- -- ----<br>-------- ------- -- ---------- --- - --- ----- ----- ----<br>---- --- --- ----- --- ---- ---- ------- ----- ---- -------<br>--- --- -- ----- -- you ---- -- --- ---- -- ------ ------<br>--- ----- -- ----,129208,129203,128841.1,128840,128856.44,129223.16,,44,you
screen,html.Screen,1_1_0_1_45,2021-04-22T20:37:45.284Z,,,,,,,,,,,,,,,,53,,,,,,,,,,,,,,307.8399999999965,,response,,,,99,,,,,,,Space,keypress(Space),,,,,,,,---- -- ----- -- ------ - ------- --- ----------<br>------------- ------ ------ ---- ---- ------- ----- -- ----<br>-------- ------- -- ---------- --- - --- ----- ----- ----<br>---- --- --- ----- --- ---- ---- ------- ----- ---- -------<br>--- --- -- ----- -- --- want -- --- ---- -- ------ ------<br>--- ----- -- ----,129545,129531,129208.84,129208,129223.16,129556.5,,45,want
screen,html.Screen,1_1_0_1_46,2021-04-22T20:37:45.611Z,,,,,,,,,,,,,,,,53,,,,,,,,,,,,,,303.5,,response,,,,99,,,,,,,Space,keypress(Space),,,,,,,,---- -- ----- -- ------ - ------- --- ----------<br>------------- ------ ------ ---- ---- ------- ----- -- ----<br>-------- ------- -- ---------- --- - --- ----- ----- ----<br>---- --- --- ----- --- ---- ---- ------- ----- ---- -------<br>--- --- -- ----- -- --- ---- to --- ---- -- ------ ------<br>--- ----- -- ----,129873,129860,129545.34,129546,129556.5,129889.74,,46,to
screen,html.Screen,1_1_0_1_47,2021-04-22T20:37:45.980Z,,,,,,,,,,,,,,,,53,,,,,,,,,,,,,,344.25999999999476,,response,,,,99,,,,,,,Space,keypress(Space),,,,,,,,"---- -- ----- -- ------ - ------- --- ----------<br>------------- ------ ------ ---- ---- ------- ----- -- ----<br>-------- ------- -- ---------- --- - --- ----- ----- ----<br>---- --- --- ----- --- ---- ---- ------- ----- ---- -------<br>--- --- -- ----- -- --- ---- -- be, ---- -- ------ ------<br>--- ----- -- ----",130241,130234,129872.98,129873,129889.74,130256.44,,47,"be,"
screen,html.Screen,1_1_0_1_48,2021-04-22T20:37:46.324Z,,,,,,,,,,,,,,,,53,,,,,,,,,,,,,,322.5599999999977,,response,,,,99,,,,,,,Space,keypress(Space),,,,,,,,---- -- ----- -- ------ - ------- --- ----------<br>------------- ------ ------ ---- ---- ------- ----- -- ----<br>-------- ------- -- ---------- --- - --- ----- ----- ----<br>---- --- --- ----- --- ---- ---- ------- ----- ---- -------<br>--- --- -- ----- -- --- ---- -- --- even -- ------ ------<br>--- ----- -- ----,130585,130579,130241.08,130241,130256.44,130589.76,,48,even
screen,html.Screen,1_1_0_1_49,2021-04-22T20:37:46.716Z,,,,,,,,,,,,,,,,53,,,,,,,,,,,,,,378.24000000000524,,response,,,,99,,,,,,,Space,keypress(Space),,,,,,,,---- -- ----- -- ------ - ------- --- ----------<br>------------- ------ ------ ---- ---- ------- ----- -- ----<br>-------- ------- -- ---------- --- - --- ----- ----- ----<br>---- --- --- ----- --- ---- ---- ------- ----- ---- -------<br>--- --- -- ----- -- --- ---- -- --- ---- if ------ ------<br>--- ----- -- ----,130977,130968,130585.24,130585,130589.76,130989.82,,49,if
screen,html.Screen,1_1_0_1_50,2021-04-22T20:37:47.052Z,,,,,,,,,,,,,,,,53,,,,,,,,,,,,,,307.179999999993,,response,,,,99,,,,,,,Space,keypress(Space),,,,,,,,---- -- ----- -- ------ - ------- --- ----------<br>------------- ------ ------ ---- ---- ------- ----- -- ----<br>-------- ------- -- ---------- --- - --- ----- ----- ----<br>---- --- --- ----- --- ---- ---- ------- ----- ---- -------<br>--- --- -- ----- -- --- ---- -- --- ---- -- that's ------<br>--- ----- -- ----,131312,131297,130976.8,130977,130989.82,131323.12,,50,that's
screen,html.Screen,1_1_0_1_51,2021-04-22T20:37:47.396Z,,,,,,,,,,,,,,,,53,,,,,,,,,,,,,,316.88000000000466,,response,,,,99,,,,,,,Space,keypress(Space),,,,,,,,---- -- ----- -- ------ - ------- --- ----------<br>------------- ------ ------ ---- ---- ------- ----- -- ----<br>-------- ------- -- ---------- --- - --- ----- ----- ----<br>---- --- --- ----- --- ---- ---- ------- ----- ---- -------<br>--- --- -- ----- -- --- ---- -- --- ---- -- ------ really<br>--- ----- -- ----,131656,131640,131313.3,131313,131323.12,131673.14,,51,really
screen,html.Screen,1_1_0_1_52,2021-04-22T20:37:47.780Z,,,,,,,,,,,,,,,,53,,,,,,,,,,,,,,357.85999999998603,,response,,,,99,,,,,,,Space,keypress(Space),,,,,,,,---- -- ----- -- ------ - ------- --- ----------<br>------------- ------ ------ ---- ---- ------- ----- -- ----<br>-------- ------- -- ---------- --- - --- ----- ----- ----<br>---- --- --- ----- --- ---- ---- ------- ----- ---- -------<br>--- --- -- ----- -- --- ---- -- --- ---- -- ------ ------<br>not ----- -- ----,132041,132031,131656.78,131656,131673.14,132056.44,,52,not
screen,html.Screen,1_1_0_1_53,2021-04-22T20:37:48.140Z,,,,,,,,,,,,,,,,53,,,,,,,,,,,,,,333.5599999999977,,response,,,,99,,,,,,,Space,keypress(Space),,,,,,,,---- -- ----- -- ------ - ------- --- ----------<br>------------- ------ ------ ---- ---- ------- ----- -- ----<br>-------- ------- -- ---------- --- - --- ----- ----- ----<br>---- --- --- ----- --- ---- ---- ------- ----- ---- -------<br>--- --- -- ----- -- --- ---- -- --- ---- -- ------ ------<br>--- close -- ----,132401,132390,132041.1,132041,132056.44,132406.46,,53,close
screen,html.Screen,1_1_0_1_54,2021-04-22T20:37:48.443Z,,,,,,,,,,,,,,,,53,,,,,,,,,,,,,,280.54000000000815,,response,,,,99,,,,,,,Space,keypress(Space),,,,,,,,---- -- ----- -- ------ - ------- --- ----------<br>------------- ------ ------ ---- ---- ------- ----- -- ----<br>-------- ------- -- ---------- --- - --- ----- ----- ----<br>---- --- --- ----- --- ---- ---- ------- ----- ---- -------<br>--- --- -- ----- -- --- ---- -- --- ---- -- ------ ------<br>--- ----- at ----,132704,132687,132401,132401,132406.46,132706.44,,54,at
screen,html.Screen,1_1_0_1_55,2021-04-22T20:37:48.779Z,,,,,,,,,,,,,,,,53,,,,,,,,,,,,,,325.5599999999977,,response,,,,99,,,,,,,Space,keypress(Space),,,,,,,,---- -- ----- -- ------ - ------- --- ----------<br>------------- ------ ------ ---- ---- ------- ----- -- ----<br>-------- ------- -- ---------- --- - --- ----- ----- ----<br>---- --- --- ----- --- ---- ---- ------- ----- ---- -------<br>--- --- -- ----- -- --- ---- -- --- ---- -- ------ ------<br>--- ----- -- all.,133041,133032,132704.94,132705,132706.44,133056.48,,55,all.
Item 99,flow.Loop,1_1_0_1,2021-04-22T20:37:48.779Z,,,,,,,,,,,,,,,,,,,,,,,,,,,,,,22309,,completion,,,,,D,,,,,,,,,,,silence,,,,,133041,133032,110656.32,110658,110723,133056.48,,,
Question 1,html.Screen,1_1_0_2,2021-04-22T20:37:56.778Z,,,,,,,,,,,,,,,,,,,,,,,,,,,true,FALSE,,7974.5199999999895,,response,,,,99,D,,,,,,FALSE,click #choice-2,,,,silence,,,,,141040,141031,133041.24,133041,133056.48,141056.44,,,
Question 2,html.Screen,1_1_0_3,2021-04-22T20:38:01.484Z,,,,,,,,,,,,,,,,,,,,,,,,,,,true,TRUE,,4678.559999999998,,response,,,,99,D,,,,,,TRUE,click #choice-1,,,,silence,,,,,145745,145735,141039.78,141040,141056.44,145773.14,,,
Item 99,flow.Sequence,1_1_0,2021-04-22T20:38:01.484Z,,,,,,,,,,,,,,,,,,,,,,,,,,,,,,45062.08,,completion,,,,,,,,,,,,,,,,,,,,,145745,145735,100656.28,100657,100672.92,145773.14,,,
Holding screen,html.Screen,1_1_1_0,2021-04-22T20:38:11.496Z,,,,,,,,,,,,,,,,,,,,,,,,,,,,,,10000.01999999999,,timeout,,,,,,,,,,,,,,,,,,,,,155757,155756.5,145756.52,145746,145773.14,155773.16,,,
screen,html.Screen,1_1_1_1_0,2021-04-22T20:38:15.916Z,,,,,,,,,,,,,,,,54,,,,,,,,,,,,,,4399.8399999999965,,response,,,,100,,,,,,,Space,keypress(Space),,,,,,,,At --- ---- --- ------ ----- ------- ---- -- --- ------- --<br>------- ---------- ------ -- ----- -- ----- -- ---- ------<br>--- ----- --- --- ------ -------- ----- --- ------ ----- --<br>----- ----- ---------- --- --- ------ ------ ---- -- ------<br>------- --- ------ ----- --- ---- ------- -- ---- --- --<br>------- ------,160177,160173,155756.5,155758,155773.16,160206.5,,0,At
screen,html.Screen,1_1_1_1_1,2021-04-22T20:38:16.507Z,,,,,,,,,,,,,,,,54,,,,,,,,,,,,,,559.5,,response,,,,100,,,,,,,Space,keypress(Space),,,,,,,,-- the ---- --- ------ ----- ------- ---- -- --- ------- --<br>------- ---------- ------ -- ----- -- ----- -- ---- ------<br>--- ----- --- --- ------ -------- ----- --- ------ ----- --<br>----- ----- ---------- --- --- ------ ------ ---- -- ------<br>------- --- ------ ----- --- ---- ------- -- ---- --- --<br>------- ------,160769,160766,160189.84,160177,160206.5,160789.84,,1,the
screen,html.Screen,1_1_1_1_2,2021-04-22T20:38:19.267Z,,,,,,,,,,,,,,,,54,,,,,,,,,,,,,,2726.1600000000035,,response,,,,100,,,,,,,Space,keypress(Space),,,,,,,,-- --- time --- ------ ----- ------- ---- -- --- ------- --<br>------- ---------- ------ -- ----- -- ----- -- ---- ------<br>--- ----- --- --- ------ -------- ----- --- ------ ----- --<br>----- ----- ---------- --- --- ------ ------ ---- -- ------<br>------- --- ------ ----- --- ---- ------- -- ---- --- --<br>------- ------,163528,163516,160773.16,160769,160789.84,163556.5,,2,time
screen,html.Screen,1_1_1_1_3,2021-04-22T20:38:19.603Z,,,,,,,,,,,,,,,,54,,,,,,,,,,,,,,302.5,,response,,,,100,,,,,,,Space,keypress(Space),,,,,,,,-- --- ---- the ------ ----- ------- ---- -- --- ------- --<br>------- ---------- ------ -- ----- -- ----- -- ---- ------<br>--- ----- --- --- ------ -------- ----- --- ------ ----- --<br>----- ----- ---------- --- --- ------ ------ ---- -- ------<br>------- --- ------ ----- --- ---- ------- -- ---- --- --<br>------- ------,163864,163859,163539.84,163528,163556.5,163889.84,,3,the
screen,html.Screen,1_1_1_1_4,2021-04-22T20:38:19.947Z,,,,,,,,,,,,,,,,54,,,,,,,,,,,,,,313.1600000000035,,response,,,,100,,,,,,,Space,keypress(Space),,,,,,,,-- --- ---- --- French ----- ------- ---- -- --- ------- --<br>------- ---------- ------ -- ----- -- ----- -- ---- ------<br>--- ----- --- --- ------ -------- ----- --- ------ ----- --<br>----- ----- ---------- --- --- ------ ------ ---- -- ------<br>------- --- ------ ----- --- ---- ------- -- ---- --- --<br>------- ------,164208,164203,163873.16,163864,163889.84,164239.84,,4,French
screen,html.Screen,1_1_1_1_5,2021-04-22T20:38:20.331Z,,,,,,,,,,,,,,,,54,,,,,,,,,,,,,,338.1600000000035,,response,,,,100,,,,,,,Space,keypress(Space),,,,,,,,-- --- ---- --- ------ crown ------- ---- -- --- ------- --<br>------- ---------- ------ -- ----- -- ----- -- ---- ------<br>--- ----- --- --- ------ -------- ----- --- ------ ----- --<br>----- ----- ---------- --- --- ------ ------ ---- -- ------<br>------- --- ------ ----- --- ---- ------- -- ---- --- --<br>------- ------,164592,164578,164223.16,164208,164239.84,164606.6,,5,crown
screen,html.Screen,1_1_1_1_6,2021-04-22T20:38:20.715Z,,,,,,,,,,,,,,,,54,,,,,,,,,,,,,,362.3999999999942,,response,,,,100,,,,,,,Space,keypress(Space),,,,,,,,-- --- ---- --- ------ ----- secured ---- -- --- ------- --<br>------- ---------- ------ -- ----- -- ----- -- ---- ------<br>--- ----- --- --- ------ -------- ----- --- ------ ----- --<br>----- ----- ---------- --- --- ------ ------ ---- -- ------<br>------- --- ------ ----- --- ---- ------- -- ---- --- --<br>------- ------,164976,164969,164592.46,164593,164606.6,164989.94,,6,secured
screen,html.Screen,1_1_1_1_7,2021-04-22T20:38:21.107Z,,,,,,,,,,,,,,,,54,,,,,,,,,,,,,,370.0599999999977,,response,,,,100,,,,,,,Space,keypress(Space),,,,,,,,-- --- ---- --- ------ ----- ------- much -- --- ------- --<br>------- ---------- ------ -- ----- -- ----- -- ---- ------<br>--- ----- --- --- ------ -------- ----- --- ------ ----- --<br>----- ----- ---------- --- --- ------ ------ ---- -- ------<br>------- --- ------ ----- --- ---- ------- -- ---- --- --<br>------- ------,165368,165360,164976.48,164976,164989.94,165389.9,,7,much
screen,html.Screen,1_1_1_1_8,2021-04-22T20:38:21.507Z,,,,,,,,,,,,,,,,54,,,,,,,,,,,,,,376.1000000000058,,response,,,,100,,,,,,,Space,keypress(Space),,,,,,,,-- --- ---- --- ------ ----- ------- ---- of --- ------- --<br>------- ---------- ------ -- ----- -- ----- -- ---- ------<br>--- ----- --- --- ------ -------- ----- --- ------ ----- --<br>----- ----- ---------- --- --- ------ ------ ---- -- ------<br>------- --- ------ ----- --- ---- ------- -- ---- --- --<br>------- ------,165769,165766,165373.24,165368,165389.9,165773.28,,8,of
screen,html.Screen,1_1_1_1_9,2021-04-22T20:38:21.843Z,,,,,,,,,,,,,,,,54,,,,,,,,,,,,,,319.72000000000116,,response,,,,100,,,,,,,Space,keypress(Space),,,,,,,,-- --- ---- --- ------ ----- ------- ---- -- its ------- --<br>------- ---------- ------ -- ----- -- ----- -- ---- ------<br>--- ----- --- --- ------ -------- ----- --- ------ ----- --<br>----- ----- ---------- --- --- ------ ------ ---- -- ------<br>------- --- ------ ----- --- ---- ------- -- ---- --- --<br>------- ------,166104,166093,165768.86,165769,165773.28,166123.28,,9,its
screen,html.Screen,1_1_1_1_10,2021-04-22T20:38:22.203Z,,,,,,,,,,,,,,,,54,,,,,,,,,,,,,,330.72000000000116,,response,,,,100,,,,,,,Space,keypress(Space),,,,,,,,-- --- ---- --- ------ ----- ------- ---- -- --- revenue --<br>------- ---------- ------ -- ----- -- ----- -- ---- ------<br>--- ----- --- --- ------ -------- ----- --- ------ ----- --<br>----- ----- ---------- --- --- ------ ------ ---- -- ------<br>------- --- ------ ----- --- ---- ------- -- ---- --- --<br>------- ------,166464,166454,166106.62,166104,166123.28,166473.3,,10,revenue
screen,html.Screen,1_1_1_1_11,2021-04-22T20:38:22.611Z,,,,,,,,,,,,,,,,54,,,,,,,,,,,,,,386.70000000001164,,response,,,,100,,,,,,,Space,keypress(Space),,,,,,,,-- --- ---- --- ------ ----- ------- ---- -- --- ------- by<br>------- ---------- ------ -- ----- -- ----- -- ---- ------<br>--- ----- --- --- ------ -------- ----- --- ------ ----- --<br>----- ----- ---------- --- --- ------ ------ ---- -- ------<br>------- --- ------ ----- --- ---- ------- -- ---- --- --<br>------- ------,166872,166860,166464.38,166464,166473.3,166889.92,,11,by
screen,html.Screen,1_1_1_1_12,2021-04-22T20:38:22.987Z,,,,,,,,,,,,,,,,54,,,,,,,,,,,,,,345.0799999999872,,response,,,,100,,,,,,,Space,keypress(Space),,,,,,,,-- --- ---- --- ------ ----- ------- ---- -- --- ------- --<br>issuing ---------- ------ -- ----- -- ----- -- ---- ------<br>--- ----- --- --- ------ -------- ----- --- ------ ----- --<br>----- ----- ---------- --- --- ------ ------ ---- -- ------<br>------- --- ------ ----- --- ---- ------- -- ---- --- --<br>------- ------,167248,167235,166872.66,166872,166889.92,167273.28,,12,issuing
screen,html.Screen,1_1_1_1_13,2021-04-22T20:38:23.403Z,,,,,,,,,,,,,,,,54,,,,,,,,,,,,,,383.72000000000116,,response,,,,100,,,,,,,Space,keypress(Space),,,,,,,,-- --- ---- --- ------ ----- ------- ---- -- --- ------- --<br>------- government ------ -- ----- -- ----- -- ---- ------<br>--- ----- --- --- ------ -------- ----- --- ------ ----- --<br>----- ----- ---------- --- --- ------ ------ ---- -- ------<br>------- --- ------ ----- --- ---- ------- -- ---- --- --<br>------- ------,167664,167657,167256.6,167248,167273.28,167673.28,,13,government
screen,html.Screen,1_1_1_1_14,2021-04-22T20:38:23.755Z,,,,,,,,,,,,,,,,54,,,,,,,,,,,,,,326.72000000000116,,response,,,,100,,,,,,,Space,keypress(Space),,,,,,,,-- --- ---- --- ------ ----- ------- ---- -- --- ------- --<br>------- ---------- bonds. -- ----- -- ----- -- ---- ------<br>--- ----- --- --- ------ -------- ----- --- ------ ----- --<br>----- ----- ---------- --- --- ------ ------ ---- -- ------<br>------- --- ------ ----- --- ---- ------- -- ---- --- --<br>------- ------,168016,168000,167664.7,167665,167673.28,168023.3,,14,bonds.
screen,html.Screen,1_1_1_1_15,2021-04-22T20:38:24.131Z,,,,,,,,,,,,,,,,54,,,,,,,,,,,,,,366.70000000001164,,response,,,,100,,,,,,,Space,keypress(Space),,,,,,,,-- --- ---- --- ------ ----- ------- ---- -- --- ------- --<br>------- ---------- ------ In ----- -- ----- -- ---- ------<br>--- ----- --- --- ------ -------- ----- --- ------ ----- --<br>----- ----- ---------- --- --- ------ ------ ---- -- ------<br>------- --- ------ ----- --- ---- ------- -- ---- --- --<br>------- ------,168392,168390,168016.5,168016,168023.3,168423.26,,15,In
screen,html.Screen,1_1_1_1_16,2021-04-22T20:38:24.619Z,,,,,,,,,,,,,,,,54,,,,,,,,,,,,,,452.7399999999907,,response,,,,100,,,,,,,Space,keypress(Space),,,,,,,,"-- --- ---- --- ------ ----- ------- ---- -- --- ------- --<br>------- ---------- ------ -- 1727, -- ----- -- ---- ------<br>--- ----- --- --- ------ -------- ----- --- ------ ----- --<br>----- ----- ---------- --- --- ------ ------ ---- -- ------<br>------- --- ------ ----- --- ---- ------- -- ---- --- --<br>------- ------",168880,168876,168406.6,168392,168423.26,168889.94,,16,"1727,"
screen,html.Screen,1_1_1_1_17,2021-04-22T20:38:25.556Z,,,,,,,,,,,,,,,,54,,,,,,,,,,,,,,922.0599999999977,,response,,,,100,,,,,,,Space,keypress(Space),,,,,,,,-- --- ---- --- ------ ----- ------- ---- -- --- ------- --<br>------- ---------- ------ -- ----- in ----- -- ---- ------<br>--- ----- --- --- ------ -------- ----- --- ------ ----- --<br>----- ----- ---------- --- --- ------ ------ ---- -- ------<br>------- --- ------ ----- --- ---- ------- -- ---- --- --<br>------- ------,169816,169812,168880.4,168880,168889.94,169823.28,,17,in
screen,html.Screen,1_1_1_1_18,2021-04-22T20:38:25.972Z,,,,,,,,,,,,,,,,54,,,,,,,,,,,,,,395.72000000000116,,response,,,,100,,,,,,,Space,keypress(Space),,,,,,,,-- --- ---- --- ------ ----- ------- ---- -- --- ------- --<br>------- ---------- ------ -- ----- -- order -- ---- ------<br>--- ----- --- --- ------ -------- ----- --- ------ ----- --<br>----- ----- ---------- --- --- ------ ------ ---- -- ------<br>------- --- ------ ----- --- ---- ------- -- ---- --- --<br>------- ------,170232,170219,169816.42,169816,169823.28,170256.62,,18,order
screen,html.Screen,1_1_1_1_19,2021-04-22T20:38:26.283Z,,,,,,,,,,,,,,,,54,,,,,,,,,,,,,,274.38000000000466,,response,,,,100,,,,,,,Space,keypress(Space),,,,,,,,-- --- ---- --- ------ ----- ------- ---- -- --- ------- --<br>------- ---------- ------ -- ----- -- ----- to ---- ------<br>--- ----- --- --- ------ -------- ----- --- ------ ----- --<br>----- ----- ---------- --- --- ------ ------ ---- -- ------<br>------- --- ------ ----- --- ---- ------- -- ---- --- --<br>------- ------,170545,170531,170239.96,170232,170256.62,170556.66,,19,to
screen,html.Screen,1_1_1_1_20,2021-04-22T20:38:26.676Z,,,,,,,,,,,,,,,,54,,,,,,,,,,,,,,366.3399999999965,,response,,,,100,,,,,,,Space,keypress(Space),,,,,,,,-- --- ---- --- ------ ----- ------- ---- -- --- ------- --<br>------- ---------- ------ -- ----- -- ----- -- save ------<br>--- ----- --- --- ------ -------- ----- --- ------ ----- --<br>----- ----- ---------- --- --- ------ ------ ---- -- ------<br>------- --- ------ ----- --- ---- ------- -- ---- --- --<br>------- ------,170937,170923,170544.74,170545,170556.66,170940,,20,save
screen,html.Screen,1_1_1_1_21,2021-04-22T20:38:27.044Z,,,,,,,,,,,,,,,,54,,,,,,,,,,,,,,358,,response,,,,100,,,,,,,Space,keypress(Space),,,,,,,,"-- --- ---- --- ------ ----- ------- ---- -- --- ------- --<br>------- ---------- ------ -- ----- -- ----- -- ---- money,<br>--- ----- --- --- ------ -------- ----- --- ------ ----- --<br>----- ----- ---------- --- --- ------ ------ ---- -- ------<br>------- --- ------ ----- --- ---- ------- -- ---- --- --<br>------- ------",171304,171298,170937.1,170937,170940,171323.26,,21,"money,"
screen,html.Screen,1_1_1_1_22,2021-04-22T20:38:27.603Z,,,,,,,,,,,,,,,,54,,,,,,,,,,,,,,535.7399999999907,,response,,,,100,,,,,,,Space,keypress(Space),,,,,,,,-- --- ---- --- ------ ----- ------- ---- -- --- ------- --<br>------- ---------- ------ -- ----- -- ----- -- ---- ------<br>the ----- --- --- ------ -------- ----- --- ------ ----- --<br>----- ----- ---------- --- --- ------ ------ ---- -- ------<br>------- --- ------ ----- --- ---- ------- -- ---- --- --<br>------- ------,171864,171859,171306.6,171305,171323.26,171873.28,,22,the
screen,html.Screen,1_1_1_1_23,2021-04-22T20:38:28.019Z,,,,,,,,,,,,,,,,54,,,,,,,,,,,,,,391.72000000000116,,response,,,,100,,,,,,,Space,keypress(Space),,,,,,,,-- --- ---- --- ------ ----- ------- ---- -- --- ------- --<br>------- ---------- ------ -- ----- -- ----- -- ---- ------<br>--- state --- --- ------ -------- ----- --- ------ ----- --<br>----- ----- ---------- --- --- ------ ------ ---- -- ------<br>------- --- ------ ----- --- ---- ------- -- ---- --- --<br>------- ------,172280,172265,171864.54,171865,171873.28,172306.62,,23,state
screen,html.Screen,1_1_1_1_24,2021-04-22T20:38:28.523Z,,,,,,,,,,,,,,,,54,,,,,,,,,,,,,,475.38000000000466,,response,,,,100,,,,,,,Space,keypress(Space),,,,,,,,-- --- ---- --- ------ ----- ------- ---- -- --- ------- --<br>------- ---------- ------ -- ----- -- ----- -- ---- ------<br>--- ----- cut --- ------ -------- ----- --- ------ ----- --<br>----- ----- ---------- --- --- ------ ------ ---- -- ------<br>------- --- ------ ----- --- ---- ------- -- ---- --- --<br>------- ------,172784,172782,172289.96,172280,172306.62,172789.98,,24,cut
screen,html.Screen,1_1_1_1_25,2021-04-22T20:38:28.923Z,,,,,,,,,,,,,,,,54,,,,,,,,,,,,,,383.0199999999895,,response,,,,100,,,,,,,Space,keypress(Space),,,,,,,,-- --- ---- --- ------ ----- ------- ---- -- --- ------- --<br>------- ---------- ------ -- ----- -- ----- -- ---- ------<br>--- ----- --- the ------ -------- ----- --- ------ ----- --<br>----- ----- ---------- --- --- ------ ------ ---- -- ------<br>------- --- ------ ----- --- ---- ------- -- ---- --- --<br>------- ------,173184,173173,172784.32,172784,172789.98,173206.62,,25,the
screen,html.Screen,1_1_1_1_26,2021-04-22T20:38:29.324Z,,,,,,,,,,,,,,,,54,,,,,,,,,,,,,,371.38000000000466,,response,,,,100,,,,,,,Space,keypress(Space),,,,,,,,-- --- ---- --- ------ ----- ------- ---- -- --- ------- --<br>------- ---------- ------ -- ----- -- ----- -- ---- ------<br>--- ----- --- --- bonds' -------- ----- --- ------ ----- --<br>----- ----- ---------- --- --- ------ ------ ---- -- ------<br>------- --- ------ ----- --- ---- ------- -- ---- --- --<br>------- ------,173585,173578,173189.96,173184,173206.62,173590.02,,26,bonds'
screen,html.Screen,1_1_1_1_27,2021-04-22T20:38:29.732Z,,,,,,,,,,,,,,,,54,,,,,,,,,,,,,,393.9800000000105,,response,,,,100,,,,,,,Space,keypress(Space),,,,,,,,-- --- ---- --- ------ ----- ------- ---- -- --- ------- --<br>------- ---------- ------ -- ----- -- ----- -- ---- ------<br>--- ----- --- --- ------ interest ----- --- ------ ----- --<br>----- ----- ---------- --- --- ------ ------ ---- -- ------<br>------- --- ------ ----- --- ---- ------- -- ---- --- --<br>------- ------,173993,173984,173584.86,173585,173590.02,174006.62,,27,interest
screen,html.Screen,1_1_1_1_28,2021-04-22T20:38:30.100Z,,,,,,,,,,,,,,,,54,,,,,,,,,,,,,,337.38000000000466,,response,,,,100,,,,,,,Space,keypress(Space),,,,,,,,-- --- ---- --- ------ ----- ------- ---- -- --- ------- --<br>------- ---------- ------ -- ----- -- ----- -- ---- ------<br>--- ----- --- --- ------ -------- rate. --- ------ ----- --<br>----- ----- ---------- --- --- ------ ------ ---- -- ------<br>------- --- ------ ----- --- ---- ------- -- ---- --- --<br>------- ------,174360,174344,173993,173993,174006.62,174389.96,,28,rate.
screen,html.Screen,1_1_1_1_29,2021-04-22T20:38:30.483Z,,,,,,,,,,,,,,,,54,,,,,,,,,,,,,,344.04000000000815,,response,,,,100,,,,,,,Space,keypress(Space),,,,,,,,-- --- ---- --- ------ ----- ------- ---- -- --- ------- --<br>------- ---------- ------ -- ----- -- ----- -- ---- ------<br>--- ----- --- --- ------ -------- ----- The ------ ----- --<br>----- ----- ---------- --- --- ------ ------ ---- -- ------<br>------- --- ------ ----- --- ---- ------- -- ---- --- --<br>------- ------,174744,174734,174373.28,174360,174389.96,174756.66,,29,The
screen,html.Screen,1_1_1_1_30,2021-04-22T20:38:30.868Z,,,,,,,,,,,,,,,,54,,,,,,,,,,,,,,368.3399999999965,,response,,,,100,,,,,,,Space,keypress(Space),,,,,,,,-- --- ---- --- ------ ----- ------- ---- -- --- ------- --<br>------- ---------- ------ -- ----- -- ----- -- ---- ------<br>--- ----- --- --- ------ -------- ----- --- market ----- --<br>----- ----- ---------- --- --- ------ ------ ---- -- ------<br>------- --- ------ ----- --- ---- ------- -- ---- --- --<br>------- ------,175128,175125,174744.84,174744,174756.66,175140.06,,30,market
screen,html.Screen,1_1_1_1_31,2021-04-22T20:38:31.285Z,,,,,,,,,,,,,,,,54,,,,,,,,,,,,,,390.9400000000023,,response,,,,100,,,,,,,Space,keypress(Space),,,,,,,,-- --- ---- --- ------ ----- ------- ---- -- --- ------- --<br>------- ---------- ------ -- ----- -- ----- -- ---- ------<br>--- ----- --- --- ------ -------- ----- --- ------ value --<br>----- ----- ---------- --- --- ------ ------ ---- -- ------<br>------- --- ------ ----- --- ---- ------- -- ---- --- --<br>------- ------,175546,175531,175128.92,175128,175140.06,175556.66,,31,value
screen,html.Screen,1_1_1_1_32,2021-04-22T20:38:31.651Z,,,,,,,,,,,,,,,,54,,,,,,,,,,,,,,350.3399999999965,,response,,,,100,,,,,,,Space,keypress(Space),,,,,,,,-- --- ---- --- ------ ----- ------- ---- -- --- ------- --<br>------- ---------- ------ -- ----- -- ----- -- ---- ------<br>--- ----- --- --- ------ -------- ----- --- ------ ----- of<br>----- ----- ---------- --- --- ------ ------ ---- -- ------<br>------- --- ------ ----- --- ---- ------- -- ---- --- --<br>------- ------,175912,175907,175545.88,175546,175556.66,175923.4,,32,of
screen,html.Screen,1_1_1_1_33,2021-04-22T20:38:32.044Z,,,,,,,,,,,,,,,,54,,,,,,,,,,,,,,374.6000000000058,,response,,,,100,,,,,,,Space,keypress(Space),,,,,,,,-- --- ---- --- ------ ----- ------- ---- -- --- ------- --<br>------- ---------- ------ -- ----- -- ----- -- ---- ------<br>--- ----- --- --- ------ -------- ----- --- ------ ----- --<br>these ----- ---------- --- --- ------ ------ ---- -- ------<br>------- --- ------ ----- --- ---- ------- -- ---- --- --<br>------- ------,176304,176298,175912.84,175912,175923.4,176323.32,,33,these
screen,html.Screen,1_1_1_1_34,2021-04-22T20:38:32.396Z,,,,,,,,,,,,,,,,54,,,,,,,,,,,,,,317.679999999993,,response,,,,100,,,,,,,Space,keypress(Space),,,,,,,,-- --- ---- --- ------ ----- ------- ---- -- --- ------- --<br>------- ---------- ------ -- ----- -- ----- -- ---- ------<br>--- ----- --- --- ------ -------- ----- --- ------ ----- --<br>----- bonds ---------- --- --- ------ ------ ---- -- ------<br>------- --- ------ ----- --- ---- ------- -- ---- --- --<br>------- ------,176657,176641,176306.64,176304,176323.32,176673.38,,34,bonds
screen,html.Screen,1_1_1_1_35,2021-04-22T20:38:32.748Z,,,,,,,,,,,,,,,,54,,,,,,,,,,,,,,327.61999999999534,,response,,,,100,,,,,,,Space,keypress(Space),,,,,,,,"-- --- ---- --- ------ ----- ------- ---- -- --- ------- --<br>------- ---------- ------ -- ----- -- ----- -- ---- ------<br>--- ----- --- --- ------ -------- ----- --- ------ ----- --<br>----- ----- plummeted, --- --- ------ ------ ---- -- ------<br>------- --- ------ ----- --- ---- ------- -- ---- --- --<br>------- ------",177008,177001,176657,176657,176673.38,177023.36,,35,"plummeted,"
screen,html.Screen,1_1_1_1_36,2021-04-22T20:38:33.059Z,,,,,,,,,,,,,,,,54,,,,,,,,,,,,,,289.64000000001397,,response,,,,100,,,,,,,Space,keypress(Space),,,,,,,,-- --- ---- --- ------ ----- ------- ---- -- --- ------- --<br>------- ---------- ------ -- ----- -- ----- -- ---- ------<br>--- ----- --- --- ------ -------- ----- --- ------ ----- --<br>----- ----- ---------- and --- ------ ------ ---- -- ------<br>------- --- ------ ----- --- ---- ------- -- ---- --- --<br>------- ------,177320,177313,177008.64,177008,177023.36,177340,,36,and
screen,html.Screen,1_1_1_1_37,2021-04-22T20:38:33.315Z,,,,,,,,,,,,,,,,54,,,,,,,,,,,,,,223,,response,,,,100,,,,,,,Space,keypress(Space),,,,,,,,-- --- ---- --- ------ ----- ------- ---- -- --- ------- --<br>------- ---------- ------ -- ----- -- ----- -- ---- ------<br>--- ----- --- --- ------ -------- ----- --- ------ ----- --<br>----- ----- ---------- --- the ------ ------ ---- -- ------<br>------- --- ------ ----- --- ---- ------- -- ---- --- --<br>------- ------,177577,177563,177323.34,177320,177340,177590.02,,37,the
screen,html.Screen,1_1_1_1_38,2021-04-22T20:38:34.235Z,,,,,,,,,,,,,,,,54,,,,,,,,,,,,,,894.9800000000105,,response,,,,100,,,,,,,Space,keypress(Space),,,,,,,,-- --- ---- --- ------ ----- ------- ---- -- --- ------- --<br>------- ---------- ------ -- ----- -- ----- -- ---- ------<br>--- ----- --- --- ------ -------- ----- --- ------ ----- --<br>----- ----- ---------- --- --- market ------ ---- -- ------<br>------- --- ------ ----- --- ---- ------- -- ---- --- --<br>------- ------,178496,178485,177576.84,177577,177590.02,178506.68,,38,market
screen,html.Screen,1_1_1_1_39,2021-04-22T20:38:34.620Z,,,,,,,,,,,,,,,,54,,,,,,,,,,,,,,368.320000000007,,response,,,,100,,,,,,,Space,keypress(Space),,,,,,,,-- --- ---- --- ------ ----- ------- ---- -- --- ------- --<br>------- ---------- ------ -- ----- -- ----- -- ---- ------<br>--- ----- --- --- ------ -------- ----- --- ------ ----- --<br>----- ----- ---------- --- --- ------ became ---- -- ------<br>------- --- ------ ----- --- ---- ------- -- ---- --- --<br>------- ------,178881,178875,178496.84,178497,178506.68,178890,,39,became
screen,html.Screen,1_1_1_1_40,2021-04-22T20:38:34.811Z,,,,,,,,,,,,,,,,54,,,,,,,,,,,,,,173,,response,,,,100,,,,,,,Space,keypress(Space),,,,,,,,-- --- ---- --- ------ ----- ------- ---- -- --- ------- --<br>------- ---------- ------ -- ----- -- ----- -- ---- ------<br>--- ----- --- --- ------ -------- ----- --- ------ ----- --<br>----- ----- ---------- --- --- ------ ------ wary -- ------<br>------- --- ------ ----- --- ---- ------- -- ---- --- --<br>------- ------,179072,179063,178880.98,178881,178890,179090,,40,wary
screen,html.Screen,1_1_1_1_41,2021-04-22T20:38:35.091Z,,,,,,,,,,,,,,,,54,,,,,,,,,,,,,,254,,response,,,,100,,,,,,,Space,keypress(Space),,,,,,,,-- --- ---- --- ------ ----- ------- ---- -- --- ------- --<br>------- ---------- ------ -- ----- -- ----- -- ---- ------<br>--- ----- --- --- ------ -------- ----- --- ------ ----- --<br>----- ----- ---------- --- --- ------ ------ ---- of ------<br>------- --- ------ ----- --- ---- ------- -- ---- --- --<br>------- ------,179352,179344,179073.34,179072,179090,179356.64,,41,of
screen,html.Screen,1_1_1_1_42,2021-04-22T20:38:35.355Z,,,,,,,,,,,,,,,,54,,,,,,,,,,,,,,253.35999999998603,,response,,,,100,,,,,,,Space,keypress(Space),,,,,,,,-- --- ---- --- ------ ----- ------- ---- -- --- ------- --<br>------- ---------- ------ -- ----- -- ----- -- ---- ------<br>--- ----- --- --- ------ -------- ----- --- ------ ----- --<br>----- ----- ---------- --- --- ------ ------ ---- -- French<br>------- --- ------ ----- --- ---- ------- -- ---- --- --<br>------- ------,179616,179610,179352.88,179352,179356.64,179623.36,,42,French
screen,html.Screen,1_1_1_1_43,2021-04-22T20:38:35.659Z,,,,,,,,,,,,,,,,54,,,,,,,,,,,,,,282.64000000001397,,response,,,,100,,,,,,,Space,keypress(Space),,,,,,,,-- --- ---- --- ------ ----- ------- ---- -- --- ------- --<br>------- ---------- ------ -- ----- -- ----- -- ---- ------<br>--- ----- --- --- ------ -------- ----- --- ------ ----- --<br>----- ----- ---------- --- --- ------ ------ ---- -- ------<br>credit. --- ------ ----- --- ---- ------- -- ---- --- --<br>------- ------,179920,179906,179616.34,179616,179623.36,179923.34,,43,credit.
screen,html.Screen,1_1_1_1_44,2021-04-22T20:38:35.932Z,,,,,,,,,,,,,,,,54,,,,,,,,,,,,,,263.6600000000035,,response,,,,100,,,,,,,Space,keypress(Space),,,,,,,,-- --- ---- --- ------ ----- ------- ---- -- --- ------- --<br>------- ---------- ------ -- ----- -- ----- -- ---- ------<br>--- ----- --- --- ------ -------- ----- --- ------ ----- --<br>----- ----- ---------- --- --- ------ ------ ---- -- ------<br>------- The ------ ----- --- ---- ------- -- ---- --- --<br>------- ------,180193,180187,179920.4,179921,179923.34,180206.7,,44,The
screen,html.Screen,1_1_1_1_45,2021-04-22T20:38:36.204Z,,,,,,,,,,,,,,,,54,,,,,,,,,,,,,,247.29999999998836,,response,,,,100,,,,,,,Space,keypress(Space),,,,,,,,-- --- ---- --- ------ ----- ------- ---- -- --- ------- --<br>------- ---------- ------ -- ----- -- ----- -- ---- ------<br>--- ----- --- --- ------ -------- ----- --- ------ ----- --<br>----- ----- ---------- --- --- ------ ------ ---- -- ------<br>------- --- French ----- --- ---- ------- -- ---- --- --<br>------- ------,180465,180454,180193.1,180193,180206.7,180473.34,,45,French
screen,html.Screen,1_1_1_1_46,2021-04-22T20:38:36.468Z,,,,,,,,,,,,,,,,54,,,,,,,,,,,,,,245.6600000000035,,response,,,,100,,,,,,,Space,keypress(Space),,,,,,,,-- --- ---- --- ------ ----- ------- ---- -- --- ------- --<br>------- ---------- ------ -- ----- -- ----- -- ---- ------<br>--- ----- --- --- ------ -------- ----- --- ------ ----- --<br>----- ----- ---------- --- --- ------ ------ ---- -- ------<br>------- --- ------ state --- ---- ------- -- ---- --- --<br>------- ------,180729,180719,180465.14,180465,180473.34,180740.02,,46,state
screen,html.Screen,1_1_1_1_47,2021-04-22T20:38:36.764Z,,,,,,,,,,,,,,,,54,,,,,,,,,,,,,,275.9800000000105,,response,,,,100,,,,,,,Space,keypress(Space),,,,,,,,-- --- ---- --- ------ ----- ------- ---- -- --- ------- --<br>------- ---------- ------ -- ----- -- ----- -- ---- ------<br>--- ----- --- --- ------ -------- ----- --- ------ ----- --<br>----- ----- ---------- --- --- ------ ------ ---- -- ------<br>------- --- ------ ----- was ---- ------- -- ---- --- --<br>------- ------,181025,181016,180728.52,180729,180740.02,181040.08,,47,was
screen,html.Screen,1_1_1_1_48,2021-04-22T20:38:37.044Z,,,,,,,,,,,,,,,,54,,,,,,,,,,,,,,257.9200000000128,,response,,,,100,,,,,,,Space,keypress(Space),,,,,,,,-- --- ---- --- ------ ----- ------- ---- -- --- ------- --<br>------- ---------- ------ -- ----- -- ----- -- ---- ------<br>--- ----- --- --- ------ -------- ----- --- ------ ----- --<br>----- ----- ---------- --- --- ------ ------ ---- -- ------<br>------- --- ------ ----- --- left ------- -- ---- --- --<br>------- ------,181304,181298,181025.04,181025,181040.08,181306.68,,48,left
screen,html.Screen,1_1_1_1_49,2021-04-22T20:38:37.348Z,,,,,,,,,,,,,,,,54,,,,,,,,,,,,,,287.320000000007,,response,,,,100,,,,,,,Space,keypress(Space),,,,,,,,-- --- ---- --- ------ ----- ------- ---- -- --- ------- --<br>------- ---------- ------ -- ----- -- ----- -- ---- ------<br>--- ----- --- --- ------ -------- ----- --- ------ ----- --<br>----- ----- ---------- --- --- ------ ------ ---- -- ------<br>------- --- ------ ----- --- ---- without -- ---- --- --<br>------- ------,181608,181594,181304.88,181304,181306.68,181623.4,,49,without
screen,html.Screen,1_1_1_1_50,2021-04-22T20:38:37.612Z,,,,,,,,,,,,,,,,54,,,,,,,,,,,,,,236.60000000000582,,response,,,,100,,,,,,,Space,keypress(Space),,,,,,,,-- --- ---- --- ------ ----- ------- ---- -- --- ------- --<br>------- ---------- ------ -- ----- -- ----- -- ---- ------<br>--- ----- --- --- ------ -------- ----- --- ------ ----- --<br>----- ----- ---------- --- --- ------ ------ ---- -- ------<br>------- --- ------ ----- --- ---- ------- an ---- --- --<br>------- ------,181873,181860,181608.5,181608,181623.4,181890,,50,an
screen,html.Screen,1_1_1_1_51,2021-04-22T20:38:37.908Z,,,,,,,,,,,,,,,,54,,,,,,,,,,,,,,266,,response,,,,100,,,,,,,Space,keypress(Space),,,,,,,,-- --- ---- --- ------ ----- ------- ---- -- --- ------- --<br>------- ---------- ------ -- ----- -- ----- -- ---- ------<br>--- ----- --- --- ------ -------- ----- --- ------ ----- --<br>----- ----- ---------- --- --- ------ ------ ---- -- ------<br>------- --- ------ ----- --- ---- ------- -- easy --- --<br>------- ------,182169,182156,181872.76,181873,181890,182173.32,,51,easy
screen,html.Screen,1_1_1_1_52,2021-04-22T20:38:38.188Z,,,,,,,,,,,,,,,,54,,,,,,,,,,,,,,263.679999999993,,response,,,,100,,,,,,,Space,keypress(Space),,,,,,,,-- --- ---- --- ------ ----- ------- ---- -- --- ------- --<br>------- ---------- ------ -- ----- -- ----- -- ---- ------<br>--- ----- --- --- ------ -------- ----- --- ------ ----- --<br>----- ----- ---------- --- --- ------ ------ ---- -- ------<br>------- --- ------ ----- --- ---- ------- -- ---- way --<br>------- ------,182449,182437,182168.78,182169,182173.32,182456.7,,52,way
screen,html.Screen,1_1_1_1_53,2021-04-22T20:38:38.468Z,,,,,,,,,,,,,,,,54,,,,,,,,,,,,,,261.29999999998836,,response,,,,100,,,,,,,Space,keypress(Space),,,,,,,,-- --- ---- --- ------ ----- ------- ---- -- --- ------- --<br>------- ---------- ------ -- ----- -- ----- -- ---- ------<br>--- ----- --- --- ------ -------- ----- --- ------ ----- --<br>----- ----- ---------- --- --- ------ ------ ---- -- ------<br>------- --- ------ ----- --- ---- ------- -- ---- --- of<br>------- ------,182728,182718,182448.84,182449,182456.7,182740.06,,53,of
screen,html.Screen,1_1_1_1_54,2021-04-22T20:38:38.763Z,,,,,,,,,,,,,,,,54,,,,,,,,,,,,,,275.9400000000023,,response,,,,100,,,,,,,Space,keypress(Space),,,,,,,,-- --- ---- --- ------ ----- ------- ---- -- --- ------- --<br>------- ---------- ------ -- ----- -- ----- -- ---- ------<br>--- ----- --- --- ------ -------- ----- --- ------ ----- --<br>----- ----- ---------- --- --- ------ ------ ---- -- ------<br>------- --- ------ ----- --- ---- ------- -- ---- --- --<br>raising ------,183024,183016,182728.94,182728,182740.06,183040.12,,54,raising
screen,html.Screen,1_1_1_1_55,2021-04-22T20:38:39.068Z,,,,,,,,,,,,,,,,54,,,,,,,,,,,,,,272.88000000000466,,response,,,,100,,,,,,,Space,keypress(Space),,,,,,,,-- --- ---- --- ------ ----- ------- ---- -- --- ------- --<br>------- ---------- ------ -- ----- -- ----- -- ---- ------<br>--- ----- --- --- ------ -------- ----- --- ------ ----- --<br>----- ----- ---------- --- --- ------ ------ ---- -- ------<br>------- --- ------ ----- --- ---- ------- -- ---- --- --<br>------- money.,183328,183313,183024.9,183024,183040.12,183340.04,,55,money.
Item 100,flow.Loop,1_1_1_1,2021-04-22T20:38:39.068Z,,,,,,,,,,,,,,,,,,,,,,,,,,,,,,27539.839999999997,,completion,,,,,D,,,,,,,,,,,silence,,,,,183329,183313,155756.5,155757,155773.16,183340.04,,,
Question 1,html.Screen,1_1_1_2,2021-04-22T20:38:43.346Z,,,,,,,,,,,,,,,,,,,,,,,,,,,true,TRUE,,4253.959999999992,,response,,,,100,D,,,,,,TRUE,click #choice-1,,,,silence,,,,,187607,187594,183329.1,183329,183340.04,187623.4,,,
Question 2,html.Screen,1_1_1_3,2021-04-22T20:38:45.480Z,,,,,,,,,,,,,,,,,,,,,,,,,,,true,FALSE,,2110.600000000006,,response,,,,100,D,,,,,,FALSE,click #choice-2,,,,silence,,,,,189740,189734,187606.74,187607,187623.4,189773.36,,,
Item 100,flow.Sequence,1_1_1,2021-04-22T20:38:45.480Z,,,,,,,,,,,,,,,,,,,,,,,,,,,,,,43960.859999999986,,completion,,,,,,,,,,,,,,,,,,,,,189740,189734,145756.52,145745,145773.14,189773.36,,,
End of Practice,html.Page,1_1_2,2021-04-22T20:38:51.906Z,,,,,,,,,,,,,,,,,,,,,,,,,,,,,,6393.640000000014,,form submission,,,,,,,,,,,,,,,,,,,,,196167,196167,189756.7,189741,189773.36,196190.08,,,
Practice,flow.Sequence,1_1,2021-04-22T20:38:51.906Z,,,,,,,,,,,,,,,,,,,,,,,,,,,,,,95494.08,,completion,,,,,,,,,,,,,,,,,,,,,196167,196167,100656.28,100657,100672.92,196190.08,,,
Trap_instruction,html.Page,1_2_0,2021-04-22T20:38:57.207Z,,,,,,,,,,,,,,,,,,,,,,,,,,,,,,5276.920000000013,,form submission,,,,,,,,,,,,,,,,,,,,,201467,201467,196173.46,196167,196190.08,201523.46,,,
trap_trial,html.Screen,1_2_1,2021-04-22T20:39:00.007Z,,,,,,,,,,,,,,,,,,,,,,,,,,,true,1,,2742.540000000008,,response,,,,,,,,,,,1,click #choice-1,,,,,,,,,204268,204266,201506.8,201467,201523.46,204290.16,,,
end of trap trial,html.Page,1_2_2,2021-04-22T20:39:01.650Z,,,,,,,,,,,,,,,,,,,,,,,,,,,,,,1620.8399999999965,,form submission,,,,,,,,,,,,,,,,,,,,,205912,205911,204273.5,204268,204290.16,205940.08,,,
Trap 1,flow.Sequence,1_2,2021-04-22T20:39:01.650Z,,,,,,,,,,,,,,,,,,,,,,,,,,,,,,9720.920000000013,,completion,,,,,,,,,,,,,,,,,,,,,205912,205911,196173.46,196167,196190.08,205940.08,,,
Standby,html.Page,1_3_0,2021-04-22T20:39:10.046Z,,,,,,,,,,,,,,,,,,,,,,,,,,,,,,9371.180000000022,,timeout,,,,,,,,,,,,,,,,,,,,,214306,214306.18,205923.42,205912,205940.08,215311.26,,,
Holding screen,html.Screen,1_3_1_0_0,2021-04-22T20:39:18.029Z,,,,,,,,,,,,,,,,,,,,,,,,,,,,,,6995.639999999985,,timeout,,,,,,,,,,,,,,,,,,,,,222291,222290.22,214306.18,214307,215311.26,222306.9,,,
screen,html.Screen,1_3_1_0_1_0,2021-04-22T20:39:18.860Z,,,,,,,,,,,,,,,,2,,,,,,,,,,,,,,802.1000000000058,,response,,,,1,D,,,,,,Space,keypress(Space),,,,silence,,,,Two ---- ------ --- ------- ---------- ------- ----------<br>--- --------- --- ----------- ------- ----- ------- ---<br>--------- ---- -- --- ---- -- --------- -- ---- -------<br>-- --------- ------ --- ----- ------ ---- --- --------- --<br>------ - ---- -- --- ----------- ------- ---- ----- -----<br>--- -------- - ------ ---- -- ----- ---- --- --- -----------<br>-- -------,223120,223109,222290.22,222291,222306.9,223123.58,,0,Two
screen,html.Screen,1_3_1_0_1_1,2021-04-22T20:39:19.259Z,,,,,,,,,,,,,,,,2,,,,,,,,,,,,,,392.4200000000128,,response,,,,1,D,,,,,,Space,keypress(Space),,,,silence,,,,--- days ------ --- ------- ---------- ------- ----------<br>--- --------- --- ----------- ------- ----- ------- ---<br>--------- ---- -- --- ---- -- --------- -- ---- -------<br>-- --------- ------ --- ----- ------ ---- --- --------- --<br>------ - ---- -- --- ----------- ------- ---- ----- -----<br>--- -------- - ------ ---- -- ----- ---- --- --- -----------<br>-- -------,223520,223516,223120.9,223120,223123.58,223523.58,,1,days
screen,html.Screen,1_3_1_0_1_2,2021-04-22T20:39:19.643Z,,,,,,,,,,,,,,,,2,,,,,,,,,,,,,,366.4200000000128,,response,,,,1,D,,,,,,Space,keypress(Space),,,,silence,,,,"--- ---- later, --- ------- ---------- ------- ----------<br>--- --------- --- ----------- ------- ----- ------- ---<br>--------- ---- -- --- ---- -- --------- -- ---- -------<br>-- --------- ------ --- ----- ------ ---- --- --------- --<br>------ - ---- -- --- ----------- ------- ---- ----- -----<br>--- -------- - ------ ---- -- ----- ---- --- --- -----------<br>-- -------",223905,223890,223520.12,223520,223523.58,223906.92,,2,"later,"
screen,html.Screen,1_3_1_0_1_3,2021-04-22T20:39:19.979Z,,,,,,,,,,,,,,,,2,,,,,,,,,,,,,,328.0799999999872,,response,,,,1,D,,,,,,Space,keypress(Space),,,,silence,,,,--- ---- ------ the ------- ---------- ------- ----------<br>--- --------- --- ----------- ------- ----- ------- ---<br>--------- ---- -- --- ---- -- --------- -- ---- -------<br>-- --------- ------ --- ----- ------ ---- --- --------- --<br>------ - ---- -- --- ----------- ------- ---- ----- -----<br>--- -------- - ------ ---- -- ----- ---- --- --- -----------<br>-- -------,224240,224235,223904.88,223905,223906.92,224256.94,,3,the
screen,html.Screen,1_3_1_0_1_4,2021-04-22T20:39:20.307Z,,,,,,,,,,,,,,,,2,,,,,,,,,,,,,,306.0599999999977,,response,,,,1,D,,,,,,Space,keypress(Space),,,,silence,,,,--- ---- ------ --- British ---------- ------- ----------<br>--- --------- --- ----------- ------- ----- ------- ---<br>--------- ---- -- --- ---- -- --------- -- ---- -------<br>-- --------- ------ --- ----- ------ ---- --- --------- --<br>------ - ---- -- --- ----------- ------- ---- ----- -----<br>--- -------- - ------ ---- -- ----- ---- --- --- -----------<br>-- -------,224568,224563,224240.42,224240,224256.94,224573.58,,4,British
screen,html.Screen,1_3_1_0_1_5,2021-04-22T20:39:20.652Z,,,,,,,,,,,,,,,,2,,,,,,,,,,,,,,332.4200000000128,,response,,,,1,D,,,,,,Space,keypress(Space),,,,silence,,,,--- ---- ------ --- ------- astronomer ------- ----------<br>--- --------- --- ----------- ------- ----- ------- ---<br>--------- ---- -- --- ---- -- --------- -- ---- -------<br>-- --------- ------ --- ----- ------ ---- --- --------- --<br>------ - ---- -- --- ----------- ------- ---- ----- -----<br>--- -------- - ------ ---- -- ----- ---- --- --- -----------<br>-- -------,224912,224906,224568.26,224568,224573.58,224923.58,,5,astronomer
screen,html.Screen,1_3_1_0_1_6,2021-04-22T20:39:21.100Z,,,,,,,,,,,,,,,,2,,,,,,,,,,,,,,419.4200000000128,,response,,,,1,D,,,,,,Space,keypress(Space),,,,silence,,,,--- ---- ------ --- ------- ---------- Richard ----------<br>--- --------- --- ----------- ------- ----- ------- ---<br>--------- ---- -- --- ---- -- --------- -- ---- -------<br>-- --------- ------ --- ----- ------ ---- --- --------- --<br>------ - ---- -- --- ----------- ------- ---- ----- -----<br>--- -------- - ------ ---- -- ----- ---- --- --- -----------<br>-- -------,225360,225343,224912.78,224912,224923.58,225373.6,,6,Richard
screen,html.Screen,1_3_1_0_1_7,2021-04-22T20:39:21.492Z,,,,,,,,,,,,,,,,2,,,,,,,,,,,,,,376.3999999999942,,response,,,,1,D,,,,,,Space,keypress(Space),,,,silence,,,,--- ---- ------ --- ------- ---------- ------- Carrington<br>--- --------- --- ----------- ------- ----- ------- ---<br>--------- ---- -- --- ---- -- --------- -- ---- -------<br>-- --------- ------ --- ----- ------ ---- --- --------- --<br>------ - ---- -- --- ----------- ------- ---- ----- -----<br>--- -------- - ------ ---- -- ----- ---- --- --- -----------<br>-- -------,225752,225750,225360.44,225360,225373.6,225756.9,,7,Carrington
screen,html.Screen,1_3_1_0_1_8,2021-04-22T20:39:21.924Z,,,,,,,,,,,,,,,,2,,,,,,,,,,,,,,416.1000000000058,,response,,,,1,D,,,,,,Space,keypress(Space),,,,silence,,,,--- ---- ------ --- ------- ---------- ------- ----------<br>was --------- --- ----------- ------- ----- ------- ---<br>--------- ---- -- --- ---- -- --------- -- ---- -------<br>-- --------- ------ --- ----- ------ ---- --- --------- --<br>------ - ---- -- --- ----------- ------- ---- ----- -----<br>--- -------- - ------ ---- -- ----- ---- --- --- -----------<br>-- -------,226185,226173,225753,225753,225756.9,226190.28,,8,was
screen,html.Screen,1_3_1_0_1_9,2021-04-22T20:39:22.236Z,,,,,,,,,,,,,,,,2,,,,,,,,,,,,,,294.72000000000116,,response,,,,1,D,,,,,,Space,keypress(Space),,,,silence,,,,--- ---- ------ --- ------- ---------- ------- ----------<br>--- observing --- ----------- ------- ----- ------- ---<br>--------- ---- -- --- ---- -- --------- -- ---- -------<br>-- --------- ------ --- ----- ------ ---- --- --------- --<br>------ - ---- -- --- ----------- ------- ---- ----- -----<br>--- -------- - ------ ---- -- ----- ---- --- --- -----------<br>-- -------,226497,226485,226185.06,226185,226190.28,226507,,9,observing
screen,html.Screen,1_3_1_0_1_10,2021-04-22T20:39:22.651Z,,,,,,,,,,,,,,,,2,,,,,,,,,,,,,,400,,response,,,,1,D,,,,,,Space,keypress(Space),,,,silence,,,,--- ---- ------ --- ------- ---------- ------- ----------<br>--- --------- the ----------- ------- ----- ------- ---<br>--------- ---- -- --- ---- -- --------- -- ---- -------<br>-- --------- ------ --- ----- ------ ---- --- --------- --<br>------ - ---- -- --- ----------- ------- ---- ----- -----<br>--- -------- - ------ ---- -- ----- ---- --- --- -----------<br>-- -------,226912,226907,226496.96,226497,226507,226923.66,,10,the
screen,html.Screen,1_3_1_0_1_11,2021-04-22T20:39:23.180Z,,,,,,,,,,,,,,,,2,,,,,,,,,,,,,,513.3399999999965,,response,,,,1,D,,,,,,Space,keypress(Space),,,,silence,,,,--- ---- ------ --- ------- ---------- ------- ----------<br>--- --------- --- interesting ------- ----- ------- ---<br>--------- ---- -- --- ---- -- --------- -- ---- -------<br>-- --------- ------ --- ----- ------ ---- --- --------- --<br>------ - ---- -- --- ----------- ------- ---- ----- -----<br>--- -------- - ------ ---- -- ----- ---- --- --- -----------<br>-- -------,227440,227437,226912.5,226912,226923.66,227456.96,,11,interesting
screen,html.Screen,1_3_1_0_1_12,2021-04-22T20:39:23.580Z,,,,,,,,,,,,,,,,2,,,,,,,,,,,,,,371.04000000000815,,response,,,,1,D,,,,,,Space,keypress(Space),,,,silence,,,,--- ---- ------ --- ------- ---------- ------- ----------<br>--- --------- --- ----------- sunspot ----- ------- ---<br>--------- ---- -- --- ---- -- --------- -- ---- -------<br>-- --------- ------ --- ----- ------ ---- --- --------- --<br>------ - ---- -- --- ----------- ------- ---- ----- -----<br>--- -------- - ------ ---- -- ----- ---- --- --- -----------<br>-- -------,227841,227828,227440.92,227441,227456.96,227857,,12,sunspot
screen,html.Screen,1_3_1_0_1_13,2021-04-22T20:39:23.916Z,,,,,,,,,,,,,,,,2,,,,,,,,,,,,,,315,,response,,,,1,D,,,,,,Space,keypress(Space),,,,silence,,,,--- ---- ------ --- ------- ---------- ------- ----------<br>--- --------- --- ----------- ------- group ------- ---<br>--------- ---- -- --- ---- -- --------- -- ---- -------<br>-- --------- ------ --- ----- ------ ---- --- --------- --<br>------ - ---- -- --- ----------- ------- ---- ----- -----<br>--- -------- - ------ ---- -- ----- ---- --- --- -----------<br>-- -------,228176,228172,227840.96,227841,227857,228190.28,,13,group
screen,html.Screen,1_3_1_0_1_14,2021-04-22T20:39:24.259Z,,,,,,,,,,,,,,,,2,,,,,,,,,,,,,,325.72000000000116,,response,,,,1,D,,,,,,Space,keypress(Space),,,,silence,,,,--- ---- ------ --- ------- ---------- ------- ----------<br>--- --------- --- ----------- ------- ----- through ---<br>--------- ---- -- --- ---- -- --------- -- ---- -------<br>-- --------- ------ --- ----- ------ ---- --- --------- --<br>------ - ---- -- --- ----------- ------- ---- ----- -----<br>--- -------- - ------ ---- -- ----- ---- --- --- -----------<br>-- -------,228520,228516,228176.9,228176,228190.28,228523.58,,14,through
screen,html.Screen,1_3_1_0_1_15,2021-04-22T20:39:24.611Z,,,,,,,,,,,,,,,,2,,,,,,,,,,,,,,336.4200000000128,,response,,,,1,D,,,,,,Space,keypress(Space),,,,silence,,,,--- ---- ------ --- ------- ---------- ------- ----------<br>--- --------- --- ----------- ------- ----- ------- his<br>--------- ---- -- --- ---- -- --------- -- ---- -------<br>-- --------- ------ --- ----- ------ ---- --- --------- --<br>------ - ---- -- --- ----------- ------- ---- ----- -----<br>--- -------- - ------ ---- -- ----- ---- --- --- -----------<br>-- -------,228873,228860,228520.64,228520,228523.58,228890.28,,15,his
screen,html.Screen,1_3_1_0_1_16,2021-04-22T20:39:24.988Z,,,,,,,,,,,,,,,,2,,,,,,,,,,,,,,344.72000000000116,,response,,,,1,D,,,,,,Space,keypress(Space),,,,silence,,,,--- ---- ------ --- ------- ---------- ------- ----------<br>--- --------- --- ----------- ------- ----- ------- ---<br>telescope ---- -- --- ---- -- --------- -- ---- -------<br>-- --------- ------ --- ----- ------ ---- --- --------- --<br>------ - ---- -- --- ----------- ------- ---- ----- -----<br>--- -------- - ------ ---- -- ----- ---- --- --- -----------<br>-- -------,229249,229235,228872.78,228873,228890.28,229256.88,,16,telescope
screen,html.Screen,1_3_1_0_1_17,2021-04-22T20:39:25.364Z,,,,,,,,,,,,,,,,2,,,,,,,,,,,,,,353.11999999999534,,response,,,,1,D,,,,,,Space,keypress(Space),,,,silence,,,,--- ---- ------ --- ------- ---------- ------- ----------<br>--- --------- --- ----------- ------- ----- ------- ---<br>--------- when -- --- ---- -- --------- -- ---- -------<br>-- --------- ------ --- ----- ------ ---- --- --------- --<br>------ - ---- -- --- ----------- ------- ---- ----- -----<br>--- -------- - ------ ---- -- ----- ---- --- --- -----------<br>-- -------,229625,229610,229248.64,229249,229256.88,229640.34,,17,when
screen,html.Screen,1_3_1_0_1_18,2021-04-22T20:39:25.691Z,,,,,,,,,,,,,,,,2,,,,,,,,,,,,,,297.6600000000035,,response,,,,1,D,,,,,,Space,keypress(Space),,,,silence,,,,--- ---- ------ --- ------- ---------- ------- ----------<br>--- --------- --- ----------- ------- ----- ------- ---<br>--------- ---- he --- ---- -- --------- -- ---- -------<br>-- --------- ------ --- ----- ------ ---- --- --------- --<br>------ - ---- -- --- ----------- ------- ---- ----- -----<br>--- -------- - ------ ---- -- ----- ---- --- --- -----------<br>-- -------,229952,229938,229624.78,229625,229640.34,229956.94,,18,he
screen,html.Screen,1_3_1_0_1_19,2021-04-22T20:39:26.012Z,,,,,,,,,,,,,,,,2,,,,,,,,,,,,,,309.0599999999977,,response,,,,1,D,,,,,,Space,keypress(Space),,,,silence,,,,--- ---- ------ --- ------- ---------- ------- ----------<br>--- --------- --- ----------- ------- ----- ------- ---<br>--------- ---- -- saw ---- -- --------- -- ---- -------<br>-- --------- ------ --- ----- ------ ---- --- --------- --<br>------ - ---- -- --- ----------- ------- ---- ----- -----<br>--- -------- - ------ ---- -- ----- ---- --- --- -----------<br>-- -------,230273,230266,229952.62,229953,229956.94,230290.3,,19,saw
screen,html.Screen,1_3_1_0_1_20,2021-04-22T20:39:26.364Z,,,,,,,,,,,,,,,,2,,,,,,,,,,,,,,318.70000000001164,,response,,,,1,D,,,,,,Space,keypress(Space),,,,silence,,,,--- ---- ------ --- ------- ---------- ------- ----------<br>--- --------- --- ----------- ------- ----- ------- ---<br>--------- ---- -- --- what -- --------- -- ---- -------<br>-- --------- ------ --- ----- ------ ---- --- --------- --<br>------ - ---- -- --- ----------- ------- ---- ----- -----<br>--- -------- - ------ ---- -- ----- ---- --- --- -----------<br>-- -------,230625,230609,230273.84,230273,230290.3,230640.3,,20,what
screen,html.Screen,1_3_1_0_1_21,2021-04-22T20:39:26.732Z,,,,,,,,,,,,,,,,2,,,,,,,,,,,,,,343.70000000001164,,response,,,,1,D,,,,,,Space,keypress(Space),,,,silence,,,,--- ---- ------ --- ------- ---------- ------- ----------<br>--- --------- --- ----------- ------- ----- ------- ---<br>--------- ---- -- --- ---- he --------- -- ---- -------<br>-- --------- ------ --- ----- ------ ---- --- --------- --<br>------ - ---- -- --- ----------- ------- ---- ----- -----<br>--- -------- - ------ ---- -- ----- ---- --- --- -----------<br>-- -------,230993,230984,230624.92,230625,230640.3,231006.98,,21,he
screen,html.Screen,1_3_1_0_1_22,2021-04-22T20:39:27.084Z,,,,,,,,,,,,,,,,2,,,,,,,,,,,,,,322.0199999999895,,response,,,,1,D,,,,,,Space,keypress(Space),,,,silence,,,,--- ---- ------ --- ------- ---------- ------- ----------<br>--- --------- --- ----------- ------- ----- ------- ---<br>--------- ---- -- --- ---- -- described -- ---- -------<br>-- --------- ------ --- ----- ------ ---- --- --------- --<br>------ - ---- -- --- ----------- ------- ---- ----- -----<br>--- -------- - ------ ---- -- ----- ---- --- --- -----------<br>-- -------,231344,231329,230992.8,230993,231006.98,231357.02,,22,described
screen,html.Screen,1_3_1_0_1_23,2021-04-22T20:39:27.419Z,,,,,,,,,,,,,,,,2,,,,,,,,,,,,,,314.9800000000105,,response,,,,1,D,,,,,,Space,keypress(Space),,,,silence,,,,--- ---- ------ --- ------- ---------- ------- ----------<br>--- --------- --- ----------- ------- ----- ------- ---<br>--------- ---- -- --- ---- -- --------- as ---- -------<br>-- --------- ------ --- ----- ------ ---- --- --------- --<br>------ - ---- -- --- ----------- ------- ---- ----- -----<br>--- -------- - ------ ---- -- ----- ---- --- --- -----------<br>-- -------,231681,231672,231344.98,231344,231357.02,231690.3,,23,as
screen,html.Screen,1_3_1_0_1_24,2021-04-22T20:39:27.732Z,,,,,,,,,,,,,,,,2,,,,,,,,,,,,,,293.70000000001164,,response,,,,1,D,,,,,,Space,keypress(Space),,,,silence,,,,"--- ---- ------ --- ------- ---------- ------- ----------<br>--- --------- --- ----------- ------- ----- ------- ---<br>--------- ---- -- --- ---- -- --------- -- ""two -------<br>-- --------- ------ --- ----- ------ ---- --- --------- --<br>------ - ---- -- --- ----------- ------- ---- ----- -----<br>--- -------- - ------ ---- -- ----- ---- --- --- -----------<br>-- -------",231993,231984,231680.82,231681,231690.3,232006.98,,24,"""two"
screen,html.Screen,1_3_1_0_1_25,2021-04-22T20:39:28.108Z,,,,,,,,,,,,,,,,2,,,,,,,,,,,,,,352.0199999999895,,response,,,,1,D,,,,,,Space,keypress(Space),,,,silence,,,,--- ---- ------ --- ------- ---------- ------- ----------<br>--- --------- --- ----------- ------- ----- ------- ---<br>--------- ---- -- --- ---- -- --------- -- ---- patches<br>-- --------- ------ --- ----- ------ ---- --- --------- --<br>------ - ---- -- --- ----------- ------- ---- ----- -----<br>--- -------- - ------ ---- -- ----- ---- --- --- -----------<br>-- -------,232369,232359,231992.98,231993,232006.98,232373.62,,25,patches
screen,html.Screen,1_3_1_0_1_26,2021-04-22T20:39:28.484Z,,,,,,,,,,,,,,,,2,,,,,,,,,,,,,,361.38000000000466,,response,,,,1,D,,,,,,Space,keypress(Space),,,,silence,,,,--- ---- ------ --- ------- ---------- ------- ----------<br>--- --------- --- ----------- ------- ----- ------- ---<br>--------- ---- -- --- ---- -- --------- -- ---- -------<br>of --------- ------ --- ----- ------ ---- --- --------- --<br>------ - ---- -- --- ----------- ------- ---- ----- -----<br>--- -------- - ------ ---- -- ----- ---- --- --- -----------<br>-- -------,232745,232735,232369.3,232369,232373.62,232756.96,,26,of
screen,html.Screen,1_3_1_0_1_27,2021-04-22T20:39:28.827Z,,,,,,,,,,,,,,,,2,,,,,,,,,,,,,,321.04000000000815,,response,,,,1,D,,,,,,Space,keypress(Space),,,,silence,,,,--- ---- ------ --- ------- ---------- ------- ----------<br>--- --------- --- ----------- ------- ----- ------- ---<br>--------- ---- -- --- ---- -- --------- -- ---- -------<br>-- intensely ------ --- ----- ------ ---- --- --------- --<br>------ - ---- -- --- ----------- ------- ---- ----- -----<br>--- -------- - ------ ---- -- ----- ---- --- --- -----------<br>-- -------,233089,233078,232745.1,232745,232756.96,233090.32,,27,intensely
screen,html.Screen,1_3_1_0_1_28,2021-04-22T20:39:29.187Z,,,,,,,,,,,,,,,,2,,,,,,,,,,,,,,346.679999999993,,response,,,,1,D,,,,,,Space,keypress(Space),,,,silence,,,,--- ---- ------ --- ------- ---------- ------- ----------<br>--- --------- --- ----------- ------- ----- ------- ---<br>--------- ---- -- --- ---- -- --------- -- ---- -------<br>-- --------- bright --- ----- ------ ---- --- --------- --<br>------ - ---- -- --- ----------- ------- ---- ----- -----<br>--- -------- - ------ ---- -- ----- ---- --- --- -----------<br>-- -------,233448,233437,233088.74,233089,233090.32,233456.98,,28,bright
screen,html.Screen,1_3_1_0_1_29,2021-04-22T20:39:29.572Z,,,,,,,,,,,,,,,,2,,,,,,,,,,,,,,371.0199999999895,,response,,,,1,D,,,,,,Space,keypress(Space),,,,silence,,,,--- ---- ------ --- ------- ---------- ------- ----------<br>--- --------- --- ----------- ------- ----- ------- ---<br>--------- ---- -- --- ---- -- --------- -- ---- -------<br>-- --------- ------ and ----- ------ ---- --- --------- --<br>------ - ---- -- --- ----------- ------- ---- ----- -----<br>--- -------- - ------ ---- -- ----- ---- --- --- -----------<br>-- -------,233832,233828,233448.88,233448,233456.98,233840.3,,29,and
screen,html.Screen,1_3_1_0_1_30,2021-04-22T20:39:29.900Z,,,,,,,,,,,,,,,,2,,,,,,,,,,,,,,315.70000000001164,,response,,,,1,D,,,,,,Space,keypress(Space),,,,silence,,,,--- ---- ------ --- ------- ---------- ------- ----------<br>--- --------- --- ----------- ------- ----- ------- ---<br>--------- ---- -- --- ---- -- --------- -- ---- -------<br>-- --------- ------ --- white ------ ---- --- --------- --<br>------ - ---- -- --- ----------- ------- ---- ----- -----<br>--- -------- - ------ ---- -- ----- ---- --- --- -----------<br>-- -------,234160,234156,233832.96,233833,233840.3,234173.64,,30,white
screen,html.Screen,1_3_1_0_1_31,2021-04-22T20:39:30.268Z,,,,,,,,,,,,,,,,2,,,,,,,,,,,,,,341.35999999998603,,response,,,,1,D,,,,,,Space,keypress(Space),,,,silence,,,,"--- ---- ------ --- ------- ---------- ------- ----------<br>--- --------- --- ----------- ------- ----- ------- ---<br>--------- ---- -- --- ---- -- --------- -- ---- -------<br>-- --------- ------ --- ----- light"" ---- --- --------- --<br>------ - ---- -- --- ----------- ------- ---- ----- -----<br>--- -------- - ------ ---- -- ----- ---- --- --- -----------<br>-- -------",234528,234515,234160.74,234160,234173.64,234540.3,,31,"light"""
screen,html.Screen,1_3_1_0_1_32,2021-04-22T20:39:30.595Z,,,,,,,,,,,,,,,,2,,,,,,,,,,,,,,302.70000000001164,,response,,,,1,D,,,,,,Space,keypress(Space),,,,silence,,,,--- ---- ------ --- ------- ---------- ------- ----------<br>--- --------- --- ----------- ------- ----- ------- ---<br>--------- ---- -- --- ---- -- --------- -- ---- -------<br>-- --------- ------ --- ----- ------ over --- --------- --<br>------ - ---- -- --- ----------- ------- ---- ----- -----<br>--- -------- - ------ ---- -- ----- ---- --- --- -----------<br>-- -------,234857,234843,234528.7,234529,234540.3,234873.66,,32,over
screen,html.Screen,1_3_1_0_1_33,2021-04-22T20:39:31.156Z,,,,,,,,,,,,,,,,2,,,,,,,,,,,,,,533.3399999999965,,response,,,,1,D,,,,,,Space,keypress(Space),,,,silence,,,,--- ---- ------ --- ------- ---------- ------- ----------<br>--- --------- --- ----------- ------- ----- ------- ---<br>--------- ---- -- --- ---- -- --------- -- ---- -------<br>-- --------- ------ --- ----- ------ ---- the --------- --<br>------ - ---- -- --- ----------- ------- ---- ----- -----<br>--- -------- - ------ ---- -- ----- ---- --- --- -----------<br>-- -------,235417,235407,234857.06,234857,234873.66,235423.66,,33,the
screen,html.Screen,1_3_1_0_1_34,2021-04-22T20:39:31.740Z,,,,,,,,,,,,,,,,2,,,,,,,,,,,,,,561.3399999999965,,response,,,,1,D,,,,,,Space,keypress(Space),,,,silence,,,,--- ---- ------ --- ------- ---------- ------- ----------<br>--- --------- --- ----------- ------- ----- ------- ---<br>--------- ---- -- --- ---- -- --------- -- ---- -------<br>-- --------- ------ --- ----- ------ ---- --- sunspots. --<br>------ - ---- -- --- ----------- ------- ---- ----- -----<br>--- -------- - ------ ---- -- ----- ---- --- --- -----------<br>-- -------,236001,235985,235417.28,235418,235423.66,236006.94,,34,sunspots.
screen,html.Screen,1_3_1_0_1_35,2021-04-22T20:39:32.100Z,,,,,,,,,,,,,,,,2,,,,,,,,,,,,,,337.0599999999977,,response,,,,1,D,,,,,,Space,keypress(Space),,,,silence,,,,--- ---- ------ --- ------- ---------- ------- ----------<br>--- --------- --- ----------- ------- ----- ------- ---<br>--------- ---- -- --- ---- -- --------- -- ---- -------<br>-- --------- ------ --- ----- ------ ---- --- --------- He<br>------ - ---- -- --- ----------- ------- ---- ----- -----<br>--- -------- - ------ ---- -- ----- ---- --- --- -----------<br>-- -------,236361,236344,236001.12,236001,236006.94,236373.7,,35,He
screen,html.Screen,1_3_1_0_1_36,2021-04-22T20:39:32.459Z,,,,,,,,,,,,,,,,2,,,,,,,,,,,,,,330.29999999998836,,response,,,,1,D,,,,,,Space,keypress(Space),,,,silence,,,,--- ---- ------ --- ------- ---------- ------- ----------<br>--- --------- --- ----------- ------- ----- ------- ---<br>--------- ---- -- --- ---- -- --------- -- ---- -------<br>-- --------- ------ --- ----- ------ ---- --- --------- --<br>jotted - ---- -- --- ----------- ------- ---- ----- -----<br>--- -------- - ------ ---- -- ----- ---- --- --- -----------<br>-- -------,236720,236704,236360.82,236361,236373.7,236723.62,,36,jotted
screen,html.Screen,1_3_1_0_1_37,2021-04-22T20:39:33.387Z,,,,,,,,,,,,,,,,2,,,,,,,,,,,,,,916.3800000000047,,response,,,,1,D,,,,,,Space,keypress(Space),,,,silence,,,,--- ---- ------ --- ------- ---------- ------- ----------<br>--- --------- --- ----------- ------- ----- ------- ---<br>--------- ---- -- --- ---- -- --------- -- ---- -------<br>-- --------- ------ --- ----- ------ ---- --- --------- --<br>------ a ---- -- --- ----------- ------- ---- ----- -----<br>--- -------- - ------ ---- -- ----- ---- --- --- -----------<br>-- -------,237648,237640,236720.58,236720,236723.62,237657.02,,37,a
screen,html.Screen,1_3_1_0_1_38,2021-04-22T20:39:33.932Z,,,,,,,,,,,,,,,,2,,,,,,,,,,,,,,530.9800000000105,,response,,,,1,D,,,,,,Space,keypress(Space),,,,silence,,,,--- ---- ------ --- ------- ---------- ------- ----------<br>--- --------- --- ----------- ------- ----- ------- ---<br>--------- ---- -- --- ---- -- --------- -- ---- -------<br>-- --------- ------ --- ----- ------ ---- --- --------- --<br>------ - note -- --- ----------- ------- ---- ----- -----<br>--- -------- - ------ ---- -- ----- ---- --- --- -----------<br>-- -------,238194,238188,237648.4,237648,237657.02,238207.04,,38,note
screen,html.Screen,1_3_1_0_1_39,2021-04-22T20:39:34.396Z,,,,,,,,,,,,,,,,2,,,,,,,,,,,,,,433.95999999999185,,response,,,,1,D,,,,,,Space,keypress(Space),,,,silence,,,,--- ---- ------ --- ------- ---------- ------- ----------<br>--- --------- --- ----------- ------- ----- ------- ---<br>--------- ---- -- --- ---- -- --------- -- ---- -------<br>-- --------- ------ --- ----- ------ ---- --- --------- --<br>------ - ---- in --- ----------- ------- ---- ----- -----<br>--- -------- - ------ ---- -- ----- ---- --- --- -----------<br>-- -------,238657,238641,238193.46,238194,238207.04,238673.64,,39,in
screen,html.Screen,1_3_1_0_1_40,2021-04-22T20:39:34.828Z,,,,,,,,,,,,,,,,2,,,,,,,,,,,,,,404.35999999998603,,response,,,,1,D,,,,,,Space,keypress(Space),,,,silence,,,,--- ---- ------ --- ------- ---------- ------- ----------<br>--- --------- --- ----------- ------- ----- ------- ---<br>--------- ---- -- --- ---- -- --------- -- ---- -------<br>-- --------- ------ --- ----- ------ ---- --- --------- --<br>------ - ---- -- his ----------- ------- ---- ----- -----<br>--- -------- - ------ ---- -- ----- ---- --- --- -----------<br>-- -------,239088,239078,238656.86,238657,238673.64,239090.34,,40,his
screen,html.Screen,1_3_1_0_1_41,2021-04-22T20:39:35.403Z,,,,,,,,,,,,,,,,2,,,,,,,,,,,,,,565.6600000000035,,response,,,,1,D,,,,,,Space,keypress(Space),,,,silence,,,,--- ---- ------ --- ------- ---------- ------- ----------<br>--- --------- --- ----------- ------- ----- ------- ---<br>--------- ---- -- --- ---- -- --------- -- ---- -------<br>-- --------- ------ --- ----- ------ ---- --- --------- --<br>------ - ---- -- --- painstaking ------- ---- ----- -----<br>--- -------- - ------ ---- -- ----- ---- --- --- -----------<br>-- -------,239665,239656,239088.54,239089,239090.34,239673.72,,41,painstaking
screen,html.Screen,1_3_1_0_1_42,2021-04-22T20:39:36.715Z,,,,,,,,,,,,,,,,2,,,,,,,,,,,,,,1295.2799999999988,,response,,,,1,D,,,,,,Space,keypress(Space),,,,silence,,,,--- ---- ------ --- ------- ---------- ------- ----------<br>--- --------- --- ----------- ------- ----- ------- ---<br>--------- ---- -- --- ---- -- --------- -- ---- -------<br>-- --------- ------ --- ----- ------ ---- --- --------- --<br>------ - ---- -- --- ----------- record. ---- ----- -----<br>--- -------- - ------ ---- -- ----- ---- --- --- -----------<br>-- -------,240977,240969,239665.1,239665,239673.72,240990.4,,42,record.
screen,html.Screen,1_3_1_0_1_43,2021-04-22T20:39:37.147Z,,,,,,,,,,,,,,,,2,,,,,,,,,,,,,,416.6000000000058,,response,,,,1,D,,,,,,Space,keypress(Space),,,,silence,,,,--- ---- ------ --- ------- ---------- ------- ----------<br>--- --------- --- ----------- ------- ----- ------- ---<br>--------- ---- -- --- ---- -- --------- -- ---- -------<br>-- --------- ------ --- ----- ------ ---- --- --------- --<br>------ - ---- -- --- ----------- ------- That ----- -----<br>--- -------- - ------ ---- -- ----- ---- --- --- -----------<br>-- -------,241409,241407,240976.66,240977,240990.4,241423.68,,43,That
screen,html.Screen,1_3_1_0_1_44,2021-04-22T20:39:37.443Z,,,,,,,,,,,,,,,,2,,,,,,,,,,,,,,280.320000000007,,response,,,,1,D,,,,,,Space,keypress(Space),,,,silence,,,,--- ---- ------ --- ------- ---------- ------- ----------<br>--- --------- --- ----------- ------- ----- ------- ---<br>--------- ---- -- --- ---- -- --------- -- ---- -------<br>-- --------- ------ --- ----- ------ ---- --- --------- --<br>------ - ---- -- --- ----------- ------- ---- night -----<br>--- -------- - ------ ---- -- ----- ---- --- --- -----------<br>-- -------,241705,241704,241408.92,241409,241423.68,241707.02,,44,night
screen,html.Screen,1_3_1_0_1_45,2021-04-22T20:39:37.757Z,,,,,,,,,,,,,,,,2,,,,,,,,,,,,,,293.9800000000105,,response,,,,1,D,,,,,,Space,keypress(Space),,,,silence,,,,--- ---- ------ --- ------- ---------- ------- ----------<br>--- --------- --- ----------- ------- ----- ------- ---<br>--------- ---- -- --- ---- -- --------- -- ---- -------<br>-- --------- ------ --- ----- ------ ---- --- --------- --<br>------ - ---- -- --- ----------- ------- ---- ----- there<br>--- -------- - ------ ---- -- ----- ---- --- --- -----------<br>-- -------,242017,242001,241704.9,241705,241707.02,242023.68,,45,there
screen,html.Screen,1_3_1_0_1_46,2021-04-22T20:39:38.092Z,,,,,,,,,,,,,,,,2,,,,,,,,,,,,,,320.320000000007,,response,,,,1,D,,,,,,Space,keypress(Space),,,,silence,,,,--- ---- ------ --- ------- ---------- ------- ----------<br>--- --------- --- ----------- ------- ----- ------- ---<br>--------- ---- -- --- ---- -- --------- -- ---- -------<br>-- --------- ------ --- ----- ------ ---- --- --------- --<br>------ - ---- -- --- ----------- ------- ---- ----- -----<br>was -------- - ------ ---- -- ----- ---- --- --- -----------<br>-- -------,242352,242344,242017.4,242017,242023.68,242357,,46,was
screen,html.Screen,1_3_1_0_1_47,2021-04-22T20:39:38.435Z,,,,,,,,,,,,,,,,2,,,,,,,,,,,,,,331,,response,,,,1,D,,,,,,Space,keypress(Space),,,,silence,,,,--- ---- ------ --- ------- ---------- ------- ----------<br>--- --------- --- ----------- ------- ----- ------- ---<br>--------- ---- -- --- ---- -- --------- -- ---- -------<br>-- --------- ------ --- ----- ------ ---- --- --------- --<br>------ - ---- -- --- ----------- ------- ---- ----- -----<br>--- scarcely - ------ ---- -- ----- ---- --- --- -----------<br>-- -------,242696,242688,242352.9,242352,242357,242707.06,,47,scarcely
screen,html.Screen,1_3_1_0_1_48,2021-04-22T20:39:38.788Z,,,,,,,,,,,,,,,,2,,,,,,,,,,,,,,339.9400000000023,,response,,,,1,D,,,,,,Space,keypress(Space),,,,silence,,,,--- ---- ------ --- ------- ---------- ------- ----------<br>--- --------- --- ----------- ------- ----- ------- ---<br>--------- ---- -- --- ---- -- --------- -- ---- -------<br>-- --------- ------ --- ----- ------ ---- --- --------- --<br>------ - ---- -- --- ----------- ------- ---- ----- -----<br>--- -------- a ------ ---- -- ----- ---- --- --- -----------<br>-- -------,243049,243047,242696.74,242696,242707.06,243057,,48,a
screen,html.Screen,1_3_1_0_1_49,2021-04-22T20:39:39.179Z,,,,,,,,,,,,,,,,2,,,,,,,,,,,,,,381,,response,,,,1,D,,,,,,Space,keypress(Space),,,,silence,,,,--- ---- ------ --- ------- ---------- ------- ----------<br>--- --------- --- ----------- ------- ----- ------- ---<br>--------- ---- -- --- ---- -- --------- -- ---- -------<br>-- --------- ------ --- ----- ------ ---- --- --------- --<br>------ - ---- -- --- ----------- ------- ---- ----- -----<br>--- -------- - square ---- -- ----- ---- --- --- -----------<br>-- -------,243441,243438,243049.14,243049,243057,243457.08,,49,square
