sender,sender_type,sender_id,timestamp,meta,,Blues,Classical,Country,Dance,Electronic,Folk,Gospel,Hip-Hop,Jazz,Latin,Musical/Film,New-age,Pop,Provo_ID,R&B,Rap,Reggae,Religious,Rock,Soul,Swing,Traditional,age,artist_name,correct,correctResponse,distraction,duration,education,ended_on,familiarity,gender,headphone_check_performance,item,list,music_frequency,offensiveness,pleasantness,position_correct,preference,response,response_action,snippet_file,song_name,song_rating,sound,stimulus_1,stimulus_2,stimulus_3,text,time_commit,time_end,time_render,time_run,time_show,time_switch,url,word,word_ID
Introduction,html.Screen,0_0,2021-04-23T15:52:22.024Z,"{""labjs_version"":""20.2.2"",""labjs_build"":{""flavor"":""production"",""commit"":""a25486e0c714a0ae2ce03ff94b7bb6896854dcfa""},""location"":""https://run.pavlovia.org/mvasilev/music_e/"",""userAgent"":""Mozilla/5.0 (Macintosh; Intel Mac OS X 10_15_7) AppleWebKit/537.36 (KHTML, like Gecko) Chrome/90.0.4430.85 Safari/537.36"",""platform"":""MacIntel"",""language"":""en-GB"",""locale"":""en-GB"",""timeZone"":""Europe/London"",""timezoneOffset"":-60,""screen_width"":1440,""screen_height"":900,""scroll_width"":1200,""scroll_height"":598,""window_innerWidth"":1200,""window_innerHeight"":646,""devicePixelRatio"":2}",,,,,,,,,,,,,,,,,,,,,,,,,,,,,6151.5399999998035,,response,,,,,,,,,,,continue,click button,,,,,,,,,11823.98000000012,11816.179999999804,5631.308,5646.439999999984,5664.64,11838.161,{},,
Volume calibration,html.Screen,0_1,2021-04-23T15:52:30.428Z,,,,,,,,,,,,,,,,,,,,,,,,,,,,,,8386.608999999808,,response,,,,,,,,,,,continue,click button,,,,,,,,,20228.639999999814,20224.769999999808,11804.829,11824.654999999893,11838.161,20254.491,,,
Task instructions,html.Screen,0_2,2021-04-23T15:52:44.410Z,,,,,,,,,,,,,,,,,,,,,,,,,,,,,,13952.33900000008,,response,,,,,,,,,,,continue,click button,,,,,,,,,34210.15499999976,34206.83000000008,20237.825,20228.950000000168,20254.491,34225.862,,,
Sounds,html.Screen,0_3_0_0,2021-04-23T15:52:48.668Z,,,,,,,,,,,,,,,,,,,,,,,,,,,,,,4252.786999999997,,timeout,,,,,,,,,1,,,,,,,,S,I,O,,38468.08999999985,38461.983,34209.196,34210.53500000016,34225.862,38478.649,,,
Judgement,html.Screen,0_3_0_1,2021-04-23T15:52:50.719Z,,,,,,,,,,,,,,,,,,,,,,,,,,,true,1,,2037.560999999776,,response,,,,,,,,,1,,1,click #choice-1,,,,,S,I,O,,40519.084999999905,40516.20999999977,38461.983,38468.37000000005,38478.649,40545.233,,,
Trial,flow.Sequence,0_3_0,2021-04-23T15:52:50.719Z,,,,,,,,,,,,,,,,,,,,,,,,,,,,,,6290.347999999773,,completion,,,,,,,,,1,,,,,,,,S,I,O,,40519.80000000003,40516.20999999977,34209.196,34210.45000000004,34225.862,40545.233,,,
Sounds,html.Screen,0_3_1_0,2021-04-23T15:52:54.982Z,,,,,,,,,,,,,,,,,,,,,,,,,,,,,,4249.830000000002,,timeout,,,,,,,,,2,,,,,,,,O,S,I,,44782.07500000008,44778.397,40528.567,40520.03000000013,40545.233,44795.063,,,
Judgement,html.Screen,0_3_1_1,2021-04-23T15:52:55.473Z,,,,,,,,,,,,,,,,,,,,,,,,,,,true,2,,475.91199999990204,,response,,,,,,,,,2,,2,click #choice-2,,,,,O,S,I,,45273.68999999999,45270.974999999904,44778.397,44782.3699999999,44795.063,45297.473,,,
Trial,flow.Sequence,0_3_1,2021-04-23T15:52:55.473Z,,,,,,,,,,,,,,,,,,,,,,,,,,,,,,4725.741999999904,,completion,,,,,,,,,2,,,,,,,,O,S,I,,45273.990000000136,45270.974999999904,40528.567,40519.984999999906,40545.233,45297.473,,,
Sounds,html.Screen,0_3_2_0,2021-04-23T15:52:59.733Z,,,,,,,,,,,,,,,,,,,,,,,,,,,,,,4249.830000000002,,timeout,,,,,,,,,3,,,,,,,,O,I,S,,49533.32000000001,49530.637,45280.807,45274.17500000002,45297.473,49547.303,,,
Judgement,html.Screen,0_3_2_1,2021-04-23T15:53:00.868Z,,,,,,,,,,,,,,,,,,,,,,,,,,,true,3,,1117.9719999998342,,response,,,,,,,,,3,,3,click #choice-3,,,,,O,I,S,,50668.72499999999,50665.274999999834,49530.637,49533.59499999988,49547.303,50680.591,,,
Trial,flow.Sequence,0_3_2,2021-04-23T15:53:00.868Z,,,,,,,,,,,,,,,,,,,,,,,,,,,,,,5367.801999999836,,completion,,,,,,,,,3,,,,,,,,O,I,S,,50669.03000000002,50665.274999999834,45280.807,45274.12000000004,45297.473,50680.591,,,
Sounds,html.Screen,0_3_3_0,2021-04-23T15:53:05.115Z,,,,,,,,,,,,,,,,,,,,,,,,,,,,,,4249.830000000002,,timeout,,,,,,,,,1,,,,,,,,S,O,I,,54916.20000000011,54913.755,50663.925,50669.24000000017,50680.591,54930.421,,,
Judgement,html.Screen,0_3_3_1,2021-04-23T15:53:05.968Z,,,,,,,,,,,,,,,,,,,,,,,,,,,true,1,,834.4940000001952,,response,,,,,,,,,1,,1,click #choice-1,,,,,S,O,I,,55768.48500000006,55764.9150000002,54913.755,54916.479999999865,54930.421,55793.958,,,
Trial,flow.Sequence,0_3_3,2021-04-23T15:53:05.968Z,,,,,,,,,,,,,,,,,,,,,,,,,,,,,,5084.324000000197,,completion,,,,,,,,,1,,,,,,,,S,O,I,,55768.77500000001,55764.9150000002,50663.925,50669.159999999916,50680.591,55793.958,,,
Sounds,html.Screen,0_3_4_0,2021-04-23T15:53:10.230Z,,,,,,,,,,,,,,,,,,,,,,,,,,,,,,4249.830000000002,,timeout,,,,,,,,,3,,,,,,,,I,O,S,,60030.60000000005,60027.122,55777.292,55768.95000000013,55793.958,60043.788,,,
Judgement,html.Screen,0_3_4_1,2021-04-23T15:53:10.953Z,,,,,,,,,,,,,,,,,,,,,,,,,,,true,3,,706.0869999999704,,response,,,,,,,,,3,,3,click #choice-3,,,,,I,O,S,,60753.554999999775,60749.87499999997,60027.122,60030.885000000126,60043.788,60777.092,,,
Trial,flow.Sequence,0_3_4,2021-04-23T15:53:10.953Z,,,,,,,,,,,,,,,,,,,,,,,,,,,,,,4955.916999999972,,completion,,,,,,,,,3,,,,,,,,I,O,S,,60753.94000000006,60749.87499999997,55777.292,55768.90000000003,55793.958,60777.092,,,
Sounds,html.Screen,0_3_5_0,2021-04-23T15:53:15.212Z,,,,,,,,,,,,,,,,,,,,,,,,,,,,,,4249.830000000002,,timeout,,,,,,,,,2,,,,,,,,I,S,O,,65012.65999999987,65010.256,60760.426,60754.1299999998,60777.092,65026.922,,,
Judgement,html.Screen,0_3_5_1,2021-04-23T15:53:15.665Z,,,,,,,,,,,,,,,,,,,,,,,,,,,true,2,,435.69799999979296,,response,,,,,,,,,2,,2,click #choice-2,,,,,I,S,O,,65465.74000000009,65462.61999999979,65010.256,65012.940000000075,65026.922,65489.162,,,
Trial,flow.Sequence,0_3_5,2021-04-23T15:53:15.665Z,,,,,,,,,,,,,,,,,,,,,,,,,,,,,,4685.527999999795,,completion,,,,,,,,,2,,,,,,,,I,S,O,,65465.995000000024,65462.61999999979,60760.426,60754.08000000016,60777.092,65489.162,,,
Task,flow.Loop,0_3,2021-04-23T15:53:15.673Z,,,,,,,,,,,,,,,,,,,,,,,,,,,,,,31236.75799999979,,completion,,,1,,,,,,,,,,,,,,,,,,65473.64500000003,65462.61999999979,34209.196,34210.37500000012,34225.862,65489.162,,,
Trap,html.Screen,0_4,2021-04-23T15:53:15.674Z,,,,,,,,,,,,,,,,,,,,,,,,,,,,,,NaN,,skipped,,,,,,,,,,,,,,,,,,,,,65475.26999999991,65462.61999999979,,65475.12999999981,,65489.162,,,
Thanks,html.Screen,0_5,2021-04-23T15:53:18.683Z,,,,,,,,,,,,,,,,,,,,,,,,,,,,,,2990.4580000000715,,response,,,,,,,,,,,continue,click button,,,,,,,,,68483.54000000018,68479.62000000007,65472.496,65475.39000000006,65489.162,72155.562,,,
Headphone screening,flow.Sequence,0,2021-04-23T15:53:18.683Z,,,,,,,,,,,,,,,,,,,,,,,,,,,,,,62814.98000000007,,completion,,,,,,,,,,,,,,,,,,,,,68483.9149999998,68479.62000000007,5631.308,5646.415000000161,5664.64,72155.562,,,
Instructions,html.Page,1_0,2021-04-23T15:53:48.861Z,,,,,,,,,,,,,,,,,,,,,,,,,,,,,,26506.12300000002,,form submission,,,,,,,,,,,,,,,,,,,,,98662.01000000001,98661.68500000003,72138.896,72157.0999999999,72155.562,98671.168,,,
Holding screen,html.Screen,1_1_0_0,2021-04-23T15:53:58.850Z,,,,,,,,,,,,,,,,,,,,,,,,,,,,,,10011.801999999996,,timeout,,,,,,,,,,,,,,,,,,,,,108651.60000000015,108649.638,98654.502,98662.24999999985,98671.168,108682.97,,,
screen,html.Screen,1_1_0_1_0,2021-04-23T15:53:59.503Z,,,,,,,,,,,,,,,,53,,,,,,,,,,,,,,609.6249999998836,,response,,,,99,,,,,,,Space,keypress(Space),,,,,,,,When -- ----- -- ------ - ------- --- ----------<br>------------- ------ ------ ---- ---- ------- ----- -- ----<br>-------- ------- -- ---------- --- - --- ----- ----- ----<br>---- --- --- ----- --- ---- ---- ------- ----- ---- -------<br>--- --- -- ----- -- --- ---- -- --- ---- -- ------ ------<br>--- ----- -- ----,109304.05000000019,109292.59499999988,108649.638,108652.14999999989,108682.97,109316.278,,0,When
screen,html.Screen,1_1_0_1_1,2021-04-23T15:53:59.823Z,,,,,,,,,,,,,,,,53,,,,,,,,,,,,,,300.50199999983306,,response,,,,99,,,,,,,Space,keypress(Space),,,,,,,,---- it ----- -- ------ - ------- --- ----------<br>------------- ------ ------ ---- ---- ------- ----- -- ----<br>-------- ------- -- ---------- --- - --- ----- ----- ----<br>---- --- --- ----- --- ---- ---- ------- ----- ---- -------<br>--- --- -- ----- -- --- ---- -- --- ---- -- ------ ------<br>--- ----- -- ----,109624.38000000021,109616.77999999984,109299.612,109304.255,109316.278,109640.874,,1,it
screen,html.Screen,1_1_0_1_2,2021-04-23T15:53:59.988Z,,,,,,,,,,,,,,,,53,,,,,,,,,,,,,,140.4909999998199,,response,,,,99,,,,,,,Space,keypress(Space),,,,,,,,---- -- comes -- ------ - ------- --- ----------<br>------------- ------ ------ ---- ---- ------- ----- -- ----<br>-------- ------- -- ---------- --- - --- ----- ----- ----<br>---- --- --- ----- --- ---- ---- ------- ----- ---- -------<br>--- --- -- ----- -- --- ---- -- --- ---- -- ------ ------<br>--- ----- -- ----,109789.39499999979,109781.36499999982,109624.208,109624.56999999995,109640.874,109790.868,,2,comes
screen,html.Screen,1_1_0_1_3,2021-04-23T15:54:00.337Z,,,,,,,,,,,,,,,,53,,,,,,,,,,,,,,340.6420000001526,,response,,,,99,,,,,,,Space,keypress(Space),,,,,,,,---- -- ----- to ------ - ------- --- ----------<br>------------- ------ ------ ---- ---- ------- ----- -- ----<br>-------- ------- -- ---------- --- - --- ----- ----- ----<br>---- --- --- ----- --- ---- ---- ------- ----- ---- -------<br>--- --- -- ----- -- --- ---- -- --- ---- -- ------ ------<br>--- ----- -- ----,110138.99499999979,110131.51000000015,109774.202,109789.56999999992,109790.868,110140.854,,3,to
screen,html.Screen,1_1_0_1_4,2021-04-23T15:54:00.502Z,,,,,,,,,,,,,,,,53,,,,,,,,,,,,,,154.74599999991187,,response,,,,99,,,,,,,Space,keypress(Space),,,,,,,,---- -- ----- -- having - ------- --- ----------<br>------------- ------ ------ ---- ---- ------- ----- -- ----<br>-------- ------- -- ---------- --- - --- ----- ----- ----<br>---- --- --- ----- --- ---- ---- ------- ----- ---- -------<br>--- --- -- ----- -- --- ---- -- --- ---- -- ------ ------<br>--- ----- -- ----,110303.17000000013,110295.59999999992,110124.188,110139.24499999985,110140.854,110307.514,,4,having
screen,html.Screen,1_1_0_1_5,2021-04-23T15:54:00.825Z,,,,,,,,,,,,,,,,53,,,,,,,,,,,,,,311.7210000001214,,response,,,,99,,,,,,,Space,keypress(Space),,,,,,,,---- -- ----- -- ------ a ------- --- ----------<br>------------- ------ ------ ---- ---- ------- ----- -- ----<br>-------- ------- -- ---------- --- - --- ----- ----- ----<br>---- --- --- ----- --- ---- ---- ------- ----- ---- -------<br>--- --- -- ----- -- --- ---- -- --- ---- -- ------ ------<br>--- ----- -- ----,110626.60499999992,110619.23500000012,110290.848,110303.33999999994,110307.514,110640.834,,5,a
screen,html.Screen,1_1_0_1_6,2021-04-23T15:54:01.014Z,,,,,,,,,,,,,,,,53,,,,,,,,,,,,,,166.73100000005797,,response,,,,99,,,,,,,Space,keypress(Space),,,,,,,,---- -- ----- -- ------ - lasting --- ----------<br>------------- ------ ------ ---- ---- ------- ----- -- ----<br>-------- ------- -- ---------- --- - --- ----- ----- ----<br>---- --- --- ----- --- ---- ---- ------- ----- ---- -------<br>--- --- -- ----- -- --- ---- -- --- ---- -- ------ ------<br>--- ----- -- ----,110815.07000000011,110807.56500000006,110624.168,110626.78000000006,110640.834,110824.16,,6,lasting
screen,html.Screen,1_1_0_1_7,2021-04-23T15:54:01.513Z,,,,,,,,,,,,,,,,53,,,,,,,,,,,,,,482.3450000000157,,response,,,,99,,,,,,,Space,keypress(Space),,,,,,,,---- -- ----- -- ------ - ------- and ----------<br>------------- ------ ------ ---- ---- ------- ----- -- ----<br>-------- ------- -- ---------- --- - --- ----- ----- ----<br>---- --- --- ----- --- ---- ---- ------- ----- ---- -------<br>--- --- -- ----- -- --- ---- -- --- ---- -- ------ ------<br>--- ----- -- ----,111314.70499999978,111306.50500000002,110807.494,110815.2500000001,110824.16,111324.14,,7,and
screen,html.Screen,1_1_0_1_8,2021-04-23T15:54:01.710Z,,,,,,,,,,,,,,,,53,,,,,,,,,,,,,,179.47500000007858,,response,,,,99,,,,,,,Space,keypress(Space),,,,,,,,---- -- ----- -- ------ - ------- --- fulfilling<br>------------- ------ ------ ---- ---- ------- ----- -- ----<br>-------- ------- -- ---------- --- - --- ----- ----- ----<br>---- --- --- ----- --- ---- ---- ------- ----- ---- -------<br>--- --- -- ----- -- --- ---- -- --- ---- -- ------ ------<br>--- ----- -- ----,111511.41999999981,111503.61500000008,111307.474,111314.8900000001,111324.14,111524.132,,8,fulfilling
screen,html.Screen,1_1_0_1_9,2021-04-23T15:54:02.031Z,,,,,,,,,,,,,,,,53,,,,,,,,,,,,,,301.4379999999801,,response,,,,99,,,,,,,Space,keypress(Space),,,,,,,,"---- -- ----- -- ------ - ------- --- ----------<br>relationship, ------ ------ ---- ---- ------- ----- -- ----<br>-------- ------- -- ---------- --- - --- ----- ----- ----<br>---- --- --- ----- --- ---- ---- ------- ----- ---- -------<br>--- --- -- ----- -- --- ---- -- --- ---- -- ------ ------<br>--- ----- -- ----",111833.05500000005,111825.56999999998,111507.466,111511.64999999992,111524.132,111840.786,,9,"relationship,"
screen,html.Screen,1_1_0_1_10,2021-04-23T15:54:02.219Z,,,,,,,,,,,,,,,,53,,,,,,,,,,,,,,172.64399999997113,,response,,,,99,,,,,,,Space,keypress(Space),,,,,,,,---- -- ----- -- ------ - ------- --- ----------<br>------------- common ------ ---- ---- ------- ----- -- ----<br>-------- ------- -- ---------- --- - --- ----- ----- ----<br>---- --- --- ----- --- ---- ---- ------- ----- ---- -------<br>--- --- -- ----- -- --- ---- -- --- ---- -- ------ ------<br>--- ----- -- ----,112020.70999999979,112013.42999999996,111824.12,111833.23000000019,111840.786,112024.112,,10,common
screen,html.Screen,1_1_0_1_11,2021-04-23T15:54:02.518Z,,,,,,,,,,,,,,,,53,,,,,,,,,,,,,,287.3430000000226,,response,,,,99,,,,,,,Space,keypress(Space),,,,,,,,---- -- ----- -- ------ - ------- --- ----------<br>------------- ------ wisdom ---- ---- ------- ----- -- ----<br>-------- ------- -- ---------- --- - --- ----- ----- ----<br>---- --- --- ----- --- ---- ---- ------- ----- ---- -------<br>--- --- -- ----- -- --- ---- -- --- ---- -- ------ ------<br>--- ----- -- ----,112319.10500000004,112311.45500000002,112007.446,112020.88999999978,112024.112,112324.1,,11,wisdom
screen,html.Screen,1_1_0_1_12,2021-04-23T15:54:02.860Z,,,,,,,,,,,,,,,,53,,,,,,,,,,,,,,329.1950000000652,,response,,,,99,,,,,,,Space,keypress(Space),,,,,,,,---- -- ----- -- ------ - ------- --- ----------<br>------------- ------ ------ says ---- ------- ----- -- ----<br>-------- ------- -- ---------- --- - --- ----- ----- ----<br>---- --- --- ----- --- ---- ---- ------- ----- ---- -------<br>--- --- -- ----- -- --- ---- -- --- ---- -- ------ ------<br>--- ----- -- ----,112661.16499999998,112653.29500000007,112307.434,112319.28500000003,112324.1,112674.086,,12,says
screen,html.Screen,1_1_0_1_13,2021-04-23T15:54:03.008Z,,,,,,,,,,,,,,,,53,,,,,,,,,,,,,,128.38400000009278,,response,,,,99,,,,,,,Space,keypress(Space),,,,,,,,---- -- ----- -- ------ - ------- --- ----------<br>------------- ------ ------ ---- that ------- ----- -- ----<br>-------- ------- -- ---------- --- - --- ----- ----- ----<br>---- --- --- ----- --- ---- ---- ------- ----- ---- -------<br>--- --- -- ----- -- --- ---- -- --- ---- -- ------ ------<br>--- ----- -- ----,112810.06999999999,112802.47000000009,112657.42,112661.34499999999,112674.086,112824.08,,13,that
screen,html.Screen,1_1_0_1_14,2021-04-23T15:54:03.363Z,,,,,,,,,,,,,,,,53,,,,,,,,,,,,,,333.0150000000285,,response,,,,99,,,,,,,Space,keypress(Space),,,,,,,,---- -- ----- -- ------ - ------- --- ----------<br>------------- ------ ------ ---- ---- feeling ----- -- ----<br>-------- ------- -- ---------- --- - --- ----- ----- ----<br>---- --- --- ----- --- ---- ---- ------- ----- ---- -------<br>--- --- -- ----- -- --- ---- -- --- ---- -- ------ ------<br>--- ----- -- ----,113164.95500000019,113157.09500000003,112807.414,112810.25,112824.08,113174.066,,14,feeling
screen,html.Screen,1_1_0_1_15,2021-04-23T15:54:03.652Z,,,,,,,,,,,,,,,,53,,,,,,,,,,,,,,272.2540000000008,,response,,,,99,,,,,,,Space,keypress(Space),,,,,,,,---- -- ----- -- ------ - ------- --- ----------<br>------------- ------ ------ ---- ---- ------- close -- ----<br>-------- ------- -- ---------- --- - --- ----- ----- ----<br>---- --- --- ----- --- ---- ---- ------- ----- ---- -------<br>--- --- -- ----- -- --- ---- -- --- ---- -- ------ ------<br>--- ----- -- ----,113453.73000000019,113446.32,113157.4,113165.13500000018,113174.066,113457.388,,15,close
screen,html.Screen,1_1_0_1_16,2021-04-23T15:54:03.875Z,,,,,,,,,,,,,,,,53,,,,,,,,,,,,,,211.02700000008917,,response,,,,99,,,,,,,Space,keypress(Space),,,,,,,,---- -- ----- -- ------ - ------- --- ----------<br>------------- ------ ------ ---- ---- ------- ----- to ----<br>-------- ------- -- ---------- --- - --- ----- ----- ----<br>---- --- --- ----- --- ---- ---- ------- ----- ---- -------<br>--- --- -- ----- -- --- ---- -- --- ---- -- ------ ------<br>--- ----- -- ----,113676.35500000005,113668.4150000001,113440.722,113453.90499999985,113457.388,113690.712,,16,to
screen,html.Screen,1_1_0_1_17,2021-04-23T15:54:04.138Z,,,,,,,,,,,,,,,,53,,,,,,,,,,,,,,240.85299999985727,,response,,,,99,,,,,,,Space,keypress(Space),,,,,,,,---- -- ----- -- ------ - ------- --- ----------<br>------------- ------ ------ ---- ---- ------- ----- -- your<br>-------- ------- -- ---------- --- - --- ----- ----- ----<br>---- --- --- ----- --- ---- ---- ------- ----- ---- -------<br>--- --- -- ----- -- --- ---- -- --- ---- -- ------ ------<br>--- ----- -- ----,113939.15000000015,113931.56499999986,113674.046,113676.53500000006,113690.712,113940.702,,17,your
screen,html.Screen,1_1_0_1_18,2021-04-23T15:54:04.357Z,,,,,,,,,,,,,,,,53,,,,,,,,,,,,,,209.89799999994284,,response,,,,99,,,,,,,Space,keypress(Space),,,,,,,,---- -- ----- -- ------ - ------- --- ----------<br>------------- ------ ------ ---- ---- ------- ----- -- ----<br>romantic ------- -- ---------- --- - --- ----- ----- ----<br>---- --- --- ----- --- ---- ---- ------- ----- ---- -------<br>--- --- -- ----- -- --- ---- -- --- ---- -- ------ ------<br>--- ----- -- ----,114158.64999999985,114150.59999999995,113924.036,113939.3799999998,113940.702,114174.026,,18,romantic
screen,html.Screen,1_1_0_1_19,2021-04-23T15:54:04.607Z,,,,,,,,,,,,,,,,53,,,,,,,,,,,,,,226.55399999998917,,response,,,,99,,,,,,,Space,keypress(Space),,,,,,,,---- -- ----- -- ------ - ------- --- ----------<br>------------- ------ ------ ---- ---- ------- ----- -- ----<br>-------- partner -- ---------- --- - --- ----- ----- ----<br>---- --- --- ----- --- ---- ---- ------- ----- ---- -------<br>--- --- -- ----- -- --- ---- -- --- ---- -- ------ ------<br>--- ----- -- ----,114408.26000000015,114400.57999999999,114157.36,114158.84000000005,114174.026,114424.016,,19,partner
screen,html.Screen,1_1_0_1_20,2021-04-23T15:54:05.065Z,,,,,,,,,,,,,,,,53,,,,,,,,,,,,,,434.07900000004156,,response,,,,99,,,,,,,Space,keypress(Space),,,,,,,,---- -- ----- -- ------ - ------- --- ----------<br>------------- ------ ------ ---- ---- ------- ----- -- ----<br>-------- ------- is ---------- --- - --- ----- ----- ----<br>---- --- --- ----- --- ---- ---- ------- ----- ---- -------<br>--- --- -- ----- -- --- ---- -- --- ---- -- ------ ------<br>--- ----- -- ----,114866.70499999991,114858.09500000004,114407.35,114408.44500000004,114424.016,114873.998,,20,is
screen,html.Screen,1_1_0_1_21,2021-04-23T15:54:05.165Z,,,,,,,,,,,,,,,,53,,,,,,,,,,,,,,83.91699999994307,,response,,,,99,,,,,,,Space,keypress(Space),,,,,,,,---- -- ----- -- ------ - ------- --- ----------<br>------------- ------ ------ ---- ---- ------- ----- -- ----<br>-------- ------- -- paramount. --- - --- ----- ----- ----<br>---- --- --- ----- --- ---- ---- ------- ----- ---- -------<br>--- --- -- ----- -- --- ---- -- --- ---- -- ------ ------<br>--- ----- -- ----,114966.44500000002,114957.91499999995,114857.332,114866.95499999996,114873.998,114973.994,,21,paramount.
screen,html.Screen,1_1_0_1_22,2021-04-23T15:54:05.592Z,,,,,,,,,,,,,,,,53,,,,,,,,,,,,,,412.4609999998356,,response,,,,99,,,,,,,Space,keypress(Space),,,,,,,,---- -- ----- -- ------ - ------- --- ----------<br>------------- ------ ------ ---- ---- ------- ----- -- ----<br>-------- ------- -- ---------- But - --- ----- ----- ----<br>---- --- --- ----- --- ---- ---- ------- ----- ---- -------<br>--- --- -- ----- -- --- ---- -- --- ---- -- ------ ------<br>--- ----- -- ----,115393.90499999991,115386.45499999984,114957.328,114966.71000000015,114973.994,115407.31,,22,But
screen,html.Screen,1_1_0_1_23,2021-04-23T15:54:05.890Z,,,,,,,,,,,,,,,,53,,,,,,,,,,,,,,276.8050000000221,,response,,,,99,,,,,,,Space,keypress(Space),,,,,,,,---- -- ----- -- ------ - ------- --- ----------<br>------------- ------ ------ ---- ---- ------- ----- -- ----<br>-------- ------- -- ---------- --- a --- ----- ----- ----<br>---- --- --- ----- --- ---- ---- ------- ----- ---- -------<br>--- --- -- ----- -- --- ---- -- --- ---- -- ------ ------<br>--- ----- -- ----,115691.92500000008,115684.11500000002,115390.644,115394.08000000003,115407.31,115707.298,,23,a
screen,html.Screen,1_1_0_1_24,2021-04-23T15:54:06.125Z,,,,,,,,,,,,,,,,53,,,,,,,,,,,,,,211.7470000001049,,response,,,,99,,,,,,,Space,keypress(Space),,,,,,,,---- -- ----- -- ------ - ------- --- ----------<br>------------- ------ ------ ---- ---- ------- ----- -- ----<br>-------- ------- -- ---------- --- - new ----- ----- ----<br>---- --- --- ----- --- ---- ---- ------- ----- ---- -------<br>--- --- -- ----- -- --- ---- -- --- ---- -- ------ ------<br>--- ----- -- ----,115926.50000000003,115919.0450000001,115690.632,115692.10500000008,115707.298,115940.622,,24,new
screen,html.Screen,1_1_0_1_25,2021-04-23T15:54:06.390Z,,,,,,,,,,,,,,,,53,,,,,,,,,,,,,,242.59799999988172,,response,,,,99,,,,,,,Space,keypress(Space),,,,,,,,---- -- ----- -- ------ - ------- --- ----------<br>------------- ------ ------ ---- ---- ------- ----- -- ----<br>-------- ------- -- ---------- --- - --- study ----- ----<br>---- --- --- ----- --- ---- ---- ------- ----- ---- -------<br>--- --- -- ----- -- --- ---- -- --- ---- -- ------ ------<br>--- ----- -- ----,116191.24999999985,116183.21999999988,115923.956,115926.67500000016,115940.622,116207.278,,25,study
screen,html.Screen,1_1_0_1_26,2021-04-23T15:54:06.639Z,,,,,,,,,,,,,,,,53,,,,,,,,,,,,,,225.906999999861,,response,,,,99,,,,,,,Space,keypress(Space),,,,,,,,---- -- ----- -- ------ - ------- --- ----------<br>------------- ------ ------ ---- ---- ------- ----- -- ----<br>-------- ------- -- ---------- --- - --- ----- finds ----<br>---- --- --- ----- --- ---- ---- ------- ----- ---- -------<br>--- --- -- ----- -- --- ---- -- --- ---- -- ------ ------<br>--- ----- -- ----,116440.5999999999,116433.18499999987,116190.612,116191.4200000001,116207.278,116457.268,,26,finds
screen,html.Screen,1_1_0_1_27,2021-04-23T15:54:06.911Z,,,,,,,,,,,,,,,,53,,,,,,,,,,,,,,247.06699999990815,,response,,,,99,,,,,,,Space,keypress(Space),,,,,,,,---- -- ----- -- ------ - ------- --- ----------<br>------------- ------ ------ ---- ---- ------- ----- -- ----<br>-------- ------- -- ---------- --- - --- ----- ----- that<br>---- --- --- ----- --- ---- ---- ------- ----- ---- -------<br>--- --- -- ----- -- --- ---- -- --- ---- -- ------ ------<br>--- ----- -- ----,116712.37500000006,116704.3349999999,116440.602,116440.77500000002,116457.268,116723.924,,27,that
screen,html.Screen,1_1_0_1_28,2021-04-23T15:54:07.035Z,,,,,,,,,,,,,,,,53,,,,,,,,,,,,,,105.32099999990896,,response,,,,99,,,,,,,Space,keypress(Space),,,,,,,,---- -- ----- -- ------ - ------- --- ----------<br>------------- ------ ------ ---- ---- ------- ----- -- ----<br>-------- ------- -- ---------- --- - --- ----- ----- ----<br>it's --- --- ----- --- ---- ---- ------- ----- ---- -------<br>--- --- -- ----- -- --- ---- -- --- ---- -- ------ ------<br>--- ----- -- ----,116836.85500000001,116829.24499999991,116707.258,116712.55500000007,116723.924,116840.586,,28,it's
screen,html.Screen,1_1_0_1_29,2021-04-23T15:54:07.409Z,,,,,,,,,,,,,,,,53,,,,,,,,,,,,,,362.38399999983085,,response,,,,99,,,,,,,Space,keypress(Space),,,,,,,,---- -- ----- -- ------ - ------- --- ----------<br>------------- ------ ------ ---- ---- ------- ----- -- ----<br>-------- ------- -- ---------- --- - --- ----- ----- ----<br>---- not --- ----- --- ---- ---- ------- ----- ---- -------<br>--- --- -- ----- -- --- ---- -- --- ---- -- ------ ------<br>--- ----- -- ----,117210.52000000009,117202.96999999983,116823.92,116837.08500000011,116840.586,117223.904,,29,not
screen,html.Screen,1_1_0_1_30,2021-04-23T15:54:07.611Z,,,,,,,,,,,,,,,,53,,,,,,,,,,,,,,180.46600000020408,,response,,,,99,,,,,,,Space,keypress(Space),,,,,,,,---- -- ----- -- ------ - ------- --- ----------<br>------------- ------ ------ ---- ---- ------- ----- -- ----<br>-------- ------- -- ---------- --- - --- ----- ----- ----<br>---- --- how ----- --- ---- ---- ------- ----- ---- -------<br>--- --- -- ----- -- --- ---- -- --- ---- -- ------ ------<br>--- ----- -- ----,117412.29999999996,117404.3700000002,117207.238,117210.69500000021,117223.904,117423.896,,30,how
screen,html.Screen,1_1_0_1_31,2021-04-23T15:54:07.821Z,,,,,,,,,,,,,,,,53,,,,,,,,,,,,,,191.36400000004505,,response,,,,99,,,,,,,Space,keypress(Space),,,,,,,,---- -- ----- -- ------ - ------- --- ----------<br>------------- ------ ------ ---- ---- ------- ----- -- ----<br>-------- ------- -- ---------- --- - --- ----- ----- ----<br>---- --- --- close --- ---- ---- ------- ----- ---- -------<br>--- --- -- ----- -- --- ---- -- --- ---- -- ------ ------<br>--- ----- -- ----,117622.83500000012,117615.26000000004,117407.23,117412.48499999984,117423.896,117640.554,,31,close
screen,html.Screen,1_1_0_1_32,2021-04-23T15:54:08.021Z,,,,,,,,,,,,,,,,53,,,,,,,,,,,,,,174.2709999999206,,response,,,,99,,,,,,,Space,keypress(Space),,,,,,,,---- -- ----- -- ------ - ------- --- ----------<br>------------- ------ ------ ---- ---- ------- ----- -- ----<br>-------- ------- -- ---------- --- - --- ----- ----- ----<br>---- --- --- ----- you ---- ---- ------- ----- ---- -------<br>--- --- -- ----- -- --- ---- -- --- ---- -- ------ ------<br>--- ----- -- ----,117822.41999999997,117814.82499999992,117623.888,117623.00999999979,117640.554,117823.88,,32,you
screen,html.Screen,1_1_0_1_33,2021-04-23T15:54:08.235Z,,,,,,,,,,,,,,,,53,,,,,,,,,,,,,,206.05000000014843,,response,,,,99,,,,,,,Space,keypress(Space),,,,,,,,---- -- ----- -- ------ - ------- --- ----------<br>------------- ------ ------ ---- ---- ------- ----- -- ----<br>-------- ------- -- ---------- --- - --- ----- ----- ----<br>---- --- --- ----- --- feel ---- ------- ----- ---- -------<br>--- --- -- ----- -- --- ---- -- --- ---- -- ------ ------<br>--- ----- -- ----,118037.0499999999,118029.93000000015,117807.214,117822.61000000016,117823.88,118040.538,,33,feel
screen,html.Screen,1_1_0_1_34,2021-04-23T15:54:08.479Z,,,,,,,,,,,,,,,,53,,,,,,,,,,,,,,232.80200000018522,,response,,,,99,,,,,,,Space,keypress(Space),,,,,,,,---- -- ----- -- ------ - ------- --- ----------<br>------------- ------ ------ ---- ---- ------- ----- -- ----<br>-------- ------- -- ---------- --- - --- ----- ----- ----<br>---- --- --- ----- --- ---- that ------- ----- ---- -------<br>--- --- -- ----- -- --- ---- -- --- ---- -- ------ ------<br>--- ----- -- ----,118281.02499999978,118273.34000000019,118023.872,118037.22500000003,118040.538,118290.528,,34,that
screen,html.Screen,1_1_0_1_35,2021-04-23T15:54:08.672Z,,,,,,,,,,,,,,,,53,,,,,,,,,,,,,,174.71199999998498,,response,,,,99,,,,,,,Space,keypress(Space),,,,,,,,---- -- ----- -- ------ - ------- --- ----------<br>------------- ------ ------ ---- ---- ------- ----- -- ----<br>-------- ------- -- ---------- --- - --- ----- ----- ----<br>---- --- --- ----- --- ---- ---- matters ----- ---- -------<br>--- --- -- ----- -- --- ---- -- --- ---- -- ------ ------<br>--- ----- -- ----,118473.25,118465.23999999999,118273.862,118282.84500000018,118290.528,118490.52,,35,matters
screen,html.Screen,1_1_0_1_36,2021-04-23T15:54:08.972Z,,,,,,,,,,,,,,,,53,,,,,,,,,,,,,,275.62999999991735,,response,,,,99,,,,,,,Space,keypress(Space),,,,,,,,"---- -- ----- -- ------ - ------- --- ----------<br>------------- ------ ------ ---- ---- ------- ----- -- ----<br>-------- ------- -- ---------- --- - --- ----- ----- ----<br>---- --- --- ----- --- ---- ---- ------- most, ---- -------<br>--- --- -- ----- -- --- ---- -- --- ---- -- ------ ------<br>--- ----- -- ----",118773.91500000021,118766.14999999992,118473.854,118473.48499999999,118490.52,118790.508,,36,"most,"
screen,html.Screen,1_1_0_1_37,2021-04-23T15:54:09.151Z,,,,,,,,,,,,,,,,53,,,,,,,,,,,,,,155.10200000021723,,response,,,,99,,,,,,,Space,keypress(Space),,,,,,,,---- -- ----- -- ------ - ------- --- ----------<br>------------- ------ ------ ---- ---- ------- ----- -- ----<br>-------- ------- -- ---------- --- - --- ----- ----- ----<br>---- --- --- ----- --- ---- ---- ------- ----- it's -------<br>--- --- -- ----- -- --- ---- -- --- ---- -- ------ ------<br>--- ----- -- ----,118952.9050000001,118945.61000000022,118773.842,118774.08999999988,118790.508,118957.168,,37,it's
screen,html.Screen,1_1_0_1_38,2021-04-23T15:54:09.354Z,,,,,,,,,,,,,,,,53,,,,,,,,,,,,,,191.04199999982666,,response,,,,99,,,,,,,Space,keypress(Space),,,,,,,,---- -- ----- -- ------ - ------- --- ----------<br>------------- ------ ------ ---- ---- ------- ----- -- ----<br>-------- ------- -- ---------- --- - --- ----- ----- ----<br>---- --- --- ----- --- ---- ---- ------- ----- ---- whether<br>--- --- -- ----- -- --- ---- -- --- ---- -- ------ ------<br>--- ----- -- ----,119155.74500000002,119148.20999999983,118940.502,118953.14499999995,118957.168,119172.259,,38,whether
screen,html.Screen,1_1_0_1_39,2021-04-23T15:54:09.635Z,,,,,,,,,,,,,,,,53,,,,,,,,,,,,,,256.37600000020757,,response,,,,99,,,,,,,Space,keypress(Space),,,,,,,,---- -- ----- -- ------ - ------- --- ----------<br>------------- ------ ------ ---- ---- ------- ----- -- ----<br>-------- ------- -- ---------- --- - --- ----- ----- ----<br>---- --- --- ----- --- ---- ---- ------- ----- ---- -------<br>you --- -- ----- -- --- ---- -- --- ---- -- ------ ------<br>--- ----- -- ----,119437.16499999982,119428.63500000021,119155.593,119155.91499999982,119172.259,119438.915,,39,you
screen,html.Screen,1_1_0_1_40,2021-04-23T15:54:09.819Z,,,,,,,,,,,,,,,,53,,,,,,,,,,,,,,174.27999999991152,,response,,,,99,,,,,,,Space,keypress(Space),,,,,,,,---- -- ----- -- ------ - ------- --- ----------<br>------------- ------ ------ ---- ---- ------- ----- -- ----<br>-------- ------- -- ---------- --- - --- ----- ----- ----<br>---- --- --- ----- --- ---- ---- ------- ----- ---- -------<br>--- are -- ----- -- --- ---- -- --- ---- -- ------ ------<br>--- ----- -- ----,119620.69500000007,119613.1949999999,119422.249,119437.33999999995,119438.915,119622.241,,40,are
screen,html.Screen,1_1_0_1_41,2021-04-23T15:54:10.015Z,,,,,,,,,,,,,,,,53,,,,,,,,,,,,,,186.95900000014808,,response,,,,99,,,,,,,Space,keypress(Space),,,,,,,,---- -- ----- -- ------ - ------- --- ----------<br>------------- ------ ------ ---- ---- ------- ----- -- ----<br>-------- ------- -- ---------- --- - --- ----- ----- ----<br>---- --- --- ----- --- ---- ---- ------- ----- ---- -------<br>--- --- as ----- -- --- ---- -- --- ---- -- ------ ------<br>--- ----- -- ----,119816.86499999979,119809.20000000014,119605.575,119621.20499999991,119622.241,119822.233,,41,as
screen,html.Screen,1_1_0_1_42,2021-04-23T15:54:10.180Z,,,,,,,,,,,,,,,,53,,,,,,,,,,,,,,151.83199999989301,,response,,,,99,,,,,,,Space,keypress(Space),,,,,,,,---- -- ----- -- ------ - ------- --- ----------<br>------------- ------ ------ ---- ---- ------- ----- -- ----<br>-------- ------- -- ---------- --- - --- ----- ----- ----<br>---- --- --- ----- --- ---- ---- ------- ----- ---- -------<br>--- --- -- close -- --- ---- -- --- ---- -- ------ ------<br>--- ----- -- ----,119981.81500000009,119974.06499999989,119805.567,119817.03000000016,119822.233,119988.893,,42,close
screen,html.Screen,1_1_0_1_43,2021-04-23T15:54:10.431Z,,,,,,,,,,,,,,,,53,,,,,,,,,,,,,,236.63199999983772,,response,,,,99,,,,,,,Space,keypress(Space),,,,,,,,---- -- ----- -- ------ - ------- --- ----------<br>------------- ------ ------ ---- ---- ------- ----- -- ----<br>-------- ------- -- ---------- --- - --- ----- ----- ----<br>---- --- --- ----- --- ---- ---- ------- ----- ---- -------<br>--- --- -- ----- as --- ---- -- --- ---- -- ------ ------<br>--- ----- -- ----,120233.20000000013,120225.52499999983,119972.227,119981.98000000003,119988.893,120238.883,,43,as
screen,html.Screen,1_1_0_1_44,2021-04-23T15:54:10.628Z,,,,,,,,,,,,,,,,53,,,,,,,,,,,,,,183.12199999990116,,response,,,,99,,,,,,,Space,keypress(Space),,,,,,,,---- -- ----- -- ------ - ------- --- ----------<br>------------- ------ ------ ---- ---- ------- ----- -- ----<br>-------- ------- -- ---------- --- - --- ----- ----- ----<br>---- --- --- ----- --- ---- ---- ------- ----- ---- -------<br>--- --- -- ----- -- you ---- -- --- ---- -- ------ ------<br>--- ----- -- ----,120430.17999999983,120422.0049999999,120222.217,120233.36500000005,120238.883,120438.875,,44,you
screen,html.Screen,1_1_0_1_45,2021-04-23T15:54:10.816Z,,,,,,,,,,,,,,,,53,,,,,,,,,,,,,,169.34500000007392,,response,,,,99,,,,,,,Space,keypress(Space),,,,,,,,---- -- ----- -- ------ - ------- --- ----------<br>------------- ------ ------ ---- ---- ------- ----- -- ----<br>-------- ------- -- ---------- --- - --- ----- ----- ----<br>---- --- --- ----- --- ---- ---- ------- ----- ---- -------<br>--- --- -- ----- -- --- want -- --- ---- -- ------ ------<br>--- ----- -- ----,120618.01999999989,120608.22000000007,120422.209,120430.34500000022,120438.875,120622.201,,45,want
screen,html.Screen,1_1_0_1_46,2021-04-23T15:54:10.995Z,,,,,,,,,,,,,,,,53,,,,,,,,,,,,,,166.98899999995774,,response,,,,99,,,,,,,Space,keypress(Space),,,,,,,,---- -- ----- -- ------ - ------- --- ----------<br>------------- ------ ------ ---- ---- ------- ----- -- ----<br>-------- ------- -- ---------- --- - --- ----- ----- ----<br>---- --- --- ----- --- ---- ---- ------- ----- ---- -------<br>--- --- -- ----- -- --- ---- to --- ---- -- ------ ------<br>--- ----- -- ----,120797.16499999995,120789.18999999996,120605.535,120618.20500000022,120622.201,120805.527,,46,to
screen,html.Screen,1_1_0_1_47,2021-04-23T15:54:11.263Z,,,,,,,,,,,,,,,,53,,,,,,,,,,,,,,251.4780000001192,,response,,,,99,,,,,,,Space,keypress(Space),,,,,,,,"---- -- ----- -- ------ - ------- --- ----------<br>------------- ------ ------ ---- ---- ------- ----- -- ----<br>-------- ------- -- ---------- --- - --- ----- ----- ----<br>---- --- --- ----- --- ---- ---- ------- ----- ---- -------<br>--- --- -- ----- -- --- ---- -- be, ---- -- ------ ------<br>--- ----- -- ----",121064.79499999978,121057.00500000012,120788.861,120797.69500000021,120805.527,121072.183,,47,"be,"
screen,html.Screen,1_1_0_1_48,2021-04-23T15:54:11.435Z,,,,,,,,,,,,,,,,53,,,,,,,,,,,,,,158.75699999991048,,response,,,,99,,,,,,,Space,keypress(Space),,,,,,,,---- -- ----- -- ------ - ------- --- ----------<br>------------- ------ ------ ---- ---- ------- ----- -- ----<br>-------- ------- -- ---------- --- - --- ----- ----- ----<br>---- --- --- ----- --- ---- ---- ------- ----- ---- -------<br>--- --- -- ----- -- --- ---- -- --- even -- ------ ------<br>--- ----- -- ----,121236.31999999998,121230.93999999992,121055.517,121064.95499999983,121072.183,121238.843,,48,even
screen,html.Screen,1_1_0_1_49,2021-04-23T15:54:11.571Z,,,,,,,,,,,,,,,,53,,,,,,,,,,,,,,125.97699999978067,,response,,,,99,,,,,,,Space,keypress(Space),,,,,,,,---- -- ----- -- ------ - ------- --- ----------<br>------------- ------ ------ ---- ---- ------- ----- -- ----<br>-------- ------- -- ---------- --- - --- ----- ----- ----<br>---- --- --- ----- --- ---- ---- ------- ----- ---- -------<br>--- --- -- ----- -- --- ---- -- --- ---- if ------ ------<br>--- ----- -- ----,121372.64999999979,121364.81999999977,121222.177,121236.4550000002,121238.843,121388.837,,49,if
screen,html.Screen,1_1_0_1_50,2021-04-23T15:54:11.848Z,,,,,,,,,,,,,,,,53,,,,,,,,,,,,,,253.17300000002433,,response,,,,99,,,,,,,Space,keypress(Space),,,,,,,,---- -- ----- -- ------ - ------- --- ----------<br>------------- ------ ------ ---- ---- ------- ----- -- ----<br>-------- ------- -- ---------- --- - --- ----- ----- ----<br>---- --- --- ----- --- ---- ---- ------- ----- ---- -------<br>--- --- -- ----- -- --- ---- -- --- ---- -- that's ------<br>--- ----- -- ----,121650.1800000001,121642.01000000002,121372.171,121372.81500000018,121388.837,121655.493,,50,that's
screen,html.Screen,1_1_0_1_51,2021-04-23T15:54:12.029Z,,,,,,,,,,,,,,,,53,,,,,,,,,,,,,,167.8770000000659,,response,,,,99,,,,,,,Space,keypress(Space),,,,,,,,---- -- ----- -- ------ - ------- --- ----------<br>------------- ------ ------ ---- ---- ------- ----- -- ----<br>-------- ------- -- ---------- --- - --- ----- ----- ----<br>---- --- --- ----- --- ---- ---- ------- ----- ---- -------<br>--- --- -- ----- -- --- ---- -- --- ---- -- ------ really<br>--- ----- -- ----,121831.06499999986,121823.37000000007,121638.827,121650.34000000014,121655.493,121838.819,,51,really
screen,html.Screen,1_1_0_1_52,2021-04-23T15:54:12.332Z,,,,,,,,,,,,,,,,53,,,,,,,,,,,,,,287.52099999978964,,response,,,,99,,,,,,,Space,keypress(Space),,,,,,,,---- -- ----- -- ------ - ------- --- ----------<br>------------- ------ ------ ---- ---- ------- ----- -- ----<br>-------- ------- -- ---------- --- - --- ----- ----- ----<br>---- --- --- ----- --- ---- ---- ------- ----- ---- -------<br>--- --- -- ----- -- --- ---- -- --- ---- -- ------ ------<br>not ----- -- ----,122134.10999999996,122126.3399999998,121822.153,121831.2249999999,121838.819,122138.807,,52,not
screen,html.Screen,1_1_0_1_53,2021-04-23T15:54:12.485Z,,,,,,,,,,,,,,,,53,,,,,,,,,,,,,,140.57299999994575,,response,,,,99,,,,,,,Space,keypress(Space),,,,,,,,---- -- ----- -- ------ - ------- --- ----------<br>------------- ------ ------ ---- ---- ------- ----- -- ----<br>-------- ------- -- ---------- --- - --- ----- ----- ----<br>---- --- --- ----- --- ---- ---- ------- ----- ---- -------<br>--- --- -- ----- -- --- ---- -- --- ---- -- ------ ------<br>--- close -- ----,122286.88499999998,122279.37999999995,122122.141,122134.27000000002,122138.807,122288.801,,53,close
screen,html.Screen,1_1_0_1_54,2021-04-23T15:54:12.711Z,,,,,,,,,,,,,,,,53,,,,,,,,,,,,,,216.17399999982445,,response,,,,99,,,,,,,Space,keypress(Space),,,,,,,,---- -- ----- -- ------ - ------- --- ----------<br>------------- ------ ------ ---- ---- ------- ----- -- ----<br>-------- ------- -- ---------- --- - --- ----- ----- ----<br>---- --- --- ----- --- ---- ---- ------- ----- ---- -------<br>--- --- -- ----- -- --- ---- -- --- ---- -- ------ ------<br>--- ----- at ----,122513.06999999998,122504.97499999983,122272.135,122287.04500000004,122288.801,122522.125,,54,at
screen,html.Screen,1_1_0_1_55,2021-04-23T15:54:12.991Z,,,,,,,,,,,,,,,,53,,,,,,,,,,,,,,262.8699999999808,,response,,,,99,,,,,,,Space,keypress(Space),,,,,,,,---- -- ----- -- ------ - ------- --- ----------<br>------------- ------ ------ ---- ---- ------- ----- -- ----<br>-------- ------- -- ---------- --- - --- ----- ----- ----<br>---- --- --- ----- --- ---- ---- ------- ----- ---- -------<br>--- --- -- ----- -- --- ---- -- --- ---- -- ------ ------<br>--- ----- -- all.,122792.71999999991,122784.99499999998,122505.459,122513.22500000015,122522.125,122805.447,,55,all.
Item 99,flow.Loop,1_1_0_1,2021-04-23T15:54:12.991Z,,,,,,,,,,,,,,,,,,,,,,,,,,,,,,14102.02499999998,,completion,,,,,E,,,,,,,,,,,silence,,,,,122793.07999999991,122784.99499999998,108649.638,108651.89999999985,108682.97,122805.447,,,
Question 1,html.Screen,1_1_0_2,2021-04-23T15:54:17.046Z,,,,,,,,,,,,,,,,,,,,,,,,,,,true,FALSE,,4039.5930000001536,,response,,,,99,E,,,,,,FALSE,click #choice-2,,,,silence,,,,,126847.99999999996,126845.04000000015,122788.781,122793.39500000015,122805.447,126871.951,,,
Question 2,html.Screen,1_1_0_3,2021-04-23T15:54:21.407Z,,,,,,,,,,,,,,,,,,,,,,,,,,,true,TRUE,,4333.753999999841,,response,,,,99,E,,,,,,TRUE,click #choice-1,,,,silence,,,,,131208.52500000002,131205.70499999984,126855.285,126848.17000000022,126871.951,131220.618,,,
Item 99,flow.Sequence,1_1_0,2021-04-23T15:54:21.407Z,,,,,,,,,,,,,,,,,,,,,,,,,,,,,,32534.536999999837,,completion,,,,,,,,,,,,,,,,,,,,,131208.76499999987,131205.70499999984,98654.502,98662.22000000016,98671.168,131220.618,,,
Holding screen,html.Screen,1_1_1_0,2021-04-23T15:54:31.401Z,,,,,,,,,,,,,,,,,,,,,,,,,,,,,,9997.065000000002,,timeout,,,,,,,,,,,,,,,,,,,,,141203.14999999982,141201.017,131203.952,131208.90999999983,131220.618,141217.683,,,
screen,html.Screen,1_1_1_1_0,2021-04-23T15:54:32.118Z,,,,,,,,,,,,,,,,54,,,,,,,,,,,,,,694.0419999999285,,response,,,,100,,,,,,,Space,keypress(Space),,,,,,,,At --- ---- --- ------ ----- ------- ---- -- --- ------- --<br>------- ---------- ------ -- ----- -- ----- -- ---- ------<br>--- ----- --- --- ------ -------- ----- --- ------ ----- --<br>----- ----- ---------- --- --- ------ ------ ---- -- ------<br>------- --- ------ ----- --- ---- ------- -- ---- --- --<br>------- ------,141920.39999999997,141911.72499999992,141201.017,141203.43999999977,141217.683,141934.321,,0,At
screen,html.Screen,1_1_1_1_1,2021-04-23T15:54:32.584Z,,,,,,,,,,,,,,,,54,,,,,,,,,,,,,,443.97899999984656,,response,,,,100,,,,,,,Space,keypress(Space),,,,,,,,-- the ---- --- ------ ----- ------- ---- -- --- ------- --<br>------- ---------- ------ -- ----- -- ----- -- ---- ------<br>--- ----- --- --- ------ -------- ----- --- ------ ----- --<br>----- ----- ---------- --- --- ------ ------ ---- -- ------<br>------- --- ------ ----- --- ---- ------- -- ---- --- --<br>------- ------,142386.10999999993,142378.29999999984,141917.655,141920.55500000014,141934.321,142400.969,,1,the
screen,html.Screen,1_1_1_1_2,2021-04-23T15:54:32.826Z,,,,,,,,,,,,,,,,54,,,,,,,,,,,,,,219.31599999996251,,response,,,,100,,,,,,,Space,keypress(Space),,,,,,,,-- --- time --- ------ ----- ------- ---- -- --- ------- --<br>------- ---------- ------ -- ----- -- ----- -- ---- ------<br>--- ----- --- --- ------ -------- ----- --- ------ ----- --<br>----- ----- ---------- --- --- ------ ------ ---- -- ------<br>------- --- ------ ----- --- ---- ------- -- ---- --- --<br>------- ------,142627.7650000002,142620.28499999997,142384.303,142386.2650000001,142400.969,142634.293,,2,time
screen,html.Screen,1_1_1_1_3,2021-04-23T15:54:33.103Z,,,,,,,,,,,,,,,,54,,,,,,,,,,,,,,262.9769999999262,,response,,,,100,,,,,,,Space,keypress(Space),,,,,,,,-- --- ---- the ------ ----- ------- ---- -- --- ------- --<br>------- ---------- ------ -- ----- -- ----- -- ---- ------<br>--- ----- --- --- ------ -------- ----- --- ------ ----- --<br>----- ----- ---------- --- --- ------ ------ ---- -- ------<br>------- --- ------ ----- --- ---- ------- -- ---- --- --<br>------- ------,142904.88000000006,142897.26999999993,142617.627,142627.92499999978,142634.293,142917.615,,3,the
screen,html.Screen,1_1_1_1_4,2021-04-23T15:54:33.352Z,,,,,,,,,,,,,,,,54,,,,,,,,,,,,,,228.6600000000617,,response,,,,100,,,,,,,Space,keypress(Space),,,,,,,,-- --- ---- --- French ----- ------- ---- -- --- ------- --<br>------- ---------- ------ -- ----- -- ----- -- ---- ------<br>--- ----- --- --- ------ -------- ----- --- ------ ----- --<br>----- ----- ---------- --- --- ------ ------ ---- -- ------<br>------- --- ------ ----- --- ---- ------- -- ---- --- --<br>------- ------,143154.13499999978,143146.27500000005,142900.949,142905.06000000006,142917.615,143167.605,,4,French
screen,html.Screen,1_1_1_1_5,2021-04-23T15:54:33.597Z,,,,,,,,,,,,,,,,54,,,,,,,,,,,,,,224.58500000002095,,response,,,,100,,,,,,,Space,keypress(Space),,,,,,,,-- --- ---- --- ------ crown ------- ---- -- --- ------- --<br>------- ---------- ------ -- ----- -- ----- -- ---- ------<br>--- ----- --- --- ------ -------- ----- --- ------ ----- --<br>----- ----- ---------- --- --- ------ ------ ---- -- ------<br>------- --- ------ ----- --- ---- ------- -- ---- --- --<br>------- ------,143399.44000000015,143392.19000000003,143150.939,143154.2949999998,143167.605,143400.929,,5,crown
screen,html.Screen,1_1_1_1_6,2021-04-23T15:54:33.931Z,,,,,,,,,,,,,,,,54,,,,,,,,,,,,,,324.74099999980535,,response,,,,100,,,,,,,Space,keypress(Space),,,,,,,,-- --- ---- --- ------ ----- secured ---- -- --- ------- --<br>------- ---------- ------ -- ----- -- ----- -- ---- ------<br>--- ----- --- --- ------ -------- ----- --- ------ ----- --<br>----- ----- ---------- --- --- ------ ------ ---- -- ------<br>------- --- ------ ----- --- ---- ------- -- ---- --- --<br>------- ------,143733.1949999998,143725.6699999998,143384.263,143399.59499999986,143400.929,143734.249,,6,secured
screen,html.Screen,1_1_1_1_7,2021-04-23T15:54:34.835Z,,,,,,,,,,,,,,,,54,,,,,,,,,,,,,,894.4309999998077,,response,,,,100,,,,,,,Space,keypress(Space),,,,,,,,-- --- ---- --- ------ ----- ------- much -- --- ------- --<br>------- ---------- ------ -- ----- -- ----- -- ---- ------<br>--- ----- --- --- ------ -------- ----- --- ------ ----- --<br>----- ----- ---------- --- --- ------ ------ ---- -- ------<br>------- --- ------ ----- --- ---- ------- -- ---- --- --<br>------- ------,144636.77999999982,144628.67999999982,143717.583,143733.35499999984,143734.249,144650.879,,7,much
screen,html.Screen,1_1_1_1_8,2021-04-23T15:54:35.052Z,,,,,,,,,,,,,,,,54,,,,,,,,,,,,,,195.5559999999532,,response,,,,100,,,,,,,Space,keypress(Space),,,,,,,,-- --- ---- --- ------ ----- ------- ---- of --- ------- --<br>------- ---------- ------ -- ----- -- ----- -- ---- ------<br>--- ----- --- --- ------ -------- ----- --- ------ ----- --<br>----- ----- ---------- --- --- ------ ------ ---- -- ------<br>------- --- ------ ----- --- ---- ------- -- ---- --- --<br>------- ------,144854.30499999985,144846.43499999994,144634.213,144636.93999999986,144650.879,144867.537,,8,of
screen,html.Screen,1_1_1_1_9,2021-04-23T15:54:35.323Z,,,,,,,,,,,,,,,,54,,,,,,,,,,,,,,249.63299999997253,,response,,,,100,,,,,,,Space,keypress(Space),,,,,,,,-- --- ---- --- ------ ----- ------- ---- -- its ------- --<br>------- ---------- ------ -- ----- -- ----- -- ---- ------<br>--- ----- --- --- ------ -------- ----- --- ------ ----- --<br>----- ----- ---------- --- --- ------ ------ ---- -- ------<br>------- --- ------ ----- --- ---- ------- -- ---- --- --<br>------- ------,145124.58000000016,145117.16999999998,144850.871,144854.4700000002,144867.537,145134.193,,9,its
screen,html.Screen,1_1_1_1_10,2021-04-23T15:54:35.599Z,,,,,,,,,,,,,,,,54,,,,,,,,,,,,,,258.9969999997702,,response,,,,100,,,,,,,Space,keypress(Space),,,,,,,,-- --- ---- --- ------ ----- ------- ---- -- --- revenue --<br>------- ---------- ------ -- ----- -- ----- -- ---- ------<br>--- ----- --- --- ------ -------- ----- --- ------ ----- --<br>----- ----- ---------- --- --- ------ ------ ---- -- ------<br>------- --- ------ ----- --- ---- ------- -- ---- --- --<br>------- ------,145401.05499999982,145393.18999999977,145117.527,145124.74500000008,145134.193,145417.515,,10,revenue
screen,html.Screen,1_1_1_1_11,2021-04-23T15:54:35.902Z,,,,,,,,,,,,,,,,54,,,,,,,,,,,,,,278.62000000011176,,response,,,,100,,,,,,,Space,keypress(Space),,,,,,,,-- --- ---- --- ------ ----- ------- ---- -- --- ------- by<br>------- ---------- ------ -- ----- -- ----- -- ---- ------<br>--- ----- --- --- ------ -------- ----- --- ------ ----- --<br>----- ----- ---------- --- --- ------ ------ ---- -- ------<br>------- --- ------ ----- --- ---- ------- -- ---- --- --<br>------- ------,145703.75000000012,145696.13500000013,145400.849,145401.2200000002,145417.515,145717.503,,11,by
screen,html.Screen,1_1_1_1_12,2021-04-23T15:54:36.196Z,,,,,,,,,,,,,,,,54,,,,,,,,,,,,,,272.5520000002289,,response,,,,100,,,,,,,Space,keypress(Space),,,,,,,,-- --- ---- --- ------ ----- ------- ---- -- --- ------- --<br>issuing ---------- ------ -- ----- -- ----- -- ---- ------<br>--- ----- --- --- ------ -------- ----- --- ------ ----- --<br>----- ----- ---------- --- --- ------ ------ ---- -- ------<br>------- --- ------ ----- --- ---- ------- -- ---- --- --<br>------- ------,145997.6700000002,145990.05500000023,145700.837,145703.91000000018,145717.503,146000.825,,12,issuing
screen,html.Screen,1_1_1_1_13,2021-04-23T15:54:36.450Z,,,,,,,,,,,,,,,,54,,,,,,,,,,,,,,243.32499999998254,,response,,,,100,,,,,,,Space,keypress(Space),,,,,,,,-- --- ---- --- ------ ----- ------- ---- -- --- ------- --<br>------- government ------ -- ----- -- ----- -- ---- ------<br>--- ----- --- --- ------ -------- ----- --- ------ ----- --<br>----- ----- ---------- --- --- ------ ------ ---- -- ------<br>------- --- ------ ----- --- ---- ------- -- ---- --- --<br>------- ------,146251.74000000017,146244.15,145984.159,145997.82499999992,146000.825,146267.481,,13,government
screen,html.Screen,1_1_1_1_14,2021-04-23T15:54:36.760Z,,,,,,,,,,,,,,,,54,,,,,,,,,,,,,,286.67900000014924,,response,,,,100,,,,,,,Space,keypress(Space),,,,,,,,-- --- ---- --- ------ ----- ------- ---- -- --- ------- --<br>------- ---------- bonds. -- ----- -- ----- -- ---- ------<br>--- ----- --- --- ------ -------- ----- --- ------ ----- --<br>----- ----- ---------- --- --- ------ ------ ---- -- ------<br>------- --- ------ ----- --- ---- ------- -- ---- --- --<br>------- ------,146561.9499999998,146554.16000000015,146250.815,146251.89499999987,146267.481,146567.469,,14,bonds.
screen,html.Screen,1_1_1_1_15,2021-04-23T15:54:37.046Z,,,,,,,,,,,,,,,,54,,,,,,,,,,,,,,272.5059999998484,,response,,,,100,,,,,,,Space,keypress(Space),,,,,,,,-- --- ---- --- ------ ----- ------- ---- -- --- ------- --<br>------- ---------- ------ In ----- -- ----- -- ---- ------<br>--- ----- --- --- ------ -------- ----- --- ------ ----- --<br>----- ----- ---------- --- --- ------ ------ ---- -- ------<br>------- --- ------ ----- --- ---- ------- -- ---- --- --<br>------- ------,146847.65999999992,146839.97499999986,146550.803,146562.10499999998,146567.469,146850.791,,15,In
screen,html.Screen,1_1_1_1_16,2021-04-23T15:54:37.325Z,,,,,,,,,,,,,,,,54,,,,,,,,,,,,,,268.3489999997837,,response,,,,100,,,,,,,Space,keypress(Space),,,,,,,,"-- --- ---- --- ------ ----- ------- ---- -- --- ------- --<br>------- ---------- ------ -- 1727, -- ----- -- ---- ------<br>--- ----- --- --- ------ -------- ----- --- ------ ----- --<br>----- ----- ---------- --- --- ------ ------ ---- -- ------<br>------- --- ------ ----- --- ---- ------- -- ---- --- --<br>------- ------",147127.1099999999,147119.13999999978,146834.125,146847.81999999995,146850.791,147134.113,,16,"1727,"
screen,html.Screen,1_1_1_1_17,2021-04-23T15:54:37.604Z,,,,,,,,,,,,,,,,54,,,,,,,,,,,,,,264.19700000001467,,response,,,,100,,,,,,,Space,keypress(Space),,,,,,,,-- --- ---- --- ------ ----- ------- ---- -- --- ------- --<br>------- ---------- ------ -- ----- in ----- -- ---- ------<br>--- ----- --- --- ------ -------- ----- --- ------ ----- --<br>----- ----- ---------- --- --- ------ ------ ---- -- ------<br>------- --- ------ ----- --- ---- ------- -- ---- --- --<br>------- ------,147405.99999999994,147398.31000000003,147117.447,147127.26999999996,147134.113,147417.435,,17,in
screen,html.Screen,1_1_1_1_18,2021-04-23T15:54:39.301Z,,,,,,,,,,,,,,,,54,,,,,,,,,,,,,,1677.759999999893,,response,,,,100,,,,,,,Space,keypress(Space),,,,,,,,-- --- ---- --- ------ ----- ------- ---- -- --- ------- --<br>------- ---------- ------ -- ----- -- order -- ---- ------<br>--- ----- --- --- ------ -------- ----- --- ------ ----- --<br>----- ----- ---------- --- --- ------ ------ ---- -- ------<br>------- --- ------ ----- --- ---- ------- -- ---- --- --<br>------- ------,149102.9050000002,149095.1949999999,147400.769,147406.17500000008,147417.435,149117.367,,18,order
screen,html.Screen,1_1_1_1_19,2021-04-23T15:54:40.265Z,,,,,,,,,,,,,,,,54,,,,,,,,,,,,,,942.777999999933,,response,,,,100,,,,,,,Space,keypress(Space),,,,,,,,-- --- ---- --- ------ ----- ------- ---- -- --- ------- --<br>------- ---------- ------ -- ----- -- ----- to ---- ------<br>--- ----- --- --- ------ -------- ----- --- ------ ----- --<br>----- ----- ---------- --- --- ------ ------ ---- -- ------<br>------- --- ------ ----- --- ---- ------- -- ---- --- --<br>------- ------,150067.45,150060.14499999993,149100.701,149103.0649999998,149117.367,150083.995,,19,to
screen,html.Screen,1_1_1_1_20,2021-04-23T15:54:40.444Z,,,,,,,,,,,,,,,,54,,,,,,,,,,,,,,154.35999999995693,,response,,,,100,,,,,,,Space,keypress(Space),,,,,,,,-- --- ---- --- ------ ----- ------- ---- -- --- ------- --<br>------- ---------- ------ -- ----- -- ----- -- save ------<br>--- ----- --- --- ------ -------- ----- --- ------ ----- --<br>----- ----- ---------- --- --- ------ ------ ---- -- ------<br>------- --- ------ ----- --- ---- ------- -- ---- --- --<br>------- ------,150246.39500000014,150238.35499999995,150067.329,150067.61499999993,150083.995,150250.655,,20,save
screen,html.Screen,1_1_1_1_21,2021-04-23T15:54:40.660Z,,,,,,,,,,,,,,,,54,,,,,,,,,,,,,,203.54500000012922,,response,,,,100,,,,,,,Space,keypress(Space),,,,,,,,"-- --- ---- --- ------ ----- ------- ---- -- --- ------- --<br>------- ---------- ------ -- ----- -- ----- -- ---- money,<br>--- ----- --- --- ------ -------- ----- --- ------ ----- --<br>----- ----- ---------- --- --- ------ ------ ---- -- ------<br>------- --- ------ ----- --- ---- ------- -- ---- --- --<br>------- ------",150462.0399999999,150454.20000000013,150233.989,150246.55500000017,150250.655,150464.559,,21,"money,"
screen,html.Screen,1_1_1_1_22,2021-04-23T15:54:41.059Z,,,,,,,,,,,,,,,,54,,,,,,,,,,,,,,388.500999999902,,response,,,,100,,,,,,,Space,keypress(Space),,,,,,,,-- --- ---- --- ------ ----- ------- ---- -- --- ------- --<br>------- ---------- ------ -- ----- -- ----- -- ---- ------<br>the ----- --- --- ------ -------- ----- --- ------ ----- --<br>----- ----- ---------- --- --- ------ ------ ---- -- ------<br>------- --- ------ ----- --- ---- ------- -- ---- --- --<br>------- ------,150860.7000000002,150853.0599999999,150447.893,150462.19500000007,150464.559,150864.543,,22,the
screen,html.Screen,1_1_1_1_23,2021-04-23T15:54:41.238Z,,,,,,,,,,,,,,,,54,,,,,,,,,,,,,,168.5519999997632,,response,,,,100,,,,,,,Space,keypress(Space),,,,,,,,-- --- ---- --- ------ ----- ------- ---- -- --- ------- --<br>------- ---------- ------ -- ----- -- ----- -- ---- ------<br>--- state --- --- ------ -------- ----- --- ------ ----- --<br>----- ----- ---------- --- --- ------ ------ ---- -- ------<br>------- --- ------ ----- --- ---- ------- -- ---- --- --<br>------- ------,151040.35999999996,151033.09499999977,150847.877,150860.85999999978,150864.543,151047.869,,23,state
screen,html.Screen,1_1_1_1_24,2021-04-23T15:54:41.466Z,,,,,,,,,,,,,,,,54,,,,,,,,,,,,,,213.11599999989267,,response,,,,100,,,,,,,Space,keypress(Space),,,,,,,,-- --- ---- --- ------ ----- ------- ---- -- --- ------- --<br>------- ---------- ------ -- ----- -- ----- -- ---- ------<br>--- ----- cut --- ------ -------- ----- --- ------ ----- --<br>----- ----- ---------- --- --- ------ ------ ---- -- ------<br>------- --- ------ ----- --- ---- ------- -- ---- --- --<br>------- ------,151268.09999999977,151260.9849999999,151031.203,151040.51500000013,151047.869,151281.193,,24,cut
screen,html.Screen,1_1_1_1_25,2021-04-23T15:54:41.741Z,,,,,,,,,,,,,,,,54,,,,,,,,,,,,,,255.53699999980745,,response,,,,100,,,,,,,Space,keypress(Space),,,,,,,,-- --- ---- --- ------ ----- ------- ---- -- --- ------- --<br>------- ---------- ------ -- ----- -- ----- -- ---- ------<br>--- ----- --- the ------ -------- ----- --- ------ ----- --<br>----- ----- ---------- --- --- ------ ------ ---- -- ------<br>------- --- ------ ----- --- ---- ------- -- ---- --- --<br>------- ------,151543.34500000003,151536.7299999998,151264.527,151268.25499999995,151281.193,151547.849,,25,the
screen,html.Screen,1_1_1_1_26,2021-04-23T15:54:42.010Z,,,,,,,,,,,,,,,,54,,,,,,,,,,,,,,257.13600000023143,,response,,,,100,,,,,,,Space,keypress(Space),,,,,,,,-- --- ---- --- ------ ----- ------- ---- -- --- ------- --<br>------- ---------- ------ -- ----- -- ----- -- ---- ------<br>--- ----- --- --- bonds' -------- ----- --- ------ ----- --<br>----- ----- ---------- --- --- ------ ------ ---- -- ------<br>------- --- ------ ----- --- ---- ------- -- ---- --- --<br>------- ------,151812.5500000001,151804.98500000022,151531.183,151543.5299999999,151547.849,151814.505,,26,bonds'
screen,html.Screen,1_1_1_1_27,2021-04-23T15:54:42.498Z,,,,,,,,,,,,,,,,54,,,,,,,,,,,,,,478.48999999978696,,response,,,,100,,,,,,,Space,keypress(Space),,,,,,,,-- --- ---- --- ------ ----- ------- ---- -- --- ------- --<br>------- ---------- ------ -- ----- -- ----- -- ---- ------<br>--- ----- --- --- ------ interest ----- --- ------ ----- --<br>----- ----- ---------- --- --- ------ ------ ---- -- ------<br>------- --- ------ ----- --- ---- ------- -- ---- --- --<br>------- ------,152300.58999999982,152292.9949999998,151797.839,151812.71500000003,151814.505,152314.485,,27,interest
screen,html.Screen,1_1_1_1_28,2021-04-23T15:54:42.757Z,,,,,,,,,,,,,,,,54,,,,,,,,,,,,,,236.4900000001071,,response,,,,100,,,,,,,Space,keypress(Space),,,,,,,,-- --- ---- --- ------ ----- ------- ---- -- --- ------- --<br>------- ---------- ------ -- ----- -- ----- -- ---- ------<br>--- ----- --- --- ------ -------- rate. --- ------ ----- --<br>----- ----- ---------- --- --- ------ ------ ---- -- ------<br>------- --- ------ ----- --- ---- ------- -- ---- --- --<br>------- ------,152559.47000000015,152550.9750000001,152297.819,152300.745,152314.485,152564.475,,28,rate.
screen,html.Screen,1_1_1_1_29,2021-04-23T15:54:43.083Z,,,,,,,,,,,,,,,,54,,,,,,,,,,,,,,313.4000000001106,,response,,,,100,,,,,,,Space,keypress(Space),,,,,,,,-- --- ---- --- ------ ----- ------- ---- -- --- ------- --<br>------- ---------- ------ -- ----- -- ----- -- ---- ------<br>--- ----- --- --- ------ -------- ----- The ------ ----- --<br>----- ----- ---------- --- --- ------ ------ ---- -- ------<br>------- --- ------ ----- --- ---- ------- -- ---- --- --<br>------- ------,152885.20000000016,152877.87500000012,152547.809,152559.69999999978,152564.475,152897.795,,29,The
screen,html.Screen,1_1_1_1_30,2021-04-23T15:54:43.402Z,,,,,,,,,,,,,,,,54,,,,,,,,,,,,,,298.2300000001851,,response,,,,100,,,,,,,Space,keypress(Space),,,,,,,,-- --- ---- --- ------ ----- ------- ---- -- --- ------- --<br>------- ---------- ------ -- ----- -- ----- -- ---- ------<br>--- ----- --- --- ------ -------- ----- --- market ----- --<br>----- ----- ---------- --- --- ------ ------ ---- -- ------<br>------- --- ------ ----- --- ---- ------- -- ---- --- --<br>------- ------,153203.7449999998,153196.0250000002,152881.129,152885.36999999997,152897.795,153214.449,,30,market
screen,html.Screen,1_1_1_1_31,2021-04-23T15:54:44.063Z,,,,,,,,,,,,,,,,54,,,,,,,,,,,,,,642.3260000002047,,response,,,,100,,,,,,,Space,keypress(Space),,,,,,,,-- --- ---- --- ------ ----- ------- ---- -- --- ------- --<br>------- ---------- ------ -- ----- -- ----- -- ---- ------<br>--- ----- --- --- ------ -------- ----- --- ------ value --<br>----- ----- ---------- --- --- ------ ------ ---- -- ------<br>------- --- ------ ----- --- ---- ------- -- ---- --- --<br>------- ------,153865.08000000005,153856.7750000002,153197.783,153203.89999999997,153214.449,153881.089,,31,value
screen,html.Screen,1_1_1_1_32,2021-04-23T15:54:44.280Z,,,,,,,,,,,,,,,,54,,,,,,,,,,,,,,193.45599999994738,,response,,,,100,,,,,,,Space,keypress(Space),,,,,,,,-- --- ---- --- ------ ----- ------- ---- -- --- ------- --<br>------- ---------- ------ -- ----- -- ----- -- ---- ------<br>--- ----- --- --- ------ -------- ----- --- ------ ----- of<br>----- ----- ---------- --- --- ------ ------ ---- -- ------<br>------- --- ------ ----- --- ---- ------- -- ---- --- --<br>------- ------,154082.26000000013,154074.54499999995,153864.423,153865.24000000008,153881.089,154097.747,,32,of
screen,html.Screen,1_1_1_1_33,2021-04-23T15:54:44.547Z,,,,,,,,,,,,,,,,54,,,,,,,,,,,,,,244.0229999999865,,response,,,,100,,,,,,,Space,keypress(Space),,,,,,,,-- --- ---- --- ------ ----- ------- ---- -- --- ------- --<br>------- ---------- ------ -- ----- -- ----- -- ---- ------<br>--- ----- --- --- ------ -------- ----- --- ------ ----- --<br>these ----- ---------- --- --- ------ ------ ---- -- ------<br>------- --- ------ ----- --- ---- ------- -- ---- --- --<br>------- ------,154349.07500000007,154341.77,154081.081,154082.42999999993,154097.747,154364.403,,33,these
screen,html.Screen,1_1_1_1_34,2021-04-23T15:54:44.827Z,,,,,,,,,,,,,,,,54,,,,,,,,,,,,,,257.48200000001816,,response,,,,100,,,,,,,Space,keypress(Space),,,,,,,,-- --- ---- --- ------ ----- ------- ---- -- --- ------- --<br>------- ---------- ------ -- ----- -- ----- -- ---- ------<br>--- ----- --- --- ------ -------- ----- --- ------ ----- --<br>----- bonds ---------- --- --- ------ ------ ---- -- ------<br>------- --- ------ ----- --- ---- ------- -- ---- --- --<br>------- ------,154629.66499999992,154621.885,154347.737,154349.26499999984,154364.403,154631.059,,34,bonds
screen,html.Screen,1_1_1_1_35,2021-04-23T15:54:45.103Z,,,,,,,,,,,,,,,,54,,,,,,,,,,,,,,266.99600000010105,,response,,,,100,,,,,,,Space,keypress(Space),,,,,,,,"-- --- ---- --- ------ ----- ------- ---- -- --- ------- --<br>------- ---------- ------ -- ----- -- ----- -- ---- ------<br>--- ----- --- --- ------ -------- ----- --- ------ ----- --<br>----- ----- plummeted, --- --- ------ ------ ---- -- ------<br>------- --- ------ ----- --- ---- ------- -- ---- --- --<br>------- ------",154905.65000000014,154898.0550000001,154614.393,154629.82999999984,154631.059,154914.381,,35,"plummeted,"
screen,html.Screen,1_1_1_1_36,2021-04-23T15:54:45.408Z,,,,,,,,,,,,,,,,54,,,,,,,,,,,,,,290.24399999986053,,response,,,,100,,,,,,,Space,keypress(Space),,,,,,,,-- --- ---- --- ------ ----- ------- ---- -- --- ------- --<br>------- ---------- ------ -- ----- -- ----- -- ---- ------<br>--- ----- --- --- ------ -------- ----- --- ------ ----- --<br>----- ----- ---------- and --- ------ ------ ---- -- ------<br>------- --- ------ ----- --- ---- ------- -- ---- --- --<br>------- ------,155210.70499999996,155204.62499999985,154897.715,154905.83000000016,154914.381,155231.035,,36,and
screen,html.Screen,1_1_1_1_37,2021-04-23T15:54:45.694Z,,,,,,,,,,,,,,,,54,,,,,,,,,,,,,,257.1949999999197,,response,,,,100,,,,,,,Space,keypress(Space),,,,,,,,-- --- ---- --- ------ ----- ------- ---- -- --- ------- --<br>------- ---------- ------ -- ----- -- ----- -- ---- ------<br>--- ----- --- --- ------ -------- ----- --- ------ ----- --<br>----- ----- ---------- --- the ------ ------ ---- -- ------<br>------- --- ------ ----- --- ---- ------- -- ---- --- --<br>------- ------,155495.84000000005,155488.22999999992,155214.369,155210.86000000013,155231.035,155497.691,,37,the
screen,html.Screen,1_1_1_1_38,2021-04-23T15:54:45.949Z,,,,,,,,,,,,,,,,54,,,,,,,,,,,,,,248.9289999998873,,response,,,,100,,,,,,,Space,keypress(Space),,,,,,,,-- --- ---- --- ------ ----- ------- ---- -- --- ------- --<br>------- ---------- ------ -- ----- -- ----- -- ---- ------<br>--- ----- --- --- ------ -------- ----- --- ------ ----- --<br>----- ----- ---------- --- --- market ------ ---- -- ------<br>------- --- ------ ----- --- ---- ------- -- ---- --- --<br>------- ------,155750.93500000003,155746.61999999988,155481.025,155496.08500000022,155497.691,155764.347,,38,market
screen,html.Screen,1_1_1_1_39,2021-04-23T15:54:46.266Z,,,,,,,,,,,,,,,,54,,,,,,,,,,,,,,296.30799999975716,,response,,,,100,,,,,,,Space,keypress(Space),,,,,,,,-- --- ---- --- ------ ----- ------- ---- -- --- ------- --<br>------- ---------- ------ -- ----- -- ----- -- ---- ------<br>--- ----- --- --- ------ -------- ----- --- ------ ----- --<br>----- ----- ---------- --- --- ------ became ---- -- ------<br>------- --- ------ ----- --- ---- ------- -- ---- --- --<br>------- ------,156068.62,156060.65499999977,155747.681,155751.0400000001,155764.347,156081.001,,39,became
screen,html.Screen,1_1_1_1_40,2021-04-23T15:54:46.558Z,,,,,,,,,,,,,,,,54,,,,,,,,,,,,,,270.824000000197,,response,,,,100,,,,,,,Space,keypress(Space),,,,,,,,-- --- ---- --- ------ ----- ------- ---- -- --- ------- --<br>------- ---------- ------ -- ----- -- ----- -- ---- ------<br>--- ----- --- --- ------ -------- ----- --- ------ ----- --<br>----- ----- ---------- --- --- ------ ------ wary -- ------<br>------- --- ------ ----- --- ---- ------- -- ---- --- --<br>------- ------,156359.8649999999,156351.8250000002,156064.335,156068.85499999998,156081.001,156364.323,,40,wary
screen,html.Screen,1_1_1_1_41,2021-04-23T15:54:46.847Z,,,,,,,,,,,,,,,,54,,,,,,,,,,,,,,277.74199999999837,,response,,,,100,,,,,,,Space,keypress(Space),,,,,,,,-- --- ---- --- ------ ----- ------- ---- -- --- ------- --<br>------- ---------- ------ -- ----- -- ----- -- ---- ------<br>--- ----- --- --- ------ -------- ----- --- ------ ----- --<br>----- ----- ---------- --- --- ------ ------ ---- of ------<br>------- --- ------ ----- --- ---- ------- -- ---- --- --<br>------- ------,156649.47500000015,156642.065,156347.657,156360.03500000015,156364.323,156664.311,,41,of
screen,html.Screen,1_1_1_1_42,2021-04-23T15:54:47.138Z,,,,,,,,,,,,,,,,54,,,,,,,,,,,,,,268.16400000007707,,response,,,,100,,,,,,,Space,keypress(Space),,,,,,,,-- --- ---- --- ------ ----- ------- ---- -- --- ------- --<br>------- ---------- ------ -- ----- -- ----- -- ---- ------<br>--- ----- --- --- ------ -------- ----- --- ------ ----- --<br>----- ----- ---------- --- --- ------ ------ ---- -- French<br>------- --- ------ ----- --- ---- ------- -- ---- --- --<br>------- ------,156939.985,156932.47500000006,156647.645,156649.6400000001,156664.311,156947.633,,42,French
screen,html.Screen,1_1_1_1_43,2021-04-23T15:54:47.375Z,,,,,,,,,,,,,,,,54,,,,,,,,,,,,,,221.15700000018114,,response,,,,100,,,,,,,Space,keypress(Space),,,,,,,,-- --- ---- --- ------ ----- ------- ---- -- --- ------- --<br>------- ---------- ------ -- ----- -- ----- -- ---- ------<br>--- ----- --- --- ------ -------- ----- --- ------ ----- --<br>----- ----- ---------- --- --- ------ ------ ---- -- ------<br>credit. --- ------ ----- --- ---- ------- -- ---- --- --<br>------- ------,157176.80999999994,157168.79000000018,156930.967,156940.1499999999,156947.633,157180.957,,43,credit.
screen,html.Screen,1_1_1_1_44,2021-04-23T15:54:47.711Z,,,,,,,,,,,,,,,,54,,,,,,,,,,,,,,323.9629999998724,,response,,,,100,,,,,,,Space,keypress(Space),,,,,,,,-- --- ---- --- ------ ----- ------- ---- -- --- ------- --<br>------- ---------- ------ -- ----- -- ----- -- ---- ------<br>--- ----- --- --- ------ -------- ----- --- ------ ----- --<br>----- ----- ---------- --- --- ------ ------ ---- -- ------<br>------- The ------ ----- --- ---- ------- -- ---- --- --<br>------- ------,157513.19999999987,157504.91999999987,157164.291,157176.96999999997,157180.957,157514.277,,44,The
screen,html.Screen,1_1_1_1_45,2021-04-23T15:54:47.977Z,,,,,,,,,,,,,,,,54,,,,,,,,,,,,,,256.5879999999597,,response,,,,100,,,,,,,Space,keypress(Space),,,,,,,,-- --- ---- --- ------ ----- ------- ---- -- --- ------- --<br>------- ---------- ------ -- ----- -- ----- -- ---- ------<br>--- ----- --- --- ------ -------- ----- --- ------ ----- --<br>----- ----- ---------- --- --- ------ ------ ---- -- ------<br>------- --- French ----- --- ---- ------- -- ---- --- --<br>------- ------,157778.85000000015,157770.86499999996,157497.611,157513.3649999998,157514.277,157780.933,,45,French
screen,html.Screen,1_1_1_1_46,2021-04-23T15:54:48.283Z,,,,,,,,,,,,,,,,54,,,,,,,,,,,,,,296.82199999981094,,response,,,,100,,,,,,,Space,keypress(Space),,,,,,,,-- --- ---- --- ------ ----- ------- ---- -- --- ------- --<br>------- ---------- ------ -- ----- -- ----- -- ---- ------<br>--- ----- --- --- ------ -------- ----- --- ------ ----- --<br>----- ----- ---------- --- --- ------ ------ ---- -- ------<br>------- --- ------ state --- ---- ------- -- ---- --- --<br>------- ------,158085.26500000016,158077.7549999998,157764.267,157779.00499999986,157780.933,158097.587,,46,state
screen,html.Screen,1_1_1_1_47,2021-04-23T15:54:48.639Z,,,,,,,,,,,,,,,,54,,,,,,,,,,,,,,337.1380000000645,,response,,,,100,,,,,,,Space,keypress(Space),,,,,,,,-- --- ---- --- ------ ----- ------- ---- -- --- ------- --<br>------- ---------- ------ -- ----- -- ----- -- ---- ------<br>--- ----- --- --- ------ -------- ----- --- ------ ----- --<br>----- ----- ---------- --- --- ------ ------ ---- -- ------<br>------- --- ------ ----- was ---- ------- -- ---- --- --<br>------- ------,158441.29500000007,158434.72500000006,158080.921,158085.43000000008,158097.587,158447.573,,47,was
screen,html.Screen,1_1_1_1_48,2021-04-23T15:54:48.952Z,,,,,,,,,,,,,,,,54,,,,,,,,,,,,,,299.0220000000554,,response,,,,100,,,,,,,Space,keypress(Space),,,,,,,,-- --- ---- --- ------ ----- ------- ---- -- --- ------- --<br>------- ---------- ------ -- ----- -- ----- -- ---- ------<br>--- ----- --- --- ------ -------- ----- --- ------ ----- --<br>----- ----- ---------- --- --- ------ ------ ---- -- ------<br>------- --- ------ ----- --- left ------- -- ---- --- --<br>------- ------,158754.3599999999,158746.59500000006,158430.907,158441.5399999998,158447.573,158764.227,,48,left
screen,html.Screen,1_1_1_1_49,2021-04-23T15:54:49.287Z,,,,,,,,,,,,,,,,54,,,,,,,,,,,,,,317.39299999992363,,response,,,,100,,,,,,,Space,keypress(Space),,,,,,,,-- --- ---- --- ------ ----- ------- ---- -- --- ------- --<br>------- ---------- ------ -- ----- -- ----- -- ---- ------<br>--- ----- --- --- ------ -------- ----- --- ------ ----- --<br>----- ----- ---------- --- --- ------ ------ ---- -- ------<br>------- --- ------ ----- --- ---- without -- ---- --- --<br>------- ------,159089.12000000008,159081.61999999994,158747.561,158754.53000000014,158764.227,159097.547,,49,without
screen,html.Screen,1_1_1_1_50,2021-04-23T15:54:49.544Z,,,,,,,,,,,,,,,,54,,,,,,,,,,,,,,241.18799999982002,,response,,,,100,,,,,,,Space,keypress(Space),,,,,,,,-- --- ---- --- ------ ----- ------- ---- -- --- ------- --<br>------- ---------- ------ -- ----- -- ----- -- ---- ------<br>--- ----- --- --- ------ -------- ----- --- ------ ----- --<br>----- ----- ---------- --- --- ------ ------ ---- -- ------<br>------- --- ------ ----- --- ---- ------- an ---- --- --<br>------- ------,159346.64500000008,159338.7349999998,159080.881,159089.28000000014,159097.547,159364.203,,50,an
screen,html.Screen,1_1_1_1_51,2021-04-23T15:54:49.811Z,,,,,,,,,,,,,,,,54,,,,,,,,,,,,,,241.59199999994598,,response,,,,100,,,,,,,Space,keypress(Space),,,,,,,,-- --- ---- --- ------ ----- ------- ---- -- --- ------- --<br>------- ---------- ------ -- ----- -- ----- -- ---- ------<br>--- ----- --- --- ------ -------- ----- --- ------ ----- --<br>----- ----- ---------- --- --- ------ ------ ---- -- ------<br>------- --- ------ ----- --- ---- ------- -- easy --- --<br>------- ------,159613.5250000002,159605.79499999995,159347.537,159346.81,159364.203,159630.859,,51,easy
screen,html.Screen,1_1_1_1_52,2021-04-23T15:54:50.092Z,,,,,,,,,,,,,,,,54,,,,,,,,,,,,,,255.84599999990314,,response,,,,100,,,,,,,Space,keypress(Space),,,,,,,,-- --- ---- --- ------ ----- ------- ---- -- --- ------- --<br>------- ---------- ------ -- ----- -- ----- -- ---- ------<br>--- ----- --- --- ------ -------- ----- --- ------ ----- --<br>----- ----- ---------- --- --- ------ ------ ---- -- ------<br>------- --- ------ ----- --- ---- ------- -- ---- way --<br>------- ------,159894.2699999998,159886.7049999999,159614.193,159613.695,159630.859,159897.515,,52,way
screen,html.Screen,1_1_1_1_53,2021-04-23T15:54:50.365Z,,,,,,,,,,,,,,,,54,,,,,,,,,,,,,,261.465000000142,,response,,,,100,,,,,,,Space,keypress(Space),,,,,,,,-- --- ---- --- ------ ----- ------- ---- -- --- ------- --<br>------- ---------- ------ -- ----- -- ----- -- ---- ------<br>--- ----- --- --- ------ -------- ----- --- ------ ----- --<br>----- ----- ---------- --- --- ------ ------ ---- -- ------<br>------- --- ------ ----- --- ---- ------- -- ---- --- of<br>------- ------,160167.1799999999,160158.98000000016,159880.849,159894.43500000017,159897.515,160180.837,,53,of
screen,html.Screen,1_1_1_1_54,2021-04-23T15:54:50.661Z,,,,,,,,,,,,,,,,54,,,,,,,,,,,,,,274.94299999976647,,response,,,,100,,,,,,,Space,keypress(Space),,,,,,,,-- --- ---- --- ------ ----- ------- ---- -- --- ------- --<br>------- ---------- ------ -- ----- -- ----- -- ---- ------<br>--- ----- --- --- ------ -------- ----- --- ------ ----- --<br>----- ----- ---------- --- --- ------ ------ ---- -- ------<br>------- --- ------ ----- --- ---- ------- -- ---- --- --<br>raising ------,160463.25999999998,160455.77999999977,160164.171,160167.34499999986,160180.837,160464.159,,54,raising
screen,html.Screen,1_1_1_1_55,2021-04-23T15:54:50.970Z,,,,,,,,,,,,,,,,54,,,,,,,,,,,,,,300.4959999999264,,response,,,,100,,,,,,,Space,keypress(Space),,,,,,,,-- --- ---- --- ------ ----- ------- ---- -- --- ------- --<br>------- ---------- ------ -- ----- -- ----- -- ---- ------<br>--- ----- --- --- ------ -------- ----- --- ------ ----- --<br>----- ----- ---------- --- --- ------ ------ ---- -- ------<br>------- --- ------ ----- --- ---- ------- -- ---- --- --<br>------- money.,160772.44000000018,160764.65499999994,160447.493,160463.42499999993,160464.159,160782.316,,55,money.
Item 100,flow.Loop,1_1_1_1,2021-04-23T15:54:50.970Z,,,,,,,,,,,,,,,,,,,,,,,,,,,,,,19546.97199999995,,completion,,,,,E,,,,,,,,,,,silence,,,,,160772.73000000013,160764.65499999994,141201.017,141203.37000000017,141217.683,160782.316,,,
Question 1,html.Screen,1_1_1_2,2021-04-23T15:54:56.931Z,,,,,,,,,,,,,,,,,,,,,,,,,,,true,TRUE,,5946.70900000009,,response,,,,100,E,,,,,,TRUE,click #choice-1,,,,silence,,,,,166731.65999999992,166729.02500000008,160765.65,160772.87500000012,160782.316,166748.744,,,
Question 2,html.Screen,1_1_1_3,2021-04-23T15:55:00.604Z,,,,,,,,,,,,,,,,,,,,,,,,,,,true,FALSE,,3651.9710000002233,,response,,,,100,E,,,,,,FALSE,click #choice-2,,,,silence,,,,,170403.7800000001,170400.71500000023,166732.078,166731.8049999999,166748.744,170431.93,,,
Item 100,flow.Sequence,1_1_1,2021-04-23T15:55:00.605Z,,,,,,,,,,,,,,,,,,,,,,,,,,,,,,39180.09700000024,,completion,,,,,,,,,,,,,,,,,,,,,170404.03000000014,170400.71500000023,131203.952,131208.86999999994,131220.618,170431.93,,,
End of Practice,html.Page,1_1_2,2021-04-23T15:55:03.498Z,,,,,,,,,,,,,,,,,,,,,,,,,,,,,,2864.365000000107,,form submission,,,,,,,,,,,,,,,,,,,,,173296.54500000016,173296.2950000001,170415.264,170404.13499999978,170431.93,173313.22,,,
Practice,flow.Sequence,1_1,2021-04-23T15:55:03.498Z,,,,,,,,,,,,,,,,,,,,,,,,,,,,,,74625.1270000001,,completion,,,,,,,,,,,,,,,,,,,,,173296.73999999976,173296.2950000001,98654.502,98662.17000000006,98671.168,173313.22,,,
Trap_instruction,html.Page,1_2_0,2021-04-23T15:55:08.718Z,,,,,,,,,,,,,,,,,,,,,,,,,,,,,,5201.639999999781,,form submission,,,,,,,,,,,,,,,,,,,,,178515.28999999983,178514.85999999978,173296.554,173296.8649999998,173313.22,178529.678,,,
trap_trial,html.Screen,1_2_1,2021-04-23T15:55:11.579Z,,,,,,,,,,,,,,,,,,,,,,,,,,,true,1,,2841.6620000001276,,response,,,,,,,,,,,1,click #choice-1,,,,,,,,,181374.94500000004,181371.34000000014,178513.012,178515.50499999986,178529.678,181396.23,,,
end of trap trial,html.Page,1_2_2,2021-04-23T15:55:14.119Z,,,,,,,,,,,,,,,,,,,,,,,,,,,,,,2518.455000000191,,form submission,,,,,,,,,,,,,,,,,,,,,183915.0450000002,183914.6850000002,181379.564,181375.12000000014,181396.23,183937.267,,,
Trap 1,flow.Sequence,1_2,2021-04-23T15:55:14.119Z,,,,,,,,,,,,,,,,,,,,,,,,,,,,,,10601.4650000002,,completion,,,,,,,,,,,,,,,,,,,,,183915.34499999988,183914.6850000002,173296.554,173296.8249999999,173313.22,183937.267,,,
Standby,html.Page,1_3_0,2021-04-23T15:55:22.128Z,,,,,,,,,,,,,,,,,,,,,,,,,,,,,,7999.679999999993,,timeout,,,,,,,,,,,,,,,,,,,,,191922.83499999985,191920.281,183920.601,183915.8400000001,183937.267,191936.947,,,
Holding screen,html.Screen,1_3_1_0_0,2021-04-23T15:55:29.127Z,,,,,,,,,,,,,,,,,,,,,,,,,,,,,,6999.002000000008,,timeout,,,,,,,,,,,,,,,,,,,,,198921.3599999998,198919.283,191920.281,191923.33000000007,191936.947,198935.949,,,
screen,html.Screen,1_3_1_0_1_0,2021-04-23T15:55:35.993Z,,,,,,,,,,,,,,,,2,,,,,,,,,,,,,,6842.421000000002,,response,,,,1,E,,,,,,Space,keypress(Space),,,,lyrical,,,,Two ---- ------ --- ------- ---------- ------- ----------<br>--- --------- --- ----------- ------- ----- ------- ---<br>--------- ---- -- --- ---- -- --------- -- ---- -------<br>-- --------- ------ --- ----- ------ ---- --- --------- --<br>------ - ---- -- --- ----------- ------- ---- ----- -----<br>--- -------- - ------ ---- -- ----- ---- --- --- -----------<br>-- -------,205786.94499999983,205778.37,198919.283,198922.23999999987,198935.949,205802.341,,0,Two
screen,html.Screen,1_3_1_0_1_1,2021-04-23T15:55:36.685Z,,,,,,,,,,,,,,,,2,,,,,,,,,,,,,,667.75900000002,,response,,,,1,E,,,,,,Space,keypress(Space),,,,lyrical,,,,--- days ------ --- ------- ---------- ------- ----------<br>--- --------- --- ----------- ------- ----- ------- ---<br>--------- ---- -- --- ---- -- --------- -- ---- -------<br>-- --------- ------ --- ----- ------ ---- --- --------- --<br>------ - ---- -- --- ----------- ------- ---- ----- -----<br>--- -------- - ------ ---- -- ----- ---- --- --- -----------<br>-- -------,206478.91500000015,206470.1,205785.675,205787.27500000014,205802.341,206482.287,,1,days
screen,html.Screen,1_3_1_0_1_2,2021-04-23T15:55:37.117Z,,,,,,,,,,,,,,,,2,,,,,,,,,,,,,,420.9330000001355,,response,,,,1,E,,,,,,Space,keypress(Space),,,,lyrical,,,,"--- ---- later, --- ------- ---------- ------- ----------<br>--- --------- --- ----------- ------- ----- ------- ---<br>--------- ---- -- --- ---- -- --------- -- ---- -------<br>-- --------- ------ --- ----- ------ ---- --- --------- --<br>------ - ---- -- --- ----------- ------- ---- ----- -----<br>--- -------- - ------ ---- -- ----- ---- --- --- -----------<br>-- -------",206911.59999999992,206903.22000000015,206465.621,206479.11000000022,206482.287,206915.603,,2,"later,"
screen,html.Screen,1_3_1_0_1_3,2021-04-23T15:55:37.544Z,,,,,,,,,,,,,,,,2,,,,,,,,,,,,,,414.58700000011595,,response,,,,1,E,,,,,,Space,keypress(Space),,,,lyrical,,,,--- ---- ------ the ------- ---------- ------- ----------<br>--- --------- --- ----------- ------- ----- ------- ---<br>--------- ---- -- --- ---- -- --------- -- ---- -------<br>-- --------- ------ --- ----- ------ ---- --- --------- --<br>------ - ---- -- --- ----------- ------- ---- ----- -----<br>--- -------- - ------ ---- -- ----- ---- --- --- -----------<br>-- -------,207337.97000000003,207330.19000000012,206898.937,206911.77500000002,206915.603,207348.919,,3,the
screen,html.Screen,1_3_1_0_1_4,2021-04-23T15:55:38.588Z,,,,,,,,,,,,,,,,2,,,,,,,,,,,,,,1025.3659999998636,,response,,,,1,E,,,,,,Space,keypress(Space),,,,lyrical,,,,--- ---- ------ --- British ---------- ------- ----------<br>--- --------- --- ----------- ------- ----- ------- ---<br>--------- ---- -- --- ---- -- --------- -- ---- -------<br>-- --------- ------ --- ----- ------ ---- --- --------- --<br>------ - ---- -- --- ----------- ------- ---- ----- -----<br>--- -------- - ------ ---- -- ----- ---- --- --- -----------<br>-- -------,208382.31499999983,208374.28499999986,207332.253,207338.13499999995,207348.919,208398.877,,4,British
screen,html.Screen,1_3_1_0_1_5,2021-04-23T15:55:38.963Z,,,,,,,,,,,,,,,,2,,,,,,,,,,,,,,350.42299999995157,,response,,,,1,E,,,,,,Space,keypress(Space),,,,lyrical,,,,--- ---- ------ --- ------- astronomer ------- ----------<br>--- --------- --- ----------- ------- ----- ------- ---<br>--------- ---- -- --- ---- -- --------- -- ---- -------<br>-- --------- ------ --- ----- ------ ---- --- --------- --<br>------ - ---- -- --- ----------- ------- ---- ----- -----<br>--- -------- - ------ ---- -- ----- ---- --- --- -----------<br>-- -------,208757.38,208749.29999999996,208382.211,208382.4850000001,208398.877,208765.529,,5,astronomer
screen,html.Screen,1_3_1_0_1_6,2021-04-23T15:55:39.332Z,,,,,,,,,,,,,,,,2,,,,,,,,,,,,,,352.66599999999744,,response,,,,1,E,,,,,,Space,keypress(Space),,,,lyrical,,,,--- ---- ------ --- ------- ---------- Richard ----------<br>--- --------- --- ----------- ------- ----- ------- ---<br>--------- ---- -- --- ---- -- --------- -- ---- -------<br>-- --------- ------ --- ----- ------ ---- --- --------- --<br>------ - ---- -- --- ----------- ------- ---- ----- -----<br>--- -------- - ------ ---- -- ----- ---- --- --- -----------<br>-- -------,209125.8899999998,209118.195,208748.863,208757.54000000007,208765.529,209132.181,,6,Richard
screen,html.Screen,1_3_1_0_1_7,2021-04-23T15:55:39.711Z,,,,,,,,,,,,,,,,2,,,,,,,,,,,,,,365.0189999997674,,response,,,,1,E,,,,,,Space,keypress(Space),,,,lyrical,,,,--- ---- ------ --- ------- ---------- ------- Carrington<br>--- --------- --- ----------- ------- ----- ------- ---<br>--------- ---- -- --- ---- -- --------- -- ---- -------<br>-- --------- ------ --- ----- ------ ---- --- --------- --<br>------ - ---- -- --- ----------- ------- ---- ----- -----<br>--- -------- - ------ ---- -- ----- ---- --- --- -----------<br>-- -------,209505.61000000016,209497.19999999978,209115.515,209126.05500000017,209132.181,209515.499,,7,Carrington
screen,html.Screen,1_3_1_0_1_8,2021-04-23T15:55:40.316Z,,,,,,,,,,,,,,,,2,,,,,,,,,,,,,,586.6860000001907,,response,,,,1,E,,,,,,Space,keypress(Space),,,,lyrical,,,,--- ---- ------ --- ------- ---------- ------- ----------<br>was --------- --- ----------- ------- ----- ------- ---<br>--------- ---- -- --- ---- -- --------- -- ---- -------<br>-- --------- ------ --- ----- ------ ---- --- --------- --<br>------ - ---- -- --- ----------- ------- ---- ----- -----<br>--- -------- - ------ ---- -- ----- ---- --- --- -----------<br>-- -------,210109.84999999983,210102.1850000002,209498.833,209505.79000000015,209515.499,210115.475,,8,was
screen,html.Screen,1_3_1_0_1_9,2021-04-23T15:55:40.617Z,,,,,,,,,,,,,,,,2,,,,,,,,,,,,,,287.83500000013737,,response,,,,1,E,,,,,,Space,keypress(Space),,,,lyrical,,,,--- ---- ------ --- ------- ---------- ------- ----------<br>--- observing --- ----------- ------- ----- ------- ---<br>--------- ---- -- --- ---- -- --------- -- ---- -------<br>-- --------- ------ --- ----- ------ ---- --- --------- --<br>------ - ---- -- --- ----------- ------- ---- ----- -----<br>--- -------- - ------ ---- -- ----- ---- --- --- -----------<br>-- -------,210411.2399999999,210403.31000000014,210098.809,210110.02999999982,210115.475,210415.463,,9,observing
screen,html.Screen,1_3_1_0_1_10,2021-04-23T15:55:40.929Z,,,,,,,,,,,,,,,,2,,,,,,,,,,,,,,299.6719999999332,,response,,,,1,E,,,,,,Space,keypress(Space),,,,lyrical,,,,--- ---- ------ --- ------- ---------- ------- ----------<br>--- --------- the ----------- ------- ----- ------- ---<br>--------- ---- -- --- ---- -- --------- -- ---- -------<br>-- --------- ------ --- ----- ------ ---- --- --------- --<br>------ - ---- -- --- ----------- ------- ---- ----- -----<br>--- -------- - ------ ---- -- ----- ---- --- --- -----------<br>-- -------,210723.45499999984,210715.13499999992,210398.797,210411.41000000015,210415.463,210732.117,,10,the
screen,html.Screen,1_3_1_0_1_11,2021-04-23T15:55:41.190Z,,,,,,,,,,,,,,,,2,,,,,,,,,,,,,,243.82800000012503,,response,,,,1,E,,,,,,Space,keypress(Space),,,,lyrical,,,,--- ---- ------ --- ------- ---------- ------- ----------<br>--- --------- --- interesting ------- ----- ------- ---<br>--------- ---- -- --- ---- -- --------- -- ---- -------<br>-- --------- ------ --- ----- ------ ---- --- --------- --<br>------ - ---- -- --- ----------- ------- ---- ----- -----<br>--- -------- - ------ ---- -- ----- ---- --- --- -----------<br>-- -------,210983.92000000013,210975.94500000012,210715.451,210723.63499999983,210732.117,210998.773,,11,interesting
screen,html.Screen,1_3_1_0_1_12,2021-04-23T15:55:41.569Z,,,,,,,,,,,,,,,,2,,,,,,,,,,,,,,356.32199999989825,,response,,,,1,E,,,,,,Space,keypress(Space),,,,lyrical,,,,--- ---- ------ --- ------- ---------- ------- ----------<br>--- --------- --- ----------- sunspot ----- ------- ---<br>--------- ---- -- --- ---- -- --------- -- ---- -------<br>-- --------- ------ --- ----- ------ ---- --- --------- --<br>------ - ---- -- --- ----------- ------- ---- ----- -----<br>--- -------- - ------ ---- -- ----- ---- --- --- -----------<br>-- -------,211363.18500000017,211355.09499999988,210982.107,210984.08500000005,210998.773,211365.425,,12,sunspot
screen,html.Screen,1_3_1_0_1_13,2021-04-23T15:55:42.743Z,,,,,,,,,,,,,,,,2,,,,,,,,,,,,,,1163.7049999998999,,response,,,,1,E,,,,,,Space,keypress(Space),,,,lyrical,,,,--- ---- ------ --- ------- ---------- ------- ----------<br>--- --------- --- ----------- ------- group ------- ---<br>--------- ---- -- --- ---- -- --------- -- ---- -------<br>-- --------- ------ --- ----- ------ ---- --- --------- --<br>------ - ---- -- --- ----------- ------- ---- ----- -----<br>--- -------- - ------ ---- -- ----- ---- --- --- -----------<br>-- -------,212537.13000000015,212529.1299999999,211348.759,211363.3450000002,211365.425,212548.711,,13,group
screen,html.Screen,1_3_1_0_1_14,2021-04-23T15:55:43.036Z,,,,,,,,,,,,,,,,2,,,,,,,,,,,,,,273.33399999988615,,response,,,,1,E,,,,,,Space,keypress(Space),,,,lyrical,,,,--- ---- ------ --- ------- ---------- ------- ----------<br>--- --------- --- ----------- ------- ----- through ---<br>--------- ---- -- --- ---- -- --------- -- ---- -------<br>-- --------- ------ --- ----- ------ ---- --- --------- --<br>------ - ---- -- --- ----------- ------- ---- ----- -----<br>--- -------- - ------ ---- -- ----- ---- --- --- -----------<br>-- -------,212829.86500000017,212822.0449999999,212532.045,212537.39499999984,212548.711,212832.033,,14,through
screen,html.Screen,1_3_1_0_1_15,2021-04-23T15:55:43.334Z,,,,,,,,,,,,,,,,2,,,,,,,,,,,,,,289.1219999998284,,response,,,,1,E,,,,,,Space,keypress(Space),,,,lyrical,,,,--- ---- ------ --- ------- ---------- ------- ----------<br>--- --------- --- ----------- ------- ----- ------- his<br>--------- ---- -- --- ---- -- --------- -- ---- -------<br>-- --------- ------ --- ----- ------ ---- --- --------- --<br>------ - ---- -- --- ----------- ------- ---- ----- -----<br>--- -------- - ------ ---- -- ----- ---- --- --- -----------<br>-- -------,213128.69,213121.15499999982,212815.367,212830.01999999987,212832.033,213132.021,,15,his
screen,html.Screen,1_3_1_0_1_16,2021-04-23T15:55:43.642Z,,,,,,,,,,,,,,,,2,,,,,,,,,,,,,,296.2489999998652,,response,,,,1,E,,,,,,Space,keypress(Space),,,,lyrical,,,,--- ---- ------ --- ------- ---------- ------- ----------<br>--- --------- --- ----------- ------- ----- ------- ---<br>telescope ---- -- --- ---- -- --------- -- ---- -------<br>-- --------- ------ --- ----- ------ ---- --- --------- --<br>------ - ---- -- --- ----------- ------- ---- ----- -----<br>--- -------- - ------ ---- -- ----- ---- --- --- -----------<br>-- -------,213435.89500000008,213428.26999999987,213115.355,213128.86500000014,213132.021,213448.675,,16,telescope
screen,html.Screen,1_3_1_0_1_17,2021-04-23T15:55:43.972Z,,,,,,,,,,,,,,,,2,,,,,,,,,,,,,,308.36000000010245,,response,,,,1,E,,,,,,Space,keypress(Space),,,,lyrical,,,,--- ---- ------ --- ------- ---------- ------- ----------<br>--- --------- --- ----------- ------- ----- ------- ---<br>--------- when -- --- ---- -- --------- -- ---- -------<br>-- --------- ------ --- ----- ------ ---- --- --------- --<br>------ - ---- -- --- ----------- ------- ---- ----- -----<br>--- -------- - ------ ---- -- ----- ---- --- --- -----------<br>-- -------,213765.89000000013,213757.0350000001,213432.009,213436.06,213448.675,213781.995,,17,when
screen,html.Screen,1_3_1_0_1_18,2021-04-23T15:55:44.246Z,,,,,,,,,,,,,,,,2,,,,,,,,,,,,,,250.04000000018277,,response,,,,1,E,,,,,,Space,keypress(Space),,,,lyrical,,,,--- ---- ------ --- ------- ---------- ------- ----------<br>--- --------- --- ----------- ------- ----- ------- ---<br>--------- ---- he --- ---- -- --------- -- ---- -------<br>-- --------- ------ --- ----- ------ ---- --- --------- --<br>------ - ---- -- --- ----------- ------- ---- ----- -----<br>--- -------- - ------ ---- -- ----- ---- --- --- -----------<br>-- -------,214040.37500000003,214032.03500000018,213765.329,213766.14999999994,213781.995,214048.651,,18,he
screen,html.Screen,1_3_1_0_1_19,2021-04-23T15:55:44.511Z,,,,,,,,,,,,,,,,2,,,,,,,,,,,,,,248.4289999998,,response,,,,1,E,,,,,,Space,keypress(Space),,,,lyrical,,,,--- ---- ------ --- ------- ---------- ------- ----------<br>--- --------- --- ----------- ------- ----- ------- ---<br>--------- ---- -- saw ---- -- --------- -- ---- -------<br>-- --------- ------ --- ----- ------ ---- --- --------- --<br>------ - ---- -- --- ----------- ------- ---- ----- -----<br>--- -------- - ------ ---- -- ----- ---- --- --- -----------<br>-- -------,214305.3749999999,214297.0799999998,214031.985,214040.53999999998,214048.651,214315.307,,19,saw
screen,html.Screen,1_3_1_0_1_20,2021-04-23T15:55:44.833Z,,,,,,,,,,,,,,,,2,,,,,,,,,,,,,,304.6229999998468,,response,,,,1,E,,,,,,Space,keypress(Space),,,,lyrical,,,,--- ---- ------ --- ------- ---------- ------- ----------<br>--- --------- --- ----------- ------- ----- ------- ---<br>--------- ---- -- --- what -- --------- -- ---- -------<br>-- --------- ------ --- ----- ------ ---- --- --------- --<br>------ - ---- -- --- ----------- ------- ---- ----- -----<br>--- -------- - ------ ---- -- ----- ---- --- --- -----------<br>-- -------,214627.64000000016,214619.92999999985,214298.641,214305.53999999983,214315.307,214631.961,,20,what
screen,html.Screen,1_3_1_0_1_21,2021-04-23T15:55:45.084Z,,,,,,,,,,,,,,,,2,,,,,,,,,,,,,,238.09399999986636,,response,,,,1,E,,,,,,Space,keypress(Space),,,,lyrical,,,,--- ---- ------ --- ------- ---------- ------- ----------<br>--- --------- --- ----------- ------- ----- ------- ---<br>--------- ---- -- --- ---- he --------- -- ---- -------<br>-- --------- ------ --- ----- ------ ---- --- --------- --<br>------ - ---- -- --- ----------- ------- ---- ----- -----<br>--- -------- - ------ ---- -- ----- ---- --- --- -----------<br>-- -------,214878.24,214870.05499999988,214615.295,214627.80500000008,214631.961,214881.951,,21,he
screen,html.Screen,1_3_1_0_1_22,2021-04-23T15:55:45.365Z,,,,,,,,,,,,,,,,2,,,,,,,,,,,,,,270.11900000009337,,response,,,,1,E,,,,,,Space,keypress(Space),,,,lyrical,,,,--- ---- ------ --- ------- ---------- ------- ----------<br>--- --------- --- ----------- ------- ----- ------- ---<br>--------- ---- -- --- ---- -- described -- ---- -------<br>-- --------- ------ --- ----- ------ ---- --- --------- --<br>------ - ---- -- --- ----------- ------- ---- ----- -----<br>--- -------- - ------ ---- -- ----- ---- --- --- -----------<br>-- -------,215159.72000000012,215152.0700000001,214865.285,214878.40000000005,214881.951,215165.273,,22,described
screen,html.Screen,1_3_1_0_1_23,2021-04-23T15:55:45.690Z,,,,,,,,,,,,,,,,2,,,,,,,,,,,,,,310.9120000000112,,response,,,,1,E,,,,,,Space,keypress(Space),,,,lyrical,,,,--- ---- ------ --- ------- ---------- ------- ----------<br>--- --------- --- ----------- ------- ----- ------- ---<br>--------- ---- -- --- ---- -- --------- as ---- -------<br>-- --------- ------ --- ----- ------ ---- --- --------- --<br>------ - ---- -- --- ----------- ------- ---- ----- -----<br>--- -------- - ------ ---- -- ----- ---- --- --- -----------<br>-- -------,215484.26000000018,215476.185,215148.607,215159.88000000015,215165.273,215498.593,,23,as
screen,html.Screen,1_3_1_0_1_24,2021-04-23T15:55:45.942Z,,,,,,,,,,,,,,,,2,,,,,,,,,,,,,,230.30200000019977,,response,,,,1,E,,,,,,Space,keypress(Space),,,,lyrical,,,,"--- ---- ------ --- ------- ---------- ------- ----------<br>--- --------- --- ----------- ------- ----- ------- ---<br>--------- ---- -- --- ---- -- --------- -- ""two -------<br>-- --------- ------ --- ----- ------ ---- --- --------- --<br>------ - ---- -- --- ----------- ------- ---- ----- -----<br>--- -------- - ------ ---- -- ----- ---- --- --- -----------<br>-- -------",215736.715,215728.8950000002,215481.927,215484.41999999978,215498.593,215741.211,,24,"""two"
screen,html.Screen,1_3_1_0_1_25,2021-04-23T15:55:46.224Z,,,,,,,,,,,,,,,,2,,,,,,,,,,,,,,268.81400000004214,,response,,,,1,E,,,,,,Space,keypress(Space),,,,lyrical,,,,--- ---- ------ --- ------- ---------- ------- ----------<br>--- --------- --- ----------- ------- ----- ------- ---<br>--------- ---- -- --- ---- -- --------- -- ---- patches<br>-- --------- ------ --- ----- ------ ---- --- --------- --<br>------ - ---- -- --- ----------- ------- ---- ----- -----<br>--- -------- - ------ ---- -- ----- ---- --- --- -----------<br>-- -------,216018.4049999998,216010.02500000005,215724.545,215736.87999999992,215741.211,216024.533,,25,patches
screen,html.Screen,1_3_1_0_1_26,2021-04-23T15:55:46.529Z,,,,,,,,,,,,,,,,2,,,,,,,,,,,,,,291.387000000017,,response,,,,1,E,,,,,,Space,keypress(Space),,,,lyrical,,,,--- ---- ------ --- ------- ---------- ------- ----------<br>--- --------- --- ----------- ------- ----- ------- ---<br>--------- ---- -- --- ---- -- --------- -- ---- -------<br>of --------- ------ --- ----- ------ ---- --- --------- --<br>------ - ---- -- --- ----------- ------- ---- ----- -----<br>--- -------- - ------ ---- -- ----- ---- --- --- -----------<br>-- -------,216323.42500000005,216315.92,216007.867,216018.61999999982,216024.533,216341.187,,26,of
screen,html.Screen,1_3_1_0_1_27,2021-04-23T15:55:46.801Z,,,,,,,,,,,,,,,,2,,,,,,,,,,,,,,245.95300000009593,,response,,,,1,E,,,,,,Space,keypress(Space),,,,lyrical,,,,--- ---- ------ --- ------- ---------- ------- ----------<br>--- --------- --- ----------- ------- ----- ------- ---<br>--------- ---- -- --- ---- -- --------- -- ---- -------<br>-- intensely ------ --- ----- ------ ---- --- --------- --<br>------ - ---- -- --- ----------- ------- ---- ----- -----<br>--- -------- - ------ ---- -- ----- ---- --- --- -----------<br>-- -------,216595.01499999987,216587.1400000001,216324.521,216323.58500000008,216341.187,216607.843,,27,intensely
screen,html.Screen,1_3_1_0_1_28,2021-04-23T15:55:47.163Z,,,,,,,,,,,,,,,,2,,,,,,,,,,,,,,341.2770000002347,,response,,,,1,E,,,,,,Space,keypress(Space),,,,lyrical,,,,--- ---- ------ --- ------- ---------- ------- ----------<br>--- --------- --- ----------- ------- ----- ------- ---<br>--------- ---- -- --- ---- -- --------- -- ---- -------<br>-- --------- bright --- ----- ------ ---- --- --------- --<br>------ - ---- -- --- ----------- ------- ---- ----- -----<br>--- -------- - ------ ---- -- ----- ---- --- --- -----------<br>-- -------,216957.41499999986,216949.12000000023,216591.177,216595.17499999993,216607.843,216974.495,,28,bright
screen,html.Screen,1_3_1_0_1_29,2021-04-23T15:55:47.446Z,,,,,,,,,,,,,,,,2,,,,,,,,,,,,,,257.50499999997555,,response,,,,1,E,,,,,,Space,keypress(Space),,,,lyrical,,,,--- ---- ------ --- ------- ---------- ------- ----------<br>--- --------- --- ----------- ------- ----- ------- ---<br>--------- ---- -- --- ---- -- --------- -- ---- -------<br>-- --------- ------ and ----- ------ ---- --- --------- --<br>------ - ---- -- --- ----------- ------- ---- ----- -----<br>--- -------- - ------ ---- -- ----- ---- --- --- -----------<br>-- -------,217240.2649999999,217231.99999999997,216957.829,216957.5749999999,216974.495,217241.151,,29,and
screen,html.Screen,1_3_1_0_1_30,2021-04-23T15:55:47.763Z,,,,,,,,,,,,,,,,2,,,,,,,,,,,,,,307.7589999999618,,response,,,,1,E,,,,,,Space,keypress(Space),,,,lyrical,,,,--- ---- ------ --- ------- ---------- ------- ----------<br>--- --------- --- ----------- ------- ----- ------- ---<br>--------- ---- -- --- ---- -- --------- -- ---- -------<br>-- --------- ------ --- white ------ ---- --- --------- --<br>------ - ---- -- --- ----------- ------- ---- ----- -----<br>--- -------- - ------ ---- -- ----- ---- --- --- -----------<br>-- -------,217557.19499999986,217548.90999999997,217224.485,217240.42999999982,217241.151,217574.471,,30,white
screen,html.Screen,1_3_1_0_1_31,2021-04-23T15:55:48.073Z,,,,,,,,,,,,,,,,2,,,,,,,,,,,,,,284.5440000000235,,response,,,,1,E,,,,,,Space,keypress(Space),,,,lyrical,,,,"--- ---- ------ --- ------- ---------- ------- ----------<br>--- --------- --- ----------- ------- ----- ------- ---<br>--------- ---- -- --- ---- -- --------- -- ---- -------<br>-- --------- ------ --- ----- light"" ---- --- --------- --<br>------ - ---- -- --- ----------- ------- ---- ----- -----<br>--- -------- - ------ ---- -- ----- ---- --- --- -----------<br>-- -------",217867.26499999987,217859.015,217557.805,217557.37,217574.471,217874.459,,31,"light"""
screen,html.Screen,1_3_1_0_1_32,2021-04-23T15:55:48.598Z,,,,,,,,,,,,,,,,2,,,,,,,,,,,,,,509.50599999999395,,response,,,,1,E,,,,,,Space,keypress(Space),,,,lyrical,,,,--- ---- ------ --- ------- ---------- ------- ----------<br>--- --------- --- ----------- ------- ----- ------- ---<br>--------- ---- -- --- ---- -- --------- -- ---- -------<br>-- --------- ------ --- ----- ------ over --- --------- --<br>------ - ---- -- --- ----------- ------- ---- ----- -----<br>--- -------- - ------ ---- -- ----- ---- --- --- -----------<br>-- -------,218392.26000000007,218383.965,217857.793,217867.4299999998,217874.459,218407.771,,32,over
screen,html.Screen,1_3_1_0_1_33,2021-04-23T15:55:48.827Z,,,,,,,,,,,,,,,,2,,,,,,,,,,,,,,205.96899999977904,,response,,,,1,E,,,,,,Space,keypress(Space),,,,lyrical,,,,--- ---- ------ --- ------- ---------- ------- ----------<br>--- --------- --- ----------- ------- ----- ------- ---<br>--------- ---- -- --- ---- -- --------- -- ---- -------<br>-- --------- ------ --- ----- ------ ---- the --------- --<br>------ - ---- -- --- ----------- ------- ---- ----- -----<br>--- -------- - ------ ---- -- ----- ---- --- --- -----------<br>-- -------,218621.47499999992,218613.7399999998,218391.105,218392.42000000013,218407.771,218624.429,,33,the
screen,html.Screen,1_3_1_0_1_34,2021-04-23T15:55:49.103Z,,,,,,,,,,,,,,,,2,,,,,,,,,,,,,,265.4210000000312,,response,,,,1,E,,,,,,Space,keypress(Space),,,,lyrical,,,,--- ---- ------ --- ------- ---------- ------- ----------<br>--- --------- --- ----------- ------- ----- ------- ---<br>--------- ---- -- --- ---- -- --------- -- ---- -------<br>-- --------- ------ --- ----- ------ ---- --- sunspots. --<br>------ - ---- -- --- ----------- ------- ---- ----- -----<br>--- -------- - ------ ---- -- ----- ---- --- --- -----------<br>-- -------,218897.49500000017,218889.85000000003,218607.763,218621.64500000016,218624.429,218907.751,,34,sunspots.
screen,html.Screen,1_3_1_0_1_35,2021-04-23T15:55:49.431Z,,,,,,,,,,,,,,,,2,,,,,,,,,,,,,,309.10899999999674,,response,,,,1,E,,,,,,Space,keypress(Space),,,,lyrical,,,,--- ---- ------ --- ------- ---------- ------- ----------<br>--- --------- --- ----------- ------- ----- ------- ---<br>--------- ---- -- --- ---- -- --------- -- ---- -------<br>-- --------- ------ --- ----- ------ ---- --- --------- He<br>------ - ---- -- --- ----------- ------- ---- ----- -----<br>--- -------- - ------ ---- -- ----- ---- --- --- -----------<br>-- -------,219224.76999999981,219216.86,218891.085,218897.6600000001,218907.751,219241.071,,35,He
screen,html.Screen,1_3_1_0_1_36,2021-04-23T15:55:49.701Z,,,,,,,,,,,,,,,,2,,,,,,,,,,,,,,245.92900000009104,,response,,,,1,E,,,,,,Space,keypress(Space),,,,lyrical,,,,--- ---- ------ --- ------- ---------- ------- ----------<br>--- --------- --- ----------- ------- ----- ------- ---<br>--------- ---- -- --- ---- -- --------- -- ---- -------<br>-- --------- ------ --- ----- ------ ---- --- --------- --<br>jotted - ---- -- --- ----------- ------- ---- ----- -----<br>--- -------- - ------ ---- -- ----- ---- --- --- -----------<br>-- -------,219495.03499999992,219487.0000000001,219224.405,219224.93500000017,219241.071,219507.727,,36,jotted
screen,html.Screen,1_3_1_0_1_37,2021-04-23T15:55:49.993Z,,,,,,,,,,,,,,,,2,,,,,,,,,,,,,,274.9980000000214,,response,,,,1,E,,,,,,Space,keypress(Space),,,,lyrical,,,,--- ---- ------ --- ------- ---------- ------- ----------<br>--- --------- --- ----------- ------- ----- ------- ---<br>--------- ---- -- --- ---- -- --------- -- ---- -------<br>-- --------- ------ --- ----- ------ ---- --- --------- --<br>------ a ---- -- --- ----------- ------- ---- ----- -----<br>--- -------- - ------ ---- -- ----- ---- --- --- -----------<br>-- -------,219787.4499999998,219782.72500000003,219491.061,219495.20500000016,219507.727,219791.049,,37,a
