sender,sender_type,sender_id,timestamp,meta,,Blues,Classical,Country,Dance,Electronic,Folk,Gospel,Hip-Hop,Jazz,Latin,Musical/Film,New-age,Pop,Provo_ID,R&B,Rap,Reggae,Religious,Rock,Soul,Swing,Traditional,age,artist_name,correct,correctResponse,distraction,duration,education,ended_on,familiarity,gender,headphone_check_performance,item,list,music_frequency,offensiveness,pleasantness,position_correct,preference,response,response_action,snippet_file,song_name,song_rating,sound,stimulus_1,stimulus_2,stimulus_3,text,time_commit,time_end,time_render,time_run,time_show,time_switch,url,word,word_ID
Introduction,html.Screen,0_0,2022-04-29T15:36:11.170Z,"{""labjs_version"":""20.2.2"",""labjs_build"":{""flavor"":""production"",""commit"":""a25486e0c714a0ae2ce03ff94b7bb6896854dcfa""},""location"":""https://run.pavlovia.org/mvasilev/music_e/"",""userAgent"":""Mozilla/5.0 (X11; CrOS x86_64 14469.59.0) AppleWebKit/537.36 (KHTML, like Gecko) Chrome/99.0.4844.94 Safari/537.36"",""platform"":""Linux x86_64"",""language"":""en-GB"",""locale"":""en-US"",""timeZone"":""Europe/London"",""timezoneOffset"":-60,""screen_width"":1366,""screen_height"":768,""scroll_width"":1366,""scroll_height"":569,""window_innerWidth"":1366,""window_innerHeight"":617,""devicePixelRatio"":1}",,,,,,,,,,,,,,,,,,,,,,,,,,,,,7844.779999999999,,response,,,,,,,,,,,continue,click button,,,,,,,,,56200.50000000001,56176.9,47082.112,47734.4,48332.12,56233.576,{},,
Volume calibration,html.Screen,0_1,2022-04-29T15:36:39.628Z,,,,,,,,,,,,,,,,,,,,,,,,,,,,,,28394.62400000001,,response,,,,,,,,,,,continue,click button,,,,,,,,,84657.79999999999,84628.20000000001,56200.254,56201.4,56233.576,84688.203,,,
Task instructions,html.Screen,0_2,2022-04-29T15:36:50.153Z,,,,,,,,,,,,,,,,,,,,,,,,,,,,,,10466.996999999988,,response,,,,,,,,,,,continue,click button,,,,,,,,,95183.69999999998,95155.19999999998,84621.278,84658.5,84688.203,95189.39,,,
Sounds,html.Screen,0_3_0_0,2022-04-29T15:36:54.398Z,,,,,,,,,,,,,,,,,,,,,,,,,,,,,,4333.75,,timeout,,,,,,,,,3,,,,,,,,I,O,S,,99427.9,99423.174,95172.729,95185.19999999998,95189.39,99523.14,,,
Judgement,html.Screen,0_3_0_1,2022-04-29T15:36:55.726Z,,,,,,,,,,,,,,,,,,,,,,,,,,,true,3,,1227.159999999989,,response,,,,,,,,,3,,3,click #choice-3,,,,,I,O,S,,100756,100750.29999999999,99423.174,99428.19999999998,99523.14,100757.257,,,
Trial,flow.Sequence,0_3_0,2022-04-29T15:36:55.727Z,,,,,,,,,,,,,,,,,,,,,,,,,,,,,,5560.909999999989,,completion,,,,,,,,,3,,,,,,,,I,O,S,,100756.9,100750.29999999999,95172.729,95185,95189.39,100757.257,,,
Sounds,html.Screen,0_3_1_0,2022-04-29T15:36:59.966Z,,,,,,,,,,,,,,,,,,,,,,,,,,,,,,4249.870999999999,,timeout,,,,,,,,,1,,,,,,,,S,O,I,,104996.4,104990.467,100740.596,100758.5,100757.257,105007.128,,,
Judgement,html.Screen,0_3_1_1,2022-04-29T15:37:01.856Z,,,,,,,,,,,,,,,,,,,,,,,,,,,true,1,,1748.0719999999856,,response,,,,,,,,,1,,1,click #choice-1,,,,,S,O,I,,106886.69999999998,106755.19999999998,104990.467,104998.4,105007.128,106891.405,,,
Trial,flow.Sequence,0_3_1,2022-04-29T15:37:01.857Z,,,,,,,,,,,,,,,,,,,,,,,,,,,,,,5997.942999999985,,completion,,,,,,,,,1,,,,,,,,S,O,I,,106887.19999999998,106755.19999999998,100740.596,100757.29999999999,100757.257,106891.405,,,
Sounds,html.Screen,0_3_2_0,2022-04-29T15:37:06.095Z,,,,,,,,,,,,,,,,,,,,,,,,,,,,,,4249.123999999996,,timeout,,,,,,,,,1,,,,,,,,S,I,O,,111125.29999999999,111123.868,106874.744,106888,106891.405,111140.529,,,
Judgement,html.Screen,0_3_2_1,2022-04-29T15:37:07.014Z,,,,,,,,,,,,,,,,,,,,,,,,,,,true,1,,897.5710000000108,,response,,,,,,,,,1,,1,click #choice-1,,,,,S,I,O,,112044.1,112038.1,111123.868,111126.19999999998,111140.529,112042.48,,,
Trial,flow.Sequence,0_3_2,2022-04-29T15:37:07.014Z,,,,,,,,,,,,,,,,,,,,,,,,,,,,,,5146.695000000007,,completion,,,,,,,,,1,,,,,,,,S,I,O,,112044.69999999998,112038.1,106874.744,106887.9,106891.405,112042.48,,,
Sounds,html.Screen,0_3_3_0,2022-04-29T15:37:11.248Z,,,,,,,,,,,,,,,,,,,,,,,,,,,,,,4248.760999999999,,timeout,,,,,,,,,3,,,,,,,,O,I,S,,116278.19999999998,116274.58,112025.819,112045.19999999998,112042.48,116291.241,,,
Judgement,html.Screen,0_3_3_1,2022-04-29T15:37:12.002Z,,,,,,,,,,,,,,,,,,,,,,,,,,,true,3,,678.0589999999938,,response,,,,,,,,,3,,3,click #choice-3,,,,,O,I,S,,117032.79999999999,116969.29999999999,116274.58,116278.5,116291.241,117043.124,,,
Trial,flow.Sequence,0_3_3,2022-04-29T15:37:12.003Z,,,,,,,,,,,,,,,,,,,,,,,,,,,,,,4926.819999999992,,completion,,,,,,,,,3,,,,,,,,O,I,S,,117033.29999999999,116969.29999999999,112025.819,112045,112042.48,117043.124,,,
Sounds,html.Screen,0_3_4_0,2022-04-29T15:37:16.248Z,,,,,,,,,,,,,,,,,,,,,,,,,,,,,,4248.938000000009,,timeout,,,,,,,,,2,,,,,,,,O,S,I,,121278.79999999999,121275.401,117026.463,117033.69999999998,117043.124,121292.062,,,
Judgement,html.Screen,0_3_4_1,2022-04-29T15:37:17.093Z,,,,,,,,,,,,,,,,,,,,,,,,,,,true,2,,794.237999999983,,response,,,,,,,,,2,,2,click #choice-2,,,,,O,S,I,,122123.6,122086.29999999999,121275.401,121279.4,121292.062,122127.386,,,
Trial,flow.Sequence,0_3_4,2022-04-29T15:37:17.094Z,,,,,,,,,,,,,,,,,,,,,,,,,,,,,,5043.175999999992,,completion,,,,,,,,,2,,,,,,,,O,S,I,,122124,122086.29999999999,117026.463,117033.5,117043.124,122127.386,,,
Sounds,html.Screen,0_3_5_0,2022-04-29T15:37:21.332Z,,,,,,,,,,,,,,,,,,,,,,,,,,,,,,4248.832999999999,,timeout,,,,,,,,,2,,,,,,,,I,S,O,,126361.79999999999,126359.558,122110.725,122124.29999999999,122127.386,126376.219,,,
Judgement,html.Screen,0_3_5_1,2022-04-29T15:37:22.227Z,,,,,,,,,,,,,,,,,,,,,,,,,,,true,2,,729.3810000000085,,response,,,,,,,,,2,,2,click #choice-2,,,,,I,S,O,,127257.19999999998,127105.6,126359.558,126362.19999999998,126376.219,127511.436,,,
Trial,flow.Sequence,0_3_5,2022-04-29T15:37:22.227Z,,,,,,,,,,,,,,,,,,,,,,,,,,,,,,4978.214000000007,,completion,,,,,,,,,2,,,,,,,,I,S,O,,127257.6,127105.6,122110.725,122124.1,122127.386,127511.436,,,
Task,flow.Loop,0_3,2022-04-29T15:37:22.262Z,,,,,,,,,,,,,,,,,,,,,,,,,,,,,,31916.210000000006,,completion,,,1,,,,,,,,,,,,,,,,,,127291.9,127105.6,95172.729,95184.69999999998,95189.39,127511.436,,,
Trap,html.Screen,0_4,2022-04-29T15:37:22.315Z,,,,,,,,,,,,,,,,,,,,,,,,,,,,,,NaN,,skipped,,,,,,,,,,,,,,,,,,,,,127344.9,127105.6,,127344.5,,127511.436,,,
Thanks,html.Screen,0_5,2022-04-29T15:37:27.968Z,,,,,,,,,,,,,,,,,,,,,,,,,,,,,,5482.363999999987,,response,,,,,,,,,,,continue,click button,,,,,,,,,132998.69999999998,132993.8,127244.86,127345.29999999999,127511.436,141997.125,,,
Headphone screening,flow.Sequence,0,2022-04-29T15:37:27.969Z,,,,,,,,,,,,,,,,,,,,,,,,,,,,,,84661.68,,completion,,,,,,,,,,,,,,,,,,,,,132999.1,132993.8,47082.112,47734.200000000004,48332.12,141997.125,,,
Instructions,html.Page,1_0,2022-04-29T15:38:12.384Z,,,,,,,,,,,,,,,,,,,,,,,,,,,,,,35405.475000000006,,form submission,,,,,,,,,,,,,,,,,,,,,177413.8,177402.6,141513.956,141706,141997.125,177718.547,,,
Holding screen,html.Screen,1_1_0_0,2022-04-29T15:38:22.779Z,,,,,,,,,,,,,,,,,,,,,,,,,,,,,,10102.45200000002,,timeout,,,,,,,,,,,,,,,,,,,,,187808.69999999998,187745.19999999998,177285.361,177418.69999999998,177718.547,187820.999,,,
screen,html.Screen,1_1_0_1_0,2022-04-29T15:38:24.910Z,,,,,,,,,,,,,,,,53,,,,,,,,,,,,,,1565.0009999999893,,response,,,,99,,,,,,,Space,keypress(Space),,,,,,,,When -- ----- -- ------ - ------- --- ----------<br>------------- ------ ------ ---- ---- ------- ----- -- ----<br>-------- ------- -- ---------- --- - --- ----- ----- ----<br>---- --- --- ----- --- ---- ---- ------- ----- ---- -------<br>--- --- -- ----- -- --- ---- -- --- ---- -- ------ ------<br>--- ----- -- ----,189940.5,189386,187745.19999999998,187810.6,187820.999,189954.409,,0,When
screen,html.Screen,1_1_0_1_1,2022-04-29T15:38:25.614Z,,,,,,,,,,,,,,,,53,,,,,,,,,,,,,,686.99099999998,,response,,,,99,,,,,,,Space,keypress(Space),,,,,,,,---- it ----- -- ------ - ------- --- ----------<br>------------- ------ ------ ---- ---- ------- ----- -- ----<br>-------- ------- -- ---------- --- - --- ----- ----- ----<br>---- --- --- ----- --- ---- ---- ------- ----- ---- -------<br>--- --- -- ----- -- --- ---- -- --- ---- -- ------ ------<br>--- ----- -- ----,190644.1,190641.4,189904.426,189945.9,189954.409,190655.103,,1,it
screen,html.Screen,1_1_0_1_2,2022-04-29T15:38:26.385Z,,,,,,,,,,,,,,,,53,,,,,,,,,,,,,,757.3969999999972,,response,,,,99,,,,,,,Space,keypress(Space),,,,,,,,---- -- comes -- ------ - ------- --- ----------<br>------------- ------ ------ ---- ---- ------- ----- -- ----<br>-------- ------- -- ---------- --- - --- ----- ----- ----<br>---- --- --- ----- --- ---- ---- ------- ----- ---- -------<br>--- --- -- ----- -- --- ---- -- --- ---- -- ------ ------<br>--- ----- -- ----,191415.19999999998,191412.5,190638.442,190644.5,190655.103,191421.852,,2,comes
screen,html.Screen,1_1_0_1_3,2022-04-29T15:38:27.085Z,,,,,,,,,,,,,,,,53,,,,,,,,,,,,,,691.347999999969,,response,,,,99,,,,,,,Space,keypress(Space),,,,,,,,---- -- ----- to ------ - ------- --- ----------<br>------------- ------ ------ ---- ---- ------- ----- -- ----<br>-------- ------- -- ---------- --- - --- ----- ----- ----<br>---- --- --- ----- --- ---- ---- ------- ----- ---- -------<br>--- --- -- ----- -- --- ---- -- --- ---- -- ------ ------<br>--- ----- -- ----,192115.8,192113.19999999998,191405.191,191415.69999999998,191421.852,192121.971,,3,to
screen,html.Screen,1_1_0_1_4,2022-04-29T15:38:27.841Z,,,,,,,,,,,,,,,,53,,,,,,,,,,,,,,745.5290000000095,,response,,,,99,,,,,,,Space,keypress(Space),,,,,,,,---- -- ----- -- having - ------- --- ----------<br>------------- ------ ------ ---- ---- ------- ----- -- ----<br>-------- ------- -- ---------- --- - --- ----- ----- ----<br>---- --- --- ----- --- ---- ---- ------- ----- ---- -------<br>--- --- -- ----- -- --- ---- -- --- ---- -- ------ ------<br>--- ----- -- ----,192871,192867.5,192105.31,192116.1,192121.971,192888.747,,4,having
screen,html.Screen,1_1_0_1_5,2022-04-29T15:38:28.517Z,,,,,,,,,,,,,,,,53,,,,,,,,,,,,,,596.6529999999912,,response,,,,99,,,,,,,Space,keypress(Space),,,,,,,,---- -- ----- -- ------ a ------- --- ----------<br>------------- ------ ------ ---- ---- ------- ----- -- ----<br>-------- ------- -- ---------- --- - --- ----- ----- ----<br>---- --- --- ----- --- ---- ---- ------- ----- ---- -------<br>--- --- -- ----- -- --- ---- -- --- ---- -- ------ ------<br>--- ----- -- ----,193547.4,193485.4,192872.086,192871.4,192888.747,193555.554,,5,a
screen,html.Screen,1_1_0_1_6,2022-04-29T15:38:29.159Z,,,,,,,,,,,,,,,,53,,,,,,,,,,,,,,630.7459999999846,,response,,,,99,,,,,,,Space,keypress(Space),,,,,,,,---- -- ----- -- ------ - lasting --- ----------<br>------------- ------ ------ ---- ---- ------- ----- -- ----<br>-------- ------- -- ---------- --- - --- ----- ----- ----<br>---- --- --- ----- --- ---- ---- ------- ----- ---- -------<br>--- --- -- ----- -- --- ---- -- --- ---- -- ------ ------<br>--- ----- -- ----,194188.9,194186.3,193538.893,193547.9,193555.554,194205.685,,6,lasting
screen,html.Screen,1_1_0_1_7,2022-04-29T15:38:29.635Z,,,,,,,,,,,,,,,,53,,,,,,,,,,,,,,450.91500000000815,,response,,,,99,,,,,,,Space,keypress(Space),,,,,,,,---- -- ----- -- ------ - ------- and ----------<br>------------- ------ ------ ---- ---- ------- ----- -- ----<br>-------- ------- -- ---------- --- - --- ----- ----- ----<br>---- --- --- ----- --- ---- ---- ------- ----- ---- -------<br>--- --- -- ----- -- --- ---- -- --- ---- -- ------ ------<br>--- ----- -- ----,194665.19999999998,194656.6,194189.024,194189.19999999998,194205.685,194672.513,,7,and
screen,html.Screen,1_1_0_1_8,2022-04-29T15:38:30.157Z,,,,,,,,,,,,,,,,53,,,,,,,,,,,,,,512.3869999999879,,response,,,,99,,,,,,,Space,keypress(Space),,,,,,,,---- -- ----- -- ------ - ------- --- fulfilling<br>------------- ------ ------ ---- ---- ------- ----- -- ----<br>-------- ------- -- ---------- --- - --- ----- ----- ----<br>---- --- --- ----- --- ---- ---- ------- ----- ---- -------<br>--- --- -- ----- -- --- ---- -- --- ---- -- ------ ------<br>--- ----- -- ----,195187.69999999998,195184.9,194655.852,194665.4,194672.513,195189.228,,8,fulfilling
screen,html.Screen,1_1_0_1_9,2022-04-29T15:38:30.837Z,,,,,,,,,,,,,,,,53,,,,,,,,,,,,,,672.7719999999972,,response,,,,99,,,,,,,Space,keypress(Space),,,,,,,,"---- -- ----- -- ------ - ------- --- ----------<br>relationship, ------ ------ ---- ---- ------- ----- -- ----<br>-------- ------- -- ---------- --- - --- ----- ----- ----<br>---- --- --- ----- --- ---- ---- ------- ----- ---- -------<br>--- --- -- ----- -- --- ---- -- --- ---- -- ------ ------<br>--- ----- -- ----",195867.1,195862,195172.567,195188.1,195189.228,195889.258,,9,"relationship,"
screen,html.Screen,1_1_0_1_10,2022-04-29T15:38:31.543Z,,,,,,,,,,,,,,,,53,,,,,,,,,,,,,,632.0419999999867,,response,,,,99,,,,,,,Space,keypress(Space),,,,,,,,---- -- ----- -- ------ - ------- --- ----------<br>------------- common ------ ---- ---- ------- ----- -- ----<br>-------- ------- -- ---------- --- - --- ----- ----- ----<br>---- --- --- ----- --- ---- ---- ------- ----- ---- -------<br>--- --- -- ----- -- --- ---- -- --- ---- -- ------ ------<br>--- ----- -- ----,196573.69999999998,196521.3,195872.597,195870.3,195889.258,196589.363,,10,common
screen,html.Screen,1_1_0_1_11,2022-04-29T15:38:32.095Z,,,,,,,,,,,,,,,,53,,,,,,,,,,,,,,534.0369999999821,,response,,,,99,,,,,,,Space,keypress(Space),,,,,,,,---- -- ----- -- ------ - ------- --- ----------<br>------------- ------ wisdom ---- ---- ------- ----- -- ----<br>-------- ------- -- ---------- --- - --- ----- ----- ----<br>---- --- --- ----- --- ---- ---- ------- ----- ---- -------<br>--- --- -- ----- -- --- ---- -- --- ---- -- ------ ------<br>--- ----- -- ----,197125.69999999998,197123.4,196572.702,196576.6,196589.363,197139.545,,11,wisdom
screen,html.Screen,1_1_0_1_12,2022-04-29T15:38:32.595Z,,,,,,,,,,,,,,,,53,,,,,,,,,,,,,,482.9549999999872,,response,,,,99,,,,,,,Space,keypress(Space),,,,,,,,---- -- ----- -- ------ - ------- --- ----------<br>------------- ------ ------ says ---- ------- ----- -- ----<br>-------- ------- -- ---------- --- - --- ----- ----- ----<br>---- --- --- ----- --- ---- ---- ------- ----- ---- -------<br>--- --- -- ----- -- --- ---- -- --- ---- -- ------ ------<br>--- ----- -- ----,197625.5,197622.5,197122.884,197126.1,197139.545,197639.652,,12,says
screen,html.Screen,1_1_0_1_13,2022-04-29T15:38:33.033Z,,,,,,,,,,,,,,,,53,,,,,,,,,,,,,,421.44800000000396,,response,,,,99,,,,,,,Space,keypress(Space),,,,,,,,---- -- ----- -- ------ - ------- --- ----------<br>------------- ------ ------ ---- that ------- ----- -- ----<br>-------- ------- -- ---------- --- - --- ----- ----- ----<br>---- --- --- ----- --- ---- ---- ------- ----- ---- -------<br>--- --- -- ----- -- --- ---- -- --- ---- -- ------ ------<br>--- ----- -- ----,198063.69999999998,198061.1,197622.991,197625.8,197639.652,198073.08,,13,that
screen,html.Screen,1_1_0_1_14,2022-04-29T15:38:33.679Z,,,,,,,,,,,,,,,,53,,,,,,,,,,,,,,633.9200000000128,,response,,,,99,,,,,,,Space,keypress(Space),,,,,,,,---- -- ----- -- ------ - ------- --- ----------<br>------------- ------ ------ ---- ---- feeling ----- -- ----<br>-------- ------- -- ---------- --- - --- ----- ----- ----<br>---- --- --- ----- --- ---- ---- ------- ----- ---- -------<br>--- --- -- ----- -- --- ---- -- --- ---- -- ------ ------<br>--- ----- -- ----,198709.69999999998,198707,198056.419,198064.1,198073.08,198723.067,,14,feeling
screen,html.Screen,1_1_0_1_15,2022-04-29T15:38:34.198Z,,,,,,,,,,,,,,,,53,,,,,,,,,,,,,,499.93299999999,,response,,,,99,,,,,,,Space,keypress(Space),,,,,,,,---- -- ----- -- ------ - ------- --- ----------<br>------------- ------ ------ ---- ---- ------- close -- ----<br>-------- ------- -- ---------- --- - --- ----- ----- ----<br>---- --- --- ----- --- ---- ---- ------- ----- ---- -------<br>--- --- -- ----- -- --- ---- -- --- ---- -- ------ ------<br>--- ----- -- ----,199228.8,199223,198706.406,198710.1,198723.067,199239.884,,15,close
screen,html.Screen,1_1_0_1_16,2022-04-29T15:38:34.662Z,,,,,,,,,,,,,,,,53,,,,,,,,,,,,,,450.2160000000149,,response,,,,99,,,,,,,Space,keypress(Space),,,,,,,,---- -- ----- -- ------ - ------- --- ----------<br>------------- ------ ------ ---- ---- ------- ----- to ----<br>-------- ------- -- ---------- --- - --- ----- ----- ----<br>---- --- --- ----- --- ---- ---- ------- ----- ---- -------<br>--- --- -- ----- -- --- ---- -- --- ---- -- ------ ------<br>--- ----- -- ----,199692.69999999998,199690.1,199223.223,199229.4,199239.884,199706.672,,16,to
screen,html.Screen,1_1_0_1_17,2022-04-29T15:38:35.471Z,,,,,,,,,,,,,,,,53,,,,,,,,,,,,,,509.7280000000028,,response,,,,99,,,,,,,Space,keypress(Space),,,,,,,,---- -- ----- -- ------ - ------- --- ----------<br>------------- ------ ------ ---- ---- ------- ----- -- your<br>-------- ------- -- ---------- --- - --- ----- ----- ----<br>---- --- --- ----- --- ---- ---- ------- ----- ---- -------<br>--- --- -- ----- -- --- ---- -- --- ---- -- ------ ------<br>--- ----- -- ----,200501.1,200216.4,199690.011,199693,199706.672,200506.606,,17,your
screen,html.Screen,1_1_0_1_18,2022-04-29T15:38:36.099Z,,,,,,,,,,,,,,,,53,,,,,,,,,,,,,,612.7939999999944,,response,,,,99,,,,,,,Space,keypress(Space),,,,,,,,---- -- ----- -- ------ - ------- --- ----------<br>------------- ------ ------ ---- ---- ------- ----- -- ----<br>romantic ------- -- ---------- --- - --- ----- ----- ----<br>---- --- --- ----- --- ---- ---- ------- ----- ---- -------<br>--- --- -- ----- -- --- ---- -- --- ---- -- ------ ------<br>--- ----- -- ----,201129.69999999998,201119.4,200489.945,200502.9,200506.606,201140.155,,18,romantic
screen,html.Screen,1_1_0_1_19,2022-04-29T15:38:37.730Z,,,,,,,,,,,,,,,,53,,,,,,,,,,,,,,593.1449999999895,,response,,,,99,,,,,,,Space,keypress(Space),,,,,,,,---- -- ----- -- ------ - ------- --- ----------<br>------------- ------ ------ ---- ---- ------- ----- -- ----<br>-------- partner -- ---------- --- - --- ----- ----- ----<br>---- --- --- ----- --- ---- ---- ------- ----- ---- -------<br>--- --- -- ----- -- --- ---- -- --- ---- -- ------ ------<br>--- ----- -- ----,202760.5,201733.3,201123.494,201130,201140.155,202773.245,,19,partner
screen,html.Screen,1_1_0_1_20,2022-04-29T15:38:38.274Z,,,,,,,,,,,,,,,,53,,,,,,,,,,,,,,396.65499999999884,,response,,,,99,,,,,,,Space,keypress(Space),,,,,,,,---- -- ----- -- ------ - ------- --- ----------<br>------------- ------ ------ ---- ---- ------- ----- -- ----<br>-------- ------- is ---------- --- - --- ----- ----- ----<br>---- --- --- ----- --- ---- ---- ------- ----- ---- -------<br>--- --- -- ----- -- --- ---- -- --- ---- -- ------ ------<br>--- ----- -- ----,203304.19999999998,203169.9,202756.584,202760.69999999998,202773.245,203390.533,,20,is
screen,html.Screen,1_1_0_1_21,2022-04-29T15:38:39.412Z,,,,,,,,,,,,,,,,53,,,,,,,,,,,,,,1048.6669999999867,,response,,,,99,,,,,,,Space,keypress(Space),,,,,,,,---- -- ----- -- ------ - ------- --- ----------<br>------------- ------ ------ ---- ---- ------- ----- -- ----<br>-------- ------- -- paramount. --- - --- ----- ----- ----<br>---- --- --- ----- --- ---- ---- ------- ----- ---- -------<br>--- --- -- ----- -- --- ---- -- --- ---- -- ------ ------<br>--- ----- -- ----,204441.9,204439.19999999998,203290.567,203304.4,203390.533,204457.159,,21,paramount.
screen,html.Screen,1_1_0_1_22,2022-04-29T15:38:40.511Z,,,,,,,,,,,,,,,,53,,,,,,,,,,,,,,1038.4409999999916,,response,,,,99,,,,,,,Space,keypress(Space),,,,,,,,---- -- ----- -- ------ - ------- --- ----------<br>------------- ------ ------ ---- ---- ------- ----- -- ----<br>-------- ------- -- ---------- But - --- ----- ----- ----<br>---- --- --- ----- --- ---- ---- ------- ----- ---- -------<br>--- --- -- ----- -- --- ---- -- --- ---- -- ------ ------<br>--- ----- -- ----,205541.4,205495.6,204440.498,204442.6,204457.159,205557.31,,22,But
screen,html.Screen,1_1_0_1_23,2022-04-29T15:38:41.073Z,,,,,,,,,,,,,,,,53,,,,,,,,,,,,,,543.3899999999849,,response,,,,99,,,,,,,Space,keypress(Space),,,,,,,,---- -- ----- -- ------ - ------- --- ----------<br>------------- ------ ------ ---- ---- ------- ----- -- ----<br>-------- ------- -- ---------- --- a --- ----- ----- ----<br>---- --- --- ----- --- ---- ---- ------- ----- ---- -------<br>--- --- -- ----- -- --- ---- -- --- ---- -- ------ ------<br>--- ----- -- ----,206103,206100.69999999998,205540.649,205541.69999999998,205557.31,206107.702,,23,a
screen,html.Screen,1_1_0_1_24,2022-04-29T15:38:41.686Z,,,,,,,,,,,,,,,,53,,,,,,,,,,,,,,606.0979999999981,,response,,,,99,,,,,,,Space,keypress(Space),,,,,,,,---- -- ----- -- ------ - ------- --- ----------<br>------------- ------ ------ ---- ---- ------- ----- -- ----<br>-------- ------- -- ---------- --- - new ----- ----- ----<br>---- --- --- ----- --- ---- ---- ------- ----- ---- -------<br>--- --- -- ----- -- --- ---- -- --- ---- -- ------ ------<br>--- ----- -- ----,206715.9,206713.8,206091.041,206103.3,206107.702,206724.397,,24,new
screen,html.Screen,1_1_0_1_25,2022-04-29T15:38:42.172Z,,,,,,,,,,,,,,,,53,,,,,,,,,,,,,,475.30299999998533,,response,,,,99,,,,,,,Space,keypress(Space),,,,,,,,---- -- ----- -- ------ - ------- --- ----------<br>------------- ------ ------ ---- ---- ------- ----- -- ----<br>-------- ------- -- ---------- --- - --- study ----- ----<br>---- --- --- ----- --- ---- ---- ------- ----- ---- -------<br>--- --- -- ----- -- --- ---- -- --- ---- -- ------ ------<br>--- ----- -- ----,207202.19999999998,207199.69999999998,206707.736,206716.19999999998,206724.397,207207.879,,25,study
screen,html.Screen,1_1_0_1_26,2022-04-29T15:38:42.631Z,,,,,,,,,,,,,,,,53,,,,,,,,,,,,,,451.22100000001956,,response,,,,99,,,,,,,Space,keypress(Space),,,,,,,,---- -- ----- -- ------ - ------- --- ----------<br>------------- ------ ------ ---- ---- ------- ----- -- ----<br>-------- ------- -- ---------- --- - --- ----- finds ----<br>---- --- --- ----- --- ---- ---- ------- ----- ---- -------<br>--- --- -- ----- -- --- ---- -- --- ---- -- ------ ------<br>--- ----- -- ----,207661.69999999998,207659.1,207191.218,207202.5,207207.879,207674.623,,26,finds
screen,html.Screen,1_1_0_1_27,2022-04-29T15:38:43.030Z,,,,,,,,,,,,,,,,53,,,,,,,,,,,,,,382.8770000000077,,response,,,,99,,,,,,,Space,keypress(Space),,,,,,,,---- -- ----- -- ------ - ------- --- ----------<br>------------- ------ ------ ---- ---- ------- ----- -- ----<br>-------- ------- -- ---------- --- - --- ----- ----- that<br>---- --- --- ----- --- ---- ---- ------- ----- ---- -------<br>--- --- -- ----- -- --- ---- -- --- ---- -- ------ ------<br>--- ----- -- ----,208060.3,208057.5,207657.962,207662.1,207674.623,208074.73,,27,that
screen,html.Screen,1_1_0_1_28,2022-04-29T15:38:43.468Z,,,,,,,,,,,,,,,,53,,,,,,,,,,,,,,420.96999999997206,,response,,,,99,,,,,,,Space,keypress(Space),,,,,,,,---- -- ----- -- ------ - ------- --- ----------<br>------------- ------ ------ ---- ---- ------- ----- -- ----<br>-------- ------- -- ---------- --- - --- ----- ----- ----<br>it's --- --- ----- --- ---- ---- ------- ----- ---- -------<br>--- --- -- ----- -- --- ---- -- --- ---- -- ------ ------<br>--- ----- -- ----,208498.1,208495.69999999998,208058.069,208060.5,208074.73,208508.108,,28,it's
screen,html.Screen,1_1_0_1_29,2022-04-29T15:38:43.901Z,,,,,,,,,,,,,,,,53,,,,,,,,,,,,,,420.5919999999751,,response,,,,99,,,,,,,Space,keypress(Space),,,,,,,,---- -- ----- -- ------ - ------- --- ----------<br>------------- ------ ------ ---- ---- ------- ----- -- ----<br>-------- ------- -- ---------- --- - --- ----- ----- ----<br>---- not --- ----- --- ---- ---- ------- ----- ---- -------<br>--- --- -- ----- -- --- ---- -- --- ---- -- ------ ------<br>--- ----- -- ----,208931.4,208928.69999999998,208491.447,208498.4,208508.108,208941.521,,29,not
screen,html.Screen,1_1_0_1_30,2022-04-29T15:38:44.376Z,,,,,,,,,,,,,,,,53,,,,,,,,,,,,,,462.27899999998044,,response,,,,99,,,,,,,Space,keypress(Space),,,,,,,,---- -- ----- -- ------ - ------- --- ----------<br>------------- ------ ------ ---- ---- ------- ----- -- ----<br>-------- ------- -- ---------- --- - --- ----- ----- ----<br>---- --- how ----- --- ---- ---- ------- ----- ---- -------<br>--- --- -- ----- -- --- ---- -- --- ---- -- ------ ------<br>--- ----- -- ----,209406.5,209403.8,208924.86,208931.69999999998,208941.521,209408.246,,30,how
screen,html.Screen,1_1_0_1_31,2022-04-29T15:38:44.812Z,,,,,,,,,,,,,,,,53,,,,,,,,,,,,,,431.4539999999688,,response,,,,99,,,,,,,Space,keypress(Space),,,,,,,,---- -- ----- -- ------ - ------- --- ----------<br>------------- ------ ------ ---- ---- ------- ----- -- ----<br>-------- ------- -- ---------- --- - --- ----- ----- ----<br>---- --- --- close --- ---- ---- ------- ----- ---- -------<br>--- --- -- ----- -- --- ---- -- --- ---- -- ------ ------<br>--- ----- -- ----,209842.3,209839.69999999998,209391.585,209406.8,209408.246,209858.322,,31,close
screen,html.Screen,1_1_0_1_32,2022-04-29T15:38:45.336Z,,,,,,,,,,,,,,,,53,,,,,,,,,,,,,,505.377999999997,,response,,,,99,,,,,,,Space,keypress(Space),,,,,,,,---- -- ----- -- ------ - ------- --- ----------<br>------------- ------ ------ ---- ---- ------- ----- -- ----<br>-------- ------- -- ---------- --- - --- ----- ----- ----<br>---- --- --- ----- you ---- ---- ------- ----- ---- -------<br>--- --- -- ----- -- --- ---- -- --- ---- -- ------ ------<br>--- ----- -- ----,210366.1,210363.69999999998,209841.661,209842.6,209858.322,210375.046,,32,you
screen,html.Screen,1_1_0_1_33,2022-04-29T15:38:46.156Z,,,,,,,,,,,,,,,,53,,,,,,,,,,,,,,505.3539999999921,,response,,,,99,,,,,,,Space,keypress(Space),,,,,,,,---- -- ----- -- ------ - ------- --- ----------<br>------------- ------ ------ ---- ---- ------- ----- -- ----<br>-------- ------- -- ---------- --- - --- ----- ----- ----<br>---- --- --- ----- --- feel ---- ------- ----- ---- -------<br>--- --- -- ----- -- --- ---- -- --- ---- -- ------ ------<br>--- ----- -- ----,211186.1,210880.4,210358.385,210366.4,210375.046,211191.691,,33,feel
screen,html.Screen,1_1_0_1_34,2022-04-29T15:38:46.529Z,,,,,,,,,,,,,,,,53,,,,,,,,,,,,,,365.10899999999674,,response,,,,99,,,,,,,Space,keypress(Space),,,,,,,,---- -- ----- -- ------ - ------- --- ----------<br>------------- ------ ------ ---- ---- ------- ----- -- ----<br>-------- ------- -- ---------- --- - --- ----- ----- ----<br>---- --- --- ----- --- ---- that ------- ----- ---- -------<br>--- --- -- ----- -- --- ---- -- --- ---- -- ------ ------<br>--- ----- -- ----,211558.9,211556.8,211175.03,211186.4,211191.691,211575.304,,34,that
screen,html.Screen,1_1_0_1_35,2022-04-29T15:38:46.950Z,,,,,,,,,,,,,,,,53,,,,,,,,,,,,,,402.2960000000021,,response,,,,99,,,,,,,Space,keypress(Space),,,,,,,,---- -- ----- -- ------ - ------- --- ----------<br>------------- ------ ------ ---- ---- ------- ----- -- ----<br>-------- ------- -- ---------- --- - --- ----- ----- ----<br>---- --- --- ----- --- ---- ---- matters ----- ---- -------<br>--- --- -- ----- -- --- ---- -- --- ---- -- ------ ------<br>--- ----- -- ----,211980.5,211977.6,211558.643,211559.19999999998,211575.304,211992.009,,35,matters
screen,html.Screen,1_1_0_1_36,2022-04-29T15:38:47.430Z,,,,,,,,,,,,,,,,53,,,,,,,,,,,,,,465.6909999999916,,response,,,,99,,,,,,,Space,keypress(Space),,,,,,,,"---- -- ----- -- ------ - ------- --- ----------<br>------------- ------ ------ ---- ---- ------- ----- -- ----<br>-------- ------- -- ---------- --- - --- ----- ----- ----<br>---- --- --- ----- --- ---- ---- ------- most, ---- -------<br>--- --- -- ----- -- --- ---- -- --- ---- -- ------ ------<br>--- ----- -- ----",212460.19999999998,212457.69999999998,211975.348,211980.8,211992.009,212925.249,,36,"most,"
screen,html.Screen,1_1_0_1_37,2022-04-29T15:38:48.301Z,,,,,,,,,,,,,,,,53,,,,,,,,,,,,,,377.7509999999893,,response,,,,99,,,,,,,Space,keypress(Space),,,,,,,,---- -- ----- -- ------ - ------- --- ----------<br>------------- ------ ------ ---- ---- ------- ----- -- ----<br>-------- ------- -- ---------- --- - --- ----- ----- ----<br>---- --- --- ----- --- ---- ---- ------- ----- it's -------<br>--- --- -- ----- -- --- ---- -- --- ---- -- ------ ------<br>--- ----- -- ----,213331.5,213303,212458.741,212460.6,212925.249,213342.251,,37,it's
screen,html.Screen,1_1_0_1_38,2022-04-29T15:38:48.776Z,,,,,,,,,,,,,,,,53,,,,,,,,,,,,,,461.34900000001653,,response,,,,99,,,,,,,Space,keypress(Space),,,,,,,,---- -- ----- -- ------ - ------- --- ----------<br>------------- ------ ------ ---- ---- ------- ----- -- ----<br>-------- ------- -- ---------- --- - --- ----- ----- ----<br>---- --- --- ----- --- ---- ---- ------- ----- ---- whether<br>--- --- -- ----- -- --- ---- -- --- ---- -- ------ ------<br>--- ----- -- ----,213805.9,213803.6,213325.59,213331.8,213342.251,213808.96,,38,whether
screen,html.Screen,1_1_0_1_39,2022-04-29T15:38:49.177Z,,,,,,,,,,,,,,,,53,,,,,,,,,,,,,,395.64000000001397,,response,,,,99,,,,,,,Space,keypress(Space),,,,,,,,---- -- ----- -- ------ - ------- --- ----------<br>------------- ------ ------ ---- ---- ------- ----- -- ----<br>-------- ------- -- ---------- --- - --- ----- ----- ----<br>---- --- --- ----- --- ---- ---- ------- ----- ---- -------<br>you --- -- ----- -- --- ---- -- --- ---- -- ------ ------<br>--- ----- -- ----,214206.9,214204.6,213792.299,213806.19999999998,213808.96,214209.059,,39,you
screen,html.Screen,1_1_0_1_40,2022-04-29T15:38:49.620Z,,,,,,,,,,,,,,,,53,,,,,,,,,,,,,,434.4409999999916,,response,,,,99,,,,,,,Space,keypress(Space),,,,,,,,---- -- ----- -- ------ - ------- --- ----------<br>------------- ------ ------ ---- ---- ------- ----- -- ----<br>-------- ------- -- ---------- --- - --- ----- ----- ----<br>---- --- --- ----- --- ---- ---- ------- ----- ---- -------<br>--- are -- ----- -- --- ---- -- --- ---- -- ------ ------<br>--- ----- -- ----,214650.3,214643.5,214192.398,214207.3,214209.059,214675.757,,40,are
screen,html.Screen,1_1_0_1_41,2022-04-29T15:38:50.050Z,,,,,,,,,,,,,,,,53,,,,,,,,,,,,,,401.74299999998766,,response,,,,99,,,,,,,Space,keypress(Space),,,,,,,,---- -- ----- -- ------ - ------- --- ----------<br>------------- ------ ------ ---- ---- ------- ----- -- ----<br>-------- ------- -- ---------- --- - --- ----- ----- ----<br>---- --- --- ----- --- ---- ---- ------- ----- ---- -------<br>--- --- as ----- -- --- ---- -- --- ---- -- ------ ------<br>--- ----- -- ----,215080.69999999998,215077.5,214659.096,214651,214675.757,215192.493,,41,as
screen,html.Screen,1_1_0_1_42,2022-04-29T15:38:50.566Z,,,,,,,,,,,,,,,,53,,,,,,,,,,,,,,400.3070000000007,,response,,,,99,,,,,,,Space,keypress(Space),,,,,,,,---- -- ----- -- ------ - ------- --- ----------<br>------------- ------ ------ ---- ---- ------- ----- -- ----<br>-------- ------- -- ---------- --- - --- ----- ----- ----<br>---- --- --- ----- --- ---- ---- ------- ----- ---- -------<br>--- --- -- close -- --- ---- -- --- ---- -- ------ ------<br>--- ----- -- ----,215596.19999999998,215592.8,215075.866,215081.1,215192.493,215609.28,,42,close
screen,html.Screen,1_1_0_1_43,2022-04-29T15:38:50.947Z,,,,,,,,,,,,,,,,53,,,,,,,,,,,,,,364.22000000000116,,response,,,,99,,,,,,,Space,keypress(Space),,,,,,,,---- -- ----- -- ------ - ------- --- ----------<br>------------- ------ ------ ---- ---- ------- ----- -- ----<br>-------- ------- -- ---------- --- - --- ----- ----- ----<br>---- --- --- ----- --- ---- ---- ------- ----- ---- -------<br>--- --- -- ----- as --- ---- -- --- ---- -- ------ ------<br>--- ----- -- ----,215976.9,215973.5,215592.619,215596.5,215609.28,215992.69,,43,as
screen,html.Screen,1_1_0_1_44,2022-04-29T15:38:51.375Z,,,,,,,,,,,,,,,,53,,,,,,,,,,,,,,409.20999999999185,,response,,,,99,,,,,,,Space,keypress(Space),,,,,,,,---- -- ----- -- ------ - ------- --- ----------<br>------------- ------ ------ ---- ---- ------- ----- -- ----<br>-------- ------- -- ---------- --- - --- ----- ----- ----<br>---- --- --- ----- --- ---- ---- ------- ----- ---- -------<br>--- --- -- ----- -- you ---- -- --- ---- -- ------ ------<br>--- ----- -- ----,216404.9,216401.9,215976.029,215977.19999999998,215992.69,216409.405,,44,you
screen,html.Screen,1_1_0_1_45,2022-04-29T15:38:51.865Z,,,,,,,,,,,,,,,,53,,,,,,,,,,,,,,454.59500000000116,,response,,,,99,,,,,,,Space,keypress(Space),,,,,,,,---- -- ----- -- ------ - ------- --- ----------<br>------------- ------ ------ ---- ---- ------- ----- -- ----<br>-------- ------- -- ---------- --- - --- ----- ----- ----<br>---- --- --- ----- --- ---- ---- ------- ----- ---- -------<br>--- --- -- ----- -- --- want -- --- ---- -- ------ ------<br>--- ----- -- ----,216895,216864,216392.744,216405.19999999998,216409.405,216909.453,,45,want
screen,html.Screen,1_1_0_1_46,2022-04-29T15:38:52.250Z,,,,,,,,,,,,,,,,53,,,,,,,,,,,,,,366.6469999999972,,response,,,,99,,,,,,,Space,keypress(Space),,,,,,,,---- -- ----- -- ------ - ------- --- ----------<br>------------- ------ ------ ---- ---- ------- ----- -- ----<br>-------- ------- -- ---------- --- - --- ----- ----- ----<br>---- --- --- ----- --- ---- ---- ------- ----- ---- -------<br>--- --- -- ----- -- --- ---- to --- ---- -- ------ ------<br>--- ----- -- ----,217280.3,217276.1,216892.792,216895.3,216909.453,217476.166,,46,to
screen,html.Screen,1_1_0_1_47,2022-04-29T15:38:54.499Z,,,,,,,,,,,,,,,,53,,,,,,,,,,,,,,933.3340000000026,,response,,,,99,,,,,,,Space,keypress(Space),,,,,,,,"---- -- ----- -- ------ - ------- --- ----------<br>------------- ------ ------ ---- ---- ------- ----- -- ----<br>-------- ------- -- ---------- --- - --- ----- ----- ----<br>---- --- --- ----- --- ---- ---- ------- ----- ---- -------<br>--- --- -- ----- -- --- ---- -- be, ---- -- ------ ------<br>--- ----- -- ----",219529.1,218409.5,217276.234,217281.4,217476.166,219542.839,,47,"be,"
screen,html.Screen,1_1_0_1_48,2022-04-29T15:38:55.144Z,,,,,,,,,,,,,,,,53,,,,,,,,,,,,,,629.2609999999986,,response,,,,99,,,,,,,Space,keypress(Space),,,,,,,,---- -- ----- -- ------ - ------- --- ----------<br>------------- ------ ------ ---- ---- ------- ----- -- ----<br>-------- ------- -- ---------- --- - --- ----- ----- ----<br>---- --- --- ----- --- ---- ---- ------- ----- ---- -------<br>--- --- -- ----- -- --- ---- -- --- even -- ------ ------<br>--- ----- -- ----,220174.6,220172.1,219526.178,219529.3,219542.839,220193.235,,48,even
screen,html.Screen,1_1_0_1_49,2022-04-29T15:38:55.677Z,,,,,,,,,,,,,,,,53,,,,,,,,,,,,,,510.4649999999965,,response,,,,99,,,,,,,Space,keypress(Space),,,,,,,,---- -- ----- -- ------ - ------- --- ----------<br>------------- ------ ------ ---- ---- ------- ----- -- ----<br>-------- ------- -- ---------- --- - --- ----- ----- ----<br>---- --- --- ----- --- ---- ---- ------- ----- ---- -------<br>--- --- -- ----- -- --- ---- -- --- ---- if ------ ------<br>--- ----- -- ----,220707.4,220703.69999999998,220176.574,220175.1,220193.235,220710.036,,49,if
screen,html.Screen,1_1_0_1_50,2022-04-29T15:38:56.123Z,,,,,,,,,,,,,,,,53,,,,,,,,,,,,,,439.06400000001304,,response,,,,99,,,,,,,Space,keypress(Space),,,,,,,,---- -- ----- -- ------ - ------- --- ----------<br>------------- ------ ------ ---- ---- ------- ----- -- ----<br>-------- ------- -- ---------- --- - --- ----- ----- ----<br>---- --- --- ----- --- ---- ---- ------- ----- ---- -------<br>--- --- -- ----- -- --- ---- -- --- ---- -- that's ------<br>--- ----- -- ----,221152.9,221149.1,220693.375,220707.8,220710.036,221160.169,,50,that's
screen,html.Screen,1_1_0_1_51,2022-04-29T15:38:56.899Z,,,,,,,,,,,,,,,,53,,,,,,,,,,,,,,471.23099999999977,,response,,,,99,,,,,,,Space,keypress(Space),,,,,,,,---- -- ----- -- ------ - ------- --- ----------<br>------------- ------ ------ ---- ---- ------- ----- -- ----<br>-------- ------- -- ---------- --- - --- ----- ----- ----<br>---- --- --- ----- --- ---- ---- ------- ----- ---- -------<br>--- --- -- ----- -- --- ---- -- --- ---- -- ------ really<br>--- ----- -- ----,221929.4,221631.4,221143.508,221153.1,221160.169,221943.449,,51,really
screen,html.Screen,1_1_0_1_52,2022-04-29T15:38:57.335Z,,,,,,,,,,,,,,,,53,,,,,,,,,,,,,,418.55100000000675,,response,,,,99,,,,,,,Space,keypress(Space),,,,,,,,---- -- ----- -- ------ - ------- --- ----------<br>------------- ------ ------ ---- ---- ------- ----- -- ----<br>-------- ------- -- ---------- --- - --- ----- ----- ----<br>---- --- --- ----- --- ---- ---- ------- ----- ---- -------<br>--- --- -- ----- -- --- ---- -- --- ---- -- ------ ------<br>not ----- -- ----,222365,222362,221926.788,221933.3,221943.449,222377.033,,52,not
screen,html.Screen,1_1_0_1_53,2022-04-29T15:38:57.941Z,,,,,,,,,,,,,,,,53,,,,,,,,,,,,,,591.7669999999925,,response,,,,99,,,,,,,Space,keypress(Space),,,,,,,,---- -- ----- -- ------ - ------- --- ----------<br>------------- ------ ------ ---- ---- ------- ----- -- ----<br>-------- ------- -- ---------- --- - --- ----- ----- ----<br>---- --- --- ----- --- ---- ---- ------- ----- ---- -------<br>--- --- -- ----- -- --- ---- -- --- ---- -- ------ ------<br>--- close -- ----,222971.19999999998,222968.8,222360.372,222365.5,222377.033,222977.029,,53,close
screen,html.Screen,1_1_0_1_54,2022-04-29T15:38:58.363Z,,,,,,,,,,,,,,,,53,,,,,,,,,,,,,,411.87099999998463,,response,,,,99,,,,,,,Space,keypress(Space),,,,,,,,---- -- ----- -- ------ - ------- --- ----------<br>------------- ------ ------ ---- ---- ------- ----- -- ----<br>-------- ------- -- ---------- --- - --- ----- ----- ----<br>---- --- --- ----- --- ---- ---- ------- ----- ---- -------<br>--- --- -- ----- -- --- ---- -- --- ---- -- ------ ------<br>--- ----- at ----,223392.9,223388.9,222960.368,222971.6,222977.029,223410.531,,54,at
screen,html.Screen,1_1_0_1_55,2022-04-29T15:38:59.117Z,,,,,,,,,,,,,,,,53,,,,,,,,,,,,,,733.9689999999828,,response,,,,99,,,,,,,Space,keypress(Space),,,,,,,,---- -- ----- -- ------ - ------- --- ----------<br>------------- ------ ------ ---- ---- ------- ----- -- ----<br>-------- ------- -- ---------- --- - --- ----- ----- ----<br>---- --- --- ----- --- ---- ---- ------- ----- ---- -------<br>--- --- -- ----- -- --- ---- -- --- ---- -- ------ ------<br>--- ----- -- all.,224146.99999999997,224144.49999999997,223393.87,223393.19999999998,223410.531,224460.394,,55,all.
Item 99,flow.Loop,1_1_0_1,2022-04-29T15:38:59.118Z,,,,,,,,,,,,,,,,,,,,,,,,,,,,,,36323.50099999996,,completion,,,,,E,,,,,,,,,,,silence,,,,,224147.9,224144.49999999997,187745.19999999998,187810.19999999998,187820.999,224460.394,,,
Question 1,html.Screen,1_1_0_2,2022-04-29T15:39:11.672Z,,,,,,,,,,,,,,,,,,,,,,,,,,,false,FALSE,,11797.805999999982,,response,,,,99,E,,,,,,TRUE,click #choice-1,,,,silence,,,,,236702.30000000002,236258.19999999998,224227.14,224148.4,224460.394,236862.668,,,
Question 2,html.Screen,1_1_0_3,2022-04-29T15:39:17.288Z,,,,,,,,,,,,,,,,,,,,,,,,,,,true,TRUE,,4709.031999999977,,response,,,,99,E,,,,,,TRUE,click #choice-1,,,,silence,,,,,242318.69999999998,241571.69999999998,236629.414,236705.99999999997,236862.668,242663.477,,,
Item 99,flow.Sequence,1_1_0,2022-04-29T15:39:17.290Z,,,,,,,,,,,,,,,,,,,,,,,,,,,,,,63853.15299999999,,completion,,,,,,,,,,,,,,,,,,,,,242319.9,241571.69999999998,177285.361,177418.5,177718.547,242663.477,,,
Holding screen,html.Screen,1_1_1_0,2022-04-29T15:39:27.689Z,,,,,,,,,,,,,,,,,,,,,,,,,,,,,,10068.675999999978,,timeout,,,,,,,,,,,,,,,,,,,,,252719.1,252668.1,242296.935,242324.69999999998,242663.477,252732.153,,,
screen,html.Screen,1_1_1_1_0,2022-04-29T15:39:29.467Z,,,,,,,,,,,,,,,,54,,,,,,,,,,,,,,1100.6470000000263,,response,,,,100,,,,,,,Space,keypress(Space),,,,,,,,At --- ---- --- ------ ----- ------- ---- -- --- ------- --<br>------- ---------- ------ -- ----- -- ----- -- ---- ------<br>--- ----- --- --- ------ -------- ----- --- ------ ----- --<br>----- ----- ---------- --- --- ------ ------ ---- -- ------<br>------- --- ------ ----- --- ---- ------- -- ---- --- --<br>------- ------,254497.30000000002,253832.80000000002,252668.1,252720.6,252732.153,254565.077,,0,At
screen,html.Screen,1_1_1_1_1,2022-04-29T15:39:30.020Z,,,,,,,,,,,,,,,,54,,,,,,,,,,,,,,481.0230000000156,,response,,,,100,,,,,,,Space,keypress(Space),,,,,,,,-- the ---- --- ------ ----- ------- ---- -- --- ------- --<br>------- ---------- ------ -- ----- -- ----- -- ---- ------<br>--- ----- --- --- ------ -------- ----- --- ------ ----- --<br>----- ----- ---------- --- --- ------ ------ ---- -- ------<br>------- --- ------ ----- --- ---- ------- -- ---- --- --<br>------- ------,255049.80000000002,255046.1,254448.45,254497.69999999998,254565.077,255065.662,,1,the
screen,html.Screen,1_1_1_1_2,2022-04-29T15:39:30.576Z,,,,,,,,,,,,,,,,54,,,,,,,,,,,,,,538.5379999999714,,response,,,,100,,,,,,,Space,keypress(Space),,,,,,,,-- --- time --- ------ ----- ------- ---- -- --- ------- --<br>------- ---------- ------ -- ----- -- ----- -- ---- ------<br>--- ----- --- --- ------ -------- ----- --- ------ ----- --<br>----- ----- ---------- --- --- ------ ------ ---- -- ------<br>------- --- ------ ----- --- ---- ------- -- ---- --- --<br>------- ------,255606.49999999997,255604.19999999998,255049.001,255050.19999999998,255065.662,255615.696,,2,time
screen,html.Screen,1_1_1_1_3,2022-04-29T15:39:31.558Z,,,,,,,,,,,,,,,,54,,,,,,,,,,,,,,778.3039999999746,,response,,,,100,,,,,,,Space,keypress(Space),,,,,,,,-- --- ---- the ------ ----- ------- ---- -- --- ------- --<br>------- ---------- ------ -- ----- -- ----- -- ---- ------<br>--- ----- --- --- ------ -------- ----- --- ------ ----- --<br>----- ----- ---------- --- --- ------ ------ ---- -- ------<br>------- --- ------ ----- --- ---- ------- -- ---- --- --<br>------- ------,256588.19999999998,256393.99999999997,255599.035,255606.69999999998,255615.696,256598.979,,3,the
screen,html.Screen,1_1_1_1_4,2022-04-29T15:39:32.095Z,,,,,,,,,,,,,,,,54,,,,,,,,,,,,,,503.0209999999788,,response,,,,100,,,,,,,Space,keypress(Space),,,,,,,,-- --- ---- --- French ----- ------- ---- -- --- ------- --<br>------- ---------- ------ -- ----- -- ----- -- ---- ------<br>--- ----- --- --- ------ -------- ----- --- ------ ----- --<br>----- ----- ---------- --- --- ------ ------ ---- -- ------<br>------- --- ------ ----- --- ---- ------- -- ---- --- --<br>------- ------,257125.49999999997,257101.99999999997,256582.318,256588.4,256598.979,257132.62,,4,French
screen,html.Screen,1_1_1_1_5,2022-04-29T15:39:32.868Z,,,,,,,,,,,,,,,,54,,,,,,,,,,,,,,760.4800000000105,,response,,,,100,,,,,,,Space,keypress(Space),,,,,,,,-- --- ---- --- ------ crown ------- ---- -- --- ------- --<br>------- ---------- ------ -- ----- -- ----- -- ---- ------<br>--- ----- --- --- ------ -------- ----- --- ------ ----- --<br>----- ----- ---------- --- --- ------ ------ ---- -- ------<br>------- --- ------ ----- --- ---- ------- -- ---- --- --<br>------- ------,257898.19999999998,257893.1,257115.959,257125.69999999998,257132.62,257915.952,,5,crown
screen,html.Screen,1_1_1_1_6,2022-04-29T15:39:33.678Z,,,,,,,,,,,,,,,,54,,,,,,,,,,,,,,789.5479999999807,,response,,,,100,,,,,,,Space,keypress(Space),,,,,,,,-- --- ---- --- ------ ----- secured ---- -- --- ------- --<br>------- ---------- ------ -- ----- -- ----- -- ---- ------<br>--- ----- --- --- ------ -------- ----- --- ------ ----- --<br>----- ----- ---------- --- --- ------ ------ ---- -- ------<br>------- --- ------ ----- --- ---- ------- -- ---- --- --<br>------- ------,258708.6,258705.49999999997,257899.291,257898.49999999997,257915.952,258716.079,,6,secured
screen,html.Screen,1_1_1_1_7,2022-04-29T15:39:34.458Z,,,,,,,,,,,,,,,,54,,,,,,,,,,,,,,770.0210000000079,,response,,,,100,,,,,,,Space,keypress(Space),,,,,,,,-- --- ---- --- ------ ----- ------- much -- --- ------- --<br>------- ---------- ------ -- ----- -- ----- -- ---- ------<br>--- ----- --- --- ------ -------- ----- --- ------ ----- --<br>----- ----- ---------- --- --- ------ ------ ---- -- ------<br>------- --- ------ ----- --- ---- ------- -- ---- --- --<br>------- ------,259488.4,259486.1,258699.418,258709.30000000002,258716.079,259499.54,,7,much
screen,html.Screen,1_1_1_1_8,2022-04-29T15:39:35.050Z,,,,,,,,,,,,,,,,54,,,,,,,,,,,,,,549.5599999999977,,response,,,,100,,,,,,,Space,keypress(Space),,,,,,,,-- --- ---- --- ------ ----- ------- ---- of --- ------- --<br>------- ---------- ------ -- ----- -- ----- -- ---- ------<br>--- ----- --- --- ------ -------- ----- --- ------ ----- --<br>----- ----- ---------- --- --- ------ ------ ---- -- ------<br>------- --- ------ ----- --- ---- ------- -- ---- --- --<br>------- ------,260080.1,260049.1,259482.879,259488.69999999998,259499.54,260083.077,,8,of
screen,html.Screen,1_1_1_1_9,2022-04-29T15:39:35.465Z,,,,,,,,,,,,,,,,54,,,,,,,,,,,,,,409.4229999999807,,response,,,,100,,,,,,,Space,keypress(Space),,,,,,,,-- --- ---- --- ------ ----- ------- ---- -- its ------- --<br>------- ---------- ------ -- ----- -- ----- -- ---- ------<br>--- ----- --- --- ------ -------- ----- --- ------ ----- --<br>----- ----- ---------- --- --- ------ ------ ---- -- ------<br>------- --- ------ ----- --- ---- ------- -- ---- --- --<br>------- ------,260495.30000000002,260492.49999999997,260066.416,260080.4,260083.077,260499.905,,9,its
screen,html.Screen,1_1_1_1_10,2022-04-29T15:39:36.126Z,,,,,,,,,,,,,,,,54,,,,,,,,,,,,,,654.195000000007,,response,,,,100,,,,,,,Space,keypress(Space),,,,,,,,-- --- ---- --- ------ ----- ------- ---- -- --- revenue --<br>------- ---------- ------ -- ----- -- ----- -- ---- ------<br>--- ----- --- --- ------ -------- ----- --- ------ ----- --<br>----- ----- ---------- --- --- ------ ------ ---- -- ------<br>------- --- ------ ----- --- ---- ------- -- ---- --- --<br>------- ------,261156.30000000002,261154.1,260483.244,260495.6,260499.905,261166.533,,10,revenue
screen,html.Screen,1_1_1_1_11,2022-04-29T15:39:36.674Z,,,,,,,,,,,,,,,,54,,,,,,,,,,,,,,442.36699999999837,,response,,,,100,,,,,,,Space,keypress(Space),,,,,,,,-- --- ---- --- ------ ----- ------- ---- -- --- ------- by<br>------- ---------- ------ -- ----- -- ----- -- ---- ------<br>--- ----- --- --- ------ -------- ----- --- ------ ----- --<br>----- ----- ---------- --- --- ------ ------ ---- -- ------<br>------- --- ------ ----- --- ---- ------- -- ---- --- --<br>------- ------,261703.80000000002,261608.9,261149.872,261156.6,261166.533,261716.674,,11,by
screen,html.Screen,1_1_1_1_12,2022-04-29T15:39:37.369Z,,,,,,,,,,,,,,,,54,,,,,,,,,,,,,,620.9260000000359,,response,,,,100,,,,,,,Space,keypress(Space),,,,,,,,-- --- ---- --- ------ ----- ------- ---- -- --- ------- --<br>issuing ---------- ------ -- ----- -- ----- -- ---- ------<br>--- ----- --- --- ------ -------- ----- --- ------ ----- --<br>----- ----- ---------- --- --- ------ ------ ---- -- ------<br>------- --- ------ ----- --- ---- ------- -- ---- --- --<br>------- ------,262399,262337.60000000003,261700.013,261704.1,261716.674,262416.717,,12,issuing
screen,html.Screen,1_1_1_1_13,2022-04-29T15:39:37.832Z,,,,,,,,,,,,,,,,54,,,,,,,,,,,,,,442.1830000000191,,response,,,,100,,,,,,,Space,keypress(Space),,,,,,,,-- --- ---- --- ------ ----- ------- ---- -- --- ------- --<br>------- government ------ -- ----- -- ----- -- ---- ------<br>--- ----- --- --- ------ -------- ----- --- ------ ----- --<br>----- ----- ---------- --- --- ------ ------ ---- -- ------<br>------- --- ------ ----- --- ---- ------- -- ---- --- --<br>------- ------,262862.80000000005,262858.9,262400.056,262399.30000000005,262416.717,262866.928,,13,government
screen,html.Screen,1_1_1_1_14,2022-04-29T15:39:38.306Z,,,,,,,,,,,,,,,,54,,,,,,,,,,,,,,467.37200000003213,,response,,,,100,,,,,,,Space,keypress(Space),,,,,,,,-- --- ---- --- ------ ----- ------- ---- -- --- ------- --<br>------- ---------- bonds. -- ----- -- ----- -- ---- ------<br>--- ----- --- --- ------ -------- ----- --- ------ ----- --<br>----- ----- ---------- --- --- ------ ------ ---- -- ------<br>------- --- ------ ----- --- ---- ------- -- ---- --- --<br>------- ------,263336.4,263334.30000000005,262850.267,262863.2,262866.928,263400.307,,14,bonds.
screen,html.Screen,1_1_1_1_15,2022-04-29T15:39:38.952Z,,,,,,,,,,,,,,,,54,,,,,,,,,,,,,,578.39300000004,,response,,,,100,,,,,,,Space,keypress(Space),,,,,,,,-- --- ---- --- ------ ----- ------- ---- -- --- ------- --<br>------- ---------- ------ In ----- -- ----- -- ---- ------<br>--- ----- --- --- ------ -------- ----- --- ------ ----- --<br>----- ----- ---------- --- --- ------ ------ ---- -- ------<br>------- --- ------ ----- --- ---- ------- -- ---- --- --<br>------- ------,263982.2,263978.7,263333.663,263336.7,263400.307,264000.446,,15,In
screen,html.Screen,1_1_1_1_16,2022-04-29T15:39:40.765Z,,,,,,,,,,,,,,,,54,,,,,,,,,,,,,,962.2540000000154,,response,,,,100,,,,,,,Space,keypress(Space),,,,,,,,"-- --- ---- --- ------ ----- ------- ---- -- --- ------- --<br>------- ---------- ------ -- 1727, -- ----- -- ---- ------<br>--- ----- --- --- ------ -------- ----- --- ------ ----- --<br>----- ----- ---------- --- --- ------ ------ ---- -- ------<br>------- --- ------ ----- --- ---- ------- -- ---- --- --<br>------- ------",265795.2,264962.7,263983.785,263982.80000000005,264000.446,265883.367,,16,"1727,"
screen,html.Screen,1_1_1_1_17,2022-04-29T15:39:41.331Z,,,,,,,,,,,,,,,,54,,,,,,,,,,,,,,417.83299999998417,,response,,,,100,,,,,,,Space,keypress(Space),,,,,,,,-- --- ---- --- ------ ----- ------- ---- -- --- ------- --<br>------- ---------- ------ -- ----- in ----- -- ---- ------<br>--- ----- --- --- ------ -------- ----- --- ------ ----- --<br>----- ----- ---------- --- --- ------ ------ ---- -- ------<br>------- --- ------ ----- --- ---- ------- -- ---- --- --<br>------- ------,266361.4,266301.2,265783.401,265795.5,265883.367,266367.502,,17,in
screen,html.Screen,1_1_1_1_18,2022-04-29T15:39:42.212Z,,,,,,,,,,,,,,,,54,,,,,,,,,,,,,,873.3980000000447,,response,,,,100,,,,,,,Space,keypress(Space),,,,,,,,-- --- ---- --- ------ ----- ------- ---- -- --- ------- --<br>------- ---------- ------ -- ----- -- order -- ---- ------<br>--- ----- --- --- ------ -------- ----- --- ------ ----- --<br>----- ----- ---------- --- --- ------ ------ ---- -- ------<br>------- --- ------ ----- --- ---- ------- -- ---- --- --<br>------- ------,267242.80000000005,267240.9,266350.841,266361.60000000003,266367.502,267250.765,,18,order
screen,html.Screen,1_1_1_1_19,2022-04-29T15:39:42.671Z,,,,,,,,,,,,,,,,54,,,,,,,,,,,,,,447.4349999999977,,response,,,,100,,,,,,,Space,keypress(Space),,,,,,,,-- --- ---- --- ------ ----- ------- ---- -- --- ------- --<br>------- ---------- ------ -- ----- -- ----- to ---- ------<br>--- ----- --- --- ------ -------- ----- --- ------ ----- --<br>----- ----- ---------- --- --- ------ ------ ---- -- ------<br>------- --- ------ ----- --- ---- ------- -- ---- --- --<br>------- ------,267701,267698.2,267234.104,267243,267250.765,267717.706,,19,to
screen,html.Screen,1_1_1_1_20,2022-04-29T15:39:43.356Z,,,,,,,,,,,,,,,,54,,,,,,,,,,,,,,622.3940000000293,,response,,,,100,,,,,,,Space,keypress(Space),,,,,,,,-- --- ---- --- ------ ----- ------- ---- -- --- ------- --<br>------- ---------- ------ -- ----- -- ----- -- save ------<br>--- ----- --- --- ------ -------- ----- --- ------ ----- --<br>----- ----- ---------- --- --- ------ ------ ---- -- ------<br>------- --- ------ ----- --- ---- ------- -- ---- --- --<br>------- ------,268386.7,268340.10000000003,267701.045,267701.4,267717.706,268401.037,,20,save
screen,html.Screen,1_1_1_1_21,2022-04-29T15:39:43.852Z,,,,,,,,,,,,,,,,54,,,,,,,,,,,,,,476.66300000000047,,response,,,,100,,,,,,,Space,keypress(Space),,,,,,,,"-- --- ---- --- ------ ----- ------- ---- -- --- ------- --<br>------- ---------- ------ -- ----- -- ----- -- ---- money,<br>--- ----- --- --- ------ -------- ----- --- ------ ----- --<br>----- ----- ---------- --- --- ------ ------ ---- -- ------<br>------- --- ------ ----- --- ---- ------- -- ---- --- --<br>------- ------",268881.9,268877.7,268384.376,268387.5,268401.037,268884.538,,21,"money,"
screen,html.Screen,1_1_1_1_22,2022-04-29T15:39:44.464Z,,,,,,,,,,,,,,,,54,,,,,,,,,,,,,,556.4619999999995,,response,,,,100,,,,,,,Space,keypress(Space),,,,,,,,-- --- ---- --- ------ ----- ------- ---- -- --- ------- --<br>------- ---------- ------ -- ----- -- ----- -- ---- ------<br>the ----- --- --- ------ -------- ----- --- ------ ----- --<br>----- ----- ---------- --- --- ------ ------ ---- -- ------<br>------- --- ------ ----- --- ---- ------- -- ---- --- --<br>------- ------,269494.7,269441,268867.877,268882.10000000003,268884.538,269501.25,,22,the
screen,html.Screen,1_1_1_1_23,2022-04-29T15:39:44.937Z,,,,,,,,,,,,,,,,54,,,,,,,,,,,,,,462.3500000000349,,response,,,,100,,,,,,,Space,keypress(Space),,,,,,,,-- --- ---- --- ------ ----- ------- ---- -- --- ------- --<br>------- ---------- ------ -- ----- -- ----- -- ---- ------<br>--- state --- --- ------ -------- ----- --- ------ ----- --<br>----- ----- ---------- --- --- ------ ------ ---- -- ------<br>------- --- ------ ----- --- ---- ------- -- ---- --- --<br>------- ------,269967.60000000003,269963.60000000003,269484.589,269496.80000000005,269501.25,269984.743,,23,state
screen,html.Screen,1_1_1_1_24,2022-04-29T15:39:45.501Z,,,,,,,,,,,,,,,,54,,,,,,,,,,,,,,476.9569999999949,,response,,,,100,,,,,,,Space,keypress(Space),,,,,,,,-- --- ---- --- ------ ----- ------- ---- -- --- ------- --<br>------- ---------- ------ -- ----- -- ----- -- ---- ------<br>--- ----- cut --- ------ -------- ----- --- ------ ----- --<br>----- ----- ---------- --- --- ------ ------ ---- -- ------<br>------- --- ------ ----- --- ---- ------- -- ---- --- --<br>------- ------,270531.5,270461.7,269968.082,269969.4,269984.743,270534.792,,24,cut
screen,html.Screen,1_1_1_1_25,2022-04-29T15:39:45.824Z,,,,,,,,,,,,,,,,54,,,,,,,,,,,,,,314.60800000000745,,response,,,,100,,,,,,,Space,keypress(Space),,,,,,,,-- --- ---- --- ------ ----- ------- ---- -- --- ------- --<br>------- ---------- ------ -- ----- -- ----- -- ---- ------<br>--- ----- --- the ------ -------- ----- --- ------ ----- --<br>----- ----- ---------- --- --- ------ ------ ---- -- ------<br>------- --- ------ ----- --- ---- ------- -- ---- --- --<br>------- ------,270854.10000000003,270849.4,270518.131,270531.80000000005,270534.792,270868.287,,25,the
screen,html.Screen,1_1_1_1_26,2022-04-29T15:39:46.596Z,,,,,,,,,,,,,,,,54,,,,,,,,,,,,,,673.8130000000237,,response,,,,100,,,,,,,Space,keypress(Space),,,,,,,,-- --- ---- --- ------ ----- ------- ---- -- --- ------- --<br>------- ---------- ------ -- ----- -- ----- -- ---- ------<br>--- ----- --- --- bonds' -------- ----- --- ------ ----- --<br>----- ----- ---------- --- --- ------ ------ ---- -- ------<br>------- --- ------ ----- --- ---- ------- -- ---- --- --<br>------- ------,271626.60000000003,271542.10000000003,270851.626,270854.80000000005,270868.287,271634.861,,26,bonds'
screen,html.Screen,1_1_1_1_27,2022-04-29T15:39:47.042Z,,,,,,,,,,,,,,,,54,,,,,,,,,,,,,,434.53900000004796,,response,,,,100,,,,,,,Space,keypress(Space),,,,,,,,-- --- ---- --- ------ ----- ------- ---- -- --- ------- --<br>------- ---------- ------ -- ----- -- ----- -- ---- ------<br>--- ----- --- --- ------ interest ----- --- ------ ----- --<br>----- ----- ---------- --- --- ------ ------ ---- -- ------<br>------- --- ------ ----- --- ---- ------- -- ---- --- --<br>------- ------,272072.2,272069.4,271618.2,271626.9,271634.861,272085.083,,27,interest
screen,html.Screen,1_1_1_1_28,2022-04-29T15:39:47.876Z,,,,,,,,,,,,,,,,54,,,,,,,,,,,,,,819.1170000000275,,response,,,,100,,,,,,,Space,keypress(Space),,,,,,,,-- --- ---- --- ------ ----- ------- ---- -- --- ------- --<br>------- ---------- ------ -- ----- -- ----- -- ---- ------<br>--- ----- --- --- ------ -------- rate. --- ------ ----- --<br>----- ----- ---------- --- --- ------ ------ ---- -- ------<br>------- --- ------ ----- --- ---- ------- -- ---- --- --<br>------- ------,272906.30000000005,272904.2,272068.422,272072.5,272085.083,273018.32,,28,rate.
screen,html.Screen,1_1_1_1_29,2022-04-29T15:39:48.549Z,,,,,,,,,,,,,,,,54,,,,,,,,,,,,,,555.4800000000396,,response,,,,100,,,,,,,Space,keypress(Space),,,,,,,,-- --- ---- --- ------ ----- ------- ---- -- --- ------- --<br>------- ---------- ------ -- ----- -- ----- -- ---- ------<br>--- ----- --- --- ------ -------- ----- The ------ ----- --<br>----- ----- ---------- --- --- ------ ------ ---- -- ------<br>------- --- ------ ----- --- ---- ------- -- ---- --- --<br>------- ------,273579.60000000003,273573.80000000005,272901.693,272906.60000000003,273018.32,273585.311,,29,The
screen,html.Screen,1_1_1_1_30,2022-04-29T15:39:48.954Z,,,,,,,,,,,,,,,,54,,,,,,,,,,,,,,395.8890000000247,,response,,,,100,,,,,,,Space,keypress(Space),,,,,,,,-- --- ---- --- ------ ----- ------- ---- -- --- ------- --<br>------- ---------- ------ -- ----- -- ----- -- ---- ------<br>--- ----- --- --- ------ -------- ----- --- market ----- --<br>----- ----- ---------- --- --- ------ ------ ---- -- ------<br>------- --- ------ ----- --- ---- ------- -- ---- --- --<br>------- ------,273984.5,273981.2,273568.65,273580,273585.311,274002.086,,30,market
screen,html.Screen,1_1_1_1_31,2022-04-29T15:39:49.387Z,,,,,,,,,,,,,,,,54,,,,,,,,,,,,,,413.0140000000247,,response,,,,100,,,,,,,Space,keypress(Space),,,,,,,,-- --- ---- --- ------ ----- ------- ---- -- --- ------- --<br>------- ---------- ------ -- ----- -- ----- -- ---- ------<br>--- ----- --- --- ------ -------- ----- --- ------ value --<br>----- ----- ---------- --- --- ------ ------ ---- -- ------<br>------- --- ------ ----- --- ---- ------- -- ---- --- --<br>------- ------,274417.80000000005,274415.10000000003,273985.425,273984.80000000005,274002.086,274435.482,,31,value
screen,html.Screen,1_1_1_1_32,2022-04-29T15:39:49.729Z,,,,,,,,,,,,,,,,54,,,,,,,,,,,,,,298.01799999998184,,response,,,,100,,,,,,,Space,keypress(Space),,,,,,,,-- --- ---- --- ------ ----- ------- ---- -- --- ------- --<br>------- ---------- ------ -- ----- -- ----- -- ---- ------<br>--- ----- --- --- ------ -------- ----- --- ------ ----- of<br>----- ----- ---------- --- --- ------ ------ ---- -- ------<br>------- --- ------ ----- --- ---- ------- -- ---- --- --<br>------- ------,274759.10000000003,274733.5,274418.821,274418.10000000003,274435.482,274768.904,,32,of
screen,html.Screen,1_1_1_1_33,2022-04-29T15:39:50.058Z,,,,,,,,,,,,,,,,54,,,,,,,,,,,,,,315.3960000000661,,response,,,,100,,,,,,,Space,keypress(Space),,,,,,,,-- --- ---- --- ------ ----- ------- ---- -- --- ------- --<br>------- ---------- ------ -- ----- -- ----- -- ---- ------<br>--- ----- --- --- ------ -------- ----- --- ------ ----- --<br>these ----- ---------- --- --- ------ ------ ---- -- ------<br>------- --- ------ ----- --- ---- ------- -- ---- --- --<br>------- ------,275088.10000000003,275084.30000000005,274752.243,274759.4,274768.904,275102.308,,33,these
screen,html.Screen,1_1_1_1_34,2022-04-29T15:39:50.410Z,,,,,,,,,,,,,,,,54,,,,,,,,,,,,,,335.5920000000042,,response,,,,100,,,,,,,Space,keypress(Space),,,,,,,,-- --- ---- --- ------ ----- ------- ---- -- --- ------- --<br>------- ---------- ------ -- ----- -- ----- -- ---- ------<br>--- ----- --- --- ------ -------- ----- --- ------ ----- --<br>----- bonds ---------- --- --- ------ ------ ---- -- ------<br>------- --- ------ ----- --- ---- ------- -- ---- --- --<br>------- ------,275440,275437.9,275085.647,275088.9,275102.308,275452.353,,34,bonds
screen,html.Screen,1_1_1_1_35,2022-04-29T15:39:51.357Z,,,,,,,,,,,,,,,,54,,,,,,,,,,,,,,709.1469999999972,,response,,,,100,,,,,,,Space,keypress(Space),,,,,,,,"-- --- ---- --- ------ ----- ------- ---- -- --- ------- --<br>------- ---------- ------ -- ----- -- ----- -- ---- ------<br>--- ----- --- --- ------ -------- ----- --- ------ ----- --<br>----- ----- plummeted, --- --- ------ ------ ---- -- ------<br>------- --- ------ ----- --- ---- ------- -- ---- --- --<br>------- ------",276387.4,276161.5,275435.692,275440.30000000005,275452.353,276402.207,,35,"plummeted,"
screen,html.Screen,1_1_1_1_36,2022-04-29T15:39:51.694Z,,,,,,,,,,,,,,,,54,,,,,,,,,,,,,,319.89300000004005,,response,,,,100,,,,,,,Space,keypress(Space),,,,,,,,-- --- ---- --- ------ ----- ------- ---- -- --- ------- --<br>------- ---------- ------ -- ----- -- ----- -- ---- ------<br>--- ----- --- --- ------ -------- ----- --- ------ ----- --<br>----- ----- ---------- and --- ------ ------ ---- -- ------<br>------- --- ------ ----- --- ---- ------- -- ---- --- --<br>------- ------,276724.4,276722.10000000003,276385.546,276387.60000000003,276402.207,276735.905,,36,and
screen,html.Screen,1_1_1_1_37,2022-04-29T15:39:52.168Z,,,,,,,,,,,,,,,,54,,,,,,,,,,,,,,457.695000000007,,response,,,,100,,,,,,,Space,keypress(Space),,,,,,,,-- --- ---- --- ------ ----- ------- ---- -- --- ------- --<br>------- ---------- ------ -- ----- -- ----- -- ---- ------<br>--- ----- --- --- ------ -------- ----- --- ------ ----- --<br>----- ----- ---------- --- the ------ ------ ---- -- ------<br>------- --- ------ ----- --- ---- ------- -- ---- --- --<br>------- ------,277197.9,277193.60000000003,276719.244,276724.60000000003,276735.905,277202.63,,37,the
screen,html.Screen,1_1_1_1_38,2022-04-29T15:39:52.660Z,,,,,,,,,,,,,,,,54,,,,,,,,,,,,,,482.97000000003027,,response,,,,100,,,,,,,Space,keypress(Space),,,,,,,,-- --- ---- --- ------ ----- ------- ---- -- --- ------- --<br>------- ---------- ------ -- ----- -- ----- -- ---- ------<br>--- ----- --- --- ------ -------- ----- --- ------ ----- --<br>----- ----- ---------- --- --- market ------ ---- -- ------<br>------- --- ------ ----- --- ---- ------- -- ---- --- --<br>------- ------,277690.60000000003,277685.60000000003,277185.969,277198.2,277202.63,277702.647,,38,market
screen,html.Screen,1_1_1_1_39,2022-04-29T15:39:53.397Z,,,,,,,,,,,,,,,,54,,,,,,,,,,,,,,671.0530000000144,,response,,,,100,,,,,,,Space,keypress(Space),,,,,,,,-- --- ---- --- ------ ----- ------- ---- -- --- ------- --<br>------- ---------- ------ -- ----- -- ----- -- ---- ------<br>--- ----- --- --- ------ -------- ----- --- ------ ----- --<br>----- ----- ---------- --- --- ------ became ---- -- ------<br>------- --- ------ ----- --- ---- ------- -- ---- --- --<br>------- ------,278427.10000000003,278373.7,277685.986,277690.9,277702.647,278435.98,,39,became
screen,html.Screen,1_1_1_1_40,2022-04-29T15:39:53.886Z,,,,,,,,,,,,,,,,54,,,,,,,,,,,,,,476.9200000000419,,response,,,,100,,,,,,,Space,keypress(Space),,,,,,,,-- --- ---- --- ------ ----- ------- ---- -- --- ------- --<br>------- ---------- ------ -- ----- -- ----- -- ---- ------<br>--- ----- --- --- ------ -------- ----- --- ------ ----- --<br>----- ----- ---------- --- --- ------ ------ wary -- ------<br>------- --- ------ ----- --- ---- ------- -- ---- --- --<br>------- ------,278916,278912.9,278419.319,278427.5,278435.98,278919.518,,40,wary
screen,html.Screen,1_1_1_1_41,2022-04-29T15:39:54.303Z,,,,,,,,,,,,,,,,54,,,,,,,,,,,,,,411.38200000004144,,response,,,,100,,,,,,,Space,keypress(Space),,,,,,,,-- --- ---- --- ------ ----- ------- ---- -- --- ------- --<br>------- ---------- ------ -- ----- -- ----- -- ---- ------<br>--- ----- --- --- ------ -------- ----- --- ------ ----- --<br>----- ----- ---------- --- --- ------ ------ ---- of ------<br>------- --- ------ ----- --- ---- ------- -- ---- --- --<br>------- ------,279332.9,279330.9,278902.857,278916.2,278919.518,279336.281,,41,of
screen,html.Screen,1_1_1_1_42,2022-04-29T15:39:55.901Z,,,,,,,,,,,,,,,,54,,,,,,,,,,,,,,414.71899999998277,,response,,,,100,,,,,,,Space,keypress(Space),,,,,,,,-- --- ---- --- ------ ----- ------- ---- -- --- ------- --<br>------- ---------- ------ -- ----- -- ----- -- ---- ------<br>--- ----- --- --- ------ -------- ----- --- ------ ----- --<br>----- ----- ---------- --- --- ------ ------ ---- -- French<br>------- --- ------ ----- --- ---- ------- -- ---- --- --<br>------- ------,280931.5,279751,279319.62,279333.2,279336.281,280935.947,,42,French
screen,html.Screen,1_1_1_1_43,2022-04-29T15:39:57.019Z,,,,,,,,,,,,,,,,54,,,,,,,,,,,,,,1105.753000000026,,response,,,,100,,,,,,,Space,keypress(Space),,,,,,,,-- --- ---- --- ------ ----- ------- ---- -- --- ------- --<br>------- ---------- ------ -- ----- -- ----- -- ---- ------<br>--- ----- --- --- ------ -------- ----- --- ------ ----- --<br>----- ----- ---------- --- --- ------ ------ ---- -- ------<br>credit. --- ------ ----- --- ---- ------- -- ---- --- --<br>------- ------,282049.7,282041.7,280919.286,280931.80000000005,280935.947,282053.071,,43,credit.
screen,html.Screen,1_1_1_1_44,2022-04-29T15:39:57.766Z,,,,,,,,,,,,,,,,54,,,,,,,,,,,,,,741.329000000027,,response,,,,100,,,,,,,Space,keypress(Space),,,,,,,,-- --- ---- --- ------ ----- ------- ---- -- --- ------- --<br>------- ---------- ------ -- ----- -- ----- -- ---- ------<br>--- ----- --- --- ------ -------- ----- --- ------ ----- --<br>----- ----- ---------- --- --- ------ ------ ---- -- ------<br>------- The ------ ----- --- ---- ------- -- ---- --- --<br>------- ------,282796.7,282794.4,282036.41,282049.9,282053.071,282969.965,,44,The
screen,html.Screen,1_1_1_1_45,2022-04-29T15:39:58.475Z,,,,,,,,,,,,,,,,54,,,,,,,,,,,,,,496.0349999999744,,response,,,,100,,,,,,,Space,keypress(Space),,,,,,,,-- --- ---- --- ------ ----- ------- ---- -- --- ------- --<br>------- ---------- ------ -- ----- -- ----- -- ---- ------<br>--- ----- --- --- ------ -------- ----- --- ------ ----- --<br>----- ----- ---------- --- --- ------ ------ ---- -- ------<br>------- --- French ----- --- ---- ------- -- ---- --- --<br>------- ------,283505.60000000003,283466,282836.677,282835.4,282969.965,283520.241,,45,French
screen,html.Screen,1_1_1_1_46,2022-04-29T15:39:59.035Z,,,,,,,,,,,,,,,,54,,,,,,,,,,,,,,542.4590000000317,,response,,,,100,,,,,,,Space,keypress(Space),,,,,,,,-- --- ---- --- ------ ----- ------- ---- -- --- ------- --<br>------- ---------- ------ -- ----- -- ----- -- ---- ------<br>--- ----- --- --- ------ -------- ----- --- ------ ----- --<br>----- ----- ---------- --- --- ------ ------ ---- -- ------<br>------- --- ------ state --- ---- ------- -- ---- --- --<br>------- ------,284065.80000000005,284062.7,283503.58,283506.9,283520.241,284070.321,,46,state
screen,html.Screen,1_1_1_1_47,2022-04-29T15:39:59.566Z,,,,,,,,,,,,,,,,54,,,,,,,,,,,,,,523.1790000000037,,response,,,,100,,,,,,,Space,keypress(Space),,,,,,,,-- --- ---- --- ------ ----- ------- ---- -- --- ------- --<br>------- ---------- ------ -- ----- -- ----- -- ---- ------<br>--- ----- --- --- ------ -------- ----- --- ------ ----- --<br>----- ----- ---------- --- --- ------ ------ ---- -- ------<br>------- --- ------ ----- was ---- ------- -- ---- --- --<br>------- ------,284596.60000000003,284593.5,284053.66,284066.10000000003,284070.321,284603.749,,47,was
screen,html.Screen,1_1_1_1_48,2022-04-29T15:40:00.238Z,,,,,,,,,,,,,,,,54,,,,,,,,,,,,,,513.1510000000126,,response,,,,100,,,,,,,Space,keypress(Space),,,,,,,,-- --- ---- --- ------ ----- ------- ---- -- --- ------- --<br>------- ---------- ------ -- ----- -- ----- -- ---- ------<br>--- ----- --- --- ------ -------- ----- --- ------ ----- --<br>----- ----- ---------- --- --- ------ ------ ---- -- ------<br>------- --- ------ ----- --- left ------- -- ---- --- --<br>------- ------,285268.60000000003,285116.9,284587.088,284597.30000000005,284603.749,285270.454,,48,left
screen,html.Screen,1_1_1_1_49,2022-04-29T15:40:00.730Z,,,,,,,,,,,,,,,,54,,,,,,,,,,,,,,483.84600000001956,,response,,,,100,,,,,,,Space,keypress(Space),,,,,,,,-- --- ---- --- ------ ----- ------- ---- -- --- ------- --<br>------- ---------- ------ -- ----- -- ----- -- ---- ------<br>--- ----- --- --- ------ -------- ----- --- ------ ----- --<br>----- ----- ---------- --- --- ------ ------ ---- -- ------<br>------- --- ------ ----- --- ---- without -- ---- --- --<br>------- ------,285760.5,285754.30000000005,285253.793,285268.9,285270.454,285770.613,,49,without
screen,html.Screen,1_1_1_1_50,2022-04-29T15:40:01.484Z,,,,,,,,,,,,,,,,54,,,,,,,,,,,,,,452.2870000000112,,response,,,,100,,,,,,,Space,keypress(Space),,,,,,,,-- --- ---- --- ------ ----- ------- ---- -- --- ------- --<br>------- ---------- ------ -- ----- -- ----- -- ---- ------<br>--- ----- --- --- ------ -------- ----- --- ------ ----- --<br>----- ----- ---------- --- --- ------ ------ ---- -- ------<br>------- --- ------ ----- --- ---- ------- an ---- --- --<br>------- ------,286514.7,286222.9,285753.952,285760.80000000005,285770.613,286520.611,,50,an
screen,html.Screen,1_1_1_1_51,2022-04-29T15:40:02.128Z,,,,,,,,,,,,,,,,54,,,,,,,,,,,,,,338.28900000004796,,response,,,,100,,,,,,,Space,keypress(Space),,,,,,,,-- --- ---- --- ------ ----- ------- ---- -- --- ------- --<br>------- ---------- ------ -- ----- -- ----- -- ---- ------<br>--- ----- --- --- ------ -------- ----- --- ------ ----- --<br>----- ----- ---------- --- --- ------ ------ ---- -- ------<br>------- --- ------ ----- --- ---- ------- -- easy --- --<br>------- ------,287158.4,286858.9,286503.95,286514.9,286520.611,287170.773,,51,easy
screen,html.Screen,1_1_1_1_52,2022-04-29T15:40:02.487Z,,,,,,,,,,,,,,,,54,,,,,,,,,,,,,,343.32700000004843,,response,,,,100,,,,,,,Space,keypress(Space),,,,,,,,-- --- ---- --- ------ ----- ------- ---- -- --- ------- --<br>------- ---------- ------ -- ----- -- ----- -- ---- ------<br>--- ----- --- --- ------ -------- ----- --- ------ ----- --<br>----- ----- ---------- --- --- ------ ------ ---- -- ------<br>------- --- ------ ----- --- ---- ------- -- ---- way --<br>------- ------,287517.2,287514.10000000003,287154.112,287158.60000000003,287170.773,287520.987,,52,way
screen,html.Screen,1_1_1_1_53,2022-04-29T15:40:03.132Z,,,,,,,,,,,,,,,,54,,,,,,,,,,,,,,638.3130000000237,,response,,,,100,,,,,,,Space,keypress(Space),,,,,,,,-- --- ---- --- ------ ----- ------- ---- -- --- ------- --<br>------- ---------- ------ -- ----- -- ----- -- ---- ------<br>--- ----- --- --- ------ -------- ----- --- ------ ----- --<br>----- ----- ---------- --- --- ------ ------ ---- -- ------<br>------- --- ------ ----- --- ---- ------- -- ---- --- of<br>------- ------,288162,288159.30000000005,287504.326,287517.5,287520.987,288171.02,,53,of
screen,html.Screen,1_1_1_1_54,2022-04-29T15:40:03.759Z,,,,,,,,,,,,,,,,54,,,,,,,,,,,,,,571.7800000000279,,response,,,,100,,,,,,,Space,keypress(Space),,,,,,,,-- --- ---- --- ------ ----- ------- ---- -- --- ------- --<br>------- ---------- ------ -- ----- -- ----- -- ---- ------<br>--- ----- --- --- ------ -------- ----- --- ------ ----- --<br>----- ----- ---------- --- --- ------ ------ ---- -- ------<br>------- --- ------ ----- --- ---- ------- -- ---- --- --<br>raising ------,288789,288742.80000000005,288154.359,288162.2,288171.02,288804.362,,54,raising
screen,html.Screen,1_1_1_1_55,2022-04-29T15:40:04.544Z,,,,,,,,,,,,,,,,54,,,,,,,,,,,,,,758.1379999999772,,response,,,,100,,,,,,,Space,keypress(Space),,,,,,,,-- --- ---- --- ------ ----- ------- ---- -- --- ------- --<br>------- ---------- ------ -- ----- -- ----- -- ---- ------<br>--- ----- --- --- ------ -------- ----- --- ------ ----- --<br>----- ----- ---------- --- --- ------ ------ ---- -- ------<br>------- --- ------ ----- --- ---- ------- -- ---- --- --<br>------- money.,289574.30000000005,289562.5,288787.701,288789.4,288804.362,290104.254,,55,money.
Item 100,flow.Loop,1_1_1_1,2022-04-29T15:40:04.545Z,,,,,,,,,,,,,,,,,,,,,,,,,,,,,,36830.34700000001,,completion,,,,,E,,,,,,,,,,,silence,,,,,289575.2,289562.5,252668.1,252720.4,252732.153,290104.254,,,
Question 1,html.Screen,1_1_1_2,2022-04-29T15:40:15.151Z,,,,,,,,,,,,,,,,,,,,,,,,,,,true,TRUE,,9570.745999999985,,response,,,,100,E,,,,,,TRUE,click #choice-1,,,,silence,,,,,300181.2,299675,289621.085,289575.60000000003,290104.254,300422.94,,,
Question 2,html.Screen,1_1_1_3,2022-04-29T15:40:19.797Z,,,,,,,,,,,,,,,,,,,,,,,,,,,true,FALSE,,4330.559999999998,,response,,,,100,E,,,,,,FALSE,click #choice-2,,,,silence,,,,,304827.30000000005,304753.5,300023.076,300190,300422.94,304940.326,,,
Item 100,flow.Sequence,1_1_1,2022-04-29T15:40:19.810Z,,,,,,,,,,,,,,,,,,,,,,,,,,,,,,62090.02299999999,,completion,,,,,,,,,,,,,,,,,,,,,304840.5,304753.5,242296.935,242324.19999999998,242663.477,304940.326,,,
End of Practice,html.Page,1_1_2,2022-04-29T15:40:26.317Z,,,,,,,,,,,,,,,,,,,,,,,,,,,,,,6402.974000000046,,form submission,,,,,,,,,,,,,,,,,,,,,311346.9,311343.30000000005,304807.038,304842.60000000003,304940.326,311424.415,,,
Practice,flow.Sequence,1_1,2022-04-29T15:40:26.319Z,,,,,,,,,,,,,,,,,,,,,,,,,,,,,,133624.75300000006,,completion,,,,,,,,,,,,,,,,,,,,,311348.9,311343.30000000005,177285.361,177418.19999999998,177718.547,311424.415,,,
Trap_instruction,html.Page,1_2_0,2022-04-29T15:40:31.942Z,,,,,,,,,,,,,,,,,,,,,,,,,,,,,,5534.285000000033,,form submission,,,,,,,,,,,,,,,,,,,,,316972,316958.7,311307.788,311349.60000000003,311424.415,317908.61,,,
trap_trial,html.Screen,1_2_1,2022-04-29T15:40:39.120Z,,,,,,,,,,,,,,,,,,,,,,,,,,,true,1,,5807.490000000049,,response,,,,,,,,,,,1,click #choice-1,,,,,,,,,324150.5,323716.10000000003,316858.967,316976.7,317908.61,324874.35,,,
end of trap trial,html.Page,1_2_2,2022-04-29T15:40:43.043Z,,,,,,,,,,,,,,,,,,,,,,,,,,,,,,3173.95000000007,,form submission,,,,,,,,,,,,,,,,,,,,,328073.2,328048.30000000005,324057.961,324160.9,324874.35,328427.152,,,
Trap 1,flow.Sequence,1_2,2022-04-29T15:40:43.046Z,,,,,,,,,,,,,,,,,,,,,,,,,,,,,,16623.885000000068,,completion,,,,,,,,,,,,,,,,,,,,,328075.9,328048.30000000005,311307.788,311349.4,311424.415,328427.152,,,
Standby,html.Page,1_3_0,2022-04-29T15:40:51.425Z,,,,,,,,,,,,,,,,,,,,,,,,,,,,,,8582.956999999995,,timeout,,,,,,,,,,,,,,,,,,,,,336455.5,336410.313,327960.644,328076.4,328427.152,337010.109,,,
Holding screen,html.Screen,1_3_1_0_0,2022-04-29T15:40:58.991Z,,,,,,,,,,,,,,,,,,,,,,,,,,,,,,7269.908999999985,,timeout,,,,,,,,,,,,,,,,,,,,,344021.7,343996.781,336410.313,336461.10000000003,337010.109,344280.018,,,
screen,html.Screen,1_3_1_0_1_0,2022-04-29T15:41:02.197Z,,,,,,,,,,,,,,,,51,,,,,,,,,,,,,,1678.082000000053,,response,,,,13,E,,,,,,Space,keypress(Space),,,,lyrical,,,,American -------- --- --- ---- --- --- ------ -- --------<br>---- --------- --- ------- ------------ ---------- ---------<br>--- ---------- ------- ---------- ------- -- -------- ----<br>---- --- ------ ----- ------ -- ---- --- ----- -- - -------<br>-------- -- --- --- -- ----- ----------- ----- -----------<br>---- --- ---------- --- ---- --- -- ----------,347227.4,345958.10000000003,343996.781,344029,344280.018,348079.284,,0,American
screen,html.Screen,1_3_1_0_1_1,2022-04-29T15:41:04.206Z,,,,,,,,,,,,,,,,51,,,,,,,,,,,,,,626.8160000000498,,response,,,,13,E,,,,,,Space,keypress(Space),,,,lyrical,,,,-------- industry --- --- ---- --- --- ------ -- --------<br>---- --------- --- ------- ------------ ---------- ---------<br>--- ---------- ------- ---------- ------- -- -------- ----<br>---- --- ------ ----- ------ -- ---- --- ----- -- - -------<br>-------- -- --- --- -- ----- ----------- ----- -----------<br>---- --- ---------- --- ---- --- -- ----------,349236.60000000003,348706.10000000003,347162.929,347241.5,348079.284,349247.292,,1,industry
screen,html.Screen,1_3_1_0_1_2,2022-04-29T15:41:04.784Z,,,,,,,,,,,,,,,,51,,,,,,,,,,,,,,564.5080000000307,,response,,,,13,E,,,,,,Space,keypress(Space),,,,lyrical,,,,-------- -------- may --- ---- --- --- ------ -- --------<br>---- --------- --- ------- ------------ ---------- ---------<br>--- ---------- ------- ---------- ------- -- -------- ----<br>---- --- ------ ----- ------ -- ---- --- ----- -- - -------<br>-------- -- --- --- -- ----- ----------- ----- -----------<br>---- --- ---------- --- ---- --- -- ----------,349814,349811.80000000005,349230.631,349236.9,349247.292,349831.001,,2,may
screen,html.Screen,1_3_1_0_1_3,2022-04-29T15:41:05.553Z,,,,,,,,,,,,,,,,51,,,,,,,,,,,,,,749.0990000000456,,response,,,,13,E,,,,,,Space,keypress(Space),,,,lyrical,,,,-------- -------- --- not ---- --- --- ------ -- --------<br>---- --------- --- ------- ------------ ---------- ---------<br>--- ---------- ------- ---------- ------- -- -------- ----<br>---- --- ------ ----- ------ -- ---- --- ----- -- - -------<br>-------- -- --- --- -- ----- ----------- ----- -----------<br>---- --- ---------- --- ---- --- -- ----------,350583.5,350580.10000000003,349814.34,349814.30000000005,349831.001,350597.649,,3,not
screen,html.Screen,1_3_1_0_1_4,2022-04-29T15:41:06.138Z,,,,,,,,,,,,,,,,51,,,,,,,,,,,,,,567.9510000000591,,response,,,,13,E,,,,,,Space,keypress(Space),,,,lyrical,,,,-------- -------- --- --- know --- --- ------ -- --------<br>---- --------- --- ------- ------------ ---------- ---------<br>--- ---------- ------- ---------- ------- -- -------- ----<br>---- --- ------ ----- ------ -- ---- --- ----- -- - -------<br>-------- -- --- --- -- ----- ----------- ----- -----------<br>---- --- ---------- --- ---- --- -- ----------,351168,351165.60000000003,350580.988,350588.10000000003,350597.649,351181.196,,4,know
screen,html.Screen,1_3_1_0_1_5,2022-04-29T15:41:06.691Z,,,,,,,,,,,,,,,,51,,,,,,,,,,,,,,538.6040000000503,,response,,,,13,E,,,,,,Space,keypress(Space),,,,lyrical,,,,"-------- -------- --- --- ---- it, --- ------ -- --------<br>---- --------- --- ------- ------------ ---------- ---------<br>--- ---------- ------- ---------- ------- -- -------- ----<br>---- --- ------ ----- ------ -- ---- --- ----- -- - -------<br>-------- -- --- --- -- ----- ----------- ----- -----------<br>---- --- ---------- --- ---- --- -- ----------",351721.60000000003,351719.80000000005,351164.535,351168.2,351181.196,351731.3,,5,"it,"
screen,html.Screen,1_3_1_0_1_6,2022-04-29T15:41:07.437Z,,,,,,,,,,,,,,,,51,,,,,,,,,,,,,,732.6000000000349,,response,,,,13,E,,,,,,Space,keypress(Space),,,,lyrical,,,,-------- -------- --- --- ---- --- but ------ -- --------<br>---- --------- --- ------- ------------ ---------- ---------<br>--- ---------- ------- ---------- ------- -- -------- ----<br>---- --- ------ ----- ------ -- ---- --- ----- -- - -------<br>-------- -- --- --- -- ----- ----------- ----- -----------<br>---- --- ---------- --- ---- --- -- ----------,352467.7,352463.9,351714.639,351722.30000000005,351731.3,352547.966,,6,but
screen,html.Screen,1_3_1_0_1_7,2022-04-29T15:41:08.231Z,,,,,,,,,,,,,,,,51,,,,,,,,,,,,,,710.5339999999851,,response,,,,13,E,,,,,,Space,keypress(Space),,,,lyrical,,,,-------- -------- --- --- ---- --- --- debate -- --------<br>---- --------- --- ------- ------------ ---------- ---------<br>--- ---------- ------- ---------- ------- -- -------- ----<br>---- --- ------ ----- ------ -- ---- --- ----- -- - -------<br>-------- -- --- --- -- ----- ----------- ----- -----------<br>---- --- ---------- --- ---- --- -- ----------,353261.2,353258.5,352531.305,352534.7,352547.966,353264.808,,7,debate
screen,html.Screen,1_3_1_0_1_8,2022-04-29T15:41:08.841Z,,,,,,,,,,,,,,,,51,,,,,,,,,,,,,,604.1919999999809,,response,,,,13,E,,,,,,Space,keypress(Space),,,,lyrical,,,,-------- -------- --- --- ---- --- --- ------ in --------<br>---- --------- --- ------- ------------ ---------- ---------<br>--- ---------- ------- ---------- ------- -- -------- ----<br>---- --- ------ ----- ------ -- ---- --- ----- -- - -------<br>-------- -- --- --- -- ----- ----------- ----- -----------<br>---- --- ---------- --- ---- --- -- ----------,353871.2,353869,353248.147,353261.4,353264.808,353948.268,,8,in
screen,html.Screen,1_3_1_0_1_9,2022-04-29T15:41:09.709Z,,,,,,,,,,,,,,,,51,,,,,,,,,,,,,,787.8320000000531,,response,,,,13,E,,,,,,Space,keypress(Space),,,,lyrical,,,,-------- -------- --- --- ---- --- --- ------ -- Congress<br>---- --------- --- ------- ------------ ---------- ---------<br>--- ---------- ------- ---------- ------- -- -------- ----<br>---- --- ------ ----- ------ -- ---- --- ----- -- - -------<br>-------- -- --- --- -- ----- ----------- ----- -----------<br>---- --- ---------- --- ---- --- -- ----------,354738.9,354736.10000000003,353864.963,353871.60000000003,353948.268,354748.324,,9,Congress
screen,html.Screen,1_3_1_0_1_10,2022-04-29T15:41:11.033Z,,,,,,,,,,,,,,,,51,,,,,,,,,,,,,,1311.6759999999776,,response,,,,13,E,,,,,,Space,keypress(Space),,,,lyrical,,,,-------- -------- --- --- ---- --- --- ------ -- --------<br>over --------- --- ------- ------------ ---------- ---------<br>--- ---------- ------- ---------- ------- -- -------- ----<br>---- --- ------ ----- ------ -- ---- --- ----- -- - -------<br>-------- -- --- --- -- ----- ----------- ----- -----------<br>---- --- ---------- --- ---- --- -- ----------,356063.7,356060,354731.663,354741,354748.324,356081.609,,10,over
screen,html.Screen,1_3_1_0_1_11,2022-04-29T15:41:11.975Z,,,,,,,,,,,,,,,,51,,,,,,,,,,,,,,920.2910000000265,,response,,,,13,E,,,,,,Space,keypress(Space),,,,lyrical,,,,-------- -------- --- --- ---- --- --- ------ -- --------<br>---- reforming --- ------- ------------ ---------- ---------<br>--- ---------- ------- ---------- ------- -- -------- ----<br>---- --- ------ ----- ------ -- ---- --- ----- -- - -------<br>-------- -- --- --- -- ----- ----------- ----- -----------<br>---- --- ---------- --- ---- --- -- ----------,357005.30000000005,357001.9,356064.948,356064,356081.609,357015.297,,11,reforming
screen,html.Screen,1_3_1_0_1_12,2022-04-29T15:41:12.930Z,,,,,,,,,,,,,,,,51,,,,,,,,,,,,,,683.7029999999795,,response,,,,13,E,,,,,,Space,keypress(Space),,,,lyrical,,,,-------- -------- --- --- ---- --- --- ------ -- --------<br>---- --------- the ------- ------------ ---------- ---------<br>--- ---------- ------- ---------- ------- -- -------- ----<br>---- --- ------ ----- ------ -- ---- --- ----- -- - -------<br>-------- -- --- --- -- ----- ----------- ----- -----------<br>---- --- ---------- --- ---- --- -- ----------,357960.10000000003,357699,356998.636,357005.5,357015.297,357965.427,,12,the
screen,html.Screen,1_3_1_0_1_13,2022-04-29T15:41:13.496Z,,,,,,,,,,,,,,,,51,,,,,,,,,,,,,,559.1730000000098,,response,,,,13,E,,,,,,Space,keypress(Space),,,,lyrical,,,,-------- -------- --- --- ---- --- --- ------ -- --------<br>---- --------- --- federal ------------ ---------- ---------<br>--- ---------- ------- ---------- ------- -- -------- ----<br>---- --- ------ ----- ------ -- ---- --- ----- -- - -------<br>-------- -- --- --- -- ----- ----------- ----- -----------<br>---- --- ---------- --- ---- --- -- ----------,358526.7,358524.60000000003,357948.766,357960.4,357965.427,358532.406,,13,federal
screen,html.Screen,1_3_1_0_1_14,2022-04-29T15:41:14.211Z,,,,,,,,,,,,,,,,51,,,,,,,,,,,,,,706.3940000000293,,response,,,,13,E,,,,,,Space,keypress(Space),,,,lyrical,,,,-------- -------- --- --- ---- --- --- ------ -- --------<br>---- --------- --- ------- government's ---------- ---------<br>--- ---------- ------- ---------- ------- -- -------- ----<br>---- --- ------ ----- ------ -- ---- --- ----- -- - -------<br>-------- -- --- --- -- ----- ----------- ----- -----------<br>---- --- ---------- --- ---- --- -- ----------,359241.80000000005,359238.80000000005,358515.745,358527.5,358532.406,359249.103,,14,government's
screen,html.Screen,1_3_1_0_1_15,2022-04-29T15:41:15.235Z,,,,,,,,,,,,,,,,51,,,,,,,,,,,,,,1013.4970000000321,,response,,,,13,E,,,,,,Space,keypress(Space),,,,lyrical,,,,-------- -------- --- --- ---- --- --- ------ -- --------<br>---- --------- --- ------- ------------ regulatory ---------<br>--- ---------- ------- ---------- ------- -- -------- ----<br>---- --- ------ ----- ------ -- ---- --- ----- -- - -------<br>-------- -- --- --- -- ----- ----------- ----- -----------<br>---- --- ---------- --- ---- --- -- ----------,360265.10000000003,360262.60000000003,359232.442,359242.10000000003,359249.103,360282.447,,15,regulatory
screen,html.Screen,1_3_1_0_1_16,2022-04-29T15:41:16.042Z,,,,,,,,,,,,,,,,51,,,,,,,,,,,,,,732.353000000061,,response,,,,13,E,,,,,,Space,keypress(Space),,,,lyrical,,,,-------- -------- --- --- ---- --- --- ------ -- --------<br>---- --------- --- ------- ------------ ---------- apparatus<br>--- ---------- ------- ---------- ------- -- -------- ----<br>---- --- ------ ----- ------ -- ---- --- ----- -- - -------<br>-------- -- --- --- -- ----- ----------- ----- -----------<br>---- --- ---------- --- ---- --- -- ----------,361072.80000000005,361014.80000000005,360265.786,360265.5,360282.447,361082.695,,16,apparatus
screen,html.Screen,1_3_1_0_1_17,2022-04-29T15:41:16.620Z,,,,,,,,,,,,,,,,51,,,,,,,,,,,,,,564.304999999993,,response,,,,13,E,,,,,,Space,keypress(Space),,,,lyrical,,,,-------- -------- --- --- ---- --- --- ------ -- --------<br>---- --------- --- ------- ------------ ---------- ---------<br>may ---------- ------- ---------- ------- -- -------- ----<br>---- --- ------ ----- ------ -- ---- --- ----- -- - -------<br>-------- -- --- --- -- ----- ----------- ----- -----------<br>---- --- ---------- --- ---- --- -- ----------,361650.4,361647,361066.034,361073,361082.695,361666.225,,17,may
screen,html.Screen,1_3_1_0_1_18,2022-04-29T15:41:17.438Z,,,,,,,,,,,,,,,,51,,,,,,,,,,,,,,798.6750000000466,,response,,,,13,E,,,,,,Space,keypress(Space),,,,lyrical,,,,-------- -------- --- --- ---- --- --- ------ -- --------<br>---- --------- --- ------- ------------ ---------- ---------<br>--- profoundly ------- ---------- ------- -- -------- ----<br>---- --- ------ ----- ------ -- ---- --- ----- -- - -------<br>-------- -- --- --- -- ----- ----------- ----- -----------<br>---- --- ---------- --- ---- --- -- ----------,362468.60000000003,362464.9,361649.564,361650.7,361666.225,362482.914,,18,profoundly
screen,html.Screen,1_3_1_0_1_19,2022-04-29T15:41:18.412Z,,,,,,,,,,,,,,,,51,,,,,,,,,,,,,,643.0860000000102,,response,,,,13,E,,,,,,Space,keypress(Space),,,,lyrical,,,,-------- -------- --- --- ---- --- --- ------ -- --------<br>---- --------- --- ------- ------------ ---------- ---------<br>--- ---------- improve ---------- ------- -- -------- ----<br>---- --- ------ ----- ------ -- ---- --- ----- -- - -------<br>-------- -- --- --- -- ----- ----------- ----- -----------<br>---- --- ---------- --- ---- --- -- ----------,363442.10000000003,363126,362466.253,362470.30000000005,362482.914,363449.66,,19,improve
screen,html.Screen,1_3_1_0_1_20,2022-04-29T15:41:19.175Z,,,,,,,,,,,,,,,,51,,,,,,,,,,,,,,675.7400000000489,,response,,,,13,E,,,,,,Space,keypress(Space),,,,lyrical,,,,-------- -------- --- --- ---- --- --- ------ -- --------<br>---- --------- --- ------- ------------ ---------- ---------<br>--- ---------- ------- companies' ------- -- -------- ----<br>---- --- ------ ----- ------ -- ---- --- ----- -- - -------<br>-------- -- --- --- -- ----- ----------- ----- -----------<br>---- --- ---------- --- ---- --- -- ----------,364205.30000000005,364125.4,363432.999,363443.60000000003,363449.66,364216.579,,20,companies'
screen,html.Screen,1_3_1_0_1_21,2022-04-29T15:41:19.852Z,,,,,,,,,,,,,,,,51,,,,,,,,,,,,,,662.420999999973,,response,,,,13,E,,,,,,Space,keypress(Space),,,,lyrical,,,,-------- -------- --- --- ---- --- --- ------ -- --------<br>---- --------- --- ------- ------------ ---------- ---------<br>--- ---------- ------- ---------- ability -- -------- ----<br>---- --- ------ ----- ------ -- ---- --- ----- -- - -------<br>-------- -- --- --- -- ----- ----------- ----- -----------<br>---- --- ---------- --- ---- --- -- ----------,364882.60000000003,364879,364199.918,364205.5,364216.579,364983.35,,21,ability
screen,html.Screen,1_3_1_0_1_22,2022-04-29T15:41:20.469Z,,,,,,,,,,,,,,,,51,,,,,,,,,,,,,,498.55000000004657,,response,,,,13,E,,,,,,Space,keypress(Space),,,,lyrical,,,,-------- -------- --- --- ---- --- --- ------ -- --------<br>---- --------- --- ------- ------------ ---------- ---------<br>--- ---------- ------- ---------- ------- to -------- ----<br>---- --- ------ ----- ------ -- ---- --- ----- -- - -------<br>-------- -- --- --- -- ----- ----------- ----- -----------<br>---- --- ---------- --- ---- --- -- ----------,365499.4,365481.9,364883.384,364882.9,364983.35,365516.883,,22,to
screen,html.Screen,1_3_1_0_1_23,2022-04-29T15:41:22.460Z,,,,,,,,,,,,,,,,51,,,,,,,,,,,,,,1970.5170000000508,,response,,,,13,E,,,,,,Space,keypress(Space),,,,lyrical,,,,-------- -------- --- --- ---- --- --- ------ -- --------<br>---- --------- --- ------- ------------ ---------- ---------<br>--- ---------- ------- ---------- ------- -- survive. ----<br>---- --- ------ ----- ------ -- ---- --- ----- -- - -------<br>-------- -- --- --- -- ----- ----------- ----- -----------<br>---- --- ---------- --- ---- --- -- ----------,367490.2,367487.4,365500.222,365499.9,365516.883,367499.791,,23,survive.
screen,html.Screen,1_3_1_0_1_24,2022-04-29T15:41:23.742Z,,,,,,,,,,,,,,,,51,,,,,,,,,,,,,,992.50900000002,,response,,,,13,E,,,,,,Space,keypress(Space),,,,lyrical,,,,-------- -------- --- --- ---- --- --- ------ -- --------<br>---- --------- --- ------- ------------ ---------- ---------<br>--- ---------- ------- ---------- ------- -- -------- This<br>---- --- ------ ----- ------ -- ---- --- ----- -- - -------<br>-------- -- --- --- -- ----- ----------- ----- -----------<br>---- --- ---------- --- ---- --- -- ----------,368772.10000000003,368492.30000000005,367483.13,367490.5,367499.791,368783.719,,24,This
screen,html.Screen,1_3_1_0_1_25,2022-04-29T15:41:24.269Z,,,,,,,,,,,,,,,,51,,,,,,,,,,,,,,513.6810000000405,,response,,,,13,E,,,,,,Space,keypress(Space),,,,lyrical,,,,-------- -------- --- --- ---- --- --- ------ -- --------<br>---- --------- --- ------- ------------ ---------- ---------<br>--- ---------- ------- ---------- ------- -- -------- ----<br>week --- ------ ----- ------ -- ---- --- ----- -- - -------<br>-------- -- --- --- -- ----- ----------- ----- -----------<br>---- --- ---------- --- ---- --- -- ----------,369299.7,369297.4,368767.058,368772.60000000003,368783.719,369317.505,,25,week
screen,html.Screen,1_3_1_0_1_26,2022-04-29T15:41:25.500Z,,,,,,,,,,,,,,,,51,,,,,,,,,,,,,,719.0950000000303,,response,,,,13,E,,,,,,Space,keypress(Space),,,,lyrical,,,,-------- -------- --- --- ---- --- --- ------ -- --------<br>---- --------- --- ------- ------------ ---------- ---------<br>--- ---------- ------- ---------- ------- -- -------- ----<br>---- the ------ ----- ------ -- ---- --- ----- -- - -------<br>-------- -- --- --- -- ----- ----------- ----- -----------<br>---- --- ---------- --- ---- --- -- ----------,370530,370036.60000000003,369300.844,369301.60000000003,369317.505,370584.001,,26,the
screen,html.Screen,1_3_1_0_1_27,2022-04-29T15:41:25.927Z,,,,,,,,,,,,,,,,51,,,,,,,,,,,,,,367.899000000034,,response,,,,13,E,,,,,,Space,keypress(Space),,,,lyrical,,,,-------- -------- --- --- ---- --- --- ------ -- --------<br>---- --------- --- ------- ------------ ---------- ---------<br>--- ---------- ------- ---------- ------- -- -------- ----<br>---- --- Senate ----- ------ -- ---- --- ----- -- - -------<br>-------- -- --- --- -- ----- ----------- ----- -----------<br>---- --- ---------- --- ---- --- -- ----------,370957.30000000005,370951.9,370517.357,370530.4,370584.001,370967.846,,27,Senate
screen,html.Screen,1_3_1_0_1_28,2022-04-29T15:41:26.674Z,,,,,,,,,,,,,,,,51,,,,,,,,,,,,,,732.454000000027,,response,,,,13,E,,,,,,Space,keypress(Space),,,,lyrical,,,,-------- -------- --- --- ---- --- --- ------ -- --------<br>---- --------- --- ------- ------------ ---------- ---------<br>--- ---------- ------- ---------- ------- -- -------- ----<br>---- --- ------ seems ------ -- ---- --- ----- -- - -------<br>-------- -- --- --- -- ----- ----------- ----- -----------<br>---- --- ---------- --- ---- --- -- ----------,371704.2,371700.30000000005,370951.185,370957.60000000003,370967.846,371717.774,,28,seems
screen,html.Screen,1_3_1_0_1_29,2022-04-29T15:41:27.449Z,,,,,,,,,,,,,,,,51,,,,,,,,,,,,,,757.7260000000242,,response,,,,13,E,,,,,,Space,keypress(Space),,,,lyrical,,,,-------- -------- --- --- ---- --- --- ------ -- --------<br>---- --------- --- ------- ------------ ---------- ---------<br>--- ---------- ------- ---------- ------- -- -------- ----<br>---- --- ------ ----- poised -- ---- --- ----- -- - -------<br>-------- -- --- --- -- ----- ----------- ----- -----------<br>---- --- ---------- --- ---- --- -- ----------,372479.7,372475.5,371701.113,371705.10000000003,371717.774,372501.223,,29,poised
screen,html.Screen,1_3_1_0_1_30,2022-04-29T15:41:28.314Z,,,,,,,,,,,,,,,,51,,,,,,,,,,,,,,840.8770000000368,,response,,,,13,E,,,,,,Space,keypress(Space),,,,lyrical,,,,-------- -------- --- --- ---- --- --- ------ -- --------<br>---- --------- --- ------- ------------ ---------- ---------<br>--- ---------- ------- ---------- ------- -- -------- ----<br>---- --- ------ ----- ------ to ---- --- ----- -- - -------<br>-------- -- --- --- -- ----- ----------- ----- -----------<br>---- --- ---------- --- ---- --- -- ----------,373344.7,373342.10000000003,372484.562,372480.10000000003,372501.223,373384.648,,30,to
screen,html.Screen,1_3_1_0_1_31,2022-04-29T15:41:29.186Z,,,,,,,,,,,,,,,,51,,,,,,,,,,,,,,829.5520000000251,,response,,,,13,E,,,,,,Space,keypress(Space),,,,lyrical,,,,-------- -------- --- --- ---- --- --- ------ -- --------<br>---- --------- --- ------- ------------ ---------- ---------<br>--- ---------- ------- ---------- ------- -- -------- ----<br>---- --- ------ ----- ------ -- join --- ----- -- - -------<br>-------- -- --- --- -- ----- ----------- ----- -----------<br>---- --- ---------- --- ---- --- -- ----------,374216.7,374214.2,373334.665,373345,373384.648,374368.096,,31,join
screen,html.Screen,1_3_1_0_1_32,2022-04-29T15:41:29.898Z,,,,,,,,,,,,,,,,51,,,,,,,,,,,,,,488.00400000001537,,response,,,,13,E,,,,,,Space,keypress(Space),,,,lyrical,,,,-------- -------- --- --- ---- --- --- ------ -- --------<br>---- --------- --- ------- ------------ ---------- ---------<br>--- ---------- ------- ---------- ------- -- -------- ----<br>---- --- ------ ----- ------ -- ---- the ----- -- - -------<br>-------- -- --- --- -- ----- ----------- ----- -----------<br>---- --- ---------- --- ---- --- -- ----------,374928.4,374856.10000000003,374334.774,374347.9,374368.096,374935.067,,32,the
screen,html.Screen,1_3_1_0_1_33,2022-04-29T15:41:30.669Z,,,,,,,,,,,,,,,,51,,,,,,,,,,,,,,762.2330000000657,,response,,,,13,E,,,,,,Space,keypress(Space),,,,lyrical,,,,-------- -------- --- --- ---- --- --- ------ -- --------<br>---- --------- --- ------- ------------ ---------- ---------<br>--- ---------- ------- ---------- ------- -- -------- ----<br>---- --- ------ ----- ------ -- ---- --- House -- - -------<br>-------- -- --- --- -- ----- ----------- ----- -----------<br>---- --- ---------- --- ---- --- -- ----------,375699.60000000003,375697.30000000005,374918.406,374929.30000000005,374935.067,375718.418,,33,House
screen,html.Screen,1_3_1_0_1_34,2022-04-29T15:41:31.109Z,,,,,,,,,,,,,,,,51,,,,,,,,,,,,,,418.48200000001816,,response,,,,13,E,,,,,,Space,keypress(Space),,,,lyrical,,,,-------- -------- --- --- ---- --- --- ------ -- --------<br>---- --------- --- ------- ------------ ---------- ---------<br>--- ---------- ------- ---------- ------- -- -------- ----<br>---- --- ------ ----- ------ -- ---- --- ----- in - -------<br>-------- -- --- --- -- ----- ----------- ----- -----------<br>---- --- ---------- --- ---- --- -- ----------,376139.5,376136.9,375701.757,375699.9,375718.418,376151.975,,34,in
screen,html.Screen,1_3_1_0_1_35,2022-04-29T15:41:31.594Z,,,,,,,,,,,,,,,,51,,,,,,,,,,,,,,469.0250000000233,,response,,,,13,E,,,,,,Space,keypress(Space),,,,lyrical,,,,-------- -------- --- --- ---- --- --- ------ -- --------<br>---- --------- --- ------- ------------ ---------- ---------<br>--- ---------- ------- ---------- ------- -- -------- ----<br>---- --- ------ ----- ------ -- ---- --- ----- -- a -------<br>-------- -- --- --- -- ----- ----------- ----- -----------<br>---- --- ---------- --- ---- --- -- ----------,376624.4,376621,376135.314,376140,376151.975,376635.378,,35,a
screen,html.Screen,1_3_1_0_1_36,2022-04-29T15:41:32.163Z,,,,,,,,,,,,,,,,51,,,,,,,,,,,,,,554.0219999999972,,response,,,,13,E,,,,,,Space,keypress(Space),,,,lyrical,,,,-------- -------- --- --- ---- --- --- ------ -- --------<br>---- --------- --- ------- ------------ ---------- ---------<br>--- ---------- ------- ---------- ------- -- -------- ----<br>---- --- ------ ----- ------ -- ---- --- ----- -- - massive<br>-------- -- --- --- -- ----- ----------- ----- -----------<br>---- --- ---------- --- ---- --- -- ----------,377193.80000000005,377189.4,376618.717,376624.7,376635.378,377202.074,,36,massive
screen,html.Screen,1_3_1_0_1_37,2022-04-29T15:41:32.719Z,,,,,,,,,,,,,,,,51,,,,,,,,,,,,,,543.8260000000009,,response,,,,13,E,,,,,,Space,keypress(Space),,,,lyrical,,,,-------- -------- --- --- ---- --- --- ------ -- --------<br>---- --------- --- ------- ------------ ---------- ---------<br>--- ---------- ------- ---------- ------- -- -------- ----<br>---- --- ------ ----- ------ -- ---- --- ----- -- - -------<br>overhaul -- --- --- -- ----- ----------- ----- -----------<br>---- --- ---------- --- ---- --- -- ----------,377749.2,377745.9,377185.413,377194.2,377202.074,377768.853,,37,overhaul
screen,html.Screen,1_3_1_0_1_38,2022-04-29T15:41:33.142Z,,,,,,,,,,,,,,,,51,,,,,,,,,,,,,,401.24700000003213,,response,,,,13,E,,,,,,Space,keypress(Space),,,,lyrical,,,,-------- -------- --- --- ---- --- --- ------ -- --------<br>---- --------- --- ------- ------------ ---------- ---------<br>--- ---------- ------- ---------- ------- -- -------- ----<br>---- --- ------ ----- ------ -- ---- --- ----- -- - -------<br>-------- of --- --- -- ----- ----------- ----- -----------<br>---- --- ---------- --- ---- --- -- ----------,378172.30000000005,378170.10000000003,377752.192,377749.80000000005,377768.853,378185.654,,38,of
screen,html.Screen,1_3_1_0_1_39,2022-04-29T15:41:33.469Z,,,,,,,,,,,,,,,,51,,,,,,,,,,,,,,309.0460000000312,,response,,,,13,E,,,,,,Space,keypress(Space),,,,lyrical,,,,-------- -------- --- --- ---- --- --- ------ -- --------<br>---- --------- --- ------- ------------ ---------- ---------<br>--- ---------- ------- ---------- ------- -- -------- ----<br>---- --- ------ ----- ------ -- ---- --- ----- -- - -------<br>-------- -- the --- -- ----- ----------- ----- -----------<br>---- --- ---------- --- ---- --- -- ----------,378499.80000000005,378494.7,378168.993,378172.80000000005,378185.654,378502.413,,39,the
screen,html.Screen,1_3_1_0_1_40,2022-04-29T15:41:34.728Z,,,,,,,,,,,,,,,,51,,,,,,,,,,,,,,325.58699999999953,,response,,,,13,E,,,,,,Space,keypress(Space),,,,lyrical,,,,-------- -------- --- --- ---- --- --- ------ -- --------<br>---- --------- --- ------- ------------ ---------- ---------<br>--- ---------- ------- ---------- ------- -- -------- ----<br>---- --- ------ ----- ------ -- ---- --- ----- -- - -------<br>-------- -- --- way -- ----- ----------- ----- -----------<br>---- --- ---------- --- ---- --- -- ----------,379758.30000000005,378828,378485.752,378500.5,378502.413,379852.125,,40,way
screen,html.Screen,1_3_1_0_1_41,2022-04-29T15:41:36.564Z,,,,,,,,,,,,,,,,51,,,,,,,,,,,,,,488.375,,response,,,,13,E,,,,,,Space,keypress(Space),,,,lyrical,,,,-------- -------- --- --- ---- --- --- ------ -- --------<br>---- --------- --- ------- ------------ ---------- ---------<br>--- ---------- ------- ---------- ------- -- -------- ----<br>---- --- ------ ----- ------ -- ---- --- ----- -- - -------<br>-------- -- --- --- in ----- ----------- ----- -----------<br>---- --- ---------- --- ---- --- -- ----------,381594.60000000003,380340.5,379752.159,379758.7,379852.125,381602.203,,41,in
screen,html.Screen,1_3_1_0_1_42,2022-04-29T15:41:37.055Z,,,,,,,,,,,,,,,,51,,,,,,,,,,,,,,194.69700000004377,,response,,,,13,E,,,,,,Space,keypress(Space),,,,lyrical,,,,-------- -------- --- --- ---- --- --- ------ -- --------<br>---- --------- --- ------- ------------ ---------- ---------<br>--- ---------- ------- ---------- ------- -- -------- ----<br>---- --- ------ ----- ------ -- ---- --- ----- -- - -------<br>-------- -- --- --- -- which ----------- ----- -----------<br>---- --- ---------- --- ---- --- -- ----------,382084.9,381796.9,381585.542,381594.9,381602.203,382103.004,,42,which
screen,html.Screen,1_3_1_0_1_43,2022-04-29T15:41:37.215Z,,,,,,,,,,,,,,,,51,,,,,,,,,,,,,,122.49599999998463,,response,,,,13,E,,,,,,Space,keypress(Space),,,,lyrical,,,,-------- -------- --- --- ---- --- --- ------ -- --------<br>---- --------- --- ------- ------------ ---------- ---------<br>--- ---------- ------- ---------- ------- -- -------- ----<br>---- --- ------ ----- ------ -- ---- --- ----- -- - -------<br>-------- -- --- --- -- ----- bureaucrats ----- -----------<br>---- --- ---------- --- ---- --- -- ----------,382245.60000000003,382225.5,382086.343,382085.2,382103.004,382253.13,,43,bureaucrats
