sender,sender_type,sender_id,timestamp,meta,,Blues,Classical,Country,Dance,Electronic,Folk,Gospel,Hip-Hop,Jazz,Latin,Musical/Film,New-age,Pop,Provo_ID,R&B,Rap,Reggae,Religious,Rock,Soul,Swing,Traditional,age,artist_name,correct,correctResponse,distraction,duration,education,ended_on,familiarity,gender,headphone_check_performance,item,list,music_frequency,offensiveness,pleasantness,position_correct,preference,response,response_action,snippet_file,song_name,song_rating,sound,stimulus_1,stimulus_2,stimulus_3,text,time_commit,time_end,time_render,time_run,time_show,time_switch,url,word,word_ID
Introduction,html.Screen,0_0,2021-04-23T14:44:48.708Z,"{""labjs_version"":""20.2.2"",""labjs_build"":{""flavor"":""production"",""commit"":""a25486e0c714a0ae2ce03ff94b7bb6896854dcfa""},""location"":""https://run.pavlovia.org/mvasilev/music_f/"",""userAgent"":""Mozilla/5.0 (Macintosh; Intel Mac OS X 10_15_6) AppleWebKit/605.1.15 (KHTML, like Gecko) Version/14.0.3 Safari/605.1.15"",""platform"":""MacIntel"",""language"":""en-gb"",""locale"":""en-GB"",""timeZone"":""Europe/London"",""timezoneOffset"":-60,""screen_width"":1440,""screen_height"":900,""scroll_width"":1440,""scroll_height"":772,""window_innerWidth"":1440,""window_innerHeight"":820,""devicePixelRatio"":2}",,,,,,,,,,,,,,,,,,,,,,,,,,,,,71637.00000000001,,response,,,,,,,,,,,continue,click button,,,,,,,,,75397,75341.00000000001,3704,3691.0000000000005,3719,75429,{},,
Volume calibration,html.Screen,0_1,2021-04-23T14:46:51.981Z,,,,,,,,,,,,,,,,,,,,,,,,,,,,,,123190,,response,,,,,,,,,,,continue,click button,,,,,,,,,198667,198603,75413,75397,75429,198696,,,
Task instructions,html.Screen,0_2,2021-04-23T14:47:19.924Z,,,,,,,,,,,,,,,,,,,,,,,,,,,,,,27873,,response,,,,,,,,,,,continue,click button,,,,,,,,,226610,226552,198679,198668,198696,226636,,,
Sounds,html.Screen,0_3_0_0,2021-04-23T14:47:24.189Z,,,,,,,,,,,,,,,,,,,,,,,,,,,,,,4255,,timeout,,,,,,,,,3,,,,,,,,I,O,S,,230874,230873,226618,226610,226636,230891,,,
Judgement,html.Screen,0_3_0_1,2021-04-23T14:47:26.498Z,,,,,,,,,,,,,,,,,,,,,,,,,,,true,3,,2252,,response,,,,,,,,,3,,3,click #choice-3,,,,,I,O,S,,233183,233125,230873,230874,230891,233209,,,
Trial,flow.Sequence,0_3_0,2021-04-23T14:47:26.499Z,,,,,,,,,,,,,,,,,,,,,,,,,,,,,,6489,,completion,,,,,,,,,3,,,,,,,,I,O,S,,233184,233125,226618,226610,226636,233209,,,
Sounds,html.Screen,0_3_1_0,2021-04-23T14:47:30.753Z,,,,,,,,,,,,,,,,,,,,,,,,,,,,,,4246,,timeout,,,,,,,,,3,,,,,,,,O,I,S,,237438.00000000003,237438,233193,233184,233209,237455,,,
Judgement,html.Screen,0_3_1_1,2021-04-23T14:47:32.289Z,,,,,,,,,,,,,,,,,,,,,,,,,,,true,3,,1478,,response,,,,,,,,,3,,3,click #choice-3,,,,,O,I,S,,238974.00000000003,238916,237438,237439,237455,238998,,,
Trial,flow.Sequence,0_3_1,2021-04-23T14:47:32.289Z,,,,,,,,,,,,,,,,,,,,,,,,,,,,,,5707,,completion,,,,,,,,,3,,,,,,,,O,I,S,,238974.00000000003,238916,233193,233184,233209,238998,,,
Sounds,html.Screen,0_3_2_0,2021-04-23T14:47:36.550Z,,,,,,,,,,,,,,,,,,,,,,,,,,,,,,4254,,timeout,,,,,,,,,1,,,,,,,,S,O,I,,243235,243235,238983,238974.00000000003,238998,243252,,,
Judgement,html.Screen,0_3_2_1,2021-04-23T14:47:39.751Z,,,,,,,,,,,,,,,,,,,,,,,,,,,true,1,,3143,,response,,,,,,,,,1,,1,click #choice-1,,,,,S,O,I,,246435,246378,243235,243235,243252,246464,,,
Trial,flow.Sequence,0_3_2,2021-04-23T14:47:39.751Z,,,,,,,,,,,,,,,,,,,,,,,,,,,,,,7380,,completion,,,,,,,,,1,,,,,,,,S,O,I,,246436,246378,238983,238974.00000000003,238998,246464,,,
Sounds,html.Screen,0_3_3_0,2021-04-23T14:47:44.015Z,,,,,,,,,,,,,,,,,,,,,,,,,,,,,,4252,,timeout,,,,,,,,,1,,,,,,,,S,I,O,,250700.00000000003,250700,246447,246436,246464,250716,,,
Judgement,html.Screen,0_3_3_1,2021-04-23T14:47:44.882Z,,,,,,,,,,,,,,,,,,,,,,,,,,,true,1,,809,,response,,,,,,,,,1,,1,click #choice-1,,,,,S,I,O,,251567,251509,250700,250700.00000000003,250716,251592,,,
Trial,flow.Sequence,0_3_3,2021-04-23T14:47:44.883Z,,,,,,,,,,,,,,,,,,,,,,,,,,,,,,5045,,completion,,,,,,,,,1,,,,,,,,S,I,O,,251567,251509,246447,246436,246464,251592,,,
Sounds,html.Screen,0_3_4_0,2021-04-23T14:47:49.144Z,,,,,,,,,,,,,,,,,,,,,,,,,,,,,,4254,,timeout,,,,,,,,,2,,,,,,,,O,S,I,,255829,255828,251576,251567,251592,255846,,,
Judgement,html.Screen,0_3_4_1,2021-04-23T14:47:49.636Z,,,,,,,,,,,,,,,,,,,,,,,,,,,true,2,,435.0000000000291,,response,,,,,,,,,2,,2,click #choice-2,,,,,O,S,I,,256321.00000000003,256263.00000000003,255828,255829,255846,256350,,,
Trial,flow.Sequence,0_3_4,2021-04-23T14:47:49.636Z,,,,,,,,,,,,,,,,,,,,,,,,,,,,,,4671.000000000029,,completion,,,,,,,,,2,,,,,,,,O,S,I,,256321.00000000003,256263.00000000003,251576,251567,251592,256350,,,
Sounds,html.Screen,0_3_5_0,2021-04-23T14:47:53.908Z,,,,,,,,,,,,,,,,,,,,,,,,,,,,,,4260,,timeout,,,,,,,,,2,,,,,,,,I,S,O,,260591.99999999997,260592,256333,256321.00000000003,256350,260610,,,
Judgement,html.Screen,0_3_5_1,2021-04-23T14:47:56.233Z,,,,,,,,,,,,,,,,,,,,,,,,,,,false,2,,2267,,response,,,,,,,,,2,,1,click #choice-1,,,,,I,S,O,,262917.00000000006,262859,260592,260593.00000000003,260610,262954,,,
Trial,flow.Sequence,0_3_5,2021-04-23T14:47:56.233Z,,,,,,,,,,,,,,,,,,,,,,,,,,,,,,6509,,completion,,,,,,,,,2,,,,,,,,I,S,O,,262917.00000000006,262859,256333,256321.00000000003,256350,262954,,,
Task,flow.Loop,0_3,2021-04-23T14:47:56.236Z,,,,,,,,,,,,,,,,,,,,,,,,,,,,,,36223,,completion,,,0.8333333333333334,,,,,,,,,,,,,,,,,,262920,262859,226618,226610,226636,262954,,,
Trap,html.Screen,0_4,2021-04-23T14:47:56.237Z,,,,,,,,,,,,,,,,,,,,,,,,,,,,,,NaN,,skipped,,,,,,,,,,,,,,,,,,,,,262922,262859,,262921,,262954,,,
Thanks,html.Screen,0_5,2021-04-23T14:48:06.998Z,,,,,,,,,,,,,,,,,,,,,,,,,,,,,,10685,,response,,,,,,,,,,,continue,click button,,,,,,,,,273682,273623,262938,262922,262954,276221,,,
Headphone screening,flow.Sequence,0,2021-04-23T14:48:06.998Z,,,,,,,,,,,,,,,,,,,,,,,,,,,,,,269904,,completion,,,,,,,,,,,,,,,,,,,,,273682,273623,3704,3691.0000000000005,3719,276221,,,
Instructions,html.Page,1_0,2021-04-23T14:48:37.660Z,,,,,,,,,,,,,,,,,,,,,,,,,,,,,,28122,,form submission,,,,,,,,,,,,,,,,,,,,,304343,304343,276204,276194,276221,304360,,,
Holding screen,html.Screen,1_1_0_0,2021-04-23T14:48:47.663Z,,,,,,,,,,,,,,,,,,,,,,,,,,,,,,10003,,timeout,,,,,,,,,,,,,,,,,,,,,314346,314345,304347,304343,304360,314363,,,
screen,html.Screen,1_1_0_1_0,2021-04-23T14:48:48.596Z,,,,,,,,,,,,,,,,53,,,,,,,,,,,,,,875,,response,,,,99,,,,,,,Space,keypress(Space),,,,,,,,When -- ----- -- ------ - ------- --- ----------<br>------------- ------ ------ ---- ---- ------- ----- -- ----<br>-------- ------- -- ---------- --- - --- ----- ----- ----<br>---- --- --- ----- --- ---- ---- ------- ----- ---- -------<br>--- --- -- ----- -- --- ---- -- --- ---- -- ------ ------<br>--- ----- -- ----,315279,315220,314345,314347,314363,315315,,0,When
screen,html.Screen,1_1_0_1_1,2021-04-23T14:48:49.063Z,,,,,,,,,,,,,,,,53,,,,,,,,,,,,,,389,,response,,,,99,,,,,,,Space,keypress(Space),,,,,,,,---- it ----- -- ------ - ------- --- ----------<br>------------- ------ ------ ---- ---- ------- ----- -- ----<br>-------- ------- -- ---------- --- - --- ----- ----- ----<br>---- --- --- ----- --- ---- ---- ------- ----- ---- -------<br>--- --- -- ----- -- --- ---- -- --- ---- -- ------ ------<br>--- ----- -- ----,315747,315687,315298,315280.00000000006,315315,315776,,1,it
screen,html.Screen,1_1_0_1_2,2021-04-23T14:48:49.873Z,,,,,,,,,,,,,,,,53,,,,,,,,,,,,,,739,,response,,,,99,,,,,,,Space,keypress(Space),,,,,,,,---- -- comes -- ------ - ------- --- ----------<br>------------- ------ ------ ---- ---- ------- ----- -- ----<br>-------- ------- -- ---------- --- - --- ----- ----- ----<br>---- --- --- ----- --- ---- ---- ------- ----- ---- -------<br>--- --- -- ----- -- --- ---- -- --- ---- -- ------ ------<br>--- ----- -- ----,316556,316497,315758,315747,315776,316595,,2,comes
screen,html.Screen,1_1_0_1_3,2021-04-23T14:48:50.591Z,,,,,,,,,,,,,,,,53,,,,,,,,,,,,,,636.0000000000582,,response,,,,99,,,,,,,Space,keypress(Space),,,,,,,,---- -- ----- to ------ - ------- --- ----------<br>------------- ------ ------ ---- ---- ------- ----- -- ----<br>-------- ------- -- ---------- --- - --- ----- ----- ----<br>---- --- --- ----- --- ---- ---- ------- ----- ---- -------<br>--- --- -- ----- -- --- ---- -- --- ---- -- ------ ------<br>--- ----- -- ----,317274,317215.00000000006,316579,316556,316595,317316,,3,to
screen,html.Screen,1_1_0_1_4,2021-04-23T14:48:52.050Z,,,,,,,,,,,,,,,,53,,,,,,,,,,,,,,1376.0000000000582,,response,,,,99,,,,,,,Space,keypress(Space),,,,,,,,---- -- ----- -- having - ------- --- ----------<br>------------- ------ ------ ---- ---- ------- ----- -- ----<br>-------- ------- -- ---------- --- - --- ----- ----- ----<br>---- --- --- ----- --- ---- ---- ------- ----- ---- -------<br>--- --- -- ----- -- --- ---- -- --- ---- -- ------ ------<br>--- ----- -- ----,318733,318674.00000000006,317298,317275.00000000006,317316,318769,,4,having
screen,html.Screen,1_1_0_1_5,2021-04-23T14:48:52.516Z,,,,,,,,,,,,,,,,53,,,,,,,,,,,,,,388,,response,,,,99,,,,,,,Space,keypress(Space),,,,,,,,---- -- ----- -- ------ a ------- --- ----------<br>------------- ------ ------ ---- ---- ------- ----- -- ----<br>-------- ------- -- ---------- --- - --- ----- ----- ----<br>---- --- --- ----- --- ---- ---- ------- ----- ---- -------<br>--- --- -- ----- -- --- ---- -- --- ---- -- ------ ------<br>--- ----- -- ----,319199,319140,318752,318733,318769,319239,,5,a
screen,html.Screen,1_1_0_1_6,2021-04-23T14:48:53.181Z,,,,,,,,,,,,,,,,53,,,,,,,,,,,,,,583,,response,,,,99,,,,,,,Space,keypress(Space),,,,,,,,---- -- ----- -- ------ - lasting --- ----------<br>------------- ------ ------ ---- ---- ------- ----- -- ----<br>-------- ------- -- ---------- --- - --- ----- ----- ----<br>---- --- --- ----- --- ---- ---- ------- ----- ---- -------<br>--- --- -- ----- -- --- ---- -- --- ---- -- ------ ------<br>--- ----- -- ----,319864.00000000006,319805,319222,319199,319239,319892,,6,lasting
screen,html.Screen,1_1_0_1_7,2021-04-23T14:48:53.633Z,,,,,,,,,,,,,,,,53,,,,,,,,,,,,,,382,,response,,,,99,,,,,,,Space,keypress(Space),,,,,,,,---- -- ----- -- ------ - ------- and ----------<br>------------- ------ ------ ---- ---- ------- ----- -- ----<br>-------- ------- -- ---------- --- - --- ----- ----- ----<br>---- --- --- ----- --- ---- ---- ------- ----- ---- -------<br>--- --- -- ----- -- --- ---- -- --- ---- -- ------ ------<br>--- ----- -- ----,320316.00000000006,320257,319875,319864.00000000006,319892,320345,,7,and
screen,html.Screen,1_1_0_1_8,2021-04-23T14:48:54.149Z,,,,,,,,,,,,,,,,53,,,,,,,,,,,,,,444,,response,,,,99,,,,,,,Space,keypress(Space),,,,,,,,---- -- ----- -- ------ - ------- --- fulfilling<br>------------- ------ ------ ---- ---- ------- ----- -- ----<br>-------- ------- -- ---------- --- - --- ----- ----- ----<br>---- --- --- ----- --- ---- ---- ------- ----- ---- -------<br>--- --- -- ----- -- --- ---- -- --- ---- -- ------ ------<br>--- ----- -- ----,320832,320773,320329,320317,320345,320864,,8,fulfilling
screen,html.Screen,1_1_0_1_9,2021-04-23T14:48:54.694Z,,,,,,,,,,,,,,,,53,,,,,,,,,,,,,,470,,response,,,,99,,,,,,,Space,keypress(Space),,,,,,,,"---- -- ----- -- ------ - ------- --- ----------<br>relationship, ------ ------ ---- ---- ------- ----- -- ----<br>-------- ------- -- ---------- --- - --- ----- ----- ----<br>---- --- --- ----- --- ---- ---- ------- ----- ---- -------<br>--- --- -- ----- -- --- ---- -- --- ---- -- ------ ------<br>--- ----- -- ----",321377,321318,320848,320833,320864,321418,,9,"relationship,"
screen,html.Screen,1_1_0_1_10,2021-04-23T14:48:55.580Z,,,,,,,,,,,,,,,,53,,,,,,,,,,,,,,803,,response,,,,99,,,,,,,Space,keypress(Space),,,,,,,,---- -- ----- -- ------ - ------- --- ----------<br>------------- common ------ ---- ---- ------- ----- -- ----<br>-------- ------- -- ---------- --- - --- ----- ----- ----<br>---- --- --- ----- --- ---- ---- ------- ----- ---- -------<br>--- --- -- ----- -- --- ---- -- --- ---- -- ------ ------<br>--- ----- -- ----,322263.00000000006,322204,321401,321377,321418,322304,,10,common
screen,html.Screen,1_1_0_1_11,2021-04-23T14:48:56.083Z,,,,,,,,,,,,,,,,53,,,,,,,,,,,,,,420,,response,,,,99,,,,,,,Space,keypress(Space),,,,,,,,---- -- ----- -- ------ - ------- --- ----------<br>------------- ------ wisdom ---- ---- ------- ----- -- ----<br>-------- ------- -- ---------- --- - --- ----- ----- ----<br>---- --- --- ----- --- ---- ---- ------- ----- ---- -------<br>--- --- -- ----- -- --- ---- -- --- ---- -- ------ ------<br>--- ----- -- ----,322766,322707,322287,322263.00000000006,322304,322807,,11,wisdom
screen,html.Screen,1_1_0_1_12,2021-04-23T14:48:56.498Z,,,,,,,,,,,,,,,,53,,,,,,,,,,,,,,332,,response,,,,99,,,,,,,Space,keypress(Space),,,,,,,,---- -- ----- -- ------ - ------- --- ----------<br>------------- ------ ------ says ---- ------- ----- -- ----<br>-------- ------- -- ---------- --- - --- ----- ----- ----<br>---- --- --- ----- --- ---- ---- ------- ----- ---- -------<br>--- --- -- ----- -- --- ---- -- --- ---- -- ------ ------<br>--- ----- -- ----,323181,323122,322790,322766,322807,323209,,12,says
screen,html.Screen,1_1_0_1_13,2021-04-23T14:48:56.924Z,,,,,,,,,,,,,,,,53,,,,,,,,,,,,,,355,,response,,,,99,,,,,,,Space,keypress(Space),,,,,,,,---- -- ----- -- ------ - ------- --- ----------<br>------------- ------ ------ ---- that ------- ----- -- ----<br>-------- ------- -- ---------- --- - --- ----- ----- ----<br>---- --- --- ----- --- ---- ---- ------- ----- ---- -------<br>--- --- -- ----- -- --- ---- -- --- ---- -- ------ ------<br>--- ----- -- ----,323607,323548,323193,323181,323209,323646,,13,that
screen,html.Screen,1_1_0_1_14,2021-04-23T14:48:57.386Z,,,,,,,,,,,,,,,,53,,,,,,,,,,,,,,380,,response,,,,99,,,,,,,Space,keypress(Space),,,,,,,,---- -- ----- -- ------ - ------- --- ----------<br>------------- ------ ------ ---- ---- feeling ----- -- ----<br>-------- ------- -- ---------- --- - --- ----- ----- ----<br>---- --- --- ----- --- ---- ---- ------- ----- ---- -------<br>--- --- -- ----- -- --- ---- -- --- ---- -- ------ ------<br>--- ----- -- ----,324069,324010,323630,323607,323646,324099,,14,feeling
screen,html.Screen,1_1_0_1_15,2021-04-23T14:48:57.852Z,,,,,,,,,,,,,,,,53,,,,,,,,,,,,,,392,,response,,,,99,,,,,,,Space,keypress(Space),,,,,,,,---- -- ----- -- ------ - ------- --- ----------<br>------------- ------ ------ ---- ---- ------- close -- ----<br>-------- ------- -- ---------- --- - --- ----- ----- ----<br>---- --- --- ----- --- ---- ---- ------- ----- ---- -------<br>--- --- -- ----- -- --- ---- -- --- ---- -- ------ ------<br>--- ----- -- ----,324535,324475,324083,324069,324099,324569,,15,close
screen,html.Screen,1_1_0_1_16,2021-04-23T14:48:58.267Z,,,,,,,,,,,,,,,,53,,,,,,,,,,,,,,339,,response,,,,99,,,,,,,Space,keypress(Space),,,,,,,,---- -- ----- -- ------ - ------- --- ----------<br>------------- ------ ------ ---- ---- ------- ----- to ----<br>-------- ------- -- ---------- --- - --- ----- ----- ----<br>---- --- --- ----- --- ---- ---- ------- ----- ---- -------<br>--- --- -- ----- -- --- ---- -- --- ---- -- ------ ------<br>--- ----- -- ----,324950,324891,324552,324535,324569,324988,,16,to
screen,html.Screen,1_1_0_1_17,2021-04-23T14:48:58.601Z,,,,,,,,,,,,,,,,53,,,,,,,,,,,,,,252,,response,,,,99,,,,,,,Space,keypress(Space),,,,,,,,---- -- ----- -- ------ - ------- --- ----------<br>------------- ------ ------ ---- ---- ------- ----- -- your<br>-------- ------- -- ---------- --- - --- ----- ----- ----<br>---- --- --- ----- --- ---- ---- ------- ----- ---- -------<br>--- --- -- ----- -- --- ---- -- --- ---- -- ------ ------<br>--- ----- -- ----,325284,325224,324972,324950,324988,325308,,17,your
screen,html.Screen,1_1_0_1_18,2021-04-23T14:48:59.032Z,,,,,,,,,,,,,,,,53,,,,,,,,,,,,,,365,,response,,,,99,,,,,,,Space,keypress(Space),,,,,,,,---- -- ----- -- ------ - ------- --- ----------<br>------------- ------ ------ ---- ---- ------- ----- -- ----<br>romantic ------- -- ---------- --- - --- ----- ----- ----<br>---- --- --- ----- --- ---- ---- ------- ----- ---- -------<br>--- --- -- ----- -- --- ---- -- --- ---- -- ------ ------<br>--- ----- -- ----,325715.00000000006,325656,325291,325284,325308,325744,,18,romantic
screen,html.Screen,1_1_0_1_19,2021-04-23T14:48:59.467Z,,,,,,,,,,,,,,,,53,,,,,,,,,,,,,,363.0000000000582,,response,,,,99,,,,,,,Space,keypress(Space),,,,,,,,---- -- ----- -- ------ - ------- --- ----------<br>------------- ------ ------ ---- ---- ------- ----- -- ----<br>-------- partner -- ---------- --- - --- ----- ----- ----<br>---- --- --- ----- --- ---- ---- ------- ----- ---- -------<br>--- --- -- ----- -- --- ---- -- --- ---- -- ------ ------<br>--- ----- -- ----,326150.00000000006,326090.00000000006,325727,325715.00000000006,325744,326180,,19,partner
screen,html.Screen,1_1_0_1_20,2021-04-23T14:49:00.099Z,,,,,,,,,,,,,,,,53,,,,,,,,,,,,,,558,,response,,,,99,,,,,,,Space,keypress(Space),,,,,,,,---- -- ----- -- ------ - ------- --- ----------<br>------------- ------ ------ ---- ---- ------- ----- -- ----<br>-------- ------- is ---------- --- - --- ----- ----- ----<br>---- --- --- ----- --- ---- ---- ------- ----- ---- -------<br>--- --- -- ----- -- --- ---- -- --- ---- -- ------ ------<br>--- ----- -- ----,326782,326722,326164,326150.00000000006,326180,326815,,20,is
screen,html.Screen,1_1_0_1_21,2021-04-23T14:49:00.685Z,,,,,,,,,,,,,,,,53,,,,,,,,,,,,,,509,,response,,,,99,,,,,,,Space,keypress(Space),,,,,,,,---- -- ----- -- ------ - ------- --- ----------<br>------------- ------ ------ ---- ---- ------- ----- -- ----<br>-------- ------- -- paramount. --- - --- ----- ----- ----<br>---- --- --- ----- --- ---- ---- ------- ----- ---- -------<br>--- --- -- ----- -- --- ---- -- --- ---- -- ------ ------<br>--- ----- -- ----,327368,327308,326799,326782,326815,327403,,21,paramount.
screen,html.Screen,1_1_0_1_22,2021-04-23T14:49:01.142Z,,,,,,,,,,,,,,,,53,,,,,,,,,,,,,,379,,response,,,,99,,,,,,,Space,keypress(Space),,,,,,,,---- -- ----- -- ------ - ------- --- ----------<br>------------- ------ ------ ---- ---- ------- ----- -- ----<br>-------- ------- -- ---------- But - --- ----- ----- ----<br>---- --- --- ----- --- ---- ---- ------- ----- ---- -------<br>--- --- -- ----- -- --- ---- -- --- ---- -- ------ ------<br>--- ----- -- ----,327825,327765,327386,327368,327403,327856,,22,But
screen,html.Screen,1_1_0_1_23,2021-04-23T14:49:01.582Z,,,,,,,,,,,,,,,,53,,,,,,,,,,,,,,367,,response,,,,99,,,,,,,Space,keypress(Space),,,,,,,,---- -- ----- -- ------ - ------- --- ----------<br>------------- ------ ------ ---- ---- ------- ----- -- ----<br>-------- ------- -- ---------- --- a --- ----- ----- ----<br>---- --- --- ----- --- ---- ---- ------- ----- ---- -------<br>--- --- -- ----- -- --- ---- -- --- ---- -- ------ ------<br>--- ----- -- ----,328265,328205,327838,327825,327856,328292,,23,a
screen,html.Screen,1_1_0_1_24,2021-04-23T14:49:02.029Z,,,,,,,,,,,,,,,,53,,,,,,,,,,,,,,376,,response,,,,99,,,,,,,Space,keypress(Space),,,,,,,,---- -- ----- -- ------ - ------- --- ----------<br>------------- ------ ------ ---- ---- ------- ----- -- ----<br>-------- ------- -- ---------- --- - new ----- ----- ----<br>---- --- --- ----- --- ---- ---- ------- ----- ---- -------<br>--- --- -- ----- -- --- ---- -- --- ---- -- ------ ------<br>--- ----- -- ----,328712,328652,328276,328265,328292,328746,,24,new
screen,html.Screen,1_1_0_1_25,2021-04-23T14:49:02.669Z,,,,,,,,,,,,,,,,53,,,,,,,,,,,,,,563.0000000000582,,response,,,,99,,,,,,,Space,keypress(Space),,,,,,,,---- -- ----- -- ------ - ------- --- ----------<br>------------- ------ ------ ---- ---- ------- ----- -- ----<br>-------- ------- -- ---------- --- - --- study ----- ----<br>---- --- --- ----- --- ---- ---- ------- ----- ---- -------<br>--- --- -- ----- -- --- ---- -- --- ---- -- ------ ------<br>--- ----- -- ----,329352.00000000006,329292.00000000006,328729,328712,328746,329382,,25,study
screen,html.Screen,1_1_0_1_26,2021-04-23T14:49:03.268Z,,,,,,,,,,,,,,,,53,,,,,,,,,,,,,,526,,response,,,,99,,,,,,,Space,keypress(Space),,,,,,,,---- -- ----- -- ------ - ------- --- ----------<br>------------- ------ ------ ---- ---- ------- ----- -- ----<br>-------- ------- -- ---------- --- - --- ----- finds ----<br>---- --- --- ----- --- ---- ---- ------- ----- ---- -------<br>--- --- -- ----- -- --- ---- -- --- ---- -- ------ ------<br>--- ----- -- ----,329951,329891,329365,329352.00000000006,329382,329985,,26,finds
screen,html.Screen,1_1_0_1_27,2021-04-23T14:49:04.200Z,,,,,,,,,,,,,,,,53,,,,,,,,,,,,,,855,,response,,,,99,,,,,,,Space,keypress(Space),,,,,,,,---- -- ----- -- ------ - ------- --- ----------<br>------------- ------ ------ ---- ---- ------- ----- -- ----<br>-------- ------- -- ---------- --- - --- ----- ----- that<br>---- --- --- ----- --- ---- ---- ------- ----- ---- -------<br>--- --- -- ----- -- --- ---- -- --- ---- -- ------ ------<br>--- ----- -- ----,330883,330823,329968,329951,329985,330921,,27,that
screen,html.Screen,1_1_0_1_28,2021-04-23T14:49:04.772Z,,,,,,,,,,,,,,,,53,,,,,,,,,,,,,,491,,response,,,,99,,,,,,,Space,keypress(Space),,,,,,,,---- -- ----- -- ------ - ------- --- ----------<br>------------- ------ ------ ---- ---- ------- ----- -- ----<br>-------- ------- -- ---------- --- - --- ----- ----- ----<br>it's --- --- ----- --- ---- ---- ------- ----- ---- -------<br>--- --- -- ----- -- --- ---- -- --- ---- -- ------ ------<br>--- ----- -- ----,331455,331395,330904,330883,330921,331490,,28,it's
screen,html.Screen,1_1_0_1_29,2021-04-23T14:49:05.194Z,,,,,,,,,,,,,,,,53,,,,,,,,,,,,,,344,,response,,,,99,,,,,,,Space,keypress(Space),,,,,,,,---- -- ----- -- ------ - ------- --- ----------<br>------------- ------ ------ ---- ---- ------- ----- -- ----<br>-------- ------- -- ---------- --- - --- ----- ----- ----<br>---- not --- ----- --- ---- ---- ------- ----- ---- -------<br>--- --- -- ----- -- --- ---- -- --- ---- -- ------ ------<br>--- ----- -- ----,331877,331817,331473,331455,331490,331909,,29,not
screen,html.Screen,1_1_0_1_30,2021-04-23T14:49:05.516Z,,,,,,,,,,,,,,,,53,,,,,,,,,,,,,,246,,response,,,,99,,,,,,,Space,keypress(Space),,,,,,,,---- -- ----- -- ------ - ------- --- ----------<br>------------- ------ ------ ---- ---- ------- ----- -- ----<br>-------- ------- -- ---------- --- - --- ----- ----- ----<br>---- --- how ----- --- ---- ---- ------- ----- ---- -------<br>--- --- -- ----- -- --- ---- -- --- ---- -- ------ ------<br>--- ----- -- ----,332199,332139,331893,331877,331909,332229,,30,how
screen,html.Screen,1_1_0_1_31,2021-04-23T14:49:05.820Z,,,,,,,,,,,,,,,,53,,,,,,,,,,,,,,230,,response,,,,99,,,,,,,Space,keypress(Space),,,,,,,,---- -- ----- -- ------ - ------- --- ----------<br>------------- ------ ------ ---- ---- ------- ----- -- ----<br>-------- ------- -- ---------- --- - --- ----- ----- ----<br>---- --- --- close --- ---- ---- ------- ----- ---- -------<br>--- --- -- ----- -- --- ---- -- --- ---- -- ------ ------<br>--- ----- -- ----,332503,332443,332213,332199,332229,332531,,31,close
screen,html.Screen,1_1_0_1_32,2021-04-23T14:49:06.113Z,,,,,,,,,,,,,,,,53,,,,,,,,,,,,,,221,,response,,,,99,,,,,,,Space,keypress(Space),,,,,,,,---- -- ----- -- ------ - ------- --- ----------<br>------------- ------ ------ ---- ---- ------- ----- -- ----<br>-------- ------- -- ---------- --- - --- ----- ----- ----<br>---- --- --- ----- you ---- ---- ------- ----- ---- -------<br>--- --- -- ----- -- --- ---- -- --- ---- -- ------ ------<br>--- ----- -- ----,332796,332736,332515,332503,332531,332818,,32,you
screen,html.Screen,1_1_0_1_33,2021-04-23T14:49:06.364Z,,,,,,,,,,,,,,,,53,,,,,,,,,,,,,,185,,response,,,,99,,,,,,,Space,keypress(Space),,,,,,,,---- -- ----- -- ------ - ------- --- ----------<br>------------- ------ ------ ---- ---- ------- ----- -- ----<br>-------- ------- -- ---------- --- - --- ----- ----- ----<br>---- --- --- ----- --- feel ---- ------- ----- ---- -------<br>--- --- -- ----- -- --- ---- -- --- ---- -- ------ ------<br>--- ----- -- ----,333047,332987,332802,332796,332818,333070,,33,feel
screen,html.Screen,1_1_0_1_34,2021-04-23T14:49:06.992Z,,,,,,,,,,,,,,,,53,,,,,,,,,,,,,,561,,response,,,,99,,,,,,,Space,keypress(Space),,,,,,,,---- -- ----- -- ------ - ------- --- ----------<br>------------- ------ ------ ---- ---- ------- ----- -- ----<br>-------- ------- -- ---------- --- - --- ----- ----- ----<br>---- --- --- ----- --- ---- that ------- ----- ---- -------<br>--- --- -- ----- -- --- ---- -- --- ---- -- ------ ------<br>--- ----- -- ----,333675,333615,333054,333047,333070,333706,,34,that
screen,html.Screen,1_1_0_1_35,2021-04-23T14:49:07.431Z,,,,,,,,,,,,,,,,53,,,,,,,,,,,,,,364.0000000000582,,response,,,,99,,,,,,,Space,keypress(Space),,,,,,,,---- -- ----- -- ------ - ------- --- ----------<br>------------- ------ ------ ---- ---- ------- ----- -- ----<br>-------- ------- -- ---------- --- - --- ----- ----- ----<br>---- --- --- ----- --- ---- ---- matters ----- ---- -------<br>--- --- -- ----- -- --- ---- -- --- ---- -- ------ ------<br>--- ----- -- ----,334114.00000000006,334054.00000000006,333690,333675,333706,334143,,35,matters
screen,html.Screen,1_1_0_1_36,2021-04-23T14:49:07.769Z,,,,,,,,,,,,,,,,53,,,,,,,,,,,,,,265,,response,,,,99,,,,,,,Space,keypress(Space),,,,,,,,"---- -- ----- -- ------ - ------- --- ----------<br>------------- ------ ------ ---- ---- ------- ----- -- ----<br>-------- ------- -- ---------- --- - --- ----- ----- ----<br>---- --- --- ----- --- ---- ---- ------- most, ---- -------<br>--- --- -- ----- -- --- ---- -- --- ---- -- ------ ------<br>--- ----- -- ----",334452,334392,334127,334114.00000000006,334143,334479,,36,"most,"
screen,html.Screen,1_1_0_1_37,2021-04-23T14:49:08.102Z,,,,,,,,,,,,,,,,53,,,,,,,,,,,,,,262,,response,,,,99,,,,,,,Space,keypress(Space),,,,,,,,---- -- ----- -- ------ - ------- --- ----------<br>------------- ------ ------ ---- ---- ------- ----- -- ----<br>-------- ------- -- ---------- --- - --- ----- ----- ----<br>---- --- --- ----- --- ---- ---- ------- ----- it's -------<br>--- --- -- ----- -- --- ---- -- --- ---- -- ------ ------<br>--- ----- -- ----,334785,334725,334463,334452,334479,334817,,37,it's
screen,html.Screen,1_1_0_1_38,2021-04-23T14:49:08.541Z,,,,,,,,,,,,,,,,53,,,,,,,,,,,,,,364,,response,,,,99,,,,,,,Space,keypress(Space),,,,,,,,---- -- ----- -- ------ - ------- --- ----------<br>------------- ------ ------ ---- ---- ------- ----- -- ----<br>-------- ------- -- ---------- --- - --- ----- ----- ----<br>---- --- --- ----- --- ---- ---- ------- ----- ---- whether<br>--- --- -- ----- -- --- ---- -- --- ---- -- ------ ------<br>--- ----- -- ----,335224,335164,334800,334785,334817,335253,,38,whether
screen,html.Screen,1_1_0_1_39,2021-04-23T14:49:08.909Z,,,,,,,,,,,,,,,,53,,,,,,,,,,,,,,296,,response,,,,99,,,,,,,Space,keypress(Space),,,,,,,,---- -- ----- -- ------ - ------- --- ----------<br>------------- ------ ------ ---- ---- ------- ----- -- ----<br>-------- ------- -- ---------- --- - --- ----- ----- ----<br>---- --- --- ----- --- ---- ---- ------- ----- ---- -------<br>you --- -- ----- -- --- ---- -- --- ---- -- ------ ------<br>--- ----- -- ----,335592,335532,335236,335224,335253,335622,,39,you
screen,html.Screen,1_1_0_1_40,2021-04-23T14:49:09.291Z,,,,,,,,,,,,,,,,53,,,,,,,,,,,,,,310,,response,,,,99,,,,,,,Space,keypress(Space),,,,,,,,---- -- ----- -- ------ - ------- --- ----------<br>------------- ------ ------ ---- ---- ------- ----- -- ----<br>-------- ------- -- ---------- --- - --- ----- ----- ----<br>---- --- --- ----- --- ---- ---- ------- ----- ---- -------<br>--- are -- ----- -- --- ---- -- --- ---- -- ------ ------<br>--- ----- -- ----,335974,335915,335605,335592,335622,336007,,40,are
screen,html.Screen,1_1_0_1_41,2021-04-23T14:49:09.548Z,,,,,,,,,,,,,,,,53,,,,,,,,,,,,,,179,,response,,,,99,,,,,,,Space,keypress(Space),,,,,,,,---- -- ----- -- ------ - ------- --- ----------<br>------------- ------ ------ ---- ---- ------- ----- -- ----<br>-------- ------- -- ---------- --- - --- ----- ----- ----<br>---- --- --- ----- --- ---- ---- ------- ----- ---- -------<br>--- --- as ----- -- --- ---- -- --- ---- -- ------ ------<br>--- ----- -- ----,336231,336171,335992,335974,336007,336261,,41,as
screen,html.Screen,1_1_0_1_42,2021-04-23T14:49:09.840Z,,,,,,,,,,,,,,,,53,,,,,,,,,,,,,,219,,response,,,,99,,,,,,,Space,keypress(Space),,,,,,,,---- -- ----- -- ------ - ------- --- ----------<br>------------- ------ ------ ---- ---- ------- ----- -- ----<br>-------- ------- -- ---------- --- - --- ----- ----- ----<br>---- --- --- ----- --- ---- ---- ------- ----- ---- -------<br>--- --- -- close -- --- ---- -- --- ---- -- ------ ------<br>--- ----- -- ----,336523,336463,336244,336231,336261,336547,,42,close
screen,html.Screen,1_1_0_1_43,2021-04-23T14:49:10.102Z,,,,,,,,,,,,,,,,53,,,,,,,,,,,,,,194,,response,,,,99,,,,,,,Space,keypress(Space),,,,,,,,---- -- ----- -- ------ - ------- --- ----------<br>------------- ------ ------ ---- ---- ------- ----- -- ----<br>-------- ------- -- ---------- --- - --- ----- ----- ----<br>---- --- --- ----- --- ---- ---- ------- ----- ---- -------<br>--- --- -- ----- as --- ---- -- --- ---- -- ------ ------<br>--- ----- -- ----,336784,336725,336531,336523,336547,336816,,43,as
screen,html.Screen,1_1_0_1_44,2021-04-23T14:49:10.362Z,,,,,,,,,,,,,,,,53,,,,,,,,,,,,,,185,,response,,,,99,,,,,,,Space,keypress(Space),,,,,,,,---- -- ----- -- ------ - ------- --- ----------<br>------------- ------ ------ ---- ---- ------- ----- -- ----<br>-------- ------- -- ---------- --- - --- ----- ----- ----<br>---- --- --- ----- --- ---- ---- ------- ----- ---- -------<br>--- --- -- ----- -- you ---- -- --- ---- -- ------ ------<br>--- ----- -- ----,337045,336985,336800,336785,336816,337069,,44,you
screen,html.Screen,1_1_0_1_45,2021-04-23T14:49:10.649Z,,,,,,,,,,,,,,,,53,,,,,,,,,,,,,,220,,response,,,,99,,,,,,,Space,keypress(Space),,,,,,,,---- -- ----- -- ------ - ------- --- ----------<br>------------- ------ ------ ---- ---- ------- ----- -- ----<br>-------- ------- -- ---------- --- - --- ----- ----- ----<br>---- --- --- ----- --- ---- ---- ------- ----- ---- -------<br>--- --- -- ----- -- --- want -- --- ---- -- ------ ------<br>--- ----- -- ----,337332,337272,337052,337045,337069,337355,,45,want
screen,html.Screen,1_1_0_1_46,2021-04-23T14:49:10.895Z,,,,,,,,,,,,,,,,53,,,,,,,,,,,,,,179,,response,,,,99,,,,,,,Space,keypress(Space),,,,,,,,---- -- ----- -- ------ - ------- --- ----------<br>------------- ------ ------ ---- ---- ------- ----- -- ----<br>-------- ------- -- ---------- --- - --- ----- ----- ----<br>---- --- --- ----- --- ---- ---- ------- ----- ---- -------<br>--- --- -- ----- -- --- ---- to --- ---- -- ------ ------<br>--- ----- -- ----,337578.00000000006,337518,337339,337332,337355,337609,,46,to
screen,html.Screen,1_1_0_1_47,2021-04-23T14:49:11.176Z,,,,,,,,,,,,,,,,53,,,,,,,,,,,,,,207.0000000000582,,response,,,,99,,,,,,,Space,keypress(Space),,,,,,,,"---- -- ----- -- ------ - ------- --- ----------<br>------------- ------ ------ ---- ---- ------- ----- -- ----<br>-------- ------- -- ---------- --- - --- ----- ----- ----<br>---- --- --- ----- --- ---- ---- ------- ----- ---- -------<br>--- --- -- ----- -- --- ---- -- be, ---- -- ------ ------<br>--- ----- -- ----",337858,337799.00000000006,337592,337578.00000000006,337609,337878,,47,"be,"
screen,html.Screen,1_1_0_1_48,2021-04-23T14:49:11.522Z,,,,,,,,,,,,,,,,53,,,,,,,,,,,,,,283,,response,,,,99,,,,,,,Space,keypress(Space),,,,,,,,---- -- ----- -- ------ - ------- --- ----------<br>------------- ------ ------ ---- ---- ------- ----- -- ----<br>-------- ------- -- ---------- --- - --- ----- ----- ----<br>---- --- --- ----- --- ---- ---- ------- ----- ---- -------<br>--- --- -- ----- -- --- ---- -- --- even -- ------ ------<br>--- ----- -- ----,338205,338145,337862,337859,337878,338230,,48,even
screen,html.Screen,1_1_0_1_49,2021-04-23T14:49:11.829Z,,,,,,,,,,,,,,,,53,,,,,,,,,,,,,,238,,response,,,,99,,,,,,,Space,keypress(Space),,,,,,,,---- -- ----- -- ------ - ------- --- ----------<br>------------- ------ ------ ---- ---- ------- ----- -- ----<br>-------- ------- -- ---------- --- - --- ----- ----- ----<br>---- --- --- ----- --- ---- ---- ------- ----- ---- -------<br>--- --- -- ----- -- --- ---- -- --- ---- if ------ ------<br>--- ----- -- ----,338512,338452,338214,338205,338230,338534,,49,if
screen,html.Screen,1_1_0_1_50,2021-04-23T14:49:12.105Z,,,,,,,,,,,,,,,,53,,,,,,,,,,,,,,211,,response,,,,99,,,,,,,Space,keypress(Space),,,,,,,,---- -- ----- -- ------ - ------- --- ----------<br>------------- ------ ------ ---- ---- ------- ----- -- ----<br>-------- ------- -- ---------- --- - --- ----- ----- ----<br>---- --- --- ----- --- ---- ---- ------- ----- ---- -------<br>--- --- -- ----- -- --- ---- -- --- ---- -- that's ------<br>--- ----- -- ----,338788,338728,338517,338512,338534,338820,,50,that's
screen,html.Screen,1_1_0_1_51,2021-04-23T14:49:12.583Z,,,,,,,,,,,,,,,,53,,,,,,,,,,,,,,403,,response,,,,99,,,,,,,Space,keypress(Space),,,,,,,,---- -- ----- -- ------ - ------- --- ----------<br>------------- ------ ------ ---- ---- ------- ----- -- ----<br>-------- ------- -- ---------- --- - --- ----- ----- ----<br>---- --- --- ----- --- ---- ---- ------- ----- ---- -------<br>--- --- -- ----- -- --- ---- -- --- ---- -- ------ really<br>--- ----- -- ----,339265,339206,338803,338788,338820,339306,,51,really
screen,html.Screen,1_1_0_1_52,2021-04-23T14:49:12.970Z,,,,,,,,,,,,,,,,53,,,,,,,,,,,,,,304,,response,,,,99,,,,,,,Space,keypress(Space),,,,,,,,---- -- ----- -- ------ - ------- --- ----------<br>------------- ------ ------ ---- ---- ------- ----- -- ----<br>-------- ------- -- ---------- --- - --- ----- ----- ----<br>---- --- --- ----- --- ---- ---- ------- ----- ---- -------<br>--- --- -- ----- -- --- ---- -- --- ---- -- ------ ------<br>not ----- -- ----,339652,339593,339289,339266,339306,339675,,52,not
screen,html.Screen,1_1_0_1_53,2021-04-23T14:49:13.449Z,,,,,,,,,,,,,,,,53,,,,,,,,,,,,,,414,,response,,,,99,,,,,,,Space,keypress(Space),,,,,,,,---- -- ----- -- ------ - ------- --- ----------<br>------------- ------ ------ ---- ---- ------- ----- -- ----<br>-------- ------- -- ---------- --- - --- ----- ----- ----<br>---- --- --- ----- --- ---- ---- ------- ----- ---- -------<br>--- --- -- ----- -- --- ---- -- --- ---- -- ------ ------<br>--- close -- ----,340131,340072,339658,339653,339675,340162,,53,close
screen,html.Screen,1_1_0_1_54,2021-04-23T14:49:13.861Z,,,,,,,,,,,,,,,,53,,,,,,,,,,,,,,339,,response,,,,99,,,,,,,Space,keypress(Space),,,,,,,,---- -- ----- -- ------ - ------- --- ----------<br>------------- ------ ------ ---- ---- ------- ----- -- ----<br>-------- ------- -- ---------- --- - --- ----- ----- ----<br>---- --- --- ----- --- ---- ---- ------- ----- ---- -------<br>--- --- -- ----- -- --- ---- -- --- ---- -- ------ ------<br>--- ----- at ----,340543,340484,340145,340132,340162,340580,,54,at
screen,html.Screen,1_1_0_1_55,2021-04-23T14:49:14.457Z,,,,,,,,,,,,,,,,53,,,,,,,,,,,,,,516,,response,,,,99,,,,,,,Space,keypress(Space),,,,,,,,---- -- ----- -- ------ - ------- --- ----------<br>------------- ------ ------ ---- ---- ------- ----- -- ----<br>-------- ------- -- ---------- --- - --- ----- ----- ----<br>---- --- --- ----- --- ---- ---- ------- ----- ---- -------<br>--- --- -- ----- -- --- ---- -- --- ---- -- ------ ------<br>--- ----- -- all.,341140,341080,340564,340544,340580,341166,,55,all.
Item 99,flow.Loop,1_1_0_1,2021-04-23T14:49:14.457Z,,,,,,,,,,,,,,,,,,,,,,,,,,,,,,26717,,completion,,,,,F,,,,,,,,,,,silence,,,,,341140,341080,314345,314347,314363,341166,,,
Question 1,html.Screen,1_1_0_2,2021-04-23T14:49:22.330Z,,,,,,,,,,,,,,,,,,,,,,,,,,,false,FALSE,,7802,,response,,,,99,F,,,,,,TRUE,click #choice-1,,,,silence,,,,,349013.00000000006,348952,341150,341140,341166,349042,,,
Question 2,html.Screen,1_1_0_3,2021-04-23T14:49:32.059Z,,,,,,,,,,,,,,,,,,,,,,,,,,,true,TRUE,,9656,,response,,,,99,F,,,,,,TRUE,click #choice-1,,,,silence,,,,,358741,358681,349025,349013.00000000006,349042,358778,,,
Item 99,flow.Sequence,1_1_0,2021-04-23T14:49:32.059Z,,,,,,,,,,,,,,,,,,,,,,,,,,,,,,54321,,completion,,,,,,,,,,,,,,,,,,,,,358741,358681,304347,304343,304360,358778,,,
Holding screen,html.Screen,1_1_1_0,2021-04-23T14:49:42.087Z,,,,,,,,,,,,,,,,,,,,,,,,,,,,,,10007,,timeout,,,,,,,,,,,,,,,,,,,,,368769,368769,358754,358741,358778,368785,,,
screen,html.Screen,1_1_1_1_0,2021-04-23T14:49:46.596Z,,,,,,,,,,,,,,,,54,,,,,,,,,,,,,,4448,,response,,,,100,,,,,,,Space,keypress(Space),,,,,,,,At --- ---- --- ------ ----- ------- ---- -- --- ------- --<br>------- ---------- ------ -- ----- -- ----- -- ---- ------<br>--- ----- --- --- ------ -------- ----- --- ------ ----- --<br>----- ----- ---------- --- --- ------ ------ ---- -- ------<br>------- --- ------ ----- --- ---- ------- -- ---- --- --<br>------- ------,373277,373217,368769,368769,368785,373305,,0,At
screen,html.Screen,1_1_1_1_1,2021-04-23T14:49:47.025Z,,,,,,,,,,,,,,,,54,,,,,,,,,,,,,,357,,response,,,,100,,,,,,,Space,keypress(Space),,,,,,,,-- the ---- --- ------ ----- ------- ---- -- --- ------- --<br>------- ---------- ------ -- ----- -- ----- -- ---- ------<br>--- ----- --- --- ------ -------- ----- --- ------ ----- --<br>----- ----- ---------- --- --- ------ ------ ---- -- ------<br>------- --- ------ ----- --- ---- ------- -- ---- --- --<br>------- ------,373707,373646,373289,373278,373305,373740,,1,the
screen,html.Screen,1_1_1_1_2,2021-04-23T14:49:48.094Z,,,,,,,,,,,,,,,,54,,,,,,,,,,,,,,991.0000000000582,,response,,,,100,,,,,,,Space,keypress(Space),,,,,,,,-- --- time --- ------ ----- ------- ---- -- --- ------- --<br>------- ---------- ------ -- ----- -- ----- -- ---- ------<br>--- ----- --- --- ------ -------- ----- --- ------ ----- --<br>----- ----- ---------- --- --- ------ ------ ---- -- ------<br>------- --- ------ ----- --- ---- ------- -- ---- --- --<br>------- ------,374776,374715.00000000006,373724,373707,373740,374811,,2,time
screen,html.Screen,1_1_1_1_3,2021-04-23T14:49:48.551Z,,,,,,,,,,,,,,,,54,,,,,,,,,,,,,,378,,response,,,,100,,,,,,,Space,keypress(Space),,,,,,,,-- --- ---- the ------ ----- ------- ---- -- --- ------- --<br>------- ---------- ------ -- ----- -- ----- -- ---- ------<br>--- ----- --- --- ------ -------- ----- --- ------ ----- --<br>----- ----- ---------- --- --- ------ ------ ---- -- ------<br>------- --- ------ ----- --- ---- ------- -- ---- --- --<br>------- ------,375233,375172,374794,374776,374811,375263,,3,the
screen,html.Screen,1_1_1_1_4,2021-04-23T14:49:48.984Z,,,,,,,,,,,,,,,,54,,,,,,,,,,,,,,359,,response,,,,100,,,,,,,Space,keypress(Space),,,,,,,,-- --- ---- --- French ----- ------- ---- -- --- ------- --<br>------- ---------- ------ -- ----- -- ----- -- ---- ------<br>--- ----- --- --- ------ -------- ----- --- ------ ----- --<br>----- ----- ---------- --- --- ------ ------ ---- -- ------<br>------- --- ------ ----- --- ---- ------- -- ---- --- --<br>------- ------,375666,375605,375246,375233,375263,375700,,4,French
screen,html.Screen,1_1_1_1_5,2021-04-23T14:49:49.589Z,,,,,,,,,,,,,,,,54,,,,,,,,,,,,,,527,,response,,,,100,,,,,,,Space,keypress(Space),,,,,,,,-- --- ---- --- ------ crown ------- ---- -- --- ------- --<br>------- ---------- ------ -- ----- -- ----- -- ---- ------<br>--- ----- --- --- ------ -------- ----- --- ------ ----- --<br>----- ----- ---------- --- --- ------ ------ ---- -- ------<br>------- --- ------ ----- --- ---- ------- -- ---- --- --<br>------- ------,376271,376210,375683,375666,375700,376302,,5,crown
screen,html.Screen,1_1_1_1_6,2021-04-23T14:49:50.280Z,,,,,,,,,,,,,,,,54,,,,,,,,,,,,,,615,,response,,,,100,,,,,,,Space,keypress(Space),,,,,,,,-- --- ---- --- ------ ----- secured ---- -- --- ------- --<br>------- ---------- ------ -- ----- -- ----- -- ---- ------<br>--- ----- --- --- ------ -------- ----- --- ------ ----- --<br>----- ----- ---------- --- --- ------ ------ ---- -- ------<br>------- --- ------ ----- --- ---- ------- -- ---- --- --<br>------- ------,376962,376901,376286,376271,376302,376989,,6,secured
screen,html.Screen,1_1_1_1_7,2021-04-23T14:49:50.797Z,,,,,,,,,,,,,,,,54,,,,,,,,,,,,,,447,,response,,,,100,,,,,,,Space,keypress(Space),,,,,,,,-- --- ---- --- ------ ----- ------- much -- --- ------- --<br>------- ---------- ------ -- ----- -- ----- -- ---- ------<br>--- ----- --- --- ------ -------- ----- --- ------ ----- --<br>----- ----- ---------- --- --- ------ ------ ---- -- ------<br>------- --- ------ ----- --- ---- ------- -- ---- --- --<br>------- ------,377479,377418,376971,376962,376989,377508,,7,much
screen,html.Screen,1_1_1_1_8,2021-04-23T14:49:51.502Z,,,,,,,,,,,,,,,,54,,,,,,,,,,,,,,631,,response,,,,100,,,,,,,Space,keypress(Space),,,,,,,,-- --- ---- --- ------ ----- ------- ---- of --- ------- --<br>------- ---------- ------ -- ----- -- ----- -- ---- ------<br>--- ----- --- --- ------ -------- ----- --- ------ ----- --<br>----- ----- ---------- --- --- ------ ------ ---- -- ------<br>------- --- ------ ----- --- ---- ------- -- ---- --- --<br>------- ------,378184,378123,377492,377479,377508,378211,,8,of
screen,html.Screen,1_1_1_1_9,2021-04-23T14:49:54.757Z,,,,,,,,,,,,,,,,54,,,,,,,,,,,,,,3183,,response,,,,100,,,,,,,Space,keypress(Space),,,,,,,,-- --- ---- --- ------ ----- ------- ---- -- its ------- --<br>------- ---------- ------ -- ----- -- ----- -- ---- ------<br>--- ----- --- --- ------ -------- ----- --- ------ ----- --<br>----- ----- ---------- --- --- ------ ------ ---- -- ------<br>------- --- ------ ----- --- ---- ------- -- ---- --- --<br>------- ------,381438,381378,378195,378184,378211,381481,,9,its
screen,html.Screen,1_1_1_1_10,2021-04-23T14:49:55.316Z,,,,,,,,,,,,,,,,54,,,,,,,,,,,,,,472,,response,,,,100,,,,,,,Space,keypress(Space),,,,,,,,-- --- ---- --- ------ ----- ------- ---- -- --- revenue --<br>------- ---------- ------ -- ----- -- ----- -- ---- ------<br>--- ----- --- --- ------ -------- ----- --- ------ ----- --<br>----- ----- ---------- --- --- ------ ------ ---- -- ------<br>------- --- ------ ----- --- ---- ------- -- ---- --- --<br>------- ------,381997,381937,381465,381438,381481,382035,,10,revenue
screen,html.Screen,1_1_1_1_11,2021-04-23T14:49:55.711Z,,,,,,,,,,,,,,,,54,,,,,,,,,,,,,,315,,response,,,,100,,,,,,,Space,keypress(Space),,,,,,,,-- --- ---- --- ------ ----- ------- ---- -- --- ------- by<br>------- ---------- ------ -- ----- -- ----- -- ---- ------<br>--- ----- --- --- ------ -------- ----- --- ------ ----- --<br>----- ----- ---------- --- --- ------ ------ ---- -- ------<br>------- --- ------ ----- --- ---- ------- -- ---- --- --<br>------- ------,382393,382332,382017,381997,382035,382421,,11,by
screen,html.Screen,1_1_1_1_12,2021-04-23T14:49:56.078Z,,,,,,,,,,,,,,,,54,,,,,,,,,,,,,,295,,response,,,,100,,,,,,,Space,keypress(Space),,,,,,,,-- --- ---- --- ------ ----- ------- ---- -- --- ------- --<br>issuing ---------- ------ -- ----- -- ----- -- ---- ------<br>--- ----- --- --- ------ -------- ----- --- ------ ----- --<br>----- ----- ---------- --- --- ------ ------ ---- -- ------<br>------- --- ------ ----- --- ---- ------- -- ---- --- --<br>------- ------,382760,382699,382404,382393,382421,382791,,12,issuing
screen,html.Screen,1_1_1_1_13,2021-04-23T14:49:56.436Z,,,,,,,,,,,,,,,,54,,,,,,,,,,,,,,284,,response,,,,100,,,,,,,Space,keypress(Space),,,,,,,,-- --- ---- --- ------ ----- ------- ---- -- --- ------- --<br>------- government ------ -- ----- -- ----- -- ---- ------<br>--- ----- --- --- ------ -------- ----- --- ------ ----- --<br>----- ----- ---------- --- --- ------ ------ ---- -- ------<br>------- --- ------ ----- --- ---- ------- -- ---- --- --<br>------- ------,383118,383057,382773,382760,382791,383144,,13,government
screen,html.Screen,1_1_1_1_14,2021-04-23T14:49:56.785Z,,,,,,,,,,,,,,,,54,,,,,,,,,,,,,,280,,response,,,,100,,,,,,,Space,keypress(Space),,,,,,,,-- --- ---- --- ------ ----- ------- ---- -- --- ------- --<br>------- ---------- bonds. -- ----- -- ----- -- ---- ------<br>--- ----- --- --- ------ -------- ----- --- ------ ----- --<br>----- ----- ---------- --- --- ------ ------ ---- -- ------<br>------- --- ------ ----- --- ---- ------- -- ---- --- --<br>------- ------,383467,383406,383126,383118,383144,383496,,14,bonds.
screen,html.Screen,1_1_1_1_15,2021-04-23T14:49:57.166Z,,,,,,,,,,,,,,,,54,,,,,,,,,,,,,,307.0000000000582,,response,,,,100,,,,,,,Space,keypress(Space),,,,,,,,-- --- ---- --- ------ ----- ------- ---- -- --- ------- --<br>------- ---------- ------ In ----- -- ----- -- ---- ------<br>--- ----- --- --- ------ -------- ----- --- ------ ----- --<br>----- ----- ---------- --- --- ------ ------ ---- -- ------<br>------- --- ------ ----- --- ---- ------- -- ---- --- --<br>------- ------,383848,383787.00000000006,383480,383467,383496,383882,,15,In
screen,html.Screen,1_1_1_1_16,2021-04-23T14:49:57.556Z,,,,,,,,,,,,,,,,54,,,,,,,,,,,,,,313,,response,,,,100,,,,,,,Space,keypress(Space),,,,,,,,"-- --- ---- --- ------ ----- ------- ---- -- --- ------- --<br>------- ---------- ------ -- 1727, -- ----- -- ---- ------<br>--- ----- --- --- ------ -------- ----- --- ------ ----- --<br>----- ----- ---------- --- --- ------ ------ ---- -- ------<br>------- --- ------ ----- --- ---- ------- -- ---- --- --<br>------- ------",384237,384177,383864,383848,383882,384267,,16,"1727,"
screen,html.Screen,1_1_1_1_17,2021-04-23T14:49:58.643Z,,,,,,,,,,,,,,,,54,,,,,,,,,,,,,,1013,,response,,,,100,,,,,,,Space,keypress(Space),,,,,,,,-- --- ---- --- ------ ----- ------- ---- -- --- ------- --<br>------- ---------- ------ -- ----- in ----- -- ---- ------<br>--- ----- --- --- ------ -------- ----- --- ------ ----- --<br>----- ----- ---------- --- --- ------ ------ ---- -- ------<br>------- --- ------ ----- --- ---- ------- -- ---- --- --<br>------- ------,385325,385264,384251,384238,384267,385354,,17,in
screen,html.Screen,1_1_1_1_18,2021-04-23T14:49:59.182Z,,,,,,,,,,,,,,,,54,,,,,,,,,,,,,,465,,response,,,,100,,,,,,,Space,keypress(Space),,,,,,,,-- --- ---- --- ------ ----- ------- ---- -- --- ------- --<br>------- ---------- ------ -- ----- -- order -- ---- ------<br>--- ----- --- --- ------ -------- ----- --- ------ ----- --<br>----- ----- ---------- --- --- ------ ------ ---- -- ------<br>------- --- ------ ----- --- ---- ------- -- ---- --- --<br>------- ------,385863,385803,385338,385325,385354,385890,,18,order
screen,html.Screen,1_1_1_1_19,2021-04-23T14:49:59.632Z,,,,,,,,,,,,,,,,54,,,,,,,,,,,,,,380,,response,,,,100,,,,,,,Space,keypress(Space),,,,,,,,-- --- ---- --- ------ ----- ------- ---- -- --- ------- --<br>------- ---------- ------ -- ----- -- ----- to ---- ------<br>--- ----- --- --- ------ -------- ----- --- ------ ----- --<br>----- ----- ---------- --- --- ------ ------ ---- -- ------<br>------- --- ------ ----- --- ---- ------- -- ---- --- --<br>------- ------,386314,386253,385873,385864.00000000006,385890,386344,,19,to
screen,html.Screen,1_1_1_1_20,2021-04-23T14:50:00.076Z,,,,,,,,,,,,,,,,54,,,,,,,,,,,,,,370,,response,,,,100,,,,,,,Space,keypress(Space),,,,,,,,-- --- ---- --- ------ ----- ------- ---- -- --- ------- --<br>------- ---------- ------ -- ----- -- ----- -- save ------<br>--- ----- --- --- ------ -------- ----- --- ------ ----- --<br>----- ----- ---------- --- --- ------ ------ ---- -- ------<br>------- --- ------ ----- --- ---- ------- -- ---- --- --<br>------- ------,386757,386696,386326,386314,386344,386796,,20,save
screen,html.Screen,1_1_1_1_21,2021-04-23T14:50:00.478Z,,,,,,,,,,,,,,,,54,,,,,,,,,,,,,,320,,response,,,,100,,,,,,,Space,keypress(Space),,,,,,,,"-- --- ---- --- ------ ----- ------- ---- -- --- ------- --<br>------- ---------- ------ -- ----- -- ----- -- ---- money,<br>--- ----- --- --- ------ -------- ----- --- ------ ----- --<br>----- ----- ---------- --- --- ------ ------ ---- -- ------<br>------- --- ------ ----- --- ---- ------- -- ---- --- --<br>------- ------",387160,387099,386779,386757,386796,387182,,21,"money,"
screen,html.Screen,1_1_1_1_22,2021-04-23T14:50:00.943Z,,,,,,,,,,,,,,,,54,,,,,,,,,,,,,,397,,response,,,,100,,,,,,,Space,keypress(Space),,,,,,,,-- --- ---- --- ------ ----- ------- ---- -- --- ------- --<br>------- ---------- ------ -- ----- -- ----- -- ---- ------<br>the ----- --- --- ------ -------- ----- --- ------ ----- --<br>----- ----- ---------- --- --- ------ ------ ---- -- ------<br>------- --- ------ ----- --- ---- ------- -- ---- --- --<br>------- ------,387624,387563,387166,387160,387182,387651,,22,the
screen,html.Screen,1_1_1_1_23,2021-04-23T14:50:01.339Z,,,,,,,,,,,,,,,,54,,,,,,,,,,,,,,324,,response,,,,100,,,,,,,Space,keypress(Space),,,,,,,,-- --- ---- --- ------ ----- ------- ---- -- --- ------- --<br>------- ---------- ------ -- ----- -- ----- -- ---- ------<br>--- state --- --- ------ -------- ----- --- ------ ----- --<br>----- ----- ---------- --- --- ------ ------ ---- -- ------<br>------- --- ------ ----- --- ---- ------- -- ---- --- --<br>------- ------,388021,387959,387635,387625,387651,388055,,23,state
screen,html.Screen,1_1_1_1_24,2021-04-23T14:50:01.752Z,,,,,,,,,,,,,,,,54,,,,,,,,,,,,,,334,,response,,,,100,,,,,,,Space,keypress(Space),,,,,,,,-- --- ---- --- ------ ----- ------- ---- -- --- ------- --<br>------- ---------- ------ -- ----- -- ----- -- ---- ------<br>--- ----- cut --- ------ -------- ----- --- ------ ----- --<br>----- ----- ---------- --- --- ------ ------ ---- -- ------<br>------- --- ------ ----- --- ---- ------- -- ---- --- --<br>------- ------,388434,388372,388038,388021,388055,388474,,24,cut
screen,html.Screen,1_1_1_1_25,2021-04-23T14:50:02.128Z,,,,,,,,,,,,,,,,54,,,,,,,,,,,,,,292,,response,,,,100,,,,,,,Space,keypress(Space),,,,,,,,-- --- ---- --- ------ ----- ------- ---- -- --- ------- --<br>------- ---------- ------ -- ----- -- ----- -- ---- ------<br>--- ----- --- the ------ -------- ----- --- ------ ----- --<br>----- ----- ---------- --- --- ------ ------ ---- -- ------<br>------- --- ------ ----- --- ---- ------- -- ---- --- --<br>------- ------,388809,388749,388457,388434,388474,388844,,25,the
screen,html.Screen,1_1_1_1_26,2021-04-23T14:50:02.514Z,,,,,,,,,,,,,,,,54,,,,,,,,,,,,,,307,,response,,,,100,,,,,,,Space,keypress(Space),,,,,,,,-- --- ---- --- ------ ----- ------- ---- -- --- ------- --<br>------- ---------- ------ -- ----- -- ----- -- ---- ------<br>--- ----- --- --- bonds' -------- ----- --- ------ ----- --<br>----- ----- ---------- --- --- ------ ------ ---- -- ------<br>------- --- ------ ----- --- ---- ------- -- ---- --- --<br>------- ------,389195,389134,388827,388810,388844,389214,,26,bonds'
screen,html.Screen,1_1_1_1_27,2021-04-23T14:50:02.850Z,,,,,,,,,,,,,,,,54,,,,,,,,,,,,,,274,,response,,,,100,,,,,,,Space,keypress(Space),,,,,,,,-- --- ---- --- ------ ----- ------- ---- -- --- ------- --<br>------- ---------- ------ -- ----- -- ----- -- ---- ------<br>--- ----- --- --- ------ interest ----- --- ------ ----- --<br>----- ----- ---------- --- --- ------ ------ ---- -- ------<br>------- --- ------ ----- --- ---- ------- -- ---- --- --<br>------- ------,389532,389470,389196,389196,389214,389566,,27,interest
screen,html.Screen,1_1_1_1_28,2021-04-23T14:50:03.405Z,,,,,,,,,,,,,,,,54,,,,,,,,,,,,,,475.0000000000582,,response,,,,100,,,,,,,Space,keypress(Space),,,,,,,,-- --- ---- --- ------ ----- ------- ---- -- --- ------- --<br>------- ---------- ------ -- ----- -- ----- -- ---- ------<br>--- ----- --- --- ------ -------- rate. --- ------ ----- --<br>----- ----- ---------- --- --- ------ ------ ---- -- ------<br>------- --- ------ ----- --- ---- ------- -- ---- --- --<br>------- ------,390086,390025.00000000006,389550,389532,389566,390119,,28,rate.
screen,html.Screen,1_1_1_1_29,2021-04-23T14:50:03.798Z,,,,,,,,,,,,,,,,54,,,,,,,,,,,,,,316,,response,,,,100,,,,,,,Space,keypress(Space),,,,,,,,-- --- ---- --- ------ ----- ------- ---- -- --- ------- --<br>------- ---------- ------ -- ----- -- ----- -- ---- ------<br>--- ----- --- --- ------ -------- ----- The ------ ----- --<br>----- ----- ---------- --- --- ------ ------ ---- -- ------<br>------- --- ------ ----- --- ---- ------- -- ---- --- --<br>------- ------,390479,390418,390102,390086,390119,390505,,29,The
screen,html.Screen,1_1_1_1_30,2021-04-23T14:50:04.194Z,,,,,,,,,,,,,,,,54,,,,,,,,,,,,,,326,,response,,,,100,,,,,,,Space,keypress(Space),,,,,,,,-- --- ---- --- ------ ----- ------- ---- -- --- ------- --<br>------- ---------- ------ -- ----- -- ----- -- ---- ------<br>--- ----- --- --- ------ -------- ----- --- market ----- --<br>----- ----- ---------- --- --- ------ ------ ---- -- ------<br>------- --- ------ ----- --- ---- ------- -- ---- --- --<br>------- ------,390875,390814,390488,390479,390505,390907,,30,market
screen,html.Screen,1_1_1_1_31,2021-04-23T14:50:04.549Z,,,,,,,,,,,,,,,,54,,,,,,,,,,,,,,278,,response,,,,100,,,,,,,Space,keypress(Space),,,,,,,,-- --- ---- --- ------ ----- ------- ---- -- --- ------- --<br>------- ---------- ------ -- ----- -- ----- -- ---- ------<br>--- ----- --- --- ------ -------- ----- --- ------ value --<br>----- ----- ---------- --- --- ------ ------ ---- -- ------<br>------- --- ------ ----- --- ---- ------- -- ---- --- --<br>------- ------,391230,391169,390891,390875,390907,391261,,31,value
screen,html.Screen,1_1_1_1_32,2021-04-23T14:50:05.360Z,,,,,,,,,,,,,,,,54,,,,,,,,,,,,,,737,,response,,,,100,,,,,,,Space,keypress(Space),,,,,,,,-- --- ---- --- ------ ----- ------- ---- -- --- ------- --<br>------- ---------- ------ -- ----- -- ----- -- ---- ------<br>--- ----- --- --- ------ -------- ----- --- ------ ----- of<br>----- ----- ---------- --- --- ------ ------ ---- -- ------<br>------- --- ------ ----- --- ---- ------- -- ---- --- --<br>------- ------,392041,391980,391243,391231,391261,392079,,32,of
screen,html.Screen,1_1_1_1_33,2021-04-23T14:50:05.847Z,,,,,,,,,,,,,,,,54,,,,,,,,,,,,,,405,,response,,,,100,,,,,,,Space,keypress(Space),,,,,,,,-- --- ---- --- ------ ----- ------- ---- -- --- ------- --<br>------- ---------- ------ -- ----- -- ----- -- ---- ------<br>--- ----- --- --- ------ -------- ----- --- ------ ----- --<br>these ----- ---------- --- --- ------ ------ ---- -- ------<br>------- --- ------ ----- --- ---- ------- -- ---- --- --<br>------- ------,392528,392467,392062,392042.00000000006,392079,392565,,33,these
screen,html.Screen,1_1_1_1_34,2021-04-23T14:50:06.219Z,,,,,,,,,,,,,,,,54,,,,,,,,,,,,,,290,,response,,,,100,,,,,,,Space,keypress(Space),,,,,,,,-- --- ---- --- ------ ----- ------- ---- -- --- ------- --<br>------- ---------- ------ -- ----- -- ----- -- ---- ------<br>--- ----- --- --- ------ -------- ----- --- ------ ----- --<br>----- bonds ---------- --- --- ------ ------ ---- -- ------<br>------- --- ------ ----- --- ---- ------- -- ---- --- --<br>------- ------,392900.00000000006,392839,392549,392528,392565,392919,,34,bonds
screen,html.Screen,1_1_1_1_35,2021-04-23T14:50:06.589Z,,,,,,,,,,,,,,,,54,,,,,,,,,,,,,,307,,response,,,,100,,,,,,,Space,keypress(Space),,,,,,,,"-- --- ---- --- ------ ----- ------- ---- -- --- ------- --<br>------- ---------- ------ -- ----- -- ----- -- ---- ------<br>--- ----- --- --- ------ -------- ----- --- ------ ----- --<br>----- ----- plummeted, --- --- ------ ------ ---- -- ------<br>------- --- ------ ----- --- ---- ------- -- ---- --- --<br>------- ------",393270,393209,392902,392900.00000000006,392919,393290,,35,"plummeted,"
screen,html.Screen,1_1_1_1_36,2021-04-23T14:50:07.348Z,,,,,,,,,,,,,,,,54,,,,,,,,,,,,,,696,,response,,,,100,,,,,,,Space,keypress(Space),,,,,,,,-- --- ---- --- ------ ----- ------- ---- -- --- ------- --<br>------- ---------- ------ -- ----- -- ----- -- ---- ------<br>--- ----- --- --- ------ -------- ----- --- ------ ----- --<br>----- ----- ---------- and --- ------ ------ ---- -- ------<br>------- --- ------ ----- --- ---- ------- -- ---- --- --<br>------- ------,394029,393968,393272,393271,393290,394058,,36,and
screen,html.Screen,1_1_1_1_37,2021-04-23T14:50:08.300Z,,,,,,,,,,,,,,,,54,,,,,,,,,,,,,,879,,response,,,,100,,,,,,,Space,keypress(Space),,,,,,,,-- --- ---- --- ------ ----- ------- ---- -- --- ------- --<br>------- ---------- ------ -- ----- -- ----- -- ---- ------<br>--- ----- --- --- ------ -------- ----- --- ------ ----- --<br>----- ----- ---------- --- the ------ ------ ---- -- ------<br>------- --- ------ ----- --- ---- ------- -- ---- --- --<br>------- ------,394981,394920,394041,394029,394058,395012,,37,the
screen,html.Screen,1_1_1_1_38,2021-04-23T14:50:08.908Z,,,,,,,,,,,,,,,,54,,,,,,,,,,,,,,532,,response,,,,100,,,,,,,Space,keypress(Space),,,,,,,,-- --- ---- --- ------ ----- ------- ---- -- --- ------- --<br>------- ---------- ------ -- ----- -- ----- -- ---- ------<br>--- ----- --- --- ------ -------- ----- --- ------ ----- --<br>----- ----- ---------- --- --- market ------ ---- -- ------<br>------- --- ------ ----- --- ---- ------- -- ---- --- --<br>------- ------,395589,395528,394996,394981,395012,395632,,38,market
screen,html.Screen,1_1_1_1_39,2021-04-23T14:50:09.366Z,,,,,,,,,,,,,,,,54,,,,,,,,,,,,,,373,,response,,,,100,,,,,,,Space,keypress(Space),,,,,,,,-- --- ---- --- ------ ----- ------- ---- -- --- ------- --<br>------- ---------- ------ -- ----- -- ----- -- ---- ------<br>--- ----- --- --- ------ -------- ----- --- ------ ----- --<br>----- ----- ---------- --- --- ------ became ---- -- ------<br>------- --- ------ ----- --- ---- ------- -- ---- --- --<br>------- ------,396047,395987,395614,395589,395632,396085,,39,became
screen,html.Screen,1_1_1_1_40,2021-04-23T14:50:09.774Z,,,,,,,,,,,,,,,,54,,,,,,,,,,,,,,328,,response,,,,100,,,,,,,Space,keypress(Space),,,,,,,,-- --- ---- --- ------ ----- ------- ---- -- --- ------- --<br>------- ---------- ------ -- ----- -- ----- -- ---- ------<br>--- ----- --- --- ------ -------- ----- --- ------ ----- --<br>----- ----- ---------- --- --- ------ ------ wary -- ------<br>------- --- ------ ----- --- ---- ------- -- ---- --- --<br>------- ------,396456,396395,396067,396048,396085,396488,,40,wary
screen,html.Screen,1_1_1_1_41,2021-04-23T14:50:10.201Z,,,,,,,,,,,,,,,,54,,,,,,,,,,,,,,351,,response,,,,100,,,,,,,Space,keypress(Space),,,,,,,,-- --- ---- --- ------ ----- ------- ---- -- --- ------- --<br>------- ---------- ------ -- ----- -- ----- -- ---- ------<br>--- ----- --- --- ------ -------- ----- --- ------ ----- --<br>----- ----- ---------- --- --- ------ ------ ---- of ------<br>------- --- ------ ----- --- ---- ------- -- ---- --- --<br>------- ------,396882,396821,396470,396456,396488,396923,,41,of
screen,html.Screen,1_1_1_1_42,2021-04-23T14:50:10.598Z,,,,,,,,,,,,,,,,54,,,,,,,,,,,,,,312,,response,,,,100,,,,,,,Space,keypress(Space),,,,,,,,-- --- ---- --- ------ ----- ------- ---- -- --- ------- --<br>------- ---------- ------ -- ----- -- ----- -- ---- ------<br>--- ----- --- --- ------ -------- ----- --- ------ ----- --<br>----- ----- ---------- --- --- ------ ------ ---- -- French<br>------- --- ------ ----- --- ---- ------- -- ---- --- --<br>------- ------,397280.00000000006,397218,396906,396882,396923,397310,,42,French
screen,html.Screen,1_1_1_1_43,2021-04-23T14:50:10.932Z,,,,,,,,,,,,,,,,54,,,,,,,,,,,,,,259,,response,,,,100,,,,,,,Space,keypress(Space),,,,,,,,-- --- ---- --- ------ ----- ------- ---- -- --- ------- --<br>------- ---------- ------ -- ----- -- ----- -- ---- ------<br>--- ----- --- --- ------ -------- ----- --- ------ ----- --<br>----- ----- ---------- --- --- ------ ------ ---- -- ------<br>credit. --- ------ ----- --- ---- ------- -- ---- --- --<br>------- ------,397613,397552,397293,397280.00000000006,397310,397645,,43,credit.
screen,html.Screen,1_1_1_1_44,2021-04-23T14:50:11.249Z,,,,,,,,,,,,,,,,54,,,,,,,,,,,,,,241,,response,,,,100,,,,,,,Space,keypress(Space),,,,,,,,-- --- ---- --- ------ ----- ------- ---- -- --- ------- --<br>------- ---------- ------ -- ----- -- ----- -- ---- ------<br>--- ----- --- --- ------ -------- ----- --- ------ ----- --<br>----- ----- ---------- --- --- ------ ------ ---- -- ------<br>------- The ------ ----- --- ---- ------- -- ---- --- --<br>------- ------,397931,397870,397629,397613,397645,397949,,44,The
screen,html.Screen,1_1_1_1_45,2021-04-23T14:50:11.517Z,,,,,,,,,,,,,,,,54,,,,,,,,,,,,,,205,,response,,,,100,,,,,,,Space,keypress(Space),,,,,,,,-- --- ---- --- ------ ----- ------- ---- -- --- ------- --<br>------- ---------- ------ -- ----- -- ----- -- ---- ------<br>--- ----- --- --- ------ -------- ----- --- ------ ----- --<br>----- ----- ---------- --- --- ------ ------ ---- -- ------<br>------- --- French ----- --- ---- ------- -- ---- --- --<br>------- ------,398198.00000000006,398137,397932,397931,397949,398218,,45,French
screen,html.Screen,1_1_1_1_46,2021-04-23T14:50:11.763Z,,,,,,,,,,,,,,,,54,,,,,,,,,,,,,,182,,response,,,,100,,,,,,,Space,keypress(Space),,,,,,,,-- --- ---- --- ------ ----- ------- ---- -- --- ------- --<br>------- ---------- ------ -- ----- -- ----- -- ---- ------<br>--- ----- --- --- ------ -------- ----- --- ------ ----- --<br>----- ----- ---------- --- --- ------ ------ ---- -- ------<br>------- --- ------ state --- ---- ------- -- ---- --- --<br>------- ------,398444,398383,398201,398198.00000000006,398218,398471,,46,state
screen,html.Screen,1_1_1_1_47,2021-04-23T14:50:12.019Z,,,,,,,,,,,,,,,,54,,,,,,,,,,,,,,185,,response,,,,100,,,,,,,Space,keypress(Space),,,,,,,,-- --- ---- --- ------ ----- ------- ---- -- --- ------- --<br>------- ---------- ------ -- ----- -- ----- -- ---- ------<br>--- ----- --- --- ------ -------- ----- --- ------ ----- --<br>----- ----- ---------- --- --- ------ ------ ---- -- ------<br>------- --- ------ ----- was ---- ------- -- ---- --- --<br>------- ------,398700,398639,398454,398444,398471,398724,,47,was
screen,html.Screen,1_1_1_1_48,2021-04-23T14:50:12.254Z,,,,,,,,,,,,,,,,54,,,,,,,,,,,,,,167,,response,,,,100,,,,,,,Space,keypress(Space),,,,,,,,-- --- ---- --- ------ ----- ------- ---- -- --- ------- --<br>------- ---------- ------ -- ----- -- ----- -- ---- ------<br>--- ----- --- --- ------ -------- ----- --- ------ ----- --<br>----- ----- ---------- --- --- ------ ------ ---- -- ------<br>------- --- ------ ----- --- left ------- -- ---- --- --<br>------- ------,398935,398874,398707,398700,398724,398960,,48,left
screen,html.Screen,1_1_1_1_49,2021-04-23T14:50:12.702Z,,,,,,,,,,,,,,,,54,,,,,,,,,,,,,,379,,response,,,,100,,,,,,,Space,keypress(Space),,,,,,,,-- --- ---- --- ------ ----- ------- ---- -- --- ------- --<br>------- ---------- ------ -- ----- -- ----- -- ---- ------<br>--- ----- --- --- ------ -------- ----- --- ------ ----- --<br>----- ----- ---------- --- --- ------ ------ ---- -- ------<br>------- --- ------ ----- --- ---- without -- ---- --- --<br>------- ------,399383,399322,398943,398935,398960,399411,,49,without
screen,html.Screen,1_1_1_1_50,2021-04-23T14:50:13.059Z,,,,,,,,,,,,,,,,54,,,,,,,,,,,,,,284.0000000000582,,response,,,,100,,,,,,,Space,keypress(Space),,,,,,,,-- --- ---- --- ------ ----- ------- ---- -- --- ------- --<br>------- ---------- ------ -- ----- -- ----- -- ---- ------<br>--- ----- --- --- ------ -------- ----- --- ------ ----- --<br>----- ----- ---------- --- --- ------ ------ ---- -- ------<br>------- --- ------ ----- --- ---- ------- an ---- --- --<br>------- ------,399740,399679.00000000006,399395,399383,399411,399764,,50,an
screen,html.Screen,1_1_1_1_51,2021-04-23T14:50:13.361Z,,,,,,,,,,,,,,,,54,,,,,,,,,,,,,,234,,response,,,,100,,,,,,,Space,keypress(Space),,,,,,,,-- --- ---- --- ------ ----- ------- ---- -- --- ------- --<br>------- ---------- ------ -- ----- -- ----- -- ---- ------<br>--- ----- --- --- ------ -------- ----- --- ------ ----- --<br>----- ----- ---------- --- --- ------ ------ ---- -- ------<br>------- --- ------ ----- --- ---- ------- -- easy --- --<br>------- ------,400043,399982,399748,399740,399764,400067,,51,easy
screen,html.Screen,1_1_1_1_52,2021-04-23T14:50:13.681Z,,,,,,,,,,,,,,,,54,,,,,,,,,,,,,,250,,response,,,,100,,,,,,,Space,keypress(Space),,,,,,,,-- --- ---- --- ------ ----- ------- ---- -- --- ------- --<br>------- ---------- ------ -- ----- -- ----- -- ---- ------<br>--- ----- --- --- ------ -------- ----- --- ------ ----- --<br>----- ----- ---------- --- --- ------ ------ ---- -- ------<br>------- --- ------ ----- --- ---- ------- -- ---- way --<br>------- ------,400362,400301,400051,400043,400067,400387,,52,way
screen,html.Screen,1_1_1_1_53,2021-04-23T14:50:13.956Z,,,,,,,,,,,,,,,,54,,,,,,,,,,,,,,206,,response,,,,100,,,,,,,Space,keypress(Space),,,,,,,,-- --- ---- --- ------ ----- ------- ---- -- --- ------- --<br>------- ---------- ------ -- ----- -- ----- -- ---- ------<br>--- ----- --- --- ------ -------- ----- --- ------ ----- --<br>----- ----- ---------- --- --- ------ ------ ---- -- ------<br>------- --- ------ ----- --- ---- ------- -- ---- --- of<br>------- ------,400637,400576,400370,400362,400387,400657,,53,of
screen,html.Screen,1_1_1_1_54,2021-04-23T14:50:14.278Z,,,,,,,,,,,,,,,,54,,,,,,,,,,,,,,260,,response,,,,100,,,,,,,Space,keypress(Space),,,,,,,,-- --- ---- --- ------ ----- ------- ---- -- --- ------- --<br>------- ---------- ------ -- ----- -- ----- -- ---- ------<br>--- ----- --- --- ------ -------- ----- --- ------ ----- --<br>----- ----- ---------- --- --- ------ ------ ---- -- ------<br>------- --- ------ ----- --- ---- ------- -- ---- --- --<br>raising ------,400960.00000000006,400899,400639,400637,400657,400992,,54,raising
screen,html.Screen,1_1_1_1_55,2021-04-23T14:50:14.601Z,,,,,,,,,,,,,,,,54,,,,,,,,,,,,,,246,,response,,,,100,,,,,,,Space,keypress(Space),,,,,,,,-- --- ---- --- ------ ----- ------- ---- -- --- ------- --<br>------- ---------- ------ -- ----- -- ----- -- ---- ------<br>--- ----- --- --- ------ -------- ----- --- ------ ----- --<br>----- ----- ---------- --- --- ------ ------ ---- -- ------<br>------- --- ------ ----- --- ---- ------- -- ---- --- --<br>------- money.,401282,401221,400975,400960.00000000006,400992,401312,,55,money.
Item 100,flow.Loop,1_1_1_1,2021-04-23T14:50:14.601Z,,,,,,,,,,,,,,,,,,,,,,,,,,,,,,32436,,completion,,,,,F,,,,,,,,,,,silence,,,,,401282,401221,368769,368769,368785,401312,,,
Question 1,html.Screen,1_1_1_2,2021-04-23T14:50:17.123Z,,,,,,,,,,,,,,,,,,,,,,,,,,,true,TRUE,,2448,,response,,,,100,F,,,,,,TRUE,click #choice-1,,,,silence,,,,,403804.00000000006,403743,401295,401282,401312,403828,,,
Question 2,html.Screen,1_1_1_3,2021-04-23T14:50:19.261Z,,,,,,,,,,,,,,,,,,,,,,,,,,,true,FALSE,,2071,,response,,,,100,F,,,,,,FALSE,click #choice-2,,,,silence,,,,,405942,405881,403810,403804.00000000006,403828,405971,,,
Item 100,flow.Sequence,1_1_1,2021-04-23T14:50:19.262Z,,,,,,,,,,,,,,,,,,,,,,,,,,,,,,47103,,completion,,,,,,,,,,,,,,,,,,,,,405943,405881,358754,358741,358778,405971,,,
End of Practice,html.Page,1_1_2,2021-04-23T14:50:21.796Z,,,,,,,,,,,,,,,,,,,,,,,,,,,,,,2506.000000000058,,form submission,,,,,,,,,,,,,,,,,,,,,408477.00000000006,408477.00000000006,405954,405943,405971,408504,,,
Practice,flow.Sequence,1_1,2021-04-23T14:50:21.796Z,,,,,,,,,,,,,,,,,,,,,,,,,,,,,,104117.00000000006,,completion,,,,,,,,,,,,,,,,,,,,,408477.00000000006,408477.00000000006,304347,304343,304360,408504,,,
Trap_instruction,html.Page,1_2_0,2021-04-23T14:50:23.274Z,,,,,,,,,,,,,,,,,,,,,,,,,,,,,,1451,,form submission,,,,,,,,,,,,,,,,,,,,,409955,409955,408486,408477.00000000006,408504,409977,,,
trap_trial,html.Screen,1_2_1,2021-04-23T14:50:28.355Z,,,,,,,,,,,,,,,,,,,,,,,,,,,true,1,,5013,,response,,,,,,,,,,,1,click #choice-1,,,,,,,,,415036,414974,409961,409955,409977,415078,,,
end of trap trial,html.Page,1_2_2,2021-04-23T14:50:29.994Z,,,,,,,,,,,,,,,,,,,,,,,,,,,,,,1596.0000000000582,,form submission,,,,,,,,,,,,,,,,,,,,,416675,416674.00000000006,415073,415036,415078,416695,,,
Trap 1,flow.Sequence,1_2,2021-04-23T14:50:29.994Z,,,,,,,,,,,,,,,,,,,,,,,,,,,,,,8170.000000000058,,completion,,,,,,,,,,,,,,,,,,,,,416675,416674.00000000006,408486,408477.00000000006,408504,416695,,,
Standby,html.Page,1_3_0,2021-04-23T14:50:38.006Z,,,,,,,,,,,,,,,,,,,,,,,,,,,,,,8008,,timeout,,,,,,,,,,,,,,,,,,,,,424686.00000000006,424686,416678,416675,416695,424703,,,
Holding screen,html.Screen,1_3_1_0_0,2021-04-23T14:50:44.999Z,,,,,,,,,,,,,,,,,,,,,,,,,,,,,,6993,,timeout,,,,,,,,,,,,,,,,,,,,,431680,431680,424686,424687,424703,431696,,,
screen,html.Screen,1_3_1_0_1_0,2021-04-23T14:50:52.006Z,,,,,,,,,,,,,,,,11,,,,,,,,,,,,,,7007,,timeout,,,,4,F,,,,,,,,,,,instrumental,,,,Known -- ---- --- -- --- -------- ------------ ---------- --<br>- ------- ------ --------- -- ------------ -- --- ---- -----<br>------ ---- ---- ------ ------ ------- --- ----- ---------<br>---- --- -------- -------- --- --- -- ------- --- --- -----<br>-- --- ------ ------- --- --- -------- ---- --------- --<br>---------- -- -------- ----------------,438687,438686,431680,431680,431696,438703,,0,Known
screen,html.Screen,1_3_1_0_1_1,2021-04-23T14:50:53.993Z,,,,,,,,,,,,,,,,11,,,,,,,,,,,,,,1925,,response,,,,4,F,,,,,,Space,keypress(Space),,,,instrumental,,,,----- as ---- --- -- --- -------- ------------ ---------- --<br>- ------- ------ --------- -- ------------ -- --- ---- -----<br>------ ---- ---- ------ ------ ------- --- ----- ---------<br>---- --- -------- -------- --- --- -- ------- --- --- -----<br>-- --- ------ ------- --- --- -------- ---- --------- --<br>---------- -- -------- ----------------,440673,440611,438686,438687,438703,440707,,1,as
screen,html.Screen,1_3_1_0_1_2,2021-04-23T14:50:54.406Z,,,,,,,,,,,,,,,,11,,,,,,,,,,,,,,332,,response,,,,4,F,,,,,,Space,keypress(Space),,,,instrumental,,,,----- -- Rapa --- -- --- -------- ------------ ---------- --<br>- ------- ------ --------- -- ------------ -- --- ---- -----<br>------ ---- ---- ------ ------ ------- --- ----- ---------<br>---- --- -------- -------- --- --- -- ------- --- --- -----<br>-- --- ------ ------- --- --- -------- ---- --------- --<br>---------- -- -------- ----------------,441086,441024,440692,440674.00000000006,440707,441120,,2,Rapa
screen,html.Screen,1_3_1_0_1_3,2021-04-23T14:50:54.979Z,,,,,,,,,,,,,,,,11,,,,,,,,,,,,,,494.0000000000582,,response,,,,4,F,,,,,,Space,keypress(Space),,,,instrumental,,,,----- -- ---- Nui -- --- -------- ------------ ---------- --<br>- ------- ------ --------- -- ------------ -- --- ---- -----<br>------ ---- ---- ------ ------ ------- --- ----- ---------<br>---- --- -------- -------- --- --- -- ------- --- --- -----<br>-- --- ------ ------- --- --- -------- ---- --------- --<br>---------- -- -------- ----------------,441659,441597.00000000006,441103,441086,441120,441689,,3,Nui
screen,html.Screen,1_3_1_0_1_4,2021-04-23T14:50:55.333Z,,,,,,,,,,,,,,,,11,,,,,,,,,,,,,,278,,response,,,,4,F,,,,,,Space,keypress(Space),,,,instrumental,,,,----- -- ---- --- to --- -------- ------------ ---------- --<br>- ------- ------ --------- -- ------------ -- --- ---- -----<br>------ ---- ---- ------ ------ ------- --- ----- ---------<br>---- --- -------- -------- --- --- -- ------- --- --- -----<br>-- --- ------ ------- --- --- -------- ---- --------- --<br>---------- -- -------- ----------------,442013.00000000006,441951,441673,441660,441689,442042,,4,to
screen,html.Screen,1_3_1_0_1_5,2021-04-23T14:50:55.690Z,,,,,,,,,,,,,,,,11,,,,,,,,,,,,,,282,,response,,,,4,F,,,,,,Space,keypress(Space),,,,instrumental,,,,----- -- ---- --- -- the -------- ------------ ---------- --<br>- ------- ------ --------- -- ------------ -- --- ---- -----<br>------ ---- ---- ------ ------ ------- --- ----- ---------<br>---- --- -------- -------- --- --- -- ------- --- --- -----<br>-- --- ------ ------- --- --- -------- ---- --------- --<br>---------- -- -------- ----------------,442371,442308,442026,442013.00000000006,442042,442395,,5,the
screen,html.Screen,1_3_1_0_1_6,2021-04-23T14:50:56.078Z,,,,,,,,,,,,,,,,11,,,,,,,,,,,,,,317,,response,,,,4,F,,,,,,Space,keypress(Space),,,,instrumental,,,,----- -- ---- --- -- --- island's ------------ ---------- --<br>- ------- ------ --------- -- ------------ -- --- ---- -----<br>------ ---- ---- ------ ------ ------- --- ----- ---------<br>---- --- -------- -------- --- --- -- ------- --- --- -----<br>-- --- ------ ------- --- --- -------- ---- --------- --<br>---------- -- -------- ----------------,442758,442696,442379,442371,442395,442782,,6,island's
screen,html.Screen,1_3_1_0_1_7,2021-04-23T14:50:56.444Z,,,,,,,,,,,,,,,,11,,,,,,,,,,,,,,297,,response,,,,4,F,,,,,,Space,keypress(Space),,,,instrumental,,,,"----- -- ---- --- -- --- -------- inhabitants, ---------- --<br>- ------- ------ --------- -- ------------ -- --- ---- -----<br>------ ---- ---- ------ ------ ------- --- ----- ---------<br>---- --- -------- -------- --- --- -- ------- --- --- -----<br>-- --- ------ ------- --- --- -------- ---- --------- --<br>---------- -- -------- ----------------",443125,443062,442765,442758,442782,443151,,7,"inhabitants,"
screen,html.Screen,1_3_1_0_1_8,2021-04-23T14:50:57.001Z,,,,,,,,,,,,,,,,11,,,,,,,,,,,,,,483,,response,,,,4,F,,,,,,Space,keypress(Space),,,,instrumental,,,,----- -- ---- --- -- --- -------- ------------ Rongorongo --<br>- ------- ------ --------- -- ------------ -- --- ---- -----<br>------ ---- ---- ------ ------ ------- --- ----- ---------<br>---- --- -------- -------- --- --- -- ------- --- --- -----<br>-- --- ------ ------- --- --- -------- ---- --------- --<br>---------- -- -------- ----------------,443681,443618,443135,443125,443151,443720,,8,Rongorongo
screen,html.Screen,1_3_1_0_1_9,2021-04-23T14:50:57.425Z,,,,,,,,,,,,,,,,11,,,,,,,,,,,,,,340,,response,,,,4,F,,,,,,Space,keypress(Space),,,,instrumental,,,,----- -- ---- --- -- --- -------- ------------ ---------- is<br>- ------- ------ --------- -- ------------ -- --- ---- -----<br>------ ---- ---- ------ ------ ------- --- ----- ---------<br>---- --- -------- -------- --- --- -- ------- --- --- -----<br>-- --- ------ ------- --- --- -------- ---- --------- --<br>---------- -- -------- ----------------,444106,444043,443703,443681,443720,444139,,9,is
screen,html.Screen,1_3_1_0_1_10,2021-04-23T14:50:57.826Z,,,,,,,,,,,,,,,,11,,,,,,,,,,,,,,321,,response,,,,4,F,,,,,,Space,keypress(Space),,,,instrumental,,,,----- -- ---- --- -- --- -------- ------------ ---------- --<br>a ------- ------ --------- -- ------------ -- --- ---- -----<br>------ ---- ---- ------ ------ ------- --- ----- ---------<br>---- --- -------- -------- --- --- -- ------- --- --- -----<br>-- --- ------ ------- --- --- -------- ---- --------- --<br>---------- -- -------- ----------------,444506,444444,444123,444106,444139,444526,,10,a
screen,html.Screen,1_3_1_0_1_11,2021-04-23T14:50:58.156Z,,,,,,,,,,,,,,,,11,,,,,,,,,,,,,,265,,response,,,,4,F,,,,,,Space,keypress(Space),,,,instrumental,,,,----- -- ---- --- -- --- -------- ------------ ---------- --<br>- writing ------ --------- -- ------------ -- --- ---- -----<br>------ ---- ---- ------ ------ ------- --- ----- ---------<br>---- --- -------- -------- --- --- -- ------- --- --- -----<br>-- --- ------ ------- --- --- -------- ---- --------- --<br>---------- -- -------- ----------------,444836,444774,444509,444507,444526,444862,,11,writing
screen,html.Screen,1_3_1_0_1_12,2021-04-23T14:50:58.488Z,,,,,,,,,,,,,,,,11,,,,,,,,,,,,,,260,,response,,,,4,F,,,,,,Space,keypress(Space),,,,instrumental,,,,----- -- ---- --- -- --- -------- ------------ ---------- --<br>- ------- system --------- -- ------------ -- --- ---- -----<br>------ ---- ---- ------ ------ ------- --- ----- ---------<br>---- --- -------- -------- --- --- -- ------- --- --- -----<br>-- --- ------ ------- --- --- -------- ---- --------- --<br>---------- -- -------- ----------------,445168,445106,444846,444836,444862,445198,,12,system
screen,html.Screen,1_3_1_0_1_13,2021-04-23T14:50:58.836Z,,,,,,,,,,,,,,,,11,,,,,,,,,,,,,,272,,response,,,,4,F,,,,,,Space,keypress(Space),,,,instrumental,,,,----- -- ---- --- -- --- -------- ------------ ---------- --<br>- ------- ------ comprised -- ------------ -- --- ---- -----<br>------ ---- ---- ------ ------ ------- --- ----- ---------<br>---- --- -------- -------- --- --- -- ------- --- --- -----<br>-- --- ------ ------- --- --- -------- ---- --------- --<br>---------- -- -------- ----------------,445516,445454,445182,445168,445198,445535,,13,comprised
screen,html.Screen,1_3_1_0_1_14,2021-04-23T14:50:59.236Z,,,,,,,,,,,,,,,,11,,,,,,,,,,,,,,337,,response,,,,4,F,,,,,,Space,keypress(Space),,,,instrumental,,,,----- -- ---- --- -- --- -------- ------------ ---------- --<br>- ------- ------ --------- of ------------ -- --- ---- -----<br>------ ---- ---- ------ ------ ------- --- ----- ---------<br>---- --- -------- -------- --- --- -- ------- --- --- -----<br>-- --- ------ ------- --- --- -------- ---- --------- --<br>---------- -- -------- ----------------,445916,445854,445517,445516,445535,445954,,14,of
screen,html.Screen,1_3_1_0_1_15,2021-04-23T14:50:59.786Z,,,,,,,,,,,,,,,,11,,,,,,,,,,,,,,466,,response,,,,4,F,,,,,,Space,keypress(Space),,,,instrumental,,,,----- -- ---- --- -- --- -------- ------------ ---------- --<br>- ------- ------ --------- -- pictographs. -- --- ---- -----<br>------ ---- ---- ------ ------ ------- --- ----- ---------<br>---- --- -------- -------- --- --- -- ------- --- --- -----<br>-- --- ------ ------- --- --- -------- ---- --------- --<br>---------- -- -------- ----------------,446466,446404,445938,445917.00000000006,445954,446507,,15,pictographs.
screen,html.Screen,1_3_1_0_1_16,2021-04-23T14:51:00.338Z,,,,,,,,,,,,,,,,11,,,,,,,,,,,,,,466,,response,,,,4,F,,,,,,Space,keypress(Space),,,,instrumental,,,,----- -- ---- --- -- --- -------- ------------ ---------- --<br>- ------- ------ --------- -- ------------ It --- ---- -----<br>------ ---- ---- ------ ------ ------- --- ----- ---------<br>---- --- -------- -------- --- --- -- ------- --- --- -----<br>-- --- ------ ------- --- --- -------- ---- --------- --<br>---------- -- -------- ----------------,447018,446956,446490,446466,446507,447059,,16,It
screen,html.Screen,1_3_1_0_1_17,2021-04-23T14:51:00.892Z,,,,,,,,,,,,,,,,11,,,,,,,,,,,,,,467,,response,,,,4,F,,,,,,Space,keypress(Space),,,,instrumental,,,,----- -- ---- --- -- --- -------- ------------ ---------- --<br>- ------- ------ --------- -- ------------ -- has ---- -----<br>------ ---- ---- ------ ------ ------- --- ----- ---------<br>---- --- -------- -------- --- --- -- ------- --- --- -----<br>-- --- ------ ------- --- --- -------- ---- --------- --<br>---------- -- -------- ----------------,447572,447510,447043,447019,447059,447613,,17,has
screen,html.Screen,1_3_1_0_1_18,2021-04-23T14:51:01.251Z,,,,,,,,,,,,,,,,11,,,,,,,,,,,,,,273,,response,,,,4,F,,,,,,Space,keypress(Space),,,,instrumental,,,,----- -- ---- --- -- --- -------- ------------ ---------- --<br>- ------- ------ --------- -- ------------ -- --- been -----<br>------ ---- ---- ------ ------ ------- --- ----- ---------<br>---- --- -------- -------- --- --- -- ------- --- --- -----<br>-- --- ------ ------- --- --- -------- ---- --------- --<br>---------- -- -------- ----------------,447931,447869,447596,447573.00000000006,447613,447966,,18,been
screen,html.Screen,1_3_1_0_1_19,2021-04-23T14:51:01.607Z,,,,,,,,,,,,,,,,11,,,,,,,,,,,,,,277,,response,,,,4,F,,,,,,Space,keypress(Space),,,,instrumental,,,,----- -- ---- --- -- --- -------- ------------ ---------- --<br>- ------- ------ --------- -- ------------ -- --- ---- found<br>------ ---- ---- ------ ------ ------- --- ----- ---------<br>---- --- -------- -------- --- --- -- ------- --- --- -----<br>-- --- ------ ------- --- --- -------- ---- --------- --<br>---------- -- -------- ----------------,448287.00000000006,448225,447948,447931,447966,448319,,19,found
screen,html.Screen,1_3_1_0_1_20,2021-04-23T14:51:02.174Z,,,,,,,,,,,,,,,,11,,,,,,,,,,,,,,491.0000000000582,,response,,,,4,F,,,,,,Space,keypress(Space),,,,instrumental,,,,----- -- ---- --- -- --- -------- ------------ ---------- --<br>- ------- ------ --------- -- ------------ -- --- ---- -----<br>carved ---- ---- ------ ------ ------- --- ----- ---------<br>---- --- -------- -------- --- --- -- ------- --- --- -----<br>-- --- ------ ------- --- --- -------- ---- --------- --<br>---------- -- -------- ----------------,448854,448792.00000000006,448301,448288,448319,448888,,20,carved
screen,html.Screen,1_3_1_0_1_21,2021-04-23T14:51:02.509Z,,,,,,,,,,,,,,,,11,,,,,,,,,,,,,,257,,response,,,,4,F,,,,,,Space,keypress(Space),,,,instrumental,,,,----- -- ---- --- -- --- -------- ------------ ---------- --<br>- ------- ------ --------- -- ------------ -- --- ---- -----<br>------ into ---- ------ ------ ------- --- ----- ---------<br>---- --- -------- -------- --- --- -- ------- --- --- -----<br>-- --- ------ ------- --- --- -------- ---- --------- --<br>---------- -- -------- ----------------,449189,449127,448870,448854,448888,449224,,21,into
screen,html.Screen,1_3_1_0_1_22,2021-04-23T14:51:02.848Z,,,,,,,,,,,,,,,,11,,,,,,,,,,,,,,260,,response,,,,4,F,,,,,,Space,keypress(Space),,,,instrumental,,,,----- -- ---- --- -- --- -------- ------------ ---------- --<br>- ------- ------ --------- -- ------------ -- --- ---- -----<br>------ ---- many ------ ------ ------- --- ----- ---------<br>---- --- -------- -------- --- --- -- ------- --- --- -----<br>-- --- ------ ------- --- --- -------- ---- --------- --<br>---------- -- -------- ----------------,449528,449466,449206,449189,449224,449560,,22,many
screen,html.Screen,1_3_1_0_1_23,2021-04-23T14:51:03.340Z,,,,,,,,,,,,,,,,11,,,,,,,,,,,,,,416,,response,,,,4,F,,,,,,Space,keypress(Space),,,,instrumental,,,,----- -- ---- --- -- --- -------- ------------ ---------- --<br>- ------- ------ --------- -- ------------ -- --- ---- -----<br>------ ---- ---- oblong ------ ------- --- ----- ---------<br>---- --- -------- -------- --- --- -- ------- --- --- -----<br>-- --- ------ ------- --- --- -------- ---- --------- --<br>---------- -- -------- ----------------,450020,449958,449542,449528,449560,450063,,23,oblong
screen,html.Screen,1_3_1_0_1_24,2021-04-23T14:51:03.926Z,,,,,,,,,,,,,,,,11,,,,,,,,,,,,,,498,,response,,,,4,F,,,,,,Space,keypress(Space),,,,instrumental,,,,----- -- ---- --- -- --- -------- ------------ ---------- --<br>- ------- ------ --------- -- ------------ -- --- ---- -----<br>------ ---- ---- ------ wooden ------- --- ----- ---------<br>---- --- -------- -------- --- --- -- ------- --- --- -----<br>-- --- ------ ------- --- --- -------- ---- --------- --<br>---------- -- -------- ----------------,450606,450544,450046,450020,450063,450649,,24,wooden
screen,html.Screen,1_3_1_0_1_25,2021-04-23T14:51:04.557Z,,,,,,,,,,,,,,,,11,,,,,,,,,,,,,,543,,response,,,,4,F,,,,,,Space,keypress(Space),,,,instrumental,,,,----- -- ---- --- -- --- -------- ------------ ---------- --<br>- ------- ------ --------- -- ------------ -- --- ---- -----<br>------ ---- ---- ------ ------ tablets --- ----- ---------<br>---- --- -------- -------- --- --- -- ------- --- --- -----<br>-- --- ------ ------- --- --- -------- ---- --------- --<br>---------- -- -------- ----------------,451237,451175,450632,450606,450649,451268,,25,tablets
screen,html.Screen,1_3_1_0_1_26,2021-04-23T14:51:04.989Z,,,,,,,,,,,,,,,,11,,,,,,,,,,,,,,356,,response,,,,4,F,,,,,,Space,keypress(Space),,,,instrumental,,,,----- -- ---- --- -- --- -------- ------------ ---------- --<br>- ------- ------ --------- -- ------------ -- --- ---- -----<br>------ ---- ---- ------ ------ ------- and ----- ---------<br>---- --- -------- -------- --- --- -- ------- --- --- -----<br>-- --- ------ ------- --- --- -------- ---- --------- --<br>---------- -- -------- ----------------,451669,451607,451251,451237,451268,451704,,26,and
screen,html.Screen,1_3_1_0_1_27,2021-04-23T14:51:05.412Z,,,,,,,,,,,,,,,,11,,,,,,,,,,,,,,341,,response,,,,4,F,,,,,,Space,keypress(Space),,,,instrumental,,,,----- -- ---- --- -- --- -------- ------------ ---------- --<br>- ------- ------ --------- -- ------------ -- --- ---- -----<br>------ ---- ---- ------ ------ ------- --- other ---------<br>---- --- -------- -------- --- --- -- ------- --- --- -----<br>-- --- ------ ------- --- --- -------- ---- --------- --<br>---------- -- -------- ----------------,452092,452029,451688,451669,451704,452124,,27,other
screen,html.Screen,1_3_1_0_1_28,2021-04-23T14:51:05.823Z,,,,,,,,,,,,,,,,11,,,,,,,,,,,,,,334.0000000000582,,response,,,,4,F,,,,,,Space,keypress(Space),,,,instrumental,,,,----- -- ---- --- -- --- -------- ------------ ---------- --<br>- ------- ------ --------- -- ------------ -- --- ---- -----<br>------ ---- ---- ------ ------ ------- --- ----- artifacts<br>---- --- -------- -------- --- --- -- ------- --- --- -----<br>-- --- ------ ------- --- --- -------- ---- --------- --<br>---------- -- -------- ----------------,452503,452441.00000000006,452107,452092,452124,452544,,28,artifacts
screen,html.Screen,1_3_1_0_1_29,2021-04-23T14:51:06.292Z,,,,,,,,,,,,,,,,11,,,,,,,,,,,,,,383,,response,,,,4,F,,,,,,Space,keypress(Space),,,,instrumental,,,,----- -- ---- --- -- --- -------- ------------ ---------- --<br>- ------- ------ --------- -- ------------ -- --- ---- -----<br>------ ---- ---- ------ ------ ------- --- ----- ---------<br>from --- -------- -------- --- --- -- ------- --- --- -----<br>-- --- ------ ------- --- --- -------- ---- --------- --<br>---------- -- -------- ----------------,452972.00000000006,452910,452527,452503,452544,453013,,29,from
screen,html.Screen,1_3_1_0_1_30,2021-04-23T14:51:06.641Z,,,,,,,,,,,,,,,,11,,,,,,,,,,,,,,264,,response,,,,4,F,,,,,,Space,keypress(Space),,,,instrumental,,,,----- -- ---- --- -- --- -------- ------------ ---------- --<br>- ------- ------ --------- -- ------------ -- --- ---- -----<br>------ ---- ---- ------ ------ ------- --- ----- ---------<br>---- the -------- -------- --- --- -- ------- --- --- -----<br>-- --- ------ ------- --- --- -------- ---- --------- --<br>---------- -- -------- ----------------,453321,453259,452995,452972.00000000006,453013,453348,,30,the
screen,html.Screen,1_3_1_0_1_31,2021-04-23T14:51:07.072Z,,,,,,,,,,,,,,,,11,,,,,,,,,,,,,,358,,response,,,,4,F,,,,,,Space,keypress(Space),,,,instrumental,,,,----- -- ---- --- -- --- -------- ------------ ---------- --<br>- ------- ------ --------- -- ------------ -- --- ---- -----<br>------ ---- ---- ------ ------ ------- --- ----- ---------<br>---- --- island's -------- --- --- -- ------- --- --- -----<br>-- --- ------ ------- --- --- -------- ---- --------- --<br>---------- -- -------- ----------------,453752,453690,453332,453321,453348,453785,,31,island's
screen,html.Screen,1_3_1_0_1_32,2021-04-23T14:51:07.547Z,,,,,,,,,,,,,,,,11,,,,,,,,,,,,,,395,,response,,,,4,F,,,,,,Space,keypress(Space),,,,instrumental,,,,----- -- ---- --- -- --- -------- ------------ ---------- --<br>- ------- ------ --------- -- ------------ -- --- ---- -----<br>------ ---- ---- ------ ------ ------- --- ----- ---------<br>---- --- -------- history. --- --- -- ------- --- --- -----<br>-- --- ------ ------- --- --- -------- ---- --------- --<br>---------- -- -------- ----------------,454227.00000000006,454164,453769,453752,453785,454255,,32,history.
screen,html.Screen,1_3_1_0_1_33,2021-04-23T14:51:08.194Z,,,,,,,,,,,,,,,,11,,,,,,,,,,,,,,574,,response,,,,4,F,,,,,,Space,keypress(Space),,,,instrumental,,,,----- -- ---- --- -- --- -------- ------------ ---------- --<br>- ------- ------ --------- -- ------------ -- --- ---- -----<br>------ ---- ---- ------ ------ ------- --- ----- ---------<br>---- --- -------- -------- The --- -- ------- --- --- -----<br>-- --- ------ ------- --- --- -------- ---- --------- --<br>---------- -- -------- ----------------,454874,454812,454238,454227.00000000006,454255,454907,,33,The
screen,html.Screen,1_3_1_0_1_34,2021-04-23T14:51:08.617Z,,,,,,,,,,,,,,,,11,,,,,,,,,,,,,,343.0000000000582,,response,,,,4,F,,,,,,Space,keypress(Space),,,,instrumental,,,,----- -- ---- --- -- --- -------- ------------ ---------- --<br>- ------- ------ --------- -- ------------ -- --- ---- -----<br>------ ---- ---- ------ ------ ------- --- ----- ---------<br>---- --- -------- -------- --- art -- ------- --- --- -----<br>-- --- ------ ------- --- --- -------- ---- --------- --<br>---------- -- -------- ----------------,455297,455234.00000000006,454891,454874,454907,455327,,34,art
screen,html.Screen,1_3_1_0_1_35,2021-04-23T14:51:10.685Z,,,,,,,,,,,,,,,,11,,,,,,,,,,,,,,1992,,response,,,,4,F,,,,,,Space,keypress(Space),,,,instrumental,,,,----- -- ---- --- -- --- -------- ------------ ---------- --<br>- ------- ------ --------- -- ------------ -- --- ---- -----<br>------ ---- ---- ------ ------ ------- --- ----- ---------<br>---- --- -------- -------- --- --- of ------- --- --- -----<br>-- --- ------ ------- --- --- -------- ---- --------- --<br>---------- -- -------- ----------------,457365,457302,455310,455297,455327,457397,,35,of
screen,html.Screen,1_3_1_0_1_36,2021-04-23T14:51:11.123Z,,,,,,,,,,,,,,,,11,,,,,,,,,,,,,,360,,response,,,,4,F,,,,,,Space,keypress(Space),,,,instrumental,,,,----- -- ---- --- -- --- -------- ------------ ---------- --<br>- ------- ------ --------- -- ------------ -- --- ---- -----<br>------ ---- ---- ------ ------ ------- --- ----- ---------<br>---- --- -------- -------- --- --- -- writing --- --- -----<br>-- --- ------ ------- --- --- -------- ---- --------- --<br>---------- -- -------- ----------------,457803,457740,457380,457365,457397,457833,,36,writing
screen,html.Screen,1_3_1_0_1_37,2021-04-23T14:51:11.516Z,,,,,,,,,,,,,,,,11,,,,,,,,,,,,,,317,,response,,,,4,F,,,,,,Space,keypress(Space),,,,instrumental,,,,----- -- ---- --- -- --- -------- ------------ ---------- --<br>- ------- ------ --------- -- ------------ -- --- ---- -----<br>------ ---- ---- ------ ------ ------- --- ----- ---------<br>---- --- -------- -------- --- --- -- ------- was --- -----<br>-- --- ------ ------- --- --- -------- ---- --------- --<br>---------- -- -------- ----------------,458196,458133,457816,457803,457833,458219,,37,was
screen,html.Screen,1_3_1_0_1_38,2021-04-23T14:51:11.952Z,,,,,,,,,,,,,,,,11,,,,,,,,,,,,,,366,,response,,,,4,F,,,,,,Space,keypress(Space),,,,instrumental,,,,----- -- ---- --- -- --- -------- ------------ ---------- --<br>- ------- ------ --------- -- ------------ -- --- ---- -----<br>------ ---- ---- ------ ------ ------- --- ----- ---------<br>---- --- -------- -------- --- --- -- ------- --- not -----<br>-- --- ------ ------- --- --- -------- ---- --------- --<br>---------- -- -------- ----------------,458632,458569,458203,458196,458219,458672,,38,not
screen,html.Screen,1_3_1_0_1_39,2021-04-23T14:51:12.409Z,,,,,,,,,,,,,,,,11,,,,,,,,,,,,,,370,,response,,,,4,F,,,,,,Space,keypress(Space),,,,instrumental,,,,----- -- ---- --- -- --- -------- ------------ ---------- --<br>- ------- ------ --------- -- ------------ -- --- ---- -----<br>------ ---- ---- ------ ------ ------- --- ----- ---------<br>---- --- -------- -------- --- --- -- ------- --- --- known<br>-- --- ------ ------- --- --- -------- ---- --------- --<br>---------- -- -------- ----------------,459089,459026,458656,458632,458672,459125,,39,known
screen,html.Screen,1_3_1_0_1_40,2021-04-23T14:51:12.729Z,,,,,,,,,,,,,,,,11,,,,,,,,,,,,,,238,,response,,,,4,F,,,,,,Space,keypress(Space),,,,instrumental,,,,----- -- ---- --- -- --- -------- ------------ ---------- --<br>- ------- ------ --------- -- ------------ -- --- ---- -----<br>------ ---- ---- ------ ------ ------- --- ----- ---------<br>---- --- -------- -------- --- --- -- ------- --- --- -----<br>in --- ------ ------- --- --- -------- ---- --------- --<br>---------- -- -------- ----------------,459409,459346,459108,459089,459125,459427,,40,in
screen,html.Screen,1_3_1_0_1_41,2021-04-23T14:51:12.930Z,,,,,,,,,,,,,,,,11,,,,,,,,,,,,,,136,,response,,,,4,F,,,,,,Space,keypress(Space),,,,instrumental,,,,----- -- ---- --- -- --- -------- ------------ ---------- --<br>- ------- ------ --------- -- ------------ -- --- ---- -----<br>------ ---- ---- ------ ------ ------- --- ----- ---------<br>---- --- -------- -------- --- --- -- ------- --- --- -----<br>-- any ------ ------- --- --- -------- ---- --------- --<br>---------- -- -------- ----------------,459610,459547,459411,459409,459427,459631,,41,any
screen,html.Screen,1_3_1_0_1_42,2021-04-23T14:51:13.219Z,,,,,,,,,,,,,,,,11,,,,,,,,,,,,,,222,,response,,,,4,F,,,,,,Space,keypress(Space),,,,instrumental,,,,----- -- ---- --- -- --- -------- ------------ ---------- --<br>- ------- ------ --------- -- ------------ -- --- ---- -----<br>------ ---- ---- ------ ------ ------- --- ----- ---------<br>---- --- -------- -------- --- --- -- ------- --- --- -----<br>-- --- nearby ------- --- --- -------- ---- --------- --<br>---------- -- -------- ----------------,459899,459836,459614,459610,459631,459916,,42,nearby
screen,html.Screen,1_3_1_0_1_43,2021-04-23T14:51:13.476Z,,,,,,,,,,,,,,,,11,,,,,,,,,,,,,,193,,response,,,,4,F,,,,,,Space,keypress(Space),,,,instrumental,,,,----- -- ---- --- -- --- -------- ------------ ---------- --<br>- ------- ------ --------- -- ------------ -- --- ---- -----<br>------ ---- ---- ------ ------ ------- --- ----- ---------<br>---- --- -------- -------- --- --- -- ------- --- --- -----<br>-- --- ------ islands --- --- -------- ---- --------- --<br>---------- -- -------- ----------------,460156,460093,459900,459899,459916,460187,,43,islands
screen,html.Screen,1_3_1_0_1_44,2021-04-23T14:51:13.845Z,,,,,,,,,,,,,,,,11,,,,,,,,,,,,,,292,,response,,,,4,F,,,,,,Space,keypress(Space),,,,instrumental,,,,----- -- ---- --- -- --- -------- ------------ ---------- --<br>- ------- ------ --------- -- ------------ -- --- ---- -----<br>------ ---- ---- ------ ------ ------- --- ----- ---------<br>---- --- -------- -------- --- --- -- ------- --- --- -----<br>-- --- ------ ------- and --- -------- ---- --------- --<br>---------- -- -------- ----------------,460525.00000000006,460462,460170,460156,460187,460555,,44,and
screen,html.Screen,1_3_1_0_1_45,2021-04-23T14:51:14.228Z,,,,,,,,,,,,,,,,11,,,,,,,,,,,,,,306,,response,,,,4,F,,,,,,Space,keypress(Space),,,,instrumental,,,,----- -- ---- --- -- --- -------- ------------ ---------- --<br>- ------- ------ --------- -- ------------ -- --- ---- -----<br>------ ---- ---- ------ ------ ------- --- ----- ---------<br>---- --- -------- -------- --- --- -- ------- --- --- -----<br>-- --- ------ ------- --- the -------- ---- --------- --<br>---------- -- -------- ----------------,460908,460845,460539,460525.00000000006,460555,460925,,45,the
screen,html.Screen,1_3_1_0_1_46,2021-04-23T14:51:14.984Z,,,,,,,,,,,,,,,,11,,,,,,,,,,,,,,692,,response,,,,4,F,,,,,,Space,keypress(Space),,,,instrumental,,,,----- -- ---- --- -- --- -------- ------------ ---------- --<br>- ------- ------ --------- -- ------------ -- --- ---- -----<br>------ ---- ---- ------ ------ ------- --- ----- ---------<br>---- --- -------- -------- --- --- -- ------- --- --- -----<br>-- --- ------ ------- --- --- script's ---- --------- --<br>---------- -- -------- ----------------,461664,461601,460909,460908,460925,461695,,46,script's
screen,html.Screen,1_3_1_0_1_47,2021-04-23T14:51:15.635Z,,,,,,,,,,,,,,,,11,,,,,,,,,,,,,,574,,response,,,,4,F,,,,,,Space,keypress(Space),,,,instrumental,,,,----- -- ---- --- -- --- -------- ------------ ---------- --<br>- ------- ------ --------- -- ------------ -- --- ---- -----<br>------ ---- ---- ------ ------ ------- --- ----- ---------<br>---- --- -------- -------- --- --- -- ------- --- --- -----<br>-- --- ------ ------- --- --- -------- mere --------- --<br>---------- -- -------- ----------------,462314,462252,461678,461664,461695,462347,,47,mere
screen,html.Screen,1_3_1_0_1_48,2021-04-23T14:51:16.144Z,,,,,,,,,,,,,,,,11,,,,,,,,,,,,,,431,,response,,,,4,F,,,,,,Space,keypress(Space),,,,instrumental,,,,----- -- ---- --- -- --- -------- ------------ ---------- --<br>- ------- ------ --------- -- ------------ -- --- ---- -----<br>------ ---- ---- ------ ------ ------- --- ----- ---------<br>---- --- -------- -------- --- --- -- ------- --- --- -----<br>-- --- ------ ------- --- --- -------- ---- existence --<br>---------- -- -------- ----------------,462824,462761,462330,462315,462347,462851,,48,existence
screen,html.Screen,1_3_1_0_1_49,2021-04-23T14:51:16.540Z,,,,,,,,,,,,,,,,11,,,,,,,,,,,,,,323,,response,,,,4,F,,,,,,Space,keypress(Space),,,,instrumental,,,,----- -- ---- --- -- --- -------- ------------ ---------- --<br>- ------- ------ --------- -- ------------ -- --- ---- -----<br>------ ---- ---- ------ ------ ------- --- ----- ---------<br>---- --- -------- -------- --- --- -- ------- --- --- -----<br>-- --- ------ ------- --- --- -------- ---- --------- is<br>---------- -- -------- ----------------,463220,463157,462834,462824,462851,463254,,49,is
screen,html.Screen,1_3_1_0_1_50,2021-04-23T14:51:17.116Z,,,,,,,,,,,,,,,,11,,,,,,,,,,,,,,496,,response,,,,4,F,,,,,,Space,keypress(Space),,,,instrumental,,,,----- -- ---- --- -- --- -------- ------------ ---------- --<br>- ------- ------ --------- -- ------------ -- --- ---- -----<br>------ ---- ---- ------ ------ ------- --- ----- ---------<br>---- --- -------- -------- --- --- -- ------- --- --- -----<br>-- --- ------ ------- --- --- -------- ---- --------- --<br>sufficient -- -------- ----------------,463796,463733,463237,463220,463254,463824,,50,sufficient
screen,html.Screen,1_3_1_0_1_51,2021-04-23T14:51:17.474Z,,,,,,,,,,,,,,,,11,,,,,,,,,,,,,,285,,response,,,,4,F,,,,,,Space,keypress(Space),,,,instrumental,,,,----- -- ---- --- -- --- -------- ------------ ---------- --<br>- ------- ------ --------- -- ------------ -- --- ---- -----<br>------ ---- ---- ------ ------ ------- --- ----- ---------<br>---- --- -------- -------- --- --- -- ------- --- --- -----<br>-- --- ------ ------- --- --- -------- ---- --------- --<br>---------- to -------- ----------------,464154,464091,463806,463796,463824,464177,,51,to
screen,html.Screen,1_3_1_0_1_52,2021-04-23T14:51:17.933Z,,,,,,,,,,,,,,,,11,,,,,,,,,,,,,,391,,response,,,,4,F,,,,,,Space,keypress(Space),,,,instrumental,,,,----- -- ---- --- -- --- -------- ------------ ---------- --<br>- ------- ------ --------- -- ------------ -- --- ---- -----<br>------ ---- ---- ------ ------ ------- --- ----- ---------<br>---- --- -------- -------- --- --- -- ------- --- --- -----<br>-- --- ------ ------- --- --- -------- ---- --------- --<br>---------- -- confound ----------------,464613,464550,464159,464154,464177,464646,,52,confound
screen,html.Screen,1_3_1_0_1_53,2021-04-23T14:51:18.680Z,,,,,,,,,,,,,,,,11,,,,,,,,,,,,,,668,,response,,,,4,F,,,,,,Space,keypress(Space),,,,instrumental,,,,----- -- ---- --- -- --- -------- ------------ ---------- --<br>- ------- ------ --------- -- ------------ -- --- ---- -----<br>------ ---- ---- ------ ------ ------- --- ----- ---------<br>---- --- -------- -------- --- --- -- ------- --- --- -----<br>-- --- ------ ------- --- --- -------- ---- --------- --<br>---------- -- -------- anthropologists.,465359.00000000006,465297,464629,464613,464646,465399,,53,anthropologists.
Item 4,flow.Loop,1_3_1_0_1,2021-04-23T14:51:18.680Z,,,,,,,,,,,,,,,,,,,,,,,,,,,,,,33601,,completion,,,,,,,,,,,,,,,,,,,,,465360,465297,431680,431680,431696,465399,,,
Question 1,html.Screen,1_3_1_0_2,2021-04-23T14:51:23.762Z,,,,,,,,,,,,,,,,,,,,,,,,,,,true,FALSE,,4997,,response,,,,4,F,,,,,,FALSE,click #choice-2,,,,instrumental,,,,,470441.00000000006,470379,465382,465360,465399,470472,,,
Question 2,html.Screen,1_3_1_0_3,2021-04-23T14:51:25.884Z,,,,,,,,,,,,,,,,,,,,,,,,,,,true,TRUE,,2044.0000000000582,,response,,,,4,F,,,,,,TRUE,click #choice-1,,,,instrumental,,,,,472564,472501.00000000006,470457,470442,470472,472586,,,
Item 4,flow.Sequence,1_3_1_0,2021-04-23T14:51:25.885Z,,,,,,,,,,,,,,,,,,,,,,,,,,,,,,47798.00000000006,,completion,,,,,,,,,,,,,,,,,,,,,472564,472501.00000000006,424686,424687,424703,472586,,,
Holding screen,html.Screen,1_3_1_1_0,2021-04-23T14:51:32.879Z,,,,,,,,,,,,,,,,,,,,,,,,,,,,,,6989,,timeout,,,,,,,,,,,,,,,,,,,,,479559,479559,472569,472565,472586,479575,,,
screen,html.Screen,1_3_1_1_1_0,2021-04-23T14:51:36.169Z,,,,,,,,,,,,,,,,48,,,,,,,,,,,,,,3226,,response,,,,10,F,,,,,,Space,keypress(Space),,,,instrumental,,,,As -- --- ------ ------- --------- ----------- --------<br>--------- -------- --- ------- -- ------- ---- -- ------<br>-- --- -------- -------- ---------- ---- ---- ---- ------<br>-- --------- -- ---- -- --- -- --- ------- -- - -----<br>---------- -- -- -- ---- ----- -- ------ -- --- ------<br>-------,482848,482785,479559,479559,479575,482878,,0,As
