sender,sender_type,sender_id,timestamp,meta,,Blues,Classical,Country,Dance,Electronic,Folk,Gospel,Hip-Hop,Jazz,Latin,Musical/Film,New-age,Pop,Provo_ID,R&B,Rap,Reggae,Religious,Rock,Soul,Swing,Traditional,age,artist_name,correct,correctResponse,distraction,duration,education,ended_on,familiarity,gender,headphone_check_performance,item,list,music_frequency,offensiveness,pleasantness,position_correct,preference,response,response_action,snippet_file,song_name,song_rating,sound,stimulus_1,stimulus_2,stimulus_3,text,time_commit,time_end,time_render,time_run,time_show,time_switch,url,word,word_ID
Introduction,html.Screen,0_0,2021-04-28T15:15:07.041Z,"{""labjs_version"":""20.2.2"",""labjs_build"":{""flavor"":""production"",""commit"":""a25486e0c714a0ae2ce03ff94b7bb6896854dcfa""},""location"":""https://run.pavlovia.org/mvasilev/music_f/"",""userAgent"":""Mozilla/5.0 (Macintosh; Intel Mac OS X 10_14_6) AppleWebKit/537.36 (KHTML, like Gecko) Chrome/90.0.4430.85 Safari/537.36"",""platform"":""MacIntel"",""language"":""en-GB"",""locale"":""en-GB"",""timeZone"":""Europe/London"",""timezoneOffset"":-60,""screen_width"":1440,""screen_height"":900,""scroll_width"":1309,""scroll_height"":621,""window_innerWidth"":1309,""window_innerHeight"":669,""devicePixelRatio"":1}",,,,,,,,,,,,,,,,,,,,,,,,,,,,,6344.139000002082,,response,,,,,,,,,,,continue,click button,,,,,,,,,14525.399999998626,14521.735000002082,8160.929,8161.825000002864,8177.596,14527.723,{},,
Volume calibration,html.Screen,0_1,2021-04-28T15:15:25.372Z,,,,,,,,,,,,,,,,,,,,,,,,,,,,,,18326.157000002393,,response,,,,,,,,,,,continue,click button,,,,,,,,,32856.42999999982,32853.88000000239,14511.056,14525.854999999865,14527.723,32862.603,,,
Task instructions,html.Screen,0_2,2021-04-28T15:15:31.509Z,,,,,,,,,,,,,,,,,,,,,,,,,,,,,,6128.762000001676,,response,,,,,,,,,,,continue,click button,,,,,,,,,38993.475000002945,38991.36500000168,32845.936,32856.59999999916,32862.603,38996.059,,,
Sounds,html.Screen,0_3_0_0,2021-04-28T15:15:35.750Z,,,,,,,,,,,,,,,,,,,,,,,,,,,,,,4250.648999999998,,timeout,,,,,,,,,1,,,,,,,,S,I,O,,43233.95999999775,43230.041,38979.392,38993.73000000196,38996.059,43246.708,,,
Judgement,html.Screen,0_3_0_1,2021-04-28T15:15:37.924Z,,,,,,,,,,,,,,,,,,,,,,,,,,,true,1,,2158.8820000021224,,response,,,,,,,,,1,,1,click #choice-1,,,,,S,I,O,,45407.59999999864,45405.59000000212,43230.041,43234.14500000217,43246.708,45413.418,,,
Trial,flow.Sequence,0_3_0,2021-04-28T15:15:37.924Z,,,,,,,,,,,,,,,,,,,,,,,,,,,,,,6409.53100000212,,completion,,,,,,,,,1,,,,,,,,S,I,O,,45407.9899999997,45405.59000000212,38979.392,38993.6699999962,38996.059,45413.418,,,
Sounds,html.Screen,0_3_1_0,2021-04-28T15:15:42.165Z,,,,,,,,,,,,,,,,,,,,,,,,,,,,,,4250.084999999999,,timeout,,,,,,,,,1,,,,,,,,S,O,I,,49649.154999999155,49646.836,45396.751,45408.174999996845,45413.418,49663.503,,,
Judgement,html.Screen,0_3_1_1,2021-04-28T15:15:43.703Z,,,,,,,,,,,,,,,,,,,,,,,,,,,true,1,,1520.7770000013115,,response,,,,,,,,,1,,1,click #choice-1,,,,,S,O,I,,51186.75500000245,51184.28000000131,49646.836,49649.35500000138,49663.503,51197.423,,,
Trial,flow.Sequence,0_3_1,2021-04-28T15:15:43.703Z,,,,,,,,,,,,,,,,,,,,,,,,,,,,,,5770.862000001311,,completion,,,,,,,,,1,,,,,,,,S,O,I,,51186.99499999639,51184.28000000131,45396.751,45408.125000001746,45413.418,51197.423,,,
Sounds,html.Screen,0_3_2_0,2021-04-28T15:15:47.949Z,,,,,,,,,,,,,,,,,,,,,,,,,,,,,,4250.084999999999,,timeout,,,,,,,,,3,,,,,,,,O,I,S,,55432.534999999916,55430.841,51180.756,51187.16000000131,51197.423,55447.508,,,
Judgement,html.Screen,0_3_2_1,2021-04-28T15:15:48.712Z,,,,,,,,,,,,,,,,,,,,,,,,,,,true,3,,746.0669999975071,,response,,,,,,,,,3,,3,click #choice-3,,,,,O,I,S,,56195.93999999779,56193.57499999751,55430.841,55432.724999998754,55447.508,56197.523,,,
Trial,flow.Sequence,0_3_2,2021-04-28T15:15:48.712Z,,,,,,,,,,,,,,,,,,,,,,,,,,,,,,4996.151999997506,,completion,,,,,,,,,3,,,,,,,,O,I,S,,56196.14999999612,56193.57499999751,51180.756,51187.10999999894,51197.423,56197.523,,,
Sounds,html.Screen,0_3_3_0,2021-04-28T15:15:52.950Z,,,,,,,,,,,,,,,,,,,,,,,,,,,,,,4250.084999999999,,timeout,,,,,,,,,2,,,,,,,,O,S,I,,60433.704999995825,60430.941,56180.856,56196.304999997665,56197.523,60447.608,,,
Judgement,html.Screen,0_3_3_1,2021-04-28T15:15:53.531Z,,,,,,,,,,,,,,,,,,,,,,,,,,,true,2,,565.2869999998438,,response,,,,,,,,,2,,2,click #choice-2,,,,,O,S,I,,61014.640000001236,61012.894999999844,60430.941,60433.85500000295,60447.608,61030.953,,,
Trial,flow.Sequence,0_3_3,2021-04-28T15:15:53.531Z,,,,,,,,,,,,,,,,,,,,,,,,,,,,,,4815.371999999843,,completion,,,,,,,,,2,,,,,,,,O,S,I,,61014.839999996184,61012.894999999844,56180.856,56196.25000000087,56197.523,61030.953,,,
Sounds,html.Screen,0_3_4_0,2021-04-28T15:15:57.784Z,,,,,,,,,,,,,,,,,,,,,,,,,,,,,,4250.5380000000005,,timeout,,,,,,,,,3,,,,,,,,I,O,S,,65267.455000001064,65264.824,61014.286,61014.96999999654,61030.953,65281.491,,,
Judgement,html.Screen,0_3_4_1,2021-04-28T15:15:58.942Z,,,,,,,,,,,,,,,,,,,,,,,,,,,true,3,,1141.464000001819,,response,,,,,,,,,3,,3,click #choice-3,,,,,I,O,S,,66425.15499999718,66422.95500000182,65264.824,65267.58500000142,65281.491,66431.514,,,
Trial,flow.Sequence,0_3_4,2021-04-28T15:15:58.942Z,,,,,,,,,,,,,,,,,,,,,,,,,,,,,,5392.002000001819,,completion,,,,,,,,,3,,,,,,,,I,O,S,,66425.36000000109,66422.95500000182,61014.286,61014.93499999924,61030.953,66431.514,,,
Sounds,html.Screen,0_3_5_0,2021-04-28T15:16:03.183Z,,,,,,,,,,,,,,,,,,,,,,,,,,,,,,4250.085000000006,,timeout,,,,,,,,,2,,,,,,,,I,S,O,,70666.38000000239,70664.932,66414.847,66425.48499999975,66431.514,70681.599,,,
Judgement,html.Screen,0_3_5_1,2021-04-28T15:16:03.697Z,,,,,,,,,,,,,,,,,,,,,,,,,,,true,2,,496.69099999619357,,response,,,,,,,,,2,,2,click #choice-2,,,,,I,S,O,,71180.31999999948,71178.2899999962,70664.932,70666.53000000224,70681.599,71181.609,,,
Trial,flow.Sequence,0_3_5,2021-04-28T15:16:03.697Z,,,,,,,,,,,,,,,,,,,,,,,,,,,,,,4746.7759999962,,completion,,,,,,,,,2,,,,,,,,I,S,O,,71180.554999999,71178.2899999962,66414.847,66425.45000000246,66431.514,71181.609,,,
Task,flow.Loop,0_3,2021-04-28T15:16:03.702Z,,,,,,,,,,,,,,,,,,,,,,,,,,,,,,32182.230999996194,,completion,,,1,,,,,,,,,,,,,,,,,,71185.06999999954,71178.2899999962,38979.392,38993.61499999941,38996.059,71181.609,,,
Trap,html.Screen,0_4,2021-04-28T15:16:03.703Z,,,,,,,,,,,,,,,,,,,,,,,,,,,,,,NaN,,skipped,,,,,,,,,,,,,,,,,,,,,71186.59499999922,71178.2899999962,,71186.23500000103,,71181.609,,,
Thanks,html.Screen,0_5,2021-04-28T15:16:07.474Z,,,,,,,,,,,,,,,,,,,,,,,,,,,,,,3773.0660000008647,,response,,,,,,,,,,,continue,click button,,,,,,,,,74956.64499999839,74954.67500000086,71164.942,71186.71499999618,71181.609,79298.986,,,
Headphone screening,flow.Sequence,0,2021-04-28T15:16:07.474Z,,,,,,,,,,,,,,,,,,,,,,,,,,,,,,66777.07900000086,,completion,,,,,,,,,,,,,,,,,,,,,74956.83000000281,74954.67500000086,8160.929,8161.769999998796,8177.596,79298.986,,,
Instructions,html.Page,1_0,2021-04-28T15:16:26.264Z,,,,,,,,,,,,,,,,,,,,,,,,,,,,,,14447.028999996983,,form submission,,,,,,,,,,,,,,,,,,,,,93746.21499999921,93746.01499999699,79282.319,79291.31500000221,79298.986,93749.275,,,
Holding screen,html.Screen,1_1_0_0,2021-04-28T15:16:36.255Z,,,,,,,,,,,,,,,,,,,,,,,,,,,,,,10001.361000000004,,timeout,,,,,,,,,,,,,,,,,,,,,103736.74000000028,103733.969,93732.608,93746.51499999891,93749.275,103750.636,,,
screen,html.Screen,1_1_0_1_0,2021-04-28T15:16:37.451Z,,,,,,,,,,,,,,,,53,,,,,,,,,,,,,,1176.303999997559,,response,,,,99,,,,,,,Space,keypress(Space),,,,,,,,When -- ----- -- ------ - ------- --- ----------<br>------------- ------ ------ ---- ---- ------- ----- -- ----<br>-------- ------- -- ---------- --- - --- ----- ----- ----<br>---- --- --- ----- --- ---- ---- ------- ----- ---- -------<br>--- --- -- ----- -- --- ---- -- --- ---- -- ------ ------<br>--- ----- -- ----,104933.68499999633,104926.93999999756,103733.969,103737.02000000048,103750.636,104950.66,,0,When
screen,html.Screen,1_1_0_1_1,2021-04-28T15:16:39.800Z,,,,,,,,,,,,,,,,53,,,,,,,,,,,,,,2328.060000002064,,response,,,,99,,,,,,,Space,keypress(Space),,,,,,,,---- it ----- -- ------ - ------- --- ----------<br>------------- ------ ------ ---- ---- ------- ----- -- ----<br>-------- ------- -- ---------- --- - --- ----- ----- ----<br>---- --- --- ----- --- ---- ---- ------- ----- ---- -------<br>--- --- -- ----- -- --- ---- -- --- ---- -- ------ ------<br>--- ----- -- ----,107282.55499999796,107278.72000000207,104933.993,104933.90999999974,104950.66,107284.547,,1,it
screen,html.Screen,1_1_0_1_2,2021-04-28T15:16:40.216Z,,,,,,,,,,,,,,,,53,,,,,,,,,,,,,,410.14299999662035,,response,,,,99,,,,,,,Space,keypress(Space),,,,,,,,---- -- comes -- ------ - ------- --- ----------<br>------------- ------ ------ ---- ---- ------- ----- -- ----<br>-------- ------- -- ---------- --- - --- ----- ----- ----<br>---- --- --- ----- --- ---- ---- ------- ----- ---- -------<br>--- --- -- ----- -- --- ---- -- --- ---- -- ------ ------<br>--- ----- -- ----,107698.41499999893,107694.68999999663,107267.88,107282.74000000238,107284.547,107701.222,,2,comes
screen,html.Screen,1_1_0_1_3,2021-04-28T15:16:40.756Z,,,,,,,,,,,,,,,,53,,,,,,,,,,,,,,532.457999997554,,response,,,,99,,,,,,,Space,keypress(Space),,,,,,,,---- -- ----- to ------ - ------- --- ----------<br>------------- ------ ------ ---- ---- ------- ----- -- ----<br>-------- ------- -- ---------- --- - --- ----- ----- ----<br>---- --- --- ----- --- ---- ---- ------- ----- ---- -------<br>--- --- -- ----- -- --- ---- -- --- ---- -- ------ ------<br>--- ----- -- ----,108237.72499999905,108233.67999999755,107684.555,107698.59999999608,107701.222,108251.233,,3,to
screen,html.Screen,1_1_0_1_4,2021-04-28T15:16:41.083Z,,,,,,,,,,,,,,,,53,,,,,,,,,,,,,,310.53700000025856,,response,,,,99,,,,,,,Space,keypress(Space),,,,,,,,---- -- ----- -- having - ------- --- ----------<br>------------- ------ ------ ---- ---- ------- ----- -- ----<br>-------- ------- -- ---------- --- - --- ----- ----- ----<br>---- --- --- ----- --- ---- ---- ------- ----- ---- -------<br>--- --- -- ----- -- --- ---- -- --- ---- -- ------ ------<br>--- ----- -- ----,108565.58499999664,108561.77000000025,108234.566,108237.90999999619,108251.233,108567.906,,4,having
screen,html.Screen,1_1_0_1_5,2021-04-28T15:16:41.517Z,,,,,,,,,,,,,,,,53,,,,,,,,,,,,,,426.84899999971094,,response,,,,99,,,,,,,Space,keypress(Space),,,,,,,,---- -- ----- -- ------ a ------- --- ----------<br>------------- ------ ------ ---- ---- ------- ----- -- ----<br>-------- ------- -- ---------- --- - --- ----- ----- ----<br>---- --- --- ----- --- ---- ---- ------- ----- ---- -------<br>--- --- -- ----- -- --- ---- -- --- ---- -- ------ ------<br>--- ----- -- ----,108998.64499999967,108994.75499999971,108551.239,108566.88500000018,108567.906,109001.248,,5,a
screen,html.Screen,1_1_0_1_6,2021-04-28T15:16:41.818Z,,,,,,,,,,,,,,,,53,,,,,,,,,,,,,,294.5069999991829,,response,,,,99,,,,,,,Space,keypress(Space),,,,,,,,---- -- ----- -- ------ - lasting --- ----------<br>------------- ------ ------ ---- ---- ------- ----- -- ----<br>-------- ------- -- ---------- --- - --- ----- ----- ----<br>---- --- --- ----- --- ---- ---- ------- ----- ---- -------<br>--- --- -- ----- -- --- ---- -- --- ---- -- ------ ------<br>--- ----- -- ----,109299.59999999846,109295.75499999919,108984.581,108998.82999999681,109001.248,109301.254,,6,lasting
screen,html.Screen,1_1_0_1_7,2021-04-28T15:16:42.148Z,,,,,,,,,,,,,,,,53,,,,,,,,,,,,,,325.4609999985114,,response,,,,99,,,,,,,Space,keypress(Space),,,,,,,,---- -- ----- -- ------ - ------- and ----------<br>------------- ------ ------ ---- ---- ------- ----- -- ----<br>-------- ------- -- ---------- --- - --- ----- ----- ----<br>---- --- --- ----- --- ---- ---- ------- ----- ---- -------<br>--- --- -- ----- -- --- ---- -- --- ---- -- ------ ------<br>--- ----- -- ----,109630.53999999829,109626.71499999851,109284.587,109299.8099999968,109301.254,109634.594,,7,and
screen,html.Screen,1_1_0_1_8,2021-04-28T15:16:42.548Z,,,,,,,,,,,,,,,,53,,,,,,,,,,,,,,392.12600000166276,,response,,,,99,,,,,,,Space,keypress(Space),,,,,,,,---- -- ----- -- ------ - ------- --- fulfilling<br>------------- ------ ------ ---- ---- ------- ----- -- ----<br>-------- ------- -- ---------- --- - --- ----- ----- ----<br>---- --- --- ----- --- ---- ---- ------- ----- ---- -------<br>--- --- -- ----- -- --- ---- -- --- ---- -- ------ ------<br>--- ----- -- ----,110030.42999999889,110026.72000000166,109617.927,109630.72999999713,109634.594,110034.602,,8,fulfilling
screen,html.Screen,1_1_0_1_9,2021-04-28T15:16:42.939Z,,,,,,,,,,,,,,,,53,,,,,,,,,,,,,,383.05799999916053,,response,,,,99,,,,,,,Space,keypress(Space),,,,,,,,"---- -- ----- -- ------ - ------- --- ----------<br>relationship, ------ ------ ---- ---- ------- ----- -- ----<br>-------- ------- -- ---------- --- - --- ----- ----- ----<br>---- --- --- ----- --- ---- ---- ------- ----- ---- -------<br>--- --- -- ----- -- --- ---- -- --- ---- -- ------ ------<br>--- ----- -- ----",110421.49000000063,110417.65999999916,110017.935,110030.61999999773,110034.602,110434.61,,9,"relationship,"
screen,html.Screen,1_1_0_1_10,2021-04-28T15:16:43.252Z,,,,,,,,,,,,,,,,53,,,,,,,,,,,,,,296.01999999819964,,response,,,,99,,,,,,,Space,keypress(Space),,,,,,,,---- -- ----- -- ------ - ------- --- ----------<br>------------- common ------ ---- ---- ------- ----- -- ----<br>-------- ------- -- ---------- --- - --- ----- ----- ----<br>---- --- --- ----- --- ---- ---- ------- ----- ---- -------<br>--- --- -- ----- -- --- ---- -- --- ---- -- ------ ------<br>--- ----- -- ----,110734.41499999899,110730.6299999982,110417.943,110421.66999999608,110434.61,110751.283,,10,common
screen,html.Screen,1_1_0_1_11,2021-04-28T15:16:43.597Z,,,,,,,,,,,,,,,,53,,,,,,,,,,,,,,324.34699999936856,,response,,,,99,,,,,,,Space,keypress(Space),,,,,,,,---- -- ----- -- ------ - ------- --- ----------<br>------------- ------ wisdom ---- ---- ------- ----- -- ----<br>-------- ------- -- ---------- --- - --- ----- ----- ----<br>---- --- --- ----- --- ---- ---- ------- ----- ---- -------<br>--- --- -- ----- -- --- ---- -- --- ---- -- ------ ------<br>--- ----- -- ----,111079.44500000303,111075.62999999936,110734.616,110734.59999999614,110751.283,111084.623,,11,wisdom
screen,html.Screen,1_1_0_1_12,2021-04-28T15:16:44.090Z,,,,,,,,,,,,,,,,53,,,,,,,,,,,,,,484.07200000174635,,response,,,,99,,,,,,,Space,keypress(Space),,,,,,,,---- -- ----- -- ------ - ------- --- ----------<br>------------- ------ ------ says ---- ------- ----- -- ----<br>-------- ------- -- ---------- --- - --- ----- ----- ----<br>---- --- --- ----- --- ---- ---- ------- ----- ---- -------<br>--- --- -- ----- -- --- ---- -- --- ---- -- ------ ------<br>--- ----- -- ----,111572.39999999729,111568.69500000175,111067.956,111079.63500000187,111084.623,111584.633,,12,says
screen,html.Screen,1_1_0_1_13,2021-04-28T15:16:44.440Z,,,,,,,,,,,,,,,,53,,,,,,,,,,,,,,332.911999996606,,response,,,,99,,,,,,,Space,keypress(Space),,,,,,,,---- -- ----- -- ------ - ------- --- ----------<br>------------- ------ ------ ---- that ------- ----- -- ----<br>-------- ------- -- ---------- --- - --- ----- ----- ----<br>---- --- --- ----- --- ---- ---- ------- ----- ---- -------<br>--- --- -- ----- -- --- ---- -- --- ---- -- ------ ------<br>--- ----- -- ----,111921.98500000086,111917.54499999661,111567.966,111572.55499999883,111584.633,111934.64,,13,that
screen,html.Screen,1_1_0_1_14,2021-04-28T15:16:44.772Z,,,,,,,,,,,,,,,,53,,,,,,,,,,,,,,315.8899999975256,,response,,,,99,,,,,,,Space,keypress(Space),,,,,,,,---- -- ----- -- ------ - ------- --- ----------<br>------------- ------ ------ ---- ---- feeling ----- -- ----<br>-------- ------- -- ---------- --- - --- ----- ----- ----<br>---- --- --- ----- --- ---- ---- ------- ----- ---- -------<br>--- --- -- ----- -- --- ---- -- --- ---- -- ------ ------<br>--- ----- -- ----,112254.3949999963,112250.52999999753,111917.973,111922.16499999631,111934.64,112267.98,,14,feeling
screen,html.Screen,1_1_0_1_15,2021-04-28T15:16:45.106Z,,,,,,,,,,,,,,,,53,,,,,,,,,,,,,,316.5249999989028,,response,,,,99,,,,,,,Space,keypress(Space),,,,,,,,---- -- ----- -- ------ - ------- --- ----------<br>------------- ------ ------ ---- ---- ------- close -- ----<br>-------- ------- -- ---------- --- - --- ----- ----- ----<br>---- --- --- ----- --- ---- ---- ------- ----- ---- -------<br>--- --- -- ----- -- --- ---- -- --- ---- -- ------ ------<br>--- ----- -- ----,112588.33500000037,112584.5049999989,112251.313,112254.58000000071,112267.98,112601.32,,15,close
screen,html.Screen,1_1_0_1_16,2021-04-28T15:16:45.440Z,,,,,,,,,,,,,,,,53,,,,,,,,,,,,,,316.26999999728287,,response,,,,99,,,,,,,Space,keypress(Space),,,,,,,,---- -- ----- -- ------ - ------- --- ----------<br>------------- ------ ------ ---- ---- ------- ----- to ----<br>-------- ------- -- ---------- --- - --- ----- ----- ----<br>---- --- --- ----- --- ---- ---- ------- ----- ---- -------<br>--- --- -- ----- -- --- ---- -- --- ---- -- ------ ------<br>--- ----- -- ----,112921.52999999962,112917.58999999729,112584.653,112588.51999999752,112601.32,112934.66,,16,to
screen,html.Screen,1_1_0_1_17,2021-04-28T15:16:45.806Z,,,,,,,,,,,,,,,,53,,,,,,,,,,,,,,349.665000000532,,response,,,,99,,,,,,,Space,keypress(Space),,,,,,,,---- -- ----- -- ------ - ------- --- ----------<br>------------- ------ ------ ---- ---- ------- ----- -- your<br>-------- ------- -- ---------- --- - --- ----- ----- ----<br>---- --- --- ----- --- ---- ---- ------- ----- ---- -------<br>--- --- -- ----- -- --- ---- -- --- ---- -- ------ ------<br>--- ----- -- ----,113288.17999999592,113284.32500000054,112917.993,112921.71499999677,112934.66,113301.334,,17,your
screen,html.Screen,1_1_0_1_18,2021-04-28T15:16:46.162Z,,,,,,,,,,,,,,,,53,,,,,,,,,,,,,,339.01600000148755,,response,,,,99,,,,,,,Space,keypress(Space),,,,,,,,---- -- ----- -- ------ - ------- --- ----------<br>------------- ------ ------ ---- ---- ------- ----- -- ----<br>romantic ------- -- ---------- --- - --- ----- ----- ----<br>---- --- --- ----- --- ---- ---- ------- ----- ---- -------<br>--- --- -- ----- -- --- ---- -- --- ---- -- ------ ------<br>--- ----- -- ----,113644.0849999999,113640.35000000149,113284.667,113288.37000000203,113301.334,113651.341,,18,romantic
screen,html.Screen,1_1_0_1_19,2021-04-28T15:16:46.538Z,,,,,,,,,,,,,,,,53,,,,,,,,,,,,,,365.0590000004304,,response,,,,99,,,,,,,Space,keypress(Space),,,,,,,,---- -- ----- -- ------ - ------- --- ----------<br>------------- ------ ------ ---- ---- ------- ----- -- ----<br>-------- partner -- ---------- --- - --- ----- ----- ----<br>---- --- --- ----- --- ---- ---- ------- ----- ---- -------<br>--- --- -- ----- -- --- ---- -- --- ---- -- ------ ------<br>--- ----- -- ----,114020.27500000258,114016.40000000043,113634.674,113644.27499999874,113651.341,114034.682,,19,partner
screen,html.Screen,1_1_0_1_20,2021-04-28T15:16:46.899Z,,,,,,,,,,,,,,,,53,,,,,,,,,,,,,,342.66800000247895,,response,,,,99,,,,,,,Space,keypress(Space),,,,,,,,---- -- ----- -- ------ - ------- --- ----------<br>------------- ------ ------ ---- ---- ------- ----- -- ----<br>-------- ------- is ---------- --- - --- ----- ----- ----<br>---- --- --- ----- --- ---- ---- ------- ----- ---- -------<br>--- --- -- ----- -- --- ---- -- --- ---- -- ------ ------<br>--- ----- -- ----,114381.34999999602,114377.35000000248,114018.015,114020.45999999973,114034.682,114384.689,,20,is
screen,html.Screen,1_1_0_1_21,2021-04-28T15:16:47.239Z,,,,,,,,,,,,,,,,53,,,,,,,,,,,,,,331.66100000242295,,response,,,,99,,,,,,,Space,keypress(Space),,,,,,,,---- -- ----- -- ------ - ------- --- ----------<br>------------- ------ ------ ---- ---- ------- ----- -- ----<br>-------- ------- -- paramount. --- - --- ----- ----- ----<br>---- --- --- ----- --- ---- ---- ------- ----- ---- -------<br>--- --- -- ----- -- --- ---- -- --- ---- -- ------ ------<br>--- ----- -- ----,114721.05999999621,114716.35000000242,114368.022,114381.53500000044,114384.689,114735.222,,21,paramount.
screen,html.Screen,1_1_0_1_22,2021-04-28T15:16:47.648Z,,,,,,,,,,,,,,,,53,,,,,,,,,,,,,,390.05800000020827,,response,,,,99,,,,,,,Space,keypress(Space),,,,,,,,---- -- ----- -- ------ - ------- --- ----------<br>------------- ------ ------ ---- ---- ------- ----- -- ----<br>-------- ------- -- ---------- But - --- ----- ----- ----<br>---- --- --- ----- --- ---- ---- ------- ----- ---- -------<br>--- --- -- ----- -- --- ---- -- --- ---- -- ------ ------<br>--- ----- -- ----,115129.40499999968,115125.2800000002,114718.555,114721.25999999844,114735.222,115135.23,,22,But
screen,html.Screen,1_1_0_1_23,2021-04-28T15:16:48.020Z,,,,,,,,,,,,,,,,53,,,,,,,,,,,,,,363.11499999997613,,response,,,,99,,,,,,,Space,keypress(Space),,,,,,,,---- -- ----- -- ------ - ------- --- ----------<br>------------- ------ ------ ---- ---- ------- ----- -- ----<br>-------- ------- -- ---------- --- a --- ----- ----- ----<br>---- --- --- ----- --- ---- ---- ------- ----- ---- -------<br>--- --- -- ----- -- --- ---- -- --- ---- -- ------ ------<br>--- ----- -- ----,115502.3399999991,115498.34499999997,115118.563,115129.58500000241,115135.23,115518.571,,23,a
screen,html.Screen,1_1_0_1_24,2021-04-28T15:16:48.367Z,,,,,,,,,,,,,,,,53,,,,,,,,,,,,,,326.6389999995008,,response,,,,99,,,,,,,Space,keypress(Space),,,,,,,,---- -- ----- -- ------ - ------- --- ----------<br>------------- ------ ------ ---- ---- ------- ----- -- ----<br>-------- ------- -- ---------- --- - new ----- ----- ----<br>---- --- --- ----- --- ---- ---- ------- ----- ---- -------<br>--- --- -- ----- -- --- ---- -- --- ---- -- ------ ------<br>--- ----- -- ----,115848.9899999986,115845.2099999995,115501.904,115502.52999999793,115518.571,115851.911,,24,new
screen,html.Screen,1_1_0_1_25,2021-04-28T15:16:48.778Z,,,,,,,,,,,,,,,,53,,,,,,,,,,,,,,404.24899999718764,,response,,,,99,,,,,,,Space,keypress(Space),,,,,,,,---- -- ----- -- ------ - ------- --- ----------<br>------------- ------ ------ ---- ---- ------- ----- -- ----<br>-------- ------- -- ---------- --- - --- study ----- ----<br>---- --- --- ----- --- ---- ---- ------- ----- ---- -------<br>--- --- -- ----- -- --- ---- -- --- ---- -- ------ ------<br>--- ----- -- ----,116259.90499999898,116256.15999999718,115835.244,115849.17999999743,115851.911,116268.586,,25,study
screen,html.Screen,1_1_0_1_26,2021-04-28T15:16:49.137Z,,,,,,,,,,,,,,,,53,,,,,,,,,,,,,,346.58399999731046,,response,,,,99,,,,,,,Space,keypress(Space),,,,,,,,---- -- ----- -- ------ - ------- --- ----------<br>------------- ------ ------ ---- ---- ------- ----- -- ----<br>-------- ------- -- ---------- --- - --- ----- finds ----<br>---- --- --- ----- --- ---- ---- ------- ----- ---- -------<br>--- --- -- ----- -- --- ---- -- --- ---- -- ------ ------<br>--- ----- -- ----,116618.9549999981,116615.1699999973,116251.919,116260.08999999613,116268.586,116635.26,,26,finds
screen,html.Screen,1_1_0_1_27,2021-04-28T15:16:49.530Z,,,,,,,,,,,,,,,,53,,,,,,,,,,,,,,372.88499999979103,,response,,,,99,,,,,,,Space,keypress(Space),,,,,,,,---- -- ----- -- ------ - ------- --- ----------<br>------------- ------ ------ ---- ---- ------- ----- -- ----<br>-------- ------- -- ---------- --- - --- ----- ----- that<br>---- --- --- ----- --- ---- ---- ------- ----- ---- -------<br>--- --- -- ----- -- --- ---- -- --- ---- -- ------ ------<br>--- ----- -- ----,117011.91500000277,117008.14499999979,116618.593,116619.14999999863,116635.26,117018.601,,27,that
screen,html.Screen,1_1_0_1_28,2021-04-28T15:16:49.980Z,,,,,,,,,,,,,,,,53,,,,,,,,,,,,,,439.5190000029688,,response,,,,99,,,,,,,Space,keypress(Space),,,,,,,,---- -- ----- -- ------ - ------- --- ----------<br>------------- ------ ------ ---- ---- ------- ----- -- ----<br>-------- ------- -- ---------- --- - --- ----- ----- ----<br>it's --- --- ----- --- ---- ---- ------- ----- ---- -------<br>--- --- -- ----- -- --- ---- -- --- ---- -- ------ ------<br>--- ----- -- ----,117461.98999999615,117458.12000000296,117001.934,117012.09999999992,117018.601,117468.61,,28,it's
screen,html.Screen,1_1_0_1_29,2021-04-28T15:16:50.338Z,,,,,,,,,,,,,,,,53,,,,,,,,,,,,,,347.48999999636726,,response,,,,99,,,,,,,Space,keypress(Space),,,,,,,,---- -- ----- -- ------ - ------- --- ----------<br>------------- ------ ------ ---- ---- ------- ----- -- ----<br>-------- ------- -- ---------- --- - --- ----- ----- ----<br>---- not --- ----- --- ---- ---- ------- ----- ---- -------<br>--- --- -- ----- -- --- ---- -- --- ---- -- ------ ------<br>--- ----- -- ----,117819.94500000292,117816.09999999637,117451.943,117462.18000000226,117468.61,117835.284,,29,not
screen,html.Screen,1_1_0_1_30,2021-04-28T15:16:50.620Z,,,,,,,,,,,,,,,,53,,,,,,,,,,,,,,262.78600000000733,,response,,,,99,,,,,,,Space,keypress(Space),,,,,,,,---- -- ----- -- ------ - ------- --- ----------<br>------------- ------ ------ ---- ---- ------- ----- -- ----<br>-------- ------- -- ---------- --- - --- ----- ----- ----<br>---- --- how ----- --- ---- ---- ------- ----- ---- -------<br>--- --- -- ----- -- --- ---- -- --- ---- -- ------ ------<br>--- ----- -- ----,118101.88000000198,118098.07,117818.617,117820.13500000176,117835.284,118118.623,,30,how
screen,html.Screen,1_1_0_1_31,2021-04-28T15:16:50.894Z,,,,,,,,,,,,,,,,53,,,,,,,,,,,,,,253.35699999624921,,response,,,,99,,,,,,,Space,keypress(Space),,,,,,,,---- -- ----- -- ------ - ------- --- ----------<br>------------- ------ ------ ---- ---- ------- ----- -- ----<br>-------- ------- -- ---------- --- - --- ----- ----- ----<br>---- --- --- close --- ---- ---- ------- ----- ---- -------<br>--- --- -- ----- -- --- ---- -- --- ---- -- ------ ------<br>--- ----- -- ----,118375.69000000076,118371.97999999626,118101.956,118102.07000000082,118118.623,118385.295,,31,close
screen,html.Screen,1_1_0_1_32,2021-04-28T15:16:51.160Z,,,,,,,,,,,,,,,,53,,,,,,,,,,,,,,252.73999999630905,,response,,,,99,,,,,,,Space,keypress(Space),,,,,,,,---- -- ----- -- ------ - ------- --- ----------<br>------------- ------ ------ ---- ---- ------- ----- -- ----<br>-------- ------- -- ---------- --- - --- ----- ----- ----<br>---- --- --- ----- you ---- ---- ------- ----- ---- -------<br>--- --- -- ----- -- --- ---- -- --- ---- -- ------ ------<br>--- ----- -- ----,118641.83000000048,118638.03499999631,118368.628,118375.8799999996,118385.295,118651.967,,32,you
screen,html.Screen,1_1_0_1_33,2021-04-28T15:16:51.407Z,,,,,,,,,,,,,,,,53,,,,,,,,,,,,,,233.0679999993299,,response,,,,99,,,,,,,Space,keypress(Space),,,,,,,,---- -- ----- -- ------ - ------- --- ----------<br>------------- ------ ------ ---- ---- ------- ----- -- ----<br>-------- ------- -- ---------- --- - --- ----- ----- ----<br>---- --- --- ----- --- feel ---- ------- ----- ---- -------<br>--- --- -- ----- -- --- ---- -- --- ---- -- ------ ------<br>--- ----- -- ----,118888.96999999997,118885.03499999933,118635.3,118642.01499999763,118651.967,118901.972,,33,feel
screen,html.Screen,1_1_0_1_34,2021-04-28T15:16:51.666Z,,,,,,,,,,,,,,,,53,,,,,,,,,,,,,,241.9579999983689,,response,,,,99,,,,,,,Space,keypress(Space),,,,,,,,---- -- ----- -- ------ - ------- --- ----------<br>------------- ------ ------ ---- ---- ------- ----- -- ----<br>-------- ------- -- ---------- --- - --- ----- ----- ----<br>---- --- --- ----- --- ---- that ------- ----- ---- -------<br>--- --- -- ----- -- --- ---- -- --- ---- -- ------ ------<br>--- ----- -- ----,119147.73499999865,119143.92999999836,118885.305,118889.15999999881,118901.972,119151.977,,34,that
screen,html.Screen,1_1_0_1_35,2021-04-28T15:16:51.937Z,,,,,,,,,,,,,,,,53,,,,,,,,,,,,,,263.02800000256684,,response,,,,99,,,,,,,Space,keypress(Space),,,,,,,,---- -- ----- -- ------ - ------- --- ----------<br>------------- ------ ------ ---- ---- ------- ----- -- ----<br>-------- ------- -- ---------- --- - --- ----- ----- ----<br>---- --- --- ----- --- ---- ---- matters ----- ---- -------<br>--- --- -- ----- -- --- ---- -- --- ---- -- ------ ------<br>--- ----- -- ----,119418.92499999813,119415.00500000257,119135.31,119149.38499999698,119151.977,119435.316,,35,matters
screen,html.Screen,1_1_0_1_36,2021-04-28T15:16:52.187Z,,,,,,,,,,,,,,,,53,,,,,,,,,,,,,,229.6739999974816,,response,,,,99,,,,,,,Space,keypress(Space),,,,,,,,"---- -- ----- -- ------ - ------- --- ----------<br>------------- ------ ------ ---- ---- ------- ----- -- ----<br>-------- ------- -- ---------- --- - --- ----- ----- ----<br>---- --- --- ----- --- ---- ---- ------- most, ---- -------<br>--- --- -- ----- -- --- ---- -- --- ---- -- ------ ------<br>--- ----- -- ----",119668.82500000065,119664.98999999749,119418.649,119419.13499999646,119435.316,119685.321,,36,"most,"
screen,html.Screen,1_1_0_1_37,2021-04-28T15:16:52.485Z,,,,,,,,,,,,,,,,53,,,,,,,,,,,,,,277.6839999977965,,response,,,,99,,,,,,,Space,keypress(Space),,,,,,,,---- -- ----- -- ------ - ------- --- ----------<br>------------- ------ ------ ---- ---- ------- ----- -- ----<br>-------- ------- -- ---------- --- - --- ----- ----- ----<br>---- --- --- ----- --- ---- ---- ------- ----- it's -------<br>--- --- -- ----- -- --- ---- -- --- ---- -- ------ ------<br>--- ----- -- ----,119966.87499999825,119963.0049999978,119668.654,119669.02500000288,119685.321,119968.66,,37,it's
screen,html.Screen,1_1_0_1_38,2021-04-28T15:16:52.800Z,,,,,,,,,,,,,,,,53,,,,,,,,,,,,,,309.14499999789405,,response,,,,99,,,,,,,Space,keypress(Space),,,,,,,,---- -- ----- -- ------ - ------- --- ----------<br>------------- ------ ------ ---- ---- ------- ----- -- ----<br>-------- ------- -- ---------- --- - --- ----- ----- ----<br>---- --- --- ----- --- ---- ---- ------- ----- ---- whether<br>--- --- -- ----- -- --- ---- -- --- ---- -- ------ ------<br>--- ----- -- ----,120281.8299999999,120277.8049999979,119951.993,119967.08000000217,119968.66,120285.333,,38,whether
screen,html.Screen,1_1_0_1_39,2021-04-28T15:16:53.163Z,,,,,,,,,,,,,,,,53,,,,,,,,,,,,,,355.58199999631324,,response,,,,99,,,,,,,Space,keypress(Space),,,,,,,,---- -- ----- -- ------ - ------- --- ----------<br>------------- ------ ------ ---- ---- ------- ----- -- ----<br>-------- ------- -- ---------- --- - --- ----- ----- ----<br>---- --- --- ----- --- ---- ---- ------- ----- ---- -------<br>you --- -- ----- -- --- ---- -- --- ---- -- ------ ------<br>--- ----- -- ----,120644.63499999692,120640.91499999631,120268.666,120282.00500000094,120285.333,120652.007,,39,you
screen,html.Screen,1_1_0_1_40,2021-04-28T15:16:53.347Z,,,,,,,,,,,,,,,,53,,,,,,,,,,,,,,172.90799999742012,,response,,,,99,,,,,,,Space,keypress(Space),,,,,,,,---- -- ----- -- ------ - ------- --- ----------<br>------------- ------ ------ ---- ---- ------- ----- -- ----<br>-------- ------- -- ---------- --- - --- ----- ----- ----<br>---- --- --- ----- --- ---- ---- ------- ----- ---- -------<br>--- are -- ----- -- --- ---- -- --- ---- -- ------ ------<br>--- ----- -- ----,120828.7199999977,120824.91499999742,120635.34,120644.80499999627,120652.007,120835.344,,40,are
screen,html.Screen,1_1_0_1_41,2021-04-28T15:16:53.551Z,,,,,,,,,,,,,,,,53,,,,,,,,,,,,,,193.54099999972095,,response,,,,99,,,,,,,Space,keypress(Space),,,,,,,,---- -- ----- -- ------ - ------- --- ----------<br>------------- ------ ------ ---- ---- ------- ----- -- ----<br>-------- ------- -- ---------- --- - --- ----- ----- ----<br>---- --- --- ----- --- ---- ---- ------- ----- ---- -------<br>--- --- as ----- -- --- ---- -- --- ---- -- ------ ------<br>--- ----- -- ----,121032.69,121028.88499999972,120818.677,120829.12000000215,120835.344,121035.348,,41,as
screen,html.Screen,1_1_0_1_42,2021-04-28T15:16:53.755Z,,,,,,,,,,,,,,,,53,,,,,,,,,,,,,,197.52700000151526,,response,,,,99,,,,,,,Space,keypress(Space),,,,,,,,---- -- ----- -- ------ - ------- --- ----------<br>------------- ------ ------ ---- ---- ------- ----- -- ----<br>-------- ------- -- ---------- --- - --- ----- ----- ----<br>---- --- --- ----- --- ---- ---- ------- ----- ---- -------<br>--- --- -- close -- --- ---- -- --- ---- -- ------ ------<br>--- ----- -- ----,121236.74500000197,121232.87500000151,121018.681,121033.01500000089,121035.348,121252.019,,42,close
screen,html.Screen,1_1_0_1_43,2021-04-28T15:16:53.944Z,,,,,,,,,,,,,,,,53,,,,,,,,,,,,,,169.8410000021977,,response,,,,99,,,,,,,Space,keypress(Space),,,,,,,,---- -- ----- -- ------ - ------- --- ----------<br>------------- ------ ------ ---- ---- ------- ----- -- ----<br>-------- ------- -- ---------- --- - --- ----- ----- ----<br>---- --- --- ----- --- ---- ---- ------- ----- ---- -------<br>--- --- -- ----- as --- ---- -- --- ---- -- ------ ------<br>--- ----- -- ----,121425.53999999654,121421.8600000022,121235.352,121236.92999999912,121252.019,121435.356,,43,as
screen,html.Screen,1_1_0_1_44,2021-04-28T15:16:54.154Z,,,,,,,,,,,,,,,,53,,,,,,,,,,,,,,196.49399999793968,,response,,,,99,,,,,,,Space,keypress(Space),,,,,,,,---- -- ----- -- ------ - ------- --- ----------<br>------------- ------ ------ ---- ---- ------- ----- -- ----<br>-------- ------- -- ---------- --- - --- ----- ----- ----<br>---- --- --- ----- --- ---- ---- ------- ----- ---- -------<br>--- --- -- ----- -- you ---- -- --- ---- -- ------ ------<br>--- ----- -- ----,121635.6900000028,121631.84999999794,121418.689,121425.71999999927,121435.356,121652.027,,44,you
screen,html.Screen,1_1_0_1_45,2021-04-28T15:16:54.358Z,,,,,,,,,,,,,,,,53,,,,,,,,,,,,,,183.80799999804003,,response,,,,99,,,,,,,Space,keypress(Space),,,,,,,,---- -- ----- -- ------ - ------- --- ----------<br>------------- ------ ------ ---- ---- ------- ----- -- ----<br>-------- ------- -- ---------- --- - --- ----- ----- ----<br>---- --- --- ----- --- ---- ---- ------- ----- ---- -------<br>--- --- -- ----- -- --- want -- --- ---- -- ------ ------<br>--- ----- -- ----,121839.50999999797,121835.83499999804,121635.36,121635.87499999994,121652.027,121852.031,,45,want
screen,html.Screen,1_1_0_1_46,2021-04-28T15:16:54.580Z,,,,,,,,,,,,,,,,53,,,,,,,,,,,,,,205.60899999907997,,response,,,,99,,,,,,,Space,keypress(Space),,,,,,,,---- -- ----- -- ------ - ------- --- ----------<br>------------- ------ ------ ---- ---- ------- ----- -- ----<br>-------- ------- -- ---------- --- - --- ----- ----- ----<br>---- --- --- ----- --- ---- ---- ------- ----- ---- -------<br>--- --- -- ----- -- --- ---- to --- ---- -- ------ ------<br>--- ----- -- ----,122061.38500000088,122057.63999999908,121835.364,121841.37999999803,121852.031,122068.702,,46,to
screen,html.Screen,1_1_0_1_47,2021-04-28T15:16:54.800Z,,,,,,,,,,,,,,,,53,,,,,,,,,,,,,,208.9430000019347,,response,,,,99,,,,,,,Space,keypress(Space),,,,,,,,"---- -- ----- -- ------ - ------- --- ----------<br>------------- ------ ------ ---- ---- ------- ----- -- ----<br>-------- ------- -- ---------- --- - --- ----- ----- ----<br>---- --- --- ----- --- ---- ---- ------- ----- ---- -------<br>--- --- -- ----- -- --- ---- -- be, ---- -- ------ ------<br>--- ----- -- ----",122281.57500000088,122277.64500000194,122052.035,122061.57499999972,122068.702,122285.373,,47,"be,"
screen,html.Screen,1_1_0_1_48,2021-04-28T15:16:55.011Z,,,,,,,,,,,,,,,,53,,,,,,,,,,,,,,203.43200000085926,,response,,,,99,,,,,,,Space,keypress(Space),,,,,,,,---- -- ----- -- ------ - ------- --- ----------<br>------------- ------ ------ ---- ---- ------- ----- -- ----<br>-------- ------- -- ---------- --- - --- ----- ----- ----<br>---- --- --- ----- --- ---- ---- ------- ----- ---- -------<br>--- --- -- ----- -- --- ---- -- --- even -- ------ ------<br>--- ----- -- ----,122492.4949999986,122488.80500000087,122268.706,122281.75499999634,122285.373,122502.044,,48,even
screen,html.Screen,1_1_0_1_49,2021-04-28T15:16:55.206Z,,,,,,,,,,,,,,,,53,,,,,,,,,,,,,,181.72599999600789,,response,,,,99,,,,,,,Space,keypress(Space),,,,,,,,---- -- ----- -- ------ - ------- --- ----------<br>------------- ------ ------ ---- ---- ------- ----- -- ----<br>-------- ------- -- ---------- --- - --- ----- ----- ----<br>---- --- --- ----- --- ---- ---- ------- ----- ---- -------<br>--- --- -- ----- -- --- ---- -- --- ---- if ------ ------<br>--- ----- -- ----,122687.70499999664,122683.769999996,122485.377,122492.66499999794,122502.044,122702.048,,49,if
screen,html.Screen,1_1_0_1_50,2021-04-28T15:16:55.391Z,,,,,,,,,,,,,,,,53,,,,,,,,,,,,,,166.66200000247045,,response,,,,99,,,,,,,Space,keypress(Space),,,,,,,,---- -- ----- -- ------ - ------- --- ----------<br>------------- ------ ------ ---- ---- ------- ----- -- ----<br>-------- ------- -- ---------- --- - --- ----- ----- ----<br>---- --- --- ----- --- ---- ---- ------- ----- ---- -------<br>--- --- -- ----- -- --- ---- -- --- ---- -- that's ------<br>--- ----- -- ----,122872.44500000088,122868.71000000247,122685.381,122687.87000000157,122702.048,122885.385,,50,that's
screen,html.Screen,1_1_0_1_51,2021-04-28T15:16:55.564Z,,,,,,,,,,,,,,,,53,,,,,,,,,,,,,,156.36000000227068,,response,,,,99,,,,,,,Space,keypress(Space),,,,,,,,---- -- ----- -- ------ - ------- --- ----------<br>------------- ------ ------ ---- ---- ------- ----- -- ----<br>-------- ------- -- ---------- --- - --- ----- ----- ----<br>---- --- --- ----- --- ---- ---- ------- ----- ---- -------<br>--- --- -- ----- -- --- ---- -- --- ---- -- ------ really<br>--- ----- -- ----,123045.42499999661,123041.74500000227,122868.718,122872.60999999853,122885.385,123052.055,,51,really
screen,html.Screen,1_1_0_1_52,2021-04-28T15:16:55.974Z,,,,,,,,,,,,,,,,53,,,,,,,,,,,,,,399.5100000030361,,response,,,,99,,,,,,,Space,keypress(Space),,,,,,,,---- -- ----- -- ------ - ------- --- ----------<br>------------- ------ ------ ---- ---- ------- ----- -- ----<br>-------- ------- -- ---------- --- - --- ----- ----- ----<br>---- --- --- ----- --- ---- ---- ------- ----- ---- -------<br>--- --- -- ----- -- --- ---- -- --- ---- -- ------ ------<br>not ----- -- ----,123455.34999999654,123451.56500000303,123035.388,123045.59499999596,123052.055,123468.73,,52,not
screen,html.Screen,1_1_0_1_53,2021-04-28T15:16:56.143Z,,,,,,,,,,,,,,,,53,,,,,,,,,,,,,,151.91999999711697,,response,,,,99,,,,,,,Space,keypress(Space),,,,,,,,---- -- ----- -- ------ - ------- --- ----------<br>------------- ------ ------ ---- ---- ------- ----- -- ----<br>-------- ------- -- ---------- --- - --- ----- ----- ----<br>---- --- --- ----- --- ---- ---- ------- ----- ---- -------<br>--- --- -- ----- -- --- ---- -- --- ---- -- ------ ------<br>--- close -- ----,123624.4549999974,123620.64999999711,123452.063,123455.51500000147,123468.73,123635.4,,53,close
screen,html.Screen,1_1_0_1_54,2021-04-28T15:16:56.528Z,,,,,,,,,,,,,,,,53,,,,,,,,,,,,,,370.2750000003434,,response,,,,99,,,,,,,Space,keypress(Space),,,,,,,,---- -- ----- -- ------ - ------- --- ----------<br>------------- ------ ------ ---- ---- ------- ----- -- ----<br>-------- ------- -- ---------- --- - --- ----- ----- ----<br>---- --- --- ----- --- ---- ---- ------- ----- ---- -------<br>--- --- -- ----- -- --- ---- -- --- ---- -- ------ ------<br>--- ----- at ----,124009.50999999623,124005.67500000034,123618.733,123624.62499999674,123635.4,124018.741,,54,at
screen,html.Screen,1_1_0_1_55,2021-04-28T15:16:56.925Z,,,,,,,,,,,,,,,,53,,,,,,,,,,,,,,383.9240000014397,,response,,,,99,,,,,,,Space,keypress(Space),,,,,,,,---- -- ----- -- ------ - ------- --- ----------<br>------------- ------ ------ ---- ---- ------- ----- -- ----<br>-------- ------- -- ---------- --- - --- ----- ----- ----<br>---- --- --- ----- --- ---- ---- ------- ----- ---- -------<br>--- --- -- ----- -- --- ---- -- --- ---- -- ------ ------<br>--- ----- -- all.,124406.5150000024,124402.66500000143,124002.074,124009.68999999895,124018.741,124418.749,,55,all.
Item 99,flow.Loop,1_1_0_1,2021-04-28T15:16:56.926Z,,,,,,,,,,,,,,,,,,,,,,,,,,,,,,20652.029000001436,,completion,,,,,F,,,,,,,,,,,silence,,,,,124407.33499999624,124402.66500000143,103733.969,103736.93500000081,103750.636,124418.749,,,
Question 1,html.Screen,1_1_0_2,2021-04-28T15:17:00.135Z,,,,,,,,,,,,,,,,,,,,,,,,,,,true,FALSE,,3194.9209999988234,,response,,,,99,F,,,,,,FALSE,click #choice-2,,,,silence,,,,,127616.25500000082,127613.66999999882,124402.082,124407.50500000286,124418.749,127619.285,,,
Question 2,html.Screen,1_1_0_3,2021-04-28T15:17:05.439Z,,,,,,,,,,,,,,,,,,,,,,,,,,,true,TRUE,,5298.400000000343,,response,,,,99,F,,,,,,TRUE,click #choice-1,,,,silence,,,,,132920.435,132917.68500000035,127602.618,127616.52499999764,127619.285,132936.058,,,
Item 99,flow.Sequence,1_1_0,2021-04-28T15:17:05.439Z,,,,,,,,,,,,,,,,,,,,,,,,,,,,,,39168.41000000035,,completion,,,,,,,,,,,,,,,,,,,,,132920.81999999937,132917.68500000035,93732.608,93746.48499999603,93749.275,132936.058,,,
Holding screen,html.Screen,1_1_1_0,2021-04-28T15:17:15.441Z,,,,,,,,,,,,,,,,,,,,,,,,,,,,,,10000.638999999996,,timeout,,,,,,,,,,,,,,,,,,,,,142921.66999999608,142920.03,132919.391,132921.08000000007,132936.058,142936.697,,,
screen,html.Screen,1_1_1_1_0,2021-04-28T15:17:19.103Z,,,,,,,,,,,,,,,,54,,,,,,,,,,,,,,3642.447999996075,,response,,,,100,,,,,,,Space,keypress(Space),,,,,,,,At --- ---- --- ------ ----- ------- ---- -- --- ------- --<br>------- ---------- ------ -- ----- -- ----- -- ---- ------<br>--- ----- --- --- ------ -------- ----- --- ------ ----- --<br>----- ----- ---------- --- --- ------ ------ ---- -- ------<br>------- --- ------ ----- --- ---- ------- -- ---- --- --<br>------- ------,146583.6649999983,146579.14499999606,142920.03,142921.8899999978,142936.697,146586.77,,0,At
screen,html.Screen,1_1_1_1_1,2021-04-28T15:17:20.013Z,,,,,,,,,,,,,,,,54,,,,,,,,,,,,,,902.9650000028487,,response,,,,100,,,,,,,Space,keypress(Space),,,,,,,,-- the ---- --- ------ ----- ------- ---- -- --- ------- --<br>------- ---------- ------ -- ----- -- ----- -- ---- ------<br>--- ----- --- --- ------ -------- ----- --- ------ ----- --<br>----- ----- ---------- --- --- ------ ------ ---- -- ------<br>------- --- ------ ----- --- ---- ------- -- ---- --- --<br>------- ------,147493.47999999736,147489.73500000284,146570.103,146583.8500000027,146586.77,147503.455,,1,the
screen,html.Screen,1_1_1_1_2,2021-04-28T15:17:20.452Z,,,,,,,,,,,,,,,,54,,,,,,,,,,,,,,425.27499999964493,,response,,,,100,,,,,,,Space,keypress(Space),,,,,,,,-- --- time --- ------ ----- ------- ---- -- --- ------- --<br>------- ---------- ------ -- ----- -- ----- -- ---- ------<br>--- ----- --- --- ------ -------- ----- --- ------ ----- --<br>----- ----- ---------- --- --- ------ ------ ---- -- ------<br>------- --- ------ ----- --- ---- ------- -- ---- --- --<br>------- ------,147932.48499999754,147928.72999999963,147486.788,147493.6499999967,147503.455,147937.441,,2,time
screen,html.Screen,1_1_1_1_3,2021-04-28T15:17:20.847Z,,,,,,,,,,,,,,,,54,,,,,,,,,,,,,,386.2489999974496,,response,,,,100,,,,,,,Space,keypress(Space),,,,,,,,-- --- ---- the ------ ----- ------- ---- -- --- ------- --<br>------- ---------- ------ -- ----- -- ----- -- ---- ------<br>--- ----- --- --- ------ -------- ----- --- ------ ----- --<br>----- ----- ---------- --- --- ------ ------ ---- -- ------<br>------- --- ------ ----- --- ---- ------- -- ---- --- --<br>------- ------,148327.44500000263,148323.68999999744,147920.774,147932.65000000247,147937.441,148337.449,,3,the
screen,html.Screen,1_1_1_1_4,2021-04-28T15:17:21.188Z,,,,,,,,,,,,,,,,54,,,,,,,,,,,,,,327.2560000028752,,response,,,,100,,,,,,,Space,keypress(Space),,,,,,,,-- --- ---- --- French ----- ------- ---- -- --- ------- --<br>------- ---------- ------ -- ----- -- ----- -- ---- ------<br>--- ----- --- --- ------ -------- ----- --- ------ ----- --<br>----- ----- ---------- --- --- ------ ------ ---- -- ------<br>------- --- ------ ----- --- ---- ------- -- ---- --- --<br>------- ------,148668.48500000197,148664.70500000287,148320.782,148327.60499999858,148337.449,148670.789,,4,French
screen,html.Screen,1_1_1_1_5,2021-04-28T15:17:21.492Z,,,,,,,,,,,,,,,,54,,,,,,,,,,,,,,297.8659999969532,,response,,,,100,,,,,,,Space,keypress(Space),,,,,,,,-- --- ---- --- ------ crown ------- ---- -- --- ------- --<br>------- ---------- ------ -- ----- -- ----- -- ---- ------<br>--- ----- --- --- ------ -------- ----- --- ------ ----- --<br>----- ----- ---------- --- --- ------ ------ ---- -- ------<br>------- --- ------ ----- --- ---- ------- -- ---- --- --<br>------- ------,148972.5049999979,148968.65499999694,148654.122,148668.64999999962,148670.789,148987.462,,5,crown
screen,html.Screen,1_1_1_1_6,2021-04-28T15:17:21.732Z,,,,,,,,,,,,,,,,54,,,,,,,,,,,,,,222.01299999601906,,response,,,,100,,,,,,,Space,keypress(Space),,,,,,,,-- --- ---- --- ------ ----- secured ---- -- --- ------- --<br>------- ---------- ------ -- ----- -- ----- -- ---- ------<br>--- ----- --- --- ------ -------- ----- --- ------ ----- --<br>----- ----- ---------- --- --- ------ ------ ---- -- ------<br>------- --- ------ ----- --- ---- ------- -- ---- --- --<br>------- ------,149213.3049999975,149209.47499999602,148970.795,148972.68500000064,148987.462,149220.8,,6,secured
screen,html.Screen,1_1_1_1_7,2021-04-28T15:17:22.035Z,,,,,,,,,,,,,,,,54,,,,,,,,,,,,,,290.8399999969988,,response,,,,100,,,,,,,Space,keypress(Space),,,,,,,,-- --- ---- --- ------ ----- ------- much -- --- ------- --<br>------- ---------- ------ -- ----- -- ----- -- ---- ------<br>--- ----- --- --- ------ -------- ----- --- ------ ----- --<br>----- ----- ---------- --- --- ------ ------ ---- -- ------<br>------- --- ------ ----- --- ---- ------- -- ---- --- --<br>------- ------,149515.40999999997,149511.639999997,149204.133,149213.47499999683,149220.8,149520.806,,7,much
screen,html.Screen,1_1_1_1_8,2021-04-28T15:17:22.239Z,,,,,,,,,,,,,,,,54,,,,,,,,,,,,,,195.6490000015765,,response,,,,100,,,,,,,Space,keypress(Space),,,,,,,,-- --- ---- --- ------ ----- ------- ---- of --- ------- --<br>------- ---------- ------ -- ----- -- ----- -- ---- ------<br>--- ----- --- --- ------ -------- ----- --- ------ ----- --<br>----- ----- ---------- --- --- ------ ------ ---- -- ------<br>------- --- ------ ----- --- ---- ------- -- ---- --- --<br>------- ------,149720.13499999593,149716.4550000016,149504.139,149515.57999999932,149520.806,149737.477,,8,of
screen,html.Screen,1_1_1_1_9,2021-04-28T15:17:22.453Z,,,,,,,,,,,,,,,,54,,,,,,,,,,,,,,193.06800000288058,,response,,,,100,,,,,,,Space,keypress(Space),,,,,,,,-- --- ---- --- ------ ----- ------- ---- -- its ------- --<br>------- ---------- ------ -- ----- -- ----- -- ---- ------<br>--- ----- --- --- ------ -------- ----- --- ------ ----- --<br>----- ----- ---------- --- --- ------ ------ ---- -- ------<br>------- --- ------ ----- --- ---- ------- -- ---- --- --<br>------- ------,149934.3050000025,149930.5450000029,149720.81,149720.30500000255,149737.477,149937.481,,9,its
screen,html.Screen,1_1_1_1_10,2021-04-28T15:17:22.654Z,,,,,,,,,,,,,,,,54,,,,,,,,,,,,,,194.04399999705493,,response,,,,100,,,,,,,Space,keypress(Space),,,,,,,,-- --- ---- --- ------ ----- ------- ---- -- --- revenue --<br>------- ---------- ------ -- ----- -- ----- -- ---- ------<br>--- ----- --- --- ------ -------- ----- --- ------ ----- --<br>----- ----- ---------- --- --- ------ ------ ---- -- ------<br>------- --- ------ ----- --- ---- ------- -- ---- --- --<br>------- ------,150135.23999999597,150131.52499999705,149920.814,149934.47000000015,149937.481,150137.485,,10,revenue
screen,html.Screen,1_1_1_1_11,2021-04-28T15:17:22.862Z,,,,,,,,,,,,,,,,54,,,,,,,,,,,,,,202.04499999748077,,response,,,,100,,,,,,,Space,keypress(Space),,,,,,,,-- --- ---- --- ------ ----- ------- ---- -- --- ------- by<br>------- ---------- ------ -- ----- -- ----- -- ---- ------<br>--- ----- --- --- ------ -------- ----- --- ------ ----- --<br>----- ----- ---------- --- --- ------ ------ ---- -- ------<br>------- --- ------ ----- --- ---- ------- -- ---- --- --<br>------- ------,150343.26999999757,150339.52999999747,150120.818,150135.4050000009,150137.485,150354.156,,11,by
screen,html.Screen,1_1_1_1_12,2021-04-28T15:17:23.055Z,,,,,,,,,,,,,,,,54,,,,,,,,,,,,,,178.29900000049383,,response,,,,100,,,,,,,Space,keypress(Space),,,,,,,,-- --- ---- --- ------ ----- ------- ---- -- --- ------- --<br>issuing ---------- ------ -- ----- -- ----- -- ---- ------<br>--- ----- --- --- ------ -------- ----- --- ------ ----- --<br>----- ----- ---------- --- --- ------ ------ ---- -- ------<br>------- --- ------ ----- --- ---- ------- -- ---- --- --<br>------- ------,150536.22000000178,150532.45500000048,150337.489,150343.4449999986,150354.156,150537.493,,12,issuing
screen,html.Screen,1_1_1_1_13,2021-04-28T15:17:23.262Z,,,,,,,,,,,,,,,,54,,,,,,,,,,,,,,201.0019999977958,,response,,,,100,,,,,,,Space,keypress(Space),,,,,,,,-- --- ---- --- ------ ----- ------- ---- -- --- ------- --<br>------- government ------ -- ----- -- ----- -- ---- ------<br>--- ----- --- --- ------ -------- ----- --- ------ ----- --<br>----- ----- ---------- --- --- ------ ------ ---- -- ------<br>------- --- ------ ----- --- ---- ------- -- ---- --- --<br>------- ------,150742.4549999996,150738.49499999778,150520.826,150536.3950000028,150537.493,150754.164,,13,government
screen,html.Screen,1_1_1_1_14,2021-04-28T15:17:23.747Z,,,,,,,,,,,,,,,,54,,,,,,,,,,,,,,469.2859999976936,,response,,,,100,,,,,,,Space,keypress(Space),,,,,,,,-- --- ---- --- ------ ----- ------- ---- -- --- ------- --<br>------- ---------- bonds. -- ----- -- ----- -- ---- ------<br>--- ----- --- --- ------ -------- ----- --- ------ ----- --<br>----- ----- ---------- --- --- ------ ------ ---- -- ------<br>------- --- ------ ----- --- ---- ------- -- ---- --- --<br>------- ------,151227.37000000052,151223.44999999768,150737.497,150742.62499999895,150754.164,151237.507,,14,bonds.
screen,html.Screen,1_1_1_1_15,2021-04-28T15:17:24.266Z,,,,,,,,,,,,,,,,54,,,,,,,,,,,,,,505.8729999998759,,response,,,,100,,,,,,,Space,keypress(Space),,,,,,,,-- --- ---- --- ------ ----- ------- ---- -- --- ------- --<br>------- ---------- ------ In ----- -- ----- -- ---- ------<br>--- ----- --- --- ------ -------- ----- --- ------ ----- --<br>----- ----- ---------- --- --- ------ ------ ---- -- ------<br>------- --- ------ ----- --- ---- ------- -- ---- --- --<br>------- ------,151747.1050000022,151743.3799999999,151220.84,151227.53999999986,151237.507,151754.184,,15,In
screen,html.Screen,1_1_1_1_16,2021-04-28T15:17:24.571Z,,,,,,,,,,,,,,,,54,,,,,,,,,,,,,,294.2059999962803,,response,,,,100,,,,,,,Space,keypress(Space),,,,,,,,"-- --- ---- --- ------ ----- ------- ---- -- --- ------- --<br>------- ---------- ------ -- 1727, -- ----- -- ---- ------<br>--- ----- --- --- ------ -------- ----- --- ------ ----- --<br>----- ----- ---------- --- --- ------ ------ ---- -- ------<br>------- --- ------ ----- --- ---- ------- -- ---- --- --<br>------- ------",152052.13999999978,152048.3899999963,151737.517,151747.49000000156,151754.184,152054.19,,16,"1727,"
screen,html.Screen,1_1_1_1_17,2021-04-28T15:17:24.897Z,,,,,,,,,,,,,,,,54,,,,,,,,,,,,,,320.20499999891035,,response,,,,100,,,,,,,Space,keypress(Space),,,,,,,,-- --- ---- --- ------ ----- ------- ---- -- --- ------- --<br>------- ---------- ------ -- ----- in ----- -- ---- ------<br>--- ----- --- --- ------ -------- ----- --- ------ ----- --<br>----- ----- ---------- --- --- ------ ------ ---- -- ------<br>------- --- ------ ----- --- ---- ------- -- ---- --- --<br>------- ------,152378.2399999982,152374.3949999989,152037.523,152052.30999999912,152054.19,152387.53,,17,in
screen,html.Screen,1_1_1_1_18,2021-04-28T15:17:25.161Z,,,,,,,,,,,,,,,,54,,,,,,,,,,,,,,250.84000000057858,,response,,,,100,,,,,,,Space,keypress(Space),,,,,,,,-- --- ---- --- ------ ----- ------- ---- -- --- ------- --<br>------- ---------- ------ -- ----- -- order -- ---- ------<br>--- ----- --- --- ------ -------- ----- --- ------ ----- --<br>----- ----- ---------- --- --- ------ ------ ---- -- ------<br>------- --- ------ ----- --- ---- ------- -- ---- --- --<br>------- ------,152642.14499999798,152638.37000000058,152370.863,152378.40999999753,152387.53,152654.202,,18,order
screen,html.Screen,1_1_1_1_19,2021-04-28T15:17:25.397Z,,,,,,,,,,,,,,,,54,,,,,,,,,,,,,,220.16299999604234,,response,,,,100,,,,,,,Space,keypress(Space),,,,,,,,-- --- ---- --- ------ ----- ------- ---- -- --- ------- --<br>------- ---------- ------ -- ----- -- ----- to ---- ------<br>--- ----- --- --- ------ -------- ----- --- ------ ----- --<br>----- ----- ---------- --- --- ------ ------ ---- -- ------<br>------- --- ------ ----- --- ---- ------- -- ---- --- --<br>------- ------,152878.1999999992,152874.36499999603,152637.535,152642.3100000029,152654.202,152887.54,,19,to
screen,html.Screen,1_1_1_1_20,2021-04-28T15:17:25.629Z,,,,,,,,,,,,,,,,54,,,,,,,,,,,,,,218.74999999607098,,response,,,,100,,,,,,,Space,keypress(Space),,,,,,,,-- --- ---- --- ------ ----- ------- ---- -- --- ------- --<br>------- ---------- ------ -- ----- -- ----- -- save ------<br>--- ----- --- --- ------ -------- ----- --- ------ ----- --<br>----- ----- ---------- --- --- ------ ------ ---- -- ------<br>------- --- ------ ----- --- ---- ------- -- ---- --- --<br>------- ------,153110.13500000263,153106.28999999608,152870.873,152878.38499999634,152887.54,153120.878,,20,save
screen,html.Screen,1_1_1_1_21,2021-04-28T15:17:25.848Z,,,,,,,,,,,,,,,,54,,,,,,,,,,,,,,204.45199999967008,,response,,,,100,,,,,,,Space,keypress(Space),,,,,,,,"-- --- ---- --- ------ ----- ------- ---- -- --- ------- --<br>------- ---------- ------ -- ----- -- ----- -- ---- money,<br>--- ----- --- --- ------ -------- ----- --- ------ ----- --<br>----- ----- ---------- --- --- ------ ------ ---- -- ------<br>------- --- ------ ----- --- ---- ------- -- ---- --- --<br>------- ------",153329.12999999826,153325.32999999967,153104.211,153110.30000000028,153120.878,153337.549,,21,"money,"
screen,html.Screen,1_1_1_1_22,2021-04-28T15:17:26.049Z,,,,,,,,,,,,,,,,54,,,,,,,,,,,,,,188.77099999721395,,response,,,,100,,,,,,,Space,keypress(Space),,,,,,,,-- --- ---- --- ------ ----- ------- ---- -- --- ------- --<br>------- ---------- ------ -- ----- -- ----- -- ---- ------<br>the ----- --- --- ------ -------- ----- --- ------ ----- --<br>----- ----- ---------- --- --- ------ ------ ---- -- ------<br>------- --- ------ ----- --- ---- ------- -- ---- --- --<br>------- ------,153530.1150000014,153526.3199999972,153320.882,153329.2949999959,153337.549,153537.553,,22,the
screen,html.Screen,1_1_1_1_23,2021-04-28T15:17:26.253Z,,,,,,,,,,,,,,,,54,,,,,,,,,,,,,,192.7470000028843,,response,,,,100,,,,,,,Space,keypress(Space),,,,,,,,-- --- ---- --- ------ ----- ------- ---- -- --- ------- --<br>------- ---------- ------ -- ----- -- ----- -- ---- ------<br>--- state --- --- ------ -------- ----- --- ------ ----- --<br>----- ----- ---------- --- --- ------ ------ ---- -- ------<br>------- --- ------ ----- --- ---- ------- -- ---- --- --<br>------- ------,153734.1149999993,153730.3000000029,153520.886,153530.27999999904,153537.553,153737.557,,23,state
screen,html.Screen,1_1_1_1_24,2021-04-28T15:17:26.422Z,,,,,,,,,,,,,,,,54,,,,,,,,,,,,,,161.6979999966279,,response,,,,100,,,,,,,Space,keypress(Space),,,,,,,,-- --- ---- --- ------ ----- ------- ---- -- --- ------- --<br>------- ---------- ------ -- ----- -- ----- -- ---- ------<br>--- ----- cut --- ------ -------- ----- --- ------ ----- --<br>----- ----- ---------- --- --- ------ ------ ---- -- ------<br>------- --- ------ ----- --- ---- ------- -- ---- --- --<br>------- ------,153902.97000000282,153899.25499999663,153720.89,153734.27999999694,153737.557,153904.227,,24,cut
screen,html.Screen,1_1_1_1_25,2021-04-28T15:17:26.652Z,,,,,,,,,,,,,,,,54,,,,,,,,,,,,,,225.0479999993113,,response,,,,100,,,,,,,Space,keypress(Space),,,,,,,,-- --- ---- --- ------ ----- ------- ---- -- --- ------- --<br>------- ---------- ------ -- ----- -- ----- -- ---- ------<br>--- ----- --- the ------ -------- ----- --- ------ ----- --<br>----- ----- ---------- --- --- ------ ------ ---- -- ------<br>------- --- ------ ----- --- ---- ------- -- ---- --- --<br>------- ------,154132.92999999976,154129.27499999932,153887.56,153903.14000000217,153904.227,154137.565,,25,the
screen,html.Screen,1_1_1_1_26,2021-04-28T15:17:26.858Z,,,,,,,,,,,,,,,,54,,,,,,,,,,,,,,197.70000000152504,,response,,,,100,,,,,,,Space,keypress(Space),,,,,,,,-- --- ---- --- ------ ----- ------- ---- -- --- ------- --<br>------- ---------- ------ -- ----- -- ----- -- ---- ------<br>--- ----- --- --- bonds' -------- ----- --- ------ ----- --<br>----- ----- ---------- --- --- ------ ------ ---- -- ------<br>------- --- ------ ----- --- ---- ------- -- ---- --- --<br>------- ------,154339.095000003,154335.26500000153,154120.898,154133.0999999991,154137.565,154354.236,,26,bonds'
screen,html.Screen,1_1_1_1_27,2021-04-28T15:17:27.136Z,,,,,,,,,,,,,,,,54,,,,,,,,,,,,,,259.0039999987639,,response,,,,100,,,,,,,Space,keypress(Space),,,,,,,,-- --- ---- --- ------ ----- ------- ---- -- --- ------- --<br>------- ---------- ------ -- ----- -- ----- -- ---- ------<br>--- ----- --- --- ------ interest ----- --- ------ ----- --<br>----- ----- ---------- --- --- ------ ------ ---- -- ------<br>------- --- ------ ----- --- ---- ------- -- ---- --- --<br>------- ------,154617.14999999822,154613.23999999877,154337.569,154339.26999999676,154354.236,154620.908,,27,interest
screen,html.Screen,1_1_1_1_28,2021-04-28T15:17:27.402Z,,,,,,,,,,,,,,,,54,,,,,,,,,,,,,,258.24200000066776,,response,,,,100,,,,,,,Space,keypress(Space),,,,,,,,-- --- ---- --- ------ ----- ------- ---- -- --- ------- --<br>------- ---------- ------ -- ----- -- ----- -- ---- ------<br>--- ----- --- --- ------ -------- rate. --- ------ ----- --<br>----- ----- ---------- --- --- ------ ------ ---- -- ------<br>------- --- ------ ----- --- ---- ------- -- ---- --- --<br>------- ------,154882.94999999925,154879.15000000066,154604.241,154617.31499999587,154620.908,154887.58,,28,rate.
screen,html.Screen,1_1_1_1_29,2021-04-28T15:17:27.840Z,,,,,,,,,,,,,,,,54,,,,,,,,,,,,,,429.61000000158674,,response,,,,100,,,,,,,Space,keypress(Space),,,,,,,,-- --- ---- --- ------ ----- ------- ---- -- --- ------- --<br>------- ---------- ------ -- ----- -- ----- -- ---- ------<br>--- ----- --- --- ------ -------- ----- The ------ ----- --<br>----- ----- ---------- --- --- ------ ------ ---- -- ------<br>------- --- ------ ----- --- ---- ------- -- ---- --- --<br>------- ------,155321.02499999746,155317.19000000157,154870.913,154883.1149999969,154887.58,155337.589,,29,The
screen,html.Screen,1_1_1_1_30,2021-04-28T15:17:28.081Z,,,,,,,,,,,,,,,,54,,,,,,,,,,,,,,220.57600000218372,,response,,,,100,,,,,,,Space,keypress(Space),,,,,,,,-- --- ---- --- ------ ----- ------- ---- -- --- ------- --<br>------- ---------- ------ -- ----- -- ----- -- ---- ------<br>--- ----- --- --- ------ -------- ----- --- market ----- --<br>----- ----- ---------- --- --- ------ ------ ---- -- ------<br>------- --- ------ ----- --- ---- ------- -- ---- --- --<br>------- ------,155561.9749999969,155558.1650000022,155320.922,155321.1949999968,155337.589,155570.927,,30,market
screen,html.Screen,1_1_1_1_31,2021-04-28T15:17:28.300Z,,,,,,,,,,,,,,,,54,,,,,,,,,,,,,,206.20799999663723,,response,,,,100,,,,,,,Space,keypress(Space),,,,,,,,-- --- ---- --- ------ ----- ------- ---- -- --- ------- --<br>------- ---------- ------ -- ----- -- ----- -- ---- ------<br>--- ----- --- --- ------ -------- ----- --- ------ value --<br>----- ----- ---------- --- --- ------ ------ ---- -- ------<br>------- --- ------ ----- --- ---- ------- -- ---- --- --<br>------- ------,155780.87499999674,155777.13499999663,155554.26,155562.13500000013,155570.927,155787.598,,31,value
screen,html.Screen,1_1_1_1_32,2021-04-28T15:17:28.562Z,,,,,,,,,,,,,,,,54,,,,,,,,,,,,,,251.50699999619974,,response,,,,100,,,,,,,Space,keypress(Space),,,,,,,,-- --- ---- --- ------ ----- ------- ---- -- --- ------- --<br>------- ---------- ------ -- ----- -- ----- -- ---- ------<br>--- ----- --- --- ------ -------- ----- --- ------ ----- of<br>----- ----- ---------- --- --- ------ ------ ---- -- ------<br>------- --- ------ ----- --- ---- ------- -- ---- --- --<br>------- ------,156042.86500000308,156039.1049999962,155770.931,155781.04499999608,155787.598,156054.27,,32,of
screen,html.Screen,1_1_1_1_33,2021-04-28T15:17:28.771Z,,,,,,,,,,,,,,,,54,,,,,,,,,,,,,,193.80000000147265,,response,,,,100,,,,,,,Space,keypress(Space),,,,,,,,-- --- ---- --- ------ ----- ------- ---- -- --- ------- --<br>------- ---------- ------ -- ----- -- ----- -- ---- ------<br>--- ----- --- --- ------ -------- ----- --- ------ ----- --<br>these ----- ---------- --- --- ------ ------ ---- -- ------<br>------- --- ------ ----- --- ---- ------- -- ---- --- --<br>------- ------,156251.87000000005,156248.07000000146,156037.603,156043.03500000242,156054.27,156254.274,,33,these
screen,html.Screen,1_1_1_1_34,2021-04-28T15:17:29.014Z,,,,,,,,,,,,,,,,54,,,,,,,,,,,,,,236.8009999980859,,response,,,,100,,,,,,,Space,keypress(Space),,,,,,,,-- --- ---- --- ------ ----- ------- ---- -- --- ------- --<br>------- ---------- ------ -- ----- -- ----- -- ---- ------<br>--- ----- --- --- ------ -------- ----- --- ------ ----- --<br>----- bonds ---------- --- --- ------ ------ ---- -- ------<br>------- --- ------ ----- --- ---- ------- -- ---- --- --<br>------- ------,156494.8549999972,156491.0749999981,156237.607,156252.029999996,156254.274,156504.279,,34,bonds
screen,html.Screen,1_1_1_1_35,2021-04-28T15:17:29.217Z,,,,,,,,,,,,,,,,54,,,,,,,,,,,,,,188.77100000166683,,response,,,,100,,,,,,,Space,keypress(Space),,,,,,,,"-- --- ---- --- ------ ----- ------- ---- -- --- ------- --<br>------- ---------- ------ -- ----- -- ----- -- ---- ------<br>--- ----- --- --- ------ -------- ----- --- ------ ----- --<br>----- ----- plummeted, --- --- ------ ------ ---- -- ------<br>------- --- ------ ----- --- ---- ------- -- ---- --- --<br>------- ------",156697.16499999777,156693.05000000168,156487.612,156495.0200000021,156504.279,156704.283,,35,"plummeted,"
screen,html.Screen,1_1_1_1_36,2021-04-28T15:17:29.445Z,,,,,,,,,,,,,,,,54,,,,,,,,,,,,,,217.7319999964675,,response,,,,100,,,,,,,Space,keypress(Space),,,,,,,,-- --- ---- --- ------ ----- ------- ---- -- --- ------- --<br>------- ---------- ------ -- ----- -- ----- -- ---- ------<br>--- ----- --- --- ------ -------- ----- --- ------ ----- --<br>----- ----- ---------- and --- ------ ------ ---- -- ------<br>------- --- ------ ----- --- ---- ------- -- ---- --- --<br>------- ------,156925.84499999793,156922.01499999646,156687.616,156697.3349999971,156704.283,156937.621,,36,and
screen,html.Screen,1_1_1_1_37,2021-04-28T15:17:29.653Z,,,,,,,,,,,,,,,,54,,,,,,,,,,,,,,192.40399999855435,,response,,,,100,,,,,,,Space,keypress(Space),,,,,,,,-- --- ---- --- ------ ----- ------- ---- -- --- ------- --<br>------- ---------- ------ -- ----- -- ----- -- ---- ------<br>--- ----- --- --- ------ -------- ----- --- ------ ----- --<br>----- ----- ---------- --- the ------ ------ ---- -- ------<br>------- --- ------ ----- --- ---- ------- -- ---- --- --<br>------- ------,157133.82999999885,157130.02499999857,156920.954,156926.01499999728,156937.621,157138.143,,37,the
screen,html.Screen,1_1_1_1_38,2021-04-28T15:17:29.901Z,,,,,,,,,,,,,,,,54,,,,,,,,,,,,,,239.93200000052457,,response,,,,100,,,,,,,Space,keypress(Space),,,,,,,,-- --- ---- --- ------ ----- ------- ---- -- --- ------- --<br>------- ---------- ------ -- ----- -- ----- -- ---- ------<br>--- ----- --- --- ------ -------- ----- --- ------ ----- --<br>----- ----- ---------- --- --- market ------ ---- -- ------<br>------- --- ------ ----- --- ---- ------- -- ---- --- --<br>------- ------,157381.87499999913,157378.07500000054,157121.476,157133.9999999982,157138.143,157388.148,,38,market
screen,html.Screen,1_1_1_1_39,2021-04-28T15:17:30.129Z,,,,,,,,,,,,,,,,54,,,,,,,,,,,,,,217.85700000147335,,response,,,,100,,,,,,,Space,keypress(Space),,,,,,,,-- --- ---- --- ------ ----- ------- ---- -- --- ------- --<br>------- ---------- ------ -- ----- -- ----- -- ---- ------<br>--- ----- --- --- ------ -------- ----- --- ------ ----- --<br>----- ----- ---------- --- --- ------ became ---- -- ------<br>------- --- ------ ----- --- ---- ------- -- ---- --- --<br>------- ------,157609.87000000023,157606.00500000146,157371.481,157382.03999999678,157388.148,157621.486,,39,became
screen,html.Screen,1_1_1_1_40,2021-04-28T15:17:30.362Z,,,,,,,,,,,,,,,,54,,,,,,,,,,,,,,217.3690000017814,,response,,,,100,,,,,,,Space,keypress(Space),,,,,,,,-- --- ---- --- ------ ----- ------- ---- -- --- ------- --<br>------- ---------- ------ -- ----- -- ----- -- ---- ------<br>--- ----- --- --- ------ -------- ----- --- ------ ----- --<br>----- ----- ---------- --- --- ------ ------ wary -- ------<br>------- --- ------ ----- --- ---- ------- -- ---- --- --<br>------- ------,157842.65500000038,157838.8550000018,157604.819,157610.03999999957,157621.486,157854.824,,40,wary
screen,html.Screen,1_1_1_1_41,2021-04-28T15:17:30.607Z,,,,,,,,,,,,,,,,54,,,,,,,,,,,,,,229.12600000019302,,response,,,,100,,,,,,,Space,keypress(Space),,,,,,,,-- --- ---- --- ------ ----- ------- ---- -- --- ------- --<br>------- ---------- ------ -- ----- -- ----- -- ---- ------<br>--- ----- --- --- ------ -------- ----- --- ------ ----- --<br>----- ----- ---------- --- --- ------ ------ ---- of ------<br>------- --- ------ ----- --- ---- ------- -- ---- --- --<br>------- ------,158087.7199999959,158083.9500000002,157838.157,157842.81999999803,157854.824,158104.829,,41,of
screen,html.Screen,1_1_1_1_42,2021-04-28T15:17:30.825Z,,,,,,,,,,,,,,,,54,,,,,,,,,,,,,,197.13099999705446,,response,,,,100,,,,,,,Space,keypress(Space),,,,,,,,-- --- ---- --- ------ ----- ------- ---- -- --- ------- --<br>------- ---------- ------ -- ----- -- ----- -- ---- ------<br>--- ----- --- --- ------ -------- ----- --- ------ ----- --<br>----- ----- ---------- --- --- ------ ------ ---- -- French<br>------- --- ------ ----- --- ---- ------- -- ---- --- --<br>------- ------,158305.71000000054,158301.95999999705,158088.162,158087.89000000252,158104.829,158321.5,,42,French
screen,html.Screen,1_1_1_1_43,2021-04-28T15:17:31.070Z,,,,,,,,,,,,,,,,54,,,,,,,,,,,,,,225.41499999898952,,response,,,,100,,,,,,,Space,keypress(Space),,,,,,,,-- --- ---- --- ------ ----- ------- ---- -- --- ------- --<br>------- ---------- ------ -- ----- -- ----- -- ---- ------<br>--- ----- --- --- ------ -------- ----- --- ------ ----- --<br>----- ----- ---------- --- --- ------ ------ ---- -- ------<br>credit. --- ------ ----- --- ---- ------- -- ---- --- --<br>------- ------,158550.76499999996,158546.914999999,158304.833,158305.889999996,158321.5,158554.838,,43,credit.
screen,html.Screen,1_1_1_1_44,2021-04-28T15:17:31.329Z,,,,,,,,,,,,,,,,54,,,,,,,,,,,,,,251.0470000015921,,response,,,,100,,,,,,,Space,keypress(Space),,,,,,,,-- --- ---- --- ------ ----- ------- ---- -- --- ------- --<br>------- ---------- ------ -- ----- -- ----- -- ---- ------<br>--- ----- --- --- ------ -------- ----- --- ------ ----- --<br>----- ----- ---------- --- --- ------ ------ ---- -- ------<br>------- The ------ ----- --- ---- ------- -- ---- --- --<br>------- ------,158809.77500000154,158805.88500000158,158538.171,158550.9349999993,158554.838,158821.51,,44,The
screen,html.Screen,1_1_1_1_45,2021-04-28T15:17:31.600Z,,,,,,,,,,,,,,,,54,,,,,,,,,,,,,,255.3799999966286,,response,,,,100,,,,,,,Space,keypress(Space),,,,,,,,-- --- ---- --- ------ ----- ------- ---- -- --- ------- --<br>------- ---------- ------ -- ----- -- ----- -- ---- ------<br>--- ----- --- --- ------ -------- ----- --- ------ ----- --<br>----- ----- ---------- --- --- ------ ------ ---- -- ------<br>------- --- French ----- --- ---- ------- -- ---- --- --<br>------- ------,159080.7050000003,159076.88999999664,158804.843,158809.94500000088,158821.51,159088.182,,45,French
screen,html.Screen,1_1_1_1_46,2021-04-28T15:17:31.838Z,,,,,,,,,,,,,,,,54,,,,,,,,,,,,,,226.6979999980831,,response,,,,100,,,,,,,Space,keypress(Space),,,,,,,,-- --- ---- --- ------ ----- ------- ---- -- --- ------- --<br>------- ---------- ------ -- ----- -- ----- -- ---- ------<br>--- ----- --- --- ------ -------- ----- --- ------ ----- --<br>----- ----- ---------- --- --- ------ ------ ---- -- ------<br>------- --- ------ state --- ---- ------- -- ---- --- --<br>------- ------,159318.66499999887,159314.87999999808,159071.515,159081.0199999978,159088.182,159321.52,,46,state
screen,html.Screen,1_1_1_1_47,2021-04-28T15:17:32.079Z,,,,,,,,,,,,,,,,54,,,,,,,,,,,,,,234.2449999973469,,response,,,,100,,,,,,,Space,keypress(Space),,,,,,,,-- --- ---- --- ------ ----- ------- ---- -- --- ------- --<br>------- ---------- ------ -- ----- -- ----- -- ---- ------<br>--- ----- --- --- ------ -------- ----- --- ------ ----- --<br>----- ----- ---------- --- --- ------ ------ ---- -- ------<br>------- --- ------ ----- was ---- ------- -- ---- --- --<br>------- ------,159559.54999999813,159555.76499999734,159304.853,159318.82999999652,159321.52,159571.525,,47,was
screen,html.Screen,1_1_1_1_48,2021-04-28T15:17:32.310Z,,,,,,,,,,,,,,,,54,,,,,,,,,,,,,,215.31500000067172,,response,,,,100,,,,,,,Space,keypress(Space),,,,,,,,-- --- ---- --- ------ ----- ------- ---- -- --- ------- --<br>------- ---------- ------ -- ----- -- ----- -- ---- ------<br>--- ----- --- --- ------ -------- ----- --- ------ ----- --<br>----- ----- ---------- --- --- ------ ------ ---- -- ------<br>------- --- ------ ----- --- left ------- -- ---- --- --<br>------- ------,159790.69499999605,159786.84000000067,159554.858,159559.71500000305,159571.525,159804.863,,48,left
screen,html.Screen,1_1_1_1_49,2021-04-28T15:17:32.568Z,,,,,,,,,,,,,,,,54,,,,,,,,,,,,,,239.95700000278885,,response,,,,100,,,,,,,Space,keypress(Space),,,,,,,,-- --- ---- --- ------ ----- ------- ---- -- --- ------- --<br>------- ---------- ------ -- ----- -- ----- -- ---- ------<br>--- ----- --- --- ------ -------- ----- --- ------ ----- --<br>----- ----- ---------- --- --- ------ ------ ---- -- ------<br>------- --- ------ ----- --- ---- without -- ---- --- --<br>------- ------,160048.64500000258,160044.8200000028,159788.196,159790.86000000098,159804.863,160054.868,,49,without
screen,html.Screen,1_1_1_1_50,2021-04-28T15:17:32.894Z,,,,,,,,,,,,,,,,54,,,,,,,,,,,,,,316.96699999811244,,response,,,,100,,,,,,,Space,keypress(Space),,,,,,,,-- --- ---- --- ------ ----- ------- ---- -- --- ------- --<br>------- ---------- ------ -- ----- -- ----- -- ---- ------<br>--- ----- --- --- ------ -------- ----- --- ------ ----- --<br>----- ----- ---------- --- --- ------ ------ ---- -- ------<br>------- --- ------ ----- --- ---- ------- an ---- --- --<br>------- ------,160374.87500000134,160371.8349999981,160038.201,160048.81500000192,160054.868,160388.208,,50,an
screen,html.Screen,1_1_1_1_51,2021-04-28T15:17:33.180Z,,,,,,,,,,,,,,,,54,,,,,,,,,,,,,,268.52699999682955,,response,,,,100,,,,,,,Space,keypress(Space),,,,,,,,-- --- ---- --- ------ ----- ------- ---- -- --- ------- --<br>------- ---------- ------ -- ----- -- ----- -- ---- ------<br>--- ----- --- --- ------ -------- ----- --- ------ ----- --<br>----- ----- ---------- --- --- ------ ------ ---- -- ------<br>------- --- ------ ----- --- ---- ------- -- easy --- --<br>------- ------,160660.55999999662,160656.73499999684,160371.541,160375.0199999995,160388.208,160671.547,,51,easy
screen,html.Screen,1_1_1_1_52,2021-04-28T15:17:33.440Z,,,,,,,,,,,,,,,,54,,,,,,,,,,,,,,245.2329999995709,,response,,,,100,,,,,,,Space,keypress(Space),,,,,,,,-- --- ---- --- ------ ----- ------- ---- -- --- ------- --<br>------- ---------- ------ -- ----- -- ----- -- ---- ------<br>--- ----- --- --- ------ -------- ----- --- ------ ----- --<br>----- ----- ---------- --- --- ------ ------ ---- -- ------<br>------- --- ------ ----- --- ---- ------- -- ---- way --<br>------- ------,160920.52500000136,160916.77999999956,160654.88,160660.72500000155,160671.547,160921.552,,52,way
screen,html.Screen,1_1_1_1_53,2021-04-28T15:17:33.719Z,,,,,,,,,,,,,,,,54,,,,,,,,,,,,,,274.2080000023416,,response,,,,100,,,,,,,Space,keypress(Space),,,,,,,,-- --- ---- --- ------ ----- ------- ---- -- --- ------- --<br>------- ---------- ------ -- ----- -- ----- -- ---- ------<br>--- ----- --- --- ------ -------- ----- --- ------ ----- --<br>----- ----- ---------- --- --- ------ ------ ---- -- ------<br>------- --- ------ ----- --- ---- ------- -- ---- --- of<br>------- ------,161199.46999999956,161195.76000000234,160904.885,160920.689999999,160921.552,161204.891,,53,of
screen,html.Screen,1_1_1_1_54,2021-04-28T15:17:34.010Z,,,,,,,,,,,,,,,,54,,,,,,,,,,,,,,281.7589999989141,,response,,,,100,,,,,,,Space,keypress(Space),,,,,,,,-- --- ---- --- ------ ----- ------- ---- -- --- ------- --<br>------- ---------- ------ -- ----- -- ----- -- ---- ------<br>--- ----- --- --- ------ -------- ----- --- ------ ----- --<br>----- ----- ---------- --- --- ------ ------ ---- -- ------<br>------- --- ------ ----- --- ---- ------- -- ---- --- --<br>raising ------,161490.52500000107,161486.64999999892,161188.224,161199.63499999722,161204.891,161504.897,,54,raising
screen,html.Screen,1_1_1_1_55,2021-04-28T15:17:34.397Z,,,,,,,,,,,,,,,,54,,,,,,,,,,,,,,368.75300000136485,,response,,,,100,,,,,,,Space,keypress(Space),,,,,,,,-- --- ---- --- ------ ----- ------- ---- -- --- ------- --<br>------- ---------- ------ -- ----- -- ----- -- ---- ------<br>--- ----- --- --- ------ -------- ----- --- ------ ----- --<br>----- ----- ---------- --- --- ------ ------ ---- -- ------<br>------- --- ------ ----- --- ---- ------- -- ---- --- --<br>------- money.,161877.39999999758,161873.65000000136,161488.23,161490.68999999872,161504.897,161888.238,,55,money.
Item 100,flow.Loop,1_1_1_1,2021-04-28T15:17:34.397Z,,,,,,,,,,,,,,,,,,,,,,,,,,,,,,18936.953000001376,,completion,,,,,F,,,,,,,,,,,silence,,,,,161877.71000000066,161873.65000000136,142920.03,142921.82999999932,142936.697,161888.238,,,
Question 1,html.Screen,1_1_1_2,2021-04-28T15:17:37.459Z,,,,,,,,,,,,,,,,,,,,,,,,,,,true,TRUE,,3048.551999999734,,response,,,,100,F,,,,,,TRUE,click #choice-1,,,,silence,,,,,164939.28500000038,164936.78999999975,161871.571,161877.84999999712,161888.238,164954.966,,,
Question 2,html.Screen,1_1_1_3,2021-04-28T15:17:41.111Z,,,,,,,,,,,,,,,,,,,,,,,,,,,true,FALSE,,3633.5739999970247,,response,,,,100,F,,,,,,FALSE,click #choice-2,,,,silence,,,,,168591.17500000139,168588.539999997,164938.299,164939.46499999583,164954.966,168605.444,,,
Item 100,flow.Sequence,1_1_1,2021-04-28T15:17:41.111Z,,,,,,,,,,,,,,,,,,,,,,,,,,,,,,35652.48199999702,,completion,,,,,,,,,,,,,,,,,,,,,168591.4300000004,168588.539999997,132919.391,132921.0200000016,132936.058,168605.444,,,
End of Practice,html.Page,1_1_2,2021-04-28T15:17:43.072Z,,,,,,,,,,,,,,,,,,,,,,,,,,,,,,1946.045999998023,,form submission,,,,,,,,,,,,,,,,,,,,,170551.7949999994,170551.489999998,168588.777,168591.55499999906,168605.444,170555.483,,,
Practice,flow.Sequence,1_1,2021-04-28T15:17:43.072Z,,,,,,,,,,,,,,,,,,,,,,,,,,,,,,76802.21499999802,,completion,,,,,,,,,,,,,,,,,,,,,170552.0600000018,170551.489999998,93732.608,93746.43500000093,93749.275,170555.483,,,
Trap_instruction,html.Page,1_2_0,2021-04-28T15:17:44.041Z,,,,,,,,,,,,,,,,,,,,,,,,,,,,,,965.7320000006584,,form submission,,,,,,,,,,,,,,,,,,,,,171521.50499999698,171521.21500000067,170538.816,170552.21999999776,170555.483,171522.169,,,
trap_trial,html.Screen,1_2_1,2021-04-28T15:17:47.189Z,,,,,,,,,,,,,,,,,,,,,,,,,,,true,1,,3143.7659999972675,,response,,,,,,,,,,,1,click #choice-1,,,,,,,,,174668.62499999843,174665.93499999726,171505.502,171521.65999999852,171522.169,174672.232,,,
end of trap trial,html.Page,1_2_2,2021-04-28T15:17:48.864Z,,,,,,,,,,,,,,,,,,,,,,,,,,,,,,1671.6679999998596,,form submission,,,,,,,,,,,,,,,,,,,,,176344.09500000038,176343.89999999985,174655.565,174668.80500000116,174672.232,176355.599,,,
Trap 1,flow.Sequence,1_2,2021-04-28T15:17:48.864Z,,,,,,,,,,,,,,,,,,,,,,,,,,,,,,5788.416999999841,,completion,,,,,,,,,,,,,,,,,,,,,176344.25499999634,176343.89999999985,170538.816,170552.17499999708,170555.483,176355.599,,,
Standby,html.Page,1_3_0,2021-04-28T15:17:56.861Z,,,,,,,,,,,,,,,,,,,,,,,,,,,,,,8000.1600000000035,,timeout,,,,,,,,,,,,,,,,,,,,,184340.94499999628,184339.092,176338.932,176344.3649999972,176355.599,184355.759,,,
Holding screen,html.Screen,1_3_1_0_0,2021-04-28T15:18:03.863Z,,,,,,,,,,,,,,,,,,,,,,,,,,,,,,7001.021000000008,,timeout,,,,,,,,,,,,,,,,,,,,,191342.644999997,191340.113,184339.092,184341.11999999732,184355.759,191356.78,,,
screen,html.Screen,1_3_1_0_1_0,2021-04-28T15:18:05.718Z,,,,,,,,,,,,,,,,51,,,,,,,,,,,,,,1837.739999997284,,response,,,,13,F,,,,,,Space,keypress(Space),,,,instrumental,,,,American -------- --- --- ---- --- --- ------ -- --------<br>---- --------- --- ------- ------------ ---------- ---------<br>--- ---------- ------- ---------- ------- -- -------- ----<br>---- --- ------ ----- ------ -- ---- --- ----- -- - -------<br>-------- -- --- --- -- ----- ----------- ----- -----------<br>---- --- ---------- --- ---- --- -- ----------,193197.52499999595,193194.51999999728,191340.113,191342.95500000007,191356.78,193206.817,,0,American
screen,html.Screen,1_3_1_0_1_1,2021-04-28T15:18:07.541Z,,,,,,,,,,,,,,,,51,,,,,,,,,,,,,,1811.4780000016617,,response,,,,13,F,,,,,,Space,keypress(Space),,,,instrumental,,,,-------- industry --- --- ---- --- --- ------ -- --------<br>---- --------- --- ------- ------------ ---------- ---------<br>--- ---------- ------- ---------- ------- -- -------- ----<br>---- --- ------ ----- ------ -- ---- --- ----- -- - -------<br>-------- -- --- --- -- ----- ----------- ----- -----------<br>---- --- ---------- --- ---- --- -- ----------,195021.00000000064,195018.29500000167,193190.15,193197.659999998,193206.817,195023.52,,1,industry
screen,html.Screen,1_3_1_0_1_2,2021-04-28T15:18:08.274Z,,,,,,,,,,,,,,,,51,,,,,,,,,,,,,,726.8900000005669,,response,,,,13,F,,,,,,Space,keypress(Space),,,,instrumental,,,,-------- -------- may --- ---- --- --- ------ -- --------<br>---- --------- --- ------- ------------ ---------- ---------<br>--- ---------- ------- ---------- ------- -- -------- ----<br>---- --- ------ ----- ------ -- ---- --- ----- -- - -------<br>-------- -- --- --- -- ----- ----------- ----- -----------<br>---- --- ---------- --- ---- --- -- ----------,195753.11499999953,195750.41000000056,195006.853,195021.1100000015,195023.52,195756.868,,2,may
screen,html.Screen,1_3_1_0_1_3,2021-04-28T15:18:08.831Z,,,,,,,,,,,,,,,,51,,,,,,,,,,,,,,550.4370000021008,,response,,,,13,F,,,,,,Space,keypress(Space),,,,instrumental,,,,-------- -------- --- not ---- --- --- ------ -- --------<br>---- --------- --- ------- ------------ ---------- ---------<br>--- ---------- ------- ---------- ------- -- -------- ----<br>---- --- ------ ----- ------ -- ---- --- ----- -- - -------<br>-------- -- --- --- -- ----- ----------- ----- -----------<br>---- --- ---------- --- ---- --- -- ----------,196310.29500000295,196307.3050000021,195740.201,195753.23000000208,195756.868,196324.124,,3,not
screen,html.Screen,1_3_1_0_1_4,2021-04-28T15:18:09.361Z,,,,,,,,,,,,,,,,51,,,,,,,,,,,,,,513.1709999975283,,response,,,,13,F,,,,,,Space,keypress(Space),,,,instrumental,,,,-------- -------- --- --- know --- --- ------ -- --------<br>---- --------- --- ------- ------------ ---------- ---------<br>--- ---------- ------- ---------- ------- -- -------- ----<br>---- --- ------ ----- ------ -- ---- --- ----- -- - -------<br>-------- -- --- --- -- ----- ----------- ----- -----------<br>---- --- ---------- --- ---- --- -- ----------,196840.03500000108,196837.29499999754,196307.457,196310.39500000043,196324.124,196840.801,,4,know
screen,html.Screen,1_3_1_0_1_5,2021-04-28T15:18:09.689Z,,,,,,,,,,,,,,,,51,,,,,,,,,,,,,,324.4840000027616,,response,,,,13,F,,,,,,Space,keypress(Space),,,,instrumental,,,,"-------- -------- --- --- ---- it, --- ------ -- --------<br>---- --------- --- ------- ------------ ---------- ---------<br>--- ---------- ------- ---------- ------- -- -------- ----<br>---- --- ------ ----- ------ -- ---- --- ----- -- - -------<br>-------- -- --- --- -- ----- ----------- ----- -----------<br>---- --- ---------- --- ---- --- -- ----------",197168.36499999772,197165.28500000277,196824.134,196840.14999999636,196840.801,197174.141,,5,"it,"
screen,html.Screen,1_3_1_0_1_6,2021-04-28T15:18:09.998Z,,,,,,,,,,,,,,,,51,,,,,,,,,,,,,,300.9389999965206,,response,,,,13,F,,,,,,Space,keypress(Space),,,,instrumental,,,,-------- -------- --- --- ---- --- but ------ -- --------<br>---- --------- --- ------- ------------ ---------- ---------<br>--- ---------- ------- ---------- ------- -- -------- ----<br>---- --- ------ ----- ------ -- ---- --- ----- -- - -------<br>-------- -- --- --- -- ----- ----------- ----- -----------<br>---- --- ---------- --- ---- --- -- ----------,197477.80999999668,197475.07999999652,197157.474,197168.46500000247,197174.141,197490.814,,6,but
screen,html.Screen,1_3_1_0_1_7,2021-04-28T15:18:10.208Z,,,,,,,,,,,,,,,,51,,,,,,,,,,,,,,193.51100000197766,,response,,,,13,F,,,,,,Space,keypress(Space),,,,instrumental,,,,-------- -------- --- --- ---- --- --- debate -- --------<br>---- --------- --- ------- ------------ ---------- ---------<br>--- ---------- ------- ---------- ------- -- -------- ----<br>---- --- ------ ----- ------ -- ---- --- ----- -- - -------<br>-------- -- --- --- -- ----- ----------- ----- -----------<br>---- --- ---------- --- ---- --- -- ----------,197687.01000000146,197684.325000002,197474.147,197477.90499999974,197490.814,197690.818,,7,debate
screen,html.Screen,1_3_1_0_1_8,2021-04-28T15:18:10.403Z,,,,,,,,,,,,,,,,51,,,,,,,,,,,,,,188.4569999993255,,response,,,,13,F,,,,,,Space,keypress(Space),,,,instrumental,,,,-------- -------- --- --- ---- --- --- ------ in --------<br>---- --------- --- ------- ------------ ---------- ---------<br>--- ---------- ------- ---------- ------- -- -------- ----<br>---- --- ------ ----- ------ -- ---- --- ----- -- - -------<br>-------- -- --- --- -- ----- ----------- ----- -----------<br>---- --- ---------- --- ---- --- -- ----------,197882.35500000155,197879.27499999932,197674.151,197687.12999999843,197690.818,197890.822,,8,in
screen,html.Screen,1_3_1_0_1_9,2021-04-28T15:18:10.763Z,,,,,,,,,,,,,,,,51,,,,,,,,,,,,,,348.40299999754643,,response,,,,13,F,,,,,,Space,keypress(Space),,,,instrumental,,,,-------- -------- --- --- ---- --- --- ------ -- Congress<br>---- --------- --- ------- ------------ ---------- ---------<br>--- ---------- ------- ---------- ------- -- -------- ----<br>---- --- ------ ----- ------ -- ---- --- ----- -- - -------<br>-------- -- --- --- -- ----- ----------- ----- -----------<br>---- --- ---------- --- ---- --- -- ----------,198241.97999999888,198239.22499999753,197874.155,197882.45499999903,197890.822,198257.496,,9,Congress
screen,html.Screen,1_3_1_0_1_10,2021-04-28T15:18:10.983Z,,,,,,,,,,,,,,,,51,,,,,,,,,,,,,,201.67400000189082,,response,,,,13,F,,,,,,Space,keypress(Space),,,,instrumental,,,,-------- -------- --- --- ---- --- --- ------ -- --------<br>over --------- --- ------- ------------ ---------- ---------<br>--- ---------- ------- ---------- ------- -- -------- ----<br>---- --- ------ ----- ------ -- ---- --- ----- -- - -------<br>-------- -- --- --- -- ----- ----------- ----- -----------<br>---- --- ---------- --- ---- --- -- ----------,198461.93499999936,198459.1700000019,198240.829,198242.09999999584,198257.496,198474.167,,10,over
screen,html.Screen,1_3_1_0_1_11,2021-04-28T15:18:11.206Z,,,,,,,,,,,,,,,,51,,,,,,,,,,,,,,209.03800000119372,,response,,,,13,F,,,,,,Space,keypress(Space),,,,instrumental,,,,-------- -------- --- --- ---- --- --- ------ -- --------<br>---- reforming --- ------- ------------ ---------- ---------<br>--- ---------- ------- ---------- ------- -- -------- ----<br>---- --- ------ ----- ------ -- ---- --- ----- -- - -------<br>-------- -- --- --- -- ----- ----------- ----- -----------<br>---- --- ---------- --- ---- --- -- ----------,198685.7850000015,198683.20500000118,198457.5,198462.04500000022,198474.167,198690.838,,11,reforming
screen,html.Screen,1_3_1_0_1_12,2021-04-28T15:18:11.477Z,,,,,,,,,,,,,,,,51,,,,,,,,,,,,,,263.17700000299374,,response,,,,13,F,,,,,,Space,keypress(Space),,,,instrumental,,,,-------- -------- --- --- ---- --- --- ------ -- --------<br>---- --------- the ------- ------------ ---------- ---------<br>--- ---------- ------- ---------- ------- -- -------- ----<br>---- --- ------ ----- ------ -- ---- --- ----- -- - -------<br>-------- -- --- --- -- ----- ----------- ----- -----------<br>---- --- ---------- --- ---- --- -- ----------,198956.72499999637,198954.01500000298,198674.171,198685.87500000285,198690.838,198957.51,,12,the
screen,html.Screen,1_3_1_0_1_13,2021-04-28T15:18:11.742Z,,,,,,,,,,,,,,,,51,,,,,,,,,,,,,,260.60000000160653,,response,,,,13,F,,,,,,Space,keypress(Space),,,,instrumental,,,,-------- -------- --- --- ---- --- --- ------ -- --------<br>---- --------- --- federal ------------ ---------- ---------<br>--- ---------- ------- ---------- ------- -- -------- ----<br>---- --- ------ ----- ------ -- ---- --- ----- -- - -------<br>-------- -- --- --- -- ----- ----------- ----- -----------<br>---- --- ---------- --- ---- --- -- ----------,199221.10000000248,199218.11000000162,198940.843,198956.83999999892,198957.51,199224.182,,13,federal
screen,html.Screen,1_3_1_0_1_14,2021-04-28T15:18:12.075Z,,,,,,,,,,,,,,,,51,,,,,,,,,,,,,,327.0929999979853,,response,,,,13,F,,,,,,Space,keypress(Space),,,,instrumental,,,,-------- -------- --- --- ---- --- --- ------ -- --------<br>---- --------- --- ------- government's ---------- ---------<br>--- ---------- ------- ---------- ------- -- -------- ----<br>---- --- ------ ----- ------ -- ---- --- ----- -- - -------<br>-------- -- --- --- -- ----- ----------- ----- -----------<br>---- --- ---------- --- ---- --- -- ----------,199553.99999999645,199551.274999998,199207.515,199221.18999999657,199224.182,199557.522,,14,government's
screen,html.Screen,1_3_1_0_1_15,2021-04-28T15:18:12.470Z,,,,,,,,,,,,,,,,51,,,,,,,,,,,,,,388.87800000072457,,response,,,,13,F,,,,,,Space,keypress(Space),,,,instrumental,,,,-------- -------- --- --- ---- --- --- ------ -- --------<br>---- --------- --- ------- ------------ regulatory ---------<br>--- ---------- ------- ---------- ------- -- -------- ----<br>---- --- ------ ----- ------ -- ---- --- ----- -- - -------<br>-------- -- --- --- -- ----- ----------- ----- -----------<br>---- --- ---------- --- ---- --- -- ----------,199949.0650000007,199946.40000000072,199540.855,199554.114999999,199557.522,199957.53,,15,regulatory
screen,html.Screen,1_3_1_0_1_16,2021-04-28T15:18:12.865Z,,,,,,,,,,,,,,,,51,,,,,,,,,,,,,,384.5300000026764,,response,,,,13,F,,,,,,Space,keypress(Space),,,,instrumental,,,,-------- -------- --- --- ---- --- --- ------ -- --------<br>---- --------- --- ------- ------------ ---------- apparatus<br>--- ---------- ------- ---------- ------- -- -------- ----<br>---- --- ------ ----- ------ -- ---- --- ----- -- - -------<br>-------- -- --- --- -- ----- ----------- ----- -----------<br>---- --- ---------- --- ---- --- -- ----------,200344.77499999775,200342.06000000268,199940.863,199949.15999999648,199957.53,200357.538,,16,apparatus
screen,html.Screen,1_3_1_0_1_17,2021-04-28T15:18:13.365Z,,,,,,,,,,,,,,,,51,,,,,,,,,,,,,,483.5419999983278,,response,,,,13,F,,,,,,Space,keypress(Space),,,,instrumental,,,,-------- -------- --- --- ---- --- --- ------ -- --------<br>---- --------- --- ------- ------------ ---------- ---------<br>may ---------- ------- ---------- ------- -- -------- ----<br>---- --- ------ ----- ------ -- ---- --- ----- -- - -------<br>-------- -- --- --- -- ----- ----------- ----- -----------<br>---- --- ---------- --- ---- --- -- ----------,200844.0150000024,200841.07999999833,200340.871,200344.895000002,200357.538,200857.548,,17,may
screen,html.Screen,1_3_1_0_1_18,2021-04-28T15:18:13.701Z,,,,,,,,,,,,,,,,51,,,,,,,,,,,,,,319.4270000021206,,response,,,,13,F,,,,,,Space,keypress(Space),,,,instrumental,,,,-------- -------- --- --- ---- --- --- ------ -- --------<br>---- --------- --- ------- ------------ ---------- ---------<br>--- profoundly ------- ---------- ------- -- -------- ----<br>---- --- ------ ----- ------ -- ---- --- ----- -- - -------<br>-------- -- --- --- -- ----- ----------- ----- -----------<br>---- --- ---------- --- ---- --- -- ----------,201179.88499999774,201176.97500000213,200840.881,200844.12499999598,200857.548,201190.888,,18,profoundly
screen,html.Screen,1_3_1_0_1_19,2021-04-28T15:18:14.030Z,,,,,,,,,,,,,,,,51,,,,,,,,,,,,,,316.04699999760487,,response,,,,13,F,,,,,,Space,keypress(Space),,,,instrumental,,,,-------- -------- --- --- ---- --- --- ------ -- --------<br>---- --------- --- ------- ------------ ---------- ---------<br>--- ---------- improve ---------- ------- -- -------- ----<br>---- --- ------ ----- ------ -- ---- --- ----- -- - -------<br>-------- -- --- --- -- ----- ----------- ----- -----------<br>---- --- ---------- --- ---- --- -- ----------,201509.74000000133,201506.9349999976,201174.221,201180.11999999726,201190.888,201524.228,,19,improve
screen,html.Screen,1_3_1_0_1_20,2021-04-28T15:18:14.289Z,,,,,,,,,,,,,,,,51,,,,,,,,,,,,,,241.68699999630917,,response,,,,13,F,,,,,,Space,keypress(Space),,,,instrumental,,,,-------- -------- --- --- ---- --- --- ------ -- --------<br>---- --------- --- ------- ------------ ---------- ---------<br>--- ---------- ------- companies' ------- -- -------- ----<br>---- --- ------ ----- ------ -- ---- --- ----- -- - -------<br>-------- -- --- --- -- ----- ----------- ----- -----------<br>---- --- ---------- --- ---- --- -- ----------,201768.66000000155,201765.9149999963,201507.561,201509.8399999988,201524.228,201774.233,,20,companies'
screen,html.Screen,1_3_1_0_1_21,2021-04-28T15:18:14.826Z,,,,,,,,,,,,,,,,51,,,,,,,,,,,,,,527.661999996868,,response,,,,13,F,,,,,,Space,keypress(Space),,,,instrumental,,,,-------- -------- --- --- ---- --- --- ------ -- --------<br>---- --------- --- ------- ------------ ---------- ---------<br>--- ---------- ------- ---------- ability -- -------- ----<br>---- --- ------ ----- ------ -- ---- --- ----- -- - -------<br>-------- -- --- --- -- ----- ----------- ----- -----------<br>---- --- ---------- --- ---- --- -- ----------,202305.13000000064,202301.89499999688,201757.566,201768.7700000024,201774.233,202307.577,,21,ability
screen,html.Screen,1_3_1_0_1_22,2021-04-28T15:18:15.163Z,,,,,,,,,,,,,,,,51,,,,,,,,,,,,,,332.177999996522,,response,,,,13,F,,,,,,Space,keypress(Space),,,,instrumental,,,,-------- -------- --- --- ---- --- --- ------ -- --------<br>---- --------- --- ------- ------------ ---------- ---------<br>--- ---------- ------- ---------- ------- to -------- ----<br>---- --- ------ ----- ------ -- ---- --- ----- -- - -------<br>-------- -- --- --- -- ----- ----------- ----- -----------<br>---- --- ---------- --- ---- --- -- ----------,202642.56500000192,202639.7549999965,202290.91,202305.24499999592,202307.577,202657.584,,22,to
screen,html.Screen,1_3_1_0_1_23,2021-04-28T15:18:15.389Z,,,,,,,,,,,,,,,,51,,,,,,,,,,,,,,208.21599999957834,,response,,,,13,F,,,,,,Space,keypress(Space),,,,instrumental,,,,-------- -------- --- --- ---- --- --- ------ -- --------<br>---- --------- --- ------- ------------ ---------- ---------<br>--- ---------- ------- ---------- ------- -- survive. ----<br>---- --- ------ ----- ------ -- ---- --- ----- -- - -------<br>-------- -- --- --- -- ----- ----------- ----- -----------<br>---- --- ---------- --- ---- --- -- ----------,202868.53999999585,202865.79999999958,202640.917,202642.6799999972,202657.584,202874.255,,23,survive.
screen,html.Screen,1_3_1_0_1_24,2021-04-28T15:18:15.674Z,,,,,,,,,,,,,,,,51,,,,,,,,,,,,,,276.6149999976624,,response,,,,13,F,,,,,,Space,keypress(Space),,,,instrumental,,,,-------- -------- --- --- ---- --- --- ------ -- --------<br>---- --------- --- ------- ------------ ---------- ---------<br>--- ---------- ------- ---------- ------- -- -------- This<br>---- --- ------ ----- ------ -- ---- --- ----- -- - -------<br>-------- -- --- --- -- ----- ----------- ----- -----------<br>---- --- ---------- --- ---- --- -- ----------,203153.50999999646,203150.86999999767,202857.588,202868.6349999989,202874.255,203157.594,,24,This
screen,html.Screen,1_3_1_0_1_25,2021-04-28T15:18:15.907Z,,,,,,,,,,,,,,,,51,,,,,,,,,,,,,,225.2110000010871,,response,,,,13,F,,,,,,Space,keypress(Space),,,,instrumental,,,,-------- -------- --- --- ---- --- --- ------ -- --------<br>---- --------- --- ------- ------------ ---------- ---------<br>--- ---------- ------- ---------- ------- -- -------- ----<br>week --- ------ ----- ------ -- ---- --- ----- -- - -------<br>-------- -- --- --- -- ----- ----------- ----- -----------<br>---- --- ---------- --- ---- --- -- ----------,203385.9999999986,203382.8050000011,203140.927,203153.624999999,203157.594,203390.932,,25,week
screen,html.Screen,1_3_1_0_1_26,2021-04-28T15:18:16.220Z,,,,,,,,,,,,,,,,51,,,,,,,,,,,,,,305.6929999968561,,response,,,,13,F,,,,,,Space,keypress(Space),,,,instrumental,,,,-------- -------- --- --- ---- --- --- ------ -- --------<br>---- --------- --- ------- ------------ ---------- ---------<br>--- ---------- ------- ---------- ------- -- -------- ----<br>---- the ------ ----- ------ -- ---- --- ----- -- - -------<br>-------- -- --- --- -- ----- ----------- ----- -----------<br>---- --- ---------- --- ---- --- -- ----------,203699.3599999987,203696.62499999686,203374.265,203386.09999999608,203390.932,203707.605,,26,the
screen,html.Screen,1_3_1_0_1_27,2021-04-28T15:18:16.454Z,,,,,,,,,,,,,,,,51,,,,,,,,,,,,,,223.15000000121654,,response,,,,13,F,,,,,,Space,keypress(Space),,,,instrumental,,,,-------- -------- --- --- ---- --- --- ------ -- --------<br>---- --------- --- ------- ------------ ---------- ---------<br>--- ---------- ------- ---------- ------- -- -------- ----<br>---- --- Senate ----- ------ -- ---- --- ----- -- - -------<br>-------- -- --- --- -- ----- ----------- ----- -----------<br>---- --- ---------- --- ---- --- -- ----------,203933.64499999734,203930.75500000123,203690.938,203699.45500000176,203707.605,203940.943,,27,Senate
screen,html.Screen,1_3_1_0_1_28,2021-04-28T15:18:16.678Z,,,,,,,,,,,,,,,,51,,,,,,,,,,,,,,213.78700000201934,,response,,,,13,F,,,,,,Space,keypress(Space),,,,instrumental,,,,-------- -------- --- --- ---- --- --- ------ -- --------<br>---- --------- --- ------- ------------ ---------- ---------<br>--- ---------- ------- ---------- ------- -- -------- ----<br>---- --- ------ seems ------ -- ---- --- ----- -- - -------<br>-------- -- --- --- -- ----- ----------- ----- -----------<br>---- --- ---------- --- ---- --- -- ----------,204157.46999999828,204154.73000000202,203924.276,203933.7400000004,203940.943,204174.281,,28,seems
screen,html.Screen,1_3_1_0_1_29,2021-04-28T15:18:16.925Z,,,,,,,,,,,,,,,,51,,,,,,,,,,,,,,227.40899999879184,,response,,,,13,F,,,,,,Space,keypress(Space),,,,instrumental,,,,-------- -------- --- --- ---- --- --- ------ -- --------<br>---- --------- --- ------- ------------ ---------- ---------<br>--- ---------- ------- ---------- ------- -- -------- ----<br>---- --- ------ ----- poised -- ---- --- ----- -- - -------<br>-------- -- --- --- -- ----- ----------- ----- -----------<br>---- --- ---------- --- ---- --- -- ----------,204404.55500000098,204401.68999999878,204157.614,204157.58500000084,204174.281,204407.619,,29,poised
screen,html.Screen,1_3_1_0_1_30,2021-04-28T15:18:17.182Z,,,,,,,,,,,,,,,,51,,,,,,,,,,,,,,251.0359999992652,,response,,,,13,F,,,,,,Space,keypress(Space),,,,instrumental,,,,-------- -------- --- --- ---- --- --- ------ -- --------<br>---- --------- --- ------- ------------ ---------- ---------<br>--- ---------- ------- ---------- ------- -- -------- ----<br>---- --- ------ ----- ------ to ---- --- ----- -- - -------<br>-------- -- --- --- -- ----- ----------- ----- -----------<br>---- --- ---------- --- ---- --- -- ----------,204661.30999999586,204658.65499999927,204390.952,204404.64999999676,204407.619,204674.291,,30,to
screen,html.Screen,1_3_1_0_1_31,2021-04-28T15:18:17.543Z,,,,,,,,,,,,,,,,51,,,,,,,,,,,,,,345.2389999977604,,response,,,,13,F,,,,,,Space,keypress(Space),,,,instrumental,,,,-------- -------- --- --- ---- --- --- ------ -- --------<br>---- --------- --- ------- ------------ ---------- ---------<br>--- ---------- ------- ---------- ------- -- -------- ----<br>---- --- ------ ----- ------ -- join --- ----- -- - -------<br>-------- -- --- --- -- ----- ----------- ----- -----------<br>---- --- ---------- --- ---- --- -- ----------,205022.17999999993,205019.52999999776,204657.624,204661.40499999892,204674.291,205024.298,,31,join
screen,html.Screen,1_3_1_0_1_32,2021-04-28T15:18:17.804Z,,,,,,,,,,,,,,,,51,,,,,,,,,,,,,,256.377000001783,,response,,,,13,F,,,,,,Space,keypress(Space),,,,instrumental,,,,-------- -------- --- --- ---- --- --- ------ -- --------<br>---- --------- --- ------- ------------ ---------- ---------<br>--- ---------- ------- ---------- ------- -- -------- ----<br>---- --- ------ ----- ------ -- ---- the ----- -- - -------<br>-------- -- --- --- -- ----- ----------- ----- -----------<br>---- --- ---------- --- ---- --- -- ----------,205283.51000000112,205280.6750000018,205007.631,205022.275000003,205024.298,205290.97,,32,the
screen,html.Screen,1_3_1_0_1_33,2021-04-28T15:18:18.006Z,,,,,,,,,,,,,,,,51,,,,,,,,,,,,,,191.68499999979394,,response,,,,13,F,,,,,,Space,keypress(Space),,,,instrumental,,,,-------- -------- --- --- ---- --- --- ------ -- --------<br>---- --------- --- ------- ------------ ---------- ---------<br>--- ---------- ------- ---------- ------- -- -------- ----<br>---- --- ------ ----- ------ -- ---- --- House -- - -------<br>-------- -- --- --- -- ----- ----------- ----- -----------<br>---- --- ---------- --- ---- --- -- ----------,205485.35000000265,205482.6549999998,205274.303,205283.6249999964,205290.97,205490.974,,33,House
screen,html.Screen,1_3_1_0_1_34,2021-04-28T15:18:18.203Z,,,,,,,,,,,,,,,,51,,,,,,,,,,,,,,188.57099999906495,,response,,,,13,F,,,,,,Space,keypress(Space),,,,instrumental,,,,-------- -------- --- --- ---- --- --- ------ -- --------<br>---- --------- --- ------- ------------ ---------- ---------<br>--- ---------- ------- ---------- ------- -- -------- ----<br>---- --- ------ ----- ------ -- ---- --- ----- in - -------<br>-------- -- --- --- -- ----- ----------- ----- -----------<br>---- --- ---------- --- ---- --- -- ----------,205682.5699999972,205679.54499999905,205474.307,205485.45999999624,205490.974,205691.474,,34,in
screen,html.Screen,1_3_1_0_1_35,2021-04-28T15:18:18.426Z,,,,,,,,,,,,,,,,51,,,,,,,,,,,,,,211.18099999806145,,response,,,,13,F,,,,,,Space,keypress(Space),,,,instrumental,,,,-------- -------- --- --- ---- --- --- ------ -- --------<br>---- --------- --- ------- ------------ ---------- ---------<br>--- ---------- ------- ---------- ------- -- -------- ----<br>---- --- ------ ----- ------ -- ---- --- ----- -- a -------<br>-------- -- --- --- -- ----- ----------- ----- -----------<br>---- --- ---------- --- ---- --- -- ----------,205905.56500000093,205902.65499999805,205674.807,205682.68499999976,205691.474,205908.145,,35,a
screen,html.Screen,1_3_1_0_1_36,2021-04-28T15:18:18.652Z,,,,,,,,,,,,,,,,51,,,,,,,,,,,,,,220.30499999652966,,response,,,,13,F,,,,,,Space,keypress(Space),,,,instrumental,,,,-------- -------- --- --- ---- --- --- ------ -- --------<br>---- --------- --- ------- ------------ ---------- ---------<br>--- ---------- ------- ---------- ------- -- -------- ----<br>---- --- ------ ----- ------ -- ---- --- ----- -- - massive<br>-------- -- --- --- -- ----- ----------- ----- -----------<br>---- --- ---------- --- ---- --- -- ----------,206131.0900000026,206128.44999999652,205891.478,205905.6799999962,205908.145,206141.483,,36,massive
screen,html.Screen,1_3_1_0_1_37,2021-04-28T15:18:18.910Z,,,,,,,,,,,,,,,,51,,,,,,,,,,,,,,244.99199999932898,,response,,,,13,F,,,,,,Space,keypress(Space),,,,instrumental,,,,-------- -------- --- --- ---- --- --- ------ -- --------<br>---- --------- --- ------- ------------ ---------- ---------<br>--- ---------- ------- ---------- ------- -- -------- ----<br>---- --- ------ ----- ------ -- ---- --- ----- -- - -------<br>overhaul -- --- --- -- ----- ----------- ----- -----------<br>---- --- ---------- --- ---- --- -- ----------,206389.34999999765,206386.47499999934,206124.816,206131.18499999837,206141.483,206391.488,,37,overhaul
