sender,sender_type,sender_id,timestamp,meta,,Blues,Classical,Country,Dance,Electronic,Folk,Gospel,Hip-Hop,Jazz,Latin,Musical/Film,New-age,Pop,Provo_ID,R&B,Rap,Reggae,Religious,Rock,Soul,Swing,Traditional,age,artist_name,correct,correctResponse,distraction,duration,education,ended_on,familiarity,gender,headphone_check_performance,item,list,music_frequency,offensiveness,pleasantness,position_correct,preference,response,response_action,snippet_file,song_name,song_rating,sound,stimulus_1,stimulus_2,stimulus_3,text,time_commit,time_end,time_render,time_run,time_show,time_switch,url,word,word_ID
Introduction,html.Screen,0_0,2021-04-21T13:43:01.039Z,"{""labjs_version"":""20.2.2"",""labjs_build"":{""flavor"":""production"",""commit"":""a25486e0c714a0ae2ce03ff94b7bb6896854dcfa""},""location"":""https://run.pavlovia.org/mvasilev/music_f/"",""userAgent"":""Mozilla/5.0 (Windows NT 10.0; Win64; x64) AppleWebKit/537.36 (KHTML, like Gecko) Chrome/90.0.4430.72 Safari/537.36"",""platform"":""Win32"",""language"":""en-GB"",""locale"":""en-GB"",""timeZone"":""Europe/London"",""timezoneOffset"":-60,""screen_width"":1536,""screen_height"":864,""scroll_width"":1536,""scroll_height"":706,""window_innerWidth"":1536,""window_innerHeight"":754,""devicePixelRatio"":1.25}",,,,,,,,,,,,,,,,,,,,,,,,,,,,,83878.19800002156,,response,,,,,,,,,,,continue,click button,,,,,,,,,115179.98500002432,115178.15000002156,31269.495,31270.245000021532,31299.952,115188.994,{},,
Volume calibration,html.Screen,0_1,2021-04-21T13:43:21.401Z,,,,,,,,,,,,,,,,,,,,,,,,,,,,,,20349.371000014886,,response,,,,,,,,,,,continue,click button,,,,,,,,,135542.07500000484,135538.3650000149,115172.352,115180.38000000524,115188.994,135544.428,,,
Task instructions,html.Screen,0_2,2021-04-21T13:43:30.048Z,,,,,,,,,,,,,,,,,,,,,,,,,,,,,,8643.177000013704,,response,,,,,,,,,,,continue,click button,,,,,,,,,144188.95500001963,144187.60500001372,135527.78,135542.26000001654,135544.428,144196.681,,,
Sounds,html.Screen,0_3_0_0,2021-04-21T13:43:34.294Z,,,,,,,,,,,,,,,,,,,,,,,,,,,,,,4251.193999999989,,timeout,,,,,,,,,2,,,,,,,,O,S,I,,148434.505000012,148431.197,144180.085,144189.3900000141,144196.681,148447.875,,,
Judgement,html.Screen,0_3_0_1,2021-04-21T13:43:35.811Z,,,,,,,,,,,,,,,,,,,,,,,,,,,false,2,,1502.8700000091922,,response,,,,,,,,,2,,1,click #choice-1,,,,,O,S,I,,149951.50500000454,149950.7450000092,148431.197,148434.63000000338,148447.875,149964.911,,,
Trial,flow.Sequence,0_3_0,2021-04-21T13:43:35.811Z,,,,,,,,,,,,,,,,,,,,,,,,,,,,,,5754.064000009181,,completion,,,,,,,,,2,,,,,,,,O,S,I,,149951.82500002556,149950.7450000092,144180.085,144189.30500000715,144196.681,149964.911,,,
Sounds,html.Screen,0_3_1_0,2021-04-21T13:43:40.059Z,,,,,,,,,,,,,,,,,,,,,,,,,,,,,,4251.135000000009,,timeout,,,,,,,,,3,,,,,,,,I,O,S,,154200.28000001912,154199.426,149948.367,149951.96000000578,149964.911,154216.046,,,
Judgement,html.Screen,0_3_1_1,2021-04-21T13:43:41.018Z,,,,,,,,,,,,,,,,,,,,,,,,,,,true,3,,942.1640000232437,,response,,,,,,,,,3,,3,click #choice-3,,,,,I,O,S,,155159.02000002097,155158.21000002325,154199.426,154200.38500000373,154216.046,155166.282,,,
Trial,flow.Sequence,0_3_1,2021-04-21T13:43:41.018Z,,,,,,,,,,,,,,,,,,,,,,,,,,,,,,5193.299000023253,,completion,,,,,,,,,3,,,,,,,,I,O,S,,155159.18000001693,155158.21000002325,149948.367,149951.9250000012,149964.911,155166.282,,,
Sounds,html.Screen,0_3_2_0,2021-04-21T13:43:45.261Z,,,,,,,,,,,,,,,,,,,,,,,,,,,,,,4251.130000000005,,timeout,,,,,,,,,1,,,,,,,,S,I,O,,159401.60000001197,159400.762,155149.624,155159.32000000612,155166.282,159417.412,,,
Judgement,html.Screen,0_3_2_1,2021-04-21T13:43:46.112Z,,,,,,,,,,,,,,,,,,,,,,,,,,,true,1,,835.0330000200775,,response,,,,,,,,,1,,1,click #choice-1,,,,,S,I,O,,160253.4100000048,160252.4450000201,159400.762,159401.7500000191,159417.412,160267.707,,,
Trial,flow.Sequence,0_3_2,2021-04-21T13:43:46.113Z,,,,,,,,,,,,,,,,,,,,,,,,,,,,,,5086.163000020082,,completion,,,,,,,,,1,,,,,,,,S,I,O,,160254.37500001863,160252.4450000201,155149.624,155159.28500000155,155166.282,160267.707,,,
Sounds,html.Screen,0_3_3_0,2021-04-21T13:43:50.362Z,,,,,,,,,,,,,,,,,,,,,,,,,,,,,,4251.0929999999935,,timeout,,,,,,,,,1,,,,,,,,S,O,I,,164502.97500001034,164502.132,160251.011,160254.97000000905,160267.707,164518.8,,,
Judgement,html.Screen,0_3_3_1,2021-04-21T13:43:51.271Z,,,,,,,,,,,,,,,,,,,,,,,,,,,true,1,,890.9900000051712,,response,,,,,,,,,1,,1,click #choice-1,,,,,S,O,I,,165411.935000011,165409.79000000516,164502.132,164503.20500001544,164518.8,165419.029,,,
Trial,flow.Sequence,0_3_3,2021-04-21T13:43:51.271Z,,,,,,,,,,,,,,,,,,,,,,,,,,,,,,5142.083000005165,,completion,,,,,,,,,1,,,,,,,,S,O,I,,165412.27000000072,165409.79000000516,160251.011,160254.8850000021,160267.707,165419.029,,,
Sounds,html.Screen,0_3_4_0,2021-04-21T13:43:55.514Z,,,,,,,,,,,,,,,,,,,,,,,,,,,,,,4251.2059999999765,,timeout,,,,,,,,,3,,,,,,,,O,I,S,,169655.04000001238,169653.519,165402.424,165412.490000017,165419.029,169670.235,,,
Judgement,html.Screen,0_3_4_1,2021-04-21T13:43:56.435Z,,,,,,,,,,,,,,,,,,,,,,,,,,,true,3,,904.6800000047078,,response,,,,,,,,,3,,3,click #choice-3,,,,,O,I,S,,170576.12500002142,170574.9150000047,169653.519,169655.2500000107,169670.235,170587.112,,,
Trial,flow.Sequence,0_3_4,2021-04-21T13:43:56.435Z,,,,,,,,,,,,,,,,,,,,,,,,,,,,,,5155.886000004684,,completion,,,,,,,,,3,,,,,,,,O,I,S,,170576.42500000657,170574.9150000047,165402.424,165412.4400000146,165419.029,170587.112,,,
Sounds,html.Screen,0_3_5_0,2021-04-21T13:44:00.682Z,,,,,,,,,,,,,,,,,,,,,,,,,,,,,,4251.070000000007,,timeout,,,,,,,,,2,,,,,,,,I,S,O,,174822.79000000563,174821.564,170570.417,170576.63000002503,170587.112,174838.182,,,
Judgement,html.Screen,0_3_5_1,2021-04-21T13:44:01.661Z,,,,,,,,,,,,,,,,,,,,,,,,,,,true,2,,961.588000012358,,response,,,,,,,,,2,,2,click #choice-2,,,,,I,S,O,,175801.21000000509,175799.77000001236,174821.564,174822.93000002392,174838.182,175805.184,,,
Trial,flow.Sequence,0_3_5,2021-04-21T13:44:01.661Z,,,,,,,,,,,,,,,,,,,,,,,,,,,,,,5212.658000012365,,completion,,,,,,,,,2,,,,,,,,I,S,O,,175801.35000002338,175799.77000001236,170570.417,170576.57000000472,170587.112,175805.184,,,
Task,flow.Loop,0_3,2021-04-21T13:44:01.665Z,,,,,,,,,,,,,,,,,,,,,,,,,,,,,,31603.089000012347,,completion,,,0.8333333333333334,,,,,,,,,,,,,,,,,,175805.86000002222,175799.77000001236,144180.085,144189.234999998,144196.681,175805.184,,,
Trap,html.Screen,0_4,2021-04-21T13:44:01.666Z,,,,,,,,,,,,,,,,,,,,,,,,,,,,,,NaN,,skipped,,,,,,,,,,,,,,,,,,,,,175806.8150000181,175799.77000001236,,175806.70500002452,,175805.184,,,
Thanks,html.Screen,0_5,2021-04-21T13:44:05.640Z,,,,,,,,,,,,,,,,,,,,,,,,,,,,,,3975.0759999995353,,response,,,,,,,,,,,continue,click button,,,,,,,,,179781.08500002418,179780.25999999954,175788.473,175806.90500000492,175805.184,184207.483,,,
Headphone screening,flow.Sequence,0,2021-04-21T13:44:05.641Z,,,,,,,,,,,,,,,,,,,,,,,,,,,,,,148480.30799999955,,completion,,,,,,,,,,,,,,,,,,,,,179781.25,179780.25999999954,31269.495,31270.21000001696,31299.952,184207.483,,,
Instructions,html.Page,1_0,2021-04-21T13:44:31.418Z,,,,,,,,,,,,,,,,,,,,,,,,,,,,,,21350.707000010647,,form submission,,,,,,,,,,,,,,,,,,,,,205558.36000002455,205558.19000001065,184140.988,184190.5250000127,184207.483,205563.047,,,
Holding screen,html.Screen,1_1_0_0,2021-04-21T13:44:41.409Z,,,,,,,,,,,,,,,,,,,,,,,,,,,,,,10002.652000000002,,timeout,,,,,,,,,,,,,,,,,,,,,215549.53000001842,215549.113,205546.392,205558.51500001154,205563.047,215565.699,,,
screen,html.Screen,1_1_0_1_0,2021-04-21T13:44:41.452Z,,,,,,,,,,,,,,,,53,,,,,,,,,,,,,,24.296000016649486,,response,,,,99,,,,,,,Space,keypress(Space),,,,,,,,When -- ----- -- ------ - ------- --- ----------<br>------------- ------ ------ ---- ---- ------- ----- -- ----<br>-------- ------- -- ---------- --- - --- ----- ----- ----<br>---- --- --- ----- --- ---- ---- ------- ----- ---- -------<br>--- --- -- ----- -- --- ---- -- --- ---- -- ------ ------<br>--- ----- -- ----,215592.7200000151,215589.99500001664,215549.113,215549.66499999864,215565.699,215615.768,,0,When
screen,html.Screen,1_1_0_1_1,2021-04-21T13:44:43.282Z,,,,,,,,,,,,,,,,53,,,,,,,,,,,,,,1806.6770000037795,,response,,,,99,,,,,,,Space,keypress(Space),,,,,,,,---- it ----- -- ------ - ------- --- ----------<br>------------- ------ ------ ---- ---- ------- ----- -- ----<br>-------- ------- -- ---------- --- - --- ----- ----- ----<br>---- --- --- ----- --- ---- ---- ------- ----- ---- -------<br>--- --- -- ----- -- --- ---- -- --- ---- -- ------ ------<br>--- ----- -- ----,217422.96000002534,217422.4450000038,215599.067,215592.88500002003,215615.768,217432.875,,1,it
screen,html.Screen,1_1_0_1_2,2021-04-21T13:44:44.473Z,,,,,,,,,,,,,,,,53,,,,,,,,,,,,,,1180.0700000007637,,response,,,,99,,,,,,,Space,keypress(Space),,,,,,,,---- -- comes -- ------ - ------- --- ----------<br>------------- ------ ------ ---- ---- ------- ----- -- ----<br>-------- ------- -- ---------- --- - --- ----- ----- ----<br>---- --- --- ----- --- ---- ---- ------- ----- ---- -------<br>--- --- -- ----- -- --- ---- -- --- ---- -- ------ ------<br>--- ----- -- ----,218613.45000000438,218612.94500000076,217416.595,217423.04500000319,217432.875,218616.539,,2,comes
screen,html.Screen,1_1_0_1_3,2021-04-21T13:44:44.983Z,,,,,,,,,,,,,,,,53,,,,,,,,,,,,,,506.10600002494175,,response,,,,99,,,,,,,Space,keypress(Space),,,,,,,,---- -- ----- to ------ - ------- --- ----------<br>------------- ------ ------ ---- ---- ------- ----- -- ----<br>-------- ------- -- ---------- --- - --- ----- ----- ----<br>---- --- --- ----- --- ---- ---- ------- ----- ---- -------<br>--- --- -- ----- -- --- ---- -- --- ---- -- ------ ------<br>--- ----- -- ----,219123.1400000106,219122.64500002493,218599.958,218613.58000000473,218616.539,219133.318,,3,to
screen,html.Screen,1_1_0_1_4,2021-04-21T13:44:45.503Z,,,,,,,,,,,,,,,,53,,,,,,,,,,,,,,509.75699999995413,,response,,,,99,,,,,,,Space,keypress(Space),,,,,,,,---- -- ----- -- having - ------- --- ----------<br>------------- ------ ------ ---- ---- ------- ----- -- ----<br>-------- ------- -- ---------- --- - --- ----- ----- ----<br>---- --- --- ----- --- ---- ---- ------- ----- ---- -------<br>--- --- -- ----- -- --- ---- -- --- ---- -- ------ ------<br>--- ----- -- ----,219643.55000000796,219643.07499999995,219116.813,219123.22999999742,219133.318,219650.245,,4,having
screen,html.Screen,1_1_0_1_5,2021-04-21T13:44:45.931Z,,,,,,,,,,,,,,,,53,,,,,,,,,,,,,,421.1050000129035,,response,,,,99,,,,,,,Space,keypress(Space),,,,,,,,---- -- ----- -- ------ a ------- --- ----------<br>------------- ------ ------ ---- ---- ------- ----- -- ----<br>-------- ------- -- ---------- --- - --- ----- ----- ----<br>---- --- --- ----- --- ---- ---- ------- ----- ---- -------<br>--- --- -- ----- -- --- ---- -- --- ---- -- ------ ------<br>--- ----- -- ----,220071.95500002126,220071.3500000129,219633.661,219643.64500000374,219650.245,220083.581,,5,a
screen,html.Screen,1_1_0_1_6,2021-04-21T13:44:46.328Z,,,,,,,,,,,,,,,,53,,,,,,,,,,,,,,384.1340000061318,,response,,,,99,,,,,,,Space,keypress(Space),,,,,,,,---- -- ----- -- ------ - lasting --- ----------<br>------------- ------ ------ ---- ---- ------- ----- -- ----<br>-------- ------- -- ---------- --- - --- ----- ----- ----<br>---- --- --- ----- --- ---- ---- ------- ----- ---- -------<br>--- --- -- ----- -- --- ---- -- --- ---- -- ------ ------<br>--- ----- -- ----,220468.09500001837,220467.71500000614,220067.104,220072.13000001502,220083.581,220483.824,,6,lasting
screen,html.Screen,1_1_0_1_7,2021-04-21T13:44:46.702Z,,,,,,,,,,,,,,,,53,,,,,,,,,,,,,,358.2310000155412,,response,,,,99,,,,,,,Space,keypress(Space),,,,,,,,---- -- ----- -- ------ - ------- and ----------<br>------------- ------ ------ ---- ---- ------- ----- -- ----<br>-------- ------- -- ---------- --- - --- ----- ----- ----<br>---- --- --- ----- --- ---- ---- ------- ----- ---- -------<br>--- --- -- ----- -- --- ---- -- --- ---- -- ------ ------<br>--- ----- -- ----,220842.6000000036,220842.05500001553,220467.057,220468.18500000518,220483.824,220850.58,,7,and
screen,html.Screen,1_1_0_1_8,2021-04-21T13:44:47.063Z,,,,,,,,,,,,,,,,53,,,,,,,,,,,,,,352.2300000170653,,response,,,,99,,,,,,,Space,keypress(Space),,,,,,,,---- -- ----- -- ------ - ------- --- fulfilling<br>------------- ------ ------ ---- ---- ------- ----- -- ----<br>-------- ------- -- ---------- --- - --- ----- ----- ----<br>---- --- --- ----- --- ---- ---- ------- ----- ---- -------<br>--- --- -- ----- -- --- ---- -- --- ---- -- ------ ------<br>--- ----- -- ----,221203.28500002506,221202.81000001705,220833.803,220842.7350000129,220850.58,221217.256,,8,fulfilling
screen,html.Screen,1_1_0_1_9,2021-04-21T13:44:47.489Z,,,,,,,,,,,,,,,,53,,,,,,,,,,,,,,412.31899999902816,,response,,,,99,,,,,,,Space,keypress(Space),,,,,,,,"---- -- ----- -- ------ - ------- --- ----------<br>relationship, ------ ------ ---- ---- ------- ----- -- ----<br>-------- ------- -- ---------- --- - --- ----- ----- ----<br>---- --- --- ----- --- ---- ---- ------- ----- ---- -------<br>--- --- -- ----- -- --- ---- -- --- ---- -- ------ ------<br>--- ----- -- ----",221630.04499999806,221629.57499999902,221200.573,221203.38000002084,221217.256,221634.196,,9,"relationship,"
screen,html.Screen,1_1_0_1_10,2021-04-21T13:44:47.895Z,,,,,,,,,,,,,,,,53,,,,,,,,,,,,,,400.469000013778,,response,,,,99,,,,,,,Space,keypress(Space),,,,,,,,---- -- ----- -- ------ - ------- --- ----------<br>------------- common ------ ---- ---- ------- ----- -- ----<br>-------- ------- -- ---------- --- - --- ----- ----- ----<br>---- --- --- ----- --- ---- ---- ------- ----- ---- -------<br>--- --- -- ----- -- --- ---- -- --- ---- -- ------ ------<br>--- ----- -- ----,222035.275000002,222034.66500001377,221617.52,221630.14000002295,221634.196,222050.847,,10,common
screen,html.Screen,1_1_0_1_11,2021-04-21T13:44:48.364Z,,,,,,,,,,,,,,,,53,,,,,,,,,,,,,,453.3080000023474,,response,,,,99,,,,,,,Space,keypress(Space),,,,,,,,---- -- ----- -- ------ - ------- --- ----------<br>------------- ------ wisdom ---- ---- ------- ----- -- ----<br>-------- ------- -- ---------- --- - --- ----- ----- ----<br>---- --- --- ----- --- ---- ---- ------- ----- ---- -------<br>--- --- -- ----- -- --- ---- -- --- ---- -- ------ ------<br>--- ----- -- ----,222504.65000001714,222504.15500000236,222034.172,222035.65500001423,222050.847,222517.673,,11,wisdom
screen,html.Screen,1_1_0_1_12,2021-04-21T13:44:48.682Z,,,,,,,,,,,,,,,,53,,,,,,,,,,,,,,304.7470000113244,,response,,,,99,,,,,,,Space,keypress(Space),,,,,,,,---- -- ----- -- ------ - ------- --- ----------<br>------------- ------ ------ says ---- ------- ----- -- ----<br>-------- ------- -- ---------- --- - --- ----- ----- ----<br>---- --- --- ----- --- ---- ---- ------- ----- ---- -------<br>--- --- -- ----- -- --- ---- -- --- ---- -- ------ ------<br>--- ----- -- ----,222822.94500002172,222822.42000001133,222500.9,222504.74000000395,222517.673,222834.31,,12,says
screen,html.Screen,1_1_0_1_13,2021-04-21T13:44:49.011Z,,,,,,,,,,,,,,,,53,,,,,,,,,,,,,,316.4150000140653,,response,,,,99,,,,,,,Space,keypress(Space),,,,,,,,---- -- ----- -- ------ - ------- --- ----------<br>------------- ------ ------ ---- that ------- ----- -- ----<br>-------- ------- -- ---------- --- - --- ----- ----- ----<br>---- --- --- ----- --- ---- ---- ------- ----- ---- -------<br>--- --- -- ----- -- --- ---- -- --- ---- -- ------ ------<br>--- ----- -- ----,223151.31500002462,223150.72500001406,222817.887,222823.03500000853,222834.31,223167.839,,13,that
screen,html.Screen,1_1_0_1_14,2021-04-21T13:44:49.347Z,,,,,,,,,,,,,,,,53,,,,,,,,,,,,,,319.5160000192991,,response,,,,99,,,,,,,Space,keypress(Space),,,,,,,,---- -- ----- -- ------ - ------- --- ----------<br>------------- ------ ------ ---- ---- feeling ----- -- ----<br>-------- ------- -- ---------- --- - --- ----- ----- ----<br>---- --- --- ----- --- ---- ---- ------- ----- ---- -------<br>--- --- -- ----- -- --- ---- -- --- ---- -- ------ ------<br>--- ----- -- ----,223487.84500002512,223487.3550000193,223151.129,223151.42999999807,223167.839,223501.187,,14,feeling
screen,html.Screen,1_1_0_1_15,2021-04-21T13:44:49.675Z,,,,,,,,,,,,,,,,53,,,,,,,,,,,,,,314.33300000373856,,response,,,,99,,,,,,,Space,keypress(Space),,,,,,,,---- -- ----- -- ------ - ------- --- ----------<br>------------- ------ ------ ---- ---- ------- close -- ----<br>-------- ------- -- ---------- --- - --- ----- ----- ----<br>---- --- --- ----- --- ---- ---- ------- ----- ---- -------<br>--- --- -- ----- -- --- ---- -- --- ---- -- ------ ------<br>--- ----- -- ----,223816.01000000956,223815.52000000374,223484.499,223487.94500000076,223501.187,223817.907,,15,close
screen,html.Screen,1_1_0_1_16,2021-04-21T13:44:50.001Z,,,,,,,,,,,,,,,,53,,,,,,,,,,,,,,322.9030000116909,,response,,,,99,,,,,,,Space,keypress(Space),,,,,,,,---- -- ----- -- ------ - ------- --- ----------<br>------------- ------ ------ ---- ---- ------- ----- to ----<br>-------- ------- -- ---------- --- - --- ----- ----- ----<br>---- --- --- ----- --- ---- ---- ------- ----- ---- -------<br>--- --- -- ----- -- --- ---- -- --- ---- -- ------ ------<br>--- ----- -- ----,224141.36999999755,224140.8100000117,223801.416,223816.1100000143,223817.907,224151.418,,16,to
screen,html.Screen,1_1_0_1_17,2021-04-21T13:44:50.313Z,,,,,,,,,,,,,,,,53,,,,,,,,,,,,,,301.36700000130804,,response,,,,99,,,,,,,Space,keypress(Space),,,,,,,,---- -- ----- -- ------ - ------- --- ----------<br>------------- ------ ------ ---- ---- ------- ----- -- your<br>-------- ------- -- ---------- --- - --- ----- ----- ----<br>---- --- --- ----- --- ---- ---- ------- ----- ---- -------<br>--- --- -- ----- -- --- ---- -- --- ---- -- ------ ------<br>--- ----- -- ----,224453.33000001847,224452.7850000013,224134.697,224141.50500000687,224151.418,224468.109,,17,your
screen,html.Screen,1_1_0_1_18,2021-04-21T13:44:50.627Z,,,,,,,,,,,,,,,,53,,,,,,,,,,,,,,298.9860000174376,,response,,,,99,,,,,,,Space,keypress(Space),,,,,,,,---- -- ----- -- ------ - ------- --- ----------<br>------------- ------ ------ ---- ---- ------- ----- -- ----<br>romantic ------- -- ---------- --- - --- ----- ----- ----<br>---- --- --- ----- --- ---- ---- ------- ----- ---- -------<br>--- --- -- ----- -- --- ---- -- --- ---- -- ------ ------<br>--- ----- -- ----,224767.6050000009,224767.09500001743,224451.495,224453.4950000234,224468.109,224790.158,,18,romantic
screen,html.Screen,1_1_0_1_19,2021-04-21T13:44:50.918Z,,,,,,,,,,,,,,,,53,,,,,,,,,,,,,,267.8420000190963,,response,,,,99,,,,,,,Space,keypress(Space),,,,,,,,---- -- ----- -- ------ - ------- --- ----------<br>------------- ------ ------ ---- ---- ------- ----- -- ----<br>-------- partner -- ---------- --- - --- ----- ----- ----<br>---- --- --- ----- --- ---- ---- ------- ----- ---- -------<br>--- --- -- ----- -- --- ---- -- --- ---- -- ------ ------<br>--- ----- -- ----,225058.52500000037,225058.0000000191,224751.517,224767.69000000786,224790.158,225068.377,,19,partner
screen,html.Screen,1_1_0_1_20,2021-04-21T13:44:51.218Z,,,,,,,,,,,,,,,,53,,,,,,,,,,,,,,289.7280000211613,,response,,,,99,,,,,,,Space,keypress(Space),,,,,,,,---- -- ----- -- ------ - ------- --- ----------<br>------------- ------ ------ ---- ---- ------- ----- -- ----<br>-------- ------- is ---------- --- - --- ----- ----- ----<br>---- --- --- ----- --- ---- ---- ------- ----- ---- -------<br>--- --- -- ----- -- --- ---- -- --- ---- -- ------ ------<br>--- ----- -- ----,225358.71000000043,225358.10500002117,225051.771,225058.62500000512,225068.377,225368.457,,20,is
screen,html.Screen,1_1_0_1_21,2021-04-21T13:44:51.485Z,,,,,,,,,,,,,,,,53,,,,,,,,,,,,,,256.58300001354655,,response,,,,99,,,,,,,Space,keypress(Space),,,,,,,,---- -- ----- -- ------ - ------- --- ----------<br>------------- ------ ------ ---- ---- ------- ----- -- ----<br>-------- ------- -- paramount. --- - --- ----- ----- ----<br>---- --- --- ----- --- ---- ---- ------- ----- ---- -------<br>--- --- -- ----- -- --- ---- -- --- ---- -- ------ ------<br>--- ----- -- ----,225625.4900000058,225625.04000001354,225351.698,225358.82500000298,225368.457,225635.219,,21,paramount.
screen,html.Screen,1_1_0_1_22,2021-04-21T13:44:51.906Z,,,,,,,,,,,,,,,,53,,,,,,,,,,,,,,410.57100000375067,,response,,,,99,,,,,,,Space,keypress(Space),,,,,,,,---- -- ----- -- ------ - ------- --- ----------<br>------------- ------ ------ ---- ---- ------- ----- -- ----<br>-------- ------- -- ---------- But - --- ----- ----- ----<br>---- --- --- ----- --- ---- ---- ------- ----- ---- -------<br>--- --- -- ----- -- --- ---- -- --- ---- -- ------ ------<br>--- ----- -- ----,226046.19500000263,226045.79000000376,225618.401,225625.5850000016,225635.219,226051.81,,22,But
screen,html.Screen,1_1_0_1_23,2021-04-21T13:44:52.232Z,,,,,,,,,,,,,,,,53,,,,,,,,,,,,,,320.32500001235167,,response,,,,99,,,,,,,Space,keypress(Space),,,,,,,,---- -- ----- -- ------ - ------- --- ----------<br>------------- ------ ------ ---- ---- ------- ----- -- ----<br>-------- ------- -- ---------- --- a --- ----- ----- ----<br>---- --- --- ----- --- ---- ---- ------- ----- ---- -------<br>--- --- -- ----- -- --- ---- -- --- ---- -- ------ ------<br>--- ----- -- ----,226372.58000002475,226372.13500001235,226035.391,226046.2899999984,226051.81,226385.297,,23,a
screen,html.Screen,1_1_0_1_24,2021-04-21T13:44:52.470Z,,,,,,,,,,,,,,,,53,,,,,,,,,,,,,,224.9030000246421,,response,,,,99,,,,,,,Space,keypress(Space),,,,,,,,---- -- ----- -- ------ - ------- --- ----------<br>------------- ------ ------ ---- ---- ------- ----- -- ----<br>-------- ------- -- ---------- --- - new ----- ----- ----<br>---- --- --- ----- --- ---- ---- ------- ----- ---- -------<br>--- --- -- ----- -- --- ---- -- --- ---- -- ------ ------<br>--- ----- -- ----,226610.67500000354,226610.20000002463,226368.677,226372.67000001157,226385.297,226618.672,,24,new
screen,html.Screen,1_1_0_1_25,2021-04-21T13:44:52.705Z,,,,,,,,,,,,,,,,53,,,,,,,,,,,,,,226.68800000663032,,response,,,,99,,,,,,,Space,keypress(Space),,,,,,,,---- -- ----- -- ------ - ------- --- ----------<br>------------- ------ ------ ---- ---- ------- ----- -- ----<br>-------- ------- -- ---------- --- - --- study ----- ----<br>---- --- --- ----- --- ---- ---- ------- ----- ---- -------<br>--- --- -- ----- -- --- ---- -- --- ---- -- ------ ------<br>--- ----- -- ----,226845.85000001243,226845.36000000662,226601.969,226610.80000002403,226618.672,226852.081,,25,study
screen,html.Screen,1_1_0_1_26,2021-04-21T13:44:52.965Z,,,,,,,,,,,,,,,,53,,,,,,,,,,,,,,252.93400000827387,,response,,,,99,,,,,,,Space,keypress(Space),,,,,,,,---- -- ----- -- ------ - ------- --- ----------<br>------------- ------ ------ ---- ---- ------- ----- -- ----<br>-------- ------- -- ---------- --- - --- ----- finds ----<br>---- --- --- ----- --- ---- ---- ------- ----- ---- -------<br>--- --- -- ----- -- --- ---- -- --- ---- -- ------ ------<br>--- ----- -- ----,227105.54499999853,227105.01500000828,226835.384,226845.95000001718,226852.081,227118.908,,26,finds
screen,html.Screen,1_1_0_1_27,2021-04-21T13:44:53.245Z,,,,,,,,,,,,,,,,53,,,,,,,,,,,,,,265.90699999762,,response,,,,99,,,,,,,Space,keypress(Space),,,,,,,,---- -- ----- -- ------ - ------- --- ----------<br>------------- ------ ------ ---- ---- ------- ----- -- ----<br>-------- ------- -- ---------- --- - --- ----- ----- that<br>---- --- --- ----- --- ---- ---- ------- ----- ---- -------<br>--- --- -- ----- -- --- ---- -- --- ---- -- ------ ------<br>--- ----- -- ----,227385.33499999903,227384.81499999762,227102.198,227105.65500002122,227118.908,227402.184,,27,that
screen,html.Screen,1_1_0_1_28,2021-04-21T13:44:53.496Z,,,,,,,,,,,,,,,,53,,,,,,,,,,,,,,234.11100000387523,,response,,,,99,,,,,,,Space,keypress(Space),,,,,,,,---- -- ----- -- ------ - ------- --- ----------<br>------------- ------ ------ ---- ---- ------- ----- -- ----<br>-------- ------- -- ---------- --- - --- ----- ----- ----<br>it's --- --- ----- --- ---- ---- ------- ----- ---- -------<br>--- --- -- ----- -- --- ---- -- --- ---- -- ------ ------<br>--- ----- -- ----,227636.8150000053,227636.29500000388,227385.568,227385.54499999736,227402.184,227652.258,,28,it's
screen,html.Screen,1_1_0_1_29,2021-04-21T13:44:53.747Z,,,,,,,,,,,,,,,,53,,,,,,,,,,,,,,235.27200000724406,,response,,,,99,,,,,,,Space,keypress(Space),,,,,,,,---- -- ----- -- ------ - ------- --- ----------<br>------------- ------ ------ ---- ---- ------- ----- -- ----<br>-------- ------- -- ---------- --- - --- ----- ----- ----<br>---- not --- ----- --- ---- ---- ------- ----- ---- -------<br>--- --- -- ----- -- --- ---- -- --- ---- -- ------ ------<br>--- ----- -- ----,227887.97500001965,227887.53000000725,227635.698,227636.96000000346,227652.258,227902.366,,29,not
screen,html.Screen,1_1_0_1_30,2021-04-21T13:44:53.982Z,,,,,,,,,,,,,,,,53,,,,,,,,,,,,,,219.97400000170455,,response,,,,99,,,,,,,Space,keypress(Space),,,,,,,,---- -- ----- -- ------ - ------- --- ----------<br>------------- ------ ------ ---- ---- ------- ----- -- ----<br>-------- ------- -- ---------- --- - --- ----- ----- ----<br>---- --- how ----- --- ---- ---- ------- ----- ---- -------<br>--- --- -- ----- -- --- ---- -- --- ---- -- ------ ------<br>--- ----- -- ----,228122.8350000165,228122.3400000017,227885.717,227888.07000001543,227902.366,228135.744,,30,how
screen,html.Screen,1_1_0_1_31,2021-04-21T13:44:54.199Z,,,,,,,,,,,,,,,,53,,,,,,,,,,,,,,203.43100000097184,,response,,,,99,,,,,,,Space,keypress(Space),,,,,,,,---- -- ----- -- ------ - ------- --- ----------<br>------------- ------ ------ ---- ---- ------- ----- -- ----<br>-------- ------- -- ---------- --- - --- ----- ----- ----<br>---- --- --- close --- ---- ---- ------- ----- ---- -------<br>--- --- -- ----- -- --- ---- -- --- ---- -- ------ ------<br>--- ----- -- ----,228339.67000001576,228339.17500000098,228119.146,228122.9699999967,228135.744,228352.492,,31,close
screen,html.Screen,1_1_0_1_32,2021-04-21T13:44:54.414Z,,,,,,,,,,,,,,,,53,,,,,,,,,,,,,,201.34800000776886,,response,,,,99,,,,,,,Space,keypress(Space),,,,,,,,---- -- ----- -- ------ - ------- --- ----------<br>------------- ------ ------ ---- ---- ------- ----- -- ----<br>-------- ------- -- ---------- --- - --- ----- ----- ----<br>---- --- --- ----- you ---- ---- ------- ----- ---- -------<br>--- --- -- ----- -- --- ---- -- --- ---- -- ------ ------<br>--- ----- -- ----,228554.22499999986,228553.84000000777,228335.796,228339.7850000183,228352.492,228569.316,,32,you
screen,html.Screen,1_1_0_1_33,2021-04-21T13:44:54.642Z,,,,,,,,,,,,,,,,53,,,,,,,,,,,,,,212.9690000229748,,response,,,,99,,,,,,,Space,keypress(Space),,,,,,,,---- -- ----- -- ------ - ------- --- ----------<br>------------- ------ ------ ---- ---- ------- ----- -- ----<br>-------- ------- -- ---------- --- - --- ----- ----- ----<br>---- --- --- ----- --- feel ---- ------- ----- ---- -------<br>--- --- -- ----- -- --- ---- -- --- ---- -- ------ ------<br>--- ----- -- ----,228782.64000001946,228782.28500002297,228552.548,228554.31500001578,228569.316,228786.08,,33,feel
screen,html.Screen,1_1_0_1_34,2021-04-21T13:44:54.875Z,,,,,,,,,,,,,,,,53,,,,,,,,,,,,,,229.23499999693013,,response,,,,99,,,,,,,Space,keypress(Space),,,,,,,,---- -- ----- -- ------ - ------- --- ----------<br>------------- ------ ------ ---- ---- ------- ----- -- ----<br>-------- ------- -- ---------- --- - --- ----- ----- ----<br>---- --- --- ----- --- ---- that ------- ----- ---- -------<br>--- --- -- ----- -- --- ---- -- --- ---- -- ------ ------<br>--- ----- -- ----,229015.73000001372,229015.31499999692,228769.439,228782.7400000242,228786.08,229019.656,,34,that
screen,html.Screen,1_1_0_1_35,2021-04-21T13:44:55.100Z,,,,,,,,,,,,,,,,53,,,,,,,,,,,,,,220.38900001320872,,response,,,,99,,,,,,,Space,keypress(Space),,,,,,,,---- -- ----- -- ------ - ------- --- ----------<br>------------- ------ ------ ---- ---- ------- ----- -- ----<br>-------- ------- -- ---------- --- - --- ----- ----- ----<br>---- --- --- ----- --- ---- ---- matters ----- ---- -------<br>--- --- -- ----- -- --- ---- -- --- ---- -- ------ ------<br>--- ----- -- ----,229240.6600000104,229240.0450000132,229002.689,229015.82000000053,229019.656,229252.761,,35,matters
screen,html.Screen,1_1_0_1_36,2021-04-21T13:44:55.333Z,,,,,,,,,,,,,,,,53,,,,,,,,,,,,,,220.08400001114933,,response,,,,99,,,,,,,Space,keypress(Space),,,,,,,,"---- -- ----- -- ------ - ------- --- ----------<br>------------- ------ ------ ---- ---- ------- ----- -- ----<br>-------- ------- -- ---------- --- - --- ----- ----- ----<br>---- --- --- ----- --- ---- ---- ------- most, ---- -------<br>--- --- -- ----- -- --- ---- -- --- ---- -- ------ ------<br>--- ----- -- ----",229473.53499999736,229472.84500001115,229236.111,229240.74000000837,229252.761,229486.259,,36,"most,"
screen,html.Screen,1_1_0_1_37,2021-04-21T13:44:55.620Z,,,,,,,,,,,,,,,,53,,,,,,,,,,,,,,273.5760000043956,,response,,,,99,,,,,,,Space,keypress(Space),,,,,,,,---- -- ----- -- ------ - ------- --- ----------<br>------------- ------ ------ ---- ---- ------- ----- -- ----<br>-------- ------- -- ---------- --- - --- ----- ----- ----<br>---- --- --- ----- --- ---- ---- ------- ----- it's -------<br>--- --- -- ----- -- --- ---- -- --- ---- -- ------ ------<br>--- ----- -- ----,229760.26999999885,229759.8350000044,229469.478,229473.67000000668,229486.259,229769.504,,37,it's
screen,html.Screen,1_1_0_1_38,2021-04-21T13:44:55.944Z,,,,,,,,,,,,,,,,53,,,,,,,,,,,,,,314.2910000132106,,response,,,,99,,,,,,,Space,keypress(Space),,,,,,,,---- -- ----- -- ------ - ------- --- ----------<br>------------- ------ ------ ---- ---- ------- ----- -- ----<br>-------- ------- -- ---------- --- - --- ----- ----- ----<br>---- --- --- ----- --- ---- ---- ------- ----- ---- whether<br>--- --- -- ----- -- --- ---- -- --- ---- -- ------ ------<br>--- ----- -- ----,230084.47500001057,230083.7950000132,229752.855,229760.414999997,229769.504,230103.064,,38,whether
screen,html.Screen,1_1_0_1_39,2021-04-21T13:44:56.185Z,,,,,,,,,,,,,,,,53,,,,,,,,,,,,,,221.88600000925362,,response,,,,99,,,,,,,Space,keypress(Space),,,,,,,,---- -- ----- -- ------ - ------- --- ----------<br>------------- ------ ------ ---- ---- ------- ----- -- ----<br>-------- ------- -- ---------- --- - --- ----- ----- ----<br>---- --- --- ----- --- ---- ---- ------- ----- ---- -------<br>you --- -- ----- -- --- ---- -- --- ---- -- ------ ------<br>--- ----- -- ----,230325.42500001728,230324.95000000927,230069.607,230084.57000000635,230103.064,230336.321,,39,you
screen,html.Screen,1_1_0_1_40,2021-04-21T13:44:56.494Z,,,,,,,,,,,,,,,,53,,,,,,,,,,,,,,298.21400001924485,,response,,,,99,,,,,,,Space,keypress(Space),,,,,,,,---- -- ----- -- ------ - ------- --- ----------<br>------------- ------ ------ ---- ---- ------- ----- -- ----<br>-------- ------- -- ---------- --- - --- ----- ----- ----<br>---- --- --- ----- --- ---- ---- ------- ----- ---- -------<br>--- are -- ----- -- --- ---- -- --- ---- -- ------ ------<br>--- ----- -- ----,230634.96000002488,230634.53500001924,230319.672,230325.5150000041,230336.321,230636.373,,40,are
screen,html.Screen,1_1_0_1_41,2021-04-21T13:44:56.752Z,,,,,,,,,,,,,,,,53,,,,,,,,,,,,,,255.30200002077618,,response,,,,99,,,,,,,Space,keypress(Space),,,,,,,,---- -- ----- -- ------ - ------- --- ----------<br>------------- ------ ------ ---- ---- ------- ----- -- ----<br>-------- ------- -- ---------- --- - --- ----- ----- ----<br>---- --- --- ----- --- ---- ---- ------- ----- ---- -------<br>--- --- as ----- -- --- ---- -- --- ---- -- ------ ------<br>--- ----- -- ----,230892.18500000425,230891.67500002077,230619.813,230635.0500000117,230636.373,230903.281,,41,as
screen,html.Screen,1_1_0_1_42,2021-04-21T13:44:57.049Z,,,,,,,,,,,,,,,,53,,,,,,,,,,,,,,286.0189999981958,,response,,,,99,,,,,,,Space,keypress(Space),,,,,,,,---- -- ----- -- ------ - ------- --- ----------<br>------------- ------ ------ ---- ---- ------- ----- -- ----<br>-------- ------- -- ---------- --- - --- ----- ----- ----<br>---- --- --- ----- --- ---- ---- ------- ----- ---- -------<br>--- --- -- close -- --- ---- -- --- ---- -- ------ ------<br>--- ----- -- ----,231189.65500002378,231189.29999999818,230886.563,230892.3750000249,230903.281,231203.345,,42,close
screen,html.Screen,1_1_0_1_43,2021-04-21T13:44:57.274Z,,,,,,,,,,,,,,,,53,,,,,,,,,,,,,,210.49000001393142,,response,,,,99,,,,,,,Space,keypress(Space),,,,,,,,---- -- ----- -- ------ - ------- --- ----------<br>------------- ------ ------ ---- ---- ------- ----- -- ----<br>-------- ------- -- ---------- --- - --- ----- ----- ----<br>---- --- --- ----- --- ---- ---- ------- ----- ---- -------<br>--- --- -- ----- as --- ---- -- --- ---- -- ------ ------<br>--- ----- -- ----,231414.36000002432,231413.83500001393,231186.568,231189.74000000162,231203.345,231419.925,,43,as
screen,html.Screen,1_1_0_1_44,2021-04-21T13:44:57.668Z,,,,,,,,,,,,,,,,53,,,,,,,,,,,,,,387.81500001839595,,response,,,,99,,,,,,,Space,keypress(Space),,,,,,,,---- -- ----- -- ------ - ------- --- ----------<br>------------- ------ ------ ---- ---- ------- ----- -- ----<br>-------- ------- -- ---------- --- - --- ----- ----- ----<br>---- --- --- ----- --- ---- ---- ------- ----- ---- -------<br>--- --- -- ----- -- you ---- -- --- ---- -- ------ ------<br>--- ----- -- ----,231808.2900000154,231807.74000001838,231403.43,231414.47499999776,231419.925,231820.111,,44,you
screen,html.Screen,1_1_0_1_45,2021-04-21T13:44:57.919Z,,,,,,,,,,,,,,,,53,,,,,,,,,,,,,,239.30900000504334,,response,,,,99,,,,,,,Space,keypress(Space),,,,,,,,---- -- ----- -- ------ - ------- --- ----------<br>------------- ------ ------ ---- ---- ------- ----- -- ----<br>-------- ------- -- ---------- --- - --- ----- ----- ----<br>---- --- --- ----- --- ---- ---- ------- ----- ---- -------<br>--- --- -- ----- -- --- want -- --- ---- -- ------ ------<br>--- ----- -- ----,232059.8100000061,232059.42000000505,231803.563,231808.42500002473,231820.111,232070.131,,45,want
screen,html.Screen,1_1_0_1_46,2021-04-21T13:44:58.163Z,,,,,,,,,,,,,,,,53,,,,,,,,,,,,,,232.97900000802474,,response,,,,99,,,,,,,Space,keypress(Space),,,,,,,,---- -- ----- -- ------ - ------- --- ----------<br>------------- ------ ------ ---- ---- ------- ----- -- ----<br>-------- ------- -- ---------- --- - --- ----- ----- ----<br>---- --- --- ----- --- ---- ---- ------- ----- ---- -------<br>--- --- -- ----- -- --- ---- to --- ---- -- ------ ------<br>--- ----- -- ----,232303.78000001656,232303.11000000802,232053.441,232059.90000002203,232070.131,232320.348,,46,to
screen,html.Screen,1_1_0_1_47,2021-04-21T13:44:58.374Z,,,,,,,,,,,,,,,,53,,,,,,,,,,,,,,193.53200001316145,,response,,,,99,,,,,,,Space,keypress(Space),,,,,,,,"---- -- ----- -- ------ - ------- --- ----------<br>------------- ------ ------ ---- ---- ------- ----- -- ----<br>-------- ------- -- ---------- --- - --- ----- ----- ----<br>---- --- --- ----- --- ---- ---- ------- ----- ---- -------<br>--- --- -- ----- -- --- ---- -- be, ---- -- ------ ------<br>--- ----- -- ----",232514.27000001422,232513.88000001316,232303.56,232303.87000000337,232320.348,232520.356,,47,"be,"
screen,html.Screen,1_1_0_1_48,2021-04-21T13:44:58.598Z,,,,,,,,,,,,,,,,53,,,,,,,,,,,,,,217.4690000183473,,response,,,,99,,,,,,,Space,keypress(Space),,,,,,,,---- -- ----- -- ------ - ------- --- ----------<br>------------- ------ ------ ---- ---- ------- ----- -- ----<br>-------- ------- -- ---------- --- - --- ----- ----- ----<br>---- --- --- ----- --- ---- ---- ------- ----- ---- -------<br>--- --- -- ----- -- --- ---- -- --- even -- ------ ------<br>--- ----- -- ----,232738.26500002178,232737.82500001835,232503.55,232514.3800000078,232520.356,232753.614,,48,even
screen,html.Screen,1_1_0_1_49,2021-04-21T13:44:58.808Z,,,,,,,,,,,,,,,,53,,,,,,,,,,,,,,194.6610000024666,,response,,,,99,,,,,,,Space,keypress(Space),,,,,,,,---- -- ----- -- ------ - ------- --- ----------<br>------------- ------ ------ ---- ---- ------- ----- -- ----<br>-------- ------- -- ---------- --- - --- ----- ----- ----<br>---- --- --- ----- --- ---- ---- ------- ----- ---- -------<br>--- --- -- ----- -- --- ---- -- --- ---- if ------ ------<br>--- ----- -- ----,232948.69499999913,232948.27500000247,232737.043,232738.34999999963,232753.614,232953.651,,49,if
screen,html.Screen,1_1_0_1_50,2021-04-21T13:44:59.034Z,,,,,,,,,,,,,,,,53,,,,,,,,,,,,,,220.509000024118,,response,,,,99,,,,,,,Space,keypress(Space),,,,,,,,---- -- ----- -- ------ - ------- --- ----------<br>------------- ------ ------ ---- ---- ------- ----- -- ----<br>-------- ------- -- ---------- --- - --- ----- ----- ----<br>---- --- --- ----- --- ---- ---- ------- ----- ---- -------<br>--- --- -- ----- -- --- ---- -- --- ---- -- that's ------<br>--- ----- -- ----,233174.65000000084,233174.16000002413,232936.998,232948.78000000608,232953.651,233187.221,,50,that's
screen,html.Screen,1_1_0_1_51,2021-04-21T13:44:59.245Z,,,,,,,,,,,,,,,,53,,,,,,,,,,,,,,197.6890000225103,,response,,,,99,,,,,,,Space,keypress(Space),,,,,,,,---- -- ----- -- ------ - ------- --- ----------<br>------------- ------ ------ ---- ---- ------- ----- -- ----<br>-------- ------- -- ---------- --- - --- ----- ----- ----<br>---- --- --- ----- --- ---- ---- ------- ----- ---- -------<br>--- --- -- ----- -- --- ---- -- --- ---- -- ------ really<br>--- ----- -- ----,233385.40500000818,233384.9100000225,233170.451,233174.75500001456,233187.221,233387.123,,51,really
screen,html.Screen,1_1_0_1_52,2021-04-21T13:44:59.512Z,,,,,,,,,,,,,,,,53,,,,,,,,,,,,,,264.7220000148809,,response,,,,99,,,,,,,Space,keypress(Space),,,,,,,,---- -- ----- -- ------ - ------- --- ----------<br>------------- ------ ------ ---- ---- ------- ----- -- ----<br>-------- ------- -- ---------- --- - --- ----- ----- ----<br>---- --- --- ----- --- ---- ---- ------- ----- ---- -------<br>--- --- -- ----- -- --- ---- -- --- ---- -- ------ ------<br>not ----- -- ----,233652.32000002288,233651.84500001487,233370.605,233385.49000001512,233387.123,233653.857,,52,not
screen,html.Screen,1_1_0_1_53,2021-04-21T13:44:59.830Z,,,,,,,,,,,,,,,,53,,,,,,,,,,,,,,316.3480000196432,,response,,,,99,,,,,,,Space,keypress(Space),,,,,,,,---- -- ----- -- ------ - ------- --- ----------<br>------------- ------ ------ ---- ---- ------- ----- -- ----<br>-------- ------- -- ---------- --- - --- ----- ----- ----<br>---- --- --- ----- --- ---- ---- ------- ----- ---- -------<br>--- --- -- ----- -- --- ---- -- --- ---- -- ------ ------<br>--- close -- ----,233970.74000001885,233970.20500001963,233637.34,233652.40500000073,233653.857,233987.427,,53,close
screen,html.Screen,1_1_0_1_54,2021-04-21T13:45:00.134Z,,,,,,,,,,,,,,,,53,,,,,,,,,,,,,,286.4280000067374,,response,,,,99,,,,,,,Space,keypress(Space),,,,,,,,---- -- ----- -- ------ - ------- --- ----------<br>------------- ------ ------ ---- ---- ------- ----- -- ----<br>-------- ------- -- ---------- --- - --- ----- ----- ----<br>---- --- --- ----- --- ---- ---- ------- ----- ---- -------<br>--- --- -- ----- -- --- ---- -- --- ---- -- ------ ------<br>--- ----- at ----,234274.5050000085,234273.85500000673,233970.813,233970.83500001463,233987.427,234287.497,,54,at
screen,html.Screen,1_1_0_1_55,2021-04-21T13:45:00.648Z,,,,,,,,,,,,,,,,53,,,,,,,,,,,,,,500.5680000006396,,response,,,,99,,,,,,,Space,keypress(Space),,,,,,,,---- -- ----- -- ------ - ------- --- ----------<br>------------- ------ ------ ---- ---- ------- ----- -- ----<br>-------- ------- -- ---------- --- - --- ----- ----- ----<br>---- --- --- ----- --- ---- ---- ------- ----- ---- -------<br>--- --- -- ----- -- --- ---- -- --- ---- -- ------ ------<br>--- ----- -- all.,234788.52500001085,234788.06500000064,234270.739,234274.65000000666,234287.497,234804.235,,55,all.
Item 99,flow.Loop,1_1_0_1,2021-04-21T13:45:00.648Z,,,,,,,,,,,,,,,,,,,,,,,,,,,,,,19222.36600000065,,completion,,,,,F,,,,,,,,,,,silence,,,,,234788.72500002035,234788.06500000064,215549.113,215549.6250000142,215565.699,234804.235,,,
Question 1,html.Screen,1_1_0_2,2021-04-21T13:45:06.832Z,,,,,,,,,,,,,,,,,,,,,,,,,,,false,FALSE,,6167.644999997341,,response,,,,99,F,,,,,,TRUE,click #choice-1,,,,silence,,,,,240973.15000000526,240971.87999999733,234787.702,234788.80000000936,234804.235,241005.853,,,
Question 2,html.Screen,1_1_0_3,2021-04-21T13:45:14.027Z,,,,,,,,,,,,,,,,,,,,,,,,,,,true,TRUE,,7161.32200000959,,response,,,,99,F,,,,,,TRUE,click #choice-1,,,,silence,,,,,248167.93000002508,248167.1750000096,240989.145,240973.41000000597,241005.853,248174.431,,,
Item 99,flow.Sequence,1_1_0,2021-04-21T13:45:14.027Z,,,,,,,,,,,,,,,,,,,,,,,,,,,,,,42604.1280000096,,completion,,,,,,,,,,,,,,,,,,,,,248168.10500001884,248167.1750000096,205546.392,205558.4900000249,205563.047,248174.431,,,
Holding screen,html.Screen,1_1_1_0,2021-04-21T13:45:24.020Z,,,,,,,,,,,,,,,,,,,,,,,,,,,,,,10002.62599999999,,timeout,,,,,,,,,,,,,,,,,,,,,258161.1200000043,258160.649,248157.835,248168.20000001462,248174.431,258177.057,,,
screen,html.Screen,1_1_1_1_0,2021-04-21T13:45:25.381Z,,,,,,,,,,,,,,,,54,,,,,,,,,,,,,,1344.0930000150402,,response,,,,100,,,,,,,Space,keypress(Space),,,,,,,,At --- ---- --- ------ ----- ------- ---- -- --- ------- --<br>------- ---------- ------ -- ----- -- ----- -- ---- ------<br>--- ----- --- --- ------ -------- ----- --- ------ ----- --<br>----- ----- ---------- --- --- ------ ------ ---- -- ------<br>------- --- ------ ----- --- ---- ------- -- ---- --- --<br>------- ------,259521.62000001408,259521.15000001504,258160.649,258161.23500000685,258177.057,259527.701,,0,At
screen,html.Screen,1_1_1_1_1,2021-04-21T13:45:25.782Z,,,,,,,,,,,,,,,,54,,,,,,,,,,,,,,394.46900000527967,,response,,,,100,,,,,,,Space,keypress(Space),,,,,,,,-- the ---- --- ------ ----- ------- ---- -- --- ------- --<br>------- ---------- ------ -- ----- -- ----- -- ---- ------<br>--- ----- --- --- ------ -------- ----- --- ------ ----- --<br>----- ----- ---------- --- --- ------ ------ ---- -- ------<br>------- --- ------ ----- --- ---- ------- -- ---- --- --<br>------- ------,259922.77000000468,259922.17000000528,259510.929,259521.71500000986,259527.701,259927.534,,1,the
screen,html.Screen,1_1_1_1_2,2021-04-21T13:45:26.219Z,,,,,,,,,,,,,,,,54,,,,,,,,,,,,,,431.660999997257,,response,,,,100,,,,,,,Space,keypress(Space),,,,,,,,-- --- time --- ------ ----- ------- ---- -- --- ------- --<br>------- ---------- ------ -- ----- -- ----- -- ---- ------<br>--- ----- --- --- ------ -------- ----- --- ------ ----- --<br>----- ----- ---------- --- --- ------ ------ ---- -- ------<br>------- --- ------ ----- --- ---- ------- -- ---- --- --<br>------- ------,260359.74000001443,260359.19499999727,259910.907,259922.8750000184,259927.534,260385.961,,2,time
screen,html.Screen,1_1_1_1_3,2021-04-21T13:45:26.573Z,,,,,,,,,,,,,,,,54,,,,,,,,,,,,,,327.614000001573,,response,,,,100,,,,,,,Space,keypress(Space),,,,,,,,-- --- ---- the ------ ----- ------- ---- -- --- ------- --<br>------- ---------- ------ -- ----- -- ----- -- ---- ------<br>--- ----- --- --- ------ -------- ----- --- ------ ----- --<br>----- ----- ---------- --- --- ------ ------ ---- -- ------<br>------- --- ------ ----- --- ---- ------- -- ---- --- --<br>------- ------,260714.10500002094,260713.57500000158,260344.368,260359.850000008,260385.961,260727.782,,3,the
screen,html.Screen,1_1_1_1_4,2021-04-21T13:45:26.902Z,,,,,,,,,,,,,,,,54,,,,,,,,,,,,,,314.7230000194395,,response,,,,100,,,,,,,Space,keypress(Space),,,,,,,,-- --- ---- --- French ----- ------- ---- -- --- ------- --<br>------- ---------- ------ -- ----- -- ----- -- ---- ------<br>--- ----- --- --- ------ -------- ----- --- ------ ----- --<br>----- ----- ---------- --- --- ------ ------ ---- -- ------<br>------- --- ------ ----- --- ---- ------- -- ---- --- --<br>------- ------,261042.9900000163,261042.50500001945,260711.216,260714.24000000115,260727.782,261044.484,,4,French
screen,html.Screen,1_1_1_1_5,2021-04-21T13:45:27.221Z,,,,,,,,,,,,,,,,54,,,,,,,,,,,,,,317.061000021582,,response,,,,100,,,,,,,Space,keypress(Space),,,,,,,,-- --- ---- --- ------ crown ------- ---- -- --- ------- --<br>------- ---------- ------ -- ----- -- ----- -- ---- ------<br>--- ----- --- --- ------ -------- ----- --- ------ ----- --<br>----- ----- ---------- --- --- ------ ------ ---- -- ------<br>------- --- ------ ----- --- ---- ------- -- ---- --- --<br>------- ------,261362.16000001878,261361.54500002158,261027.89,261043.07500002324,261044.484,261378.053,,5,crown
screen,html.Screen,1_1_1_1_6,2021-04-21T13:45:27.502Z,,,,,,,,,,,,,,,,54,,,,,,,,,,,,,,264.202000013378,,response,,,,100,,,,,,,Space,keypress(Space),,,,,,,,-- --- ---- --- ------ ----- secured ---- -- --- ------- --<br>------- ---------- ------ -- ----- -- ----- -- ---- ------<br>--- ----- --- --- ------ -------- ----- --- ------ ----- --<br>----- ----- ---------- --- --- ------ ------ ---- -- ------<br>------- --- ------ ----- --- ---- ------- -- ---- --- --<br>------- ------,261642.75500000804,261642.2550000134,261361.433,261362.24499999662,261378.053,261644.692,,6,secured
screen,html.Screen,1_1_1_1_7,2021-04-21T13:45:27.879Z,,,,,,,,,,,,,,,,54,,,,,,,,,,,,,,374.818000012805,,response,,,,100,,,,,,,Space,keypress(Space),,,,,,,,-- --- ---- --- ------ ----- ------- much -- --- ------- --<br>------- ---------- ------ -- ----- -- ----- -- ---- ------<br>--- ----- --- --- ------ -------- ----- --- ------ ----- --<br>----- ----- ---------- --- --- ------ ------ ---- -- ------<br>------- --- ------ ----- --- ---- ------- -- ---- --- --<br>------- ------,262019.99500000966,262019.51000001281,261628.165,261642.85000000382,261644.692,262028.084,,7,much
screen,html.Screen,1_1_1_1_8,2021-04-21T13:45:28.168Z,,,,,,,,,,,,,,,,54,,,,,,,,,,,,,,279.81100000537117,,response,,,,100,,,,,,,Space,keypress(Space),,,,,,,,-- --- ---- --- ------ ----- ------- ---- of --- ------- --<br>------- ---------- ------ -- ----- -- ----- -- ---- ------<br>--- ----- --- --- ------ -------- ----- --- ------ ----- --<br>----- ----- ---------- --- --- ------ ------ ---- -- ------<br>------- --- ------ ----- --- ---- ------- -- ---- --- --<br>------- ------,262308.3100000222,262307.8950000054,262011.621,262020.08500002557,262028.084,262311.499,,8,of
screen,html.Screen,1_1_1_1_9,2021-04-21T13:45:28.446Z,,,,,,,,,,,,,,,,54,,,,,,,,,,,,,,274.7660000199103,,response,,,,100,,,,,,,Space,keypress(Space),,,,,,,,-- --- ---- --- ------ ----- ------- ---- -- its ------- --<br>------- ---------- ------ -- ----- -- ----- -- ---- ------<br>--- ----- --- --- ------ -------- ----- --- ------ ----- --<br>----- ----- ---------- --- --- ------ ------ ---- -- ------<br>------- --- ------ ----- --- ---- ------- -- ---- --- --<br>------- ------,262586.725000001,262586.2650000199,262294.847,262308.43500001356,262311.499,262594.927,,9,its
screen,html.Screen,1_1_1_1_10,2021-04-21T13:45:28.647Z,,,,,,,,,,,,,,,,54,,,,,,,,,,,,,,192.23300000710879,,response,,,,100,,,,,,,Space,keypress(Space),,,,,,,,-- --- ---- --- ------ ----- ------- ---- -- --- revenue --<br>------- ---------- ------ -- ----- -- ----- -- ---- ------<br>--- ----- --- --- ------ -------- ----- --- ------ ----- --<br>----- ----- ---------- --- --- ------ ------ ---- -- ------<br>------- --- ------ ----- --- ---- ------- -- ---- --- --<br>------- ------,262787.6400000241,262787.16000000713,262578.323,262586.8250000058,262594.927,262794.965,,10,revenue
screen,html.Screen,1_1_1_1_11,2021-04-21T13:45:29.109Z,,,,,,,,,,,,,,,,54,,,,,,,,,,,,,,454.75000001263106,,response,,,,100,,,,,,,Space,keypress(Space),,,,,,,,-- --- ---- --- ------ ----- ------- ---- -- --- ------- by<br>------- ---------- ------ -- ----- -- ----- -- ---- ------<br>--- ----- --- --- ------ -------- ----- --- ------ ----- --<br>----- ----- ---------- --- --- ------ ------ ---- -- ------<br>------- --- ------ ----- --- ---- ------- -- ---- --- --<br>------- ------,263250.1500000071,263249.71500001266,262778.299,262787.7200000221,262794.965,263261.797,,11,by
screen,html.Screen,1_1_1_1_12,2021-04-21T13:45:29.396Z,,,,,,,,,,,,,,,,54,,,,,,,,,,,,,,274.2229999995325,,response,,,,100,,,,,,,Space,keypress(Space),,,,,,,,-- --- ---- --- ------ ----- ------- ---- -- --- ------- --<br>issuing ---------- ------ -- ----- -- ----- -- ---- ------<br>--- ----- --- --- ------ -------- ----- --- ------ ----- --<br>----- ----- ---------- --- --- ------ ------ ---- -- ------<br>------- --- ------ ----- --- ---- ------- -- ---- --- --<br>------- ------,263536.4000000118,263536.01999999955,263245.143,263250.2300000051,263261.797,263545.284,,12,issuing
screen,html.Screen,1_1_1_1_13,2021-04-21T13:45:29.684Z,,,,,,,,,,,,,,,,54,,,,,,,,,,,,,,278.33100000116974,,response,,,,100,,,,,,,Space,keypress(Space),,,,,,,,-- --- ---- --- ------ ----- ------- ---- -- --- ------- --<br>------- government ------ -- ----- -- ----- -- ---- ------<br>--- ----- --- --- ------ -------- ----- --- ------ ----- --<br>----- ----- ---------- --- --- ------ ------ ---- -- ------<br>------- --- ------ ----- --- ---- ------- -- ---- --- --<br>------- ------,263824.2650000029,263823.61500000115,263528.491,263536.4850000187,263545.284,263828.814,,13,government
screen,html.Screen,1_1_1_1_14,2021-04-21T13:45:30.001Z,,,,,,,,,,,,,,,,54,,,,,,,,,,,,,,312.6510000224225,,response,,,,100,,,,,,,Space,keypress(Space),,,,,,,,-- --- ---- --- ------ ----- ------- ---- -- --- ------- --<br>------- ---------- bonds. -- ----- -- ----- -- ---- ------<br>--- ----- --- --- ------ -------- ----- --- ------ ----- --<br>----- ----- ---------- --- --- ------ ------ ---- -- ------<br>------- --- ------ ----- --- ---- ------- -- ---- --- --<br>------- ------,264142.0400000061,264141.46500002244,263811.937,263824.37000001664,263828.814,264145.299,,14,bonds.
screen,html.Screen,1_1_1_1_15,2021-04-21T13:45:30.317Z,,,,,,,,,,,,,,,,54,,,,,,,,,,,,,,312.1110000027111,,response,,,,100,,,,,,,Space,keypress(Space),,,,,,,,-- --- ---- --- ------ ----- ------- ---- -- --- ------- --<br>------- ---------- ------ In ----- -- ----- -- ---- ------<br>--- ----- --- --- ------ -------- ----- --- ------ ----- --<br>----- ----- ---------- --- --- ------ ------ ---- -- ------<br>------- --- ------ ----- --- ---- ------- -- ---- --- --<br>------- ------,264457.88000000175,264457.4100000027,264128.666,264142.1600000176,264145.299,264462.22,,15,In
screen,html.Screen,1_1_1_1_16,2021-04-21T13:45:30.579Z,,,,,,,,,,,,,,,,54,,,,,,,,,,,,,,256.91500002122484,,response,,,,100,,,,,,,Space,keypress(Space),,,,,,,,"-- --- ---- --- ------ ----- ------- ---- -- --- ------- --<br>------- ---------- ------ -- 1727, -- ----- -- ---- ------<br>--- ----- --- --- ------ -------- ----- --- ------ ----- --<br>----- ----- ---------- --- --- ------ ------ ---- -- ------<br>------- --- ------ ----- --- ---- ------- -- ---- --- --<br>------- ------",264719.6750000003,264719.1350000212,264445.467,264457.95999999973,264462.22,264728.908,,16,"1727,"
screen,html.Screen,1_1_1_1_17,2021-04-21T13:45:30.849Z,,,,,,,,,,,,,,,,54,,,,,,,,,,,,,,260.08200001256773,,response,,,,100,,,,,,,Space,keypress(Space),,,,,,,,-- --- ---- --- ------ ----- ------- ---- -- --- ------- --<br>------- ---------- ------ -- ----- in ----- -- ---- ------<br>--- ----- --- --- ------ -------- ----- --- ------ ----- --<br>----- ----- ---------- --- --- ------ ------ ---- -- ------<br>------- --- ------ ----- --- ---- ------- -- ---- --- --<br>------- ------,264989.48499999824,264988.99000001256,264712.142,264719.77000002516,264728.908,264995.543,,17,in
screen,html.Screen,1_1_1_1_18,2021-04-21T13:45:31.368Z,,,,,,,,,,,,,,,,54,,,,,,,,,,,,,,512.8670000094571,,response,,,,100,,,,,,,Space,keypress(Space),,,,,,,,-- --- ---- --- ------ ----- ------- ---- -- --- ------- --<br>------- ---------- ------ -- ----- -- order -- ---- ------<br>--- ----- --- --- ------ -------- ----- --- ------ ----- --<br>----- ----- ---------- --- --- ------ ------ ---- -- ------<br>------- --- ------ ----- --- ---- ------- -- ---- --- --<br>------- ------,265508.8800000085,265508.41000000946,264978.943,264989.5800000231,264995.543,265512.583,,18,order
screen,html.Screen,1_1_1_1_19,2021-04-21T13:45:31.655Z,,,,,,,,,,,,,,,,54,,,,,,,,,,,,,,282.7120000181021,,response,,,,100,,,,,,,Space,keypress(Space),,,,,,,,-- --- ---- --- ------ ----- ------- ---- -- --- ------- --<br>------- ---------- ------ -- ----- -- ----- to ---- ------<br>--- ----- --- --- ------ -------- ----- --- ------ ----- --<br>----- ----- ---------- --- --- ------ ------ ---- -- ------<br>------- --- ------ ----- --- ---- ------- -- ---- --- --<br>------- ------,265795.81000001053,265795.2950000181,265495.697,265508.96500001545,265512.583,265812.539,,19,to
screen,html.Screen,1_1_1_1_20,2021-04-21T13:45:31.940Z,,,,,,,,,,,,,,,,54,,,,,,,,,,,,,,267.7810000082245,,response,,,,100,,,,,,,Space,keypress(Space),,,,,,,,-- --- ---- --- ------ ----- ------- ---- -- --- ------- --<br>------- ---------- ------ -- ----- -- ----- -- save ------<br>--- ----- --- --- ------ -------- ----- --- ------ ----- --<br>----- ----- ---------- --- --- ------ ------ ---- -- ------<br>------- --- ------ ----- --- ---- ------- -- ---- --- --<br>------- ------,266081.00500001456,266080.3200000082,265795.782,265795.9250000131,265812.539,266095.826,,20,save
screen,html.Screen,1_1_1_1_21,2021-04-21T13:45:32.214Z,,,,,,,,,,,,,,,,54,,,,,,,,,,,,,,257.93399999814574,,response,,,,100,,,,,,,Space,keypress(Space),,,,,,,,"-- --- ---- --- ------ ----- ------- ---- -- --- ------- --<br>------- ---------- ------ -- ----- -- ----- -- ---- money,<br>--- ----- --- --- ------ -------- ----- --- ------ ----- --<br>----- ----- ---------- --- --- ------ ------ ---- -- ------<br>------- --- ------ ----- --- ---- ------- -- ---- --- --<br>------- ------",266354.17500001495,266353.75999999815,266079.214,266081.2549999973,266095.826,266362.7,,21,"money,"
screen,html.Screen,1_1_1_1_22,2021-04-21T13:45:32.545Z,,,,,,,,,,,,,,,,54,,,,,,,,,,,,,,321.9700000169105,,response,,,,100,,,,,,,Space,keypress(Space),,,,,,,,-- --- ---- --- ------ ----- ------- ---- -- --- ------- --<br>------- ---------- ------ -- ----- -- ----- -- ---- ------<br>the ----- --- --- ------ -------- ----- --- ------ ----- --<br>----- ----- ---------- --- --- ------ ------ ---- -- ------<br>------- --- ------ ----- --- ---- ------- -- ---- --- --<br>------- ------,266685.16000002273,266684.6700000169,266345.929,266354.29499999736,266362.7,266696.02,,22,the
screen,html.Screen,1_1_1_1_23,2021-04-21T13:45:32.779Z,,,,,,,,,,,,,,,,54,,,,,,,,,,,,,,222.74000000045635,,response,,,,100,,,,,,,Space,keypress(Space),,,,,,,,-- --- ---- --- ------ ----- ------- ---- -- --- ------- --<br>------- ---------- ------ -- ----- -- ----- -- ---- ------<br>--- state --- --- ------ -------- ----- --- ------ ----- --<br>----- ----- ---------- --- --- ------ ------ ---- -- ------<br>------- --- ------ ----- --- ---- ------- -- ---- --- --<br>------- ------,266919.24000001745,266918.7600000005,266679.382,266685.25000000955,266696.02,266929.412,,23,state
screen,html.Screen,1_1_1_1_24,2021-04-21T13:45:33.026Z,,,,,,,,,,,,,,,,54,,,,,,,,,,,,,,236.56300001079217,,response,,,,100,,,,,,,Space,keypress(Space),,,,,,,,-- --- ---- --- ------ ----- ------- ---- -- --- ------- --<br>------- ---------- ------ -- ----- -- ----- -- ---- ------<br>--- ----- cut --- ------ -------- ----- --- ------ ----- --<br>----- ----- ---------- --- --- ------ ------ ---- -- ------<br>------- --- ------ ----- --- ---- ------- -- ---- --- --<br>------- ------,267166.4800000144,267165.9750000108,266912.879,266919.3250000244,266929.412,267179.463,,24,cut
screen,html.Screen,1_1_1_1_25,2021-04-21T13:45:33.244Z,,,,,,,,,,,,,,,,54,,,,,,,,,,,,,,204.7170000227634,,response,,,,100,,,,,,,Space,keypress(Space),,,,,,,,-- --- ---- --- ------ ----- ------- ---- -- --- ------- --<br>------- ---------- ------ -- ----- -- ----- -- ---- ------<br>--- ----- --- the ------ -------- ----- --- ------ ----- --<br>----- ----- ---------- --- --- ------ ------ ---- -- ------<br>------- --- ------ ----- --- ---- ------- -- ---- --- --<br>------- ------,267384.6000000194,267384.18000002275,267162.786,267166.56500002136,267179.463,267396.272,,25,the
screen,html.Screen,1_1_1_1_26,2021-04-21T13:45:33.444Z,,,,,,,,,,,,,,,,54,,,,,,,,,,,,,,187.8330000162823,,response,,,,100,,,,,,,Space,keypress(Space),,,,,,,,-- --- ---- --- ------ ----- ------- ---- -- --- ------- --<br>------- ---------- ------ -- ----- -- ----- -- ---- ------<br>--- ----- --- --- bonds' -------- ----- --- ------ ----- --<br>----- ----- ---------- --- --- ------ ------ ---- -- ------<br>------- --- ------ ----- --- ---- ------- -- ---- --- --<br>------- ------,267585.1300000213,267584.1050000163,267379.555,267384.6800000174,267396.272,267596.257,,26,bonds'
screen,html.Screen,1_1_1_1_27,2021-04-21T13:45:33.631Z,,,,,,,,,,,,,,,,54,,,,,,,,,,,,,,174.95800001523457,,response,,,,100,,,,,,,Space,keypress(Space),,,,,,,,-- --- ---- --- ------ ----- ------- ---- -- --- ------- --<br>------- ---------- ------ -- ----- -- ----- -- ---- ------<br>--- ----- --- --- ------ interest ----- --- ------ ----- --<br>----- ----- ---------- --- --- ------ ------ ---- -- ------<br>------- --- ------ ----- --- ---- ------- -- ---- --- --<br>------- ------,267771.67000001646,267771.2150000152,267579.724,267585.27999999933,267596.257,267779.62,,27,interest
screen,html.Screen,1_1_1_1_28,2021-04-21T13:45:33.812Z,,,,,,,,,,,,,,,,54,,,,,,,,,,,,,,172.05999999830965,,response,,,,100,,,,,,,Space,keypress(Space),,,,,,,,-- --- ---- --- ------ ----- ------- ---- -- --- ------- --<br>------- ---------- ------ -- ----- -- ----- -- ---- ------<br>--- ----- --- --- ------ -------- rate. --- ------ ----- --<br>----- ----- ---------- --- --- ------ ------ ---- -- ------<br>------- --- ------ ----- --- ---- ------- -- ---- --- --<br>------- ------,267952.3850000114,267951.6799999983,267763.094,267771.7700000212,267779.62,267963.115,,28,rate.
screen,html.Screen,1_1_1_1_29,2021-04-21T13:45:34.044Z,,,,,,,,,,,,,,,,54,,,,,,,,,,,,,,221.57500002370216,,response,,,,100,,,,,,,Space,keypress(Space),,,,,,,,-- --- ---- --- ------ ----- ------- ---- -- --- ------- --<br>------- ---------- ------ -- ----- -- ----- -- ---- ------<br>--- ----- --- --- ------ -------- ----- The ------ ----- --<br>----- ----- ---------- --- --- ------ ------ ---- -- ------<br>------- --- ------ ----- --- ---- ------- -- ---- --- --<br>------- ------,268185.135000007,268184.6900000237,267946.384,267952.5250000006,267963.115,268196.594,,29,The
screen,html.Screen,1_1_1_1_30,2021-04-21T13:45:34.362Z,,,,,,,,,,,,,,,,54,,,,,,,,,,,,,,305.7310000085854,,response,,,,100,,,,,,,Space,keypress(Space),,,,,,,,-- --- ---- --- ------ ----- ------- ---- -- --- ------- --<br>------- ---------- ------ -- ----- -- ----- -- ---- ------<br>--- ----- --- --- ------ -------- ----- --- market ----- --<br>----- ----- ---------- --- --- ------ ------ ---- -- ------<br>------- --- ------ ----- --- ---- ------- -- ---- --- --<br>------- ------,268502.82000002335,268502.32500000857,268179.771,268185.2250000229,268196.594,268513.244,,30,market
screen,html.Screen,1_1_1_1_31,2021-04-21T13:45:34.654Z,,,,,,,,,,,,,,,,54,,,,,,,,,,,,,,280.53600000723964,,response,,,,100,,,,,,,Space,keypress(Space),,,,,,,,-- --- ---- --- ------ ----- ------- ---- -- --- ------- --<br>------- ---------- ------ -- ----- -- ----- -- ---- ------<br>--- ----- --- --- ------ -------- ----- --- ------ value --<br>----- ----- ---------- --- --- ------ ------ ---- -- ------<br>------- --- ------ ----- --- ---- ------- -- ---- --- --<br>------- ------,268794.2600000242,268793.78000000725,268496.501,268502.91500001913,268513.244,268796.564,,31,value
screen,html.Screen,1_1_1_1_32,2021-04-21T13:45:34.906Z,,,,,,,,,,,,,,,,54,,,,,,,,,,,,,,249.28600002406165,,response,,,,100,,,,,,,Space,keypress(Space),,,,,,,,-- --- ---- --- ------ ----- ------- ---- -- --- ------- --<br>------- ---------- ------ -- ----- -- ----- -- ---- ------<br>--- ----- --- --- ------ -------- ----- --- ------ ----- of<br>----- ----- ---------- --- --- ------ ------ ---- -- ------<br>------- --- ------ ----- --- ---- ------- -- ---- --- --<br>------- ------,269046.30000001634,269045.8500000241,268779.936,268794.34500000207,268796.564,269063.442,,32,of
screen,html.Screen,1_1_1_1_33,2021-04-21T13:45:35.199Z,,,,,,,,,,,,,,,,54,,,,,,,,,,,,,,276.1630000156001,,response,,,,100,,,,,,,Space,keypress(Space),,,,,,,,-- --- ---- --- ------ ----- ------- ---- -- --- ------- --<br>------- ---------- ------ -- ----- -- ----- -- ---- ------<br>--- ----- --- --- ------ -------- ----- --- ------ ----- --<br>these ----- ---------- --- --- ------ ------ ---- -- ------<br>------- --- ------ ----- --- ---- ------- -- ---- --- --<br>------- ------,269340.1550000126,269339.6050000156,269046.686,269046.40500000096,269063.442,269346.796,,33,these
screen,html.Screen,1_1_1_1_34,2021-04-21T13:45:35.490Z,,,,,,,,,,,,,,,,54,,,,,,,,,,,,,,283.8090000130469,,response,,,,100,,,,,,,Space,keypress(Space),,,,,,,,-- --- ---- --- ------ ----- ------- ---- -- --- ------- --<br>------- ---------- ------ -- ----- -- ----- -- ---- ------<br>--- ----- --- --- ------ -------- ----- --- ------ ----- --<br>----- bonds ---------- --- --- ------ ------ ---- -- ------<br>------- --- ------ ----- --- ---- ------- -- ---- --- --<br>------- ------,269631.03000001865,269630.605000013,269330.081,269340.2750000241,269346.796,269646.823,,34,bonds
screen,html.Screen,1_1_1_1_35,2021-04-21T13:45:35.749Z,,,,,,,,,,,,,,,,54,,,,,,,,,,,,,,242.45200002321508,,response,,,,100,,,,,,,Space,keypress(Space),,,,,,,,"-- --- ---- --- ------ ----- ------- ---- -- --- ------- --<br>------- ---------- ------ -- ----- -- ----- -- ---- ------<br>--- ----- --- --- ------ -------- ----- --- ------ ----- --<br>----- ----- plummeted, --- --- ------ ------ ---- -- ------<br>------- --- ------ ----- --- ---- ------- -- ---- --- --<br>------- ------",269889.79000001564,269889.2750000232,269630.153,269631.10500000766,269646.823,269896.839,,35,"plummeted,"
screen,html.Screen,1_1_1_1_36,2021-04-21T13:45:35.989Z,,,,,,,,,,,,,,,,54,,,,,,,,,,,,,,232.2910000157426,,response,,,,100,,,,,,,Space,keypress(Space),,,,,,,,-- --- ---- --- ------ ----- ------- ---- -- --- ------- --<br>------- ---------- ------ -- ----- -- ----- -- ---- ------<br>--- ----- --- --- ------ -------- ----- --- ------ ----- --<br>----- ----- ---------- and --- ------ ------ ---- -- ------<br>------- --- ------ ----- --- ---- ------- -- ---- --- --<br>------- ------,270129.5350000146,270129.1300000157,269880.33,269889.90999999805,269896.839,270156.376,,36,and
screen,html.Screen,1_1_1_1_37,2021-04-21T13:45:36.235Z,,,,,,,,,,,,,,,,54,,,,,,,,,,,,,,218.88400000071852,,response,,,,100,,,,,,,Space,keypress(Space),,,,,,,,-- --- ---- --- ------ ----- ------- ---- -- --- ------- --<br>------- ---------- ------ -- ----- -- ----- -- ---- ------<br>--- ----- --- --- ------ -------- ----- --- ------ ----- --<br>----- ----- ---------- --- the ------ ------ ---- -- ------<br>------- --- ------ ----- --- ---- ------- -- ---- --- --<br>------- ------,270375.87000001804,270375.2600000007,270113.58,270129.63500001933,270156.376,270380.57,,37,the
screen,html.Screen,1_1_1_1_38,2021-04-21T13:45:36.458Z,,,,,,,,,,,,,,,,54,,,,,,,,,,,,,,217.35500000911998,,response,,,,100,,,,,,,Space,keypress(Space),,,,,,,,-- --- ---- --- ------ ----- ------- ---- -- --- ------- --<br>------- ---------- ------ -- ----- -- ----- -- ---- ------<br>--- ----- --- --- ------ -------- ----- --- ------ ----- --<br>----- ----- ---------- --- --- market ------ ---- -- ------<br>------- --- ------ ----- --- ---- ------- -- ---- --- --<br>------- ------,270598.330000008,270597.9250000091,270363.687,270376.0000000184,270380.57,270613.715,,38,market
screen,html.Screen,1_1_1_1_39,2021-04-21T13:45:36.659Z,,,,,,,,,,,,,,,,54,,,,,,,,,,,,,,184.89000001811655,,response,,,,100,,,,,,,Space,keypress(Space),,,,,,,,-- --- ---- --- ------ ----- ------- ---- -- --- ------- --<br>------- ---------- ------ -- ----- -- ----- -- ---- ------<br>--- ----- --- --- ------ -------- ----- --- ------ ----- --<br>----- ----- ---------- --- --- ------ became ---- -- ------<br>------- --- ------ ----- --- ---- ------- -- ---- --- --<br>------- ------,270799.84500000137,270798.60500001814,270597.083,270598.41500001494,270613.715,270813.766,,39,became
screen,html.Screen,1_1_1_1_40,2021-04-21T13:45:36.861Z,,,,,,,,,,,,,,,,54,,,,,,,,,,,,,,187.11900001583854,,response,,,,100,,,,,,,Space,keypress(Space),,,,,,,,-- --- ---- --- ------ ----- ------- ---- -- --- ------- --<br>------- ---------- ------ -- ----- -- ----- -- ---- ------<br>--- ----- --- --- ------ -------- ----- --- ------ ----- --<br>----- ----- ---------- --- --- ------ ------ wary -- ------<br>------- --- ------ ----- --- ---- ------- -- ---- --- --<br>------- ------,271001.3200000103,271000.88500001584,270797.127,270800.0699999975,270813.766,271013.787,,40,wary
screen,html.Screen,1_1_1_1_41,2021-04-21T13:45:37.093Z,,,,,,,,,,,,,,,,54,,,,,,,,,,,,,,219.75300001562573,,response,,,,100,,,,,,,Space,keypress(Space),,,,,,,,-- --- ---- --- ------ ----- ------- ---- -- --- ------- --<br>------- ---------- ------ -- ----- -- ----- -- ---- ------<br>--- ----- --- --- ------ -------- ----- --- ------ ----- --<br>----- ----- ---------- --- --- ------ ------ ---- of ------<br>------- --- ------ ----- --- ---- ------- -- ---- --- --<br>------- ------,271234.03000002145,271233.54000001564,270997.173,271001.45500001963,271013.787,271247.32,,41,of
screen,html.Screen,1_1_1_1_42,2021-04-21T13:45:37.330Z,,,,,,,,,,,,,,,,54,,,,,,,,,,,,,,222.6299999987823,,response,,,,100,,,,,,,Space,keypress(Space),,,,,,,,-- --- ---- --- ------ ----- ------- ---- -- --- ------- --<br>------- ---------- ------ -- ----- -- ----- -- ---- ------<br>--- ----- --- --- ------ -------- ----- --- ------ ----- --<br>----- ----- ---------- --- --- ------ ------ ---- -- French<br>------- --- ------ ----- --- ---- ------- -- ---- --- --<br>------- ------,271470.3900000022,271469.9499999988,271230.605,271234.13500000606,271247.32,271480.578,,42,French
screen,html.Screen,1_1_1_1_43,2021-04-21T13:45:37.553Z,,,,,,,,,,,,,,,,54,,,,,,,,,,,,,,212.8420000250917,,response,,,,100,,,,,,,Space,keypress(Space),,,,,,,,-- --- ---- --- ------ ----- ------- ---- -- --- ------- --<br>------- ---------- ------ -- ----- -- ----- -- ---- ------<br>--- ----- --- --- ------ -------- ----- --- ------ ----- --<br>----- ----- ---------- --- --- ------ ------ ---- -- ------<br>credit. --- ------ ----- --- ---- ------- -- ---- --- --<br>------- ------,271694.1400000069,271693.4200000251,271464.245,271470.51000001375,271480.578,271697.283,,43,credit.
screen,html.Screen,1_1_1_1_44,2021-04-21T13:45:37.823Z,,,,,,,,,,,,,,,,54,,,,,,,,,,,,,,265.6720000245259,,response,,,,100,,,,,,,Space,keypress(Space),,,,,,,,-- --- ---- --- ------ ----- ------- ---- -- --- ------- --<br>------- ---------- ------ -- ----- -- ----- -- ---- ------<br>--- ----- --- --- ------ -------- ----- --- ------ ----- --<br>----- ----- ---------- --- --- ------ ------ ---- -- ------<br>------- The ------ ----- --- ---- ------- -- ---- --- --<br>------- ------,271963.5550000239,271962.9550000245,271680.652,271694.2800000252,271697.283,271982.944,,44,The
screen,html.Screen,1_1_1_1_45,2021-04-21T13:45:38.123Z,,,,,,,,,,,,,,,,54,,,,,,,,,,,,,,280.5859999965178,,response,,,,100,,,,,,,Space,keypress(Space),,,,,,,,-- --- ---- --- ------ ----- ------- ---- -- --- ------- --<br>------- ---------- ------ -- ----- -- ----- -- ---- ------<br>--- ----- --- --- ------ -------- ----- --- ------ ----- --<br>----- ----- ---------- --- --- ------ ------ ---- -- ------<br>------- --- French ----- --- ---- ------- -- ---- --- --<br>------- ------,272263.97500000894,272263.52999999654,271947.466,271963.64000000176,271982.944,272280.861,,45,French
screen,html.Screen,1_1_1_1_46,2021-04-21T13:45:38.381Z,,,,,,,,,,,,,,,,54,,,,,,,,,,,,,,240.67900001612725,,response,,,,100,,,,,,,Space,keypress(Space),,,,,,,,-- --- ---- --- ------ ----- ------- ---- -- --- ------- --<br>------- ---------- ------ -- ----- -- ----- -- ---- ------<br>--- ----- --- --- ------ -------- ----- --- ------ ----- --<br>----- ----- ---------- --- --- ------ ------ ---- -- ------<br>------- --- ------ state --- ---- ------- -- ---- --- --<br>------- ------,272522.08500000415,272521.5400000161,272264.197,272264.06500002486,272280.861,272530.923,,46,state
screen,html.Screen,1_1_1_1_47,2021-04-21T13:45:38.621Z,,,,,,,,,,,,,,,,54,,,,,,,,,,,,,,230.31700002163416,,response,,,,100,,,,,,,Space,keypress(Space),,,,,,,,-- --- ---- --- ------ ----- ------- ---- -- --- ------- --<br>------- ---------- ------ -- ----- -- ----- -- ---- ------<br>--- ----- --- --- ------ -------- ----- --- ------ ----- --<br>----- ----- ---------- --- --- ------ ------ ---- -- ------<br>------- --- ------ ----- was ---- ------- -- ---- --- --<br>------- ------,272761.7650000029,272761.24000002164,272514.217,272522.2450000001,272530.923,272764.254,,47,was
screen,html.Screen,1_1_1_1_48,2021-04-21T13:45:38.837Z,,,,,,,,,,,,,,,,54,,,,,,,,,,,,,,212.99100001639454,,response,,,,100,,,,,,,Space,keypress(Space),,,,,,,,-- --- ---- --- ------ ----- ------- ---- -- --- ------- --<br>------- ---------- ------ -- ----- -- ----- -- ---- ------<br>--- ----- --- --- ------ -------- ----- --- ------ ----- --<br>----- ----- ---------- --- --- ------ ------ ---- -- ------<br>------- --- ------ ----- --- left ------- -- ---- --- --<br>------- ------,272977.6899999997,272977.2450000164,272747.767,272761.8950000033,272764.254,272981.099,,48,left
screen,html.Screen,1_1_1_1_49,2021-04-21T13:45:39.042Z,,,,,,,,,,,,,,,,54,,,,,,,,,,,,,,201.18100000818959,,response,,,,100,,,,,,,Space,keypress(Space),,,,,,,,-- --- ---- --- ------ ----- ------- ---- -- --- ------- --<br>------- ---------- ------ -- ----- -- ----- -- ---- ------<br>--- ----- --- --- ------ -------- ----- --- ------ ----- --<br>----- ----- ---------- --- --- ------ ------ ---- -- ------<br>------- --- ------ ----- --- ---- without -- ---- --- --<br>------- ------,273182.8000000096,273182.2800000082,272964.373,272977.83499999787,272981.099,273197.713,,49,without
screen,html.Screen,1_1_1_1_50,2021-04-21T13:45:39.283Z,,,,,,,,,,,,,,,,54,,,,,,,,,,,,,,224.757000019541,,response,,,,100,,,,,,,Space,keypress(Space),,,,,,,,-- --- ---- --- ------ ----- ------- ---- -- --- ------- --<br>------- ---------- ------ -- ----- -- ----- -- ---- ------<br>--- ----- --- --- ------ -------- ----- --- ------ ----- --<br>----- ----- ---------- --- --- ------ ------ ---- -- ------<br>------- --- ------ ----- --- ---- ------- an ---- --- --<br>------- ------,273423.2849999971,273422.47000001953,273181.115,273182.9500000167,273197.713,273431.248,,50,an
screen,html.Screen,1_1_1_1_51,2021-04-21T13:45:39.525Z,,,,,,,,,,,,,,,,54,,,,,,,,,,,,,,234.35700001649093,,response,,,,100,,,,,,,Space,keypress(Space),,,,,,,,-- --- ---- --- ------ ----- ------- ---- -- --- ------- --<br>------- ---------- ------ -- ----- -- ----- -- ---- ------<br>--- ----- --- --- ------ -------- ----- --- ------ ----- --<br>----- ----- ---------- --- --- ------ ------ ---- -- ------<br>------- --- ------ ----- --- ---- ------- -- easy --- --<br>------- ------,273666.0250000132,273665.6050000165,273414.44,273423.4400000132,273431.248,273681.226,,51,easy
screen,html.Screen,1_1_1_1_52,2021-04-21T13:45:39.832Z,,,,,,,,,,,,,,,,54,,,,,,,,,,,,,,291.3390000036452,,response,,,,100,,,,,,,Space,keypress(Space),,,,,,,,-- --- ---- --- ------ ----- ------- ---- -- --- ------- --<br>------- ---------- ------ -- ----- -- ----- -- ---- ------<br>--- ----- --- --- ------ -------- ----- --- ------ ----- --<br>----- ----- ---------- --- --- ------ ------ ---- -- ------<br>------- --- ------ ----- --- ---- ------- -- ---- way --<br>------- ------,273973.1250000186,273972.56500000367,273664.571,273666.115,273681.226,273981.364,,52,way
screen,html.Screen,1_1_1_1_53,2021-04-21T13:45:40.244Z,,,,,,,,,,,,,,,,54,,,,,,,,,,,,,,402.6860000223969,,response,,,,100,,,,,,,Space,keypress(Space),,,,,,,,-- --- ---- --- ------ ----- ------- ---- -- --- ------- --<br>------- ---------- ------ -- ----- -- ----- -- ---- ------<br>--- ----- --- --- ------ -------- ----- --- ------ ----- --<br>----- ----- ---------- --- --- ------ ------ ---- -- ------<br>------- --- ------ ----- --- ---- ------- -- ---- --- of<br>------- ------,274384.5600000059,274384.0500000224,273964.594,273973.2250000234,273981.364,274398.043,,53,of
screen,html.Screen,1_1_1_1_54,2021-04-21T13:45:40.572Z,,,,,,,,,,,,,,,,54,,,,,,,,,,,,,,313.90200001728954,,response,,,,100,,,,,,,Space,keypress(Space),,,,,,,,-- --- ---- --- ------ ----- ------- ---- -- --- ------- --<br>------- ---------- ------ -- ----- -- ----- -- ---- ------<br>--- ----- --- --- ------ -------- ----- --- ------ ----- --<br>----- ----- ---------- --- --- ------ ------ ---- -- ------<br>------- --- ------ ----- --- ---- ------- -- ---- --- --<br>raising ------,274712.5100000121,274711.9450000173,274381.587,274384.65500000166,274398.043,274714.774,,54,raising
screen,html.Screen,1_1_1_1_55,2021-04-21T13:45:40.876Z,,,,,,,,,,,,,,,,54,,,,,,,,,,,,,,301.4160000239499,,response,,,,100,,,,,,,Space,keypress(Space),,,,,,,,-- --- ---- --- ------ ----- ------- ---- -- --- ------- --<br>------- ---------- ------ -- ----- -- ----- -- ---- ------<br>--- ----- --- --- ------ -------- ----- --- ------ ----- --<br>----- ----- ---------- --- --- ------ ------ ---- -- ------<br>------- --- ------ ----- --- ---- ------- -- ---- --- --<br>------- money.,275016.580000025,275016.1900000239,274698.327,274712.6700000081,274714.774,275031.572,,55,money.
Item 100,flow.Loop,1_1_1_1,2021-04-21T13:45:40.876Z,,,,,,,,,,,,,,,,,,,,,,,,,,,,,,16839.133000023925,,completion,,,,,F,,,,,,,,,,,silence,,,,,275016.71000002534,275016.1900000239,258160.649,258161.21000002022,258177.057,275031.572,,,
Question 1,html.Screen,1_1_1_2,2021-04-21T13:45:43.245Z,,,,,,,,,,,,,,,,,,,,,,,,,,,true,TRUE,,2353.567999998515,,response,,,,100,F,,,,,,TRUE,click #choice-1,,,,silence,,,,,277385.98000002094,277385.1399999985,275014.949,275016.77000001655,275031.572,277398.864,,,
Question 2,html.Screen,1_1_1_3,2021-04-21T13:45:46.404Z,,,,,,,,,,,,,,,,,,,,,,,,,,,true,FALSE,,3144.5610000107554,,response,,,,100,F,,,,,,FALSE,click #choice-2,,,,silence,,,,,280544.2949999997,280543.42500001076,277382.21,277386.1050000123,277398.864,280549.71,,,
Item 100,flow.Sequence,1_1_1,2021-04-21T13:45:46.404Z,,,,,,,,,,,,,,,,,,,,,,,,,,,,,,32368.994000010745,,completion,,,,,,,,,,,,,,,,,,,,,280544.4200000202,280543.42500001076,248157.835,248168.18000000785,248174.431,280549.71,,,
End of Practice,html.Page,1_1_2,2021-04-21T13:45:49.957Z,,,,,,,,,,,,,,,,,,,,,,,,,,,,,,3548.100000006554,,form submission,,,,,,,,,,,,,,,,,,,,,284097.95500000473,284097.8100000066,280533.102,280544.4750000024,280549.71,284100.696,,,
Practice,flow.Sequence,1_1,2021-04-21T13:45:49.957Z,,,,,,,,,,,,,,,,,,,,,,,,,,,,,,78534.76300000658,,completion,,,,,,,,,,,,,,,,,,,,,284098.0800000252,284097.8100000066,205546.392,205558.45500002033,205563.047,284100.696,,,
Trap_instruction,html.Page,1_2_0,2021-04-21T13:46:09.246Z,,,,,,,,,,,,,,,,,,,,,,,,,,,,,,19285.15900000045,,form submission,,,,,,,,,,,,,,,,,,,,,303386.050000001,303385.85500000045,284084.027,284098.16500000306,284100.696,303405.759,,,
trap_trial,html.Screen,1_2_1,2021-04-21T13:46:12.751Z,,,,,,,,,,,,,,,,,,,,,,,,,,,true,1,,3484.996000000334,,response,,,,,,,,,,,1,click #choice-1,,,,,,,,,306891.4250000089,306890.75500000035,303372.513,303386.18000000133,303405.759,306906.945,,,
end of trap trial,html.Page,1_2_2,2021-04-21T13:46:14.634Z,,,,,,,,,,,,,,,,,,,,,,,,,,,,,,1866.7150000061956,,form submission,,,,,,,,,,,,,,,,,,,,,308774.310000008,308773.6600000062,306890.057,306891.5150000248,306906.945,308773.946,,,
Trap 1,flow.Sequence,1_2,2021-04-21T13:46:14.634Z,,,,,,,,,,,,,,,,,,,,,,,,,,,,,,24672.964000006206,,completion,,,,,,,,,,,,,,,,,,,,,308774.49500001967,308773.6600000062,284084.027,284098.1400000164,284100.696,308773.946,,,
Standby,html.Page,1_3_0,2021-04-21T13:46:22.620Z,,,,,,,,,,,,,,,,,,,,,,,,,,,,,,8002.048999999999,,timeout,,,,,,,,,,,,,,,,,,,,,316760.21000000765,316759.701,308757.193,308774.5850000065,308773.946,316775.995,,,
Holding screen,html.Screen,1_3_1_0_0,2021-04-21T13:46:29.621Z,,,,,,,,,,,,,,,,,,,,,,,,,,,,,,7001.97000000003,,timeout,,,,,,,,,,,,,,,,,,,,,323761.93000000785,323761.167,316759.701,316760.36000001477,316775.995,323777.965,,,
screen,html.Screen,1_3_1_0_1_0,2021-04-21T13:46:31.645Z,,,,,,,,,,,,,,,,11,,,,,,,,,,,,,,2006.6749999980093,,response,,,,4,F,,,,,,Space,keypress(Space),,,,instrumental,,,,Known -- ---- --- -- --- -------- ------------ ---------- --<br>- ------- ------ --------- -- ------------ -- --- ---- -----<br>------ ---- ---- ------ ------ ------- --- ----- ---------<br>---- --- -------- -------- --- --- -- ------- --- --- -----<br>-- --- ------ ------- --- --- -------- ---- --------- --<br>---------- -- -------- ----------------,325785.200000013,325784.63999999803,323761.167,323762.1800000197,323777.965,325795.058,,0,Known
screen,html.Screen,1_3_1_0_1_1,2021-04-21T13:46:31.996Z,,,,,,,,,,,,,,,,11,,,,,,,,,,,,,,341.44700000219746,,response,,,,4,F,,,,,,Space,keypress(Space),,,,instrumental,,,,----- as ---- --- -- --- -------- ------------ ---------- --<br>- ------- ------ --------- -- ------------ -- --- ---- -----<br>------ ---- ---- ------ ------ ------- --- ----- ---------<br>---- --- -------- -------- --- --- -- ------- --- --- -----<br>-- --- ------ ------- --- --- -------- ---- --------- --<br>---------- -- -------- ----------------,326136.9399999967,326136.5050000022,325778.473,325785.28500001994,325795.058,326145.196,,1,as
screen,html.Screen,1_3_1_0_1_2,2021-04-21T13:46:32.319Z,,,,,,,,,,,,,,,,11,,,,,,,,,,,,,,313.5840000153985,,response,,,,4,F,,,,,,Space,keypress(Space),,,,instrumental,,,,----- -- Rapa --- -- --- -------- ------------ ---------- --<br>- ------- ------ --------- -- ------------ -- --- ---- -----<br>------ ---- ---- ------ ------ ------- --- ----- ---------<br>---- --- -------- -------- --- --- -- ------- --- --- -----<br>-- --- ------ ------- --- --- -------- ---- --------- --<br>---------- -- -------- ----------------,326459.1900000232,326458.7800000154,326128.505,326137.0300000126,326145.196,326461.908,,2,Rapa
screen,html.Screen,1_3_1_0_1_3,2021-04-21T13:46:32.698Z,,,,,,,,,,,,,,,,11,,,,,,,,,,,,,,376.0420000155573,,response,,,,4,F,,,,,,Space,keypress(Space),,,,instrumental,,,,----- -- ---- Nui -- --- -------- ------------ ---------- --<br>- ------- ------ --------- -- ------------ -- --- ---- -----<br>------ ---- ---- ------ ------ ------- --- ----- ---------<br>---- --- -------- -------- --- --- -- ------- --- --- -----<br>-- --- ------ ------- --- --- -------- ---- --------- --<br>---------- -- -------- ----------------,326838.49000002374,326837.95000001555,326445.806,326459.2700000212,326461.908,326845.343,,3,Nui
screen,html.Screen,1_3_1_0_1_4,2021-04-21T13:46:33.082Z,,,,,,,,,,,,,,,,11,,,,,,,,,,,,,,376.94700000516605,,response,,,,4,F,,,,,,Space,keypress(Space),,,,instrumental,,,,----- -- ---- --- to --- -------- ------------ ---------- --<br>- ------- ------ --------- -- ------------ -- --- ---- -----<br>------ ---- ---- ------ ------ ------- --- ----- ---------<br>---- --- -------- -------- --- --- -- ------- --- --- -----<br>-- --- ------ ------- --- --- -------- ---- --------- --<br>---------- -- -------- ----------------,327222.780000011,327222.29000000516,326828.715,326838.6000000173,326845.343,327228.819,,4,to
screen,html.Screen,1_3_1_0_1_5,2021-04-21T13:46:33.428Z,,,,,,,,,,,,,,,,11,,,,,,,,,,,,,,339.33100000640843,,response,,,,4,F,,,,,,Space,keypress(Space),,,,instrumental,,,,----- -- ---- --- -- the -------- ------------ ---------- --<br>- ------- ------ --------- -- ------------ -- --- ---- -----<br>------ ---- ---- ------ ------ ------- --- ----- ---------<br>---- --- -------- -------- --- --- -- ------- --- --- -----<br>-- --- ------ ------- --- --- -------- ---- --------- --<br>---------- -- -------- ----------------,327568.64000001224,327568.1500000064,327212.19,327222.8650000179,327228.819,327578.887,,5,the
screen,html.Screen,1_3_1_0_1_6,2021-04-21T13:46:33.694Z,,,,,,,,,,,,,,,,11,,,,,,,,,,,,,,255.3030000232393,,response,,,,4,F,,,,,,Space,keypress(Space),,,,instrumental,,,,----- -- ---- --- -- --- island's ------------ ---------- --<br>- ------- ------ --------- -- ------------ -- --- ---- -----<br>------ ---- ---- ------ ------ ------- --- ----- ---------<br>---- --- -------- -------- --- --- -- ------- --- --- -----<br>-- --- ------ ------- --- --- -------- ---- --------- --<br>---------- -- -------- ----------------,327834.6250000177,327834.1900000232,327562.266,327568.7250000192,327578.887,327846.243,,6,island's
screen,html.Screen,1_3_1_0_1_7,2021-04-21T13:46:34.150Z,,,,,,,,,,,,,,,,11,,,,,,,,,,,,,,443.8620000218507,,response,,,,4,F,,,,,,Space,keypress(Space),,,,instrumental,,,,"----- -- ---- --- -- --- -------- inhabitants, ---------- --<br>- ------- ------ --------- -- ------------ -- --- ---- -----<br>------ ---- ---- ------ ------ ------- --- ----- ---------<br>---- --- -------- -------- --- --- -- ------- --- --- -----<br>-- --- ------ ------- --- --- -------- ---- --------- --<br>---------- -- -------- ----------------",328290.5600000231,328290.10500002187,327828.925,327834.7150000045,327846.243,328295.76,,7,"inhabitants,"
screen,html.Screen,1_3_1_0_1_8,2021-04-21T13:46:34.544Z,,,,,,,,,,,,,,,,11,,,,,,,,,,,,,,388.69500000961125,,response,,,,4,F,,,,,,Space,keypress(Space),,,,instrumental,,,,----- -- ---- --- -- --- -------- ------------ Rongorongo --<br>- ------- ------ --------- -- ------------ -- --- ---- -----<br>------ ---- ---- ------ ------ ------- --- ----- ---------<br>---- --- -------- -------- --- --- -- ------- --- --- -----<br>-- --- ------ ------- --- --- -------- ---- --------- --<br>---------- -- -------- ----------------,328684.9199999997,328684.4550000096,328279.111,328290.64500000095,328295.76,328696.057,,8,Rongorongo
screen,html.Screen,1_3_1_0_1_9,2021-04-21T13:46:35.069Z,,,,,,,,,,,,,,,,11,,,,,,,,,,,,,,513.1130000164849,,response,,,,4,F,,,,,,Space,keypress(Space),,,,instrumental,,,,----- -- ---- --- -- --- -------- ------------ ---------- is<br>- ------- ------ --------- -- ------------ -- --- ---- -----<br>------ ---- ---- ------ ------ ------- --- ----- ---------<br>---- --- -------- -------- --- --- -- ------- --- --- -----<br>-- --- ------ ------- --- --- -------- ---- --------- --<br>---------- -- -------- ----------------,329209.5950000221,329209.17000001646,328679.794,328685.06499999785,328696.057,329212.62,,9,is
screen,html.Screen,1_3_1_0_1_10,2021-04-21T13:46:35.421Z,,,,,,,,,,,,,,,,11,,,,,,,,,,,,,,347.8900000102585,,response,,,,4,F,,,,,,Space,keypress(Space),,,,instrumental,,,,----- -- ---- --- -- --- -------- ------------ ---------- --<br>a ------- ------ --------- -- ------------ -- --- ---- -----<br>------ ---- ---- ------ ------ ------- --- ----- ---------<br>---- --- -------- -------- --- --- -- ------- --- --- -----<br>-- --- ------ ------- --- --- -------- ---- --------- --<br>---------- -- -------- ----------------,329560.98500001826,329560.51000001025,329196.175,329209.72500002244,329212.62,329562.736,,10,a
screen,html.Screen,1_3_1_0_1_11,2021-04-21T13:46:35.702Z,,,,,,,,,,,,,,,,11,,,,,,,,,,,,,,279.2939999998198,,response,,,,4,F,,,,,,Space,keypress(Space),,,,instrumental,,,,----- -- ---- --- -- --- -------- ------------ ---------- --<br>- writing ------ --------- -- ------------ -- --- ---- -----<br>------ ---- ---- ------ ------ ------- --- ----- ---------<br>---- --- -------- -------- --- --- -- ------- --- --- -----<br>-- --- ------ ------- --- --- -------- ---- --------- --<br>---------- -- -------- ----------------,329842.67000001273,329842.0299999998,329546.142,329561.0700000252,329562.736,329846.11,,11,writing
screen,html.Screen,1_3_1_0_1_12,2021-04-21T13:46:36.169Z,,,,,,,,,,,,,,,,11,,,,,,,,,,,,,,462.7100000056671,,response,,,,4,F,,,,,,Space,keypress(Space),,,,instrumental,,,,----- -- ---- --- -- --- -------- ------------ ---------- --<br>- ------- system --------- -- ------------ -- --- ---- -----<br>------ ---- ---- ------ ------ ------- --- ----- ---------<br>---- --- -------- -------- --- --- -- ------- --- --- -----<br>-- --- ------ ------- --- --- -------- ---- --------- --<br>---------- -- -------- ----------------,330309.2699999979,330308.82000000565,329829.931,329842.7550000197,329846.11,330312.919,,12,system
screen,html.Screen,1_3_1_0_1_13,2021-04-21T13:46:36.470Z,,,,,,,,,,,,,,,,11,,,,,,,,,,,,,,296.85100001003593,,response,,,,4,F,,,,,,Space,keypress(Space),,,,instrumental,,,,----- -- ---- --- -- --- -------- ------------ ---------- --<br>- ------- ------ comprised -- ------------ -- --- ---- -----<br>------ ---- ---- ------ ------ ------- --- ----- ---------<br>---- --- -------- -------- --- --- -- ------- --- --- -----<br>-- --- ------ ------- --- --- -------- ---- --------- --<br>---------- -- -------- ----------------,330610.26000001584,330609.77000001003,330296.315,330309.3800000206,330312.919,330612.984,,13,comprised
screen,html.Screen,1_3_1_0_1_14,2021-04-21T13:46:36.780Z,,,,,,,,,,,,,,,,11,,,,,,,,,,,,,,306.74100001429906,,response,,,,4,F,,,,,,Space,keypress(Space),,,,instrumental,,,,----- -- ---- --- -- --- -------- ------------ ---------- --<br>- ------- ------ --------- of ------------ -- --- ---- -----<br>------ ---- ---- ------ ------ ------- --- ----- ---------<br>---- --- -------- -------- --- --- -- ------- --- --- -----<br>-- --- ------ ------- --- --- -------- ---- --------- --<br>---------- -- -------- ----------------,330920.20500000217,330919.7250000143,330596.376,330610.3700000094,330612.984,330929.777,,14,of
screen,html.Screen,1_3_1_0_1_15,2021-04-21T13:46:37.170Z,,,,,,,,,,,,,,,,11,,,,,,,,,,,,,,380.6030000098981,,response,,,,4,F,,,,,,Space,keypress(Space),,,,instrumental,,,,----- -- ---- --- -- --- -------- ------------ ---------- --<br>- ------- ------ --------- -- pictographs. -- --- ---- -----<br>------ ---- ---- ------ ------ ------- --- ----- ---------<br>---- --- -------- -------- --- --- -- ------- --- --- -----<br>-- --- ------ ------- --- --- -------- ---- --------- --<br>---------- -- -------- ----------------,331310.85000000894,331310.3800000099,330913.092,330920.2900000091,330929.777,331313.231,,15,pictographs.
screen,html.Screen,1_3_1_0_1_16,2021-04-21T13:46:37.716Z,,,,,,,,,,,,,,,,11,,,,,,,,,,,,,,543.0690000139875,,response,,,,4,F,,,,,,Space,keypress(Space),,,,instrumental,,,,----- -- ---- --- -- --- -------- ------------ ---------- --<br>- ------- ------ --------- -- ------------ It --- ---- -----<br>------ ---- ---- ------ ------ ------- --- ----- ---------<br>---- --- -------- -------- --- --- -- ------- --- --- -----<br>-- --- ------ ------- --- --- -------- ---- --------- --<br>---------- -- -------- ----------------,331856.9050000224,331856.300000014,331296.553,331310.94000002486,331313.231,331863.524,,16,It
screen,html.Screen,1_3_1_0_1_17,2021-04-21T13:46:38.072Z,,,,,,,,,,,,,,,,11,,,,,,,,,,,,,,348.96600000537,,response,,,,4,F,,,,,,Space,keypress(Space),,,,instrumental,,,,----- -- ---- --- -- --- -------- ------------ ---------- --<br>- ------- ------ --------- -- ------------ -- has ---- -----<br>------ ---- ---- ------ ------ ------- --- ----- ---------<br>---- --- -------- -------- --- --- -- ------- --- --- -----<br>-- --- ------ ------- --- --- -------- ---- --------- --<br>---------- -- -------- ----------------,332212.93500001775,332212.49000000535,331846.73,331857.00000001816,331863.524,332245.209,,17,has
screen,html.Screen,1_3_1_0_1_18,2021-04-21T13:46:38.344Z,,,,,,,,,,,,,,,,11,,,,,,,,,,,,,,238.55100000282982,,response,,,,4,F,,,,,,Space,keypress(Space),,,,instrumental,,,,----- -- ---- --- -- --- -------- ------------ ---------- --<br>- ------- ------ --------- -- ------------ -- --- been -----<br>------ ---- ---- ------ ------ ------- --- ----- ---------<br>---- --- -------- -------- --- --- -- ------- --- --- -----<br>-- --- ------ ------- --- --- -------- ---- --------- --<br>---------- -- -------- ----------------,332484.300000011,332483.7600000028,332197.391,332213.02500000456,332245.209,332496.882,,18,been
screen,html.Screen,1_3_1_0_1_19,2021-04-21T13:46:38.685Z,,,,,,,,,,,,,,,,11,,,,,,,,,,,,,,327.7080000038259,,response,,,,4,F,,,,,,Space,keypress(Space),,,,instrumental,,,,----- -- ---- --- -- --- -------- ------------ ---------- --<br>- ------- ------ --------- -- ------------ -- --- ---- found<br>------ ---- ---- ------ ------ ------- --- ----- ---------<br>---- --- -------- -------- --- --- -- ------- --- --- -----<br>-- --- ------ ------- --- --- -------- ---- --------- --<br>---------- -- -------- ----------------,332825.055000023,332824.5900000038,332480.199,332484.38500001794,332496.882,332830.238,,19,found
screen,html.Screen,1_3_1_0_1_20,2021-04-21T13:46:38.977Z,,,,,,,,,,,,,,,,11,,,,,,,,,,,,,,287.1820000241278,,response,,,,4,F,,,,,,Space,keypress(Space),,,,instrumental,,,,----- -- ---- --- -- --- -------- ------------ ---------- --<br>- ------- ------ --------- -- ------------ -- --- ---- -----<br>carved ---- ---- ------ ------ ------- --- ----- ---------<br>---- --- -------- -------- --- --- -- ------- --- --- -----<br>-- --- ------ ------- --- --- -------- ---- --------- --<br>---------- -- -------- ----------------,333117.8599999985,333117.42000002414,332813.609,332825.15499999863,332830.238,333130.335,,20,carved
screen,html.Screen,1_3_1_0_1_21,2021-04-21T13:46:39.303Z,,,,,,,,,,,,,,,,11,,,,,,,,,,,,,,312.83000000420725,,response,,,,4,F,,,,,,Space,keypress(Space),,,,instrumental,,,,----- -- ---- --- -- --- -------- ------------ ---------- --<br>- ------- ------ --------- -- ------------ -- --- ---- -----<br>------ into ---- ------ ------ ------- --- ----- ---------<br>---- --- -------- -------- --- --- -- ------- --- --- -----<br>-- --- ------ ------- --- --- -------- ---- --------- --<br>---------- -- -------- ----------------,333443.660000019,333443.1650000042,333113.721,333117.95500002336,333130.335,333447.066,,21,into
screen,html.Screen,1_3_1_0_1_22,2021-04-21T13:46:39.661Z,,,,,,,,,,,,,,,,11,,,,,,,,,,,,,,353.68900000385474,,response,,,,4,F,,,,,,Space,keypress(Space),,,,instrumental,,,,----- -- ---- --- -- --- -------- ------------ ---------- --<br>- ------- ------ --------- -- ------------ -- --- ---- -----<br>------ ---- many ------ ------ ------- --- ----- ---------<br>---- --- -------- -------- --- --- -- ------- --- --- -----<br>-- --- ------ ------- --- --- -------- ---- --------- --<br>---------- -- -------- ----------------,333801.29500001203,333800.75500000385,333430.455,333443.815000006,333447.066,333813.859,,22,many
screen,html.Screen,1_3_1_0_1_23,2021-04-21T13:46:39.976Z,,,,,,,,,,,,,,,,11,,,,,,,,,,,,,,302.3160000028438,,response,,,,4,F,,,,,,Space,keypress(Space),,,,instrumental,,,,----- -- ---- --- -- --- -------- ------------ ---------- --<br>- ------- ------ --------- -- ------------ -- --- ---- -----<br>------ ---- ---- oblong ------ ------- --- ----- ---------<br>---- --- -------- -------- --- --- -- ------- --- --- -----<br>-- --- ------ ------- --- --- -------- ---- --------- --<br>---------- -- -------- ----------------,334116.640000022,334116.17500000284,333797.248,333801.4200000034,333813.859,334130.622,,23,oblong
screen,html.Screen,1_3_1_0_1_24,2021-04-21T13:46:40.339Z,,,,,,,,,,,,,,,,11,,,,,,,,,,,,,,348.59800000838004,,response,,,,4,F,,,,,,Space,keypress(Space),,,,instrumental,,,,----- -- ---- --- -- --- -------- ------------ ---------- --<br>- ------- ------ --------- -- ------------ -- --- ---- -----<br>------ ---- ---- ------ wooden ------- --- ----- ---------<br>---- --- -------- -------- --- --- -- ------- --- --- -----<br>-- --- ------ ------- --- --- -------- ---- --------- --<br>---------- -- -------- ----------------,334479.77500001434,334479.22000000835,334113.967,334116.77500000224,334130.622,334505.398,,24,wooden
screen,html.Screen,1_3_1_0_1_25,2021-04-21T13:46:41.464Z,,,,,,,,,,,,,,,,11,,,,,,,,,,,,,,1097.9920000038692,,response,,,,4,F,,,,,,Space,keypress(Space),,,,instrumental,,,,----- -- ---- --- -- --- -------- ------------ ---------- --<br>- ------- ------ --------- -- ------------ -- --- ---- -----<br>------ ---- ---- ------ ------ tablets --- ----- ---------<br>---- --- -------- -------- --- --- -- ------- --- --- -----<br>-- --- ------ ------- --- --- -------- ---- --------- --<br>---------- -- -------- ----------------,335604.08000001917,335603.39000000386,334464.06,334479.8550000123,334505.398,335614.355,,25,tablets
screen,html.Screen,1_3_1_0_1_26,2021-04-21T13:46:41.745Z,,,,,,,,,,,,,,,,11,,,,,,,,,,,,,,270.75500000291504,,response,,,,4,F,,,,,,Space,keypress(Space),,,,instrumental,,,,----- -- ---- --- -- --- -------- ------------ ---------- --<br>- ------- ------ --------- -- ------------ -- --- ---- -----<br>------ ---- ---- ------ ------ ------- and ----- ---------<br>---- --- -------- -------- --- --- -- ------- --- --- -----<br>-- --- ------ ------- --- --- -------- ---- --------- --<br>---------- -- -------- ----------------,335885.56000002427,335885.1100000029,335597.923,335604.2100000195,335614.355,335897.762,,26,and
screen,html.Screen,1_3_1_0_1_27,2021-04-21T13:46:42.000Z,,,,,,,,,,,,,,,,11,,,,,,,,,,,,,,242.11800000246149,,response,,,,4,F,,,,,,Space,keypress(Space),,,,instrumental,,,,----- -- ---- --- -- --- -------- ------------ ---------- --<br>- ------- ------ --------- -- ------------ -- --- ---- -----<br>------ ---- ---- ------ ------ ------- --- other ---------<br>---- --- -------- -------- --- --- -- ------- --- --- -----<br>-- --- ------ ------- --- --- -------- ---- --------- --<br>---------- -- -------- ----------------,336140.3450000216,336139.88000000245,335881.477,335885.6450000021,335897.762,336147.797,,27,other
screen,html.Screen,1_3_1_0_1_28,2021-04-21T13:46:42.411Z,,,,,,,,,,,,,,,,11,,,,,,,,,,,,,,402.8729999968782,,response,,,,4,F,,,,,,Space,keypress(Space),,,,instrumental,,,,----- -- ---- --- -- --- -------- ------------ ---------- --<br>- ------- ------ --------- -- ------------ -- --- ---- -----<br>------ ---- ---- ------ ------ ------- --- ----- artifacts<br>---- --- -------- -------- --- --- -- ------- --- --- -----<br>-- --- ------ ------- --- --- -------- ---- --------- --<br>---------- -- -------- ----------------,336551.15500002285,336550.6699999969,336131.182,336140.42999999947,336147.797,336564.985,,28,artifacts
screen,html.Screen,1_3_1_0_1_29,2021-04-21T13:46:42.727Z,,,,,,,,,,,,,,,,11,,,,,,,,,,,,,,301.8950000159675,,response,,,,4,F,,,,,,Space,keypress(Space),,,,instrumental,,,,----- -- ---- --- -- --- -------- ------------ ---------- --<br>- ------- ------ --------- -- ------------ -- --- ---- -----<br>------ ---- ---- ------ ------ ------- --- ----- ---------<br>from --- -------- -------- --- --- -- ------- --- --- -----<br>-- --- ------ ------- --- --- -------- ---- --------- --<br>---------- -- -------- ----------------,336867.37500000163,336866.88000001595,336547.985,336551.24500000966,336564.985,336881.57,,29,from
screen,html.Screen,1_3_1_0_1_30,2021-04-21T13:46:42.987Z,,,,,,,,,,,,,,,,11,,,,,,,,,,,,,,245.5549999990617,,response,,,,4,F,,,,,,Space,keypress(Space),,,,instrumental,,,,----- -- ---- --- -- --- -------- ------------ ---------- --<br>- ------- ------ --------- -- ------------ -- --- ---- -----<br>------ ---- ---- ------ ------ ------- --- ----- ---------<br>---- the -------- -------- --- --- -- ------- --- --- -----<br>-- --- ------ ------- --- --- -------- ---- --------- --<br>---------- -- -------- ----------------,337127.7800000098,337127.12499999907,336864.677,336867.45000001974,336881.57,337131.453,,30,the
screen,html.Screen,1_3_1_0_1_31,2021-04-21T13:46:43.259Z,,,,,,,,,,,,,,,,11,,,,,,,,,,,,,,267.14200000604615,,response,,,,4,F,,,,,,Space,keypress(Space),,,,instrumental,,,,----- -- ---- --- -- --- -------- ------------ ---------- --<br>- ------- ------ --------- -- ------------ -- --- ---- -----<br>------ ---- ---- ------ ------ ------- --- ----- ---------<br>---- --- island's -------- --- --- -- ------- --- --- -----<br>-- --- ------ ------- --- --- -------- ---- --------- --<br>---------- -- -------- ----------------,337399.08000000287,337398.595000006,337114.764,337127.92500000796,337131.453,337414.988,,31,island's
screen,html.Screen,1_3_1_0_1_32,2021-04-21T13:46:43.743Z,,,,,,,,,,,,,,,,11,,,,,,,,,,,,,,468.05200001515914,,response,,,,4,F,,,,,,Space,keypress(Space),,,,instrumental,,,,----- -- ---- --- -- --- -------- ------------ ---------- --<br>- ------- ------ --------- -- ------------ -- --- ---- -----<br>------ ---- ---- ------ ------ ------- --- ----- ---------<br>---- --- -------- history. --- --- -- ------- --- --- -----<br>-- --- ------ ------- --- --- -------- ---- --------- --<br>---------- -- -------- ----------------,337883.50500000524,337883.0400000152,337398.176,337399.2150000122,337414.988,337898.315,,32,history.
screen,html.Screen,1_3_1_0_1_33,2021-04-21T13:46:44.155Z,,,,,,,,,,,,,,,,11,,,,,,,,,,,,,,396.91000000893837,,response,,,,4,F,,,,,,Space,keypress(Space),,,,instrumental,,,,----- -- ---- --- -- --- -------- ------------ ---------- --<br>- ------- ------ --------- -- ------------ -- --- ---- -----<br>------ ---- ---- ------ ------ ------- --- ----- ---------<br>---- --- -------- -------- The --- -- ------- --- --- -----<br>-- --- ------ ------- --- --- -------- ---- --------- --<br>---------- -- -------- ----------------,338295.7800000149,338295.22500000894,337881.922,337883.62500001676,337898.315,338315.095,,33,The
screen,html.Screen,1_3_1_0_1_34,2021-04-21T13:46:44.587Z,,,,,,,,,,,,,,,,11,,,,,,,,,,,,,,412.24500001221895,,response,,,,4,F,,,,,,Space,keypress(Space),,,,instrumental,,,,----- -- ---- --- -- --- -------- ------------ ---------- --<br>- ------- ------ --------- -- ------------ -- --- ---- -----<br>------ ---- ---- ------ ------ ------- --- ----- ---------<br>---- --- -------- -------- --- art -- ------- --- --- -----<br>-- --- ------ ------- --- --- -------- ---- --------- --<br>---------- -- -------- ----------------,338727.8500000248,338727.3400000122,338281.726,338295.9100000153,338315.095,338732.031,,34,art
screen,html.Screen,1_3_1_0_1_35,2021-04-21T13:46:44.918Z,,,,,,,,,,,,,,,,11,,,,,,,,,,,,,,325.7190000072005,,response,,,,4,F,,,,,,Space,keypress(Space),,,,instrumental,,,,----- -- ---- --- -- --- -------- ------------ ---------- --<br>- ------- ------ --------- -- ------------ -- --- ---- -----<br>------ ---- ---- ------ ------ ------- --- ----- ---------<br>---- --- -------- -------- --- --- of ------- --- --- -----<br>-- --- ------ ------- --- --- -------- ---- --------- --<br>---------- -- -------- ----------------,339058.16000001505,339057.7500000072,338715.2,338727.94500002055,338732.031,339065.278,,35,of
screen,html.Screen,1_3_1_0_1_36,2021-04-21T13:46:45.222Z,,,,,,,,,,,,,,,,11,,,,,,,,,,,,,,296.4770000199205,,response,,,,4,F,,,,,,Space,keypress(Space),,,,instrumental,,,,----- -- ---- --- -- --- -------- ------------ ---------- --<br>- ------- ------ --------- -- ------------ -- --- ---- -----<br>------ ---- ---- ------ ------ ------- --- ----- ---------<br>---- --- -------- -------- --- --- -- writing --- --- -----<br>-- --- ------ ------- --- --- -------- ---- --------- --<br>---------- -- -------- ----------------,339362.4500000151,339361.7550000199,339048.65,339058.245000022,339065.278,339365.322,,36,writing
screen,html.Screen,1_3_1_0_1_37,2021-04-21T13:46:45.519Z,,,,,,,,,,,,,,,,11,,,,,,,,,,,,,,293.29800000198884,,response,,,,4,F,,,,,,Space,keypress(Space),,,,instrumental,,,,----- -- ---- --- -- --- -------- ------------ ---------- --<br>- ------- ------ --------- -- ------------ -- --- ---- -----<br>------ ---- ---- ------ ------ ------- --- ----- ---------<br>---- --- -------- -------- --- --- -- ------- was --- -----<br>-- --- ------ ------- --- --- -------- ---- --------- --<br>---------- -- -------- ----------------,339659.0750000032,339658.620000002,339348.715,339362.6050000021,339365.322,339665.413,,37,was
