sender,sender_type,sender_id,timestamp,meta,,Blues,Classical,Country,Dance,Electronic,Folk,Gospel,Hip-Hop,Jazz,Latin,Musical/Film,New-age,Pop,Provo_ID,R&B,Rap,Reggae,Religious,Rock,Soul,Swing,Traditional,age,artist_name,correct,correctResponse,distraction,duration,education,ended_on,familiarity,gender,headphone_check_performance,item,list,music_frequency,offensiveness,pleasantness,position_correct,preference,response,response_action,snippet_file,song_name,song_rating,sound,stimulus_1,stimulus_2,stimulus_3,text,time_commit,time_end,time_render,time_run,time_show,time_switch,url,word,word_ID
Introduction,html.Screen,0_0,2021-04-12T19:25:56.762Z,"{""labjs_version"":""20.2.2"",""labjs_build"":{""flavor"":""production"",""commit"":""a25486e0c714a0ae2ce03ff94b7bb6896854dcfa""},""location"":""https://run.pavlovia.org/mvasilev/music_b/"",""userAgent"":""Mozilla/5.0 (Macintosh; Intel Mac OS X 10_15_6) AppleWebKit/605.1.15 (KHTML, like Gecko) Version/14.0.3 Safari/605.1.15"",""platform"":""MacIntel"",""language"":""en-gb"",""locale"":""en-GB"",""timeZone"":""Europe/London"",""timezoneOffset"":-60,""screen_width"":1440,""screen_height"":900,""scroll_width"":1440,""scroll_height"":687,""window_innerWidth"":1440,""window_innerHeight"":735,""devicePixelRatio"":1}",,,,,,,,,,,,,,,,,,,,,,,,,,,,,3356,,response,,,,,,,,,,,continue,click button,,,,,,,,,6877,6795,3439,3410,3451,6917,{},,
Volume calibration,html.Screen,0_1,2021-04-12T19:25:58.793Z,,,,,,,,,,,,,,,,,,,,,,,,,,,,,,1974,,response,,,,,,,,,,,continue,click button,,,,,,,,,8908,8875,6901,6877,6917,8934,,,
Task instructions,html.Screen,0_2,2021-04-12T19:26:03.166Z,,,,,,,,,,,,,,,,,,,,,,,,,,,,,,4331,,response,,,,,,,,,,,continue,click button,,,,,,,,,13281,13249,8918,8908,8934,13302,,,
Sounds,html.Screen,0_3_0_0,2021-04-12T19:26:07.421Z,,,,,,,,,,,,,,,,,,,,,,,,,,,,,,4250,,timeout,,,,,,,,,2,,,,,,,,O,S,I,,17535,17534,13285,13281,13302,17552,,,
Judgement,html.Screen,0_3_0_1,2021-04-12T19:26:07.872Z,,,,,,,,,,,,,,,,,,,,,,,,,,,true,2,,421.00000000000364,,response,,,,,,,,,2,,2,click #choice-2,,,,,O,S,I,,17986,17955.000000000004,17534,17535,17552,18018,,,
Trial,flow.Sequence,0_3_0,2021-04-12T19:26:07.873Z,,,,,,,,,,,,,,,,,,,,,,,,,,,,,,4653.000000000004,,completion,,,,,,,,,2,,,,,,,,O,S,I,,17987.000000000004,17955.000000000004,13285,13281,13302,18018,,,
Sounds,html.Screen,0_3_1_0,2021-04-12T19:26:12.138Z,,,,,,,,,,,,,,,,,,,,,,,,,,,,,,4250,,timeout,,,,,,,,,2,,,,,,,,I,S,O,,22252,22252,18002,17987.000000000004,18018,22268,,,
Judgement,html.Screen,0_3_1_1,2021-04-12T19:26:12.678Z,,,,,,,,,,,,,,,,,,,,,,,,,,,true,2,,508,,response,,,,,,,,,2,,2,click #choice-2,,,,,I,S,O,,22791,22760,22252,22252,22268,22819,,,
Trial,flow.Sequence,0_3_1,2021-04-12T19:26:12.678Z,,,,,,,,,,,,,,,,,,,,,,,,,,,,,,4742,,completion,,,,,,,,,2,,,,,,,,I,S,O,,22792,22760,18002,17987.000000000004,18018,22819,,,
Sounds,html.Screen,0_3_2_0,2021-04-12T19:26:16.939Z,,,,,,,,,,,,,,,,,,,,,,,,,,,,,,4249,,timeout,,,,,,,,,1,,,,,,,,S,O,I,,27052,27052,22803,22792,22819,27068,,,
Judgement,html.Screen,0_3_2_1,2021-04-12T19:26:17.325Z,,,,,,,,,,,,,,,,,,,,,,,,,,,true,1,,355,,response,,,,,,,,,1,,1,click #choice-1,,,,,S,O,I,,27438,27407,27052,27053,27068,27468,,,
Trial,flow.Sequence,0_3_2,2021-04-12T19:26:17.325Z,,,,,,,,,,,,,,,,,,,,,,,,,,,,,,4588,,completion,,,,,,,,,1,,,,,,,,S,O,I,,27438,27407,22803,22792,22819,27468,,,
Sounds,html.Screen,0_3_3_0,2021-04-12T19:26:21.589Z,,,,,,,,,,,,,,,,,,,,,,,,,,,,,,4251,,timeout,,,,,,,,,3,,,,,,,,I,O,S,,31702,31702,27452,27439,27468,31719,,,
Judgement,html.Screen,0_3_3_1,2021-04-12T19:26:21.982Z,,,,,,,,,,,,,,,,,,,,,,,,,,,true,3,,362.99999999999636,,response,,,,,,,,,3,,3,click #choice-3,,,,,I,O,S,,32096.000000000004,32064.999999999996,31702,31702,31719,32119,,,
Trial,flow.Sequence,0_3_3,2021-04-12T19:26:21.983Z,,,,,,,,,,,,,,,,,,,,,,,,,,,,,,4596.999999999996,,completion,,,,,,,,,3,,,,,,,,I,O,S,,32096.000000000004,32064.999999999996,27452,27439,27468,32119,,,
Sounds,html.Screen,0_3_4_0,2021-04-12T19:26:26.239Z,,,,,,,,,,,,,,,,,,,,,,,,,,,,,,4251,,timeout,,,,,,,,,1,,,,,,,,S,I,O,,36353,36352,32102,32096.000000000004,32119,36370,,,
Judgement,html.Screen,0_3_4_1,2021-04-12T19:26:26.649Z,,,,,,,,,,,,,,,,,,,,,,,,,,,true,1,,378.0000000000073,,response,,,,,,,,,1,,1,click #choice-1,,,,,S,I,O,,36762,36730.00000000001,36352,36353,36370,36785,,,
Trial,flow.Sequence,0_3_4,2021-04-12T19:26:26.649Z,,,,,,,,,,,,,,,,,,,,,,,,,,,,,,4611.000000000007,,completion,,,,,,,,,1,,,,,,,,S,I,O,,36762,36730.00000000001,32102,32096.000000000004,32119,36785,,,
Sounds,html.Screen,0_3_5_0,2021-04-12T19:26:30.907Z,,,,,,,,,,,,,,,,,,,,,,,,,,,,,,4252,,timeout,,,,,,,,,3,,,,,,,,O,I,S,,41020,41020,36770,36762,36785,41037,,,
Judgement,html.Screen,0_3_5_1,2021-04-12T19:26:31.301Z,,,,,,,,,,,,,,,,,,,,,,,,,,,true,3,,363,,response,,,,,,,,,3,,3,click #choice-3,,,,,O,I,S,,41414,41383,41020,41020,41037,41436,,,
Trial,flow.Sequence,0_3_5,2021-04-12T19:26:31.302Z,,,,,,,,,,,,,,,,,,,,,,,,,,,,,,4598,,completion,,,,,,,,,3,,,,,,,,O,I,S,,41415,41383,36770,36762,36785,41436,,,
Task,flow.Loop,0_3,2021-04-12T19:26:31.304Z,,,,,,,,,,,,,,,,,,,,,,,,,,,,,,28081,,completion,,,1,,,,,,,,,,,,,,,,,,41417,41383,13285,13281,13302,41436,,,
Trap,html.Screen,0_4,2021-04-12T19:26:31.305Z,,,,,,,,,,,,,,,,,,,,,,,,,,,,,,NaN,,skipped,,,,,,,,,,,,,,,,,,,,,41418,41383,,41418,,41436,,,
Thanks,html.Screen,0_5,2021-04-12T19:26:35.573Z,,,,,,,,,,,,,,,,,,,,,,,,,,,,,,4234,,response,,,,,,,,,,,continue,click button,,,,,,,,,45686,45655,41421,41418,41436,49103,,,
Headphone screening,flow.Sequence,0,2021-04-12T19:26:35.574Z,,,,,,,,,,,,,,,,,,,,,,,,,,,,,,42204,,completion,,,,,,,,,,,,,,,,,,,,,45687,45655,3439,3410,3451,49103,,,
Instructions,html.Page,1_0,2021-04-12T19:26:53.564Z,,,,,,,,,,,,,,,,,,,,,,,,,,,,,,14573,,form submission,,,,,,,,,,,,,,,,,,,,,63676,63676,49088,49076,49103,63705,,,
Holding screen,html.Screen,1_1_0_0,2021-04-12T19:27:03.578Z,,,,,,,,,,,,,,,,,,,,,,,,,,,,,,10001,,timeout,,,,,,,,,,,,,,,,,,,,,73690,73690,63688,63676,63705,73706,,,
screen,html.Screen,1_1_0_1_0,2021-04-12T19:27:04.778Z,,,,,,,,,,,,,,,,53,,,,,,,,,,,,,,1165,,response,,,,99,,,,,,,Space,keypress(Space),,,,,,,,When -- ----- -- ------ - ------- --- ----------<br>------------- ------ ------ ---- ---- ------- ----- -- ----<br>-------- ------- -- ---------- --- - --- ----- ----- ----<br>---- --- --- ----- --- ---- ---- ------- ----- ---- -------<br>--- --- -- ----- -- --- ---- -- --- ---- -- ------ ------<br>--- ----- -- ----,74890,74855,73690,73690,73706,74923,,0,When
screen,html.Screen,1_1_0_1_1,2021-04-12T19:27:05.474Z,,,,,,,,,,,,,,,,53,,,,,,,,,,,,,,640,,response,,,,99,,,,,,,Space,keypress(Space),,,,,,,,---- it ----- -- ------ - ------- --- ----------<br>------------- ------ ------ ---- ---- ------- ----- -- ----<br>-------- ------- -- ---------- --- - --- ----- ----- ----<br>---- --- --- ----- --- ---- ---- ------- ----- ---- -------<br>--- --- -- ----- -- --- ---- -- --- ---- -- ------ ------<br>--- ----- -- ----,75586,75546,74906,74890,74923,75623,,1,it
screen,html.Screen,1_1_0_1_2,2021-04-12T19:27:06.098Z,,,,,,,,,,,,,,,,53,,,,,,,,,,,,,,569,,response,,,,99,,,,,,,Space,keypress(Space),,,,,,,,---- -- comes -- ------ - ------- --- ----------<br>------------- ------ ------ ---- ---- ------- ----- -- ----<br>-------- ------- -- ---------- --- - --- ----- ----- ----<br>---- --- --- ----- --- ---- ---- ------- ----- ---- -------<br>--- --- -- ----- -- --- ---- -- --- ---- -- ------ ------<br>--- ----- -- ----,76210.00000000001,76175,75606,75586,75623,76239,,2,comes
screen,html.Screen,1_1_0_1_3,2021-04-12T19:27:06.570Z,,,,,,,,,,,,,,,,53,,,,,,,,,,,,,,424,,response,,,,99,,,,,,,Space,keypress(Space),,,,,,,,---- -- ----- to ------ - ------- --- ----------<br>------------- ------ ------ ---- ---- ------- ----- -- ----<br>-------- ------- -- ---------- --- - --- ----- ----- ----<br>---- --- --- ----- --- ---- ---- ------- ----- ---- -------<br>--- --- -- ----- -- --- ---- -- --- ---- -- ------ ------<br>--- ----- -- ----,76682,76647,76223,76210.00000000001,76239,76723,,3,to
screen,html.Screen,1_1_0_1_4,2021-04-12T19:27:07.217Z,,,,,,,,,,,,,,,,53,,,,,,,,,,,,,,588,,response,,,,99,,,,,,,Space,keypress(Space),,,,,,,,---- -- ----- -- having - ------- --- ----------<br>------------- ------ ------ ---- ---- ------- ----- -- ----<br>-------- ------- -- ---------- --- - --- ----- ----- ----<br>---- --- --- ----- --- ---- ---- ------- ----- ---- -------<br>--- --- -- ----- -- --- ---- -- --- ---- -- ------ ------<br>--- ----- -- ----,77328,77294,76706,76682,76723,77356,,4,having
screen,html.Screen,1_1_0_1_5,2021-04-12T19:27:07.668Z,,,,,,,,,,,,,,,,53,,,,,,,,,,,,,,407,,response,,,,99,,,,,,,Space,keypress(Space),,,,,,,,---- -- ----- -- ------ a ------- --- ----------<br>------------- ------ ------ ---- ---- ------- ----- -- ----<br>-------- ------- -- ---------- --- - --- ----- ----- ----<br>---- --- --- ----- --- ---- ---- ------- ----- ---- -------<br>--- --- -- ----- -- --- ---- -- --- ---- -- ------ ------<br>--- ----- -- ----,77780,77746,77339,77329.00000000001,77356,77823,,5,a
screen,html.Screen,1_1_0_1_6,2021-04-12T19:27:08.297Z,,,,,,,,,,,,,,,,53,,,,,,,,,,,,,,568,,response,,,,99,,,,,,,Space,keypress(Space),,,,,,,,---- -- ----- -- ------ - lasting --- ----------<br>------------- ------ ------ ---- ---- ------- ----- -- ----<br>-------- ------- -- ---------- --- - --- ----- ----- ----<br>---- --- --- ----- --- ---- ---- ------- ----- ---- -------<br>--- --- -- ----- -- --- ---- -- --- ---- -- ------ ------<br>--- ----- -- ----,78409,78374,77806,77780,77823,78439,,6,lasting
screen,html.Screen,1_1_0_1_7,2021-04-12T19:27:08.896Z,,,,,,,,,,,,,,,,53,,,,,,,,,,,,,,550,,response,,,,99,,,,,,,Space,keypress(Space),,,,,,,,---- -- ----- -- ------ - ------- and ----------<br>------------- ------ ------ ---- ---- ------- ----- -- ----<br>-------- ------- -- ---------- --- - --- ----- ----- ----<br>---- --- --- ----- --- ---- ---- ------- ----- ---- -------<br>--- --- -- ----- -- --- ---- -- --- ---- -- ------ ------<br>--- ----- -- ----,79007,78973,78423,78409,78439,79039,,7,and
screen,html.Screen,1_1_0_1_8,2021-04-12T19:27:09.509Z,,,,,,,,,,,,,,,,53,,,,,,,,,,,,,,565,,response,,,,99,,,,,,,Space,keypress(Space),,,,,,,,---- -- ----- -- ------ - ------- --- fulfilling<br>------------- ------ ------ ---- ---- ------- ----- -- ----<br>-------- ------- -- ---------- --- - --- ----- ----- ----<br>---- --- --- ----- --- ---- ---- ------- ----- ---- -------<br>--- --- -- ----- -- --- ---- -- --- ---- -- ------ ------<br>--- ----- -- ----,79621,79587,79022,79008,79039,79656,,8,fulfilling
screen,html.Screen,1_1_0_1_9,2021-04-12T19:27:10.141Z,,,,,,,,,,,,,,,,53,,,,,,,,,,,,,,579.0000000000146,,response,,,,99,,,,,,,Space,keypress(Space),,,,,,,,"---- -- ----- -- ------ - ------- --- ----------<br>relationship, ------ ------ ---- ---- ------- ----- -- ----<br>-------- ------- -- ---------- --- - --- ----- ----- ----<br>---- --- --- ----- --- ---- ---- ------- ----- ---- -------<br>--- --- -- ----- -- --- ---- -- --- ---- -- ------ ------<br>--- ----- -- ----",80253,80219.00000000001,79640,79621,79656,80290,,9,"relationship,"
screen,html.Screen,1_1_0_1_10,2021-04-12T19:27:10.736Z,,,,,,,,,,,,,,,,53,,,,,,,,,,,,,,541,,response,,,,99,,,,,,,Space,keypress(Space),,,,,,,,---- -- ----- -- ------ - ------- --- ----------<br>------------- common ------ ---- ---- ------- ----- -- ----<br>-------- ------- -- ---------- --- - --- ----- ----- ----<br>---- --- --- ----- --- ---- ---- ------- ----- ---- -------<br>--- --- -- ----- -- --- ---- -- --- ---- -- ------ ------<br>--- ----- -- ----,80848,80814,80273,80253,80290,80890,,10,common
screen,html.Screen,1_1_0_1_11,2021-04-12T19:27:11.180Z,,,,,,,,,,,,,,,,53,,,,,,,,,,,,,,384,,response,,,,99,,,,,,,Space,keypress(Space),,,,,,,,---- -- ----- -- ------ - ------- --- ----------<br>------------- ------ wisdom ---- ---- ------- ----- -- ----<br>-------- ------- -- ---------- --- - --- ----- ----- ----<br>---- --- --- ----- --- ---- ---- ------- ----- ---- -------<br>--- --- -- ----- -- --- ---- -- --- ---- -- ------ ------<br>--- ----- -- ----,81292,81257,80873,80848,80890,81323,,11,wisdom
screen,html.Screen,1_1_0_1_12,2021-04-12T19:27:11.583Z,,,,,,,,,,,,,,,,53,,,,,,,,,,,,,,355,,response,,,,99,,,,,,,Space,keypress(Space),,,,,,,,---- -- ----- -- ------ - ------- --- ----------<br>------------- ------ ------ says ---- ------- ----- -- ----<br>-------- ------- -- ---------- --- - --- ----- ----- ----<br>---- --- --- ----- --- ---- ---- ------- ----- ---- -------<br>--- --- -- ----- -- --- ---- -- --- ---- -- ------ ------<br>--- ----- -- ----,81695.00000000001,81661,81306,81292,81323,81723,,12,says
screen,html.Screen,1_1_0_1_13,2021-04-12T19:27:12.031Z,,,,,,,,,,,,,,,,53,,,,,,,,,,,,,,401,,response,,,,99,,,,,,,Space,keypress(Space),,,,,,,,---- -- ----- -- ------ - ------- --- ----------<br>------------- ------ ------ ---- that ------- ----- -- ----<br>-------- ------- -- ---------- --- - --- ----- ----- ----<br>---- --- --- ----- --- ---- ---- ------- ----- ---- -------<br>--- --- -- ----- -- --- ---- -- --- ---- -- ------ ------<br>--- ----- -- ----,82142,82108,81707,81695.00000000001,81723,82173,,13,that
screen,html.Screen,1_1_0_1_14,2021-04-12T19:27:12.512Z,,,,,,,,,,,,,,,,53,,,,,,,,,,,,,,432,,response,,,,99,,,,,,,Space,keypress(Space),,,,,,,,---- -- ----- -- ------ - ------- --- ----------<br>------------- ------ ------ ---- ---- feeling ----- -- ----<br>-------- ------- -- ---------- --- - --- ----- ----- ----<br>---- --- --- ----- --- ---- ---- ------- ----- ---- -------<br>--- --- -- ----- -- --- ---- -- --- ---- -- ------ ------<br>--- ----- -- ----,82623,82589,82157,82142,82173,82656,,14,feeling
screen,html.Screen,1_1_0_1_15,2021-04-12T19:27:13.053Z,,,,,,,,,,,,,,,,53,,,,,,,,,,,,,,490,,response,,,,99,,,,,,,Space,keypress(Space),,,,,,,,---- -- ----- -- ------ - ------- --- ----------<br>------------- ------ ------ ---- ---- ------- close -- ----<br>-------- ------- -- ---------- --- - --- ----- ----- ----<br>---- --- --- ----- --- ---- ---- ------- ----- ---- -------<br>--- --- -- ----- -- --- ---- -- --- ---- -- ------ ------<br>--- ----- -- ----,83165,83130,82640,82623,82656,83207,,15,close
screen,html.Screen,1_1_0_1_16,2021-04-12T19:27:13.581Z,,,,,,,,,,,,,,,,53,,,,,,,,,,,,,,468,,response,,,,99,,,,,,,Space,keypress(Space),,,,,,,,---- -- ----- -- ------ - ------- --- ----------<br>------------- ------ ------ ---- ---- ------- ----- to ----<br>-------- ------- -- ---------- --- - --- ----- ----- ----<br>---- --- --- ----- --- ---- ---- ------- ----- ---- -------<br>--- --- -- ----- -- --- ---- -- --- ---- -- ------ ------<br>--- ----- -- ----,83693,83658,83190,83165,83207,83723,,16,to
screen,html.Screen,1_1_0_1_17,2021-04-12T19:27:14.097Z,,,,,,,,,,,,,,,,53,,,,,,,,,,,,,,467,,response,,,,99,,,,,,,Space,keypress(Space),,,,,,,,---- -- ----- -- ------ - ------- --- ----------<br>------------- ------ ------ ---- ---- ------- ----- -- your<br>-------- ------- -- ---------- --- - --- ----- ----- ----<br>---- --- --- ----- --- ---- ---- ------- ----- ---- -------<br>--- --- -- ----- -- --- ---- -- --- ---- -- ------ ------<br>--- ----- -- ----,84209,84174,83707,83693,83723,84240,,17,your
screen,html.Screen,1_1_0_1_18,2021-04-12T19:27:14.672Z,,,,,,,,,,,,,,,,53,,,,,,,,,,,,,,525,,response,,,,99,,,,,,,Space,keypress(Space),,,,,,,,---- -- ----- -- ------ - ------- --- ----------<br>------------- ------ ------ ---- ---- ------- ----- -- ----<br>romantic ------- -- ---------- --- - --- ----- ----- ----<br>---- --- --- ----- --- ---- ---- ------- ----- ---- -------<br>--- --- -- ----- -- --- ---- -- --- ---- -- ------ ------<br>--- ----- -- ----,84783,84748,84223,84209,84240,84824,,18,romantic
screen,html.Screen,1_1_0_1_19,2021-04-12T19:27:15.128Z,,,,,,,,,,,,,,,,53,,,,,,,,,,,,,,398,,response,,,,99,,,,,,,Space,keypress(Space),,,,,,,,---- -- ----- -- ------ - ------- --- ----------<br>------------- ------ ------ ---- ---- ------- ----- -- ----<br>-------- partner -- ---------- --- - --- ----- ----- ----<br>---- --- --- ----- --- ---- ---- ------- ----- ---- -------<br>--- --- -- ----- -- --- ---- -- --- ---- -- ------ ------<br>--- ----- -- ----,85240,85205,84807,84783,84824,85274,,19,partner
screen,html.Screen,1_1_0_1_20,2021-04-12T19:27:15.606Z,,,,,,,,,,,,,,,,53,,,,,,,,,,,,,,426,,response,,,,99,,,,,,,Space,keypress(Space),,,,,,,,---- -- ----- -- ------ - ------- --- ----------<br>------------- ------ ------ ---- ---- ------- ----- -- ----<br>-------- ------- is ---------- --- - --- ----- ----- ----<br>---- --- --- ----- --- ---- ---- ------- ----- ---- -------<br>--- --- -- ----- -- --- ---- -- --- ---- -- ------ ------<br>--- ----- -- ----,85718,85683,85257,85240,85274,85756,,20,is
screen,html.Screen,1_1_0_1_21,2021-04-12T19:27:16.308Z,,,,,,,,,,,,,,,,53,,,,,,,,,,,,,,645,,response,,,,99,,,,,,,Space,keypress(Space),,,,,,,,---- -- ----- -- ------ - ------- --- ----------<br>------------- ------ ------ ---- ---- ------- ----- -- ----<br>-------- ------- -- paramount. --- - --- ----- ----- ----<br>---- --- --- ----- --- ---- ---- ------- ----- ---- -------<br>--- --- -- ----- -- --- ---- -- --- ---- -- ------ ------<br>--- ----- -- ----,86420,86385,85740,85718,85756,86456,,21,paramount.
screen,html.Screen,1_1_0_1_22,2021-04-12T19:27:16.891Z,,,,,,,,,,,,,,,,53,,,,,,,,,,,,,,528,,response,,,,99,,,,,,,Space,keypress(Space),,,,,,,,---- -- ----- -- ------ - ------- --- ----------<br>------------- ------ ------ ---- ---- ------- ----- -- ----<br>-------- ------- -- ---------- But - --- ----- ----- ----<br>---- --- --- ----- --- ---- ---- ------- ----- ---- -------<br>--- --- -- ----- -- --- ---- -- --- ---- -- ------ ------<br>--- ----- -- ----,87003,86968,86440,86420,86456,87040,,22,But
screen,html.Screen,1_1_0_1_23,2021-04-12T19:27:17.335Z,,,,,,,,,,,,,,,,53,,,,,,,,,,,,,,388,,response,,,,99,,,,,,,Space,keypress(Space),,,,,,,,---- -- ----- -- ------ - ------- --- ----------<br>------------- ------ ------ ---- ---- ------- ----- -- ----<br>-------- ------- -- ---------- --- a --- ----- ----- ----<br>---- --- --- ----- --- ---- ---- ------- ----- ---- -------<br>--- --- -- ----- -- --- ---- -- --- ---- -- ------ ------<br>--- ----- -- ----,87447,87412,87024,87003,87040,87490,,23,a
screen,html.Screen,1_1_0_1_24,2021-04-12T19:27:17.790Z,,,,,,,,,,,,,,,,53,,,,,,,,,,,,,,393,,response,,,,99,,,,,,,Space,keypress(Space),,,,,,,,---- -- ----- -- ------ - ------- --- ----------<br>------------- ------ ------ ---- ---- ------- ----- -- ----<br>-------- ------- -- ---------- --- - new ----- ----- ----<br>---- --- --- ----- --- ---- ---- ------- ----- ---- -------<br>--- --- -- ----- -- --- ---- -- --- ---- -- ------ ------<br>--- ----- -- ----,87901,87867,87474,87447,87490,87940,,24,new
screen,html.Screen,1_1_0_1_25,2021-04-12T19:27:18.338Z,,,,,,,,,,,,,,,,53,,,,,,,,,,,,,,490,,response,,,,99,,,,,,,Space,keypress(Space),,,,,,,,---- -- ----- -- ------ - ------- --- ----------<br>------------- ------ ------ ---- ---- ------- ----- -- ----<br>-------- ------- -- ---------- --- - --- study ----- ----<br>---- --- --- ----- --- ---- ---- ------- ----- ---- -------<br>--- --- -- ----- -- --- ---- -- --- ---- -- ------ ------<br>--- ----- -- ----,88449,88414,87924,87902,87940,88490,,25,study
screen,html.Screen,1_1_0_1_26,2021-04-12T19:27:18.847Z,,,,,,,,,,,,,,,,53,,,,,,,,,,,,,,450,,response,,,,99,,,,,,,Space,keypress(Space),,,,,,,,---- -- ----- -- ------ - ------- --- ----------<br>------------- ------ ------ ---- ---- ------- ----- -- ----<br>-------- ------- -- ---------- --- - --- ----- finds ----<br>---- --- --- ----- --- ---- ---- ------- ----- ---- -------<br>--- --- -- ----- -- --- ---- -- --- ---- -- ------ ------<br>--- ----- -- ----,88958,88923,88473,88449,88490,88990,,26,finds
screen,html.Screen,1_1_0_1_27,2021-04-12T19:27:19.500Z,,,,,,,,,,,,,,,,53,,,,,,,,,,,,,,603,,response,,,,99,,,,,,,Space,keypress(Space),,,,,,,,---- -- ----- -- ------ - ------- --- ----------<br>------------- ------ ------ ---- ---- ------- ----- -- ----<br>-------- ------- -- ---------- --- - --- ----- ----- that<br>---- --- --- ----- --- ---- ---- ------- ----- ---- -------<br>--- --- -- ----- -- --- ---- -- --- ---- -- ------ ------<br>--- ----- -- ----,89612,89577,88974,88958,88990,89639,,27,that
screen,html.Screen,1_1_0_1_28,2021-04-12T19:27:19.993Z,,,,,,,,,,,,,,,,53,,,,,,,,,,,,,,446.00000000001455,,response,,,,99,,,,,,,Space,keypress(Space),,,,,,,,---- -- ----- -- ------ - ------- --- ----------<br>------------- ------ ------ ---- ---- ------- ----- -- ----<br>-------- ------- -- ---------- --- - --- ----- ----- ----<br>it's --- --- ----- --- ---- ---- ------- ----- ---- -------<br>--- --- -- ----- -- --- ---- -- --- ---- -- ------ ------<br>--- ----- -- ----,90104,90070.00000000001,89624,89612,89639,90140,,28,it's
screen,html.Screen,1_1_0_1_29,2021-04-12T19:27:20.422Z,,,,,,,,,,,,,,,,53,,,,,,,,,,,,,,375,,response,,,,99,,,,,,,Space,keypress(Space),,,,,,,,---- -- ----- -- ------ - ------- --- ----------<br>------------- ------ ------ ---- ---- ------- ----- -- ----<br>-------- ------- -- ---------- --- - --- ----- ----- ----<br>---- not --- ----- --- ---- ---- ------- ----- ---- -------<br>--- --- -- ----- -- --- ---- -- --- ---- -- ------ ------<br>--- ----- -- ----,90534,90499,90124,90104,90140,90574,,29,not
screen,html.Screen,1_1_0_1_30,2021-04-12T19:27:20.776Z,,,,,,,,,,,,,,,,53,,,,,,,,,,,,,,296.00000000001455,,response,,,,99,,,,,,,Space,keypress(Space),,,,,,,,---- -- ----- -- ------ - ------- --- ----------<br>------------- ------ ------ ---- ---- ------- ----- -- ----<br>-------- ------- -- ---------- --- - --- ----- ----- ----<br>---- --- how ----- --- ---- ---- ------- ----- ---- -------<br>--- --- -- ----- -- --- ---- -- --- ---- -- ------ ------<br>--- ----- -- ----,90888,90853.00000000001,90557,90534,90574,90907,,30,how
screen,html.Screen,1_1_0_1_31,2021-04-12T19:27:21.328Z,,,,,,,,,,,,,,,,53,,,,,,,,,,,,,,515,,response,,,,99,,,,,,,Space,keypress(Space),,,,,,,,---- -- ----- -- ------ - ------- --- ----------<br>------------- ------ ------ ---- ---- ------- ----- -- ----<br>-------- ------- -- ---------- --- - --- ----- ----- ----<br>---- --- --- close --- ---- ---- ------- ----- ---- -------<br>--- --- -- ----- -- --- ---- -- --- ---- -- ------ ------<br>--- ----- -- ----,91439,91405,90890,90888,90907,91474,,31,close
screen,html.Screen,1_1_0_1_32,2021-04-12T19:27:21.759Z,,,,,,,,,,,,,,,,53,,,,,,,,,,,,,,380,,response,,,,99,,,,,,,Space,keypress(Space),,,,,,,,---- -- ----- -- ------ - ------- --- ----------<br>------------- ------ ------ ---- ---- ------- ----- -- ----<br>-------- ------- -- ---------- --- - --- ----- ----- ----<br>---- --- --- ----- you ---- ---- ------- ----- ---- -------<br>--- --- -- ----- -- --- ---- -- --- ---- -- ------ ------<br>--- ----- -- ----,91871,91836,91456,91439,91474,91906,,32,you
screen,html.Screen,1_1_0_1_33,2021-04-12T19:27:22.266Z,,,,,,,,,,,,,,,,53,,,,,,,,,,,,,,451,,response,,,,99,,,,,,,Space,keypress(Space),,,,,,,,---- -- ----- -- ------ - ------- --- ----------<br>------------- ------ ------ ---- ---- ------- ----- -- ----<br>-------- ------- -- ---------- --- - --- ----- ----- ----<br>---- --- --- ----- --- feel ---- ------- ----- ---- -------<br>--- --- -- ----- -- --- ---- -- --- ---- -- ------ ------<br>--- ----- -- ----,92377,92342,91891,91871,91906,92407,,33,feel
screen,html.Screen,1_1_0_1_34,2021-04-12T19:27:22.695Z,,,,,,,,,,,,,,,,53,,,,,,,,,,,,,,381,,response,,,,99,,,,,,,Space,keypress(Space),,,,,,,,---- -- ----- -- ------ - ------- --- ----------<br>------------- ------ ------ ---- ---- ------- ----- -- ----<br>-------- ------- -- ---------- --- - --- ----- ----- ----<br>---- --- --- ----- --- ---- that ------- ----- ---- -------<br>--- --- -- ----- -- --- ---- -- --- ---- -- ------ ------<br>--- ----- -- ----,92806,92772,92391,92377,92407,92841,,34,that
screen,html.Screen,1_1_0_1_35,2021-04-12T19:27:23.083Z,,,,,,,,,,,,,,,,53,,,,,,,,,,,,,,337,,response,,,,99,,,,,,,Space,keypress(Space),,,,,,,,---- -- ----- -- ------ - ------- --- ----------<br>------------- ------ ------ ---- ---- ------- ----- -- ----<br>-------- ------- -- ---------- --- - --- ----- ----- ----<br>---- --- --- ----- --- ---- ---- matters ----- ---- -------<br>--- --- -- ----- -- --- ---- -- --- ---- -- ------ ------<br>--- ----- -- ----,93195.00000000001,93160,92823,92806,92841,93224,,35,matters
screen,html.Screen,1_1_0_1_36,2021-04-12T19:27:23.740Z,,,,,,,,,,,,,,,,53,,,,,,,,,,,,,,610,,response,,,,99,,,,,,,Space,keypress(Space),,,,,,,,"---- -- ----- -- ------ - ------- --- ----------<br>------------- ------ ------ ---- ---- ------- ----- -- ----<br>-------- ------- -- ---------- --- - --- ----- ----- ----<br>---- --- --- ----- --- ---- ---- ------- most, ---- -------<br>--- --- -- ----- -- --- ---- -- --- ---- -- ------ ------<br>--- ----- -- ----",93851,93817,93207,93195.00000000001,93224,93891,,36,"most,"
screen,html.Screen,1_1_0_1_37,2021-04-12T19:27:24.278Z,,,,,,,,,,,,,,,,53,,,,,,,,,,,,,,480,,response,,,,99,,,,,,,Space,keypress(Space),,,,,,,,---- -- ----- -- ------ - ------- --- ----------<br>------------- ------ ------ ---- ---- ------- ----- -- ----<br>-------- ------- -- ---------- --- - --- ----- ----- ----<br>---- --- --- ----- --- ---- ---- ------- ----- it's -------<br>--- --- -- ----- -- --- ---- -- --- ---- -- ------ ------<br>--- ----- -- ----,94389,94354,93874,93851,93891,94424,,37,it's
screen,html.Screen,1_1_0_1_38,2021-04-12T19:27:24.769Z,,,,,,,,,,,,,,,,53,,,,,,,,,,,,,,438,,response,,,,99,,,,,,,Space,keypress(Space),,,,,,,,---- -- ----- -- ------ - ------- --- ----------<br>------------- ------ ------ ---- ---- ------- ----- -- ----<br>-------- ------- -- ---------- --- - --- ----- ----- ----<br>---- --- --- ----- --- ---- ---- ------- ----- ---- whether<br>--- --- -- ----- -- --- ---- -- --- ---- -- ------ ------<br>--- ----- -- ----,94880,94845,94407,94390,94424,94907,,38,whether
screen,html.Screen,1_1_0_1_39,2021-04-12T19:27:25.148Z,,,,,,,,,,,,,,,,53,,,,,,,,,,,,,,334,,response,,,,99,,,,,,,Space,keypress(Space),,,,,,,,---- -- ----- -- ------ - ------- --- ----------<br>------------- ------ ------ ---- ---- ------- ----- -- ----<br>-------- ------- -- ---------- --- - --- ----- ----- ----<br>---- --- --- ----- --- ---- ---- ------- ----- ---- -------<br>you --- -- ----- -- --- ---- -- --- ---- -- ------ ------<br>--- ----- -- ----,95259,95224,94890,94880,94907,95290,,39,you
screen,html.Screen,1_1_0_1_40,2021-04-12T19:27:25.437Z,,,,,,,,,,,,,,,,53,,,,,,,,,,,,,,240,,response,,,,99,,,,,,,Space,keypress(Space),,,,,,,,---- -- ----- -- ------ - ------- --- ----------<br>------------- ------ ------ ---- ---- ------- ----- -- ----<br>-------- ------- -- ---------- --- - --- ----- ----- ----<br>---- --- --- ----- --- ---- ---- ------- ----- ---- -------<br>--- are -- ----- -- --- ---- -- --- ---- -- ------ ------<br>--- ----- -- ----,95549,95513,95273,95259,95290,95574,,40,are
screen,html.Screen,1_1_0_1_41,2021-04-12T19:27:25.727Z,,,,,,,,,,,,,,,,53,,,,,,,,,,,,,,246,,response,,,,99,,,,,,,Space,keypress(Space),,,,,,,,---- -- ----- -- ------ - ------- --- ----------<br>------------- ------ ------ ---- ---- ------- ----- -- ----<br>-------- ------- -- ---------- --- - --- ----- ----- ----<br>---- --- --- ----- --- ---- ---- ------- ----- ---- -------<br>--- --- as ----- -- --- ---- -- --- ---- -- ------ ------<br>--- ----- -- ----,95839,95803,95557,95549,95574,95856,,41,as
screen,html.Screen,1_1_0_1_42,2021-04-12T19:27:26.070Z,,,,,,,,,,,,,,,,53,,,,,,,,,,,,,,306,,response,,,,99,,,,,,,Space,keypress(Space),,,,,,,,---- -- ----- -- ------ - ------- --- ----------<br>------------- ------ ------ ---- ---- ------- ----- -- ----<br>-------- ------- -- ---------- --- - --- ----- ----- ----<br>---- --- --- ----- --- ---- ---- ------- ----- ---- -------<br>--- --- -- close -- --- ---- -- --- ---- -- ------ ------<br>--- ----- -- ----,96182,96146,95840,95839,95856,96208,,42,close
screen,html.Screen,1_1_0_1_43,2021-04-12T19:27:26.509Z,,,,,,,,,,,,,,,,53,,,,,,,,,,,,,,394,,response,,,,99,,,,,,,Space,keypress(Space),,,,,,,,---- -- ----- -- ------ - ------- --- ----------<br>------------- ------ ------ ---- ---- ------- ----- -- ----<br>-------- ------- -- ---------- --- - --- ----- ----- ----<br>---- --- --- ----- --- ---- ---- ------- ----- ---- -------<br>--- --- -- ----- as --- ---- -- --- ---- -- ------ ------<br>--- ----- -- ----,96620,96584,96190,96182,96208,96657,,43,as
screen,html.Screen,1_1_0_1_44,2021-04-12T19:27:26.900Z,,,,,,,,,,,,,,,,53,,,,,,,,,,,,,,336,,response,,,,99,,,,,,,Space,keypress(Space),,,,,,,,---- -- ----- -- ------ - ------- --- ----------<br>------------- ------ ------ ---- ---- ------- ----- -- ----<br>-------- ------- -- ---------- --- - --- ----- ----- ----<br>---- --- --- ----- --- ---- ---- ------- ----- ---- -------<br>--- --- -- ----- -- you ---- -- --- ---- -- ------ ------<br>--- ----- -- ----,97011,96976,96640,96620,96657,97041,,44,you
screen,html.Screen,1_1_0_1_45,2021-04-12T19:27:27.251Z,,,,,,,,,,,,,,,,53,,,,,,,,,,,,,,304,,response,,,,99,,,,,,,Space,keypress(Space),,,,,,,,---- -- ----- -- ------ - ------- --- ----------<br>------------- ------ ------ ---- ---- ------- ----- -- ----<br>-------- ------- -- ---------- --- - --- ----- ----- ----<br>---- --- --- ----- --- ---- ---- ------- ----- ---- -------<br>--- --- -- ----- -- --- want -- --- ---- -- ------ ------<br>--- ----- -- ----,97362.00000000001,97327,97023,97011,97041,97391,,45,want
screen,html.Screen,1_1_0_1_46,2021-04-12T19:27:27.603Z,,,,,,,,,,,,,,,,53,,,,,,,,,,,,,,306,,response,,,,99,,,,,,,Space,keypress(Space),,,,,,,,---- -- ----- -- ------ - ------- --- ----------<br>------------- ------ ------ ---- ---- ------- ----- -- ----<br>-------- ------- -- ---------- --- - --- ----- ----- ----<br>---- --- --- ----- --- ---- ---- ------- ----- ---- -------<br>--- --- -- ----- -- --- ---- to --- ---- -- ------ ------<br>--- ----- -- ----,97715,97680,97374,97362.00000000001,97391,97740,,46,to
screen,html.Screen,1_1_0_1_47,2021-04-12T19:27:27.980Z,,,,,,,,,,,,,,,,53,,,,,,,,,,,,,,332,,response,,,,99,,,,,,,Space,keypress(Space),,,,,,,,"---- -- ----- -- ------ - ------- --- ----------<br>------------- ------ ------ ---- ---- ------- ----- -- ----<br>-------- ------- -- ---------- --- - --- ----- ----- ----<br>---- --- --- ----- --- ---- ---- ------- ----- ---- -------<br>--- --- -- ----- -- --- ---- -- be, ---- -- ------ ------<br>--- ----- -- ----",98091.00000000001,98056,97724,97715,97740,98123,,47,"be,"
screen,html.Screen,1_1_0_1_48,2021-04-12T19:27:28.394Z,,,,,,,,,,,,,,,,53,,,,,,,,,,,,,,363,,response,,,,99,,,,,,,Space,keypress(Space),,,,,,,,---- -- ----- -- ------ - ------- --- ----------<br>------------- ------ ------ ---- ---- ------- ----- -- ----<br>-------- ------- -- ---------- --- - --- ----- ----- ----<br>---- --- --- ----- --- ---- ---- ------- ----- ---- -------<br>--- --- -- ----- -- --- ---- -- --- even -- ------ ------<br>--- ----- -- ----,98505,98470,98107,98091.00000000001,98123,98541,,48,even
screen,html.Screen,1_1_0_1_49,2021-04-12T19:27:28.731Z,,,,,,,,,,,,,,,,53,,,,,,,,,,,,,,283,,response,,,,99,,,,,,,Space,keypress(Space),,,,,,,,---- -- ----- -- ------ - ------- --- ----------<br>------------- ------ ------ ---- ---- ------- ----- -- ----<br>-------- ------- -- ---------- --- - --- ----- ----- ----<br>---- --- --- ----- --- ---- ---- ------- ----- ---- -------<br>--- --- -- ----- -- --- ---- -- --- ---- if ------ ------<br>--- ----- -- ----,98842,98807,98524,98505,98541,98874,,49,if
screen,html.Screen,1_1_0_1_50,2021-04-12T19:27:29.070Z,,,,,,,,,,,,,,,,53,,,,,,,,,,,,,,289,,response,,,,99,,,,,,,Space,keypress(Space),,,,,,,,---- -- ----- -- ------ - ------- --- ----------<br>------------- ------ ------ ---- ---- ------- ----- -- ----<br>-------- ------- -- ---------- --- - --- ----- ----- ----<br>---- --- --- ----- --- ---- ---- ------- ----- ---- -------<br>--- --- -- ----- -- --- ---- -- --- ---- -- that's ------<br>--- ----- -- ----,99182,99147,98858,98843,98874,99206,,50,that's
screen,html.Screen,1_1_0_1_51,2021-04-12T19:27:29.562Z,,,,,,,,,,,,,,,,53,,,,,,,,,,,,,,449,,response,,,,99,,,,,,,Space,keypress(Space),,,,,,,,---- -- ----- -- ------ - ------- --- ----------<br>------------- ------ ------ ---- ---- ------- ----- -- ----<br>-------- ------- -- ---------- --- - --- ----- ----- ----<br>---- --- --- ----- --- ---- ---- ------- ----- ---- -------<br>--- --- -- ----- -- --- ---- -- --- ---- -- ------ really<br>--- ----- -- ----,99674,99639,99190,99182,99206,99708,,51,really
screen,html.Screen,1_1_0_1_52,2021-04-12T19:27:29.966Z,,,,,,,,,,,,,,,,53,,,,,,,,,,,,,,351,,response,,,,99,,,,,,,Space,keypress(Space),,,,,,,,---- -- ----- -- ------ - ------- --- ----------<br>------------- ------ ------ ---- ---- ------- ----- -- ----<br>-------- ------- -- ---------- --- - --- ----- ----- ----<br>---- --- --- ----- --- ---- ---- ------- ----- ---- -------<br>--- --- -- ----- -- --- ---- -- --- ---- -- ------ ------<br>not ----- -- ----,100077,100042,99691,99674,99708,100108,,52,not
screen,html.Screen,1_1_0_1_53,2021-04-12T19:27:30.343Z,,,,,,,,,,,,,,,,53,,,,,,,,,,,,,,328,,response,,,,99,,,,,,,Space,keypress(Space),,,,,,,,---- -- ----- -- ------ - ------- --- ----------<br>------------- ------ ------ ---- ---- ------- ----- -- ----<br>-------- ------- -- ---------- --- - --- ----- ----- ----<br>---- --- --- ----- --- ---- ---- ------- ----- ---- -------<br>--- --- -- ----- -- --- ---- -- --- ---- -- ------ ------<br>--- close -- ----,100454.00000000001,100419,100091,100077,100108,100474,,53,close
screen,html.Screen,1_1_0_1_54,2021-04-12T19:27:30.694Z,,,,,,,,,,,,,,,,53,,,,,,,,,,,,,,313,,response,,,,99,,,,,,,Space,keypress(Space),,,,,,,,---- -- ----- -- ------ - ------- --- ----------<br>------------- ------ ------ ---- ---- ------- ----- -- ----<br>-------- ------- -- ---------- --- - --- ----- ----- ----<br>---- --- --- ----- --- ---- ---- ------- ----- ---- -------<br>--- --- -- ----- -- --- ---- -- --- ---- -- ------ ------<br>--- ----- at ----,100805,100770,100457,100454.00000000001,100474,100825,,54,at
screen,html.Screen,1_1_0_1_55,2021-04-12T19:27:31.112Z,,,,,,,,,,,,,,,,53,,,,,,,,,,,,,,381,,response,,,,99,,,,,,,Space,keypress(Space),,,,,,,,---- -- ----- -- ------ - ------- --- ----------<br>------------- ------ ------ ---- ---- ------- ----- -- ----<br>-------- ------- -- ---------- --- - --- ----- ----- ----<br>---- --- --- ----- --- ---- ---- ------- ----- ---- -------<br>--- --- -- ----- -- --- ---- -- --- ---- -- ------ ------<br>--- ----- -- all.,101224,101189,100808,100805,100825,101258,,55,all.
Item 99,flow.Loop,1_1_0_1,2021-04-12T19:27:31.113Z,,,,,,,,,,,,,,,,,,,,,,,,,,,,,,27483,,completion,,,,,B,,,,,,,,,,,silence,,,,,101224,101189,73690,73690,73706,101258,,,
Question 1,html.Screen,1_1_0_2,2021-04-12T19:27:35.815Z,,,,,,,,,,,,,,,,,,,,,,,,,,,true,FALSE,,4651,,response,,,,99,B,,,,,,FALSE,click #choice-2,,,,silence,,,,,105926,105892,101241,101224,101258,105957,,,
Question 2,html.Screen,1_1_0_3,2021-04-12T19:27:41.932Z,,,,,,,,,,,,,,,,,,,,,,,,,,,true,TRUE,,6066,,response,,,,99,B,,,,,,TRUE,click #choice-1,,,,silence,,,,,112042,112008,105942,105926,105957,112084,,,
Item 99,flow.Sequence,1_1_0,2021-04-12T19:27:41.932Z,,,,,,,,,,,,,,,,,,,,,,,,,,,,,,48303,,completion,,,,,,,,,,,,,,,,,,,,,112043,112008,63688,63676,63705,112084,,,
Holding screen,html.Screen,1_1_1_0,2021-04-12T19:27:51.966Z,,,,,,,,,,,,,,,,,,,,,,,,,,,,,,10008,,timeout,,,,,,,,,,,,,,,,,,,,,122076.00000000001,122076,112058,112043,112084,122092,,,
screen,html.Screen,1_1_1_1_0,2021-04-12T19:27:52.726Z,,,,,,,,,,,,,,,,54,,,,,,,,,,,,,,724,,response,,,,100,,,,,,,Space,keypress(Space),,,,,,,,At --- ---- --- ------ ----- ------- ---- -- --- ------- --<br>------- ---------- ------ -- ----- -- ----- -- ---- ------<br>--- ----- --- --- ------ -------- ----- --- ------ ----- --<br>----- ----- ---------- --- --- ------ ------ ---- -- ------<br>------- --- ------ ----- --- ---- ------- -- ---- --- --<br>------- ------,122836,122800,122076,122077,122092,122876,,0,At
screen,html.Screen,1_1_1_1_1,2021-04-12T19:27:53.207Z,,,,,,,,,,,,,,,,54,,,,,,,,,,,,,,424,,response,,,,100,,,,,,,Space,keypress(Space),,,,,,,,-- the ---- --- ------ ----- ------- ---- -- --- ------- --<br>------- ---------- ------ -- ----- -- ----- -- ---- ------<br>--- ----- --- --- ------ -------- ----- --- ------ ----- --<br>----- ----- ---------- --- --- ------ ------ ---- -- ------<br>------- --- ------ ----- --- ---- ------- -- ---- --- --<br>------- ------,123317,123282,122858,122836,122876,123359,,1,the
screen,html.Screen,1_1_1_1_2,2021-04-12T19:27:53.761Z,,,,,,,,,,,,,,,,54,,,,,,,,,,,,,,492.00000000001455,,response,,,,100,,,,,,,Space,keypress(Space),,,,,,,,-- --- time --- ------ ----- ------- ---- -- --- ------- --<br>------- ---------- ------ -- ----- -- ----- -- ---- ------<br>--- ----- --- --- ------ -------- ----- --- ------ ----- --<br>----- ----- ---------- --- --- ------ ------ ---- -- ------<br>------- --- ------ ----- --- ---- ------- -- ---- --- --<br>------- ------,123871.00000000001,123835.00000000001,123343,123318,123359,123909,,2,time
screen,html.Screen,1_1_1_1_3,2021-04-12T19:27:54.256Z,,,,,,,,,,,,,,,,54,,,,,,,,,,,,,,438,,response,,,,100,,,,,,,Space,keypress(Space),,,,,,,,-- --- ---- the ------ ----- ------- ---- -- --- ------- --<br>------- ---------- ------ -- ----- -- ----- -- ---- ------<br>--- ----- --- --- ------ -------- ----- --- ------ ----- --<br>----- ----- ---------- --- --- ------ ------ ---- -- ------<br>------- --- ------ ----- --- ---- ------- -- ---- --- --<br>------- ------,124366,124330,123892,123871.00000000001,123909,124408,,3,the
screen,html.Screen,1_1_1_1_4,2021-04-12T19:27:54.761Z,,,,,,,,,,,,,,,,54,,,,,,,,,,,,,,442.00000000001455,,response,,,,100,,,,,,,Space,keypress(Space),,,,,,,,-- --- ---- --- French ----- ------- ---- -- --- ------- --<br>------- ---------- ------ -- ----- -- ----- -- ---- ------<br>--- ----- --- --- ------ -------- ----- --- ------ ----- --<br>----- ----- ---------- --- --- ------ ------ ---- -- ------<br>------- --- ------ ----- --- ---- ------- -- ---- --- --<br>------- ------,124871.00000000001,124835.00000000001,124393,124366,124408,124909,,4,French
screen,html.Screen,1_1_1_1_5,2021-04-12T19:27:55.213Z,,,,,,,,,,,,,,,,54,,,,,,,,,,,,,,395,,response,,,,100,,,,,,,Space,keypress(Space),,,,,,,,-- --- ---- --- ------ crown ------- ---- -- --- ------- --<br>------- ---------- ------ -- ----- -- ----- -- ---- ------<br>--- ----- --- --- ------ -------- ----- --- ------ ----- --<br>----- ----- ---------- --- --- ------ ------ ---- -- ------<br>------- --- ------ ----- --- ---- ------- -- ---- --- --<br>------- ------,125323.00000000001,125287,124892,124871.00000000001,124909,125360,,5,crown
screen,html.Screen,1_1_1_1_6,2021-04-12T19:27:55.694Z,,,,,,,,,,,,,,,,54,,,,,,,,,,,,,,426,,response,,,,100,,,,,,,Space,keypress(Space),,,,,,,,-- --- ---- --- ------ ----- secured ---- -- --- ------- --<br>------- ---------- ------ -- ----- -- ----- -- ---- ------<br>--- ----- --- --- ------ -------- ----- --- ------ ----- --<br>----- ----- ---------- --- --- ------ ------ ---- -- ------<br>------- --- ------ ----- --- ---- ------- -- ---- --- --<br>------- ------,125805,125769,125343,125323.00000000001,125360,125842,,6,secured
screen,html.Screen,1_1_1_1_7,2021-04-12T19:27:56.155Z,,,,,,,,,,,,,,,,54,,,,,,,,,,,,,,403,,response,,,,100,,,,,,,Space,keypress(Space),,,,,,,,-- --- ---- --- ------ ----- ------- much -- --- ------- --<br>------- ---------- ------ -- ----- -- ----- -- ---- ------<br>--- ----- --- --- ------ -------- ----- --- ------ ----- --<br>----- ----- ---------- --- --- ------ ------ ---- -- ------<br>------- --- ------ ----- --- ---- ------- -- ---- --- --<br>------- ------,126265,126229,125826,125805,125842,126292,,7,much
screen,html.Screen,1_1_1_1_8,2021-04-12T19:27:56.558Z,,,,,,,,,,,,,,,,54,,,,,,,,,,,,,,356,,response,,,,100,,,,,,,Space,keypress(Space),,,,,,,,-- --- ---- --- ------ ----- ------- ---- of --- ------- --<br>------- ---------- ------ -- ----- -- ----- -- ---- ------<br>--- ----- --- --- ------ -------- ----- --- ------ ----- --<br>----- ----- ---------- --- --- ------ ------ ---- -- ------<br>------- --- ------ ----- --- ---- ------- -- ---- --- --<br>------- ------,126668,126632,126276,126266,126292,126710,,8,of
screen,html.Screen,1_1_1_1_9,2021-04-12T19:27:56.905Z,,,,,,,,,,,,,,,,54,,,,,,,,,,,,,,286,,response,,,,100,,,,,,,Space,keypress(Space),,,,,,,,-- --- ---- --- ------ ----- ------- ---- -- its ------- --<br>------- ---------- ------ -- ----- -- ----- -- ---- ------<br>--- ----- --- --- ------ -------- ----- --- ------ ----- --<br>----- ----- ---------- --- --- ------ ------ ---- -- ------<br>------- --- ------ ----- --- ---- ------- -- ---- --- --<br>------- ------,127015,126979,126693,126669,126710,127043,,9,its
screen,html.Screen,1_1_1_1_10,2021-04-12T19:27:57.293Z,,,,,,,,,,,,,,,,54,,,,,,,,,,,,,,341,,response,,,,100,,,,,,,Space,keypress(Space),,,,,,,,-- --- ---- --- ------ ----- ------- ---- -- --- revenue --<br>------- ---------- ------ -- ----- -- ----- -- ---- ------<br>--- ----- --- --- ------ -------- ----- --- ------ ----- --<br>----- ----- ---------- --- --- ------ ------ ---- -- ------<br>------- --- ------ ----- --- ---- ------- -- ---- --- --<br>------- ------,127404,127367,127026,127015,127043,127426,,10,revenue
screen,html.Screen,1_1_1_1_11,2021-04-12T19:27:57.743Z,,,,,,,,,,,,,,,,54,,,,,,,,,,,,,,408,,response,,,,100,,,,,,,Space,keypress(Space),,,,,,,,-- --- ---- --- ------ ----- ------- ---- -- --- ------- by<br>------- ---------- ------ -- ----- -- ----- -- ---- ------<br>--- ----- --- --- ------ -------- ----- --- ------ ----- --<br>----- ----- ---------- --- --- ------ ------ ---- -- ------<br>------- --- ------ ----- --- ---- ------- -- ---- --- --<br>------- ------,127853.00000000001,127817,127409,127404,127426,127893,,11,by
screen,html.Screen,1_1_1_1_12,2021-04-12T19:27:58.151Z,,,,,,,,,,,,,,,,54,,,,,,,,,,,,,,348,,response,,,,100,,,,,,,Space,keypress(Space),,,,,,,,-- --- ---- --- ------ ----- ------- ---- -- --- ------- --<br>issuing ---------- ------ -- ----- -- ----- -- ---- ------<br>--- ----- --- --- ------ -------- ----- --- ------ ----- --<br>----- ----- ---------- --- --- ------ ------ ---- -- ------<br>------- --- ------ ----- --- ---- ------- -- ---- --- --<br>------- ------,128261,128225,127877,127854,127893,128293,,12,issuing
screen,html.Screen,1_1_1_1_13,2021-04-12T19:27:58.642Z,,,,,,,,,,,,,,,,54,,,,,,,,,,,,,,440.00000000001455,,response,,,,100,,,,,,,Space,keypress(Space),,,,,,,,-- --- ---- --- ------ ----- ------- ---- -- --- ------- --<br>------- government ------ -- ----- -- ----- -- ---- ------<br>--- ----- --- --- ------ -------- ----- --- ------ ----- --<br>----- ----- ---------- --- --- ------ ------ ---- -- ------<br>------- --- ------ ----- --- ---- ------- -- ---- --- --<br>------- ------,128752.00000000001,128716.00000000001,128276,128261,128293,128793,,13,government
screen,html.Screen,1_1_1_1_14,2021-04-12T19:27:59.101Z,,,,,,,,,,,,,,,,54,,,,,,,,,,,,,,398.00000000001455,,response,,,,100,,,,,,,Space,keypress(Space),,,,,,,,-- --- ---- --- ------ ----- ------- ---- -- --- ------- --<br>------- ---------- bonds. -- ----- -- ----- -- ---- ------<br>--- ----- --- --- ------ -------- ----- --- ------ ----- --<br>----- ----- ---------- --- --- ------ ------ ---- -- ------<br>------- --- ------ ----- --- ---- ------- -- ---- --- --<br>------- ------,129211.00000000001,129175.00000000001,128777,128752.00000000001,128793,129243,,14,bonds.
screen,html.Screen,1_1_1_1_15,2021-04-12T19:27:59.508Z,,,,,,,,,,,,,,,,54,,,,,,,,,,,,,,356,,response,,,,100,,,,,,,Space,keypress(Space),,,,,,,,-- --- ---- --- ------ ----- ------- ---- -- --- ------- --<br>------- ---------- ------ In ----- -- ----- -- ---- ------<br>--- ----- --- --- ------ -------- ----- --- ------ ----- --<br>----- ----- ---------- --- --- ------ ------ ---- -- ------<br>------- --- ------ ----- --- ---- ------- -- ---- --- --<br>------- ------,129618,129582,129226,129211.99999999999,129243,129659,,15,In
screen,html.Screen,1_1_1_1_16,2021-04-12T19:27:59.958Z,,,,,,,,,,,,,,,,54,,,,,,,,,,,,,,390.00000000001455,,response,,,,100,,,,,,,Space,keypress(Space),,,,,,,,"-- --- ---- --- ------ ----- ------- ---- -- --- ------- --<br>------- ---------- ------ -- 1727, -- ----- -- ---- ------<br>--- ----- --- --- ------ -------- ----- --- ------ ----- --<br>----- ----- ---------- --- --- ------ ------ ---- -- ------<br>------- --- ------ ----- --- ---- ------- -- ---- --- --<br>------- ------",130069.00000000001,130033.00000000001,129643,129618,129659,130109,,16,"1727,"
screen,html.Screen,1_1_1_1_17,2021-04-12T19:28:00.968Z,,,,,,,,,,,,,,,,54,,,,,,,,,,,,,,949,,response,,,,100,,,,,,,Space,keypress(Space),,,,,,,,-- --- ---- --- ------ ----- ------- ---- -- --- ------- --<br>------- ---------- ------ -- ----- in ----- -- ---- ------<br>--- ----- --- --- ------ -------- ----- --- ------ ----- --<br>----- ----- ---------- --- --- ------ ------ ---- -- ------<br>------- --- ------ ----- --- ---- ------- -- ---- --- --<br>------- ------,131078,131042,130093,130069.00000000001,130109,131110,,17,in
screen,html.Screen,1_1_1_1_18,2021-04-12T19:28:01.420Z,,,,,,,,,,,,,,,,54,,,,,,,,,,,,,,401,,response,,,,100,,,,,,,Space,keypress(Space),,,,,,,,-- --- ---- --- ------ ----- ------- ---- -- --- ------- --<br>------- ---------- ------ -- ----- -- order -- ---- ------<br>--- ----- --- --- ------ -------- ----- --- ------ ----- --<br>----- ----- ---------- --- --- ------ ------ ---- -- ------<br>------- --- ------ ----- --- ---- ------- -- ---- --- --<br>------- ------,131530,131494,131093,131078,131110,131560,,18,order
screen,html.Screen,1_1_1_1_19,2021-04-12T19:28:01.835Z,,,,,,,,,,,,,,,,54,,,,,,,,,,,,,,366,,response,,,,100,,,,,,,Space,keypress(Space),,,,,,,,-- --- ---- --- ------ ----- ------- ---- -- --- ------- --<br>------- ---------- ------ -- ----- -- ----- to ---- ------<br>--- ----- --- --- ------ -------- ----- --- ------ ----- --<br>----- ----- ---------- --- --- ------ ------ ---- -- ------<br>------- --- ------ ----- --- ---- ------- -- ---- --- --<br>------- ------,131945,131909,131543,131530,131560,131977,,19,to
screen,html.Screen,1_1_1_1_20,2021-04-12T19:28:02.225Z,,,,,,,,,,,,,,,,54,,,,,,,,,,,,,,340,,response,,,,100,,,,,,,Space,keypress(Space),,,,,,,,-- --- ---- --- ------ ----- ------- ---- -- --- ------- --<br>------- ---------- ------ -- ----- -- ----- -- save ------<br>--- ----- --- --- ------ -------- ----- --- ------ ----- --<br>----- ----- ---------- --- --- ------ ------ ---- -- ------<br>------- --- ------ ----- --- ---- ------- -- ---- --- --<br>------- ------,132336,132300,131960,131945,131977,132360,,20,save
screen,html.Screen,1_1_1_1_21,2021-04-12T19:28:02.603Z,,,,,,,,,,,,,,,,54,,,,,,,,,,,,,,335,,response,,,,100,,,,,,,Space,keypress(Space),,,,,,,,"-- --- ---- --- ------ ----- ------- ---- -- --- ------- --<br>------- ---------- ------ -- ----- -- ----- -- ---- money,<br>--- ----- --- --- ------ -------- ----- --- ------ ----- --<br>----- ----- ---------- --- --- ------ ------ ---- -- ------<br>------- --- ------ ----- --- ---- ------- -- ---- --- --<br>------- ------",132714,132678,132343,132336,132360,132743,,21,"money,"
screen,html.Screen,1_1_1_1_22,2021-04-12T19:28:02.993Z,,,,,,,,,,,,,,,,54,,,,,,,,,,,,,,340,,response,,,,100,,,,,,,Space,keypress(Space),,,,,,,,-- --- ---- --- ------ ----- ------- ---- -- --- ------- --<br>------- ---------- ------ -- ----- -- ----- -- ---- ------<br>the ----- --- --- ------ -------- ----- --- ------ ----- --<br>----- ----- ---------- --- --- ------ ------ ---- -- ------<br>------- --- ------ ----- --- ---- ------- -- ---- --- --<br>------- ------,133103,133067,132727,132714,132743,133127,,22,the
screen,html.Screen,1_1_1_1_23,2021-04-12T19:28:03.356Z,,,,,,,,,,,,,,,,54,,,,,,,,,,,,,,320,,response,,,,100,,,,,,,Space,keypress(Space),,,,,,,,-- --- ---- --- ------ ----- ------- ---- -- --- ------- --<br>------- ---------- ------ -- ----- -- ----- -- ---- ------<br>--- state --- --- ------ -------- ----- --- ------ ----- --<br>----- ----- ---------- --- --- ------ ------ ---- -- ------<br>------- --- ------ ----- --- ---- ------- -- ---- --- --<br>------- ------,133466,133430,133110,133103,133127,133493,,23,state
screen,html.Screen,1_1_1_1_24,2021-04-12T19:28:03.739Z,,,,,,,,,,,,,,,,54,,,,,,,,,,,,,,337.0000000000291,,response,,,,100,,,,,,,Space,keypress(Space),,,,,,,,-- --- ---- --- ------ ----- ------- ---- -- --- ------- --<br>------- ---------- ------ -- ----- -- ----- -- ---- ------<br>--- ----- cut --- ------ -------- ----- --- ------ ----- --<br>----- ----- ---------- --- --- ------ ------ ---- -- ------<br>------- --- ------ ----- --- ---- ------- -- ---- --- --<br>------- ------,133849,133813.00000000003,133476,133466,133493,133876,,24,cut
screen,html.Screen,1_1_1_1_25,2021-04-12T19:28:04.129Z,,,,,,,,,,,,,,,,54,,,,,,,,,,,,,,343,,response,,,,100,,,,,,,Space,keypress(Space),,,,,,,,-- --- ---- --- ------ ----- ------- ---- -- --- ------- --<br>------- ---------- ------ -- ----- -- ----- -- ---- ------<br>--- ----- --- the ------ -------- ----- --- ------ ----- --<br>----- ----- ---------- --- --- ------ ------ ---- -- ------<br>------- --- ------ ----- --- ---- ------- -- ---- --- --<br>------- ------,134239,134203,133860,133849,133876,134259,,25,the
screen,html.Screen,1_1_1_1_26,2021-04-12T19:28:04.480Z,,,,,,,,,,,,,,,,54,,,,,,,,,,,,,,310,,response,,,,100,,,,,,,Space,keypress(Space),,,,,,,,-- --- ---- --- ------ ----- ------- ---- -- --- ------- --<br>------- ---------- ------ -- ----- -- ----- -- ---- ------<br>--- ----- --- --- bonds' -------- ----- --- ------ ----- --<br>----- ----- ---------- --- --- ------ ------ ---- -- ------<br>------- --- ------ ----- --- ---- ------- -- ---- --- --<br>------- ------,134590,134554,134244,134239,134259,134610,,26,bonds'
screen,html.Screen,1_1_1_1_27,2021-04-12T19:28:04.901Z,,,,,,,,,,,,,,,,54,,,,,,,,,,,,,,383,,response,,,,100,,,,,,,Space,keypress(Space),,,,,,,,-- --- ---- --- ------ ----- ------- ---- -- --- ------- --<br>------- ---------- ------ -- ----- -- ----- -- ---- ------<br>--- ----- --- --- ------ interest ----- --- ------ ----- --<br>----- ----- ---------- --- --- ------ ------ ---- -- ------<br>------- --- ------ ----- --- ---- ------- -- ---- --- --<br>------- ------,135012,134976,134593,134590,134610,135043,,27,interest
screen,html.Screen,1_1_1_1_28,2021-04-12T19:28:05.296Z,,,,,,,,,,,,,,,,54,,,,,,,,,,,,,,343,,response,,,,100,,,,,,,Space,keypress(Space),,,,,,,,-- --- ---- --- ------ ----- ------- ---- -- --- ------- --<br>------- ---------- ------ -- ----- -- ----- -- ---- ------<br>--- ----- --- --- ------ -------- rate. --- ------ ----- --<br>----- ----- ---------- --- --- ------ ------ ---- -- ------<br>------- --- ------ ----- --- ---- ------- -- ---- --- --<br>------- ------,135406,135370,135027,135012,135043,135426,,28,rate.
screen,html.Screen,1_1_1_1_29,2021-04-12T19:28:05.734Z,,,,,,,,,,,,,,,,54,,,,,,,,,,,,,,399,,response,,,,100,,,,,,,Space,keypress(Space),,,,,,,,-- --- ---- --- ------ ----- ------- ---- -- --- ------- --<br>------- ---------- ------ -- ----- -- ----- -- ---- ------<br>--- ----- --- --- ------ -------- ----- The ------ ----- --<br>----- ----- ---------- --- --- ------ ------ ---- -- ------<br>------- --- ------ ----- --- ---- ------- -- ---- --- --<br>------- ------,135845,135809,135410,135406,135426,135876,,29,The
screen,html.Screen,1_1_1_1_30,2021-04-12T19:28:06.124Z,,,,,,,,,,,,,,,,54,,,,,,,,,,,,,,338,,response,,,,100,,,,,,,Space,keypress(Space),,,,,,,,-- --- ---- --- ------ ----- ------- ---- -- --- ------- --<br>------- ---------- ------ -- ----- -- ----- -- ---- ------<br>--- ----- --- --- ------ -------- ----- --- market ----- --<br>----- ----- ---------- --- --- ------ ------ ---- -- ------<br>------- --- ------ ----- --- ---- ------- -- ---- --- --<br>------- ------,136235,136198,135860,135845,135876,136260,,30,market
screen,html.Screen,1_1_1_1_31,2021-04-12T19:28:06.527Z,,,,,,,,,,,,,,,,54,,,,,,,,,,,,,,356,,response,,,,100,,,,,,,Space,keypress(Space),,,,,,,,-- --- ---- --- ------ ----- ------- ---- -- --- ------- --<br>------- ---------- ------ -- ----- -- ----- -- ---- ------<br>--- ----- --- --- ------ -------- ----- --- ------ value --<br>----- ----- ---------- --- --- ------ ------ ---- -- ------<br>------- --- ------ ----- --- ---- ------- -- ---- --- --<br>------- ------,136637,136600,136244,136235,136260,136676,,31,value
screen,html.Screen,1_1_1_1_32,2021-04-12T19:28:06.871Z,,,,,,,,,,,,,,,,54,,,,,,,,,,,,,,284.0000000000291,,response,,,,100,,,,,,,Space,keypress(Space),,,,,,,,-- --- ---- --- ------ ----- ------- ---- -- --- ------- --<br>------- ---------- ------ -- ----- -- ----- -- ---- ------<br>--- ----- --- --- ------ -------- ----- --- ------ ----- of<br>----- ----- ---------- --- --- ------ ------ ---- -- ------<br>------- --- ------ ----- --- ---- ------- -- ---- --- --<br>------- ------,136981,136944.00000000003,136660,136637,136676,137010,,32,of
screen,html.Screen,1_1_1_1_33,2021-04-12T19:28:07.227Z,,,,,,,,,,,,,,,,54,,,,,,,,,,,,,,307.0000000000291,,response,,,,100,,,,,,,Space,keypress(Space),,,,,,,,-- --- ---- --- ------ ----- ------- ---- -- --- ------- --<br>------- ---------- ------ -- ----- -- ----- -- ---- ------<br>--- ----- --- --- ------ -------- ----- --- ------ ----- --<br>these ----- ---------- --- --- ------ ------ ---- -- ------<br>------- --- ------ ----- --- ---- ------- -- ---- --- --<br>------- ------,137337,137301.00000000003,136994,136981,137010,137360,,33,these
screen,html.Screen,1_1_1_1_34,2021-04-12T19:28:07.568Z,,,,,,,,,,,,,,,,54,,,,,,,,,,,,,,297,,response,,,,100,,,,,,,Space,keypress(Space),,,,,,,,-- --- ---- --- ------ ----- ------- ---- -- --- ------- --<br>------- ---------- ------ -- ----- -- ----- -- ---- ------<br>--- ----- --- --- ------ -------- ----- --- ------ ----- --<br>----- bonds ---------- --- --- ------ ------ ---- -- ------<br>------- --- ------ ----- --- ---- ------- -- ---- --- --<br>------- ------,137678,137641,137344,137337,137360,137710,,34,bonds
screen,html.Screen,1_1_1_1_35,2021-04-12T19:28:07.911Z,,,,,,,,,,,,,,,,54,,,,,,,,,,,,,,291,,response,,,,100,,,,,,,Space,keypress(Space),,,,,,,,"-- --- ---- --- ------ ----- ------- ---- -- --- ------- --<br>------- ---------- ------ -- ----- -- ----- -- ---- ------<br>--- ----- --- --- ------ -------- ----- --- ------ ----- --<br>----- ----- plummeted, --- --- ------ ------ ---- -- ------<br>------- --- ------ ----- --- ---- ------- -- ---- --- --<br>------- ------",138021.00000000003,137984,137693,137678,137710,138044,,35,"plummeted,"
screen,html.Screen,1_1_1_1_36,2021-04-12T19:28:08.348Z,,,,,,,,,,,,,,,,54,,,,,,,,,,,,,,395,,response,,,,100,,,,,,,Space,keypress(Space),,,,,,,,-- --- ---- --- ------ ----- ------- ---- -- --- ------- --<br>------- ---------- ------ -- ----- -- ----- -- ---- ------<br>--- ----- --- --- ------ -------- ----- --- ------ ----- --<br>----- ----- ---------- and --- ------ ------ ---- -- ------<br>------- --- ------ ----- --- ---- ------- -- ---- --- --<br>------- ------,138458,138422,138027,138021.00000000003,138044,138494,,36,and
screen,html.Screen,1_1_1_1_37,2021-04-12T19:28:08.715Z,,,,,,,,,,,,,,,,54,,,,,,,,,,,,,,312.0000000000291,,response,,,,100,,,,,,,Space,keypress(Space),,,,,,,,-- --- ---- --- ------ ----- ------- ---- -- --- ------- --<br>------- ---------- ------ -- ----- -- ----- -- ---- ------<br>--- ----- --- --- ------ -------- ----- --- ------ ----- --<br>----- ----- ---------- --- the ------ ------ ---- -- ------<br>------- --- ------ ----- --- ---- ------- -- ---- --- --<br>------- ------,138825.00000000003,138789.00000000003,138477,138458,138494,138844,,37,the
screen,html.Screen,1_1_1_1_38,2021-04-12T19:28:09.110Z,,,,,,,,,,,,,,,,54,,,,,,,,,,,,,,357,,response,,,,100,,,,,,,Space,keypress(Space),,,,,,,,-- --- ---- --- ------ ----- ------- ---- -- --- ------- --<br>------- ---------- ------ -- ----- -- ----- -- ---- ------<br>--- ----- --- --- ------ -------- ----- --- ------ ----- --<br>----- ----- ---------- --- --- market ------ ---- -- ------<br>------- --- ------ ----- --- ---- ------- -- ---- --- --<br>------- ------,139220,139183,138826,138825.00000000003,138844,139260,,38,market
screen,html.Screen,1_1_1_1_39,2021-04-12T19:28:09.505Z,,,,,,,,,,,,,,,,54,,,,,,,,,,,,,,335,,response,,,,100,,,,,,,Space,keypress(Space),,,,,,,,-- --- ---- --- ------ ----- ------- ---- -- --- ------- --<br>------- ---------- ------ -- ----- -- ----- -- ---- ------<br>--- ----- --- --- ------ -------- ----- --- ------ ----- --<br>----- ----- ---------- --- --- ------ became ---- -- ------<br>------- --- ------ ----- --- ---- ------- -- ---- --- --<br>------- ------,139615,139578,139243,139220,139260,139643,,39,became
screen,html.Screen,1_1_1_1_40,2021-04-12T19:28:09.903Z,,,,,,,,,,,,,,,,54,,,,,,,,,,,,,,350,,response,,,,100,,,,,,,Space,keypress(Space),,,,,,,,-- --- ---- --- ------ ----- ------- ---- -- --- ------- --<br>------- ---------- ------ -- ----- -- ----- -- ---- ------<br>--- ----- --- --- ------ -------- ----- --- ------ ----- --<br>----- ----- ---------- --- --- ------ ------ wary -- ------<br>------- --- ------ ----- --- ---- ------- -- ---- --- --<br>------- ------,140013,139977,139627,139615,139643,140044,,40,wary
screen,html.Screen,1_1_1_1_41,2021-04-12T19:28:10.297Z,,,,,,,,,,,,,,,,54,,,,,,,,,,,,,,343,,response,,,,100,,,,,,,Space,keypress(Space),,,,,,,,-- --- ---- --- ------ ----- ------- ---- -- --- ------- --<br>------- ---------- ------ -- ----- -- ----- -- ---- ------<br>--- ----- --- --- ------ -------- ----- --- ------ ----- --<br>----- ----- ---------- --- --- ------ ------ ---- of ------<br>------- --- ------ ----- --- ---- ------- -- ---- --- --<br>------- ------,140407,140370,140027,140014,140044,140427,,41,of
screen,html.Screen,1_1_1_1_42,2021-04-12T19:28:10.715Z,,,,,,,,,,,,,,,,54,,,,,,,,,,,,,,379.0000000000291,,response,,,,100,,,,,,,Space,keypress(Space),,,,,,,,-- --- ---- --- ------ ----- ------- ---- -- --- ------- --<br>------- ---------- ------ -- ----- -- ----- -- ---- ------<br>--- ----- --- --- ------ -------- ----- --- ------ ----- --<br>----- ----- ---------- --- --- ------ ------ ---- -- French<br>------- --- ------ ----- --- ---- ------- -- ---- --- --<br>------- ------,140825.00000000003,140789.00000000003,140410,140407,140427,140860,,42,French
screen,html.Screen,1_1_1_1_43,2021-04-12T19:28:11.120Z,,,,,,,,,,,,,,,,54,,,,,,,,,,,,,,350.0000000000291,,response,,,,100,,,,,,,Space,keypress(Space),,,,,,,,-- --- ---- --- ------ ----- ------- ---- -- --- ------- --<br>------- ---------- ------ -- ----- -- ----- -- ---- ------<br>--- ----- --- --- ------ -------- ----- --- ------ ----- --<br>----- ----- ---------- --- --- ------ ------ ---- -- ------<br>credit. --- ------ ----- --- ---- ------- -- ---- --- --<br>------- ------,141230,141194.00000000003,140844,140825.00000000003,140860,141260,,43,credit.
screen,html.Screen,1_1_1_1_44,2021-04-12T19:28:11.606Z,,,,,,,,,,,,,,,,54,,,,,,,,,,,,,,436,,response,,,,100,,,,,,,Space,keypress(Space),,,,,,,,-- --- ---- --- ------ ----- ------- ---- -- --- ------- --<br>------- ---------- ------ -- ----- -- ----- -- ---- ------<br>--- ----- --- --- ------ -------- ----- --- ------ ----- --<br>----- ----- ---------- --- --- ------ ------ ---- -- ------<br>------- The ------ ----- --- ---- ------- -- ---- --- --<br>------- ------,141716,141680,141244,141230,141260,141744,,44,The
screen,html.Screen,1_1_1_1_45,2021-04-12T19:28:11.991Z,,,,,,,,,,,,,,,,54,,,,,,,,,,,,,,338,,response,,,,100,,,,,,,Space,keypress(Space),,,,,,,,-- --- ---- --- ------ ----- ------- ---- -- --- ------- --<br>------- ---------- ------ -- ----- -- ----- -- ---- ------<br>--- ----- --- --- ------ -------- ----- --- ------ ----- --<br>----- ----- ---------- --- --- ------ ------ ---- -- ------<br>------- --- French ----- --- ---- ------- -- ---- --- --<br>------- ------,142101,142065,141727,141716,141744,142127,,45,French
screen,html.Screen,1_1_1_1_46,2021-04-12T19:28:12.373Z,,,,,,,,,,,,,,,,54,,,,,,,,,,,,,,336,,response,,,,100,,,,,,,Space,keypress(Space),,,,,,,,-- --- ---- --- ------ ----- ------- ---- -- --- ------- --<br>------- ---------- ------ -- ----- -- ----- -- ---- ------<br>--- ----- --- --- ------ -------- ----- --- ------ ----- --<br>----- ----- ---------- --- --- ------ ------ ---- -- ------<br>------- --- ------ state --- ---- ------- -- ---- --- --<br>------- ------,142483,142447,142111,142102,142127,142511,,46,state
screen,html.Screen,1_1_1_1_47,2021-04-12T19:28:12.763Z,,,,,,,,,,,,,,,,54,,,,,,,,,,,,,,342,,response,,,,100,,,,,,,Space,keypress(Space),,,,,,,,-- --- ---- --- ------ ----- ------- ---- -- --- ------- --<br>------- ---------- ------ -- ----- -- ----- -- ---- ------<br>--- ----- --- --- ------ -------- ----- --- ------ ----- --<br>----- ----- ---------- --- --- ------ ------ ---- -- ------<br>------- --- ------ ----- was ---- ------- -- ---- --- --<br>------- ------,142873,142836,142494,142483,142511,142894,,47,was
screen,html.Screen,1_1_1_1_48,2021-04-12T19:28:13.209Z,,,,,,,,,,,,,,,,54,,,,,,,,,,,,,,405,,response,,,,100,,,,,,,Space,keypress(Space),,,,,,,,-- --- ---- --- ------ ----- ------- ---- -- --- ------- --<br>------- ---------- ------ -- ----- -- ----- -- ---- ------<br>--- ----- --- --- ------ -------- ----- --- ------ ----- --<br>----- ----- ---------- --- --- ------ ------ ---- -- ------<br>------- --- ------ ----- --- left ------- -- ---- --- --<br>------- ------,143318,143282,142877,142873,142894,143361,,48,left
screen,html.Screen,1_1_1_1_49,2021-04-12T19:28:13.620Z,,,,,,,,,,,,,,,,54,,,,,,,,,,,,,,350.0000000000291,,response,,,,100,,,,,,,Space,keypress(Space),,,,,,,,-- --- ---- --- ------ ----- ------- ---- -- --- ------- --<br>------- ---------- ------ -- ----- -- ----- -- ---- ------<br>--- ----- --- --- ------ -------- ----- --- ------ ----- --<br>----- ----- ---------- --- --- ------ ------ ---- -- ------<br>------- --- ------ ----- --- ---- without -- ---- --- --<br>------- ------,143730,143694.00000000003,143344,143319.00000000003,143361,143761,,49,without
screen,html.Screen,1_1_1_1_50,2021-04-12T19:28:14.076Z,,,,,,,,,,,,,,,,54,,,,,,,,,,,,,,407,,response,,,,100,,,,,,,Space,keypress(Space),,,,,,,,-- --- ---- --- ------ ----- ------- ---- -- --- ------- --<br>------- ---------- ------ -- ----- -- ----- -- ---- ------<br>--- ----- --- --- ------ -------- ----- --- ------ ----- --<br>----- ----- ---------- --- --- ------ ------ ---- -- ------<br>------- --- ------ ----- --- ---- ------- an ---- --- --<br>------- ------,144186,144150,143743,143730,143761,144227,,50,an
screen,html.Screen,1_1_1_1_51,2021-04-12T19:28:14.494Z,,,,,,,,,,,,,,,,54,,,,,,,,,,,,,,356,,response,,,,100,,,,,,,Space,keypress(Space),,,,,,,,-- --- ---- --- ------ ----- ------- ---- -- --- ------- --<br>------- ---------- ------ -- ----- -- ----- -- ---- ------<br>--- ----- --- --- ------ -------- ----- --- ------ ----- --<br>----- ----- ---------- --- --- ------ ------ ---- -- ------<br>------- --- ------ ----- --- ---- ------- -- easy --- --<br>------- ------,144603,144567,144211,144187,144227,144644,,51,easy
screen,html.Screen,1_1_1_1_52,2021-04-12T19:28:14.854Z,,,,,,,,,,,,,,,,54,,,,,,,,,,,,,,301,,response,,,,100,,,,,,,Space,keypress(Space),,,,,,,,-- --- ---- --- ------ ----- ------- ---- -- --- ------- --<br>------- ---------- ------ -- ----- -- ----- -- ---- ------<br>--- ----- --- --- ------ -------- ----- --- ------ ----- --<br>----- ----- ---------- --- --- ------ ------ ---- -- ------<br>------- --- ------ ----- --- ---- ------- -- ---- way --<br>------- ------,144964,144928,144627,144604,144644,144994,,52,way
screen,html.Screen,1_1_1_1_53,2021-04-12T19:28:15.260Z,,,,,,,,,,,,,,,,54,,,,,,,,,,,,,,355,,response,,,,100,,,,,,,Space,keypress(Space),,,,,,,,-- --- ---- --- ------ ----- ------- ---- -- --- ------- --<br>------- ---------- ------ -- ----- -- ----- -- ---- ------<br>--- ----- --- --- ------ -------- ----- --- ------ ----- --<br>----- ----- ---------- --- --- ------ ------ ---- -- ------<br>------- --- ------ ----- --- ---- ------- -- ---- --- of<br>------- ------,145369,145333,144978,144964,144994,145411,,53,of
screen,html.Screen,1_1_1_1_54,2021-04-12T19:28:15.728Z,,,,,,,,,,,,,,,,54,,,,,,,,,,,,,,408,,response,,,,100,,,,,,,Space,keypress(Space),,,,,,,,-- --- ---- --- ------ ----- ------- ---- -- --- ------- --<br>------- ---------- ------ -- ----- -- ----- -- ---- ------<br>--- ----- --- --- ------ -------- ----- --- ------ ----- --<br>----- ----- ---------- --- --- ------ ------ ---- -- ------<br>------- --- ------ ----- --- ---- ------- -- ---- --- --<br>raising ------,145838,145802,145394,145370,145411,145878,,54,raising
screen,html.Screen,1_1_1_1_55,2021-04-12T19:28:16.189Z,,,,,,,,,,,,,,,,54,,,,,,,,,,,,,,401,,response,,,,100,,,,,,,Space,keypress(Space),,,,,,,,-- --- ---- --- ------ ----- ------- ---- -- --- ------- --<br>------- ---------- ------ -- ----- -- ----- -- ---- ------<br>--- ----- --- --- ------ -------- ----- --- ------ ----- --<br>----- ----- ---------- --- --- ------ ------ ---- -- ------<br>------- --- ------ ----- --- ---- ------- -- ---- --- --<br>------- money.,146299,146262,145861,145838,145878,146328,,55,money.
Item 100,flow.Loop,1_1_1_1,2021-04-12T19:28:16.190Z,,,,,,,,,,,,,,,,,,,,,,,,,,,,,,24170,,completion,,,,,B,,,,,,,,,,,silence,,,,,146299,146262,122076,122077,122092,146328,,,
Question 1,html.Screen,1_1_1_2,2021-04-12T19:28:19.050Z,,,,,,,,,,,,,,,,,,,,,,,,,,,true,TRUE,,2813,,response,,,,100,B,,,,,,TRUE,click #choice-1,,,,silence,,,,,149160,149124,146311,146299,146328,149178,,,
Question 2,html.Screen,1_1_1_3,2021-04-12T19:28:21.427Z,,,,,,,,,,,,,,,,,,,,,,,,,,,false,FALSE,,2339,,response,,,,100,B,,,,,,TRUE,click #choice-1,,,,silence,,,,,151537,151502,149163,149160,149178,151561,,,
Item 100,flow.Sequence,1_1_1,2021-04-12T19:28:21.427Z,,,,,,,,,,,,,,,,,,,,,,,,,,,,,,39418,,completion,,,,,,,,,,,,,,,,,,,,,151537,151502,112058,112043,112084,151561,,,
End of Practice,html.Page,1_1_2,2021-04-12T19:28:26.297Z,,,,,,,,,,,,,,,,,,,,,,,,,,,,,,4845,,form submission,,,,,,,,,,,,,,,,,,,,,156406,156406,151544,151537,151561,156428,,,
Practice,flow.Sequence,1_1,2021-04-12T19:28:26.297Z,,,,,,,,,,,,,,,,,,,,,,,,,,,,,,92701,,completion,,,,,,,,,,,,,,,,,,,,,156406,156406,63688,63676,63705,156428,,,
Trap_instruction,html.Page,1_2_0,2021-04-12T19:28:35.900Z,,,,,,,,,,,,,,,,,,,,,,,,,,,,,,9581,,form submission,,,,,,,,,,,,,,,,,,,,,166009,166009,156411,156406,156428,166028,,,
trap_trial,html.Screen,1_2_1,2021-04-12T19:28:39.199Z,,,,,,,,,,,,,,,,,,,,,,,,,,,true,1,,3250,,response,,,,,,,,,,,1,click #choice-1,,,,,,,,,169308,169272,166022,166009,166028,169348,,,
end of trap trial,html.Page,1_2_2,2021-04-12T19:28:41.883Z,,,,,,,,,,,,,,,,,,,,,,,,,,,,,,2643,,form submission,,,,,,,,,,,,,,,,,,,,,171992,171991,169345,169308,169348,172012,,,
Trap 1,flow.Sequence,1_2,2021-04-12T19:28:41.883Z,,,,,,,,,,,,,,,,,,,,,,,,,,,,,,15563,,completion,,,,,,,,,,,,,,,,,,,,,171992,171991,156411,156406,156428,172012,,,
Standby,html.Page,1_3_0,2021-04-12T19:28:49.888Z,,,,,,,,,,,,,,,,,,,,,,,,,,,,,,8001,,timeout,,,,,,,,,,,,,,,,,,,,,179997,179997,171996,171992,172012,180013,,,
Holding screen,html.Screen,1_3_1_0_0,2021-04-12T19:28:56.889Z,,,,,,,,,,,,,,,,,,,,,,,,,,,,,,7000,,timeout,,,,,,,,,,,,,,,,,,,,,186997,186997,179997,179997,180013,187013,,,
screen,html.Screen,1_3_1_0_1_0,2021-04-12T19:28:58.165Z,,,,,,,,,,,,,,,,15,,,,,,,,,,,,,,1239,,response,,,,7,B,,,,,,Space,keypress(Space),,,,lyrical,,,,Greg --------- ---------- - --- ------- -- --- ------------<br>----- -- -------- ------- ---- ------ - -------- ---- -----<br>--- ------- ---- -- --- -------- --- - ----- ------ ---- --<br>-------- --- -------- -------- --- -------- ---- -- ----- -<br>-------- ---- --- ---------- --------- -- ------- ------ -<br>--------- ----- -----,188274,188236,186997,186998,187013,188314,,0,Greg
screen,html.Screen,1_3_1_0_1_1,2021-04-12T19:28:58.852Z,,,,,,,,,,,,,,,,15,,,,,,,,,,,,,,625,,response,,,,7,B,,,,,,Space,keypress(Space),,,,lyrical,,,,"---- Anderson, ---------- - --- ------- -- --- ------------<br>----- -- -------- ------- ---- ------ - -------- ---- -----<br>--- ------- ---- -- --- -------- --- - ----- ------ ---- --<br>-------- --- -------- -------- --- -------- ---- -- ----- -<br>-------- ---- --- ---------- --------- -- ------- ------ -<br>--------- ----- -----",188960,188922,188297,188274,188314,188996,,1,"Anderson,"
screen,html.Screen,1_3_1_0_1_2,2021-04-12T19:28:59.463Z,,,,,,,,,,,,,,,,15,,,,,,,,,,,,,,553.0000000000291,,response,,,,7,B,,,,,,Space,keypress(Space),,,,lyrical,,,,---- --------- considered - --- ------- -- --- ------------<br>----- -- -------- ------- ---- ------ - -------- ---- -----<br>--- ------- ---- -- --- -------- --- - ----- ------ ---- --<br>-------- --- -------- -------- --- -------- ---- -- ----- -<br>-------- ---- --- ---------- --------- -- ------- ------ -<br>--------- ----- -----,189572,189533.00000000003,188980,188960,188996,189613,,2,considered
screen,html.Screen,1_3_1_0_1_3,2021-04-12T19:28:59.914Z,,,,,,,,,,,,,,,,15,,,,,,,,,,,,,,387,,response,,,,7,B,,,,,,Space,keypress(Space),,,,lyrical,,,,---- --------- ---------- a --- ------- -- --- ------------<br>----- -- -------- ------- ---- ------ - -------- ---- -----<br>--- ------- ---- -- --- -------- --- - ----- ------ ---- --<br>-------- --- -------- -------- --- -------- ---- -- ----- -<br>-------- ---- --- ---------- --------- -- ------- ------ -<br>--------- ----- -----,190022,189984,189597,189572,189613,190064,,3,a
screen,html.Screen,1_3_1_0_1_4,2021-04-12T19:29:00.350Z,,,,,,,,,,,,,,,,15,,,,,,,,,,,,,,373.0000000000291,,response,,,,7,B,,,,,,Space,keypress(Space),,,,lyrical,,,,---- --------- ---------- - key ------- -- --- ------------<br>----- -- -------- ------- ---- ------ - -------- ---- -----<br>--- ------- ---- -- --- -------- --- - ----- ------ ---- --<br>-------- --- -------- -------- --- -------- ---- -- ----- -<br>-------- ---- --- ---------- --------- -- ------- ------ -<br>--------- ----- -----,190458,190420.00000000003,190047,190022,190064,190497,,4,key
screen,html.Screen,1_3_1_0_1_5,2021-04-12T19:29:00.854Z,,,,,,,,,,,,,,,,15,,,,,,,,,,,,,,444,,response,,,,7,B,,,,,,Space,keypress(Space),,,,lyrical,,,,---- --------- ---------- - --- witness -- --- ------------<br>----- -- -------- ------- ---- ------ - -------- ---- -----<br>--- ------- ---- -- --- -------- --- - ----- ------ ---- --<br>-------- --- -------- -------- --- -------- ---- -- ----- -<br>-------- ---- --- ---------- --------- -- ------- ------ -<br>--------- ----- -----,190963,190925,190481,190458,190497,190997,,5,witness
screen,html.Screen,1_3_1_0_1_6,2021-04-12T19:29:01.284Z,,,,,,,,,,,,,,,,15,,,,,,,,,,,,,,373,,response,,,,7,B,,,,,,Space,keypress(Space),,,,lyrical,,,,---- --------- ---------- - --- ------- by --- ------------<br>----- -- -------- ------- ---- ------ - -------- ---- -----<br>--- ------- ---- -- --- -------- --- - ----- ------ ---- --<br>-------- --- -------- -------- --- -------- ---- -- ----- -<br>-------- ---- --- ---------- --------- -- ------- ------ -<br>--------- ----- -----,191392,191354,190981,190963,190997,191430,,6,by
screen,html.Screen,1_3_1_0_1_7,2021-04-12T19:29:01.643Z,,,,,,,,,,,,,,,,15,,,,,,,,,,,,,,299,,response,,,,7,B,,,,,,Space,keypress(Space),,,,lyrical,,,,---- --------- ---------- - --- ------- -- the ------------<br>----- -- -------- ------- ---- ------ - -------- ---- -----<br>--- ------- ---- -- --- -------- --- - ----- ------ ---- --<br>-------- --- -------- -------- --- -------- ---- -- ----- -<br>-------- ---- --- ---------- --------- -- ------- ------ -<br>--------- ----- -----,191751,191713,191414,191393,191430,191781,,7,the
screen,html.Screen,1_3_1_0_1_8,2021-04-12T19:29:02.545Z,,,,,,,,,,,,,,,,15,,,,,,,,,,,,,,852,,response,,,,7,B,,,,,,Space,keypress(Space),,,,lyrical,,,,"---- --------- ---------- - --- ------- -- --- prosecution,<br>----- -- -------- ------- ---- ------ - -------- ---- -----<br>--- ------- ---- -- --- -------- --- - ----- ------ ---- --<br>-------- --- -------- -------- --- -------- ---- -- ----- -<br>-------- ---- --- ---------- --------- -- ------- ------ -<br>--------- ----- -----",192653,192615,191763,191752,191781,192681,,8,"prosecution,"
screen,html.Screen,1_3_1_0_1_9,2021-04-12T19:29:03.011Z,,,,,,,,,,,,,,,,15,,,,,,,,,,,,,,418.0000000000291,,response,,,,7,B,,,,,,Space,keypress(Space),,,,lyrical,,,,---- --------- ---------- - --- ------- -- --- ------------<br>vowed -- -------- ------- ---- ------ - -------- ---- -----<br>--- ------- ---- -- --- -------- --- - ----- ------ ---- --<br>-------- --- -------- -------- --- -------- ---- -- ----- -<br>-------- ---- --- ---------- --------- -- ------- ------ -<br>--------- ----- -----,193119,193081.00000000003,192663,192653,192681,193148,,9,vowed
screen,html.Screen,1_3_1_0_1_10,2021-04-12T19:29:03.374Z,,,,,,,,,,,,,,,,15,,,,,,,,,,,,,,314,,response,,,,7,B,,,,,,Space,keypress(Space),,,,lyrical,,,,---- --------- ---------- - --- ------- -- --- ------------<br>----- he -------- ------- ---- ------ - -------- ---- -----<br>--- ------- ---- -- --- -------- --- - ----- ------ ---- --<br>-------- --- -------- -------- --- -------- ---- -- ----- -<br>-------- ---- --- ---------- --------- -- ------- ------ -<br>--------- ----- -----,193483,193445,193131,193120,193148,193514,,10,he
screen,html.Screen,1_3_1_0_1_11,2021-04-12T19:29:03.719Z,,,,,,,,,,,,,,,,15,,,,,,,,,,,,,,291.0000000000291,,response,,,,7,B,,,,,,Space,keypress(Space),,,,lyrical,,,,---- --------- ---------- - --- ------- -- --- ------------<br>----- -- wouldn't ------- ---- ------ - -------- ---- -----<br>--- ------- ---- -- --- -------- --- - ----- ------ ---- --<br>-------- --- -------- -------- --- -------- ---- -- ----- -<br>-------- ---- --- ---------- --------- -- ------- ------ -<br>--------- ----- -----,193827,193789.00000000003,193498,193483,193514,193847,,11,wouldn't
screen,html.Screen,1_3_1_0_1_12,2021-04-12T19:29:04.061Z,,,,,,,,,,,,,,,,15,,,,,,,,,,,,,,301,,response,,,,7,B,,,,,,Space,keypress(Space),,,,lyrical,,,,---- --------- ---------- - --- ------- -- --- ------------<br>----- -- -------- testify ---- ------ - -------- ---- -----<br>--- ------- ---- -- --- -------- --- - ----- ------ ---- --<br>-------- --- -------- -------- --- -------- ---- -- ----- -<br>-------- ---- --- ---------- --------- -- ------- ------ -<br>--------- ----- -----,194169,194131,193830,193827,193847,194197,,12,testify
screen,html.Screen,1_3_1_0_1_13,2021-04-12T19:29:04.436Z,,,,,,,,,,,,,,,,15,,,,,,,,,,,,,,326,,response,,,,7,B,,,,,,Space,keypress(Space),,,,lyrical,,,,---- --------- ---------- - --- ------- -- --- ------------<br>----- -- -------- ------- when ------ - -------- ---- -----<br>--- ------- ---- -- --- -------- --- - ----- ------ ---- --<br>-------- --- -------- -------- --- -------- ---- -- ----- -<br>-------- ---- --- ---------- --------- -- ------- ------ -<br>--------- ----- -----,194545.00000000003,194507,194181,194169,194197,194564,,13,when
screen,html.Screen,1_3_1_0_1_14,2021-04-12T19:29:04.776Z,,,,,,,,,,,,,,,,15,,,,,,,,,,,,,,299,,response,,,,7,B,,,,,,Space,keypress(Space),,,,lyrical,,,,---- --------- ---------- - --- ------- -- --- ------------<br>----- -- -------- ------- ---- served - -------- ---- -----<br>--- ------- ---- -- --- -------- --- - ----- ------ ---- --<br>-------- --- -------- -------- --- -------- ---- -- ----- -<br>-------- ---- --- ---------- --------- -- ------- ------ -<br>--------- ----- -----,194884,194846,194547,194545.00000000003,194564,194914,,14,served
screen,html.Screen,1_3_1_0_1_15,2021-04-12T19:29:05.144Z,,,,,,,,,,,,,,,,15,,,,,,,,,,,,,,316,,response,,,,7,B,,,,,,Space,keypress(Space),,,,lyrical,,,,---- --------- ---------- - --- ------- -- --- ------------<br>----- -- -------- ------- ---- ------ a -------- ---- -----<br>--- ------- ---- -- --- -------- --- - ----- ------ ---- --<br>-------- --- -------- -------- --- -------- ---- -- ----- -<br>-------- ---- --- ---------- --------- -- ------- ------ -<br>--------- ----- -----,195252,195214,194898,194884,194914,195281,,15,a
screen,html.Screen,1_3_1_0_1_16,2021-04-12T19:29:05.478Z,,,,,,,,,,,,,,,,15,,,,,,,,,,,,,,284,,response,,,,7,B,,,,,,Space,keypress(Space),,,,lyrical,,,,---- --------- ---------- - --- ------- -- --- ------------<br>----- -- -------- ------- ---- ------ - subpoena ---- -----<br>--- ------- ---- -- --- -------- --- - ----- ------ ---- --<br>-------- --- -------- -------- --- -------- ---- -- ----- -<br>-------- ---- --- ---------- --------- -- ------- ------ -<br>--------- ----- -----,195586,195548,195264,195252,195281,195614,,16,subpoena
screen,html.Screen,1_3_1_0_1_17,2021-04-12T19:29:05.959Z,,,,,,,,,,,,,,,,15,,,,,,,,,,,,,,431,,response,,,,7,B,,,,,,Space,keypress(Space),,,,lyrical,,,,---- --------- ---------- - --- ------- -- --- ------------<br>----- -- -------- ------- ---- ------ - -------- last -----<br>--- ------- ---- -- --- -------- --- - ----- ------ ---- --<br>-------- --- -------- -------- --- -------- ---- -- ----- -<br>-------- ---- --- ---------- --------- -- ------- ------ -<br>--------- ----- -----,196067,196029,195598,195586,195614,196097,,17,last
screen,html.Screen,1_3_1_0_1_18,2021-04-12T19:29:06.396Z,,,,,,,,,,,,,,,,15,,,,,,,,,,,,,,387,,response,,,,7,B,,,,,,Space,keypress(Space),,,,lyrical,,,,---- --------- ---------- - --- ------- -- --- ------------<br>----- -- -------- ------- ---- ------ - -------- ---- week.<br>--- ------- ---- -- --- -------- --- - ----- ------ ---- --<br>-------- --- -------- -------- --- -------- ---- -- ----- -<br>-------- ---- --- ---------- --------- -- ------- ------ -<br>--------- ----- -----,196505,196467,196080,196067,196097,196547,,18,week.
screen,html.Screen,1_3_1_0_1_19,2021-04-12T19:29:06.877Z,,,,,,,,,,,,,,,,15,,,,,,,,,,,,,,417,,response,,,,7,B,,,,,,Space,keypress(Space),,,,lyrical,,,,---- --------- ---------- - --- ------- -- --- ------------<br>----- -- -------- ------- ---- ------ - -------- ---- -----<br>His ------- ---- -- --- -------- --- - ----- ------ ---- --<br>-------- --- -------- -------- --- -------- ---- -- ----- -<br>-------- ---- --- ---------- --------- -- ------- ------ -<br>--------- ----- -----,196986,196948,196531,196505,196547,197014,,19,His
screen,html.Screen,1_3_1_0_1_20,2021-04-12T19:29:07.315Z,,,,,,,,,,,,,,,,15,,,,,,,,,,,,,,388,,response,,,,7,B,,,,,,Space,keypress(Space),,,,lyrical,,,,---- --------- ---------- - --- ------- -- --- ------------<br>----- -- -------- ------- ---- ------ - -------- ---- -----<br>--- lawyers ---- -- --- -------- --- - ----- ------ ---- --<br>-------- --- -------- -------- --- -------- ---- -- ----- -<br>-------- ---- --- ---------- --------- -- ------- ------ -<br>--------- ----- -----,197423,197385,196997,196986,197014,197464,,20,lawyers
screen,html.Screen,1_3_1_0_1_21,2021-04-12T19:29:07.725Z,,,,,,,,,,,,,,,,15,,,,,,,,,,,,,,348.0000000000291,,response,,,,7,B,,,,,,Space,keypress(Space),,,,lyrical,,,,---- --------- ---------- - --- ------- -- --- ------------<br>----- -- -------- ------- ---- ------ - -------- ---- -----<br>--- ------- said -- --- -------- --- - ----- ------ ---- --<br>-------- --- -------- -------- --- -------- ---- -- ----- -<br>-------- ---- --- ---------- --------- -- ------- ------ -<br>--------- ----- -----,197833,197795.00000000003,197447,197424,197464,197864,,21,said
screen,html.Screen,1_3_1_0_1_22,2021-04-12T19:29:08.148Z,,,,,,,,,,,,,,,,15,,,,,,,,,,,,,,371.0000000000291,,response,,,,7,B,,,,,,Space,keypress(Space),,,,lyrical,,,,---- --------- ---------- - --- ------- -- --- ------------<br>----- -- -------- ------- ---- ------ - -------- ---- -----<br>--- ------- ---- he --- -------- --- - ----- ------ ---- --<br>-------- --- -------- -------- --- -------- ---- -- ----- -<br>-------- ---- --- ---------- --------- -- ------- ------ -<br>--------- ----- -----,198256,198218.00000000003,197847,197833,197864,198297,,22,he
screen,html.Screen,1_3_1_0_1_23,2021-04-12T19:29:08.528Z,,,,,,,,,,,,,,,,15,,,,,,,,,,,,,,317,,response,,,,7,B,,,,,,Space,keypress(Space),,,,lyrical,,,,---- --------- ---------- - --- ------- -- --- ------------<br>----- -- -------- ------- ---- ------ - -------- ---- -----<br>--- ------- ---- -- was -------- --- - ----- ------ ---- --<br>-------- --- -------- -------- --- -------- ---- -- ----- -<br>-------- ---- --- ---------- --------- -- ------- ------ -<br>--------- ----- -----,198636,198598,198281,198256,198297,198665,,23,was
screen,html.Screen,1_3_1_0_1_24,2021-04-12T19:29:08.911Z,,,,,,,,,,,,,,,,15,,,,,,,,,,,,,,333,,response,,,,7,B,,,,,,Space,keypress(Space),,,,lyrical,,,,---- --------- ---------- - --- ------- -- --- ------------<br>----- -- -------- ------- ---- ------ - -------- ---- -----<br>--- ------- ---- -- --- prepared --- - ----- ------ ---- --<br>-------- --- -------- -------- --- -------- ---- -- ----- -<br>-------- ---- --- ---------- --------- -- ------- ------ -<br>--------- ----- -----,199019,198981,198648,198636,198665,199047,,24,prepared
screen,html.Screen,1_3_1_0_1_25,2021-04-12T19:29:09.301Z,,,,,,,,,,,,,,,,15,,,,,,,,,,,,,,340,,response,,,,7,B,,,,,,Space,keypress(Space),,,,lyrical,,,,---- --------- ---------- - --- ------- -- --- ------------<br>----- -- -------- ------- ---- ------ - -------- ---- -----<br>--- ------- ---- -- --- -------- for - ----- ------ ---- --<br>-------- --- -------- -------- --- -------- ---- -- ----- -<br>-------- ---- --- ---------- --------- -- ------- ------ -<br>--------- ----- -----,199409,199371,199031,199019,199047,199431,,25,for
screen,html.Screen,1_3_1_0_1_26,2021-04-12T19:29:09.669Z,,,,,,,,,,,,,,,,15,,,,,,,,,,,,,,323,,response,,,,7,B,,,,,,Space,keypress(Space),,,,lyrical,,,,---- --------- ---------- - --- ------- -- --- ------------<br>----- -- -------- ------- ---- ------ - -------- ---- -----<br>--- ------- ---- -- --- -------- --- a ----- ------ ---- --<br>-------- --- -------- -------- --- -------- ---- -- ----- -<br>-------- ---- --- ---------- --------- -- ------- ------ -<br>--------- ----- -----,199777.00000000003,199738,199415,199409,199431,199798,,26,a
screen,html.Screen,1_3_1_0_1_27,2021-04-12T19:29:10.027Z,,,,,,,,,,,,,,,,15,,,,,,,,,,,,,,316,,response,,,,7,B,,,,,,Space,keypress(Space),,,,lyrical,,,,---- --------- ---------- - --- ------- -- --- ------------<br>----- -- -------- ------- ---- ------ - -------- ---- -----<br>--- ------- ---- -- --- -------- --- - third ------ ---- --<br>-------- --- -------- -------- --- -------- ---- -- ----- -<br>-------- ---- --- ---------- --------- -- ------- ------ -<br>--------- ----- -----,200135,200097,199781,199777.00000000003,199798,200165,,27,third
screen,html.Screen,1_3_1_0_1_28,2021-04-12T19:29:10.423Z,,,,,,,,,,,,,,,,15,,,,,,,,,,,,,,345,,response,,,,7,B,,,,,,Space,keypress(Space),,,,lyrical,,,,---- --------- ---------- - --- ------- -- --- ------------<br>----- -- -------- ------- ---- ------ - -------- ---- -----<br>--- ------- ---- -- --- -------- --- - ----- prison ---- --<br>-------- --- -------- -------- --- -------- ---- -- ----- -<br>-------- ---- --- ---------- --------- -- ------- ------ -<br>--------- ----- -----,200532,200493,200148,200135,200165,200564,,28,prison
screen,html.Screen,1_3_1_0_1_29,2021-04-12T19:29:10.781Z,,,,,,,,,,,,,,,,15,,,,,,,,,,,,,,303,,response,,,,7,B,,,,,,Space,keypress(Space),,,,lyrical,,,,---- --------- ---------- - --- ------- -- --- ------------<br>----- -- -------- ------- ---- ------ - -------- ---- -----<br>--- ------- ---- -- --- -------- --- - ----- ------ stay --<br>-------- --- -------- -------- --- -------- ---- -- ----- -<br>-------- ---- --- ---------- --------- -- ------- ------ -<br>--------- ----- -----,200890.00000000003,200851,200548,200532,200564,200915,,29,stay
screen,html.Screen,1_3_1_0_1_30,2021-04-12T19:29:11.152Z,,,,,,,,,,,,,,,,15,,,,,,,,,,,,,,324,,response,,,,7,B,,,,,,Space,keypress(Space),,,,lyrical,,,,---- --------- ---------- - --- ------- -- --- ------------<br>----- -- -------- ------- ---- ------ - -------- ---- -----<br>--- ------- ---- -- --- -------- --- - ----- ------ ---- to<br>-------- --- -------- -------- --- -------- ---- -- ----- -<br>-------- ---- --- ---------- --------- -- ------- ------ -<br>--------- ----- -----,201260,201222,200898,200890.00000000003,200915,201281,,30,to
screen,html.Screen,1_3_1_0_1_31,2021-04-12T19:29:11.518Z,,,,,,,,,,,,,,,,15,,,,,,,,,,,,,,323,,response,,,,7,B,,,,,,Space,keypress(Space),,,,lyrical,,,,---- --------- ---------- - --- ------- -- --- ------------<br>----- -- -------- ------- ---- ------ - -------- ---- -----<br>--- ------- ---- -- --- -------- --- - ----- ------ ---- --<br>maintain --- -------- -------- --- -------- ---- -- ----- -<br>-------- ---- --- ---------- --------- -- ------- ------ -<br>--------- ----- -----,201627,201588,201265,201261,201281,201648,,31,maintain
screen,html.Screen,1_3_1_0_1_32,2021-04-12T19:29:11.852Z,,,,,,,,,,,,,,,,15,,,,,,,,,,,,,,290,,response,,,,7,B,,,,,,Space,keypress(Space),,,,lyrical,,,,---- --------- ---------- - --- ------- -- --- ------------<br>----- -- -------- ------- ---- ------ - -------- ---- -----<br>--- ------- ---- -- --- -------- --- - ----- ------ ---- --<br>-------- his -------- -------- --- -------- ---- -- ----- -<br>-------- ---- --- ---------- --------- -- ------- ------ -<br>--------- ----- -----,201960,201922,201632,201627,201648,201982,,32,his
screen,html.Screen,1_3_1_0_1_33,2021-04-12T19:29:12.214Z,,,,,,,,,,,,,,,,15,,,,,,,,,,,,,,319,,response,,,,7,B,,,,,,Space,keypress(Space),,,,lyrical,,,,---- --------- ---------- - --- ------- -- --- ------------<br>----- -- -------- ------- ---- ------ - -------- ---- -----<br>--- ------- ---- -- --- -------- --- - ----- ------ ---- --<br>-------- --- silence. -------- --- -------- ---- -- ----- -<br>-------- ---- --- ---------- --------- -- ------- ------ -<br>--------- ----- -----,202323,202284,201965,201960,201982,202348,,33,silence.
screen,html.Screen,1_3_1_0_1_34,2021-04-12T19:29:12.561Z,,,,,,,,,,,,,,,,15,,,,,,,,,,,,,,300,,response,,,,7,B,,,,,,Space,keypress(Space),,,,lyrical,,,,---- --------- ---------- - --- ------- -- --- ------------<br>----- -- -------- ------- ---- ------ - -------- ---- -----<br>--- ------- ---- -- --- -------- --- - ----- ------ ---- --<br>-------- --- -------- Anderson --- -------- ---- -- ----- -<br>-------- ---- --- ---------- --------- -- ------- ------ -<br>--------- ----- -----,202669,202631,202331,202323,202348,202697,,34,Anderson
screen,html.Screen,1_3_1_0_1_35,2021-04-12T19:29:12.917Z,,,,,,,,,,,,,,,,15,,,,,,,,,,,,,,305,,response,,,,7,B,,,,,,Space,keypress(Space),,,,lyrical,,,,---- --------- ---------- - --- ------- -- --- ------------<br>----- -- -------- ------- ---- ------ - -------- ---- -----<br>--- ------- ---- -- --- -------- --- - ----- ------ ---- --<br>-------- --- -------- -------- was -------- ---- -- ----- -<br>-------- ---- --- ---------- --------- -- ------- ------ -<br>--------- ----- -----,203025,202987,202682,202669,202697,203047,,35,was
screen,html.Screen,1_3_1_0_1_36,2021-04-12T19:29:13.236Z,,,,,,,,,,,,,,,,15,,,,,,,,,,,,,,275,,response,,,,7,B,,,,,,Space,keypress(Space),,,,lyrical,,,,---- --------- ---------- - --- ------- -- --- ------------<br>----- -- -------- ------- ---- ------ - -------- ---- -----<br>--- ------- ---- -- --- -------- --- - ----- ------ ---- --<br>-------- --- -------- -------- --- released ---- -- ----- -<br>-------- ---- --- ---------- --------- -- ------- ------ -<br>--------- ----- -----,203344,203306,203031,203025,203047,203365,,36,released
screen,html.Screen,1_3_1_0_1_37,2021-04-12T19:29:13.727Z,,,,,,,,,,,,,,,,15,,,,,,,,,,,,,,450,,response,,,,7,B,,,,,,Space,keypress(Space),,,,lyrical,,,,---- --------- ---------- - --- ------- -- --- ------------<br>----- -- -------- ------- ---- ------ - -------- ---- -----<br>--- ------- ---- -- --- -------- --- - ----- ------ ---- --<br>-------- --- -------- -------- --- -------- July -- ----- -<br>-------- ---- --- ---------- --------- -- ------- ------ -<br>--------- ----- -----,203835,203797,203347,203345,203365,203864,,37,July
screen,html.Screen,1_3_1_0_1_38,2021-04-12T19:29:14.162Z,,,,,,,,,,,,,,,,15,,,,,,,,,,,,,,384,,response,,,,7,B,,,,,,Space,keypress(Space),,,,lyrical,,,,---- --------- ---------- - --- ------- -- --- ------------<br>----- -- -------- ------- ---- ------ - -------- ---- -----<br>--- ------- ---- -- --- -------- --- - ----- ------ ---- --<br>-------- --- -------- -------- --- -------- ---- 20 ----- -<br>-------- ---- --- ---------- --------- -- ------- ------ -<br>--------- ----- -----,204270,204232,203848,203835,203864,204298,,38,20
screen,html.Screen,1_3_1_0_1_39,2021-04-12T19:29:14.586Z,,,,,,,,,,,,,,,,15,,,,,,,,,,,,,,373,,response,,,,7,B,,,,,,Space,keypress(Space),,,,lyrical,,,,---- --------- ---------- - --- ------- -- --- ------------<br>----- -- -------- ------- ---- ------ - -------- ---- -----<br>--- ------- ---- -- --- -------- --- - ----- ------ ---- --<br>-------- --- -------- -------- --- -------- ---- -- after -<br>-------- ---- --- ---------- --------- -- ------- ------ -<br>--------- ----- -----,204694.00000000003,204655,204282,204270,204298,204731,,39,after
screen,html.Screen,1_3_1_0_1_40,2021-04-12T19:29:14.973Z,,,,,,,,,,,,,,,,15,,,,,,,,,,,,,,328,,response,,,,7,B,,,,,,Space,keypress(Space),,,,lyrical,,,,---- --------- ---------- - --- ------- -- --- ------------<br>----- -- -------- ------- ---- ------ - -------- ---- -----<br>--- ------- ---- -- --- -------- --- - ----- ------ ---- --<br>-------- --- -------- -------- --- -------- ---- -- ----- a<br>-------- ---- --- ---------- --------- -- ------- ------ -<br>--------- ----- -----,205081.00000000003,205043,204715,204694.00000000003,204731,205098,,40,a
screen,html.Screen,1_3_1_0_1_41,2021-04-12T19:29:15.413Z,,,,,,,,,,,,,,,,15,,,,,,,,,,,,,,401,,response,,,,7,B,,,,,,Space,keypress(Space),,,,lyrical,,,,---- --------- ---------- - --- ------- -- --- ------------<br>----- -- -------- ------- ---- ------ - -------- ---- -----<br>--- ------- ---- -- --- -------- --- - ----- ------ ---- --<br>-------- --- -------- -------- --- -------- ---- -- ----- -<br>two-week ---- --- ---------- --------- -- ------- ------ -<br>--------- ----- -----,205521.00000000003,205483,205082,205081.00000000003,205098,205548,,41,two-week
screen,html.Screen,1_3_1_0_1_42,2021-04-12T19:29:15.835Z,,,,,,,,,,,,,,,,15,,,,,,,,,,,,,,373,,response,,,,7,B,,,,,,Space,keypress(Space),,,,lyrical,,,,---- --------- ---------- - --- ------- -- --- ------------<br>----- -- -------- ------- ---- ------ - -------- ---- -----<br>--- ------- ---- -- --- -------- --- - ----- ------ ---- --<br>-------- --- -------- -------- --- -------- ---- -- ----- -<br>-------- stay --- ---------- --------- -- ------- ------ -<br>--------- ----- -----,205943,205905,205532,205521.00000000003,205548,205982,,42,stay
screen,html.Screen,1_3_1_0_1_43,2021-04-12T19:29:16.198Z,,,,,,,,,,,,,,,,15,,,,,,,,,,,,,,303,,response,,,,7,B,,,,,,Space,keypress(Space),,,,lyrical,,,,---- --------- ---------- - --- ------- -- --- ------------<br>----- -- -------- ------- ---- ------ - -------- ---- -----<br>--- ------- ---- -- --- -------- --- - ----- ------ ---- --<br>-------- --- -------- -------- --- -------- ---- -- ----- -<br>-------- ---- for ---------- --------- -- ------- ------ -<br>--------- ----- -----,206306,206268,205965,205943,205982,206331,,43,for
screen,html.Screen,1_3_1_0_1_44,2021-04-12T19:29:16.579Z,,,,,,,,,,,,,,,,15,,,,,,,,,,,,,,334,,response,,,,7,B,,,,,,Space,keypress(Space),,,,lyrical,,,,---- --------- ---------- - --- ------- -- --- ------------<br>----- -- -------- ------- ---- ------ - -------- ---- -----<br>--- ------- ---- -- --- -------- --- - ----- ------ ---- --<br>-------- --- -------- -------- --- -------- ---- -- ----- -<br>-------- ---- --- previously --------- -- ------- ------ -<br>--------- ----- -----,206687,206649,206315,206306,206331,206714,,44,previously
screen,html.Screen,1_3_1_0_1_45,2021-04-12T19:29:17.001Z,,,,,,,,,,,,,,,,15,,,,,,,,,,,,,,371,,response,,,,7,B,,,,,,Space,keypress(Space),,,,lyrical,,,,---- --------- ---------- - --- ------- -- --- ------------<br>----- -- -------- ------- ---- ------ - -------- ---- -----<br>--- ------- ---- -- --- -------- --- - ----- ------ ---- --<br>-------- --- -------- -------- --- -------- ---- -- ----- -<br>-------- ---- --- ---------- declining -- ------- ------ -<br>--------- ----- -----,207109,207070,206699,206687,206714,207149,,45,declining
screen,html.Screen,1_3_1_0_1_46,2021-04-12T19:29:17.405Z,,,,,,,,,,,,,,,,15,,,,,,,,,,,,,,343,,response,,,,7,B,,,,,,Space,keypress(Space),,,,lyrical,,,,---- --------- ---------- - --- ------- -- --- ------------<br>----- -- -------- ------- ---- ------ - -------- ---- -----<br>--- ------- ---- -- --- -------- --- - ----- ------ ---- --<br>-------- --- -------- -------- --- -------- ---- -- ----- -<br>-------- ---- --- ---------- --------- to ------- ------ -<br>--------- ----- -----,207513,207475,207132,207109,207149,207532,,46,to
screen,html.Screen,1_3_1_0_1_47,2021-04-12T19:29:17.779Z,,,,,,,,,,,,,,,,15,,,,,,,,,,,,,,335.0000000000291,,response,,,,7,B,,,,,,Space,keypress(Space),,,,lyrical,,,,---- --------- ---------- - --- ------- -- --- ------------<br>----- -- -------- ------- ---- ------ - -------- ---- -----<br>--- ------- ---- -- --- -------- --- - ----- ------ ---- --<br>-------- --- -------- -------- --- -------- ---- -- ----- -<br>-------- ---- --- ---------- --------- -- testify ------ -<br>--------- ----- -----,207887,207849.00000000003,207514,207513,207532,207915,,47,testify
screen,html.Screen,1_3_1_0_1_48,2021-04-12T19:29:18.166Z,,,,,,,,,,,,,,,,15,,,,,,,,,,,,,,337.0000000000291,,response,,,,7,B,,,,,,Space,keypress(Space),,,,lyrical,,,,---- --------- ---------- - --- ------- -- --- ------------<br>----- -- -------- ------- ---- ------ - -------- ---- -----<br>--- ------- ---- -- --- -------- --- - ----- ------ ---- --<br>-------- --- -------- -------- --- -------- ---- -- ----- -<br>-------- ---- --- ---------- --------- -- ------- before -<br>--------- ----- -----,208274,208236.00000000003,207899,207887,207915,208299,,48,before
screen,html.Screen,1_3_1_0_1_49,2021-04-12T19:29:18.606Z,,,,,,,,,,,,,,,,15,,,,,,,,,,,,,,394.0000000000291,,response,,,,7,B,,,,,,Space,keypress(Space),,,,lyrical,,,,---- --------- ---------- - --- ------- -- --- ------------<br>----- -- -------- ------- ---- ------ - -------- ---- -----<br>--- ------- ---- -- --- -------- --- - ----- ------ ---- --<br>-------- --- -------- -------- --- -------- ---- -- ----- -<br>-------- ---- --- ---------- --------- -- ------- ------ a<br>--------- ----- -----,208714,208676.00000000003,208282,208274,208299,208749,,49,a
screen,html.Screen,1_3_1_0_1_50,2021-04-12T19:29:19.130Z,,,,,,,,,,,,,,,,15,,,,,,,,,,,,,,467,,response,,,,7,B,,,,,,Space,keypress(Space),,,,lyrical,,,,---- --------- ---------- - --- ------- -- --- ------------<br>----- -- -------- ------- ---- ------ - -------- ---- -----<br>--- ------- ---- -- --- -------- --- - ----- ------ ---- --<br>-------- --- -------- -------- --- -------- ---- -- ----- -<br>-------- ---- --- ---------- --------- -- ------- ------ -<br>different ----- -----,209238,209199,208732,208714,208749,209264,,50,different
screen,html.Screen,1_3_1_0_1_51,2021-04-12T19:29:19.662Z,,,,,,,,,,,,,,,,15,,,,,,,,,,,,,,483,,response,,,,7,B,,,,,,Space,keypress(Space),,,,lyrical,,,,---- --------- ---------- - --- ------- -- --- ------------<br>----- -- -------- ------- ---- ------ - -------- ---- -----<br>--- ------- ---- -- --- -------- --- - ----- ------ ---- --<br>-------- --- -------- -------- --- -------- ---- -- ----- -<br>-------- ---- --- ---------- --------- -- ------- ------ -<br>--------- grand -----,209770,209732,209249,209238,209264,209799,,51,grand
screen,html.Screen,1_3_1_0_1_52,2021-04-12T19:29:20.273Z,,,,,,,,,,,,,,,,15,,,,,,,,,,,,,,560,,response,,,,7,B,,,,,,Space,keypress(Space),,,,lyrical,,,,---- --------- ---------- - --- ------- -- --- ------------<br>----- -- -------- ------- ---- ------ - -------- ---- -----<br>--- ------- ---- -- --- -------- --- - ----- ------ ---- --<br>-------- --- -------- -------- --- -------- ---- -- ----- -<br>-------- ---- --- ---------- --------- -- ------- ------ -<br>--------- ----- jury.,210381,210342,209782,209770,209799,210415,,52,jury.
Item 7,flow.Loop,1_3_1_0_1,2021-04-12T19:29:20.273Z,,,,,,,,,,,,,,,,,,,,,,,,,,,,,,23329,,completion,,,,,,,,,,,,,,,,,,,,,210381,210342,186997,186997,187013,210415,,,
Question 1,html.Screen,1_3_1_0_2,2021-04-12T19:29:23.527Z,,,,,,,,,,,,,,,,,,,,,,,,,,,true,FALSE,,3199,,response,,,,7,B,,,,,,FALSE,click #choice-2,,,,lyrical,,,,,213635,213598,210399,210381,210415,213665,,,
Question 2,html.Screen,1_3_1_0_3,2021-04-12T19:29:26.786Z,,,,,,,,,,,,,,,,,,,,,,,,,,,true,TRUE,,3209,,response,,,,7,B,,,,,,TRUE,click #choice-1,,,,lyrical,,,,,216894,216857,213648,213635,213665,216915,,,
Item 7,flow.Sequence,1_3_1_0,2021-04-12T19:29:26.787Z,,,,,,,,,,,,,,,,,,,,,,,,,,,,,,36844,,completion,,,,,,,,,,,,,,,,,,,,,216894,216857,179997,179997,180013,216915,,,
Holding screen,html.Screen,1_3_1_1_0,2021-04-12T19:29:33.791Z,,,,,,,,,,,,,,,,,,,,,,,,,,,,,,7001,,timeout,,,,,,,,,,,,,,,,,,,,,223899,223899,216899,216894,216915,223916,,,
screen,html.Screen,1_3_1_1_1_0,2021-04-12T19:29:35.097Z,,,,,,,,,,,,,,,,11,,,,,,,,,,,,,,1266,,response,,,,4,B,,,,,,Space,keypress(Space),,,,lyrical,,,,Known -- ---- --- -- --- -------- ------------ ---------- --<br>- ------- ------ --------- -- ------------ -- --- ---- -----<br>------ ---- ---- ------ ------ ------- --- ----- ---------<br>---- --- -------- -------- --- --- -- ------- --- --- -----<br>-- --- ------ ------- --- --- -------- ---- --------- --<br>---------- -- -------- ----------------,225204,225165,223899,223899,223916,225232,,0,Known
screen,html.Screen,1_3_1_1_1_1,2021-04-12T19:29:35.561Z,,,,,,,,,,,,,,,,11,,,,,,,,,,,,,,412,,response,,,,4,B,,,,,,Space,keypress(Space),,,,lyrical,,,,----- as ---- --- -- --- -------- ------------ ---------- --<br>- ------- ------ --------- -- ------------ -- --- ---- -----<br>------ ---- ---- ------ ------ ------- --- ----- ---------<br>---- --- -------- -------- --- --- -- ------- --- --- -----<br>-- --- ------ ------- --- --- -------- ---- --------- --<br>---------- -- -------- ----------------,225668,225629,225217,225204,225232,225699,,1,as
screen,html.Screen,1_3_1_1_1_2,2021-04-12T19:29:36.118Z,,,,,,,,,,,,,,,,11,,,,,,,,,,,,,,504,,response,,,,4,B,,,,,,Space,keypress(Space),,,,lyrical,,,,----- -- Rapa --- -- --- -------- ------------ ---------- --<br>- ------- ------ --------- -- ------------ -- --- ---- -----<br>------ ---- ---- ------ ------ ------- --- ----- ---------<br>---- --- -------- -------- --- --- -- ------- --- --- -----<br>-- --- ------ ------- --- --- -------- ---- --------- --<br>---------- -- -------- ----------------,226226,226187,225683,225668,225699,226266,,2,Rapa
screen,html.Screen,1_3_1_1_1_3,2021-04-12T19:29:36.820Z,,,,,,,,,,,,,,,,11,,,,,,,,,,,,,,638,,response,,,,4,B,,,,,,Space,keypress(Space),,,,lyrical,,,,----- -- ---- Nui -- --- -------- ------------ ---------- --<br>- ------- ------ --------- -- ------------ -- --- ---- -----<br>------ ---- ---- ------ ------ ------- --- ----- ---------<br>---- --- -------- -------- --- --- -- ------- --- --- -----<br>-- --- ------ ------- --- --- -------- ---- --------- --<br>---------- -- -------- ----------------,226927,226888,226250,226226,226266,226967,,3,Nui
screen,html.Screen,1_3_1_1_1_4,2021-04-12T19:29:37.344Z,,,,,,,,,,,,,,,,11,,,,,,,,,,,,,,463,,response,,,,4,B,,,,,,Space,keypress(Space),,,,lyrical,,,,----- -- ---- --- to --- -------- ------------ ---------- --<br>- ------- ------ --------- -- ------------ -- --- ---- -----<br>------ ---- ---- ------ ------ ------- --- ----- ---------<br>---- --- -------- -------- --- --- -- ------- --- --- -----<br>-- --- ------ ------- --- --- -------- ---- --------- --<br>---------- -- -------- ----------------,227452,227413,226950,226927,226967,227483,,4,to
