sender,sender_type,sender_id,timestamp,meta,,Blues,Classical,Country,Dance,Electronic,Folk,Gospel,Hip-Hop,Jazz,Latin,Musical/Film,New-age,Pop,Provo_ID,R&B,Rap,Reggae,Religious,Rock,Soul,Swing,Traditional,age,artist_name,correct,correctResponse,distraction,duration,education,ended_on,familiarity,gender,headphone_check_performance,item,list,music_frequency,offensiveness,pleasantness,position_correct,preference,response,response_action,snippet_file,song_name,song_rating,sound,stimulus_1,stimulus_2,stimulus_3,text,time_commit,time_end,time_render,time_run,time_show,time_switch,url,word,word_ID
Introduction,html.Screen,0_0,2021-04-20T10:35:56.182Z,"{""labjs_version"":""20.2.2"",""labjs_build"":{""flavor"":""production"",""commit"":""a25486e0c714a0ae2ce03ff94b7bb6896854dcfa""},""location"":""https://run.pavlovia.org/mvasilev/music_e/"",""userAgent"":""Mozilla/5.0 (Windows NT 10.0; Win64; x64) AppleWebKit/537.36 (KHTML, like Gecko) Chrome/90.0.4430.72 Safari/537.36"",""platform"":""Win32"",""language"":""en-GB"",""locale"":""en-GB"",""timeZone"":""Europe/London"",""timezoneOffset"":-60,""screen_width"":1280,""screen_height"":720,""scroll_width"":1280,""scroll_height"":578,""window_innerWidth"":1280,""window_innerHeight"":578,""devicePixelRatio"":1.5}",,,,,,,,,,,,,,,,,,,,,,,,,,,,,143549.51999997065,,response,,,,,,,,,,,continue,click button,,,,,,,,,150877.1499999566,150871.62499997066,7284.295,7295.664999983273,7322.105,150878.289,{},,
Volume calibration,html.Screen,0_1,2021-04-20T10:36:11.528Z,,,,,,,,,,,,,,,,,,,,,,,,,,,,,,15342.720999979298,,response,,,,,,,,,,,continue,click button,,,,,,,,,166223.27499999665,166221.0099999793,150870.494,150878.3800000092,150878.289,166233.168,,,
Task instructions,html.Screen,0_2,2021-04-20T10:36:16.218Z,,,,,,,,,,,,,,,,,,,,,,,,,,,,,,4678.476999985578,,response,,,,,,,,,,,continue,click button,,,,,,,,,170912.8849999979,170911.64499998558,166216.701,166223.3899999992,166233.168,170916.714,,,
Sounds,html.Screen,0_3_0_0,2021-04-20T10:36:20.461Z,,,,,,,,,,,,,,,,,,,,,,,,,,,,,,4279.4100000000035,,timeout,,,,,,,,,2,,,,,,,,O,S,I,,175156.06999996817,175146.126,170904.17,170913.0850000074,170916.714,175196.124,,,
Judgement,html.Screen,0_3_0_1,2021-04-20T10:36:22.487Z,,,,,,,,,,,,,,,,,,,,,,,,,,,true,2,,1984.9860000049812,,response,,,,,,,,,2,,2,click #choice-2,,,,,O,S,I,,177182.24999995437,177181.110000005,175146.126,175156.22499998426,175196.124,177196.633,,,
Trial,flow.Sequence,0_3_0,2021-04-20T10:36:22.487Z,,,,,,,,,,,,,,,,,,,,,,,,,,,,,,6264.396000004985,,completion,,,,,,,,,2,,,,,,,,O,S,I,,177182.46499996167,177181.110000005,170904.17,170913.05999999167,170916.714,177196.633,,,
Sounds,html.Screen,0_3_1_0,2021-04-20T10:36:26.739Z,,,,,,,,,,,,,,,,,,,,,,,,,,,,,,4253.905999999988,,timeout,,,,,,,,,3,,,,,,,,I,O,S,,181434.505000012,181433.865,177167.212,177182.54000000888,177196.633,181450.539,,,
Judgement,html.Screen,0_3_1_1,2021-04-20T10:36:28.110Z,,,,,,,,,,,,,,,,,,,,,,,,,,,true,3,,1353.150999971549,,response,,,,,,,,,3,,3,click #choice-3,,,,,I,O,S,,182805.17999996664,182803.68999997154,181433.865,181434.6099999966,181450.539,182813.179,,,
Trial,flow.Sequence,0_3_1,2021-04-20T10:36:28.110Z,,,,,,,,,,,,,,,,,,,,,,,,,,,,,,5607.056999971537,,completion,,,,,,,,,3,,,,,,,,I,O,S,,182805.30499998713,182803.68999997154,177167.212,177182.52500001108,177196.633,182813.179,,,
Sounds,html.Screen,0_3_2_0,2021-04-20T10:36:32.352Z,,,,,,,,,,,,,,,,,,,,,,,,,,,,,,4250.502999999997,,timeout,,,,,,,,,3,,,,,,,,O,I,S,,187047.6449999842,187046.979,182788.632,182805.37999997614,182813.179,187063.682,,,
Judgement,html.Screen,0_3_2_1,2021-04-20T10:36:33.391Z,,,,,,,,,,,,,,,,,,,,,,,,,,,true,3,,1021.352999996423,,response,,,,,,,,,3,,3,click #choice-3,,,,,O,I,S,,188086.47999999812,188085.03499999642,187046.979,187047.7199999732,187063.682,188092.723,,,
Trial,flow.Sequence,0_3_2,2021-04-20T10:36:33.392Z,,,,,,,,,,,,,,,,,,,,,,,,,,,,,,5271.85599999642,,completion,,,,,,,,,3,,,,,,,,O,I,S,,188086.84000000358,188085.03499999642,182788.632,182805.3549999604,182813.179,188092.723,,,
Sounds,html.Screen,0_3_3_0,2021-04-20T10:36:37.637Z,,,,,,,,,,,,,,,,,,,,,,,,,,,,,,4254.206000000006,,timeout,,,,,,,,,1,,,,,,,,S,I,O,,192332.55499997176,192330.726,188080.514,188087.0199999772,188092.723,192346.929,,,
Judgement,html.Screen,0_3_3_1,2021-04-20T10:36:38.960Z,,,,,,,,,,,,,,,,,,,,,,,,,,,true,1,,1306.7359999907203,,response,,,,,,,,,1,,1,click #choice-1,,,,,S,I,O,,193654.8049999983,193653.66499999072,192330.726,192332.6900000102,192346.929,193659.539,,,
Trial,flow.Sequence,0_3_3,2021-04-20T10:36:38.960Z,,,,,,,,,,,,,,,,,,,,,,,,,,,,,,5560.941999990726,,completion,,,,,,,,,1,,,,,,,,S,I,O,,193654.93499999866,193653.66499999072,188080.514,188086.96499996586,188092.723,193659.539,,,
Sounds,html.Screen,0_3_4_0,2021-04-20T10:36:43.203Z,,,,,,,,,,,,,,,,,,,,,,,,,,,,,,4254.611000000004,,timeout,,,,,,,,,1,,,,,,,,S,O,I,,197898.43999996083,197897.753,193646.94,193654.99999996973,193659.539,197914.15,,,
Judgement,html.Screen,0_3_4_1,2021-04-20T10:36:46.452Z,,,,,,,,,,,,,,,,,,,,,,,,,,,true,1,,3231.5249999779335,,response,,,,,,,,,1,,1,click #choice-1,,,,,S,O,I,,201147.0299999928,201145.67499997793,197897.753,197898.52499996778,197914.15,201160.392,,,
Trial,flow.Sequence,0_3_4,2021-04-20T10:36:46.452Z,,,,,,,,,,,,,,,,,,,,,,,,,,,,,,7486.135999977938,,completion,,,,,,,,,1,,,,,,,,S,O,I,,201147.45499996934,201145.67499997793,193646.94,193654.97999999207,193659.539,201160.392,,,
Sounds,html.Screen,0_3_5_0,2021-04-20T10:36:50.703Z,,,,,,,,,,,,,,,,,,,,,,,,,,,,,,4253.904999999999,,timeout,,,,,,,,,2,,,,,,,,I,S,O,,205398.52499996778,205397.622,201143.84,201147.63999998104,201160.392,205414.297,,,
Judgement,html.Screen,0_3_5_1,2021-04-20T10:36:51.630Z,,,,,,,,,,,,,,,,,,,,,,,,,,,true,2,,909.6529999908817,,response,,,,,,,,,2,,2,click #choice-2,,,,,I,S,O,,206324.78500000434,206323.94999999087,205397.622,205398.6900000018,205414.297,206347.869,,,
Trial,flow.Sequence,0_3_5,2021-04-20T10:36:51.630Z,,,,,,,,,,,,,,,,,,,,,,,,,,,,,,5163.5579999908805,,completion,,,,,,,,,2,,,,,,,,I,S,O,,206324.8850000091,206323.94999999087,201143.84,201147.59499998763,201160.392,206347.869,,,
Task,flow.Loop,0_3,2021-04-20T10:36:51.632Z,,,,,,,,,,,,,,,,,,,,,,,,,,,,,,35407.235999990866,,completion,,,1,,,,,,,,,,,,,,,,,,206327.22499995725,206323.94999999087,170904.17,170913.024999958,170916.714,206347.869,,,
Trap,html.Screen,0_4,2021-04-20T10:36:51.633Z,,,,,,,,,,,,,,,,,,,,,,,,,,,,,,NaN,,skipped,,,,,,,,,,,,,,,,,,,,,206328.39499996044,206323.94999999087,,206328.30499997362,,206347.869,,,
Thanks,html.Screen,0_5,2021-04-20T10:36:56.488Z,,,,,,,,,,,,,,,,,,,,,,,,,,,,,,4839.215999983193,,response,,,,,,,,,,,continue,click button,,,,,,,,,211188.6499999673,211187.0849999832,206330.996,206328.47000000766,206347.869,247824.861,,,
Headphone screening,flow.Sequence,0,2021-04-20T10:36:56.489Z,,,,,,,,,,,,,,,,,,,,,,,,,,,,,,203864.9799999832,,completion,,,,,,,,,,,,,,,,,,,,,211188.88999999035,211187.0849999832,7284.295,7295.60999997193,7322.105,247824.861,,,
Instructions,html.Page,1_0,2021-04-20T10:37:52.443Z,,,,,,,,,,,,,,,,,,,,,,,,,,,,,,19317.729000003106,,form submission,,,,,,,,,,,,,,,,,,,,,267143.22999998694,267142.5900000031,247808.967,247814.56500000786,247824.861,267163.647,,,
Holding screen,html.Screen,1_1_0_0,2021-04-20T10:38:02.452Z,,,,,,,,,,,,,,,,,,,,,,,,,,,,,,10000.364000000001,,timeout,,,,,,,,,,,,,,,,,,,,,277148.4300000011,277147.756,267146.976,267143.5150000034,267163.647,277164.011,,,
screen,html.Screen,1_1_0_1_0,2021-04-20T10:38:04.212Z,,,,,,,,,,,,,,,,53,,,,,,,,,,,,,,1741.058999978879,,response,,,,99,,,,,,,Space,keypress(Space),,,,,,,,When -- ----- -- ------ - ------- --- ----------<br>------------- ------ ------ ---- ---- ------- ----- -- ----<br>-------- ------- -- ---------- --- - --- ----- ----- ----<br>---- --- --- ----- --- ---- ---- ------- ----- ---- -------<br>--- --- -- ----- -- --- ---- -- --- ---- -- ------ ------<br>--- ----- -- ----,278908.78999995766,278905.0699999789,277147.756,277148.67999998387,277164.011,278914.333,,0,When
screen,html.Screen,1_1_0_1_1,2021-04-20T10:38:04.934Z,,,,,,,,,,,,,,,,53,,,,,,,,,,,,,,714.887000002549,,response,,,,99,,,,,,,Space,keypress(Space),,,,,,,,---- it ----- -- ------ - ------- --- ----------<br>------------- ------ ------ ---- ---- ------- ----- -- ----<br>-------- ------- -- ---------- --- - --- ----- ----- ----<br>---- --- --- ----- --- ---- ---- ------- ----- ---- -------<br>--- --- -- ----- -- --- ---- -- --- ---- -- ------ ------<br>--- ----- -- ----,279630.1000000094,279629.22000000253,278897.691,278909.02500000084,278914.333,279644.542,,1,it
screen,html.Screen,1_1_0_1_2,2021-04-20T10:38:05.480Z,,,,,,,,,,,,,,,,53,,,,,,,,,,,,,,530.9929999875603,,response,,,,99,,,,,,,Space,keypress(Space),,,,,,,,---- -- comes -- ------ - ------- --- ----------<br>------------- ------ ------ ---- ---- ------- ----- -- ----<br>-------- ------- -- ---------- --- - --- ----- ----- ----<br>---- --- --- ----- --- ---- ---- ------- ----- ---- -------<br>--- --- -- ----- -- --- ---- -- --- ---- -- ------ ------<br>--- ----- -- ----,280176.4499999699,280175.5349999876,279614.438,279630.26000000536,279644.542,280180.984,,2,comes
screen,html.Screen,1_1_0_1_3,2021-04-20T10:38:05.999Z,,,,,,,,,,,,,,,,53,,,,,,,,,,,,,,513.025999977428,,response,,,,99,,,,,,,Space,keypress(Space),,,,,,,,---- -- ----- to ------ - ------- --- ----------<br>------------- ------ ------ ---- ---- ------- ----- -- ----<br>-------- ------- -- ---------- --- - --- ----- ----- ----<br>---- --- --- ----- --- ---- ---- ------- ----- ---- -------<br>--- --- -- ----- -- --- ---- -- --- ---- -- ------ ------<br>--- ----- -- ----,280694.94499999564,280694.0099999774,280160.871,280176.6099999659,280180.984,280701.978,,3,to
screen,html.Screen,1_1_0_1_4,2021-04-20T10:38:06.444Z,,,,,,,,,,,,,,,,53,,,,,,,,,,,,,,437.9869999802904,,response,,,,99,,,,,,,Space,keypress(Space),,,,,,,,---- -- ----- -- having - ------- --- ----------<br>------------- ------ ------ ---- ---- ------- ----- -- ----<br>-------- ------- -- ---------- --- - --- ----- ----- ----<br>---- --- --- ----- --- ---- ---- ------- ----- ---- -------<br>--- --- -- ----- -- --- ---- -- --- ---- -- ------ ------<br>--- ----- -- ----,281140.7649999601,281139.9649999803,280681.28,280695.13000000734,280701.978,281160.784,,4,having
screen,html.Screen,1_1_0_1_5,2021-04-20T10:38:06.862Z,,,,,,,,,,,,,,,,53,,,,,,,,,,,,,,396.89599996898323,,response,,,,99,,,,,,,Space,keypress(Space),,,,,,,,---- -- ----- -- ------ a ------- --- ----------<br>------------- ------ ------ ---- ---- ------- ----- -- ----<br>-------- ------- -- ---------- --- - --- ----- ----- ----<br>---- --- --- ----- --- ---- ---- ------- ----- ---- -------<br>--- --- -- ----- -- --- ---- -- --- ---- -- ------ ------<br>--- ----- -- ----,281558.5349999601,281557.67999996897,281135.388,281140.9449999919,281160.784,281569.104,,5,a
screen,html.Screen,1_1_0_1_6,2021-04-20T10:38:07.292Z,,,,,,,,,,,,,,,,53,,,,,,,,,,,,,,418.48099999531405,,response,,,,99,,,,,,,Space,keypress(Space),,,,,,,,---- -- ----- -- ------ - lasting --- ----------<br>------------- ------ ------ ---- ---- ------- ----- -- ----<br>-------- ------- -- ---------- --- - --- ----- ----- ----<br>---- --- --- ----- --- ---- ---- ------- ----- ---- -------<br>--- --- -- ----- -- --- ---- -- --- ---- -- ------ ------<br>--- ----- -- ----,281988.629999978,281987.5849999953,281544.014,281558.71499999193,281569.104,282002.472,,6,lasting
screen,html.Screen,1_1_0_1_7,2021-04-20T10:38:07.692Z,,,,,,,,,,,,,,,,53,,,,,,,,,,,,,,384.8529999596649,,response,,,,99,,,,,,,Space,keypress(Space),,,,,,,,---- -- ----- -- ------ - ------- and ----------<br>------------- ------ ------ ---- ---- ------- ----- -- ----<br>-------- ------- -- ---------- --- - --- ----- ----- ----<br>---- --- --- ----- --- ---- ---- ------- ----- ---- -------<br>--- --- -- ----- -- --- ---- -- --- ---- -- ------ ------<br>--- ----- -- ----,282388.1699999911,282387.3249999597,281985.444,281988.79500001203,282002.472,282393.53,,7,and
screen,html.Screen,1_1_0_1_8,2021-04-20T10:38:08.139Z,,,,,,,,,,,,,,,,53,,,,,,,,,,,,,,440.589999955846,,response,,,,99,,,,,,,Space,keypress(Space),,,,,,,,---- -- ----- -- ------ - ------- --- fulfilling<br>------------- ------ ------ ---- ---- ------- ----- -- ----<br>-------- ------- -- ---------- --- - --- ----- ----- ----<br>---- --- --- ----- --- ---- ---- ------- ----- ---- -------<br>--- --- -- ----- -- --- ---- -- --- ---- -- ------ ------<br>--- ----- -- ----,282834.95499996934,282834.1199999559,282385.203,282388.340000005,282393.53,282847.801,,8,fulfilling
screen,html.Screen,1_1_0_1_9,2021-04-20T10:38:08.624Z,,,,,,,,,,,,,,,,53,,,,,,,,,,,,,,472.14899997552857,,response,,,,99,,,,,,,Space,keypress(Space),,,,,,,,"---- -- ----- -- ------ - ------- --- ----------<br>relationship, ------ ------ ---- ---- ------- ----- -- ----<br>-------- ------- -- ---------- --- - --- ----- ----- ----<br>---- --- --- ----- --- ---- ---- ------- ----- ---- -------<br>--- --- -- ----- -- --- ---- -- --- ---- -- ------ ------<br>--- ----- -- ----",283320.7199999597,283319.9499999755,282827.312,282835.1200000034,282847.801,283322.672,,9,"relationship,"
screen,html.Screen,1_1_0_1_10,2021-04-20T10:38:09.108Z,,,,,,,,,,,,,,,,53,,,,,,,,,,,,,,481.11799997626804,,response,,,,99,,,,,,,Space,keypress(Space),,,,,,,,---- -- ----- -- ------ - ------- --- ----------<br>------------- common ------ ---- ---- ------- ----- -- ----<br>-------- ------- -- ---------- --- - --- ----- ----- ----<br>---- --- --- ----- --- ---- ---- ------- ----- ---- -------<br>--- --- -- ----- -- --- ---- -- --- ---- -- ------ ------<br>--- ----- -- ----,283804.6899999608,283803.7899999763,283314.724,283320.87999995565,283322.672,283823.39,,10,common
screen,html.Screen,1_1_0_1_11,2021-04-20T10:38:09.573Z,,,,,,,,,,,,,,,,53,,,,,,,,,,,,,,444.8949999982724,,response,,,,99,,,,,,,Space,keypress(Space),,,,,,,,---- -- ----- -- ------ - ------- --- ----------<br>------------- ------ wisdom ---- ---- ------- ----- -- ----<br>-------- ------- -- ---------- --- - --- ----- ----- ----<br>---- --- --- ----- --- ---- ---- ------- ----- ---- -------<br>--- --- -- ----- -- --- ---- -- --- ---- -- ------ ------<br>--- ----- -- ----,284269.1749999649,284268.2849999983,283789.7,283804.8499999568,283823.39,284281.774,,11,wisdom
screen,html.Screen,1_1_0_1_12,2021-04-20T10:38:09.932Z,,,,,,,,,,,,,,,,53,,,,,,,,,,,,,,345.3009999676142,,response,,,,99,,,,,,,Space,keypress(Space),,,,,,,,---- -- ----- -- ------ - ------- --- ----------<br>------------- ------ ------ says ---- ------- ----- -- ----<br>-------- ------- -- ---------- --- - --- ----- ----- ----<br>---- --- --- ----- --- ---- ---- ------- ----- ---- -------<br>--- --- -- ----- -- --- ---- -- --- ---- -- ------ ------<br>--- ----- -- ----,284627.93999997666,284627.0749999676,284256.393,284269.3399999989,284281.774,284635.334,,12,says
screen,html.Screen,1_1_0_1_13,2021-04-20T10:38:10.324Z,,,,,,,,,,,,,,,,53,,,,,,,,,,,,,,384.51100000255974,,response,,,,99,,,,,,,Space,keypress(Space),,,,,,,,---- -- ----- -- ------ - ------- --- ----------<br>------------- ------ ------ ---- that ------- ----- -- ----<br>-------- ------- -- ---------- --- - --- ----- ----- ----<br>---- --- --- ----- --- ---- ---- ------- ----- ---- -------<br>--- --- -- ----- -- --- ---- -- --- ---- -- ------ ------<br>--- ----- -- ----,285020.69999999367,285019.84500000253,284615.026,284628.1050000107,284635.334,285031.803,,13,that
screen,html.Screen,1_1_0_1_14,2021-04-20T10:38:10.719Z,,,,,,,,,,,,,,,,53,,,,,,,,,,,,,,383.04199996293755,,response,,,,99,,,,,,,Space,keypress(Space),,,,,,,,---- -- ----- -- ------ - ------- --- ----------<br>------------- ------ ------ ---- ---- feeling ----- -- ----<br>-------- ------- -- ---------- --- - --- ----- ----- ----<br>---- --- --- ----- --- ---- ---- ------- ----- ---- -------<br>--- --- -- ----- -- --- ---- -- --- ---- -- ------ ------<br>--- ----- -- ----,285415.6649999786,285414.84499996295,285018.625,285020.8799999673,285031.803,285422.846,,14,feeling
screen,html.Screen,1_1_0_1_15,2021-04-20T10:38:11.148Z,,,,,,,,,,,,,,,,53,,,,,,,,,,,,,,420.4840000033146,,response,,,,99,,,,,,,Space,keypress(Space),,,,,,,,---- -- ----- -- ------ - ------- --- ----------<br>------------- ------ ------ ---- ---- ------- close -- ----<br>-------- ------- -- ---------- --- - --- ----- ----- ----<br>---- --- --- ----- --- ---- ---- ------- ----- ---- -------<br>--- --- -- ----- -- --- ---- -- --- ---- -- ------ ------<br>--- ----- -- ----,285844.1499999608,285843.33000000333,285415.047,285415.8349999925,285422.846,285856.838,,15,close
screen,html.Screen,1_1_0_1_16,2021-04-20T10:38:11.531Z,,,,,,,,,,,,,,,,53,,,,,,,,,,,,,,369.3419999978505,,response,,,,99,,,,,,,Space,keypress(Space),,,,,,,,---- -- ----- -- ------ - ------- --- ----------<br>------------- ------ ------ ---- ---- ------- ----- to ----<br>-------- ------- -- ---------- --- - --- ----- ----- ----<br>---- --- --- ----- --- ---- ---- ------- ----- ---- -------<br>--- --- -- ----- -- --- ---- -- --- ---- -- ------ ------<br>--- ----- -- ----,286227.05499996664,286226.17999999784,285839.559,285844.3349999725,285856.838,286231.225,,16,to
screen,html.Screen,1_1_0_1_17,2021-04-20T10:38:11.895Z,,,,,,,,,,,,,,,,53,,,,,,,,,,,,,,359.6849999699043,,response,,,,99,,,,,,,Space,keypress(Space),,,,,,,,---- -- ----- -- ------ - ------- --- ----------<br>------------- ------ ------ ---- ---- ------- ----- -- your<br>-------- ------- -- ---------- --- - --- ----- ----- ----<br>---- --- --- ----- --- ---- ---- ------- ----- ---- -------<br>--- --- -- ----- -- --- ---- -- --- ---- -- ------ ------<br>--- ----- -- ----,286591.8299999903,286590.9099999699,286223.408,286227.23999997834,286231.225,286602.706,,17,your
screen,html.Screen,1_1_0_1_18,2021-04-20T10:38:12.239Z,,,,,,,,,,,,,,,,53,,,,,,,,,,,,,,331.3789999571163,,response,,,,99,,,,,,,Space,keypress(Space),,,,,,,,---- -- ----- -- ------ - ------- --- ----------<br>------------- ------ ------ ---- ---- ------- ----- -- ----<br>romantic ------- -- ---------- --- - --- ----- ----- ----<br>---- --- --- ----- --- ---- ---- ------- ----- ---- -------<br>--- --- -- ----- -- --- ---- -- --- ---- -- ------ ------<br>--- ----- -- ----,286934.98499999987,286934.0849999571,286581.469,286591.9949999661,286602.706,286956.869,,18,romantic
screen,html.Screen,1_1_0_1_19,2021-04-20T10:38:12.592Z,,,,,,,,,,,,,,,,53,,,,,,,,,,,,,,330.90599997522077,,response,,,,99,,,,,,,Space,keypress(Space),,,,,,,,---- -- ----- -- ------ - ------- --- ----------<br>------------- ------ ------ ---- ---- ------- ----- -- ----<br>-------- partner -- ---------- --- - --- ----- ----- ----<br>---- --- --- ----- --- ---- ---- ------- ----- ---- -------<br>--- --- -- ----- -- --- ---- -- --- ---- -- ------ ------<br>--- ----- -- ----,287288.61499996856,287287.7749999752,286919.28,286935.1499999757,286956.869,287306.881,,19,partner
screen,html.Screen,1_1_0_1_20,2021-04-20T10:38:13.027Z,,,,,,,,,,,,,,,,53,,,,,,,,,,,,,,416.08900000253925,,response,,,,99,,,,,,,Space,keypress(Space),,,,,,,,---- -- ----- -- ------ - ------- --- ----------<br>------------- ------ ------ ---- ---- ------- ----- -- ----<br>-------- ------- is ---------- --- - --- ----- ----- ----<br>---- --- --- ----- --- ---- ---- ------- ----- ---- -------<br>--- --- -- ----- -- --- ---- -- --- ---- -- ------ ------<br>--- ----- -- ----,287723.8199999556,287722.97000000253,287273.003,287288.7800000026,287306.881,287739.744,,20,is
screen,html.Screen,1_1_0_1_21,2021-04-20T10:38:13.413Z,,,,,,,,,,,,,,,,53,,,,,,,,,,,,,,369.1810000077239,,response,,,,99,,,,,,,Space,keypress(Space),,,,,,,,---- -- ----- -- ------ - ------- --- ----------<br>------------- ------ ------ ---- ---- ------- ----- -- ----<br>-------- ------- -- paramount. --- - --- ----- ----- ----<br>---- --- --- ----- --- ---- ---- ------- ----- ---- -------<br>--- --- -- ----- -- --- ---- -- --- ---- -- ------ ------<br>--- ----- -- ----,288109.84499996994,288108.92500000773,287723.764,287723.9849999896,287739.744,288131.946,,21,paramount.
screen,html.Screen,1_1_0_1_22,2021-04-20T10:38:13.961Z,,,,,,,,,,,,,,,,53,,,,,,,,,,,,,,524.6089999941178,,response,,,,99,,,,,,,Space,keypress(Space),,,,,,,,---- -- ----- -- ------ - ------- --- ----------<br>------------- ------ ------ ---- ---- ------- ----- -- ----<br>-------- ------- -- ---------- But - --- ----- ----- ----<br>---- --- --- ----- --- ---- ---- ------- ----- ---- -------<br>--- --- -- ----- -- --- ---- -- --- ---- -- ------ ------<br>--- ----- -- ----,288657.48499997426,288656.5549999941,288106.541,288110.01000000397,288131.946,288669.197,,22,But
screen,html.Screen,1_1_0_1_23,2021-04-20T10:38:14.340Z,,,,,,,,,,,,,,,,53,,,,,,,,,,,,,,366.6180000102031,,response,,,,99,,,,,,,Space,keypress(Space),,,,,,,,---- -- ----- -- ------ - ------- --- ----------<br>------------- ------ ------ ---- ---- ------- ----- -- ----<br>-------- ------- -- ---------- --- a --- ----- ----- ----<br>---- --- --- ----- --- ---- ---- ------- ----- ---- -------<br>--- --- -- ----- -- --- ---- -- --- ---- -- ------ ------<br>--- ----- -- ----,289036.8599999929,289035.8150000102,288648.517,288657.7199999592,288669.197,289039.666,,23,a
screen,html.Screen,1_1_0_1_24,2021-04-20T10:38:14.677Z,,,,,,,,,,,,,,,,53,,,,,,,,,,,,,,333.48399999941466,,response,,,,99,,,,,,,Space,keypress(Space),,,,,,,,---- -- ----- -- ------ - ------- --- ----------<br>------------- ------ ------ ---- ---- ------- ----- -- ----<br>-------- ------- -- ---------- --- - new ----- ----- ----<br>---- --- --- ----- --- ---- ---- ------- ----- ---- -------<br>--- --- -- ----- -- --- ---- -- --- ---- -- ------ ------<br>--- ----- -- ----,289373.8599999924,289373.14999999944,289036.018,289037.13000001153,289039.666,289389.769,,24,new
screen,html.Screen,1_1_0_1_25,2021-04-20T10:38:15.067Z,,,,,,,,,,,,,,,,53,,,,,,,,,,,,,,372.64099996665027,,response,,,,99,,,,,,,Space,keypress(Space),,,,,,,,---- -- ----- -- ------ - ------- --- ----------<br>------------- ------ ------ ---- ---- ------- ----- -- ----<br>-------- ------- -- ---------- --- - --- study ----- ----<br>---- --- --- ----- --- ---- ---- ------- ----- ---- -------<br>--- --- -- ----- -- --- ---- -- --- ---- -- ------ ------<br>--- ----- -- ----,289763.29500001157,289762.4099999666,289373.248,289374.08499995945,289389.769,289781.993,,25,study
screen,html.Screen,1_1_0_1_26,2021-04-20T10:38:15.354Z,,,,,,,,,,,,,,,,53,,,,,,,,,,,,,,267.9719999546651,,response,,,,99,,,,,,,Space,keypress(Space),,,,,,,,---- -- ----- -- ------ - ------- --- ----------<br>------------- ------ ------ ---- ---- ------- ----- -- ----<br>-------- ------- -- ---------- --- - --- ----- finds ----<br>---- --- --- ----- --- ---- ---- ------- ----- ---- -------<br>--- --- -- ----- -- --- ---- -- --- ---- -- ------ ------<br>--- ----- -- ----,290050.86499999743,290049.9649999547,289756.366,289763.48500000313,289781.993,290068.976,,26,finds
screen,html.Screen,1_1_0_1_27,2021-04-20T10:38:15.786Z,,,,,,,,,,,,,,,,53,,,,,,,,,,,,,,412.78899997496046,,response,,,,99,,,,,,,Space,keypress(Space),,,,,,,,---- -- ----- -- ------ - ------- --- ----------<br>------------- ------ ------ ---- ---- ------- ----- -- ----<br>-------- ------- -- ---------- --- - --- ----- ----- that<br>---- --- --- ----- --- ---- ---- ------- ----- ---- -------<br>--- --- -- ----- -- --- ---- -- --- ---- -- ------ ------<br>--- ----- -- ----,290482.78999998,290481.764999975,290048.655,290051.0399999912,290068.976,290485.578,,27,that
screen,html.Screen,1_1_0_1_28,2021-04-20T10:38:16.281Z,,,,,,,,,,,,,,,,53,,,,,,,,,,,,,,491.25699997949414,,response,,,,99,,,,,,,Space,keypress(Space),,,,,,,,---- -- ----- -- ------ - ------- --- ----------<br>------------- ------ ------ ---- ---- ------- ----- -- ----<br>-------- ------- -- ---------- --- - --- ----- ----- ----<br>it's --- --- ----- --- ---- ---- ------- ----- ---- -------<br>--- --- -- ----- -- --- ---- -- --- ---- -- ------ ------<br>--- ----- -- ----,290977.7199999662,290976.8349999795,290469.199,290482.9899999895,290485.578,290981.422,,28,it's
screen,html.Screen,1_1_0_1_29,2021-04-20T10:38:16.673Z,,,,,,,,,,,,,,,,53,,,,,,,,,,,,,,387.90299997781403,,response,,,,99,,,,,,,Space,keypress(Space),,,,,,,,---- -- ----- -- ------ - ------- --- ----------<br>------------- ------ ------ ---- ---- ------- ----- -- ----<br>-------- ------- -- ---------- --- - --- ----- ----- ----<br>---- not --- ----- --- ---- ---- ------- ----- ---- -------<br>--- --- -- ----- -- --- ---- -- --- ---- -- ------ ------<br>--- ----- -- ----,291369.8549999972,291369.32499997783,290969.194,290977.8899999801,290981.422,291377.495,,29,not
screen,html.Screen,1_1_0_1_30,2021-04-20T10:38:17.433Z,,,,,,,,,,,,,,,,53,,,,,,,,,,,,,,750.9249999645399,,response,,,,99,,,,,,,Space,keypress(Space),,,,,,,,---- -- ----- -- ------ - ------- --- ----------<br>------------- ------ ------ ---- ---- ------- ----- -- ----<br>-------- ------- -- ---------- --- - --- ----- ----- ----<br>---- --- how ----- --- ---- ---- ------- ----- ---- -------<br>--- --- -- ----- -- --- ---- -- --- ---- -- ------ ------<br>--- ----- -- ----,292129.27999999374,292128.41999996454,291365.025,291369.94000000414,291377.495,292139.84,,30,how
screen,html.Screen,1_1_0_1_31,2021-04-20T10:38:17.904Z,,,,,,,,,,,,,,,,53,,,,,,,,,,,,,,459.99999998073326,,response,,,,99,,,,,,,Space,keypress(Space),,,,,,,,---- -- ----- -- ------ - ------- --- ----------<br>------------- ------ ------ ---- ---- ------- ----- -- ----<br>-------- ------- -- ---------- --- - --- ----- ----- ----<br>---- --- --- close --- ---- ---- ------- ----- ---- -------<br>--- --- -- ----- -- --- ---- -- --- ---- -- ------ ------<br>--- ----- -- ----,292600.7249999675,292599.83999998076,292127.481,292129.5149999787,292139.84,292615.471,,31,close
screen,html.Screen,1_1_0_1_32,2021-04-20T10:38:18.335Z,,,,,,,,,,,,,,,,53,,,,,,,,,,,,,,415.033999973326,,response,,,,99,,,,,,,Space,keypress(Space),,,,,,,,---- -- ----- -- ------ - ------- --- ----------<br>------------- ------ ------ ---- ---- ------- ----- -- ----<br>-------- ------- -- ---------- --- - --- ----- ----- ----<br>---- --- --- ----- you ---- ---- ------- ----- ---- -------<br>--- --- -- ----- -- --- ---- -- --- ---- -- ------ ------<br>--- ----- -- ----,293031.2949999934,293030.50499997335,292590.061,292600.8900000015,292615.471,293069.458,,32,you
screen,html.Screen,1_1_0_1_33,2021-04-20T10:38:18.756Z,,,,,,,,,,,,,,,,53,,,,,,,,,,,,,,382.0919999979669,,response,,,,99,,,,,,,Space,keypress(Space),,,,,,,,---- -- ----- -- ------ - ------- --- ----------<br>------------- ------ ------ ---- ---- ------- ----- -- ----<br>-------- ------- -- ---------- --- - --- ----- ----- ----<br>---- --- --- ----- --- feel ---- ------- ----- ---- -------<br>--- --- -- ----- -- --- ---- -- --- ---- -- ------ ------<br>--- ----- -- ----,293452.4450000026,293451.54999999795,293052.799,293031.4650000073,293069.458,293460.767,,33,feel
screen,html.Screen,1_1_0_1_34,2021-04-20T10:38:19.188Z,,,,,,,,,,,,,,,,53,,,,,,,,,,,,,,422.3929999684915,,response,,,,99,,,,,,,Space,keypress(Space),,,,,,,,---- -- ----- -- ------ - ------- --- ----------<br>------------- ------ ------ ---- ---- ------- ----- -- ----<br>-------- ------- -- ---------- --- - --- ----- ----- ----<br>---- --- --- ----- --- ---- that ------- ----- ---- -------<br>--- --- -- ----- -- --- ---- -- --- ---- -- ------ ------<br>--- ----- -- ----,293884.2799999984,293883.1599999685,293452.387,293454.14499996696,293460.767,293894.736,,34,that
screen,html.Screen,1_1_0_1_35,2021-04-20T10:38:19.642Z,,,,,,,,,,,,,,,,53,,,,,,,,,,,,,,442.9689999544644,,response,,,,99,,,,,,,Space,keypress(Space),,,,,,,,---- -- ----- -- ------ - ------- --- ----------<br>------------- ------ ------ ---- ---- ------- ----- -- ----<br>-------- ------- -- ---------- --- - --- ----- ----- ----<br>---- --- --- ----- --- ---- ---- matters ----- ---- -------<br>--- --- -- ----- -- --- ---- -- --- ---- -- ------ ------<br>--- ----- -- ----,294338.5549999657,294337.70499995444,293877.751,293884.45499999216,293894.736,294348.922,,35,matters
screen,html.Screen,1_1_0_1_36,2021-04-20T10:38:20.021Z,,,,,,,,,,,,,,,,53,,,,,,,,,,,,,,367.6779999851715,,response,,,,99,,,,,,,Space,keypress(Space),,,,,,,,"---- -- ----- -- ------ - ------- --- ----------<br>------------- ------ ------ ---- ---- ------- ----- -- ----<br>-------- ------- -- ---------- --- - --- ----- ----- ----<br>---- --- --- ----- --- ---- ---- ------- most, ---- -------<br>--- --- -- ----- -- --- ---- -- --- ---- -- ------ ------<br>--- ----- -- ----",294717.43499999866,294716.5999999852,294327.98,294338.7099999818,294348.922,294723.19,,36,"most,"
screen,html.Screen,1_1_0_1_37,2021-04-20T10:38:20.460Z,,,,,,,,,,,,,,,,53,,,,,,,,,,,,,,431.8799999788753,,response,,,,99,,,,,,,Space,keypress(Space),,,,,,,,---- -- ----- -- ------ - ------- --- ----------<br>------------- ------ ------ ---- ---- ------- ----- -- ----<br>-------- ------- -- ---------- --- - --- ----- ----- ----<br>---- --- --- ----- --- ---- ---- ------- ----- it's -------<br>--- --- -- ----- -- --- ---- -- --- ---- -- ------ ------<br>--- ----- -- ----,295155.9849999612,295155.0699999789,294715.497,294717.5999999745,294723.19,295195.329,,37,it's
screen,html.Screen,1_1_0_1_38,2021-04-20T10:38:20.910Z,,,,,,,,,,,,,,,,53,,,,,,,,,,,,,,410.12099997361656,,response,,,,99,,,,,,,Space,keypress(Space),,,,,,,,---- -- ----- -- ------ - ------- --- ----------<br>------------- ------ ------ ---- ---- ------- ----- -- ----<br>-------- ------- -- ---------- --- - --- ----- ----- ----<br>---- --- --- ----- --- ---- ---- ------- ----- ---- whether<br>--- --- -- ----- -- --- ---- -- --- ---- -- ------ ------<br>--- ----- -- ----,295606.3349999604,295605.44999997364,295178.107,295156.14999999525,295195.329,295628.158,,38,whether
screen,html.Screen,1_1_0_1_39,2021-04-20T10:38:21.281Z,,,,,,,,,,,,,,,,53,,,,,,,,,,,,,,347.95199998869793,,response,,,,99,,,,,,,Space,keypress(Space),,,,,,,,---- -- ----- -- ------ - ------- --- ----------<br>------------- ------ ------ ---- ---- ------- ----- -- ----<br>-------- ------- -- ---------- --- - --- ----- ----- ----<br>---- --- --- ----- --- ---- ---- ------- ----- ---- -------<br>you --- -- ----- -- --- ---- -- --- ---- -- ------ ------<br>--- ----- -- ----,295977.0150000113,295976.1099999887,295594.72,295606.4999999944,295628.158,295998.997,,39,you
screen,html.Screen,1_1_0_1_40,2021-04-20T10:38:21.637Z,,,,,,,,,,,,,,,,53,,,,,,,,,,,,,,333.25799995753914,,response,,,,99,,,,,,,Space,keypress(Space),,,,,,,,---- -- ----- -- ------ - ------- --- ----------<br>------------- ------ ------ ---- ---- ------- ----- -- ----<br>-------- ------- -- ---------- --- - --- ----- ----- ----<br>---- --- --- ----- --- ---- ---- ------- ----- ---- -------<br>--- are -- ----- -- --- ---- -- --- ---- -- ------ ------<br>--- ----- -- ----,296333.18999997573,296332.2549999575,295961.456,295977.184999967,295998.997,296348.826,,40,are
screen,html.Screen,1_1_0_1_41,2021-04-20T10:38:21.951Z,,,,,,,,,,,,,,,,53,,,,,,,,,,,,,,297.709000007133,,response,,,,99,,,,,,,Space,keypress(Space),,,,,,,,---- -- ----- -- ------ - ------- --- ----------<br>------------- ------ ------ ---- ---- ------- ----- -- ----<br>-------- ------- -- ---------- --- - --- ----- ----- ----<br>---- --- --- ----- --- ---- ---- ------- ----- ---- -------<br>--- --- as ----- -- --- ---- -- --- ---- -- ------ ------<br>--- ----- -- ----,296647.45499996934,296646.53500000713,296332.508,296333.3449999918,296348.826,296656.718,,41,as
screen,html.Screen,1_1_0_1_42,2021-04-20T10:38:22.301Z,,,,,,,,,,,,,,,,53,,,,,,,,,,,,,,339.7619999725139,,response,,,,99,,,,,,,Space,keypress(Space),,,,,,,,---- -- ----- -- ------ - ------- --- ----------<br>------------- ------ ------ ---- ---- ------- ----- -- ----<br>-------- ------- -- ---------- --- - --- ----- ----- ----<br>---- --- --- ----- --- ---- ---- ------- ----- ---- -------<br>--- --- -- close -- --- ---- -- --- ---- -- ------ ------<br>--- ----- -- ----,296997.2049999633,296996.4799999725,296632.252,296647.6200000034,296656.718,297006.792,,42,close
screen,html.Screen,1_1_0_1_43,2021-04-20T10:38:22.644Z,,,,,,,,,,,,,,,,53,,,,,,,,,,,,,,333.19800000765827,,response,,,,99,,,,,,,Space,keypress(Space),,,,,,,,---- -- ----- -- ------ - ------- --- ----------<br>------------- ------ ------ ---- ---- ------- ----- -- ----<br>-------- ------- -- ---------- --- - --- ----- ----- ----<br>---- --- --- ----- --- ---- ---- ------- ----- ---- -------<br>--- --- -- ----- as --- ---- -- --- ---- -- ------ ------<br>--- ----- -- ----,297340.8949999721,297339.9900000077,296990.186,296997.389999975,297006.792,297357.094,,43,as
screen,html.Screen,1_1_0_1_44,2021-04-20T10:38:22.975Z,,,,,,,,,,,,,,,,53,,,,,,,,,,,,,,313.6159999766969,,response,,,,99,,,,,,,Space,keypress(Space),,,,,,,,---- -- ----- -- ------ - ------- --- ----------<br>------------- ------ ------ ---- ---- ------- ----- -- ----<br>-------- ------- -- ---------- --- - --- ----- ----- ----<br>---- --- --- ----- --- ---- ---- ------- ----- ---- -------<br>--- --- -- ----- -- you ---- -- --- ---- -- ------ ------<br>--- ----- -- ----,297671.6099999612,297670.7099999767,297340.01,297341.0450000083,297357.094,297685.885,,44,you
screen,html.Screen,1_1_0_1_45,2021-04-20T10:38:23.301Z,,,,,,,,,,,,,,,,53,,,,,,,,,,,,,,310.289999978384,,response,,,,99,,,,,,,Space,keypress(Space),,,,,,,,---- -- ----- -- ------ - ------- --- ----------<br>------------- ------ ------ ---- ---- ------- ----- -- ----<br>-------- ------- -- ---------- --- - --- ----- ----- ----<br>---- --- --- ----- --- ---- ---- ------- ----- ---- -------<br>--- --- -- ----- -- --- want -- --- ---- -- ------ ------<br>--- ----- -- ----,297997.04499996733,297996.1749999784,297656.828,297671.7649999773,297685.885,298015.24,,45,want
screen,html.Screen,1_1_0_1_46,2021-04-20T10:38:23.617Z,,,,,,,,,,,,,,,,53,,,,,,,,,,,,,,297.4649999893736,,response,,,,99,,,,,,,Space,keypress(Space),,,,,,,,---- -- ----- -- ------ - ------- --- ----------<br>------------- ------ ------ ---- ---- ------- ----- -- ----<br>-------- ------- -- ---------- --- - --- ----- ----- ----<br>---- --- --- ----- --- ---- ---- ------- ----- ---- -------<br>--- --- -- ----- -- --- ---- to --- ---- -- ------ ------<br>--- ----- -- ----,298313.57999995816,298312.70499998936,297985.924,297997.1999999834,298015.24,298328.243,,46,to
screen,html.Screen,1_1_0_1_47,2021-04-20T10:38:23.921Z,,,,,,,,,,,,,,,,53,,,,,,,,,,,,,,287.9520000095945,,response,,,,99,,,,,,,Space,keypress(Space),,,,,,,,"---- -- ----- -- ------ - ------- --- ----------<br>------------- ------ ------ ---- ---- ------- ----- -- ----<br>-------- ------- -- ---------- --- - --- ----- ----- ----<br>---- --- --- ----- --- ---- ---- ------- ----- ---- -------<br>--- --- -- ----- -- --- ---- -- be, ---- -- ------ ------<br>--- ----- -- ----",298617.024999985,298616.1950000096,298298.731,298313.73499997426,298328.243,298619.312,,47,"be,"
screen,html.Screen,1_1_0_1_48,2021-04-20T10:38:24.460Z,,,,,,,,,,,,,,,,53,,,,,,,,,,,,,,535.7429999810993,,response,,,,99,,,,,,,Space,keypress(Space),,,,,,,,---- -- ----- -- ------ - ------- --- ----------<br>------------- ------ ------ ---- ---- ------- ----- -- ----<br>-------- ------- -- ---------- --- - --- ----- ----- ----<br>---- --- --- ----- --- ---- ---- ------- ----- ---- -------<br>--- --- -- ----- -- --- ---- -- --- even -- ------ ------<br>--- ----- -- ----,299155.9549999656,299155.0549999811,298611.202,298617.1800000011,298619.312,299178.315,,48,even
screen,html.Screen,1_1_0_1_49,2021-04-20T10:38:24.734Z,,,,,,,,,,,,,,,,53,,,,,,,,,,,,,,251.31499996961793,,response,,,,99,,,,,,,Space,keypress(Space),,,,,,,,---- -- ----- -- ------ - ------- --- ----------<br>------------- ------ ------ ---- ---- ------- ----- -- ----<br>-------- ------- -- ---------- --- - --- ----- ----- ----<br>---- --- --- ----- --- ---- ---- ------- ----- ---- -------<br>--- --- -- ----- -- --- ---- -- --- ---- if ------ ------<br>--- ----- -- ----,299430.4899999988,299429.6299999696,299153.069,299156.10500000184,299178.315,299449.156,,49,if
screen,html.Screen,1_1_0_1_50,2021-04-20T10:38:24.982Z,,,,,,,,,,,,,,,,53,,,,,,,,,,,,,,228.21899997018045,,response,,,,99,,,,,,,Space,keypress(Space),,,,,,,,---- -- ----- -- ------ - ------- --- ----------<br>------------- ------ ------ ---- ---- ------- ----- -- ----<br>-------- ------- -- ---------- --- - --- ----- ----- ----<br>---- --- --- ----- --- ---- ---- ------- ----- ---- -------<br>--- --- -- ----- -- --- ---- -- --- ---- -- that's ------<br>--- ----- -- ----,299678.25999995694,299677.3749999702,299428.226,299430.6599999545,299449.156,299694.681,,50,that's
screen,html.Screen,1_1_0_1_51,2021-04-20T10:38:25.316Z,,,,,,,,,,,,,,,,53,,,,,,,,,,,,,,316.56899998139124,,response,,,,99,,,,,,,Space,keypress(Space),,,,,,,,---- -- ----- -- ------ - ------- --- ----------<br>------------- ------ ------ ---- ---- ------- ----- -- ----<br>-------- ------- -- ---------- --- - --- ----- ----- ----<br>---- --- --- ----- --- ---- ---- ------- ----- ---- -------<br>--- --- -- ----- -- --- ---- -- --- ---- -- ------ really<br>--- ----- -- ----,300012.17499998165,300011.2499999814,299665.739,299678.40999999316,299694.681,300024.175,,51,really
screen,html.Screen,1_1_0_1_52,2021-04-20T10:38:25.696Z,,,,,,,,,,,,,,,,53,,,,,,,,,,,,,,366.91499999008374,,response,,,,99,,,,,,,Space,keypress(Space),,,,,,,,---- -- ----- -- ------ - ------- --- ----------<br>------------- ------ ------ ---- ---- ------- ----- -- ----<br>-------- ------- -- ---------- --- - --- ----- ----- ----<br>---- --- --- ----- --- ---- ---- ------- ----- ---- -------<br>--- --- -- ----- -- --- ---- -- --- ---- -- ------ ------<br>not ----- -- ----,300391.9799999567,300391.0899999901,300010.963,300012.3199999798,300024.175,300394.394,,52,not
screen,html.Screen,1_1_0_1_53,2021-04-20T10:38:25.995Z,,,,,,,,,,,,,,,,53,,,,,,,,,,,,,,296.3259999550646,,response,,,,99,,,,,,,Space,keypress(Space),,,,,,,,---- -- ----- -- ------ - ------- --- ----------<br>------------- ------ ------ ---- ---- ------- ----- -- ----<br>-------- ------- -- ---------- --- - --- ----- ----- ----<br>---- --- --- ----- --- ---- ---- ------- ----- ---- -------<br>--- --- -- ----- -- --- ---- -- --- ---- -- ------ ------<br>--- close -- ----,300691.6299999575,300690.71999995504,300390.737,300392.13499997277,300394.394,300707.015,,53,close
screen,html.Screen,1_1_0_1_54,2021-04-20T10:38:26.540Z,,,,,,,,,,,,,,,,53,,,,,,,,,,,,,,528.7099999767961,,response,,,,99,,,,,,,Space,keypress(Space),,,,,,,,---- -- ----- -- ------ - ------- --- ----------<br>------------- ------ ------ ---- ---- ------- ----- -- ----<br>-------- ------- -- ---------- --- - --- ----- ----- ----<br>---- --- --- ----- --- ---- ---- ------- ----- ---- -------<br>--- --- -- ----- -- --- ---- -- --- ---- -- ------ ------<br>--- ----- at ----,301236.54999997234,301235.7249999768,300677.963,300691.77999999374,300707.015,301244.504,,54,at
screen,html.Screen,1_1_0_1_55,2021-04-20T10:38:26.905Z,,,,,,,,,,,,,,,,53,,,,,,,,,,,,,,356.29099997662706,,response,,,,99,,,,,,,Space,keypress(Space),,,,,,,,---- -- ----- -- ------ - ------- --- ----------<br>------------- ------ ------ ---- ---- ------- ----- -- ----<br>-------- ------- -- ---------- --- - --- ----- ----- ----<br>---- --- --- ----- --- ---- ---- ------- ----- ---- -------<br>--- --- -- ----- -- --- ---- -- --- ---- -- ------ ------<br>--- ----- -- all.,301601.7550000106,301600.79499997664,301224.107,301236.68999999063,301244.504,301615.569,,55,all.
Item 99,flow.Loop,1_1_0_1,2021-04-20T10:38:26.906Z,,,,,,,,,,,,,,,,,,,,,,,,,,,,,,24436.783999976644,,completion,,,,,E,,,,,,,,,,,silence,,,,,301602.0900000003,301600.79499997664,277147.756,277148.6099999747,277164.011,301615.569,,,
Question 1,html.Screen,1_1_0_2,2021-04-20T10:38:30.464Z,,,,,,,,,,,,,,,,,,,,,,,,,,,true,FALSE,,3543.4959999561543,,response,,,,99,E,,,,,,FALSE,click #choice-2,,,,silence,,,,,305160.48500000034,305159.0649999562,301594.956,301602.22499998054,301615.569,305165.449,,,
Question 2,html.Screen,1_1_0_3,2021-04-20T10:38:34.242Z,,,,,,,,,,,,,,,,,,,,,,,,,,,true,TRUE,,3771.631000003312,,response,,,,99,E,,,,,,TRUE,click #choice-1,,,,silence,,,,,308938.2999999798,308937.08000000333,305157.475,305160.64999997616,305165.449,308948.974,,,
Item 99,flow.Sequence,1_1_0,2021-04-20T10:38:34.242Z,,,,,,,,,,,,,,,,,,,,,,,,,,,,,,41773.43300000334,,completion,,,,,,,,,,,,,,,,,,,,,308938.610000012,308937.08000000333,267146.976,267143.47499998985,267163.647,308948.974,,,
Holding screen,html.Screen,1_1_1_0,2021-04-20T10:38:44.233Z,,,,,,,,,,,,,,,,,,,,,,,,,,,,,,9996.331999999995,,timeout,,,,,,,,,,,,,,,,,,,,,318929.46999997366,318928.845,308937.474,308938.75999999,308948.974,318945.306,,,
screen,html.Screen,1_1_1_1_0,2021-04-20T10:38:44.805Z,,,,,,,,,,,,,,,,54,,,,,,,,,,,,,,555.7139999669744,,response,,,,100,,,,,,,Space,keypress(Space),,,,,,,,At --- ---- --- ------ ----- ------- ---- -- --- ------- --<br>------- ---------- ------ -- ----- -- ----- -- ---- ------<br>--- ----- --- --- ------ -------- ----- --- ------ ----- --<br>----- ----- ---------- --- --- ------ ------ ---- -- ------<br>------- --- ------ ----- --- ---- ------- -- ---- --- --<br>------- ------,319501.85000000056,319501.01999996696,318928.845,318929.66999998316,318945.306,319507.763,,0,At
screen,html.Screen,1_1_1_1_1,2021-04-20T10:38:45.151Z,,,,,,,,,,,,,,,,54,,,,,,,,,,,,,,338.9819999880274,,response,,,,100,,,,,,,Space,keypress(Space),,,,,,,,-- the ---- --- ------ ----- ------- ---- -- --- ------- --<br>------- ---------- ------ -- ----- -- ----- -- ---- ------<br>--- ----- --- --- ------ -------- ----- --- ------ ----- --<br>----- ----- ---------- --- --- ------ ------ ---- -- ------<br>------- --- ------ ----- --- ---- ------- -- ---- --- --<br>------- ------,319847.56999998353,319846.744999988,319495.777,319502.00499995844,319507.763,319858.417,,1,the
screen,html.Screen,1_1_1_1_2,2021-04-20T10:38:45.500Z,,,,,,,,,,,,,,,,54,,,,,,,,,,,,,,337.14800000179093,,response,,,,100,,,,,,,Space,keypress(Space),,,,,,,,-- --- time --- ------ ----- ------- ---- -- --- ------- --<br>------- ---------- ------ -- ----- -- ----- -- ---- ------<br>--- ----- --- --- ------ -------- ----- --- ------ ----- --<br>----- ----- ---------- --- --- ------ ------ ---- -- ------<br>------- --- ------ ----- --- ---- ------- -- ---- --- --<br>------- ------,320196.38499995926,320195.5650000018,319841.329,319847.7249999996,319858.417,320211.925,,2,time
screen,html.Screen,1_1_1_1_3,2021-04-20T10:38:45.914Z,,,,,,,,,,,,,,,,54,,,,,,,,,,,,,,397.7249999985215,,response,,,,100,,,,,,,Space,keypress(Space),,,,,,,,-- --- ---- the ------ ----- ------- ---- -- --- ------- --<br>------- ---------- ------ -- ----- -- ----- -- ---- ------<br>--- ----- --- --- ------ -------- ----- --- ------ ----- --<br>----- ----- ---------- --- --- ------ ------ ---- -- ------<br>------- --- ------ ----- --- ---- ------- -- ---- --- --<br>------- ------,320610.47499999404,320609.6499999985,320191.663,320196.5349999955,320211.925,320629.279,,3,the
screen,html.Screen,1_1_1_1_4,2021-04-20T10:38:46.261Z,,,,,,,,,,,,,,,,54,,,,,,,,,,,,,,327.79100000404287,,response,,,,100,,,,,,,Space,keypress(Space),,,,,,,,-- --- ---- --- French ----- ------- ---- -- --- ------- --<br>------- ---------- ------ -- ----- -- ----- -- ---- ------<br>--- ----- --- --- ------ -------- ----- --- ------ ----- --<br>----- ----- ---------- --- --- ------ ------ ---- -- ------<br>------- --- ------ ----- --- ---- ------- -- ---- --- --<br>------- ------,320957.8249999904,320957.070000004,320595.844,320610.62499997206,320629.279,320979.291,,4,French
screen,html.Screen,1_1_1_1_5,2021-04-20T10:38:46.658Z,,,,,,,,,,,,,,,,54,,,,,,,,,,,,,,373.9889999811421,,response,,,,100,,,,,,,Space,keypress(Space),,,,,,,,-- --- ---- --- ------ crown ------- ---- -- --- ------- --<br>------- ---------- ------ -- ----- -- ----- -- ---- ------<br>--- ----- --- --- ------ -------- ----- --- ------ ----- --<br>----- ----- ---------- --- --- ------ ------ ---- -- ------<br>------- --- ------ ----- --- ---- ------- -- ---- --- --<br>------- ------,321354.11499999464,321353.27999998117,320945.648,320957.9650000087,320979.291,321370.678,,5,crown
screen,html.Screen,1_1_1_1_6,2021-04-20T10:38:47.130Z,,,,,,,,,,,,,,,,54,,,,,,,,,,,,,,454.8469999929075,,response,,,,100,,,,,,,Space,keypress(Space),,,,,,,,-- --- ---- --- ------ ----- secured ---- -- --- ------- --<br>------- ---------- ------ -- ----- -- ----- -- ---- ------<br>--- ----- --- --- ------ -------- ----- --- ------ ----- --<br>----- ----- ---------- --- --- ------ ------ ---- -- ------<br>------- --- ------ ----- --- ---- ------- -- ---- --- --<br>------- ------,321826.34999998845,321825.5249999929,321345.873,321354.26499997266,321370.678,321846.023,,6,secured
screen,html.Screen,1_1_1_1_7,2021-04-20T10:38:47.483Z,,,,,,,,,,,,,,,,54,,,,,,,,,,,,,,332.7269999627606,,response,,,,100,,,,,,,Space,keypress(Space),,,,,,,,-- --- ---- --- ------ ----- ------- much -- --- ------- --<br>------- ---------- ------ -- ----- -- ----- -- ---- ------<br>--- ----- --- --- ------ -------- ----- --- ------ ----- --<br>----- ----- ---------- --- --- ------ ------ ---- -- ------<br>------- --- ------ ----- --- ---- ------- -- ---- --- --<br>------- ------,322179.5699999784,322178.74999996275,321820.889,321826.53500000015,321846.023,322195.491,,7,much
screen,html.Screen,1_1_1_1_8,2021-04-20T10:38:47.934Z,,,,,,,,,,,,,,,,54,,,,,,,,,,,,,,433.82900000730297,,response,,,,100,,,,,,,Space,keypress(Space),,,,,,,,-- --- ---- --- ------ ----- ------- ---- of --- ------- --<br>------- ---------- ------ -- ----- -- ----- -- ---- ------<br>--- ----- --- --- ------ -------- ----- --- ------ ----- --<br>----- ----- ---------- --- --- ------ ------ ---- -- ------<br>------- --- ------ ----- --- ---- ------- -- ---- --- --<br>------- ------,322630.2099999739,322629.3200000073,322179.269,322179.71999995643,322195.491,322649.555,,8,of
screen,html.Screen,1_1_1_1_9,2021-04-20T10:38:48.310Z,,,,,,,,,,,,,,,,54,,,,,,,,,,,,,,355.87999999913154,,response,,,,100,,,,,,,Space,keypress(Space),,,,,,,,-- --- ---- --- ------ ----- ------- ---- -- its ------- --<br>------- ---------- ------ -- ----- -- ----- -- ---- ------<br>--- ----- --- --- ------ -------- ----- --- ------ ----- --<br>----- ----- ---------- --- --- ------ ------ ---- -- ------<br>------- --- ------ ----- --- ---- ------- -- ---- --- --<br>------- ------,323006.31999998586,323005.4349999991,322629.256,322630.3600000101,322649.555,323021.145,,9,its
screen,html.Screen,1_1_1_1_10,2021-04-20T10:38:48.659Z,,,,,,,,,,,,,,,,54,,,,,,,,,,,,,,333.3549999576062,,response,,,,100,,,,,,,Space,keypress(Space),,,,,,,,-- --- ---- --- ------ ----- ------- ---- -- --- revenue --<br>------- ---------- ------ -- ----- -- ----- -- ---- ------<br>--- ----- --- --- ------ -------- ----- --- ------ ----- --<br>----- ----- ---------- --- --- ------ ------ ---- -- ------<br>------- --- ------ ----- --- ---- ------- -- ---- --- --<br>------- ------,323355.38999998244,323354.4999999576,322999.54,323006.4699999639,323021.145,323370.585,,10,revenue
screen,html.Screen,1_1_1_1_11,2021-04-20T10:38:49.240Z,,,,,,,,,,,,,,,,54,,,,,,,,,,,,,,564.9399999789312,,response,,,,100,,,,,,,Space,keypress(Space),,,,,,,,-- --- ---- --- ------ ----- ------- ---- -- --- ------- by<br>------- ---------- ------ -- ----- -- ----- -- ---- ------<br>--- ----- --- --- ------ -------- ----- --- ------ ----- --<br>----- ----- ---------- --- --- ------ ------ ---- -- ------<br>------- --- ------ ----- --- ---- ------- -- ---- --- --<br>------- ------,323936.38500000816,323935.52499997895,323354.317,323355.5349999806,323370.585,323950.738,,11,by
screen,html.Screen,1_1_1_1_12,2021-04-20T10:38:49.681Z,,,,,,,,,,,,,,,,54,,,,,,,,,,,,,,425.50199995411094,,response,,,,100,,,,,,,Space,keypress(Space),,,,,,,,-- --- ---- --- ------ ----- ------- ---- -- --- ------- --<br>issuing ---------- ------ -- ----- -- ----- -- ---- ------<br>--- ----- --- --- ------ -------- ----- --- ------ ----- --<br>----- ----- ---------- --- --- ------ ------ ---- -- ------<br>------- --- ------ ----- --- ---- ------- -- ---- --- --<br>------- ------,324377.1499999566,324376.2399999541,323920.644,323936.53999996604,323950.738,324383.026,,12,issuing
screen,html.Screen,1_1_1_1_13,2021-04-20T10:38:50.098Z,,,,,,,,,,,,,,,,54,,,,,,,,,,,,,,410.85400001198286,,response,,,,100,,,,,,,Space,keypress(Space),,,,,,,,-- --- ---- --- ------ ----- ------- ---- -- --- ------- --<br>------- government ------ -- ----- -- ----- -- ---- ------<br>--- ----- --- --- ------ -------- ----- --- ------ ----- --<br>----- ----- ---------- --- --- ------ ------ ---- -- ------<br>------- --- ------ ----- --- ---- ------- -- ---- --- --<br>------- ------,324794.7549999808,324793.880000012,324366.592,324377.3049999727,324383.026,324816.985,,13,government
screen,html.Screen,1_1_1_1_14,2021-04-20T10:38:50.507Z,,,,,,,,,,,,,,,,54,,,,,,,,,,,,,,385.0899999792455,,response,,,,100,,,,,,,Space,keypress(Space),,,,,,,,-- --- ---- --- ------ ----- ------- ---- -- --- ------- --<br>------- ---------- bonds. -- ----- -- ----- -- ---- ------<br>--- ----- --- --- ------ -------- ----- --- ------ ----- --<br>----- ----- ---------- --- --- ------ ------ ---- -- ------<br>------- --- ------ ----- --- ---- ------- -- ---- --- --<br>------- ------,325203.0749999685,325202.07499997923,324783.163,324794.9049999588,324816.985,325208.072,,14,bonds.
screen,html.Screen,1_1_1_1_15,2021-04-20T10:38:51.021Z,,,,,,,,,,,,,,,,54,,,,,,,,,,,,,,508.8779999727267,,response,,,,100,,,,,,,Space,keypress(Space),,,,,,,,-- --- ---- --- ------ ----- ------- ---- -- --- ------- --<br>------- ---------- ------ In ----- -- ----- -- ---- ------<br>--- ----- --- --- ------ -------- ----- --- ------ ----- --<br>----- ----- ---------- --- --- ------ ------ ---- -- ------<br>------- --- ------ ----- --- ---- ------- -- ---- --- --<br>------- ------,325717.8149999818,325716.9499999727,325199.835,325203.3400000073,325208.072,325724.804,,15,In
screen,html.Screen,1_1_1_1_16,2021-04-20T10:38:51.428Z,,,,,,,,,,,,,,,,54,,,,,,,,,,,,,,399.0059999609366,,response,,,,100,,,,,,,Space,keypress(Space),,,,,,,,"-- --- ---- --- ------ ----- ------- ---- -- --- ------- --<br>------- ---------- ------ -- 1727, -- ----- -- ---- ------<br>--- ----- --- --- ------ -------- ----- --- ------ ----- --<br>----- ----- ---------- --- --- ------ ------ ---- -- ------<br>------- --- ------ ----- --- ---- ------- -- ---- --- --<br>------- ------",326124.6899999678,326123.80999996094,325708.393,325717.9649999598,325724.804,326137.869,,16,"1727,"
screen,html.Screen,1_1_1_1_17,2021-04-20T10:38:51.978Z,,,,,,,,,,,,,,,,54,,,,,,,,,,,,,,535.3659999947413,,response,,,,100,,,,,,,Space,keypress(Space),,,,,,,,-- --- ---- --- ------ ----- ------- ---- -- --- ------- --<br>------- ---------- ------ -- ----- in ----- -- ---- ------<br>--- ----- --- --- ------ -------- ----- --- ------ ----- --<br>----- ----- ---------- --- --- ------ ------ ---- -- ------<br>------- --- ------ ----- --- ---- ------- -- ---- --- --<br>------- ------,326674.1649999749,326673.23499999475,326124.695,326124.8449999839,326137.869,326696.243,,17,in
screen,html.Screen,1_1_1_1_18,2021-04-20T10:38:52.448Z,,,,,,,,,,,,,,,,54,,,,,,,,,,,,,,447.4469999971334,,response,,,,100,,,,,,,Space,keypress(Space),,,,,,,,-- --- ---- --- ------ ----- ------- ---- -- --- ------- --<br>------- ---------- ------ -- ----- -- order -- ---- ------<br>--- ----- --- --- ------ -------- ----- --- ------ ----- --<br>----- ----- ---------- --- --- ------ ------ ---- -- ------<br>------- --- ------ ----- --- ---- ------- -- ---- --- --<br>------- ------,327144.5550000062,327143.68999999715,326671.119,326674.3150000111,326696.243,327154.272,,18,order
screen,html.Screen,1_1_1_1_19,2021-04-20T10:38:52.755Z,,,,,,,,,,,,,,,,54,,,,,,,,,,,,,,296.6329999760492,,response,,,,100,,,,,,,Space,keypress(Space),,,,,,,,-- --- ---- --- ------ ----- ------- ---- -- --- ------- --<br>------- ---------- ------ -- ----- -- ----- to ---- ------<br>--- ----- --- --- ------ -------- ----- --- ------ ----- --<br>----- ----- ---------- --- --- ------ ------ ---- -- ------<br>------- --- ------ ----- --- ---- ------- -- ---- --- --<br>------- ------,327451.78000000305,327450.90499997605,327129.52,327144.70499998424,327154.272,327467.146,,19,to
screen,html.Screen,1_1_1_1_20,2021-04-20T10:38:53.240Z,,,,,,,,,,,,,,,,54,,,,,,,,,,,,,,468.60899998404784,,response,,,,100,,,,,,,Space,keypress(Space),,,,,,,,-- --- ---- --- ------ ----- ------- ---- -- --- ------- --<br>------- ---------- ------ -- ----- -- ----- -- save ------<br>--- ----- --- --- ------ -------- ----- --- ------ ----- --<br>----- ----- ---------- --- --- ------ ------ ---- -- ------<br>------- --- ------ ----- --- ---- ------- -- ---- --- --<br>------- ------,327936.64500000887,327935.75499998406,327437.606,327451.9250000012,327467.146,327941.405,,20,save
screen,html.Screen,1_1_1_1_21,2021-04-20T10:38:53.687Z,,,,,,,,,,,,,,,,54,,,,,,,,,,,,,,441.4249999586027,,response,,,,100,,,,,,,Space,keypress(Space),,,,,,,,"-- --- ---- --- ------ ----- ------- ---- -- --- ------- --<br>------- ---------- ------ -- ----- -- ----- -- ---- money,<br>--- ----- --- --- ------ -------- ----- --- ------ ----- --<br>----- ----- ---------- --- --- ------ ------ ---- -- ------<br>------- --- ------ ----- --- ---- ------- -- ---- --- --<br>------- ------",328383.7300000014,328382.82999995863,327933.056,327936.7949999869,327941.405,328396.009,,21,"money,"
screen,html.Screen,1_1_1_1_22,2021-04-20T10:38:54.164Z,,,,,,,,,,,,,,,,54,,,,,,,,,,,,,,463.71100000763545,,response,,,,100,,,,,,,Space,keypress(Space),,,,,,,,-- --- ---- --- ------ ----- ------- ---- -- --- ------- --<br>------- ---------- ------ -- ----- -- ----- -- ---- ------<br>the ----- --- --- ------ -------- ----- --- ------ ----- --<br>----- ----- ---------- --- --- ------ ------ ---- -- ------<br>------- --- ------ ----- --- ---- ------- -- ---- --- --<br>------- ------,328860.6649999856,328859.72000000766,328375.346,328383.87499999953,328396.009,328875.567,,22,the
screen,html.Screen,1_1_1_1_23,2021-04-20T10:38:54.559Z,,,,,,,,,,,,,,,,54,,,,,,,,,,,,,,378.62799998681294,,response,,,,100,,,,,,,Space,keypress(Space),,,,,,,,-- --- ---- --- ------ ----- ------- ---- -- --- ------- --<br>------- ---------- ------ -- ----- -- ----- -- ---- ------<br>--- state --- --- ------ -------- ----- --- ------ ----- --<br>----- ----- ---------- --- --- ------ ------ ---- -- ------<br>------- --- ------ ----- --- ---- ------- -- ---- --- --<br>------- ------,329254.9299999955,329254.1949999868,328845.911,328860.8299999614,328875.567,329271.417,,23,state
screen,html.Screen,1_1_1_1_24,2021-04-20T10:38:55.007Z,,,,,,,,,,,,,,,,54,,,,,,,,,,,,,,431.1829999604961,,response,,,,100,,,,,,,Space,keypress(Space),,,,,,,,-- --- ---- --- ------ ----- ------- ---- -- --- ------- --<br>------- ---------- ------ -- ----- -- ----- -- ---- ------<br>--- ----- cut --- ------ -------- ----- --- ------ ----- --<br>----- ----- ---------- --- --- ------ ------ ---- -- ------<br>------- --- ------ ----- --- ---- ------- -- ---- --- --<br>------- ------,329703.40999995824,329702.5999999605,329241.542,329255.07999997353,329271.417,329725.582,,24,cut
screen,html.Screen,1_1_1_1_25,2021-04-20T10:38:55.447Z,,,,,,,,,,,,,,,,54,,,,,,,,,,,,,,417.29299996135524,,response,,,,100,,,,,,,Space,keypress(Space),,,,,,,,-- --- ---- --- ------ ----- ------- ---- -- --- ------- --<br>------- ---------- ------ -- ----- -- ----- -- ---- ------<br>--- ----- --- the ------ -------- ----- --- ------ ----- --<br>----- ----- ---------- --- --- ------ ------ ---- -- ------<br>------- --- ------ ----- --- ---- ------- -- ---- --- --<br>------- ------,330143.7300000107,330142.87499996135,329687.979,329703.54999997653,329725.582,330158.958,,25,the
screen,html.Screen,1_1_1_1_26,2021-04-20T10:38:55.788Z,,,,,,,,,,,,,,,,54,,,,,,,,,,,,,,328.6369999550516,,response,,,,100,,,,,,,Space,keypress(Space),,,,,,,,-- --- ---- --- ------ ----- ------- ---- -- --- ------- --<br>------- ---------- ------ -- ----- -- ----- -- ---- ------<br>--- ----- --- --- bonds' -------- ----- --- ------ ----- --<br>----- ----- ---------- --- --- ------ ------ ---- -- ------<br>------- --- ------ ----- --- ---- ------- -- ---- --- --<br>------- ------,330488.4449999663,330487.59499995504,330141.942,330143.8849999686,330158.958,330491.515,,26,bonds'
screen,html.Screen,1_1_1_1_27,2021-04-20T10:38:56.378Z,,,,,,,,,,,,,,,,54,,,,,,,,,,,,,,586.6049999619136,,response,,,,100,,,,,,,Space,keypress(Space),,,,,,,,-- --- ---- --- ------ ----- ------- ---- -- --- ------- --<br>------- ---------- ------ -- ----- -- ----- -- ---- ------<br>--- ----- --- --- ------ interest ----- --- ------ ----- --<br>----- ----- ---------- --- --- ------ ------ ---- -- ------<br>------- --- ------ ----- --- ---- ------- -- ---- --- --<br>------- ------,331078.97500001127,331078.1199999619,330475.52,330488.58000000473,330491.515,331092.903,,27,interest
screen,html.Screen,1_1_1_1_28,2021-04-20T10:38:56.805Z,,,,,,,,,,,,,,,,54,,,,,,,,,,,,,,411.4069999893545,,response,,,,100,,,,,,,Space,keypress(Space),,,,,,,,-- --- ---- --- ------ ----- ------- ---- -- --- ------- --<br>------- ---------- ------ -- ----- -- ----- -- ---- ------<br>--- ----- --- --- ------ -------- rate. --- ------ ----- --<br>----- ----- ---------- --- --- ------ ------ ---- -- ------<br>------- --- ------ ----- --- ---- ------- -- ---- --- --<br>------- ------,331505.3149999585,331504.30999998935,331074.874,331079.1249999893,331092.903,331525.644,,28,rate.
screen,html.Screen,1_1_1_1_29,2021-04-20T10:38:57.432Z,,,,,,,,,,,,,,,,54,,,,,,,,,,,,,,605.6710000060266,,response,,,,100,,,,,,,Space,keypress(Space),,,,,,,,-- --- ---- --- ------ ----- ------- ---- -- --- ------- --<br>------- ---------- ------ -- ----- -- ----- -- ---- ------<br>--- ----- --- --- ------ -------- ----- The ------ ----- --<br>----- ----- ---------- --- --- ------ ------ ---- -- ------<br>------- --- ------ ----- --- ---- ------- -- ---- --- --<br>------- ------,332132.31999997515,332131.315000006,331492.21,331505.4649999947,331525.644,332146.521,,29,The
screen,html.Screen,1_1_1_1_30,2021-04-20T10:38:57.883Z,,,,,,,,,,,,,,,,54,,,,,,,,,,,,,,435.7389999955776,,response,,,,100,,,,,,,Space,keypress(Space),,,,,,,,-- --- ---- --- ------ ----- ------- ---- -- --- ------- --<br>------- ---------- ------ -- ----- -- ----- -- ---- ------<br>--- ----- --- --- ------ -------- ----- --- market ----- --<br>----- ----- ---------- --- --- ------ ------ ---- -- ------<br>------- --- ------ ----- --- ---- ------- -- ---- --- --<br>------- ------,332583.1499999622,332582.2599999956,332125.539,332132.50499998685,332146.521,332604.879,,30,market
screen,html.Screen,1_1_1_1_31,2021-04-20T10:38:58.307Z,,,,,,,,,,,,,,,,54,,,,,,,,,,,,,,401.85099996457575,,response,,,,100,,,,,,,Space,keypress(Space),,,,,,,,-- --- ---- --- ------ ----- ------- ---- -- --- ------- --<br>------- ---------- ------ -- ----- -- ----- -- ---- ------<br>--- ----- --- --- ------ -------- ----- --- ------ value --<br>----- ----- ---------- --- --- ------ ------ ---- -- ------<br>------- --- ------ ----- --- ---- ------- -- ---- --- --<br>------- ------,333007.44499999564,333006.7299999646,332579.766,332583.2999999984,332604.879,333016.844,,31,value
screen,html.Screen,1_1_1_1_32,2021-04-20T10:38:58.636Z,,,,,,,,,,,,,,,,54,,,,,,,,,,,,,,319.0209999718354,,response,,,,100,,,,,,,Space,keypress(Space),,,,,,,,-- --- ---- --- ------ ----- ------- ---- -- --- ------- --<br>------- ---------- ------ -- ----- -- ----- -- ---- ------<br>--- ----- --- --- ------ -------- ----- --- ------ ----- of<br>----- ----- ---------- --- --- ------ ------ ---- -- ------<br>------- --- ------ ----- --- ---- ------- -- ---- --- --<br>------- ------,333336.7299999809,333335.8649999718,333004.767,333007.5849999557,333016.844,333350.666,,32,of
screen,html.Screen,1_1_1_1_33,2021-04-20T10:38:59.141Z,,,,,,,,,,,,,,,,54,,,,,,,,,,,,,,489.8339999911259,,response,,,,100,,,,,,,Space,keypress(Space),,,,,,,,-- --- ---- --- ------ ----- ------- ---- -- --- ------- --<br>------- ---------- ------ -- ----- -- ----- -- ---- ------<br>--- ----- --- --- ------ -------- ----- --- ------ ----- --<br>these ----- ---------- --- --- ------ ------ ---- -- ------<br>------- --- ------ ----- --- ---- ------- -- ---- --- --<br>------- ------,333841.3849999779,333840.49999999115,333333.271,333336.8799999589,333350.666,333845.897,,33,these
screen,html.Screen,1_1_1_1_34,2021-04-20T10:38:59.535Z,,,,,,,,,,,,,,,,54,,,,,,,,,,,,,,388.90799995639827,,response,,,,100,,,,,,,Space,keypress(Space),,,,,,,,-- --- ---- --- ------ ----- ------- ---- -- --- ------- --<br>------- ---------- ------ -- ----- -- ----- -- ---- ------<br>--- ----- --- --- ------ -------- ----- --- ------ ----- --<br>----- bonds ---------- --- --- ------ ------ ---- -- ------<br>------- --- ------ ----- --- ---- ------- -- ---- --- --<br>------- ------,334235.6199999922,334234.8049999564,333833.669,333841.5349999559,333845.897,334237.521,,34,bonds
screen,html.Screen,1_1_1_1_35,2021-04-20T10:38:59.945Z,,,,,,,,,,,,,,,,54,,,,,,,,,,,,,,406.96399999706773,,response,,,,100,,,,,,,Space,keypress(Space),,,,,,,,"-- --- ---- --- ------ ----- ------- ---- -- --- ------- --<br>------- ---------- ------ -- ----- -- ----- -- ---- ------<br>--- ----- --- --- ------ -------- ----- --- ------ ----- --<br>----- ----- plummeted, --- --- ------ ------ ---- -- ------<br>------- --- ------ ----- --- ---- ------- -- ---- --- --<br>------- ------",334645.38000000175,334644.4849999971,334229.697,334235.7699999702,334237.521,334650.012,,35,"plummeted,"
screen,html.Screen,1_1_1_1_36,2021-04-20T10:39:00.382Z,,,,,,,,,,,,,,,,54,,,,,,,,,,,,,,431.423000000068,,response,,,,100,,,,,,,Space,keypress(Space),,,,,,,,-- --- ---- --- ------ ----- ------- ---- -- --- ------- --<br>------- ---------- ------ -- ----- -- ----- -- ---- ------<br>--- ----- --- --- ------ -------- ----- --- ------ ----- --<br>----- ----- ---------- and --- ------ ------ ---- -- ------<br>------- --- ------ ----- --- ---- ------- -- ---- --- --<br>------- ------,335082.3199999868,335081.43500000006,334638.041,334645.5249999999,334650.012,335088.217,,36,and
screen,html.Screen,1_1_1_1_37,2021-04-20T10:39:00.689Z,,,,,,,,,,,,,,,,54,,,,,,,,,,,,,,300.9079999869573,,response,,,,100,,,,,,,Space,keypress(Space),,,,,,,,-- --- ---- --- ------ ----- ------- ---- -- --- ------- --<br>------- ---------- ------ -- ----- -- ----- -- ---- ------<br>--- ----- --- --- ------ -------- ----- --- ------ ----- --<br>----- ----- ---------- --- the ------ ------ ---- -- ------<br>------- --- ------ ----- --- ---- ------- -- ---- --- --<br>------- ------,335390.01999999164,335389.12499998696,335067.035,335082.4750000029,335088.217,335396.087,,37,the
screen,html.Screen,1_1_1_1_38,2021-04-20T10:39:01.186Z,,,,,,,,,,,,,,,,54,,,,,,,,,,,,,,489.61799996421905,,response,,,,100,,,,,,,Space,keypress(Space),,,,,,,,-- --- ---- --- ------ ----- ------- ---- -- --- ------- --<br>------- ---------- ------ -- ----- -- ----- -- ---- ------<br>--- ----- --- --- ------ -------- ----- --- ------ ----- --<br>----- ----- ---------- --- --- market ------ ---- -- ------<br>------- --- ------ ----- --- ---- ------- -- ---- --- --<br>------- ------,335886.594999989,335885.7049999642,335388.1,335390.17500000773,335396.087,335891.831,,38,market
screen,html.Screen,1_1_1_1_39,2021-04-20T10:39:01.646Z,,,,,,,,,,,,,,,,54,,,,,,,,,,,,,,454.3139999595005,,response,,,,100,,,,,,,Space,keypress(Space),,,,,,,,-- --- ---- --- ------ ----- ------- ---- -- --- ------- --<br>------- ---------- ------ -- ----- -- ----- -- ---- ------<br>--- ----- --- --- ------ -------- ----- --- ------ ----- --<br>----- ----- ---------- --- --- ------ became ---- -- ------<br>------- --- ------ ----- --- ---- ------- -- ---- --- --<br>------- ------,336346.979999973,336346.1449999595,335879.281,335886.7999999784,335891.831,336367.131,,39,became
screen,html.Screen,1_1_1_1_40,2021-04-20T10:39:02.123Z,,,,,,,,,,,,,,,,54,,,,,,,,,,,,,,455.33399997564266,,response,,,,100,,,,,,,Space,keypress(Space),,,,,,,,-- --- ---- --- ------ ----- ------- ---- -- --- ------- --<br>------- ---------- ------ -- ----- -- ----- -- ---- ------<br>--- ----- --- --- ------ -------- ----- --- ------ ----- --<br>----- ----- ---------- --- --- ------ ------ wary -- ------<br>------- --- ------ ----- --- ---- ------- -- ---- --- --<br>------- ------,336823.28000001144,336822.46499997564,336342.087,336347.1300000092,336367.131,336842.491,,40,wary
screen,html.Screen,1_1_1_1_41,2021-04-20T10:39:02.612Z,,,,,,,,,,,,,,,,54,,,,,,,,,,,,,,469.73899998137495,,response,,,,100,,,,,,,Space,keypress(Space),,,,,,,,-- --- ---- --- ------ ----- ------- ---- -- --- ------- --<br>------- ---------- ------ -- ----- -- ----- -- ---- ------<br>--- ----- --- --- ------ -------- ----- --- ------ ----- --<br>----- ----- ---------- --- --- ------ ------ ---- of ------<br>------- --- ------ ----- --- ---- ------- -- ---- --- --<br>------- ------,337312.9649999901,337312.22999998135,336816.9,336823.4250000096,336842.491,337321.118,,41,of
screen,html.Screen,1_1_1_1_42,2021-04-20T10:39:03.161Z,,,,,,,,,,,,,,,,54,,,,,,,,,,,,,,539.401999987429,,response,,,,100,,,,,,,Space,keypress(Space),,,,,,,,-- --- ---- --- ------ ----- ------- ---- -- --- ------- --<br>------- ---------- ------ -- ----- -- ----- -- ---- ------<br>--- ----- --- --- ------ -------- ----- --- ------ ----- --<br>----- ----- ---------- --- --- ------ ------ ---- -- French<br>------- --- ------ ----- --- ---- ------- -- ---- --- --<br>------- ------,337861.42500001006,337860.51999998745,337309.096,337313.1099999882,337321.118,337880.039,,42,French
screen,html.Screen,1_1_1_1_43,2021-04-20T10:39:03.852Z,,,,,,,,,,,,,,,,54,,,,,,,,,,,,,,671.8909999578027,,response,,,,100,,,,,,,Space,keypress(Space),,,,,,,,-- --- ---- --- ------ ----- ------- ---- -- --- ------- --<br>------- ---------- ------ -- ----- -- ----- -- ---- ------<br>--- ----- --- --- ------ -------- ----- --- ------ ----- --<br>----- ----- ---------- --- --- ------ ------ ---- -- ------<br>credit. --- ------ ----- --- ---- ------- -- ---- --- --<br>------- ------,338552.76499997126,338551.9299999578,337854.944,337861.5749999881,337880.039,338563.068,,43,credit.
screen,html.Screen,1_1_1_1_44,2021-04-20T10:39:04.452Z,,,,,,,,,,,,,,,,54,,,,,,,,,,,,,,588.2969999978668,,response,,,,100,,,,,,,Space,keypress(Space),,,,,,,,-- --- ---- --- ------ ----- ------- ---- -- --- ------- --<br>------- ---------- ------ -- ----- -- ----- -- ---- ------<br>--- ----- --- --- ------ -------- ----- --- ------ ----- --<br>----- ----- ---------- --- --- ------ ------ ---- -- ------<br>------- The ------ ----- --- ---- ------- -- ---- --- --<br>------- ------,339152.13999996195,339151.3649999979,338545.995,338552.9099999694,338563.068,339163.449,,44,The
screen,html.Screen,1_1_1_1_45,2021-04-20T10:39:04.795Z,,,,,,,,,,,,,,,,54,,,,,,,,,,,,,,331.09099998511374,,response,,,,100,,,,,,,Space,keypress(Space),,,,,,,,-- --- ---- --- ------ ----- ------- ---- -- --- ------- --<br>------- ---------- ------ -- ----- -- ----- -- ---- ------<br>--- ----- --- --- ------ -------- ----- --- ------ ----- --<br>----- ----- ---------- --- --- ------ ------ ---- -- ------<br>------- --- French ----- --- ---- ------- -- ---- --- --<br>------- ------,339495.3749999986,339494.53999998514,339146.203,339152.2899999982,339163.449,339513.437,,45,French
screen,html.Screen,1_1_1_1_46,2021-04-20T10:39:05.190Z,,,,,,,,,,,,,,,,54,,,,,,,,,,,,,,376.5629999557859,,response,,,,100,,,,,,,Space,keypress(Space),,,,,,,,-- --- ---- --- ------ ----- ------- ---- -- --- ------- --<br>------- ---------- ------ -- ----- -- ----- -- ---- ------<br>--- ----- --- --- ------ -------- ----- --- ------ ----- --<br>----- ----- ---------- --- --- ------ ------ ---- -- ------<br>------- --- ------ state --- ---- ------- -- ---- --- --<br>------- ------,339890.98500000546,339889.99999995576,339480.05,339495.51999999676,339513.437,339905.135,,46,state
screen,html.Screen,1_1_1_1_47,2021-04-20T10:39:05.582Z,,,,,,,,,,,,,,,,54,,,,,,,,,,,,,,376.2699999578763,,response,,,,100,,,,,,,Space,keypress(Space),,,,,,,,-- --- ---- --- ------ ----- ------- ---- -- --- ------- --<br>------- ---------- ------ -- ----- -- ----- -- ---- ------<br>--- ----- --- --- ------ -------- ----- --- ------ ----- --<br>----- ----- ---------- --- --- ------ ------ ---- -- ------<br>------- --- ------ ----- was ---- ------- -- ---- --- --<br>------- ------,340282.2799999849,340281.4049999579,339879.724,339891.1349999835,339905.135,340300.506,,47,was
screen,html.Screen,1_1_1_1_48,2021-04-20T10:39:05.982Z,,,,,,,,,,,,,,,,54,,,,,,,,,,,,,,381.0489999591955,,response,,,,100,,,,,,,Space,keypress(Space),,,,,,,,-- --- ---- --- ------ ----- ------- ---- -- --- ------- --<br>------- ---------- ------ -- ----- -- ----- -- ---- ------<br>--- ----- --- --- ------ -------- ----- --- ------ ----- --<br>----- ----- ---------- --- --- ------ ------ ---- -- ------<br>------- --- ------ ----- --- left ------- -- ---- --- --<br>------- ------,340682.46999999974,340681.5549999592,340271.736,340282.435000001,340300.506,340697.379,,48,left
screen,html.Screen,1_1_1_1_49,2021-04-20T10:39:06.382Z,,,,,,,,,,,,,,,,54,,,,,,,,,,,,,,384.1309999890509,,response,,,,100,,,,,,,Space,keypress(Space),,,,,,,,-- --- ---- --- ------ ----- ------- ---- -- --- ------- --<br>------- ---------- ------ -- ----- -- ----- -- ---- ------<br>--- ----- --- --- ------ -------- ----- --- ------ ----- --<br>----- ----- ---------- --- --- ------ ------ ---- -- ------<br>------- --- ------ ----- --- ---- without -- ---- --- --<br>------- ------,341082.39999995567,341081.50999998907,340667.593,340682.61999997776,340697.379,341087.963,,49,without
screen,html.Screen,1_1_1_1_50,2021-04-20T10:39:06.775Z,,,,,,,,,,,,,,,,54,,,,,,,,,,,,,,386.5069999573752,,response,,,,100,,,,,,,Space,keypress(Space),,,,,,,,-- --- ---- --- ------ ----- ------- ---- -- --- ------- --<br>------- ---------- ------ -- ----- -- ----- -- ---- ------<br>--- ----- --- --- ------ -------- ----- --- ------ ----- --<br>----- ----- ---------- --- --- ------ ------ ---- -- ------<br>------- --- ------ ----- --- ---- ------- an ---- --- --<br>------- ------,341475.3400000045,341474.46999995736,341079.864,341082.5499999919,341087.963,341479.551,,50,an
screen,html.Screen,1_1_1_1_51,2021-04-20T10:39:07.181Z,,,,,,,,,,,,,,,,54,,,,,,,,,,,,,,401.50899998517707,,response,,,,100,,,,,,,Space,keypress(Space),,,,,,,,-- --- ---- --- ------ ----- ------- ---- -- --- ------- --<br>------- ---------- ------ -- ----- -- ----- -- ---- ------<br>--- ----- --- --- ------ -------- ----- --- ------ ----- --<br>----- ----- ---------- --- --- ------ ------ ---- -- ------<br>------- --- ------ ----- --- ---- ------- -- easy --- --<br>------- ------,341881.8849999807,341881.05999998515,341471.341,341475.48500000266,341479.551,341896.894,,51,easy
screen,html.Screen,1_1_1_1_52,2021-04-20T10:39:07.569Z,,,,,,,,,,,,,,,,54,,,,,,,,,,,,,,372.085999993491,,response,,,,100,,,,,,,Space,keypress(Space),,,,,,,,-- --- ---- --- ------ ----- ------- ---- -- --- ------- --<br>------- ---------- ------ -- ----- -- ----- -- ---- ------<br>--- ----- --- --- ------ -------- ----- --- ------ ----- --<br>----- ----- ---------- --- --- ------ ------ ---- -- ------<br>------- --- ------ ----- --- ---- ------- -- ---- way --<br>------- ------,342270.029999956,342268.97999999346,341880.082,341882.0349999587,341896.894,342288.062,,52,way
screen,html.Screen,1_1_1_1_53,2021-04-20T10:39:07.897Z,,,,,,,,,,,,,,,,54,,,,,,,,,,,,,,308.3629999961122,,response,,,,100,,,,,,,Space,keypress(Space),,,,,,,,-- --- ---- --- ------ ----- ------- ---- -- --- ------- --<br>------- ---------- ------ -- ----- -- ----- -- ---- ------<br>--- ----- --- --- ------ -------- ----- --- ------ ----- --<br>----- ----- ---------- --- --- ------ ------ ---- -- ------<br>------- --- ------ ----- --- ---- ------- -- ---- --- of<br>------- ------,342597.294999985,342596.4249999961,342263.507,342270.29999997467,342288.062,342617.782,,53,of
screen,html.Screen,1_1_1_1_54,2021-04-20T10:39:08.301Z,,,,,,,,,,,,,,,,54,,,,,,,,,,,,,,383.0779999709921,,response,,,,100,,,,,,,Space,keypress(Space),,,,,,,,-- --- ---- --- ------ ----- ------- ---- -- --- ------- --<br>------- ---------- ------ -- ----- -- ----- -- ---- ------<br>--- ----- --- --- ------ -------- ----- --- ------ ----- --<br>----- ----- ---------- --- --- ------ ------ ---- -- ------<br>------- --- ------ ----- --- ---- ------- -- ---- --- --<br>raising ------,343001.6699999687,343000.859999971,342588.543,342597.44499996305,342617.782,343013.143,,54,raising
screen,html.Screen,1_1_1_1_55,2021-04-20T10:39:08.675Z,,,,,,,,,,,,,,,,54,,,,,,,,,,,,,,362.0169999959762,,response,,,,100,,,,,,,Space,keypress(Space),,,,,,,,-- --- ---- --- ------ ----- ------- ---- -- --- ------- --<br>------- ---------- ------ -- ----- -- ----- -- ---- ------<br>--- ----- --- --- ------ -------- ----- --- ------ ----- --<br>----- ----- ---------- --- --- ------ ------ ---- -- ------<br>------- --- ------ ----- --- ---- ------- -- ---- --- --<br>------- money.,343376.02500000503,343375.15999999596,343001.053,343001.8899999559,343013.143,343384.182,,55,money.
Item 100,flow.Loop,1_1_1_1,2021-04-20T10:39:08.676Z,,,,,,,,,,,,,,,,,,,,,,,,,,,,,,24429.853999995976,,completion,,,,,E,,,,,,,,,,,silence,,,,,343376.27999996766,343375.15999999596,318928.845,318929.6200000099,318945.306,343384.182,,,
Question 1,html.Screen,1_1_1_2,2021-04-20T10:39:12.999Z,,,,,,,,,,,,,,,,,,,,,,,,,,,true,TRUE,,4314.427999963111,,response,,,,100,E,,,,,,TRUE,click #choice-1,,,,silence,,,,,347700.0849999604,347698.6099999631,343362.972,343376.3850000105,343384.182,347704.782,,,
Question 2,html.Screen,1_1_1_3,2021-04-20T10:39:16.948Z,,,,,,,,,,,,,,,,,,,,,,,,,,,true,FALSE,,3942.8629999608966,,response,,,,100,E,,,,,,FALSE,click #choice-2,,,,silence,,,,,351648.9799999981,351647.6449999609,347692.882,347700.2849999699,347704.782,351655.051,,,
Item 100,flow.Sequence,1_1_1,2021-04-20T10:39:16.949Z,,,,,,,,,,,,,,,,,,,,,,,,,,,,,,42698.670999960916,,completion,,,,,,,,,,,,,,,,,,,,,351649.3049999699,351647.6449999609,308937.474,308938.71999997646,308948.974,351655.051,,,
End of Practice,html.Page,1_1_2,2021-04-20T10:39:21.415Z,,,,,,,,,,,,,,,,,,,,,,,,,,,,,,4460.283999980427,,form submission,,,,,,,,,,,,,,,,,,,,,356115.8299999661,356115.3349999804,351647.265,351649.4250000105,351655.051,356130.146,,,
Practice,flow.Sequence,1_1,2021-04-20T10:39:21.415Z,,,,,,,,,,,,,,,,,,,,,,,,,,,,,,88951.68799998041,,completion,,,,,,,,,,,,,,,,,,,,,356116.0699999891,356115.3349999804,267146.976,267143.42499995837,267163.647,356130.146,,,
Trap_instruction,html.Page,1_2_0,2021-04-20T10:39:25.837Z,,,,,,,,,,,,,,,,,,,,,,,,,,,,,,4406.933999980043,,form submission,,,,,,,,,,,,,,,,,,,,,360537.4849999789,360537.07999998005,356101.627,356116.2149999873,356130.146,360543.101,,,
trap_trial,html.Screen,1_2_1,2021-04-20T10:39:30.178Z,,,,,,,,,,,,,,,,,,,,,,,,,,,true,1,,4333.849000005284,,response,,,,,,,,,,,1,click #choice-1,,,,,,,,,364878.395000007,364876.9500000053,360534.632,360537.61999995913,360543.101,364884.884,,,
end of trap trial,html.Page,1_2_2,2021-04-20T10:39:31.698Z,,,,,,,,,,,,,,,,,,,,,,,,,,,,,,1512.8609999656328,,form submission,,,,,,,,,,,,,,,,,,,,,366398.1100000092,366397.74499996565,364868.233,364878.5499999649,364884.884,366401.514,,,
Trap 1,flow.Sequence,1_2,2021-04-20T10:39:31.698Z,,,,,,,,,,,,,,,,,,,,,,,,,,,,,,10267.598999965645,,completion,,,,,,,,,,,,,,,,,,,,,366398.18999997806,366397.74499996565,356101.627,356116.1699999939,356130.146,366401.514,,,
Standby,html.Page,1_3_0,2021-04-20T10:39:39.690Z,,,,,,,,,,,,,,,,,,,,,,,,,,,,,,8005.3189999999595,,timeout,,,,,,,,,,,,,,,,,,,,,374390.58499998646,374390.001,366385.136,366398.274999985,366401.514,374406.833,,,
Holding screen,html.Screen,1_3_1_0_0,2021-04-20T10:39:46.699Z,,,,,,,,,,,,,,,,,,,,,,,,,,,,,,7008.160000000033,,timeout,,,,,,,,,,,,,,,,,,,,,381399.43499997025,381398.869,374390.001,374390.69500000915,374406.833,381414.993,,,
screen,html.Screen,1_3_1_0_1_0,2021-04-20T10:39:48.725Z,,,,,,,,,,,,,,,,48,,,,,,,,,,,,,,2009.6769999784883,,response,,,,10,E,,,,,,Space,keypress(Space),,,,lyrical,,,,As -- --- ------ ------- --------- ----------- --------<br>--------- -------- --- ------- -- ------- ---- -- ------<br>-- --- -------- -------- ---------- ---- ---- ---- ------<br>-- --------- -- ---- -- --- -- --- ------- -- - -----<br>---------- -- -- -- ---- ----- -- ------ -- --- ------<br>-------,383425.3949999693,383424.6699999785,381398.869,381399.53999995487,381414.993,383432.072,,0,As
screen,html.Screen,1_3_1_0_1_1,2021-04-20T10:39:49.458Z,,,,,,,,,,,,,,,,48,,,,,,,,,,,,,,726.3279999566148,,response,,,,10,E,,,,,,Space,keypress(Space),,,,lyrical,,,,-- in --- ------ ------- --------- ----------- --------<br>--------- -------- --- ------- -- ------- ---- -- ------<br>-- --- -------- -------- ---------- ---- ---- ---- ------<br>-- --------- -- ---- -- --- -- --- ------- -- - -----<br>---------- -- -- -- ---- ----- -- ------ -- --- ------<br>-------,384159.0449999785,384158.3999999566,383414.923,383425.52499996964,383432.072,384177.697,,1,in
screen,html.Screen,1_3_1_0_1_2,2021-04-20T10:39:50.206Z,,,,,,,,,,,,,,,,48,,,,,,,,,,,,,,728.0679999740678,,response,,,,10,E,,,,,,Space,keypress(Space),,,,lyrical,,,,-- -- the ------ ------- --------- ----------- --------<br>--------- -------- --- ------- -- ------- ---- -- ------<br>-- --- -------- -------- ---------- ---- ---- ---- ------<br>-- --------- -- ---- -- --- -- --- ------- -- - -----<br>---------- -- -- -- ---- ----- -- ------ -- --- ------<br>-------,384906.46999998717,384905.76499997405,384148.341,384159.1799999587,384177.697,384924.138,,2,the
screen,html.Screen,1_3_1_0_1_3,2021-04-20T10:39:50.762Z,,,,,,,,,,,,,,,,48,,,,,,,,,,,,,,538.2419999826816,,response,,,,10,E,,,,,,Space,keypress(Space),,,,lyrical,,,,-- -- --- United ------- --------- ----------- --------<br>--------- -------- --- ------- -- ------- ---- -- ------<br>-- --- -------- -------- ---------- ---- ---- ---- ------<br>-- --------- -- ---- -- --- -- --- ------- -- - -----<br>---------- -- -- -- ---- ----- -- ------ -- --- ------<br>-------,385462.7599999658,385462.37999998266,384894.761,384906.6199999652,384924.138,385482.439,,3,United
screen,html.Screen,1_3_1_0_1_4,2021-04-20T10:39:51.177Z,,,,,,,,,,,,,,,,48,,,,,,,,,,,,,,394.75099997012876,,response,,,,10,E,,,,,,Space,keypress(Space),,,,lyrical,,,,"-- -- --- ------ States, --------- ----------- --------<br>--------- -------- --- ------- -- ------- ---- -- ------<br>-- --- -------- -------- ---------- ---- ---- ---- ------<br>-- --------- -- ---- -- --- -- --- ------- -- - -----<br>---------- -- -- -- ---- ----- -- ------ -- --- ------<br>-------",385877.6899999939,385877.18999997014,385456.837,385462.8299999749,385482.439,385895.192,,4,"States,"
screen,html.Screen,1_3_1_0_1_5,2021-04-20T10:39:51.774Z,,,,,,,,,,,,,,,,48,,,,,,,,,,,,,,577.9979999897187,,response,,,,10,E,,,,,,Space,keypress(Space),,,,lyrical,,,,-- -- --- ------ ------- Colombian ----------- --------<br>--------- -------- --- ------- -- ------- ---- -- ------<br>-- --- -------- -------- ---------- ---- ---- ---- ------<br>-- --------- -- ---- -- --- -- --- ------- -- - -----<br>---------- -- -- -- ---- ----- -- ------ -- --- ------<br>-------,386474.10499997204,386473.1899999897,385865.5,385877.7649999829,385895.192,386490.879,,5,Colombian
screen,html.Screen,1_3_1_0_1_6,2021-04-20T10:39:52.168Z,,,,,,,,,,,,,,,,48,,,,,,,,,,,,,,377.7310000049765,,response,,,,10,E,,,,,,Space,keypress(Space),,,,lyrical,,,,-- -- --- ------ ------- --------- legislation --------<br>--------- -------- --- ------- -- ------- ---- -- ------<br>-- --- -------- -------- ---------- ---- ---- ---- ------<br>-- --------- -- ---- -- --- -- --- ------- -- - -----<br>---------- -- -- -- ---- ----- -- ------ -- --- ------<br>-------,386869.069999957,386868.610000005,386461.496,386474.19499995885,386490.879,386886.105,,6,legislation
screen,html.Screen,1_3_1_0_1_7,2021-04-20T10:39:52.732Z,,,,,,,,,,,,,,,,48,,,,,,,,,,,,,,545.3299999767914,,response,,,,10,E,,,,,,Space,keypress(Space),,,,lyrical,,,,-- -- --- ------ ------- --------- ----------- requires<br>--------- -------- --- ------- -- ------- ---- -- ------<br>-- --- -------- -------- ---------- ---- ---- ---- ------<br>-- --------- -- ---- -- --- -- --- ------- -- - -----<br>---------- -- -- -- ---- ----- -- ------ -- --- ------<br>-------,387432.1049999562,387431.4349999768,386857.133,386869.1349999863,386886.105,387444.994,,7,requires
screen,html.Screen,1_3_1_0_1_8,2021-04-20T10:39:53.120Z,,,,,,,,,,,,,,,,48,,,,,,,,,,,,,,375.2559999897494,,response,,,,10,E,,,,,,Space,keypress(Space),,,,lyrical,,,,-- -- --- ------ ------- --------- ----------- --------<br>travelers -------- --- ------- -- ------- ---- -- ------<br>-- --- -------- -------- ---------- ---- ---- ---- ------<br>-- --------- -- ---- -- --- -- --- ------- -- - -----<br>---------- -- -- -- ---- ----- -- ------ -- --- ------<br>-------,387820.91000000946,387820.24999998976,387419.493,387432.1699999855,387444.994,387836.777,,8,travelers
screen,html.Screen,1_3_1_0_1_9,2021-04-20T10:39:53.532Z,,,,,,,,,,,,,,,,48,,,,,,,,,,,,,,394.82299999915995,,response,,,,10,E,,,,,,Space,keypress(Space),,,,lyrical,,,,-- -- --- ------ ------- --------- ----------- --------<br>--------- entering --- ------- -- ------- ---- -- ------<br>-- --- -------- -------- ---------- ---- ---- ---- ------<br>-- --------- -- ---- -- --- -- --- ------- -- - -----<br>---------- -- -- -- ---- ----- -- ------ -- --- ------<br>-------,388232.3299999698,388231.59999999916,387811.598,387820.97499998054,387836.777,388253.364,,9,entering
screen,html.Screen,1_3_1_0_1_10,2021-04-20T10:39:53.897Z,,,,,,,,,,,,,,,,48,,,,,,,,,,,,,,343.8909999714815,,response,,,,10,E,,,,,,Space,keypress(Space),,,,lyrical,,,,-- -- --- ------ ------- --------- ----------- --------<br>--------- -------- the ------- -- ------- ---- -- ------<br>-- --- -------- -------- ---------- ---- ---- ---- ------<br>-- --------- -- ---- -- --- -- --- ------- -- - -----<br>---------- -- -- -- ---- ----- -- ------ -- --- ------<br>-------,388597.695000004,388597.2549999715,388220.007,388232.47499996796,388253.364,388602.881,,10,the
screen,html.Screen,1_3_1_0_1_11,2021-04-20T10:39:54.417Z,,,,,,,,,,,,,,,,48,,,,,,,,,,,,,,514.5089999703341,,response,,,,10,E,,,,,,Space,keypress(Space),,,,lyrical,,,,-- -- --- ------ ------- --------- ----------- --------<br>--------- -------- --- country -- ------- ---- -- ------<br>-- --- -------- -------- ---------- ---- ---- ---- ------<br>-- --------- -- ---- -- --- -- --- ------- -- - -----<br>---------- -- -- -- ---- ----- -- ------ -- --- ------<br>-------,389117.8249999648,389117.3899999703,388586.779,388597.76499995496,388602.881,389119.649,,11,country
screen,html.Screen,1_3_1_0_1_12,2021-04-20T10:39:54.799Z,,,,,,,,,,,,,,,,48,,,,,,,,,,,,,,378.95599997160025,,response,,,,10,E,,,,,,Space,keypress(Space),,,,lyrical,,,,-- -- --- ------ ------- --------- ----------- --------<br>--------- -------- --- ------- to ------- ---- -- ------<br>-- --- -------- -------- ---------- ---- ---- ---- ------<br>-- --------- -- ---- -- --- -- --- ------- -- - -----<br>---------- -- -- -- ---- ----- -- ------ -- --- ------<br>-------,389499.37999999383,389498.6049999716,389102.959,389117.89499997394,389119.649,389516.558,,12,to
screen,html.Screen,1_3_1_0_1_13,2021-04-20T10:39:55.244Z,,,,,,,,,,,,,,,,48,,,,,,,,,,,,,,427.7369999938528,,response,,,,10,E,,,,,,Space,keypress(Space),,,,lyrical,,,,-- -- --- ------ ------- --------- ----------- --------<br>--------- -------- --- ------- -- declare ---- -- ------<br>-- --- -------- -------- ---------- ---- ---- ---- ------<br>-- --------- -- ---- -- --- -- --- ------- -- - -----<br>---------- -- -- -- ---- ----- -- ------ -- --- ------<br>-------,389945.0849999557,389944.2949999939,389486.159,389499.4449999649,389516.558,389948.728,,13,declare
screen,html.Screen,1_3_1_0_1_14,2021-04-20T10:39:55.662Z,,,,,,,,,,,,,,,,48,,,,,,,,,,,,,,408.78699998150114,,response,,,,10,E,,,,,,Space,keypress(Space),,,,lyrical,,,,-- -- --- ------ ------- --------- ----------- --------<br>--------- -------- --- ------- -- ------- cash -- ------<br>-- --- -------- -------- ---------- ---- ---- ---- ------<br>-- --------- -- ---- -- --- -- --- ------- -- - -----<br>---------- -- -- -- ---- ----- -- ------ -- --- ------<br>-------,390357.9749999917,390357.5149999815,389932.555,389945.23499999195,389948.728,390365.498,,14,cash
screen,html.Screen,1_3_1_0_1_15,2021-04-20T10:39:56.097Z,,,,,,,,,,,,,,,,48,,,,,,,,,,,,,,427.18699999304954,,response,,,,10,E,,,,,,Space,keypress(Space),,,,lyrical,,,,-- -- --- ------ ------- --------- ----------- --------<br>--------- -------- --- ------- -- ------- ---- in ------<br>-- --- -------- -------- ---------- ---- ---- ---- ------<br>-- --------- -- ---- -- --- -- --- ------- -- - -----<br>---------- -- -- -- ---- ----- -- ------ -- --- ------<br>-------,390793.53500000434,390792.6849999931,390349.062,390358.04500000086,390365.498,390798.771,,15,in
screen,html.Screen,1_3_1_0_1_16,2021-04-20T10:39:56.531Z,,,,,,,,,,,,,,,,48,,,,,,,,,,,,,,428.4639999984647,,response,,,,10,E,,,,,,Space,keypress(Space),,,,lyrical,,,,-- -- --- ------ ------- --------- ----------- --------<br>--------- -------- --- ------- -- ------- ---- -- excess<br>-- --- -------- -------- ---------- ---- ---- ---- ------<br>-- --------- -- ---- -- --- -- --- ------- -- - -----<br>---------- -- -- -- ---- ----- -- ------ -- --- ------<br>-------,391227.6800000109,391227.2349999985,390782.573,390793.5999999754,390798.771,391232.27,,16,excess
screen,html.Screen,1_3_1_0_1_17,2021-04-20T10:39:56.911Z,,,,,,,,,,,,,,,,48,,,,,,,,,,,,,,374.2599999899976,,response,,,,10,E,,,,,,Space,keypress(Space),,,,lyrical,,,,-- -- --- ------ ------- --------- ----------- --------<br>--------- -------- --- ------- -- ------- ---- -- ------<br>of --- -------- -------- ---------- ---- ---- ---- ------<br>-- --------- -- ---- -- --- -- --- ------- -- - -----<br>---------- -- -- -- ---- ----- -- ------ -- --- ------<br>-------,391607.44499997236,391606.52999999,391215.742,391227.74499998195,391232.27,391624.893,,17,of
screen,html.Screen,1_3_1_0_1_18,2021-04-20T10:39:57.326Z,,,,,,,,,,,,,,,,48,,,,,,,,,,,,,,396.61699999141274,,response,,,,10,E,,,,,,Space,keypress(Space),,,,lyrical,,,,-- -- --- ------ ------- --------- ----------- --------<br>--------- -------- --- ------- -- ------- ---- -- ------<br>-- ten -------- -------- ---------- ---- ---- ---- ------<br>-- --------- -- ---- -- --- -- --- ------- -- - -----<br>---------- -- -- -- ---- ----- -- ------ -- --- ------<br>-------,392022.1499999752,392021.5099999914,391598.858,391607.5149999815,391624.893,392036.966,,18,ten
screen,html.Screen,1_3_1_0_1_19,2021-04-20T10:39:57.670Z,,,,,,,,,,,,,,,,48,,,,,,,,,,,,,,328.8840000019409,,response,,,,10,E,,,,,,Space,keypress(Space),,,,lyrical,,,,-- -- --- ------ ------- --------- ----------- --------<br>--------- -------- --- ------- -- ------- ---- -- ------<br>-- --- thousand -------- ---------- ---- ---- ---- ------<br>-- --------- -- ---- -- --- -- --- ------- -- - -----<br>---------- -- -- -- ---- ----- -- ------ -- --- ------<br>-------,392366.2299999851,392365.85000000196,392007.138,392022.2150000045,392036.966,392387.404,,19,thousand
screen,html.Screen,1_3_1_0_1_20,2021-04-20T10:39:58.076Z,,,,,,,,,,,,,,,,48,,,,,,,,,,,,,,383.8609999885084,,response,,,,10,E,,,,,,Space,keypress(Space),,,,lyrical,,,,-- -- --- ------ ------- --------- ----------- --------<br>--------- -------- --- ------- -- ------- ---- -- ------<br>-- --- -------- dollars. ---------- ---- ---- ---- ------<br>-- --------- -- ---- -- --- -- --- ------- -- - -----<br>---------- -- -- -- ---- ----- -- ------ -- --- ------<br>-------,392771.98999997927,392771.2649999885,392353.502,392366.2899999763,392387.404,392778.379,,20,dollars.
screen,html.Screen,1_3_1_0_1_21,2021-04-20T10:39:58.541Z,,,,,,,,,,,,,,,,48,,,,,,,,,,,,,,457.83599998260615,,response,,,,10,E,,,,,,Space,keypress(Space),,,,lyrical,,,,-- -- --- ------ ------- --------- ----------- --------<br>--------- -------- --- ------- -- ------- ---- -- ------<br>-- --- -------- -------- Concealing ---- ---- ---- ------<br>-- --------- -- ---- -- --- -- --- ------- -- - -----<br>---------- -- -- -- ---- ----- -- ------ -- --- ------<br>-------,393237.0149999624,393236.2149999826,392770.184,392772.05500000855,392778.379,393253.686,,21,Concealing
screen,html.Screen,1_3_1_0_1_22,2021-04-20T10:39:58.898Z,,,,,,,,,,,,,,,,48,,,,,,,,,,,,,,339.32899999129586,,response,,,,10,E,,,,,,Space,keypress(Space),,,,lyrical,,,,-- -- --- ------ ------- --------- ----------- --------<br>--------- -------- --- ------- -- ------- ---- -- ------<br>-- --- -------- -------- ---------- more ---- ---- ------<br>-- --------- -- ---- -- --- -- --- ------- -- - -----<br>---------- -- -- -- ---- ----- -- ------ -- --- ------<br>-------,393593.92499999376,393593.0149999913,393228.475,393237.16499999864,393253.686,393603.482,,22,more
screen,html.Screen,1_3_1_0_1_23,2021-04-20T10:39:59.182Z,,,,,,,,,,,,,,,,48,,,,,,,,,,,,,,273.7879999972065,,response,,,,10,E,,,,,,Space,keypress(Space),,,,lyrical,,,,-- -- --- ------ ------- --------- ----------- --------<br>--------- -------- --- ------- -- ------- ---- -- ------<br>-- --- -------- -------- ---------- ---- than ---- ------<br>-- --------- -- ---- -- --- -- --- ------- -- - -----<br>---------- -- -- -- ---- ----- -- ------ -- --- ------<br>-------,393878.0849999748,393877.2699999972,393586.931,393593.98999996483,393603.482,393891.41,,23,than
screen,html.Screen,1_3_1_0_1_24,2021-04-20T10:39:59.556Z,,,,,,,,,,,,,,,,48,,,,,,,,,,,,,,360.1949999976787,,response,,,,10,E,,,,,,Space,keypress(Space),,,,lyrical,,,,-- -- --- ------ ------- --------- ----------- --------<br>--------- -------- --- ------- -- ------- ---- -- ------<br>-- --- -------- -------- ---------- ---- ---- that ------<br>-- --------- -- ---- -- --- -- --- ------- -- - -----<br>---------- -- -- -- ---- ----- -- ------ -- --- ------<br>-------,394252.49499996426,394251.60499999765,393869.702,393878.1500000041,393891.41,394261.473,,24,that
screen,html.Screen,1_3_1_0_1_25,2021-04-20T10:40:00.010Z,,,,,,,,,,,,,,,,48,,,,,,,,,,,,,,444.716999997152,,response,,,,10,E,,,,,,Space,keypress(Space),,,,lyrical,,,,-- -- --- ------ ------- --------- ----------- --------<br>--------- -------- --- ------- -- ------- ---- -- ------<br>-- --- -------- -------- ---------- ---- ---- ---- amount<br>-- --------- -- ---- -- --- -- --- ------- -- - -----<br>---------- -- -- -- ---- ----- -- ------ -- --- ------<br>-------,394706.7950000055,394706.18999999715,394241.087,394252.57499999134,394261.473,394715.658,,25,amount
screen,html.Screen,1_3_1_0_1_26,2021-04-20T10:40:00.480Z,,,,,,,,,,,,,,,,48,,,,,,,,,,,,,,460.26200000877725,,response,,,,10,E,,,,,,Space,keypress(Space),,,,lyrical,,,,-- -- --- ------ ------- --------- ----------- --------<br>--------- -------- --- ------- -- ------- ---- -- ------<br>-- --- -------- -------- ---------- ---- ---- ---- ------<br>to --------- -- ---- -- --- -- --- ------- -- - -----<br>---------- -- -- -- ---- ----- -- ------ -- --- ------<br>-------,395176.36499996297,395175.9200000088,394695.059,394706.8549999967,394715.658,395195.331,,26,to
screen,html.Screen,1_3_1_0_1_27,2021-04-20T10:40:00.883Z,,,,,,,,,,,,,,,,48,,,,,,,,,,,,,,383.1639999651816,,response,,,,10,E,,,,,,Space,keypress(Space),,,,lyrical,,,,-- -- --- ------ ------- --------- ----------- --------<br>--------- -------- --- ------- -- ------- ---- -- ------<br>-- --- -------- -------- ---------- ---- ---- ---- ------<br>-- transport -- ---- -- --- -- --- ------- -- - -----<br>---------- -- -- -- ---- ----- -- ------ -- --- ------<br>-------,395579.0299999644,395578.4949999652,395165.657,395176.4349999721,395195.331,395586.952,,27,transport
screen,html.Screen,1_3_1_0_1_28,2021-04-20T10:40:01.208Z,,,,,,,,,,,,,,,,48,,,,,,,,,,,,,,316.4679999878281,,response,,,,10,E,,,,,,Space,keypress(Space),,,,lyrical,,,,-- -- --- ------ ------- --------- ----------- --------<br>--------- -------- --- ------- -- ------- ---- -- ------<br>-- --- -------- -------- ---------- ---- ---- ---- ------<br>-- --------- it ---- -- --- -- --- ------- -- - -----<br>---------- -- -- -- ---- ----- -- ------ -- --- ------<br>-------,395903.90499995556,395903.4199999878,395578.669,395579.0949999937,395586.952,395924.151,,28,it
screen,html.Screen,1_3_1_0_1_29,2021-04-20T10:40:01.647Z,,,,,,,,,,,,,,,,48,,,,,,,,,,,,,,418.4289999968023,,response,,,,10,E,,,,,,Space,keypress(Space),,,,lyrical,,,,-- -- --- ------ ------- --------- ----------- --------<br>--------- -------- --- ------- -- ------- ---- -- ------<br>-- --- -------- -------- ---------- ---- ---- ---- ------<br>-- --------- -- into -- --- -- --- ------- -- - -----<br>---------- -- -- -- ---- ----- -- ------ -- --- ------<br>-------,396343.03499996895,396342.5799999968,395903.714,395903.96999998484,395924.151,396357.975,,29,into
screen,html.Screen,1_3_1_0_1_30,2021-04-20T10:40:01.982Z,,,,,,,,,,,,,,,,48,,,,,,,,,,,,,,319.99499996064696,,response,,,,10,E,,,,,,Space,keypress(Space),,,,lyrical,,,,-- -- --- ------ ------- --------- ----------- --------<br>--------- -------- --- ------- -- ------- ---- -- ------<br>-- --- -------- -------- ---------- ---- ---- ---- ------<br>-- --------- -- ---- or --- -- --- ------- -- - -----<br>---------- -- -- -- ---- ----- -- ------ -- --- ------<br>-------,396678.40999999316,396677.9699999606,396340.723,396343.2850000099,396357.975,396686.623,,30,or
screen,html.Screen,1_3_1_0_1_31,2021-04-20T10:40:02.321Z,,,,,,,,,,,,,,,,48,,,,,,,,,,,,,,330.01200000720564,,response,,,,10,E,,,,,,Space,keypress(Space),,,,lyrical,,,,-- -- --- ------ ------- --------- ----------- --------<br>--------- -------- --- ------- -- ------- ---- -- ------<br>-- --- -------- -------- ---------- ---- ---- ---- ------<br>-- --------- -- ---- -- out -- --- ------- -- - -----<br>---------- -- -- -- ---- ----- -- ------ -- --- ------<br>-------,397017.08999997936,397016.6350000072,396674.546,396678.4800000023,396686.623,397036.652,,31,out
screen,html.Screen,1_3_1_0_1_32,2021-04-20T10:40:02.616Z,,,,,,,,,,,,,,,,48,,,,,,,,,,,,,,275.0979999934789,,response,,,,10,E,,,,,,Space,keypress(Space),,,,lyrical,,,,-- -- --- ------ ------- --------- ----------- --------<br>--------- -------- --- ------- -- ------- ---- -- ------<br>-- --- -------- -------- ---------- ---- ---- ---- ------<br>-- --------- -- ---- -- --- of --- ------- -- - -----<br>---------- -- -- -- ---- ----- -- ------ -- --- ------<br>-------,397312.4499999685,397311.7499999935,397003.69,397017.15500000864,397036.652,397324.2,,32,of
screen,html.Screen,1_3_1_0_1_33,2021-04-20T10:40:02.968Z,,,,,,,,,,,,,,,,48,,,,,,,,,,,,,,339.82500000548316,,response,,,,10,E,,,,,,Space,keypress(Space),,,,lyrical,,,,-- -- --- ------ ------- --------- ----------- --------<br>--------- -------- --- ------- -- ------- ---- -- ------<br>-- --- -------- -------- ---------- ---- ---- ---- ------<br>-- --------- -- ---- -- --- -- the ------- -- - -----<br>---------- -- -- -- ---- ----- -- ------ -- --- ------<br>-------,397664.449999982,397664.0250000055,397303.695,397312.50999995973,397324.2,397678.907,,33,the
screen,html.Screen,1_3_1_0_1_34,2021-04-20T10:40:03.348Z,,,,,,,,,,,,,,,,48,,,,,,,,,,,,,,364.6729999977397,,response,,,,10,E,,,,,,Space,keypress(Space),,,,lyrical,,,,-- -- --- ------ ------- --------- ----------- --------<br>--------- -------- --- ------- -- ------- ---- -- ------<br>-- --- -------- -------- ---------- ---- ---- ---- ------<br>-- --------- -- ---- -- --- -- --- country -- - -----<br>---------- -- -- -- ---- ----- -- ------ -- --- ------<br>-------,398044.1099999589,398043.57999999775,397657.429,397664.5649999846,397678.907,398049.621,,34,country
screen,html.Screen,1_3_1_0_1_35,2021-04-20T10:40:03.696Z,,,,,,,,,,,,,,,,48,,,,,,,,,,,,,,342.5039999548462,,response,,,,10,E,,,,,,Space,keypress(Space),,,,lyrical,,,,-- -- --- ------ ------- --------- ----------- --------<br>--------- -------- --- ------- -- ------- ---- -- ------<br>-- --- -------- -------- ---------- ---- ---- ---- ------<br>-- --------- -- ---- -- --- -- --- ------- is - -----<br>---------- -- -- -- ---- ----- -- ------ -- --- ------<br>-------,398392.6349999965,398392.12499995483,398028.775,398044.1700000083,398049.621,398399.45,,35,is
screen,html.Screen,1_3_1_0_1_36,2021-04-20T10:40:04.030Z,,,,,,,,,,,,,,,,48,,,,,,,,,,,,,,325.9200000001001,,response,,,,10,E,,,,,,Space,keypress(Space),,,,lyrical,,,,-- -- --- ------ ------- --------- ----------- --------<br>--------- -------- --- ------- -- ------- ---- -- ------<br>-- --- -------- -------- ---------- ---- ---- ---- ------<br>-- --------- -- ---- -- --- -- --- ------- -- a -----<br>---------- -- -- -- ---- ----- -- ------ -- --- ------<br>-------,398725.9750000085,398725.3700000001,398382.874,398392.7299999632,398399.45,398728.439,,36,a
screen,html.Screen,1_3_1_0_1_37,2021-04-20T10:40:04.454Z,,,,,,,,,,,,,,,,48,,,,,,,,,,,,,,421.30099996435456,,response,,,,10,E,,,,,,Space,keypress(Space),,,,lyrical,,,,-- -- --- ------ ------- --------- ----------- --------<br>--------- -------- --- ------- -- ------- ---- -- ------<br>-- --- -------- -------- ---------- ---- ---- ---- ------<br>-- --------- -- ---- -- --- -- --- ------- -- - crime<br>---------- -- -- -- ---- ----- -- ------ -- --- ------<br>-------,399150.2399999881,399149.73999996437,398715.924,398726.03999997955,398728.439,399165.91,,37,crime
screen,html.Screen,1_3_1_0_1_38,2021-04-20T10:40:04.831Z,,,,,,,,,,,,,,,,48,,,,,,,,,,,,,,360.6899999828893,,response,,,,10,E,,,,,,Space,keypress(Space),,,,lyrical,,,,-- -- --- ------ ------- --------- ----------- --------<br>--------- -------- --- ------- -- ------- ---- -- ------<br>-- --- -------- -------- ---------- ---- ---- ---- ------<br>-- --------- -- ---- -- --- -- --- ------- -- - -----<br>punishable -- -- -- ---- ----- -- ------ -- --- ------<br>-------,399527.02999999747,399526.59999998286,399145.446,399150.34499997273,399165.91,399537.82,,38,punishable
screen,html.Screen,1_3_1_0_1_39,2021-04-20T10:40:05.231Z,,,,,,,,,,,,,,,,48,,,,,,,,,,,,,,389.44999998557614,,response,,,,10,E,,,,,,Space,keypress(Space),,,,lyrical,,,,-- -- --- ------ ------- --------- ----------- --------<br>--------- -------- --- ------- -- ------- ---- -- ------<br>-- --- -------- -------- ---------- ---- ---- ---- ------<br>-- --------- -- ---- -- --- -- --- ------- -- - -----<br>---------- by -- -- ---- ----- -- ------ -- --- ------<br>-------,399927.7599999914,399927.2699999856,399516.269,399527.10999996634,399537.82,399949.241,,39,by
screen,html.Screen,1_3_1_0_1_40,2021-04-20T10:40:05.496Z,,,,,,,,,,,,,,,,48,,,,,,,,,,,,,,242.5689999893657,,response,,,,10,E,,,,,,Space,keypress(Space),,,,lyrical,,,,-- -- --- ------ ------- --------- ----------- --------<br>--------- -------- --- ------- -- ------- ---- -- ------<br>-- --- -------- -------- ---------- ---- ---- ---- ------<br>-- --------- -- ---- -- --- -- --- ------- -- - -----<br>---------- -- up -- ---- ----- -- ------ -- --- ------<br>-------,400192.2649999615,400191.80999998935,399920.51,399927.84499999834,399949.241,400199.811,,40,up
screen,html.Screen,1_3_1_0_1_41,2021-04-20T10:40:05.713Z,,,,,,,,,,,,,,,,48,,,,,,,,,,,,,,208.7089999972377,,response,,,,10,E,,,,,,Space,keypress(Space),,,,lyrical,,,,-- -- --- ------ ------- --------- ----------- --------<br>--------- -------- --- ------- -- ------- ---- -- ------<br>-- --- -------- -------- ---------- ---- ---- ---- ------<br>-- --------- -- ---- -- --- -- --- ------- -- - -----<br>---------- -- -- to ---- ----- -- ------ -- --- ------<br>-------,400409.32999999495,400408.5199999972,400182.594,400192.3250000109,400199.811,400424.539,,41,to
