sender,sender_type,sender_id,timestamp,meta,,Blues,Classical,Country,Dance,Electronic,Folk,Gospel,Hip-Hop,Jazz,Latin,Musical/Film,New-age,Pop,Provo_ID,R&B,Rap,Reggae,Religious,Rock,Soul,Swing,Traditional,age,artist_name,correct,correctResponse,distraction,duration,education,ended_on,familiarity,gender,headphone_check_performance,item,list,music_frequency,offensiveness,pleasantness,position_correct,preference,response,response_action,snippet_file,song_name,song_rating,sound,stimulus_1,stimulus_2,stimulus_3,text,time_commit,time_end,time_render,time_run,time_show,time_switch,url,word,word_ID
Introduction,html.Screen,0_0,2021-04-22T15:20:22.911Z,"{""labjs_version"":""20.2.2"",""labjs_build"":{""flavor"":""production"",""commit"":""a25486e0c714a0ae2ce03ff94b7bb6896854dcfa""},""location"":""https://run.pavlovia.org/mvasilev/music_e/"",""userAgent"":""Mozilla/5.0 (Macintosh; Intel Mac OS X 10_15_7) AppleWebKit/605.1.15 (KHTML, like Gecko) Version/14.0.2 Safari/605.1.15"",""platform"":""MacIntel"",""language"":""en-gb"",""locale"":""en-GB"",""timeZone"":""Europe/London"",""timezoneOffset"":-60,""screen_width"":1440,""screen_height"":900,""scroll_width"":1440,""scroll_height"":685,""window_innerWidth"":1440,""window_innerHeight"":733,""devicePixelRatio"":2}",,,,,,,,,,,,,,,,,,,,,,,,,,,,,43551.000000000015,,response,,,,,,,,,,,continue,click button,,,,,,,,,70974,70948.00000000001,27397,27375,27425,70997,{},,
Volume calibration,html.Screen,0_1,2021-04-22T15:21:18.283Z,,,,,,,,,,,,,,,,,,,,,,,,,,,,,,55379,,response,,,,,,,,,,,continue,click button,,,,,,,,,126348,126360,70981,70974,70997,126374,,,
Task instructions,html.Screen,0_2,2021-04-22T15:22:15.198Z,,,,,,,,,,,,,,,,,,,,,,,,,,,,,,56922,,response,,,,,,,,,,,continue,click button,,,,,,,,,183264,183279,126357,126348,126374,183295,,,
Sounds,html.Screen,0_3_0_0,2021-04-22T15:22:19.463Z,,,,,,,,,,,,,,,,,,,,,,,,,,,,,,4251,,timeout,,,,,,,,,2,,,,,,,,I,S,O,,187529,187529,183279,183264,183295,187546,,,
Judgement,html.Screen,0_3_0_1,2021-04-22T15:22:21.064Z,,,,,,,,,,,,,,,,,,,,,,,,,,,true,2,,1616,,response,,,,,,,,,2,,2,click #choice-2,,,,,I,S,O,,189130,189145,187529,187530,187546,189159,,,
Trial,flow.Sequence,0_3_0,2021-04-22T15:22:21.064Z,,,,,,,,,,,,,,,,,,,,,,,,,,,,,,5850,,completion,,,,,,,,,2,,,,,,,,I,S,O,,189131,189145,183279,183264,183295,189159,,,
Sounds,html.Screen,0_3_1_0,2021-04-22T15:22:25.330Z,,,,,,,,,,,,,,,,,,,,,,,,,,,,,,4253,,timeout,,,,,,,,,3,,,,,,,,O,I,S,,193396.00000000003,193396,189142,189131,189159,193412,,,
Judgement,html.Screen,0_3_1_1,2021-04-22T15:22:26.040Z,,,,,,,,,,,,,,,,,,,,,,,,,,,true,3,,726,,response,,,,,,,,,3,,3,click #choice-3,,,,,O,I,S,,194107,194122,193396,193397,193412,194128,,,
Trial,flow.Sequence,0_3_1,2021-04-22T15:22:26.040Z,,,,,,,,,,,,,,,,,,,,,,,,,,,,,,4963,,completion,,,,,,,,,3,,,,,,,,O,I,S,,194107,194122,189142,189131,189159,194128,,,
Sounds,html.Screen,0_3_2_0,2021-04-22T15:22:30.285Z,,,,,,,,,,,,,,,,,,,,,,,,,,,,,,4241,,timeout,,,,,,,,,3,,,,,,,,I,O,S,,198352,198351,194111,194107,194128,198369,,,
Judgement,html.Screen,0_3_2_1,2021-04-22T15:22:30.990Z,,,,,,,,,,,,,,,,,,,,,,,,,,,true,3,,721,,response,,,,,,,,,3,,3,click #choice-3,,,,,I,O,S,,199057.00000000003,199072,198351,198352,198369,199081,,,
Trial,flow.Sequence,0_3_2,2021-04-22T15:22:30.990Z,,,,,,,,,,,,,,,,,,,,,,,,,,,,,,4944,,completion,,,,,,,,,3,,,,,,,,I,O,S,,199057.00000000003,199072,194111,194107,194128,199081,,,
Sounds,html.Screen,0_3_3_0,2021-04-22T15:22:35.249Z,,,,,,,,,,,,,,,,,,,,,,,,,,,,,,4251,,timeout,,,,,,,,,2,,,,,,,,O,S,I,,203316,203315,199065,199057.00000000003,199081,203332,,,
Judgement,html.Screen,0_3_3_1,2021-04-22T15:22:35.809Z,,,,,,,,,,,,,,,,,,,,,,,,,,,true,2,,577,,response,,,,,,,,,2,,2,click #choice-2,,,,,O,S,I,,203876,203892,203315,203316,203332,203902,,,
Trial,flow.Sequence,0_3_3,2021-04-22T15:22:35.809Z,,,,,,,,,,,,,,,,,,,,,,,,,,,,,,4811,,completion,,,,,,,,,2,,,,,,,,O,S,I,,203876,203892,199065,199057.00000000003,199081,203902,,,
Sounds,html.Screen,0_3_4_0,2021-04-22T15:22:40.068Z,,,,,,,,,,,,,,,,,,,,,,,,,,,,,,4250,,timeout,,,,,,,,,1,,,,,,,,S,O,I,,208135,208135,203886,203876,203902,208152,,,
Judgement,html.Screen,0_3_4_1,2021-04-22T15:22:40.799Z,,,,,,,,,,,,,,,,,,,,,,,,,,,true,1,,747,,response,,,,,,,,,1,,1,click #choice-1,,,,,S,O,I,,208866,208882,208135,208135,208152,208895,,,
Trial,flow.Sequence,0_3_4,2021-04-22T15:22:40.799Z,,,,,,,,,,,,,,,,,,,,,,,,,,,,,,4980,,completion,,,,,,,,,1,,,,,,,,S,O,I,,208866,208882,203886,203876,203902,208895,,,
Sounds,html.Screen,0_3_5_0,2021-04-22T15:22:45.063Z,,,,,,,,,,,,,,,,,,,,,,,,,,,,,,4252,,timeout,,,,,,,,,1,,,,,,,,S,I,O,,213130,213130,208879,208867,208895,213147,,,
Judgement,html.Screen,0_3_5_1,2021-04-22T15:22:45.598Z,,,,,,,,,,,,,,,,,,,,,,,,,,,true,1,,550,,response,,,,,,,,,1,,1,click #choice-1,,,,,S,I,O,,213665,213680,213130,213130,213147,213694,,,
Trial,flow.Sequence,0_3_5,2021-04-22T15:22:45.598Z,,,,,,,,,,,,,,,,,,,,,,,,,,,,,,4785,,completion,,,,,,,,,1,,,,,,,,S,I,O,,213665,213680,208879,208867,208895,213694,,,
Task,flow.Loop,0_3,2021-04-22T15:22:45.600Z,,,,,,,,,,,,,,,,,,,,,,,,,,,,,,30385,,completion,,,1,,,,,,,,,,,,,,,,,,213667,213680,183279,183264,183295,213694,,,
Trap,html.Screen,0_4,2021-04-22T15:22:45.601Z,,,,,,,,,,,,,,,,,,,,,,,,,,,,,,NaN,,skipped,,,,,,,,,,,,,,,,,,,,,213668,213680,,213668,,213694,,,
Thanks,html.Screen,0_5,2021-04-22T15:22:53.006Z,,,,,,,,,,,,,,,,,,,,,,,,,,,,,,7413,,response,,,,,,,,,,,continue,click button,,,,,,,,,221073,221089,213676,213668,213694,224048,,,
Headphone screening,flow.Sequence,0,2021-04-22T15:22:53.006Z,,,,,,,,,,,,,,,,,,,,,,,,,,,,,,193664,,completion,,,,,,,,,,,,,,,,,,,,,221074,221089,27397,27375,27425,224048,,,
Instructions,html.Page,1_0,2021-04-22T15:23:33.425Z,,,,,,,,,,,,,,,,,,,,,,,,,,,,,,37445,,form submission,,,,,,,,,,,,,,,,,,,,,261494.00000000003,261493,224032,224011,224048,261510,,,
Holding screen,html.Screen,1_1_0_0,2021-04-22T15:23:43.430Z,,,,,,,,,,,,,,,,,,,,,,,,,,,,,,10017,,timeout,,,,,,,,,,,,,,,,,,,,,271499,271499,261499,261494.00000000003,261510,271527,,,
screen,html.Screen,1_1_0_1_0,2021-04-22T15:23:44.525Z,,,,,,,,,,,,,,,,53,,,,,,,,,,,,,,1110,,response,,,,99,,,,,,,Space,keypress(Space),,,,,,,,When -- ----- -- ------ - ------- --- ----------<br>------------- ------ ------ ---- ---- ------- ----- -- ----<br>-------- ------- -- ---------- --- - --- ----- ----- ----<br>---- --- --- ----- --- ---- ---- ------- ----- ---- -------<br>--- --- -- ----- -- --- ---- -- --- ---- -- ------ ------<br>--- ----- -- ----,272595,272609,271499,271500,271527,272633,,0,When
screen,html.Screen,1_1_0_1_1,2021-04-22T15:23:45.254Z,,,,,,,,,,,,,,,,53,,,,,,,,,,,,,,723,,response,,,,99,,,,,,,Space,keypress(Space),,,,,,,,---- it ----- -- ------ - ------- --- ----------<br>------------- ------ ------ ---- ---- ------- ----- -- ----<br>-------- ------- -- ---------- --- - --- ----- ----- ----<br>---- --- --- ----- --- ---- ---- ------- ----- ---- -------<br>--- --- -- ----- -- --- ---- -- --- ---- -- ------ ------<br>--- ----- -- ----,273323,273339,272616,272595,272633,273366,,1,it
screen,html.Screen,1_1_0_1_2,2021-04-22T15:23:45.822Z,,,,,,,,,,,,,,,,53,,,,,,,,,,,,,,559,,response,,,,99,,,,,,,Space,keypress(Space),,,,,,,,---- -- comes -- ------ - ------- --- ----------<br>------------- ------ ------ ---- ---- ------- ----- -- ----<br>-------- ------- -- ---------- --- - --- ----- ----- ----<br>---- --- --- ----- --- ---- ---- ------- ----- ---- -------<br>--- --- -- ----- -- --- ---- -- --- ---- -- ------ ------<br>--- ----- -- ----,273892,273908,273349,273323,273366,273933,,2,comes
screen,html.Screen,1_1_0_1_3,2021-04-22T15:23:46.622Z,,,,,,,,,,,,,,,,53,,,,,,,,,,,,,,792,,response,,,,99,,,,,,,Space,keypress(Space),,,,,,,,---- -- ----- to ------ - ------- --- ----------<br>------------- ------ ------ ---- ---- ------- ----- -- ----<br>-------- ------- -- ---------- --- - --- ----- ----- ----<br>---- --- --- ----- --- ---- ---- ------- ----- ---- -------<br>--- --- -- ----- -- --- ---- -- --- ---- -- ------ ------<br>--- ----- -- ----,274691.00000000006,274707,273915,273892,273933,274733,,3,to
screen,html.Screen,1_1_0_1_4,2021-04-22T15:23:47.207Z,,,,,,,,,,,,,,,,53,,,,,,,,,,,,,,577.0000000000582,,response,,,,99,,,,,,,Space,keypress(Space),,,,,,,,---- -- ----- -- having - ------- --- ----------<br>------------- ------ ------ ---- ---- ------- ----- -- ----<br>-------- ------- -- ---------- --- - --- ----- ----- ----<br>---- --- --- ----- --- ---- ---- ------- ----- ---- -------<br>--- --- -- ----- -- --- ---- -- --- ---- -- ------ ------<br>--- ----- -- ----,275276,275292.00000000006,274715,274691.00000000006,274733,275303,,4,having
screen,html.Screen,1_1_0_1_5,2021-04-22T15:23:47.764Z,,,,,,,,,,,,,,,,53,,,,,,,,,,,,,,547,,response,,,,99,,,,,,,Space,keypress(Space),,,,,,,,---- -- ----- -- ------ a ------- --- ----------<br>------------- ------ ------ ---- ---- ------- ----- -- ----<br>-------- ------- -- ---------- --- - --- ----- ----- ----<br>---- --- --- ----- --- ---- ---- ------- ----- ---- -------<br>--- --- -- ----- -- --- ---- -- --- ---- -- ------ ------<br>--- ----- -- ----,275833,275834,275287,275276,275303,275878,,5,a
screen,html.Screen,1_1_0_1_6,2021-04-22T15:23:48.193Z,,,,,,,,,,,,,,,,53,,,,,,,,,,,,,,422,,response,,,,99,,,,,,,Space,keypress(Space),,,,,,,,---- -- ----- -- ------ - lasting --- ----------<br>------------- ------ ------ ---- ---- ------- ----- -- ----<br>-------- ------- -- ---------- --- - --- ----- ----- ----<br>---- --- --- ----- --- ---- ---- ------- ----- ---- -------<br>--- --- -- ----- -- --- ---- -- --- ---- -- ------ ------<br>--- ----- -- ----,276262,276278,275856,275833,275878,276304,,6,lasting
screen,html.Screen,1_1_0_1_7,2021-04-22T15:23:48.782Z,,,,,,,,,,,,,,,,53,,,,,,,,,,,,,,580,,response,,,,99,,,,,,,Space,keypress(Space),,,,,,,,---- -- ----- -- ------ - ------- and ----------<br>------------- ------ ------ ---- ---- ------- ----- -- ----<br>-------- ------- -- ---------- --- - --- ----- ----- ----<br>---- --- --- ----- --- ---- ---- ------- ----- ---- -------<br>--- --- -- ----- -- --- ---- -- --- ---- -- ------ ------<br>--- ----- -- ----,276852.00000000006,276868,276288,276262,276304,276887,,7,and
screen,html.Screen,1_1_0_1_8,2021-04-22T15:23:49.371Z,,,,,,,,,,,,,,,,53,,,,,,,,,,,,,,587,,response,,,,99,,,,,,,Space,keypress(Space),,,,,,,,---- -- ----- -- ------ - ------- --- fulfilling<br>------------- ------ ------ ---- ---- ------- ----- -- ----<br>-------- ------- -- ---------- --- - --- ----- ----- ----<br>---- --- --- ----- --- ---- ---- ------- ----- ---- -------<br>--- --- -- ----- -- --- ---- -- --- ---- -- ------ ------<br>--- ----- -- ----,277441.00000000006,277457,276870,276852.00000000006,276887,277470,,8,fulfilling
screen,html.Screen,1_1_0_1_9,2021-04-22T15:23:50.029Z,,,,,,,,,,,,,,,,53,,,,,,,,,,,,,,661.0000000000582,,response,,,,99,,,,,,,Space,keypress(Space),,,,,,,,"---- -- ----- -- ------ - ------- --- ----------<br>relationship, ------ ------ ---- ---- ------- ----- -- ----<br>-------- ------- -- ---------- --- - --- ----- ----- ----<br>---- --- --- ----- --- ---- ---- ------- ----- ---- -------<br>--- --- -- ----- -- --- ---- -- --- ---- -- ------ ------<br>--- ----- -- ----",278098,278114.00000000006,277453,277441.00000000006,277470,278137,,9,"relationship,"
screen,html.Screen,1_1_0_1_10,2021-04-22T15:23:53.441Z,,,,,,,,,,,,,,,,53,,,,,,,,,,,,,,3406,,response,,,,99,,,,,,,Space,keypress(Space),,,,,,,,---- -- ----- -- ------ - ------- --- ----------<br>------------- common ------ ---- ---- ------- ----- -- ----<br>-------- ------- -- ---------- --- - --- ----- ----- ----<br>---- --- --- ----- --- ---- ---- ------- ----- ---- -------<br>--- --- -- ----- -- --- ---- -- --- ---- -- ------ ------<br>--- ----- -- ----,281510,281527,278121,278098,278137,281537,,10,common
screen,html.Screen,1_1_0_1_11,2021-04-22T15:23:54.134Z,,,,,,,,,,,,,,,,53,,,,,,,,,,,,,,700,,response,,,,99,,,,,,,Space,keypress(Space),,,,,,,,---- -- ----- -- ------ - ------- --- ----------<br>------------- ------ wisdom ---- ---- ------- ----- -- ----<br>-------- ------- -- ---------- --- - --- ----- ----- ----<br>---- --- --- ----- --- ---- ---- ------- ----- ---- -------<br>--- --- -- ----- -- --- ---- -- --- ---- -- ------ ------<br>--- ----- -- ----,282203.00000000006,282220,281520,281511,281537,282242,,11,wisdom
screen,html.Screen,1_1_0_1_12,2021-04-22T15:23:55.206Z,,,,,,,,,,,,,,,,53,,,,,,,,,,,,,,1068.0000000000582,,response,,,,99,,,,,,,Space,keypress(Space),,,,,,,,---- -- ----- -- ------ - ------- --- ----------<br>------------- ------ ------ says ---- ------- ----- -- ----<br>-------- ------- -- ---------- --- - --- ----- ----- ----<br>---- --- --- ----- --- ---- ---- ------- ----- ---- -------<br>--- --- -- ----- -- --- ---- -- --- ---- -- ------ ------<br>--- ----- -- ----,283276,283292.00000000006,282224,282204,282242,283309,,12,says
screen,html.Screen,1_1_0_1_13,2021-04-22T15:23:56.254Z,,,,,,,,,,,,,,,,53,,,,,,,,,,,,,,1049.0000000000582,,response,,,,99,,,,,,,Space,keypress(Space),,,,,,,,---- -- ----- -- ------ - ------- --- ----------<br>------------- ------ ------ ---- that ------- ----- -- ----<br>-------- ------- -- ---------- --- - --- ----- ----- ----<br>---- --- --- ----- --- ---- ---- ------- ----- ---- -------<br>--- --- -- ----- -- --- ---- -- --- ---- -- ------ ------<br>--- ----- -- ----,284324,284340.00000000006,283291,283276,283309,284358,,13,that
screen,html.Screen,1_1_0_1_14,2021-04-22T15:23:57.217Z,,,,,,,,,,,,,,,,53,,,,,,,,,,,,,,961,,response,,,,99,,,,,,,Space,keypress(Space),,,,,,,,---- -- ----- -- ------ - ------- --- ----------<br>------------- ------ ------ ---- ---- feeling ----- -- ----<br>-------- ------- -- ---------- --- - --- ----- ----- ----<br>---- --- --- ----- --- ---- ---- ------- ----- ---- -------<br>--- --- -- ----- -- --- ---- -- --- ---- -- ------ ------<br>--- ----- -- ----,285287,285303,284342,284324,284358,285325,,14,feeling
screen,html.Screen,1_1_0_1_15,2021-04-22T15:23:58.075Z,,,,,,,,,,,,,,,,53,,,,,,,,,,,,,,852,,response,,,,99,,,,,,,Space,keypress(Space),,,,,,,,---- -- ----- -- ------ - ------- --- ----------<br>------------- ------ ------ ---- ---- ------- close -- ----<br>-------- ------- -- ---------- --- - --- ----- ----- ----<br>---- --- --- ----- --- ---- ---- ------- ----- ---- -------<br>--- --- -- ----- -- --- ---- -- --- ---- -- ------ ------<br>--- ----- -- ----,286145,286161,285309,285287,285325,286175,,15,close
screen,html.Screen,1_1_0_1_16,2021-04-22T15:23:58.859Z,,,,,,,,,,,,,,,,53,,,,,,,,,,,,,,787,,response,,,,99,,,,,,,Space,keypress(Space),,,,,,,,---- -- ----- -- ------ - ------- --- ----------<br>------------- ------ ------ ---- ---- ------- ----- to ----<br>-------- ------- -- ---------- --- - --- ----- ----- ----<br>---- --- --- ----- --- ---- ---- ------- ----- ---- -------<br>--- --- -- ----- -- --- ---- -- --- ---- -- ------ ------<br>--- ----- -- ----,286929.00000000006,286945,286158,286145,286175,286958,,16,to
screen,html.Screen,1_1_0_1_17,2021-04-22T15:23:59.603Z,,,,,,,,,,,,,,,,53,,,,,,,,,,,,,,747,,response,,,,99,,,,,,,Space,keypress(Space),,,,,,,,---- -- ----- -- ------ - ------- --- ----------<br>------------- ------ ------ ---- ---- ------- ----- -- your<br>-------- ------- -- ---------- --- - --- ----- ----- ----<br>---- --- --- ----- --- ---- ---- ------- ----- ---- -------<br>--- --- -- ----- -- --- ---- -- --- ---- -- ------ ------<br>--- ----- -- ----,287673,287689,286942,286929.00000000006,286958,287712,,17,your
screen,html.Screen,1_1_0_1_18,2021-04-22T15:24:00.380Z,,,,,,,,,,,,,,,,53,,,,,,,,,,,,,,769,,response,,,,99,,,,,,,Space,keypress(Space),,,,,,,,---- -- ----- -- ------ - ------- --- ----------<br>------------- ------ ------ ---- ---- ------- ----- -- ----<br>romantic ------- -- ---------- --- - --- ----- ----- ----<br>---- --- --- ----- --- ---- ---- ------- ----- ---- -------<br>--- --- -- ----- -- --- ---- -- --- ---- -- ------ ------<br>--- ----- -- ----,288449,288466,287697,287673,287712,288479,,18,romantic
screen,html.Screen,1_1_0_1_19,2021-04-22T15:24:00.995Z,,,,,,,,,,,,,,,,53,,,,,,,,,,,,,,618,,response,,,,99,,,,,,,Space,keypress(Space),,,,,,,,---- -- ----- -- ------ - ------- --- ----------<br>------------- ------ ------ ---- ---- ------- ----- -- ----<br>-------- partner -- ---------- --- - --- ----- ----- ----<br>---- --- --- ----- --- ---- ---- ------- ----- ---- -------<br>--- --- -- ----- -- --- ---- -- --- ---- -- ------ ------<br>--- ----- -- ----,289064,289081,288463,288449,288479,289096,,19,partner
screen,html.Screen,1_1_0_1_20,2021-04-22T15:24:01.572Z,,,,,,,,,,,,,,,,53,,,,,,,,,,,,,,579,,response,,,,99,,,,,,,Space,keypress(Space),,,,,,,,---- -- ----- -- ------ - ------- --- ----------<br>------------- ------ ------ ---- ---- ------- ----- -- ----<br>-------- ------- is ---------- --- - --- ----- ----- ----<br>---- --- --- ----- --- ---- ---- ------- ----- ---- -------<br>--- --- -- ----- -- --- ---- -- --- ---- -- ------ ------<br>--- ----- -- ----,289642,289659,289080,289064,289096,289680,,20,is
screen,html.Screen,1_1_0_1_21,2021-04-22T15:24:02.416Z,,,,,,,,,,,,,,,,53,,,,,,,,,,,,,,839,,response,,,,99,,,,,,,Space,keypress(Space),,,,,,,,---- -- ----- -- ------ - ------- --- ----------<br>------------- ------ ------ ---- ---- ------- ----- -- ----<br>-------- ------- -- paramount. --- - --- ----- ----- ----<br>---- --- --- ----- --- ---- ---- ------- ----- ---- -------<br>--- --- -- ----- -- --- ---- -- --- ---- -- ------ ------<br>--- ----- -- ----,290486,290502,289663,289642,289680,290513,,21,paramount.
screen,html.Screen,1_1_0_1_22,2021-04-22T15:24:02.898Z,,,,,,,,,,,,,,,,53,,,,,,,,,,,,,,487,,response,,,,99,,,,,,,Space,keypress(Space),,,,,,,,---- -- ----- -- ------ - ------- --- ----------<br>------------- ------ ------ ---- ---- ------- ----- -- ----<br>-------- ------- -- ---------- But - --- ----- ----- ----<br>---- --- --- ----- --- ---- ---- ------- ----- ---- -------<br>--- --- -- ----- -- --- ---- -- --- ---- -- ------ ------<br>--- ----- -- ----,290968,290984,290497,290486,290513,290996,,22,But
screen,html.Screen,1_1_0_1_23,2021-04-22T15:24:03.378Z,,,,,,,,,,,,,,,,53,,,,,,,,,,,,,,485,,response,,,,99,,,,,,,Space,keypress(Space),,,,,,,,---- -- ----- -- ------ - ------- --- ----------<br>------------- ------ ------ ---- ---- ------- ----- -- ----<br>-------- ------- -- ---------- --- a --- ----- ----- ----<br>---- --- --- ----- --- ---- ---- ------- ----- ---- -------<br>--- --- -- ----- -- --- ---- -- --- ---- -- ------ ------<br>--- ----- -- ----,291447,291464,290979,290968,290996,291480,,23,a
screen,html.Screen,1_1_0_1_24,2021-04-22T15:24:03.926Z,,,,,,,,,,,,,,,,53,,,,,,,,,,,,,,549,,response,,,,99,,,,,,,Space,keypress(Space),,,,,,,,---- -- ----- -- ------ - ------- --- ----------<br>------------- ------ ------ ---- ---- ------- ----- -- ----<br>-------- ------- -- ---------- --- - new ----- ----- ----<br>---- --- --- ----- --- ---- ---- ------- ----- ---- -------<br>--- --- -- ----- -- --- ---- -- --- ---- -- ------ ------<br>--- ----- -- ----,291996,292012,291463,291448,291480,292030,,24,new
screen,html.Screen,1_1_0_1_25,2021-04-22T15:24:04.633Z,,,,,,,,,,,,,,,,53,,,,,,,,,,,,,,707,,response,,,,99,,,,,,,Space,keypress(Space),,,,,,,,---- -- ----- -- ------ - ------- --- ----------<br>------------- ------ ------ ---- ---- ------- ----- -- ----<br>-------- ------- -- ---------- --- - --- study ----- ----<br>---- --- --- ----- --- ---- ---- ------- ----- ---- -------<br>--- --- -- ----- -- --- ---- -- --- ---- -- ------ ------<br>--- ----- -- ----,292703.00000000006,292720,292013,291996,292030,292734,,25,study
screen,html.Screen,1_1_0_1_26,2021-04-22T15:24:05.222Z,,,,,,,,,,,,,,,,53,,,,,,,,,,,,,,590,,response,,,,99,,,,,,,Space,keypress(Space),,,,,,,,---- -- ----- -- ------ - ------- --- ----------<br>------------- ------ ------ ---- ---- ------- ----- -- ----<br>-------- ------- -- ---------- --- - --- ----- finds ----<br>---- --- --- ----- --- ---- ---- ------- ----- ---- -------<br>--- --- -- ----- -- --- ---- -- --- ---- -- ------ ------<br>--- ----- -- ----,293292.00000000006,293308,292718,292703.00000000006,292734,293334,,26,finds
screen,html.Screen,1_1_0_1_27,2021-04-22T15:24:05.822Z,,,,,,,,,,,,,,,,53,,,,,,,,,,,,,,591,,response,,,,99,,,,,,,Space,keypress(Space),,,,,,,,---- -- ----- -- ------ - ------- --- ----------<br>------------- ------ ------ ---- ---- ------- ----- -- ----<br>-------- ------- -- ---------- --- - --- ----- ----- that<br>---- --- --- ----- --- ---- ---- ------- ----- ---- -------<br>--- --- -- ----- -- --- ---- -- --- ---- -- ------ ------<br>--- ----- -- ----,293891,293908,293317,293292.00000000006,293334,293934,,27,that
screen,html.Screen,1_1_0_1_28,2021-04-22T15:24:06.448Z,,,,,,,,,,,,,,,,53,,,,,,,,,,,,,,618,,response,,,,99,,,,,,,Space,keypress(Space),,,,,,,,---- -- ----- -- ------ - ------- --- ----------<br>------------- ------ ------ ---- ---- ------- ----- -- ----<br>-------- ------- -- ---------- --- - --- ----- ----- ----<br>it's --- --- ----- --- ---- ---- ------- ----- ---- -------<br>--- --- -- ----- -- --- ---- -- --- ---- -- ------ ------<br>--- ----- -- ----,294518,294535,293917,293891,293934,294550,,28,it's
screen,html.Screen,1_1_0_1_29,2021-04-22T15:24:06.863Z,,,,,,,,,,,,,,,,53,,,,,,,,,,,,,,416,,response,,,,99,,,,,,,Space,keypress(Space),,,,,,,,---- -- ----- -- ------ - ------- --- ----------<br>------------- ------ ------ ---- ---- ------- ----- -- ----<br>-------- ------- -- ---------- --- - --- ----- ----- ----<br>---- not --- ----- --- ---- ---- ------- ----- ---- -------<br>--- --- -- ----- -- --- ---- -- --- ---- -- ------ ------<br>--- ----- -- ----,294933,294950,294534,294518,294550,294967,,29,not
screen,html.Screen,1_1_0_1_30,2021-04-22T15:24:07.320Z,,,,,,,,,,,,,,,,53,,,,,,,,,,,,,,457,,response,,,,99,,,,,,,Space,keypress(Space),,,,,,,,---- -- ----- -- ------ - ------- --- ----------<br>------------- ------ ------ ---- ---- ------- ----- -- ----<br>-------- ------- -- ---------- --- - --- ----- ----- ----<br>---- --- how ----- --- ---- ---- ------- ----- ---- -------<br>--- --- -- ----- -- --- ---- -- --- ---- -- ------ ------<br>--- ----- -- ----,295390,295407,294950,294933,294967,295416,,30,how
screen,html.Screen,1_1_0_1_31,2021-04-22T15:24:07.955Z,,,,,,,,,,,,,,,,53,,,,,,,,,,,,,,642.0000000000582,,response,,,,99,,,,,,,Space,keypress(Space),,,,,,,,---- -- ----- -- ------ - ------- --- ----------<br>------------- ------ ------ ---- ---- ------- ----- -- ----<br>-------- ------- -- ---------- --- - --- ----- ----- ----<br>---- --- --- close --- ---- ---- ------- ----- ---- -------<br>--- --- -- ----- -- --- ---- -- --- ---- -- ------ ------<br>--- ----- -- ----,296025.00000000006,296042.00000000006,295400,295390,295416,296067,,31,close
screen,html.Screen,1_1_0_1_32,2021-04-22T15:24:08.565Z,,,,,,,,,,,,,,,,53,,,,,,,,,,,,,,600,,response,,,,99,,,,,,,Space,keypress(Space),,,,,,,,---- -- ----- -- ------ - ------- --- ----------<br>------------- ------ ------ ---- ---- ------- ----- -- ----<br>-------- ------- -- ---------- --- - --- ----- ----- ----<br>---- --- --- ----- you ---- ---- ------- ----- ---- -------<br>--- --- -- ----- -- --- ---- -- --- ---- -- ------ ------<br>--- ----- -- ----,296634,296651,296051,296025.00000000006,296067,296667,,32,you
screen,html.Screen,1_1_0_1_33,2021-04-22T15:24:09.046Z,,,,,,,,,,,,,,,,53,,,,,,,,,,,,,,483,,response,,,,99,,,,,,,Space,keypress(Space),,,,,,,,---- -- ----- -- ------ - ------- --- ----------<br>------------- ------ ------ ---- ---- ------- ----- -- ----<br>-------- ------- -- ---------- --- - --- ----- ----- ----<br>---- --- --- ----- --- feel ---- ------- ----- ---- -------<br>--- --- -- ----- -- --- ---- -- --- ---- -- ------ ------<br>--- ----- -- ----,297116,297133,296650,296635,296667,297150,,33,feel
screen,html.Screen,1_1_0_1_34,2021-04-22T15:24:09.493Z,,,,,,,,,,,,,,,,53,,,,,,,,,,,,,,446,,response,,,,99,,,,,,,Space,keypress(Space),,,,,,,,---- -- ----- -- ------ - ------- --- ----------<br>------------- ------ ------ ---- ---- ------- ----- -- ----<br>-------- ------- -- ---------- --- - --- ----- ----- ----<br>---- --- --- ----- --- ---- that ------- ----- ---- -------<br>--- --- -- ----- -- --- ---- -- --- ---- -- ------ ------<br>--- ----- -- ----,297562,297579,297133,297116,297150,297605,,34,that
screen,html.Screen,1_1_0_1_35,2021-04-22T15:24:10.013Z,,,,,,,,,,,,,,,,53,,,,,,,,,,,,,,511,,response,,,,99,,,,,,,Space,keypress(Space),,,,,,,,---- -- ----- -- ------ - ------- --- ----------<br>------------- ------ ------ ---- ---- ------- ----- -- ----<br>-------- ------- -- ---------- --- - --- ----- ----- ----<br>---- --- --- ----- --- ---- ---- matters ----- ---- -------<br>--- --- -- ----- -- --- ---- -- --- ---- -- ------ ------<br>--- ----- -- ----,298083,298100,297589,297563,297605,298122,,35,matters
screen,html.Screen,1_1_0_1_36,2021-04-22T15:24:10.462Z,,,,,,,,,,,,,,,,53,,,,,,,,,,,,,,444,,response,,,,99,,,,,,,Space,keypress(Space),,,,,,,,"---- -- ----- -- ------ - ------- --- ----------<br>------------- ------ ------ ---- ---- ------- ----- -- ----<br>-------- ------- -- ---------- --- - --- ----- ----- ----<br>---- --- --- ----- --- ---- ---- ------- most, ---- -------<br>--- --- -- ----- -- --- ---- -- --- ---- -- ------ ------<br>--- ----- -- ----",298532,298549,298105,298083,298122,298571,,36,"most,"
screen,html.Screen,1_1_0_1_37,2021-04-22T15:24:10.971Z,,,,,,,,,,,,,,,,53,,,,,,,,,,,,,,503,,response,,,,99,,,,,,,Space,keypress(Space),,,,,,,,---- -- ----- -- ------ - ------- --- ----------<br>------------- ------ ------ ---- ---- ------- ----- -- ----<br>-------- ------- -- ---------- --- - --- ----- ----- ----<br>---- --- --- ----- --- ---- ---- ------- ----- it's -------<br>--- --- -- ----- -- --- ---- -- --- ---- -- ------ ------<br>--- ----- -- ----,299041,299058,298555,298532,298571,299072,,37,it's
screen,html.Screen,1_1_0_1_38,2021-04-22T15:24:11.464Z,,,,,,,,,,,,,,,,53,,,,,,,,,,,,,,496,,response,,,,99,,,,,,,Space,keypress(Space),,,,,,,,---- -- ----- -- ------ - ------- --- ----------<br>------------- ------ ------ ---- ---- ------- ----- -- ----<br>-------- ------- -- ---------- --- - --- ----- ----- ----<br>---- --- --- ----- --- ---- ---- ------- ----- ---- whether<br>--- --- -- ----- -- --- ---- -- --- ---- -- ------ ------<br>--- ----- -- ----,299534,299551,299055,299041,299072,299571,,38,whether
screen,html.Screen,1_1_0_1_39,2021-04-22T15:24:11.916Z,,,,,,,,,,,,,,,,53,,,,,,,,,,,,,,448,,response,,,,99,,,,,,,Space,keypress(Space),,,,,,,,---- -- ----- -- ------ - ------- --- ----------<br>------------- ------ ------ ---- ---- ------- ----- -- ----<br>-------- ------- -- ---------- --- - --- ----- ----- ----<br>---- --- --- ----- --- ---- ---- ------- ----- ---- -------<br>you --- -- ----- -- --- ---- -- --- ---- -- ------ ------<br>--- ----- -- ----,299986,300003,299555,299534,299571,300022,,39,you
screen,html.Screen,1_1_0_1_40,2021-04-22T15:24:12.443Z,,,,,,,,,,,,,,,,53,,,,,,,,,,,,,,525.0000000000582,,response,,,,99,,,,,,,Space,keypress(Space),,,,,,,,---- -- ----- -- ------ - ------- --- ----------<br>------------- ------ ------ ---- ---- ------- ----- -- ----<br>-------- ------- -- ---------- --- - --- ----- ----- ----<br>---- --- --- ----- --- ---- ---- ------- ----- ---- -------<br>--- are -- ----- -- --- ---- -- --- ---- -- ------ ------<br>--- ----- -- ----,300513.00000000006,300530.00000000006,300005,299986,300022,300554,,40,are
screen,html.Screen,1_1_0_1_41,2021-04-22T15:24:13.013Z,,,,,,,,,,,,,,,,53,,,,,,,,,,,,,,561,,response,,,,99,,,,,,,Space,keypress(Space),,,,,,,,---- -- ----- -- ------ - ------- --- ----------<br>------------- ------ ------ ---- ---- ------- ----- -- ----<br>-------- ------- -- ---------- --- - --- ----- ----- ----<br>---- --- --- ----- --- ---- ---- ------- ----- ---- -------<br>--- --- as ----- -- --- ---- -- --- ---- -- ------ ------<br>--- ----- -- ----,301083,301100,300539,300513.00000000006,300554,301122,,41,as
screen,html.Screen,1_1_0_1_42,2021-04-22T15:24:13.508Z,,,,,,,,,,,,,,,,53,,,,,,,,,,,,,,491,,response,,,,99,,,,,,,Space,keypress(Space),,,,,,,,---- -- ----- -- ------ - ------- --- ----------<br>------------- ------ ------ ---- ---- ------- ----- -- ----<br>-------- ------- -- ---------- --- - --- ----- ----- ----<br>---- --- --- ----- --- ---- ---- ------- ----- ---- -------<br>--- --- -- close -- --- ---- -- --- ---- -- ------ ------<br>--- ----- -- ----,301578.00000000006,301595,301104,301084,301122,301605,,42,close
screen,html.Screen,1_1_0_1_43,2021-04-22T15:24:13.957Z,,,,,,,,,,,,,,,,53,,,,,,,,,,,,,,455,,response,,,,99,,,,,,,Space,keypress(Space),,,,,,,,---- -- ----- -- ------ - ------- --- ----------<br>------------- ------ ------ ---- ---- ------- ----- -- ----<br>-------- ------- -- ---------- --- - --- ----- ----- ----<br>---- --- --- ----- --- ---- ---- ------- ----- ---- -------<br>--- --- -- ----- as --- ---- -- --- ---- -- ------ ------<br>--- ----- -- ----,302027,302044,301589,301578.00000000006,301605,302055,,43,as
screen,html.Screen,1_1_0_1_44,2021-04-22T15:24:14.366Z,,,,,,,,,,,,,,,,53,,,,,,,,,,,,,,415.0000000000582,,response,,,,99,,,,,,,Space,keypress(Space),,,,,,,,---- -- ----- -- ------ - ------- --- ----------<br>------------- ------ ------ ---- ---- ------- ----- -- ----<br>-------- ------- -- ---------- --- - --- ----- ----- ----<br>---- --- --- ----- --- ---- ---- ------- ----- ---- -------<br>--- --- -- ----- -- you ---- -- --- ---- -- ------ ------<br>--- ----- -- ----,302436,302453.00000000006,302038,302027,302055,302472,,44,you
screen,html.Screen,1_1_0_1_45,2021-04-22T15:24:14.769Z,,,,,,,,,,,,,,,,53,,,,,,,,,,,,,,402,,response,,,,99,,,,,,,Space,keypress(Space),,,,,,,,---- -- ----- -- ------ - ------- --- ----------<br>------------- ------ ------ ---- ---- ------- ----- -- ----<br>-------- ------- -- ---------- --- - --- ----- ----- ----<br>---- --- --- ----- --- ---- ---- ------- ----- ---- -------<br>--- --- -- ----- -- --- want -- --- ---- -- ------ ------<br>--- ----- -- ----,302839,302856,302454,302436,302472,302859,,45,want
screen,html.Screen,1_1_0_1_46,2021-04-22T15:24:15.344Z,,,,,,,,,,,,,,,,53,,,,,,,,,,,,,,588,,response,,,,99,,,,,,,Space,keypress(Space),,,,,,,,---- -- ----- -- ------ - ------- --- ----------<br>------------- ------ ------ ---- ---- ------- ----- -- ----<br>-------- ------- -- ---------- --- - --- ----- ----- ----<br>---- --- --- ----- --- ---- ---- ------- ----- ---- -------<br>--- --- -- ----- -- --- ---- to --- ---- -- ------ ------<br>--- ----- -- ----,303414,303431,302843,302839,302859,303443,,46,to
screen,html.Screen,1_1_0_1_47,2021-04-22T15:24:15.774Z,,,,,,,,,,,,,,,,53,,,,,,,,,,,,,,436,,response,,,,99,,,,,,,Space,keypress(Space),,,,,,,,"---- -- ----- -- ------ - ------- --- ----------<br>------------- ------ ------ ---- ---- ------- ----- -- ----<br>-------- ------- -- ---------- --- - --- ----- ----- ----<br>---- --- --- ----- --- ---- ---- ------- ----- ---- -------<br>--- --- -- ----- -- --- ---- -- be, ---- -- ------ ------<br>--- ----- -- ----",303844,303862,303426,303414,303443,303875,,47,"be,"
screen,html.Screen,1_1_0_1_48,2021-04-22T15:24:16.380Z,,,,,,,,,,,,,,,,53,,,,,,,,,,,,,,608,,response,,,,99,,,,,,,Space,keypress(Space),,,,,,,,---- -- ----- -- ------ - ------- --- ----------<br>------------- ------ ------ ---- ---- ------- ----- -- ----<br>-------- ------- -- ---------- --- - --- ----- ----- ----<br>---- --- --- ----- --- ---- ---- ------- ----- ---- -------<br>--- --- -- ----- -- --- ---- -- --- even -- ------ ------<br>--- ----- -- ----,304450,304467,303859,303844,303875,304493,,48,even
screen,html.Screen,1_1_0_1_49,2021-04-22T15:24:16.862Z,,,,,,,,,,,,,,,,53,,,,,,,,,,,,,,473,,response,,,,99,,,,,,,Space,keypress(Space),,,,,,,,---- -- ----- -- ------ - ------- --- ----------<br>------------- ------ ------ ---- ---- ------- ----- -- ----<br>-------- ------- -- ---------- --- - --- ----- ----- ----<br>---- --- --- ----- --- ---- ---- ------- ----- ---- -------<br>--- --- -- ----- -- --- ---- -- --- ---- if ------ ------<br>--- ----- -- ----,304932,304949,304476,304450,304493,304960,,49,if
screen,html.Screen,1_1_0_1_50,2021-04-22T15:24:17.461Z,,,,,,,,,,,,,,,,53,,,,,,,,,,,,,,605,,response,,,,99,,,,,,,Space,keypress(Space),,,,,,,,---- -- ----- -- ------ - ------- --- ----------<br>------------- ------ ------ ---- ---- ------- ----- -- ----<br>-------- ------- -- ---------- --- - --- ----- ----- ----<br>---- --- --- ----- --- ---- ---- ------- ----- ---- -------<br>--- --- -- ----- -- --- ---- -- --- ---- -- that's ------<br>--- ----- -- ----,305531,305548,304943,304932,304960,305560,,50,that's
screen,html.Screen,1_1_0_1_51,2021-04-22T15:24:17.949Z,,,,,,,,,,,,,,,,53,,,,,,,,,,,,,,494.0000000000582,,response,,,,99,,,,,,,Space,keypress(Space),,,,,,,,---- -- ----- -- ------ - ------- --- ----------<br>------------- ------ ------ ---- ---- ------- ----- -- ----<br>-------- ------- -- ---------- --- - --- ----- ----- ----<br>---- --- --- ----- --- ---- ---- ------- ----- ---- -------<br>--- --- -- ----- -- --- ---- -- --- ---- -- ------ really<br>--- ----- -- ----,306020,306037.00000000006,305543,305531,305560,306059,,51,really
screen,html.Screen,1_1_0_1_52,2021-04-22T15:24:18.405Z,,,,,,,,,,,,,,,,53,,,,,,,,,,,,,,449,,response,,,,99,,,,,,,Space,keypress(Space),,,,,,,,---- -- ----- -- ------ - ------- --- ----------<br>------------- ------ ------ ---- ---- ------- ----- -- ----<br>-------- ------- -- ---------- --- - --- ----- ----- ----<br>---- --- --- ----- --- ---- ---- ------- ----- ---- -------<br>--- --- -- ----- -- --- ---- -- --- ---- -- ------ ------<br>not ----- -- ----,306475,306492,306043,306020,306059,306510,,52,not
screen,html.Screen,1_1_0_1_53,2021-04-22T15:24:18.806Z,,,,,,,,,,,,,,,,53,,,,,,,,,,,,,,400,,response,,,,99,,,,,,,Space,keypress(Space),,,,,,,,---- -- ----- -- ------ - ------- --- ----------<br>------------- ------ ------ ---- ---- ------- ----- -- ----<br>-------- ------- -- ---------- --- - --- ----- ----- ----<br>---- --- --- ----- --- ---- ---- ------- ----- ---- -------<br>--- --- -- ----- -- --- ---- -- --- ---- -- ------ ------<br>--- close -- ----,306876.00000000006,306893,306493,306475,306510,306909,,53,close
screen,html.Screen,1_1_0_1_54,2021-04-22T15:24:19.171Z,,,,,,,,,,,,,,,,53,,,,,,,,,,,,,,365,,response,,,,99,,,,,,,Space,keypress(Space),,,,,,,,---- -- ----- -- ------ - ------- --- ----------<br>------------- ------ ------ ---- ---- ------- ----- -- ----<br>-------- ------- -- ---------- --- - --- ----- ----- ----<br>---- --- --- ----- --- ---- ---- ------- ----- ---- -------<br>--- --- -- ----- -- --- ---- -- --- ---- -- ------ ------<br>--- ----- at ----,307241,307258,306893,306876.00000000006,306909,307259,,54,at
screen,html.Screen,1_1_0_1_55,2021-04-22T15:24:19.635Z,,,,,,,,,,,,,,,,53,,,,,,,,,,,,,,480,,response,,,,99,,,,,,,Space,keypress(Space),,,,,,,,---- -- ----- -- ------ - ------- --- ----------<br>------------- ------ ------ ---- ---- ------- ----- -- ----<br>-------- ------- -- ---------- --- - --- ----- ----- ----<br>---- --- --- ----- --- ---- ---- ------- ----- ---- -------<br>--- --- -- ----- -- --- ---- -- --- ---- -- ------ ------<br>--- ----- -- all.,307705,307722,307242,307241,307259,307742,,55,all.
Item 99,flow.Loop,1_1_0_1,2021-04-22T15:24:19.635Z,,,,,,,,,,,,,,,,,,,,,,,,,,,,,,36195,,completion,,,,,E,,,,,,,,,,,silence,,,,,307705,307722,271499,271500,271527,307742,,,
Question 1,html.Screen,1_1_0_2,2021-04-22T15:24:26.265Z,,,,,,,,,,,,,,,,,,,,,,,,,,,false,FALSE,,6603,,response,,,,99,E,,,,,,TRUE,click #choice-1,,,,silence,,,,,314335,314329,307726,307705,307742,314362,,,
Question 2,html.Screen,1_1_0_3,2021-04-22T15:24:33.828Z,,,,,,,,,,,,,,,,,,,,,,,,,,,false,TRUE,,7572,,response,,,,99,E,,,,,,FALSE,click #choice-2,,,,silence,,,,,321899,321918,314346,314335,314362,321919,,,
Item 99,flow.Sequence,1_1_0,2021-04-22T15:24:33.829Z,,,,,,,,,,,,,,,,,,,,,,,,,,,,,,60408,,completion,,,,,,,,,,,,,,,,,,,,,321899,321918,261499,261494.00000000003,261510,321919,,,
Holding screen,html.Screen,1_1_1_0,2021-04-22T15:24:43.830Z,,,,,,,,,,,,,,,,,,,,,,,,,,,,,,9998,,timeout,,,,,,,,,,,,,,,,,,,,,331901,331901,321902,321899,321919,331917,,,
screen,html.Screen,1_1_1_1_0,2021-04-22T15:24:44.679Z,,,,,,,,,,,,,,,,54,,,,,,,,,,,,,,866,,response,,,,100,,,,,,,Space,keypress(Space),,,,,,,,At --- ---- --- ------ ----- ------- ---- -- --- ------- --<br>------- ---------- ------ -- ----- -- ----- -- ---- ------<br>--- ----- --- --- ------ -------- ----- --- ------ ----- --<br>----- ----- ---------- --- --- ------ ------ ---- -- ------<br>------- --- ------ ----- --- ---- ------- -- ---- --- --<br>------- ------,332750,332767,331901,331901,331917,332784,,0,At
screen,html.Screen,1_1_1_1_1,2021-04-22T15:24:45.135Z,,,,,,,,,,,,,,,,54,,,,,,,,,,,,,,458,,response,,,,100,,,,,,,Space,keypress(Space),,,,,,,,-- the ---- --- ------ ----- ------- ---- -- --- ------- --<br>------- ---------- ------ -- ----- -- ----- -- ---- ------<br>--- ----- --- --- ------ -------- ----- --- ------ ----- --<br>----- ----- ---------- --- --- ------ ------ ---- -- ------<br>------- --- ------ ----- --- ---- ------- -- ---- --- --<br>------- ------,333206,333225,332767,332750,332784,333234,,1,the
screen,html.Screen,1_1_1_1_2,2021-04-22T15:24:45.521Z,,,,,,,,,,,,,,,,54,,,,,,,,,,,,,,393,,response,,,,100,,,,,,,Space,keypress(Space),,,,,,,,-- --- time --- ------ ----- ------- ---- -- --- ------- --<br>------- ---------- ------ -- ----- -- ----- -- ---- ------<br>--- ----- --- --- ------ -------- ----- --- ------ ----- --<br>----- ----- ---------- --- --- ------ ------ ---- -- ------<br>------- --- ------ ----- --- ---- ------- -- ---- --- --<br>------- ------,333592,333610,333217,333206,333234,333622,,2,time
screen,html.Screen,1_1_1_1_3,2021-04-22T15:24:45.919Z,,,,,,,,,,,,,,,,54,,,,,,,,,,,,,,403,,response,,,,100,,,,,,,Space,keypress(Space),,,,,,,,-- --- ---- the ------ ----- ------- ---- -- --- ------- --<br>------- ---------- ------ -- ----- -- ----- -- ---- ------<br>--- ----- --- --- ------ -------- ----- --- ------ ----- --<br>----- ----- ---------- --- --- ------ ------ ---- -- ------<br>------- --- ------ ----- --- ---- ------- -- ---- --- --<br>------- ------,333990,334009,333606,333592,333622,334022,,3,the
screen,html.Screen,1_1_1_1_4,2021-04-22T15:24:46.376Z,,,,,,,,,,,,,,,,54,,,,,,,,,,,,,,460,,response,,,,100,,,,,,,Space,keypress(Space),,,,,,,,-- --- ---- --- French ----- ------- ---- -- --- ------- --<br>------- ---------- ------ -- ----- -- ----- -- ---- ------<br>--- ----- --- --- ------ -------- ----- --- ------ ----- --<br>----- ----- ---------- --- --- ------ ------ ---- -- ------<br>------- --- ------ ----- --- ---- ------- -- ---- --- --<br>------- ------,334447,334466,334006,333990,334022,334489,,4,French
screen,html.Screen,1_1_1_1_5,2021-04-22T15:24:46.731Z,,,,,,,,,,,,,,,,54,,,,,,,,,,,,,,347,,response,,,,100,,,,,,,Space,keypress(Space),,,,,,,,-- --- ---- --- ------ crown ------- ---- -- --- ------- --<br>------- ---------- ------ -- ----- -- ----- -- ---- ------<br>--- ----- --- --- ------ -------- ----- --- ------ ----- --<br>----- ----- ---------- --- --- ------ ------ ---- -- ------<br>------- --- ------ ----- --- ---- ------- -- ---- --- --<br>------- ------,334802,334820,334473,334447,334489,334822,,5,crown
screen,html.Screen,1_1_1_1_6,2021-04-22T15:24:48.097Z,,,,,,,,,,,,,,,,54,,,,,,,,,,,,,,1380,,response,,,,100,,,,,,,Space,keypress(Space),,,,,,,,-- --- ---- --- ------ ----- secured ---- -- --- ------- --<br>------- ---------- ------ -- ----- -- ----- -- ---- ------<br>--- ----- --- --- ------ -------- ----- --- ------ ----- --<br>----- ----- ---------- --- --- ------ ------ ---- -- ------<br>------- --- ------ ----- --- ---- ------- -- ---- --- --<br>------- ------,336168,336186,334806,334802,334822,336206,,6,secured
screen,html.Screen,1_1_1_1_7,2021-04-22T15:24:49.400Z,,,,,,,,,,,,,,,,54,,,,,,,,,,,,,,1299.0000000000582,,response,,,,100,,,,,,,Space,keypress(Space),,,,,,,,-- --- ---- --- ------ ----- ------- much -- --- ------- --<br>------- ---------- ------ -- ----- -- ----- -- ---- ------<br>--- ----- --- --- ------ -------- ----- --- ------ ----- --<br>----- ----- ---------- --- --- ------ ------ ---- -- ------<br>------- --- ------ ----- --- ---- ------- -- ---- --- --<br>------- ------,337471,337489.00000000006,336190,336168,336206,337506,,7,much
screen,html.Screen,1_1_1_1_8,2021-04-22T15:24:50.226Z,,,,,,,,,,,,,,,,54,,,,,,,,,,,,,,827.0000000000582,,response,,,,100,,,,,,,Space,keypress(Space),,,,,,,,-- --- ---- --- ------ ----- ------- ---- of --- ------- --<br>------- ---------- ------ -- ----- -- ----- -- ---- ------<br>--- ----- --- --- ------ -------- ----- --- ------ ----- --<br>----- ----- ---------- --- --- ------ ------ ---- -- ------<br>------- --- ------ ----- --- ---- ------- -- ---- --- --<br>------- ------,338297,338316.00000000006,337489,337471,337506,338339,,8,of
screen,html.Screen,1_1_1_1_9,2021-04-22T15:24:51.310Z,,,,,,,,,,,,,,,,54,,,,,,,,,,,,,,1077.0000000000582,,response,,,,100,,,,,,,Space,keypress(Space),,,,,,,,-- --- ---- --- ------ ----- ------- ---- -- its ------- --<br>------- ---------- ------ -- ----- -- ----- -- ---- ------<br>--- ----- --- --- ------ -------- ----- --- ------ ----- --<br>----- ----- ---------- --- --- ------ ------ ---- -- ------<br>------- --- ------ ----- --- ---- ------- -- ---- --- --<br>------- ------,339382,339400.00000000006,338323,338297,338339,339410,,9,its
screen,html.Screen,1_1_1_1_10,2021-04-22T15:24:52.292Z,,,,,,,,,,,,,,,,54,,,,,,,,,,,,,,988,,response,,,,100,,,,,,,Space,keypress(Space),,,,,,,,-- --- ---- --- ------ ----- ------- ---- -- --- revenue --<br>------- ---------- ------ -- ----- -- ----- -- ---- ------<br>--- ----- --- --- ------ -------- ----- --- ------ ----- --<br>----- ----- ---------- --- --- ------ ------ ---- -- ------<br>------- --- ------ ----- --- ---- ------- -- ---- --- --<br>------- ------,340363,340382,339394,339382,339410,340393,,10,revenue
screen,html.Screen,1_1_1_1_11,2021-04-22T15:24:53.289Z,,,,,,,,,,,,,,,,54,,,,,,,,,,,,,,1002,,response,,,,100,,,,,,,Space,keypress(Space),,,,,,,,-- --- ---- --- ------ ----- ------- ---- -- --- ------- by<br>------- ---------- ------ -- ----- -- ----- -- ---- ------<br>--- ----- --- --- ------ -------- ----- --- ------ ----- --<br>----- ----- ---------- --- --- ------ ------ ---- -- ------<br>------- --- ------ ----- --- ---- ------- -- ---- --- --<br>------- ------,341360,341379,340377,340363,340393,341393,,11,by
screen,html.Screen,1_1_1_1_12,2021-04-22T15:24:54.018Z,,,,,,,,,,,,,,,,54,,,,,,,,,,,,,,730,,response,,,,100,,,,,,,Space,keypress(Space),,,,,,,,-- --- ---- --- ------ ----- ------- ---- -- --- ------- --<br>issuing ---------- ------ -- ----- -- ----- -- ---- ------<br>--- ----- --- --- ------ -------- ----- --- ------ ----- --<br>----- ----- ---------- --- --- ------ ------ ---- -- ------<br>------- --- ------ ----- --- ---- ------- -- ---- --- --<br>------- ------,342089,342107,341377,341360,341393,342126,,12,issuing
screen,html.Screen,1_1_1_1_13,2021-04-22T15:24:54.726Z,,,,,,,,,,,,,,,,54,,,,,,,,,,,,,,706.0000000000582,,response,,,,100,,,,,,,Space,keypress(Space),,,,,,,,-- --- ---- --- ------ ----- ------- ---- -- --- ------- --<br>------- government ------ -- ----- -- ----- -- ---- ------<br>--- ----- --- --- ------ -------- ----- --- ------ ----- --<br>----- ----- ---------- --- --- ------ ------ ---- -- ------<br>------- --- ------ ----- --- ---- ------- -- ---- --- --<br>------- ------,342797,342816.00000000006,342110,342089,342126,342827,,13,government
screen,html.Screen,1_1_1_1_14,2021-04-22T15:24:55.461Z,,,,,,,,,,,,,,,,54,,,,,,,,,,,,,,741,,response,,,,100,,,,,,,Space,keypress(Space),,,,,,,,-- --- ---- --- ------ ----- ------- ---- -- --- ------- --<br>------- ---------- bonds. -- ----- -- ----- -- ---- ------<br>--- ----- --- --- ------ -------- ----- --- ------ ----- --<br>----- ----- ---------- --- --- ------ ------ ---- -- ------<br>------- --- ------ ----- --- ---- ------- -- ---- --- --<br>------- ------,343533,343551,342810,342798,342827,343560,,14,bonds.
screen,html.Screen,1_1_1_1_15,2021-04-22T15:24:55.926Z,,,,,,,,,,,,,,,,54,,,,,,,,,,,,,,472,,response,,,,100,,,,,,,Space,keypress(Space),,,,,,,,-- --- ---- --- ------ ----- ------- ---- -- --- ------- --<br>------- ---------- ------ In ----- -- ----- -- ---- ------<br>--- ----- --- --- ------ -------- ----- --- ------ ----- --<br>----- ----- ---------- --- --- ------ ------ ---- -- ------<br>------- --- ------ ----- --- ---- ------- -- ---- --- --<br>------- ------,343997,344016,343544,343533,343560,344031,,15,In
screen,html.Screen,1_1_1_1_16,2021-04-22T15:24:57.431Z,,,,,,,,,,,,,,,,54,,,,,,,,,,,,,,1507,,response,,,,100,,,,,,,Space,keypress(Space),,,,,,,,"-- --- ---- --- ------ ----- ------- ---- -- --- ------- --<br>------- ---------- ------ -- 1727, -- ----- -- ---- ------<br>--- ----- --- --- ------ -------- ----- --- ------ ----- --<br>----- ----- ---------- --- --- ------ ------ ---- -- ------<br>------- --- ------ ----- --- ---- ------- -- ---- --- --<br>------- ------",345502,345521,344014,343997,344031,345531,,16,"1727,"
screen,html.Screen,1_1_1_1_17,2021-04-22T15:24:58.971Z,,,,,,,,,,,,,,,,54,,,,,,,,,,,,,,1546.0000000000582,,response,,,,100,,,,,,,Space,keypress(Space),,,,,,,,-- --- ---- --- ------ ----- ------- ---- -- --- ------- --<br>------- ---------- ------ -- ----- in ----- -- ---- ------<br>--- ----- --- --- ------ -------- ----- --- ------ ----- --<br>----- ----- ---------- --- --- ------ ------ ---- -- ------<br>------- --- ------ ----- --- ---- ------- -- ---- --- --<br>------- ------,347042.00000000006,347061.00000000006,345515,345502,345531,347081,,17,in
screen,html.Screen,1_1_1_1_18,2021-04-22T15:24:59.787Z,,,,,,,,,,,,,,,,54,,,,,,,,,,,,,,814,,response,,,,100,,,,,,,Space,keypress(Space),,,,,,,,-- --- ---- --- ------ ----- ------- ---- -- --- ------- --<br>------- ---------- ------ -- ----- -- order -- ---- ------<br>--- ----- --- --- ------ -------- ----- --- ------ ----- --<br>----- ----- ---------- --- --- ------ ------ ---- -- ------<br>------- --- ------ ----- --- ---- ------- -- ---- --- --<br>------- ------,347859,347878,347064,347042.00000000006,347081,347898,,18,order
screen,html.Screen,1_1_1_1_19,2021-04-22T15:25:01.014Z,,,,,,,,,,,,,,,,54,,,,,,,,,,,,,,1223,,response,,,,100,,,,,,,Space,keypress(Space),,,,,,,,-- --- ---- --- ------ ----- ------- ---- -- --- ------- --<br>------- ---------- ------ -- ----- -- ----- to ---- ------<br>--- ----- --- --- ------ -------- ----- --- ------ ----- --<br>----- ----- ---------- --- --- ------ ------ ---- -- ------<br>------- --- ------ ----- --- ---- ------- -- ---- --- --<br>------- ------,349085,349104,347881,347859,347898,349114,,19,to
screen,html.Screen,1_1_1_1_20,2021-04-22T15:25:01.441Z,,,,,,,,,,,,,,,,54,,,,,,,,,,,,,,433,,response,,,,100,,,,,,,Space,keypress(Space),,,,,,,,-- --- ---- --- ------ ----- ------- ---- -- --- ------- --<br>------- ---------- ------ -- ----- -- ----- -- save ------<br>--- ----- --- --- ------ -------- ----- --- ------ ----- --<br>----- ----- ---------- --- --- ------ ------ ---- -- ------<br>------- --- ------ ----- --- ---- ------- -- ---- --- --<br>------- ------,349512,349531,349098,349085,349114,349552,,20,save
screen,html.Screen,1_1_1_1_21,2021-04-22T15:25:01.964Z,,,,,,,,,,,,,,,,54,,,,,,,,,,,,,,519.0000000000582,,response,,,,100,,,,,,,Space,keypress(Space),,,,,,,,"-- --- ---- --- ------ ----- ------- ---- -- --- ------- --<br>------- ---------- ------ -- ----- -- ----- -- ---- money,<br>--- ----- --- --- ------ -------- ----- --- ------ ----- --<br>----- ----- ---------- --- --- ------ ------ ---- -- ------<br>------- --- ------ ----- --- ---- ------- -- ---- --- --<br>------- ------",350035,350054.00000000006,349535,349512,349552,350069,,21,"money,"
screen,html.Screen,1_1_1_1_22,2021-04-22T15:25:02.509Z,,,,,,,,,,,,,,,,54,,,,,,,,,,,,,,549,,response,,,,100,,,,,,,Space,keypress(Space),,,,,,,,-- --- ---- --- ------ ----- ------- ---- -- --- ------- --<br>------- ---------- ------ -- ----- -- ----- -- ---- ------<br>the ----- --- --- ------ -------- ----- --- ------ ----- --<br>----- ----- ---------- --- --- ------ ------ ---- -- ------<br>------- --- ------ ----- --- ---- ------- -- ---- --- --<br>------- ------,350581,350600,350051,350035,350069,350619,,22,the
screen,html.Screen,1_1_1_1_23,2021-04-22T15:25:03.111Z,,,,,,,,,,,,,,,,54,,,,,,,,,,,,,,599,,response,,,,100,,,,,,,Space,keypress(Space),,,,,,,,-- --- ---- --- ------ ----- ------- ---- -- --- ------- --<br>------- ---------- ------ -- ----- -- ----- -- ---- ------<br>--- state --- --- ------ -------- ----- --- ------ ----- --<br>----- ----- ---------- --- --- ------ ------ ---- -- ------<br>------- --- ------ ----- --- ---- ------- -- ---- --- --<br>------- ------,351182,351201,350602,350581,350619,351219,,23,state
screen,html.Screen,1_1_1_1_24,2021-04-22T15:25:03.659Z,,,,,,,,,,,,,,,,54,,,,,,,,,,,,,,547,,response,,,,100,,,,,,,Space,keypress(Space),,,,,,,,-- --- ---- --- ------ ----- ------- ---- -- --- ------- --<br>------- ---------- ------ -- ----- -- ----- -- ---- ------<br>--- ----- cut --- ------ -------- ----- --- ------ ----- --<br>----- ----- ---------- --- --- ------ ------ ---- -- ------<br>------- --- ------ ----- --- ---- ------- -- ---- --- --<br>------- ------,351730,351749,351202,351182,351219,351769,,24,cut
screen,html.Screen,1_1_1_1_25,2021-04-22T15:25:04.172Z,,,,,,,,,,,,,,,,54,,,,,,,,,,,,,,511.0000000000582,,response,,,,100,,,,,,,Space,keypress(Space),,,,,,,,-- --- ---- --- ------ ----- ------- ---- -- --- ------- --<br>------- ---------- ------ -- ----- -- ----- -- ---- ------<br>--- ----- --- the ------ -------- ----- --- ------ ----- --<br>----- ----- ---------- --- --- ------ ------ ---- -- ------<br>------- --- ------ ----- --- ---- ------- -- ---- --- --<br>------- ------,352244,352263.00000000006,351752,351730,351769,352286,,25,the
screen,html.Screen,1_1_1_1_26,2021-04-22T15:25:04.685Z,,,,,,,,,,,,,,,,54,,,,,,,,,,,,,,507,,response,,,,100,,,,,,,Space,keypress(Space),,,,,,,,-- --- ---- --- ------ ----- ------- ---- -- --- ------- --<br>------- ---------- ------ -- ----- -- ----- -- ---- ------<br>--- ----- --- --- bonds' -------- ----- --- ------ ----- --<br>----- ----- ---------- --- --- ------ ------ ---- -- ------<br>------- --- ------ ----- --- ---- ------- -- ---- --- --<br>------- ------,352757,352776,352269,352244,352286,352784,,26,bonds'
screen,html.Screen,1_1_1_1_27,2021-04-22T15:25:05.113Z,,,,,,,,,,,,,,,,54,,,,,,,,,,,,,,435,,response,,,,100,,,,,,,Space,keypress(Space),,,,,,,,-- --- ---- --- ------ ----- ------- ---- -- --- ------- --<br>------- ---------- ------ -- ----- -- ----- -- ---- ------<br>--- ----- --- --- ------ interest ----- --- ------ ----- --<br>----- ----- ---------- --- --- ------ ------ ---- -- ------<br>------- --- ------ ----- --- ---- ------- -- ---- --- --<br>------- ------,353185,353204,352769,352757,352784,353219,,27,interest
screen,html.Screen,1_1_1_1_28,2021-04-22T15:25:05.847Z,,,,,,,,,,,,,,,,54,,,,,,,,,,,,,,736,,response,,,,100,,,,,,,Space,keypress(Space),,,,,,,,-- --- ---- --- ------ ----- ------- ---- -- --- ------- --<br>------- ---------- ------ -- ----- -- ----- -- ---- ------<br>--- ----- --- --- ------ -------- rate. --- ------ ----- --<br>----- ----- ---------- --- --- ------ ------ ---- -- ------<br>------- --- ------ ----- --- ---- ------- -- ---- --- --<br>------- ------,353918,353938,353202,353185,353219,353952,,28,rate.
screen,html.Screen,1_1_1_1_29,2021-04-22T15:25:06.410Z,,,,,,,,,,,,,,,,54,,,,,,,,,,,,,,565.0000000000582,,response,,,,100,,,,,,,Space,keypress(Space),,,,,,,,-- --- ---- --- ------ ----- ------- ---- -- --- ------- --<br>------- ---------- ------ -- ----- -- ----- -- ---- ------<br>--- ----- --- --- ------ -------- ----- The ------ ----- --<br>----- ----- ---------- --- --- ------ ------ ---- -- ------<br>------- --- ------ ----- --- ---- ------- -- ---- --- --<br>------- ------,354482,354501.00000000006,353936,353919,353952,354518,,29,The
screen,html.Screen,1_1_1_1_30,2021-04-22T15:25:07.210Z,,,,,,,,,,,,,,,,54,,,,,,,,,,,,,,799,,response,,,,100,,,,,,,Space,keypress(Space),,,,,,,,-- --- ---- --- ------ ----- ------- ---- -- --- ------- --<br>------- ---------- ------ -- ----- -- ----- -- ---- ------<br>--- ----- --- --- ------ -------- ----- --- market ----- --<br>----- ----- ---------- --- --- ------ ------ ---- -- ------<br>------- --- ------ ----- --- ---- ------- -- ---- --- --<br>------- ------,355282,355301,354502,354482,354518,355323,,30,market
screen,html.Screen,1_1_1_1_31,2021-04-22T15:25:07.763Z,,,,,,,,,,,,,,,,54,,,,,,,,,,,,,,547,,response,,,,100,,,,,,,Space,keypress(Space),,,,,,,,-- --- ---- --- ------ ----- ------- ---- -- --- ------- --<br>------- ---------- ------ -- ----- -- ----- -- ---- ------<br>--- ----- --- --- ------ -------- ----- --- ------ value --<br>----- ----- ---------- --- --- ------ ------ ---- -- ------<br>------- --- ------ ----- --- ---- ------- -- ---- --- --<br>------- ------,355835,355854,355307,355282,355323,355873,,31,value
screen,html.Screen,1_1_1_1_32,2021-04-22T15:25:08.228Z,,,,,,,,,,,,,,,,54,,,,,,,,,,,,,,461,,response,,,,100,,,,,,,Space,keypress(Space),,,,,,,,-- --- ---- --- ------ ----- ------- ---- -- --- ------- --<br>------- ---------- ------ -- ----- -- ----- -- ---- ------<br>--- ----- --- --- ------ -------- ----- --- ------ ----- of<br>----- ----- ---------- --- --- ------ ------ ---- -- ------<br>------- --- ------ ----- --- ---- ------- -- ---- --- --<br>------- ------,356299.00000000006,356318,355857,355835,355873,356339,,32,of
screen,html.Screen,1_1_1_1_33,2021-04-22T15:25:08.805Z,,,,,,,,,,,,,,,,54,,,,,,,,,,,,,,573,,response,,,,100,,,,,,,Space,keypress(Space),,,,,,,,-- --- ---- --- ------ ----- ------- ---- -- --- ------- --<br>------- ---------- ------ -- ----- -- ----- -- ---- ------<br>--- ----- --- --- ------ -------- ----- --- ------ ----- --<br>these ----- ---------- --- --- ------ ------ ---- -- ------<br>------- --- ------ ----- --- ---- ------- -- ---- --- --<br>------- ------,356877,356896,356323,356299.00000000006,356339,356907,,33,these
screen,html.Screen,1_1_1_1_34,2021-04-22T15:25:09.360Z,,,,,,,,,,,,,,,,54,,,,,,,,,,,,,,561,,response,,,,100,,,,,,,Space,keypress(Space),,,,,,,,-- --- ---- --- ------ ----- ------- ---- -- --- ------- --<br>------- ---------- ------ -- ----- -- ----- -- ---- ------<br>--- ----- --- --- ------ -------- ----- --- ------ ----- --<br>----- bonds ---------- --- --- ------ ------ ---- -- ------<br>------- --- ------ ----- --- ---- ------- -- ---- --- --<br>------- ------,357432,357451,356890,356877,356907,357473,,34,bonds
screen,html.Screen,1_1_1_1_35,2021-04-22T15:25:10.340Z,,,,,,,,,,,,,,,,54,,,,,,,,,,,,,,974,,response,,,,100,,,,,,,Space,keypress(Space),,,,,,,,"-- --- ---- --- ------ ----- ------- ---- -- --- ------- --<br>------- ---------- ------ -- ----- -- ----- -- ---- ------<br>--- ----- --- --- ------ -------- ----- --- ------ ----- --<br>----- ----- plummeted, --- --- ------ ------ ---- -- ------<br>------- --- ------ ----- --- ---- ------- -- ---- --- --<br>------- ------",358412.00000000006,358431,357457,357432,357473,358440,,35,"plummeted,"
screen,html.Screen,1_1_1_1_36,2021-04-22T15:25:10.921Z,,,,,,,,,,,,,,,,54,,,,,,,,,,,,,,589,,response,,,,100,,,,,,,Space,keypress(Space),,,,,,,,-- --- ---- --- ------ ----- ------- ---- -- --- ------- --<br>------- ---------- ------ -- ----- -- ----- -- ---- ------<br>--- ----- --- --- ------ -------- ----- --- ------ ----- --<br>----- ----- ---------- and --- ------ ------ ---- -- ------<br>------- --- ------ ----- --- ---- ------- -- ---- --- --<br>------- ------,358993,359012,358423,358412.00000000006,358440,359023,,36,and
screen,html.Screen,1_1_1_1_37,2021-04-22T15:25:11.407Z,,,,,,,,,,,,,,,,54,,,,,,,,,,,,,,492,,response,,,,100,,,,,,,Space,keypress(Space),,,,,,,,-- --- ---- --- ------ ----- ------- ---- -- --- ------- --<br>------- ---------- ------ -- ----- -- ----- -- ---- ------<br>--- ----- --- --- ------ -------- ----- --- ------ ----- --<br>----- ----- ---------- --- the ------ ------ ---- -- ------<br>------- --- ------ ----- --- ---- ------- -- ---- --- --<br>------- ------,359478,359498,359006,358993,359023,359507,,37,the
screen,html.Screen,1_1_1_1_38,2021-04-22T15:25:11.894Z,,,,,,,,,,,,,,,,54,,,,,,,,,,,,,,496,,response,,,,100,,,,,,,Space,keypress(Space),,,,,,,,-- --- ---- --- ------ ----- ------- ---- -- --- ------- --<br>------- ---------- ------ -- ----- -- ----- -- ---- ------<br>--- ----- --- --- ------ -------- ----- --- ------ ----- --<br>----- ----- ---------- --- --- market ------ ---- -- ------<br>------- --- ------ ----- --- ---- ------- -- ---- --- --<br>------- ------,359966,359985,359489,359478,359507,359994,,38,market
screen,html.Screen,1_1_1_1_39,2021-04-22T15:25:12.431Z,,,,,,,,,,,,,,,,54,,,,,,,,,,,,,,545,,response,,,,100,,,,,,,Space,keypress(Space),,,,,,,,-- --- ---- --- ------ ----- ------- ---- -- --- ------- --<br>------- ---------- ------ -- ----- -- ----- -- ---- ------<br>--- ----- --- --- ------ -------- ----- --- ------ ----- --<br>----- ----- ---------- --- --- ------ became ---- -- ------<br>------- --- ------ ----- --- ---- ------- -- ---- --- --<br>------- ------,360503,360522,359977,359966,359994,360544,,39,became
screen,html.Screen,1_1_1_1_40,2021-04-22T15:25:13.034Z,,,,,,,,,,,,,,,,54,,,,,,,,,,,,,,597,,response,,,,100,,,,,,,Space,keypress(Space),,,,,,,,-- --- ---- --- ------ ----- ------- ---- -- --- ------- --<br>------- ---------- ------ -- ----- -- ----- -- ---- ------<br>--- ----- --- --- ------ -------- ----- --- ------ ----- --<br>----- ----- ---------- --- --- ------ ------ wary -- ------<br>------- --- ------ ----- --- ---- ------- -- ---- --- --<br>------- ------,361106,361125,360528,360503,360544,361144,,40,wary
screen,html.Screen,1_1_1_1_41,2021-04-22T15:25:13.589Z,,,,,,,,,,,,,,,,54,,,,,,,,,,,,,,552,,response,,,,100,,,,,,,Space,keypress(Space),,,,,,,,-- --- ---- --- ------ ----- ------- ---- -- --- ------- --<br>------- ---------- ------ -- ----- -- ----- -- ---- ------<br>--- ----- --- --- ------ -------- ----- --- ------ ----- --<br>----- ----- ---------- --- --- ------ ------ ---- of ------<br>------- --- ------ ----- --- ---- ------- -- ---- --- --<br>------- ------,361661,361680,361128,361106,361144,361694,,41,of
screen,html.Screen,1_1_1_1_42,2021-04-22T15:25:14.093Z,,,,,,,,,,,,,,,,54,,,,,,,,,,,,,,507,,response,,,,100,,,,,,,Space,keypress(Space),,,,,,,,-- --- ---- --- ------ ----- ------- ---- -- --- ------- --<br>------- ---------- ------ -- ----- -- ----- -- ---- ------<br>--- ----- --- --- ------ -------- ----- --- ------ ----- --<br>----- ----- ---------- --- --- ------ ------ ---- -- French<br>------- --- ------ ----- --- ---- ------- -- ---- --- --<br>------- ------,362165,362184,361677,361661,361694,362193,,42,French
screen,html.Screen,1_1_1_1_43,2021-04-22T15:25:14.617Z,,,,,,,,,,,,,,,,54,,,,,,,,,,,,,,531,,response,,,,100,,,,,,,Space,keypress(Space),,,,,,,,-- --- ---- --- ------ ----- ------- ---- -- --- ------- --<br>------- ---------- ------ -- ----- -- ----- -- ---- ------<br>--- ----- --- --- ------ -------- ----- --- ------ ----- --<br>----- ----- ---------- --- --- ------ ------ ---- -- ------<br>credit. --- ------ ----- --- ---- ------- -- ---- --- --<br>------- ------,362689,362708,362177,362165,362193,362728,,43,credit.
screen,html.Screen,1_1_1_1_44,2021-04-22T15:25:15.081Z,,,,,,,,,,,,,,,,54,,,,,,,,,,,,,,462,,response,,,,100,,,,,,,Space,keypress(Space),,,,,,,,-- --- ---- --- ------ ----- ------- ---- -- --- ------- --<br>------- ---------- ------ -- ----- -- ----- -- ---- ------<br>--- ----- --- --- ------ -------- ----- --- ------ ----- --<br>----- ----- ---------- --- --- ------ ------ ---- -- ------<br>------- The ------ ----- --- ---- ------- -- ---- --- --<br>------- ------,363153,363172,362710,362689,362728,363194,,44,The
screen,html.Screen,1_1_1_1_45,2021-04-22T15:25:15.496Z,,,,,,,,,,,,,,,,54,,,,,,,,,,,,,,411,,response,,,,100,,,,,,,Space,keypress(Space),,,,,,,,-- --- ---- --- ------ ----- ------- ---- -- --- ------- --<br>------- ---------- ------ -- ----- -- ----- -- ---- ------<br>--- ----- --- --- ------ -------- ----- --- ------ ----- --<br>----- ----- ---------- --- --- ------ ------ ---- -- ------<br>------- --- French ----- --- ---- ------- -- ---- --- --<br>------- ------,363568,363588,363177,363153,363194,363611,,45,French
screen,html.Screen,1_1_1_1_46,2021-04-22T15:25:15.933Z,,,,,,,,,,,,,,,,54,,,,,,,,,,,,,,430,,response,,,,100,,,,,,,Space,keypress(Space),,,,,,,,-- --- ---- --- ------ ----- ------- ---- -- --- ------- --<br>------- ---------- ------ -- ----- -- ----- -- ---- ------<br>--- ----- --- --- ------ -------- ----- --- ------ ----- --<br>----- ----- ---------- --- --- ------ ------ ---- -- ------<br>------- --- ------ state --- ---- ------- -- ---- --- --<br>------- ------,364005,364024,363594,363568,363611,364043,,46,state
screen,html.Screen,1_1_1_1_47,2021-04-22T15:25:16.246Z,,,,,,,,,,,,,,,,54,,,,,,,,,,,,,,310,,response,,,,100,,,,,,,Space,keypress(Space),,,,,,,,-- --- ---- --- ------ ----- ------- ---- -- --- ------- --<br>------- ---------- ------ -- ----- -- ----- -- ---- ------<br>--- ----- --- --- ------ -------- ----- --- ------ ----- --<br>----- ----- ---------- --- --- ------ ------ ---- -- ------<br>------- --- ------ ----- was ---- ------- -- ---- --- --<br>------- ------,364318,364337,364027,364005,364043,364344,,47,was
screen,html.Screen,1_1_1_1_48,2021-04-22T15:25:16.555Z,,,,,,,,,,,,,,,,54,,,,,,,,,,,,,,318,,response,,,,100,,,,,,,Space,keypress(Space),,,,,,,,-- --- ---- --- ------ ----- ------- ---- -- --- ------- --<br>------- ---------- ------ -- ----- -- ----- -- ---- ------<br>--- ----- --- --- ------ -------- ----- --- ------ ----- --<br>----- ----- ---------- --- --- ------ ------ ---- -- ------<br>------- --- ------ ----- --- left ------- -- ---- --- --<br>------- ------,364627,364646,364328,364318,364344,364661,,48,left
screen,html.Screen,1_1_1_1_49,2021-04-22T15:25:16.891Z,,,,,,,,,,,,,,,,54,,,,,,,,,,,,,,339,,response,,,,100,,,,,,,Space,keypress(Space),,,,,,,,-- --- ---- --- ------ ----- ------- ---- -- --- ------- --<br>------- ---------- ------ -- ----- -- ----- -- ---- ------<br>--- ----- --- --- ------ -------- ----- --- ------ ----- --<br>----- ----- ---------- --- --- ------ ------ ---- -- ------<br>------- --- ------ ----- --- ---- without -- ---- --- --<br>------- ------,364964,364983,364644,364627,364661,364982,,49,without
screen,html.Screen,1_1_1_1_50,2021-04-22T15:25:17.175Z,,,,,,,,,,,,,,,,54,,,,,,,,,,,,,,302,,response,,,,100,,,,,,,Space,keypress(Space),,,,,,,,-- --- ---- --- ------ ----- ------- ---- -- --- ------- --<br>------- ---------- ------ -- ----- -- ----- -- ---- ------<br>--- ----- --- --- ------ -------- ----- --- ------ ----- --<br>----- ----- ---------- --- --- ------ ------ ---- -- ------<br>------- --- ------ ----- --- ---- ------- an ---- --- --<br>------- ------,365247,365267,364965,364964,364982,365265,,50,an
screen,html.Screen,1_1_1_1_51,2021-04-22T15:25:17.428Z,,,,,,,,,,,,,,,,54,,,,,,,,,,,,,,272,,response,,,,100,,,,,,,Space,keypress(Space),,,,,,,,-- --- ---- --- ------ ----- ------- ---- -- --- ------- --<br>------- ---------- ------ -- ----- -- ----- -- ---- ------<br>--- ----- --- --- ------ -------- ----- --- ------ ----- --<br>----- ----- ---------- --- --- ------ ------ ---- -- ------<br>------- --- ------ ----- --- ---- ------- -- easy --- --<br>------- ------,365500,365520,365248,365247,365265,365532,,51,easy
screen,html.Screen,1_1_1_1_52,2021-04-22T15:25:17.675Z,,,,,,,,,,,,,,,,54,,,,,,,,,,,,,,251,,response,,,,100,,,,,,,Space,keypress(Space),,,,,,,,-- --- ---- --- ------ ----- ------- ---- -- --- ------- --<br>------- ---------- ------ -- ----- -- ----- -- ---- ------<br>--- ----- --- --- ------ -------- ----- --- ------ ----- --<br>----- ----- ---------- --- --- ------ ------ ---- -- ------<br>------- --- ------ ----- --- ---- ------- -- ---- way --<br>------- ------,365747,365766,365515,365501.00000000006,365532,365765,,52,way
screen,html.Screen,1_1_1_1_53,2021-04-22T15:25:18.037Z,,,,,,,,,,,,,,,,54,,,,,,,,,,,,,,380,,response,,,,100,,,,,,,Space,keypress(Space),,,,,,,,-- --- ---- --- ------ ----- ------- ---- -- --- ------- --<br>------- ---------- ------ -- ----- -- ----- -- ---- ------<br>--- ----- --- --- ------ -------- ----- --- ------ ----- --<br>----- ----- ---------- --- --- ------ ------ ---- -- ------<br>------- --- ------ ----- --- ---- ------- -- ---- --- of<br>------- ------,366109,366128,365748,365747,365765,366131,,53,of
screen,html.Screen,1_1_1_1_54,2021-04-22T15:25:18.358Z,,,,,,,,,,,,,,,,54,,,,,,,,,,,,,,335,,response,,,,100,,,,,,,Space,keypress(Space),,,,,,,,-- --- ---- --- ------ ----- ------- ---- -- --- ------- --<br>------- ---------- ------ -- ----- -- ----- -- ---- ------<br>--- ----- --- --- ------ -------- ----- --- ------ ----- --<br>----- ----- ---------- --- --- ------ ------ ---- -- ------<br>------- --- ------ ----- --- ---- ------- -- ---- --- --<br>raising ------,366430,366450,366115,366109,366131,366448,,54,raising
screen,html.Screen,1_1_1_1_55,2021-04-22T15:25:18.840Z,,,,,,,,,,,,,,,,54,,,,,,,,,,,,,,500,,response,,,,100,,,,,,,Space,keypress(Space),,,,,,,,-- --- ---- --- ------ ----- ------- ---- -- --- ------- --<br>------- ---------- ------ -- ----- -- ----- -- ---- ------<br>--- ----- --- --- ------ -------- ----- --- ------ ----- --<br>----- ----- ---------- --- --- ------ ------ ---- -- ------<br>------- --- ------ ----- --- ---- ------- -- ---- --- --<br>------- money.,366912.00000000006,366931,366431,366430,366448,366949,,55,money.
Item 100,flow.Loop,1_1_1_1,2021-04-22T15:25:18.840Z,,,,,,,,,,,,,,,,,,,,,,,,,,,,,,35014,,completion,,,,,E,,,,,,,,,,,silence,,,,,366912.00000000006,366931,331901,331901,331917,366949,,,
Question 1,html.Screen,1_1_1_2,2021-04-22T15:25:21.812Z,,,,,,,,,,,,,,,,,,,,,,,,,,,true,TRUE,,2974.000000000058,,response,,,,100,E,,,,,,TRUE,click #choice-1,,,,silence,,,,,369884,369905.00000000006,366931,366912.00000000006,366949,369907,,,
Question 2,html.Screen,1_1_1_3,2021-04-22T15:25:25.246Z,,,,,,,,,,,,,,,,,,,,,,,,,,,true,FALSE,,3449.000000000058,,response,,,,100,E,,,,,,FALSE,click #choice-2,,,,silence,,,,,373319,373340.00000000006,369891,369884,369907,373342,,,
Item 100,flow.Sequence,1_1_1,2021-04-22T15:25:25.247Z,,,,,,,,,,,,,,,,,,,,,,,,,,,,,,51421.00000000006,,completion,,,,,,,,,,,,,,,,,,,,,373319,373340.00000000006,321902,321899,321919,373342,,,
End of Practice,html.Page,1_1_2,2021-04-22T15:25:29.092Z,,,,,,,,,,,,,,,,,,,,,,,,,,,,,,3822,,form submission,,,,,,,,,,,,,,,,,,,,,377164,377164,373324,373319,373342,377182,,,
Practice,flow.Sequence,1_1,2021-04-22T15:25:29.092Z,,,,,,,,,,,,,,,,,,,,,,,,,,,,,,115654,,completion,,,,,,,,,,,,,,,,,,,,,377165,377164,261499,261494.00000000003,261510,377182,,,
Trap_instruction,html.Page,1_2_0,2021-04-22T15:25:34.012Z,,,,,,,,,,,,,,,,,,,,,,,,,,,,,,4903,,form submission,,,,,,,,,,,,,,,,,,,,,382085,382085,377168,377165,377182,382105,,,
trap_trial,html.Screen,1_2_1,2021-04-22T15:25:38.229Z,,,,,,,,,,,,,,,,,,,,,,,,,,,true,1,,4226.000000000058,,response,,,,,,,,,,,1,click #choice-1,,,,,,,,,386302,386323.00000000006,382097,382085,382105,386336,,,
end of trap trial,html.Page,1_2_2,2021-04-22T15:25:40.433Z,,,,,,,,,,,,,,,,,,,,,,,,,,,,,,2170,,form submission,,,,,,,,,,,,,,,,,,,,,388506,388506,386334,386302,386336,388534,,,
Trap 1,flow.Sequence,1_2,2021-04-22T15:25:40.433Z,,,,,,,,,,,,,,,,,,,,,,,,,,,,,,11324,,completion,,,,,,,,,,,,,,,,,,,,,388506,388506,377168,377165,377182,388534,,,
Standby,html.Page,1_3_0,2021-04-22T15:25:48.445Z,,,,,,,,,,,,,,,,,,,,,,,,,,,,,,8000,,timeout,,,,,,,,,,,,,,,,,,,,,396518,396517,388516,388506,388534,396534,,,
Holding screen,html.Screen,1_3_1_0_0,2021-04-22T15:25:55.436Z,,,,,,,,,,,,,,,,,,,,,,,,,,,,,,6991,,timeout,,,,,,,,,,,,,,,,,,,,,403509,403509,396517,396518,396534,403525,,,
screen,html.Screen,1_3_1_0_1_0,2021-04-22T15:25:57.765Z,,,,,,,,,,,,,,,,11,,,,,,,,,,,,,,2348,,response,,,,4,E,,,,,,Space,keypress(Space),,,,lyrical,,,,Known -- ---- --- -- --- -------- ------------ ---------- --<br>- ------- ------ --------- -- ------------ -- --- ---- -----<br>------ ---- ---- ------ ------ ------- --- ----- ---------<br>---- --- -------- -------- --- --- -- ------- --- --- -----<br>-- --- ------ ------- --- --- -------- ---- --------- --<br>---------- -- -------- ----------------,405838,405857,403509,403510,403525,405875,,0,Known
screen,html.Screen,1_3_1_0_1_1,2021-04-22T15:25:58.457Z,,,,,,,,,,,,,,,,11,,,,,,,,,,,,,,693,,response,,,,4,E,,,,,,Space,keypress(Space),,,,lyrical,,,,----- as ---- --- -- --- -------- ------------ ---------- --<br>- ------- ------ --------- -- ------------ -- --- ---- -----<br>------ ---- ---- ------ ------ ------- --- ----- ---------<br>---- --- -------- -------- --- --- -- ------- --- --- -----<br>-- --- ------ ------- --- --- -------- ---- --------- --<br>---------- -- -------- ----------------,406530.00000000006,406551,405858,405838,405875,406558,,1,as
screen,html.Screen,1_3_1_0_1_2,2021-04-22T15:25:59.271Z,,,,,,,,,,,,,,,,11,,,,,,,,,,,,,,822.0000000000582,,response,,,,4,E,,,,,,Space,keypress(Space),,,,lyrical,,,,----- -- Rapa --- -- --- -------- ------------ ---------- --<br>- ------- ------ --------- -- ------------ -- --- ---- -----<br>------ ---- ---- ------ ------ ------- --- ----- ---------<br>---- --- -------- -------- --- --- -- ------- --- --- -----<br>-- --- ------ ------- --- --- -------- ---- --------- --<br>---------- -- -------- ----------------,407344,407364.00000000006,406542,406530.00000000006,406558,407379,,2,Rapa
screen,html.Screen,1_3_1_0_1_3,2021-04-22T15:26:00.045Z,,,,,,,,,,,,,,,,11,,,,,,,,,,,,,,777,,response,,,,4,E,,,,,,Space,keypress(Space),,,,lyrical,,,,----- -- ---- Nui -- --- -------- ------------ ---------- --<br>- ------- ------ --------- -- ------------ -- --- ---- -----<br>------ ---- ---- ------ ------ ------- --- ----- ---------<br>---- --- -------- -------- --- --- -- ------- --- --- -----<br>-- --- ------ ------- --- --- -------- ---- --------- --<br>---------- -- -------- ----------------,408119,408140,407363,407344,407379,408147,,3,Nui
screen,html.Screen,1_3_1_0_1_4,2021-04-22T15:26:00.520Z,,,,,,,,,,,,,,,,11,,,,,,,,,,,,,,484.0000000000582,,response,,,,4,E,,,,,,Space,keypress(Space),,,,lyrical,,,,----- -- ---- --- to --- -------- ------------ ---------- --<br>- ------- ------ --------- -- ------------ -- --- ---- -----<br>------ ---- ---- ------ ------ ------- --- ----- ---------<br>---- --- -------- -------- --- --- -- ------- --- --- -----<br>-- --- ------ ------- --- --- -------- ---- --------- --<br>---------- -- -------- ----------------,408593,408614.00000000006,408130,408119,408147,408630,,4,to
screen,html.Screen,1_3_1_0_1_5,2021-04-22T15:26:01.202Z,,,,,,,,,,,,,,,,11,,,,,,,,,,,,,,683,,response,,,,4,E,,,,,,Space,keypress(Space),,,,lyrical,,,,----- -- ---- --- -- the -------- ------------ ---------- --<br>- ------- ------ --------- -- ------------ -- --- ---- -----<br>------ ---- ---- ------ ------ ------- --- ----- ---------<br>---- --- -------- -------- --- --- -- ------- --- --- -----<br>-- --- ------ ------- --- --- -------- ---- --------- --<br>---------- -- -------- ----------------,409275.00000000006,409296,408613,408593,408630,409313,,5,the
screen,html.Screen,1_3_1_0_1_6,2021-04-22T15:26:01.832Z,,,,,,,,,,,,,,,,11,,,,,,,,,,,,,,630,,response,,,,4,E,,,,,,Space,keypress(Space),,,,lyrical,,,,----- -- ---- --- -- --- island's ------------ ---------- --<br>- ------- ------ --------- -- ------------ -- --- ---- -----<br>------ ---- ---- ------ ------ ------- --- ----- ---------<br>---- --- -------- -------- --- --- -- ------- --- --- -----<br>-- --- ------ ------- --- --- -------- ---- --------- --<br>---------- -- -------- ----------------,409905.00000000006,409926,409296,409276,409313,409946,,6,island's
screen,html.Screen,1_3_1_0_1_7,2021-04-22T15:26:02.945Z,,,,,,,,,,,,,,,,11,,,,,,,,,,,,,,1109,,response,,,,4,E,,,,,,Space,keypress(Space),,,,lyrical,,,,"----- -- ---- --- -- --- -------- inhabitants, ---------- --<br>- ------- ------ --------- -- ------------ -- --- ---- -----<br>------ ---- ---- ------ ------ ------- --- ----- ---------<br>---- --- -------- -------- --- --- -- ------- --- --- -----<br>-- --- ------ ------- --- --- -------- ---- --------- --<br>---------- -- -------- ----------------",411018,411039,409930,409905.00000000006,409946,411046,,7,"inhabitants,"
screen,html.Screen,1_3_1_0_1_8,2021-04-22T15:26:04.215Z,,,,,,,,,,,,,,,,11,,,,,,,,,,,,,,1279,,response,,,,4,E,,,,,,Space,keypress(Space),,,,lyrical,,,,----- -- ---- --- -- --- -------- ------------ Rongorongo --<br>- ------- ------ --------- -- ------------ -- --- ---- -----<br>------ ---- ---- ------ ------ ------- --- ----- ---------<br>---- --- -------- -------- --- --- -- ------- --- --- -----<br>-- --- ------ ------- --- --- -------- ---- --------- --<br>---------- -- -------- ----------------,412288,412309,411030,411018,411046,412330,,8,Rongorongo
screen,html.Screen,1_3_1_0_1_9,2021-04-22T15:26:04.943Z,,,,,,,,,,,,,,,,11,,,,,,,,,,,,,,724.0000000000582,,response,,,,4,E,,,,,,Space,keypress(Space),,,,lyrical,,,,----- -- ---- --- -- --- -------- ------------ ---------- is<br>- ------- ------ --------- -- ------------ -- --- ---- -----<br>------ ---- ---- ------ ------ ------- --- ----- ---------<br>---- --- -------- -------- --- --- -- ------- --- --- -----<br>-- --- ------ ------- --- --- -------- ---- --------- --<br>---------- -- -------- ----------------,413016,413037.00000000006,412313,412288,412330,413051,,9,is
screen,html.Screen,1_3_1_0_1_10,2021-04-22T15:26:05.475Z,,,,,,,,,,,,,,,,11,,,,,,,,,,,,,,534,,response,,,,4,E,,,,,,Space,keypress(Space),,,,lyrical,,,,----- -- ---- --- -- --- -------- ------------ ---------- --<br>a ------- ------ --------- -- ------------ -- --- ---- -----<br>------ ---- ---- ------ ------ ------- --- ----- ---------<br>---- --- -------- -------- --- --- -- ------- --- --- -----<br>-- --- ------ ------- --- --- -------- ---- --------- --<br>---------- -- -------- ----------------,413548,413568,413034,413017,413051,413584,,10,a
screen,html.Screen,1_3_1_0_1_11,2021-04-22T15:26:06.029Z,,,,,,,,,,,,,,,,11,,,,,,,,,,,,,,556,,response,,,,4,E,,,,,,Space,keypress(Space),,,,lyrical,,,,----- -- ---- --- -- --- -------- ------------ ---------- --<br>- writing ------ --------- -- ------------ -- --- ---- -----<br>------ ---- ---- ------ ------ ------- --- ----- ---------<br>---- --- -------- -------- --- --- -- ------- --- --- -----<br>-- --- ------ ------- --- --- -------- ---- --------- --<br>---------- -- -------- ----------------,414103,414124,413568,413548,413584,414134,,11,writing
screen,html.Screen,1_3_1_0_1_12,2021-04-22T15:26:06.812Z,,,,,,,,,,,,,,,,11,,,,,,,,,,,,,,790,,response,,,,4,E,,,,,,Space,keypress(Space),,,,lyrical,,,,----- -- ---- --- -- --- -------- ------------ ---------- --<br>- ------- system --------- -- ------------ -- --- ---- -----<br>------ ---- ---- ------ ------ ------- --- ----- ---------<br>---- --- -------- -------- --- --- -- ------- --- --- -----<br>-- --- ------ ------- --- --- -------- ---- --------- --<br>---------- -- -------- ----------------,414886,414907,414117,414103,414134,414917,,12,system
screen,html.Screen,1_3_1_0_1_13,2021-04-22T15:26:07.644Z,,,,,,,,,,,,,,,,11,,,,,,,,,,,,,,839.0000000000582,,response,,,,4,E,,,,,,Space,keypress(Space),,,,lyrical,,,,----- -- ---- --- -- --- -------- ------------ ---------- --<br>- ------- ------ comprised -- ------------ -- --- ---- -----<br>------ ---- ---- ------ ------ ------- --- ----- ---------<br>---- --- -------- -------- --- --- -- ------- --- --- -----<br>-- --- ------ ------- --- --- -------- ---- --------- --<br>---------- -- -------- ----------------,415718,415739.00000000006,414900,414886,414917,415750,,13,comprised
screen,html.Screen,1_3_1_0_1_14,2021-04-22T15:26:08.077Z,,,,,,,,,,,,,,,,11,,,,,,,,,,,,,,437,,response,,,,4,E,,,,,,Space,keypress(Space),,,,lyrical,,,,----- -- ---- --- -- --- -------- ------------ ---------- --<br>- ------- ------ --------- of ------------ -- --- ---- -----<br>------ ---- ---- ------ ------ ------- --- ----- ---------<br>---- --- -------- -------- --- --- -- ------- --- --- -----<br>-- --- ------ ------- --- --- -------- ---- --------- --<br>---------- -- -------- ----------------,416151,416171,415734,415718,415750,416184,,14,of
screen,html.Screen,1_3_1_0_1_15,2021-04-22T15:26:09.044Z,,,,,,,,,,,,,,,,11,,,,,,,,,,,,,,971,,response,,,,4,E,,,,,,Space,keypress(Space),,,,lyrical,,,,----- -- ---- --- -- --- -------- ------------ ---------- --<br>- ------- ------ --------- -- pictographs. -- --- ---- -----<br>------ ---- ---- ------ ------ ------- --- ----- ---------<br>---- --- -------- -------- --- --- -- ------- --- --- -----<br>-- --- ------ ------- --- --- -------- ---- --------- --<br>---------- -- -------- ----------------,417118,417139,416168,416151,416184,417150,,15,pictographs.
screen,html.Screen,1_3_1_0_1_16,2021-04-22T15:26:09.682Z,,,,,,,,,,,,,,,,11,,,,,,,,,,,,,,643,,response,,,,4,E,,,,,,Space,keypress(Space),,,,lyrical,,,,----- -- ---- --- -- --- -------- ------------ ---------- --<br>- ------- ------ --------- -- ------------ It --- ---- -----<br>------ ---- ---- ------ ------ ------- --- ----- ---------<br>---- --- -------- -------- --- --- -- ------- --- --- -----<br>-- --- ------ ------- --- --- -------- ---- --------- --<br>---------- -- -------- ----------------,417756,417777,417134,417118,417150,417784,,16,It
screen,html.Screen,1_3_1_0_1_17,2021-04-22T15:26:10.358Z,,,,,,,,,,,,,,,,11,,,,,,,,,,,,,,685.0000000000582,,response,,,,4,E,,,,,,Space,keypress(Space),,,,lyrical,,,,----- -- ---- --- -- --- -------- ------------ ---------- --<br>- ------- ------ --------- -- ------------ -- has ---- -----<br>------ ---- ---- ------ ------ ------- --- ----- ---------<br>---- --- -------- -------- --- --- -- ------- --- --- -----<br>-- --- ------ ------- --- --- -------- ---- --------- --<br>---------- -- -------- ----------------,418432,418453.00000000006,417768,417756,417784,418472,,17,has
screen,html.Screen,1_3_1_0_1_18,2021-04-22T15:26:10.783Z,,,,,,,,,,,,,,,,11,,,,,,,,,,,,,,423,,response,,,,4,E,,,,,,Space,keypress(Space),,,,lyrical,,,,----- -- ---- --- -- --- -------- ------------ ---------- --<br>- ------- ------ --------- -- ------------ -- --- been -----<br>------ ---- ---- ------ ------ ------- --- ----- ---------<br>---- --- -------- -------- --- --- -- ------- --- --- -----<br>-- --- ------ ------- --- --- -------- ---- --------- --<br>---------- -- -------- ----------------,418857,418878,418455,418432,418472,418888,,18,been
screen,html.Screen,1_3_1_0_1_19,2021-04-22T15:26:11.368Z,,,,,,,,,,,,,,,,11,,,,,,,,,,,,,,590,,response,,,,4,E,,,,,,Space,keypress(Space),,,,lyrical,,,,----- -- ---- --- -- --- -------- ------------ ---------- --<br>- ------- ------ --------- -- ------------ -- --- ---- found<br>------ ---- ---- ------ ------ ------- --- ----- ---------<br>---- --- -------- -------- --- --- -- ------- --- --- -----<br>-- --- ------ ------- --- --- -------- ---- --------- --<br>---------- -- -------- ----------------,419442,419462,418872,418857,418888,419472,,19,found
screen,html.Screen,1_3_1_0_1_20,2021-04-22T15:26:12.241Z,,,,,,,,,,,,,,,,11,,,,,,,,,,,,,,881,,response,,,,4,E,,,,,,Space,keypress(Space),,,,lyrical,,,,----- -- ---- --- -- --- -------- ------------ ---------- --<br>- ------- ------ --------- -- ------------ -- --- ---- -----<br>carved ---- ---- ------ ------ ------- --- ----- ---------<br>---- --- -------- -------- --- --- -- ------- --- --- -----<br>-- --- ------ ------- --- --- -------- ---- --------- --<br>---------- -- -------- ----------------,420315,420336,419455,419442,419472,420355,,20,carved
screen,html.Screen,1_3_1_0_1_21,2021-04-22T15:26:12.643Z,,,,,,,,,,,,,,,,11,,,,,,,,,,,,,,398,,response,,,,4,E,,,,,,Space,keypress(Space),,,,lyrical,,,,----- -- ---- --- -- --- -------- ------------ ---------- --<br>- ------- ------ --------- -- ------------ -- --- ---- -----<br>------ into ---- ------ ------ ------- --- ----- ---------<br>---- --- -------- -------- --- --- -- ------- --- --- -----<br>-- --- ------ ------- --- --- -------- ---- --------- --<br>---------- -- -------- ----------------,420717,420736,420338,420315,420355,420739,,21,into
screen,html.Screen,1_3_1_0_1_22,2021-04-22T15:26:13.213Z,,,,,,,,,,,,,,,,11,,,,,,,,,,,,,,586,,response,,,,4,E,,,,,,Space,keypress(Space),,,,lyrical,,,,----- -- ---- --- -- --- -------- ------------ ---------- --<br>- ------- ------ --------- -- ------------ -- --- ---- -----<br>------ ---- many ------ ------ ------- --- ----- ---------<br>---- --- -------- -------- --- --- -- ------- --- --- -----<br>-- --- ------ ------- --- --- -------- ---- --------- --<br>---------- -- -------- ----------------,421286,421307,420721,420717,420739,421322,,22,many
screen,html.Screen,1_3_1_0_1_23,2021-04-22T15:26:13.772Z,,,,,,,,,,,,,,,,11,,,,,,,,,,,,,,563,,response,,,,4,E,,,,,,Space,keypress(Space),,,,lyrical,,,,----- -- ---- --- -- --- -------- ------------ ---------- --<br>- ------- ------ --------- -- ------------ -- --- ---- -----<br>------ ---- ---- oblong ------ ------- --- ----- ---------<br>---- --- -------- -------- --- --- -- ------- --- --- -----<br>-- --- ------ ------- --- --- -------- ---- --------- --<br>---------- -- -------- ----------------,421846,421867,421304,421287.00000000006,421322,421888,,23,oblong
screen,html.Screen,1_3_1_0_1_24,2021-04-22T15:26:14.576Z,,,,,,,,,,,,,,,,11,,,,,,,,,,,,,,799,,response,,,,4,E,,,,,,Space,keypress(Space),,,,lyrical,,,,----- -- ---- --- -- --- -------- ------------ ---------- --<br>- ------- ------ --------- -- ------------ -- --- ---- -----<br>------ ---- ---- ------ wooden ------- --- ----- ---------<br>---- --- -------- -------- --- --- -- ------- --- --- -----<br>-- --- ------ ------- --- --- -------- ---- --------- --<br>---------- -- -------- ----------------,422649,422671,421872,421846,421888,422688,,24,wooden
screen,html.Screen,1_3_1_0_1_25,2021-04-22T15:26:15.293Z,,,,,,,,,,,,,,,,11,,,,,,,,,,,,,,715,,response,,,,4,E,,,,,,Space,keypress(Space),,,,lyrical,,,,----- -- ---- --- -- --- -------- ------------ ---------- --<br>- ------- ------ --------- -- ------------ -- --- ---- -----<br>------ ---- ---- ------ ------ tablets --- ----- ---------<br>---- --- -------- -------- --- --- -- ------- --- --- -----<br>-- --- ------ ------- --- --- -------- ---- --------- --<br>---------- -- -------- ----------------,423366,423387,422672,422650.00000000006,422688,423405,,25,tablets
screen,html.Screen,1_3_1_0_1_26,2021-04-22T15:26:16.010Z,,,,,,,,,,,,,,,,11,,,,,,,,,,,,,,717,,response,,,,4,E,,,,,,Space,keypress(Space),,,,lyrical,,,,----- -- ---- --- -- --- -------- ------------ ---------- --<br>- ------- ------ --------- -- ------------ -- --- ---- -----<br>------ ---- ---- ------ ------ ------- and ----- ---------<br>---- --- -------- -------- --- --- -- ------- --- --- -----<br>-- --- ------ ------- --- --- -------- ---- --------- --<br>---------- -- -------- ----------------,424084,424105,423388,423367,423405,424126,,26,and
screen,html.Screen,1_3_1_0_1_27,2021-04-22T15:26:16.505Z,,,,,,,,,,,,,,,,11,,,,,,,,,,,,,,492,,response,,,,4,E,,,,,,Space,keypress(Space),,,,lyrical,,,,----- -- ---- --- -- --- -------- ------------ ---------- --<br>- ------- ------ --------- -- ------------ -- --- ---- -----<br>------ ---- ---- ------ ------ ------- --- other ---------<br>---- --- -------- -------- --- --- -- ------- --- --- -----<br>-- --- ------ ------- --- --- -------- ---- --------- --<br>---------- -- -------- ----------------,424579,424601,424109,424084,424126,424609,,27,other
screen,html.Screen,1_3_1_0_1_28,2021-04-22T15:26:17.181Z,,,,,,,,,,,,,,,,11,,,,,,,,,,,,,,683,,response,,,,4,E,,,,,,Space,keypress(Space),,,,lyrical,,,,----- -- ---- --- -- --- -------- ------------ ---------- --<br>- ------- ------ --------- -- ------------ -- --- ---- -----<br>------ ---- ---- ------ ------ ------- --- ----- artifacts<br>---- --- -------- -------- --- --- -- ------- --- --- -----<br>-- --- ------ ------- --- --- -------- ---- --------- --<br>---------- -- -------- ----------------,425255,425276,424593,424580,424609,425293,,28,artifacts
screen,html.Screen,1_3_1_0_1_29,2021-04-22T15:26:18.842Z,,,,,,,,,,,,,,,,11,,,,,,,,,,,,,,1662,,response,,,,4,E,,,,,,Space,keypress(Space),,,,lyrical,,,,----- -- ---- --- -- --- -------- ------------ ---------- --<br>- ------- ------ --------- -- ------------ -- --- ---- -----<br>------ ---- ---- ------ ------ ------- --- ----- ---------<br>from --- -------- -------- --- --- -- ------- --- --- -----<br>-- --- ------ ------- --- --- -------- ---- --------- --<br>---------- -- -------- ----------------,426916,426937,425275,425255,425293,426942,,29,from
screen,html.Screen,1_3_1_0_1_30,2021-04-22T15:26:19.480Z,,,,,,,,,,,,,,,,11,,,,,,,,,,,,,,650,,response,,,,4,E,,,,,,Space,keypress(Space),,,,lyrical,,,,----- -- ---- --- -- --- -------- ------------ ---------- --<br>- ------- ------ --------- -- ------------ -- --- ---- -----<br>------ ---- ---- ------ ------ ------- --- ----- ---------<br>---- the -------- -------- --- --- -- ------- --- --- -----<br>-- --- ------ ------- --- --- -------- ---- --------- --<br>---------- -- -------- ----------------,427554.00000000006,427576,426926,426916,426942,427593,,30,the
screen,html.Screen,1_3_1_0_1_31,2021-04-22T15:26:19.962Z,,,,,,,,,,,,,,,,11,,,,,,,,,,,,,,481,,response,,,,4,E,,,,,,Space,keypress(Space),,,,lyrical,,,,----- -- ---- --- -- --- -------- ------------ ---------- --<br>- ------- ------ --------- -- ------------ -- --- ---- -----<br>------ ---- ---- ------ ------ ------- --- ----- ---------<br>---- --- island's -------- --- --- -- ------- --- --- -----<br>-- --- ------ ------- --- --- -------- ---- --------- --<br>---------- -- -------- ----------------,428036,428057,427576,427555,427593,428075,,31,island's
screen,html.Screen,1_3_1_0_1_32,2021-04-22T15:26:20.466Z,,,,,,,,,,,,,,,,11,,,,,,,,,,,,,,503,,response,,,,4,E,,,,,,Space,keypress(Space),,,,lyrical,,,,----- -- ---- --- -- --- -------- ------------ ---------- --<br>- ------- ------ --------- -- ------------ -- --- ---- -----<br>------ ---- ---- ------ ------ ------- --- ----- ---------<br>---- --- -------- history. --- --- -- ------- --- --- -----<br>-- --- ------ ------- --- --- -------- ---- --------- --<br>---------- -- -------- ----------------,428540,428562,428059,428036,428075,428576,,32,history.
screen,html.Screen,1_3_1_0_1_33,2021-04-22T15:26:21.002Z,,,,,,,,,,,,,,,,11,,,,,,,,,,,,,,539,,response,,,,4,E,,,,,,Space,keypress(Space),,,,lyrical,,,,----- -- ---- --- -- --- -------- ------------ ---------- --<br>- ------- ------ --------- -- ------------ -- --- ---- -----<br>------ ---- ---- ------ ------ ------- --- ----- ---------<br>---- --- -------- -------- The --- -- ------- --- --- -----<br>-- --- ------ ------- --- --- -------- ---- --------- --<br>---------- -- -------- ----------------,429076,429098,428559,428540,428576,429113,,33,The
screen,html.Screen,1_3_1_0_1_34,2021-04-22T15:26:21.485Z,,,,,,,,,,,,,,,,11,,,,,,,,,,,,,,484,,response,,,,4,E,,,,,,Space,keypress(Space),,,,lyrical,,,,----- -- ---- --- -- --- -------- ------------ ---------- --<br>- ------- ------ --------- -- ------------ -- --- ---- -----<br>------ ---- ---- ------ ------ ------- --- ----- ---------<br>---- --- -------- -------- --- art -- ------- --- --- -----<br>-- --- ------ ------- --- --- -------- ---- --------- --<br>---------- -- -------- ----------------,429560,429581,429097,429076,429113,429597,,34,art
screen,html.Screen,1_3_1_0_1_35,2021-04-22T15:26:21.956Z,,,,,,,,,,,,,,,,11,,,,,,,,,,,,,,473,,response,,,,4,E,,,,,,Space,keypress(Space),,,,lyrical,,,,----- -- ---- --- -- --- -------- ------------ ---------- --<br>- ------- ------ --------- -- ------------ -- --- ---- -----<br>------ ---- ---- ------ ------ ------- --- ----- ---------<br>---- --- -------- -------- --- --- of ------- --- --- -----<br>-- --- ------ ------- --- --- -------- ---- --------- --<br>---------- -- -------- ----------------,430030.00000000006,430052,429579,429560,429597,430064,,35,of
screen,html.Screen,1_3_1_0_1_36,2021-04-22T15:26:22.526Z,,,,,,,,,,,,,,,,11,,,,,,,,,,,,,,574,,response,,,,4,E,,,,,,Space,keypress(Space),,,,lyrical,,,,----- -- ---- --- -- --- -------- ------------ ---------- --<br>- ------- ------ --------- -- ------------ -- --- ---- -----<br>------ ---- ---- ------ ------ ------- --- ----- ---------<br>---- --- -------- -------- --- --- -- writing --- --- -----<br>-- --- ------ ------- --- --- -------- ---- --------- --<br>---------- -- -------- ----------------,430600,430620,430046,430030.00000000006,430064,430630,,36,writing
screen,html.Screen,1_3_1_0_1_37,2021-04-22T15:26:23.021Z,,,,,,,,,,,,,,,,11,,,,,,,,,,,,,,504,,response,,,,4,E,,,,,,Space,keypress(Space),,,,lyrical,,,,----- -- ---- --- -- --- -------- ------------ ---------- --<br>- ------- ------ --------- -- ------------ -- --- ---- -----<br>------ ---- ---- ------ ------ ------- --- ----- ---------<br>---- --- -------- -------- --- --- -- ------- was --- -----<br>-- --- ------ ------- --- --- -------- ---- --------- --<br>---------- -- -------- ----------------,431095,431117,430613,430600,430630,431129,,37,was
screen,html.Screen,1_3_1_0_1_38,2021-04-22T15:26:23.436Z,,,,,,,,,,,,,,,,11,,,,,,,,,,,,,,418,,response,,,,4,E,,,,,,Space,keypress(Space),,,,lyrical,,,,----- -- ---- --- -- --- -------- ------------ ---------- --<br>- ------- ------ --------- -- ------------ -- --- ---- -----<br>------ ---- ---- ------ ------ ------- --- ----- ---------<br>---- --- -------- -------- --- --- -- ------- --- not -----<br>-- --- ------ ------- --- --- -------- ---- --------- --<br>---------- -- -------- ----------------,431510,431531,431113,431095,431129,431547,,38,not
screen,html.Screen,1_3_1_0_1_39,2021-04-22T15:26:23.890Z,,,,,,,,,,,,,,,,11,,,,,,,,,,,,,,455,,response,,,,4,E,,,,,,Space,keypress(Space),,,,lyrical,,,,----- -- ---- --- -- --- -------- ------------ ---------- --<br>- ------- ------ --------- -- ------------ -- --- ---- -----<br>------ ---- ---- ------ ------ ------- --- ----- ---------<br>---- --- -------- -------- --- --- -- ------- --- --- known<br>-- --- ------ ------- --- --- -------- ---- --------- --<br>---------- -- -------- ----------------,431964,431985,431530,431510,431547,431997,,39,known
screen,html.Screen,1_3_1_0_1_40,2021-04-22T15:26:24.276Z,,,,,,,,,,,,,,,,11,,,,,,,,,,,,,,392,,response,,,,4,E,,,,,,Space,keypress(Space),,,,lyrical,,,,----- -- ---- --- -- --- -------- ------------ ---------- --<br>- ------- ------ --------- -- ------------ -- --- ---- -----<br>------ ---- ---- ------ ------ ------- --- ----- ---------<br>---- --- -------- -------- --- --- -- ------- --- --- -----<br>in --- ------ ------- --- --- -------- ---- --------- --<br>---------- -- -------- ----------------,432350,432371,431979,431964,431997,432379,,40,in
screen,html.Screen,1_3_1_0_1_41,2021-04-22T15:26:24.681Z,,,,,,,,,,,,,,,,11,,,,,,,,,,,,,,413,,response,,,,4,E,,,,,,Space,keypress(Space),,,,lyrical,,,,----- -- ---- --- -- --- -------- ------------ ---------- --<br>- ------- ------ --------- -- ------------ -- --- ---- -----<br>------ ---- ---- ------ ------ ------- --- ----- ---------<br>---- --- -------- -------- --- --- -- ------- --- --- -----<br>-- any ------ ------- --- --- -------- ---- --------- --<br>---------- -- -------- ----------------,432756,432776,432363,432350,432379,432796,,41,any
screen,html.Screen,1_3_1_0_1_42,2021-04-22T15:26:25.455Z,,,,,,,,,,,,,,,,11,,,,,,,,,,,,,,772,,response,,,,4,E,,,,,,Space,keypress(Space),,,,lyrical,,,,----- -- ---- --- -- --- -------- ------------ ---------- --<br>- ------- ------ --------- -- ------------ -- --- ---- -----<br>------ ---- ---- ------ ------ ------- --- ----- ---------<br>---- --- -------- -------- --- --- -- ------- --- --- -----<br>-- --- nearby ------- --- --- -------- ---- --------- --<br>---------- -- -------- ----------------,433530.00000000006,433551,432779,432756,432796,433563,,42,nearby
screen,html.Screen,1_3_1_0_1_43,2021-04-22T15:26:26.032Z,,,,,,,,,,,,,,,,11,,,,,,,,,,,,,,581,,response,,,,4,E,,,,,,Space,keypress(Space),,,,lyrical,,,,----- -- ---- --- -- --- -------- ------------ ---------- --<br>- ------- ------ --------- -- ------------ -- --- ---- -----<br>------ ---- ---- ------ ------ ------- --- ----- ---------<br>---- --- -------- -------- --- --- -- ------- --- --- -----<br>-- --- ------ islands --- --- -------- ---- --------- --<br>---------- -- -------- ----------------,434106,434128,433547,433530.00000000006,433563,434134,,43,islands
screen,html.Screen,1_3_1_0_1_44,2021-04-22T15:26:26.476Z,,,,,,,,,,,,,,,,11,,,,,,,,,,,,,,453,,response,,,,4,E,,,,,,Space,keypress(Space),,,,lyrical,,,,----- -- ---- --- -- --- -------- ------------ ---------- --<br>- ------- ------ --------- -- ------------ -- --- ---- -----<br>------ ---- ---- ------ ------ ------- --- ----- ---------<br>---- --- -------- -------- --- --- -- ------- --- --- -----<br>-- --- ------ ------- and --- -------- ---- --------- --<br>---------- -- -------- ----------------,434550,434571,434118,434106,434134,434584,,44,and
screen,html.Screen,1_3_1_0_1_45,2021-04-22T15:26:26.855Z,,,,,,,,,,,,,,,,11,,,,,,,,,,,,,,383,,response,,,,4,E,,,,,,Space,keypress(Space),,,,lyrical,,,,----- -- ---- --- -- --- -------- ------------ ---------- --<br>- ------- ------ --------- -- ------------ -- --- ---- -----<br>------ ---- ---- ------ ------ ------- --- ----- ---------<br>---- --- -------- -------- --- --- -- ------- --- --- -----<br>-- --- ------ ------- --- the -------- ---- --------- --<br>---------- -- -------- ----------------,434929.00000000006,434951,434568,434550,434584,434951,,45,the
screen,html.Screen,1_3_1_0_1_46,2021-04-22T15:26:27.255Z,,,,,,,,,,,,,,,,11,,,,,,,,,,,,,,416,,response,,,,4,E,,,,,,Space,keypress(Space),,,,lyrical,,,,----- -- ---- --- -- --- -------- ------------ ---------- --<br>- ------- ------ --------- -- ------------ -- --- ---- -----<br>------ ---- ---- ------ ------ ------- --- ----- ---------<br>---- --- -------- -------- --- --- -- ------- --- --- -----<br>-- --- ------ ------- --- --- script's ---- --------- --<br>---------- -- -------- ----------------,435329,435350,434934,434929.00000000006,434951,435368,,46,script's
screen,html.Screen,1_3_1_0_1_47,2021-04-22T15:26:27.907Z,,,,,,,,,,,,,,,,11,,,,,,,,,,,,,,651,,response,,,,4,E,,,,,,Space,keypress(Space),,,,lyrical,,,,----- -- ---- --- -- --- -------- ------------ ---------- --<br>- ------- ------ --------- -- ------------ -- --- ---- -----<br>------ ---- ---- ------ ------ ------- --- ----- ---------<br>---- --- -------- -------- --- --- -- ------- --- --- -----<br>-- --- ------ ------- --- --- -------- mere --------- --<br>---------- -- -------- ----------------,435981,436002,435351,435329,435368,436018,,47,mere
screen,html.Screen,1_3_1_0_1_48,2021-04-22T15:26:28.492Z,,,,,,,,,,,,,,,,11,,,,,,,,,,,,,,587,,response,,,,4,E,,,,,,Space,keypress(Space),,,,lyrical,,,,----- -- ---- --- -- --- -------- ------------ ---------- --<br>- ------- ------ --------- -- ------------ -- --- ---- -----<br>------ ---- ---- ------ ------ ------- --- ----- ---------<br>---- --- -------- -------- --- --- -- ------- --- --- -----<br>-- --- ------ ------- --- --- -------- ---- existence --<br>---------- -- -------- ----------------,436566.00000000006,436588,436001,435981,436018,436601,,48,existence
screen,html.Screen,1_3_1_0_1_49,2021-04-22T15:26:28.980Z,,,,,,,,,,,,,,,,11,,,,,,,,,,,,,,491,,response,,,,4,E,,,,,,Space,keypress(Space),,,,lyrical,,,,----- -- ---- --- -- --- -------- ------------ ---------- --<br>- ------- ------ --------- -- ------------ -- --- ---- -----<br>------ ---- ---- ------ ------ ------- --- ----- ---------<br>---- --- -------- -------- --- --- -- ------- --- --- -----<br>-- --- ------ ------- --- --- -------- ---- --------- is<br>---------- -- -------- ----------------,437054.00000000006,437076,436585,436566.00000000006,436601,437085,,49,is
screen,html.Screen,1_3_1_0_1_50,2021-04-22T15:26:29.526Z,,,,,,,,,,,,,,,,11,,,,,,,,,,,,,,555,,response,,,,4,E,,,,,,Space,keypress(Space),,,,lyrical,,,,----- -- ---- --- -- --- -------- ------------ ---------- --<br>- ------- ------ --------- -- ------------ -- --- ---- -----<br>------ ---- ---- ------ ------ ------- --- ----- ---------<br>---- --- -------- -------- --- --- -- ------- --- --- -----<br>-- --- ------ ------- --- --- -------- ---- --------- --<br>sufficient -- -------- ----------------,437600,437622,437067,437054.00000000006,437085,437635,,50,sufficient
screen,html.Screen,1_3_1_0_1_51,2021-04-22T15:26:29.925Z,,,,,,,,,,,,,,,,11,,,,,,,,,,,,,,403,,response,,,,4,E,,,,,,Space,keypress(Space),,,,lyrical,,,,----- -- ---- --- -- --- -------- ------------ ---------- --<br>- ------- ------ --------- -- ------------ -- --- ---- -----<br>------ ---- ---- ------ ------ ------- --- ----- ---------<br>---- --- -------- -------- --- --- -- ------- --- --- -----<br>-- --- ------ ------- --- --- -------- ---- --------- --<br>---------- to -------- ----------------,437999,438021,437618,437600,437635,438017,,51,to
screen,html.Screen,1_3_1_0_1_52,2021-04-22T15:26:30.334Z,,,,,,,,,,,,,,,,11,,,,,,,,,,,,,,430,,response,,,,4,E,,,,,,Space,keypress(Space),,,,lyrical,,,,----- -- ---- --- -- --- -------- ------------ ---------- --<br>- ------- ------ --------- -- ------------ -- --- ---- -----<br>------ ---- ---- ------ ------ ------- --- ----- ---------<br>---- --- -------- -------- --- --- -- ------- --- --- -----<br>-- --- ------ ------- --- --- -------- ---- --------- --<br>---------- -- confound ----------------,438408,438430,438000,437999,438017,438451,,52,confound
screen,html.Screen,1_3_1_0_1_53,2021-04-22T15:26:30.893Z,,,,,,,,,,,,,,,,11,,,,,,,,,,,,,,554.0000000000582,,response,,,,4,E,,,,,,Space,keypress(Space),,,,lyrical,,,,----- -- ---- --- -- --- -------- ------------ ---------- --<br>- ------- ------ --------- -- ------------ -- --- ---- -----<br>------ ---- ---- ------ ------ ------- --- ----- ---------<br>---- --- -------- -------- --- --- -- ------- --- --- -----<br>-- --- ------ ------- --- --- -------- ---- --------- --<br>---------- -- -------- anthropologists.,438967,438989.00000000006,438435,438409,438451,439001,,53,anthropologists.
Item 4,flow.Loop,1_3_1_0_1,2021-04-22T15:26:30.893Z,,,,,,,,,,,,,,,,,,,,,,,,,,,,,,35464.00000000006,,completion,,,,,,,,,,,,,,,,,,,,,438967,438989.00000000006,403509,403510,403525,439001,,,
Question 1,html.Screen,1_3_1_0_2,2021-04-22T15:26:36.231Z,,,,,,,,,,,,,,,,,,,,,,,,,,,false,FALSE,,5344,,response,,,,4,E,,,,,,TRUE,click #choice-1,,,,lyrical,,,,,444305,444329,438985,438968,439001,444326,,,
Question 2,html.Screen,1_3_1_0_3,2021-04-22T15:26:40.233Z,,,,,,,,,,,,,,,,,,,,,,,,,,,false,TRUE,,4023,,response,,,,4,E,,,,,,FALSE,click #choice-2,,,,lyrical,,,,,448307,448331,444308,444305,444326,448326,,,
Item 4,flow.Sequence,1_3_1_0,2021-04-22T15:26:40.233Z,,,,,,,,,,,,,,,,,,,,,,,,,,,,,,51797,,completion,,,,,,,,,,,,,,,,,,,,,448308,448331,396517,396518,396534,448326,,,
Holding screen,html.Screen,1_3_1_1_0,2021-04-22T15:26:47.243Z,,,,,,,,,,,,,,,,,,,,,,,,,,,,,,7008,,timeout,,,,,,,,,,,,,,,,,,,,,455318,455317,448310,448308,448326,455334,,,
screen,html.Screen,1_3_1_1_1_0,2021-04-22T15:26:48.358Z,,,,,,,,,,,,,,,,15,,,,,,,,,,,,,,1136.0000000000582,,response,,,,7,E,,,,,,Space,keypress(Space),,,,lyrical,,,,Greg --------- ---------- - --- ------- -- --- ------------<br>----- -- -------- ------- ---- ------ - -------- ---- -----<br>--- ------- ---- -- --- -------- --- - ----- ------ ---- --<br>-------- --- -------- -------- --- -------- ---- -- ----- -<br>-------- ---- --- ---------- --------- -- ------- ------ -<br>--------- ----- -----,456433,456453.00000000006,455317,455318,455334,456467,,0,Greg
screen,html.Screen,1_3_1_1_1_1,2021-04-22T15:26:48.999Z,,,,,,,,,,,,,,,,15,,,,,,,,,,,,,,645,,response,,,,7,E,,,,,,Space,keypress(Space),,,,lyrical,,,,"---- Anderson, ---------- - --- ------- -- --- ------------<br>----- -- -------- ------- ---- ------ - -------- ---- -----<br>--- ------- ---- -- --- -------- --- - ----- ------ ---- --<br>-------- --- -------- -------- --- -------- ---- -- ----- -<br>-------- ---- --- ---------- --------- -- ------- ------ -<br>--------- ----- -----",457074,457096,456451,456433,456467,457117,,1,"Anderson,"
