sender,sender_type,sender_id,timestamp,meta,,Blues,Classical,Country,Dance,Electronic,Folk,Gospel,Hip-Hop,Jazz,Latin,Musical/Film,New-age,Pop,Provo_ID,R&B,Rap,Reggae,Religious,Rock,Soul,Swing,Traditional,age,artist_name,correct,correctResponse,distraction,duration,education,ended_on,familiarity,gender,headphone_check_performance,item,list,music_frequency,offensiveness,pleasantness,position_correct,preference,response,response_action,snippet_file,song_name,song_rating,sound,stimulus_1,stimulus_2,stimulus_3,text,time_commit,time_end,time_render,time_run,time_show,time_switch,url,word,word_ID
Introduction,html.Screen,0_0,2021-04-22T15:22:15.368Z,"{""labjs_version"":""20.2.2"",""labjs_build"":{""flavor"":""production"",""commit"":""a25486e0c714a0ae2ce03ff94b7bb6896854dcfa""},""location"":""https://run.pavlovia.org/mvasilev/music_e/"",""userAgent"":""Mozilla/5.0 (Macintosh; Intel Mac OS X 10_14_6) AppleWebKit/537.36 (KHTML, like Gecko) Chrome/88.0.4324.150 Safari/537.36"",""platform"":""MacIntel"",""language"":""en-GB"",""locale"":""en-GB"",""timeZone"":""Europe/London"",""timezoneOffset"":-60,""screen_width"":1280,""screen_height"":800,""scroll_width"":804,""scroll_height"":618,""window_innerWidth"":804,""window_innerHeight"":666,""devicePixelRatio"":2}",,,,,,,,,,,,,,,,,,,,,,,,,,,,,7993.935999903329,,response,,,,,,,,,,,continue,click button,,,,,,,,,15760.59499999974,15758.074999903329,7747.466,7748.469999991357,7764.139,15776.076,{},,
Volume calibration,html.Screen,0_1,2021-04-22T15:22:37.003Z,,,,,,,,,,,,,,,,,,,,,,,,,,,,,,21614.48399997072,,response,,,,,,,,,,,continue,click button,,,,,,,,,37395.43499995489,37390.55999997072,15759.403,15760.86999999825,15776.076,37398.151,,,
Task instructions,html.Screen,0_2,2021-04-22T15:22:46.089Z,,,,,,,,,,,,,,,,,,,,,,,,,,,,,,9081.278999948481,,response,,,,,,,,,,,continue,click button,,,,,,,,,46481.92499997094,46479.42999994848,37381.478,37395.65500000026,37398.151,46491.351,,,
Sounds,html.Screen,0_3_0_0,2021-04-22T15:22:50.340Z,,,,,,,,,,,,,,,,,,,,,,,,,,,,,,4251.614999999998,,timeout,,,,,,,,,2,,,,,,,,I,S,O,,50732.77000000235,50726.293,46474.678,46482.44499997236,46491.351,50742.966,,,
Judgement,html.Screen,0_3_0_1,2021-04-22T15:22:51.197Z,,,,,,,,,,,,,,,,,,,,,,,,,,,true,2,,845.1239999756363,,response,,,,,,,,,2,,2,click #choice-2,,,,,I,S,O,,51590.03999992274,51588.08999997564,50726.293,50732.93499997817,50742.966,51593.289,,,
Trial,flow.Sequence,0_3_0,2021-04-22T15:22:51.198Z,,,,,,,,,,,,,,,,,,,,,,,,,,,,,,5096.738999975634,,completion,,,,,,,,,2,,,,,,,,I,S,O,,51590.38999991026,51588.08999997564,46474.678,46482.3449999094,46491.351,51593.289,,,
Sounds,html.Screen,0_3_1_0,2021-04-22T15:22:55.437Z,,,,,,,,,,,,,,,,,,,,,,,,,,,,,,4251.615000000005,,timeout,,,,,,,,,3,,,,,,,,I,O,S,,55829.879999975674,55828.231,51576.616,51590.54499992635,51593.289,55844.904,,,
Judgement,html.Screen,0_3_1_1,2021-04-22T15:22:56.045Z,,,,,,,,,,,,,,,,,,,,,,,,,,,true,3,,590.8859999013148,,response,,,,,,,,,3,,3,click #choice-3,,,,,I,O,S,,56437.529999995604,56435.78999990132,55828.231,55829.99499992002,55844.904,56445.132,,,
Trial,flow.Sequence,0_3_1,2021-04-22T15:22:56.045Z,,,,,,,,,,,,,,,,,,,,,,,,,,,,,,4842.50099990132,,completion,,,,,,,,,3,,,,,,,,I,O,S,,56437.730000005104,56435.78999990132,51576.616,51590.49499989487,51593.289,56445.132,,,
Sounds,html.Screen,0_3_2_0,2021-04-22T15:23:00.290Z,,,,,,,,,,,,,,,,,,,,,,,,,,,,,,4252.3110000000015,,timeout,,,,,,,,,3,,,,,,,,O,I,S,,60682.55499994848,60680.77,56428.459,56437.86999990698,56445.132,60697.443,,,
Judgement,html.Screen,0_3_2_1,2021-04-22T15:23:00.685Z,,,,,,,,,,,,,,,,,,,,,,,,,,,true,3,,378.28200000242214,,response,,,,,,,,,3,,3,click #choice-3,,,,,O,I,S,,61077.67499994952,61075.72500000242,60680.77,60682.724999962375,60697.443,61080.922,,,
Trial,flow.Sequence,0_3_2,2021-04-22T15:23:00.685Z,,,,,,,,,,,,,,,,,,,,,,,,,,,,,,4630.593000002424,,completion,,,,,,,,,3,,,,,,,,O,I,S,,61077.85499992315,61075.72500000242,56428.459,56437.82499991357,56445.132,61080.922,,,
Sounds,html.Screen,0_3_3_0,2021-04-22T15:23:04.925Z,,,,,,,,,,,,,,,,,,,,,,,,,,,,,,4251.614999999998,,timeout,,,,,,,,,2,,,,,,,,O,S,I,,65318.2449999731,65315.864,61064.249,61077.98499998171,61080.922,65332.537,,,
Judgement,html.Screen,0_3_3_1,2021-04-22T15:23:05.300Z,,,,,,,,,,,,,,,,,,,,,,,,,,,true,2,,358.9329999615584,,response,,,,,,,,,2,,2,click #choice-2,,,,,O,S,I,,65693.31499992404,65691.46999996156,65315.864,65318.35999991745,65332.537,65699.343,,,
Trial,flow.Sequence,0_3_3,2021-04-22T15:23:05.301Z,,,,,,,,,,,,,,,,,,,,,,,,,,,,,,4610.547999961556,,completion,,,,,,,,,2,,,,,,,,O,S,I,,65693.48999997601,65691.46999996156,61064.249,61077.93499995023,61080.922,65699.343,,,
Sounds,html.Screen,0_3_4_0,2021-04-22T15:23:09.544Z,,,,,,,,,,,,,,,,,,,,,,,,,,,,,,4251.615000000005,,timeout,,,,,,,,,1,,,,,,,,S,O,I,,69936.95000000298,69934.285,65682.67,65693.5999999987,65699.343,69950.958,,,
Judgement,html.Screen,0_3_4_1,2021-04-22T15:23:10.100Z,,,,,,,,,,,,,,,,,,,,,,,,,,,true,1,,540.4519999004988,,response,,,,,,,,,1,,1,click #choice-1,,,,,S,O,I,,70493.33500000648,70491.4099999005,69934.285,69937.1449999744,69950.958,70506.129,,,
Trial,flow.Sequence,0_3_4,2021-04-22T15:23:10.101Z,,,,,,,,,,,,,,,,,,,,,,,,,,,,,,4792.066999900504,,completion,,,,,,,,,1,,,,,,,,S,O,I,,70493.50499990396,70491.4099999005,65682.67,65693.57000000309,65699.343,70506.129,,,
Sounds,html.Screen,0_3_5_0,2021-04-22T15:23:14.350Z,,,,,,,,,,,,,,,,,,,,,,,,,,,,,,4251.615000000005,,timeout,,,,,,,,,1,,,,,,,,S,I,O,,74742.8699999582,74741.071,70489.456,70493.61499992665,70506.129,74757.744,,,
Judgement,html.Screen,0_3_5_1,2021-04-22T15:23:14.771Z,,,,,,,,,,,,,,,,,,,,,,,,,,,true,1,,404.1809999057441,,response,,,,,,,,,1,,1,click #choice-1,,,,,S,I,O,,75163.97999995388,75161.92499990575,74741.071,74743.0549999699,74757.744,75174.569,,,
Trial,flow.Sequence,0_3_5,2021-04-22T15:23:14.771Z,,,,,,,,,,,,,,,,,,,,,,,,,,,,,,4655.795999905749,,completion,,,,,,,,,1,,,,,,,,S,I,O,,75164.12499989383,75161.92499990575,70489.456,70493.58499993104,70506.129,75174.569,,,
Task,flow.Loop,0_3,2021-04-22T15:23:14.776Z,,,,,,,,,,,,,,,,,,,,,,,,,,,,,,28670.573999905748,,completion,,,1,,,,,,,,,,,,,,,,,,75168.71499991976,75161.92499990575,46474.678,46482.25499992259,46491.351,75174.569,,,
Trap,html.Screen,0_4,2021-04-22T15:23:14.777Z,,,,,,,,,,,,,,,,,,,,,,,,,,,,,,NaN,,skipped,,,,,,,,,,,,,,,,,,,,,75170.36999994889,75161.92499990575,,75170.23499996867,,75174.569,,,
Thanks,html.Screen,0_5,2021-04-22T15:23:19.294Z,,,,,,,,,,,,,,,,,,,,,,,,,,,,,,4510.900999909398,,response,,,,,,,,,,,continue,click button,,,,,,,,,79687.31999990996,79685.4699999094,75157.896,75170.4749999335,75174.569,86580.026,,,
Headphone screening,flow.Sequence,0,2021-04-22T15:23:19.295Z,,,,,,,,,,,,,,,,,,,,,,,,,,,,,,71921.3309999094,,completion,,,,,,,,,,,,,,,,,,,,,79687.48999992386,79685.4699999094,7747.466,7748.414999921806,7764.139,86580.026,,,
Instructions,html.Page,1_0,2021-04-22T15:23:43.739Z,,,,,,,,,,,,,,,,,,,,,,,,,,,,,,17551.77399997374,,form submission,,,,,,,,,,,,,,,,,,,,,104132.0349999005,104131.79999997374,86563.353,86585.32499999274,86580.026,104141.505,,,
Holding screen,html.Screen,1_1_0_0,2021-04-22T15:23:53.738Z,,,,,,,,,,,,,,,,,,,,,,,,,,,,,,10020.472999999998,,timeout,,,,,,,,,,,,,,,,,,,,,114130.88999991305,114128.632,104124.832,104132.21499999054,104141.505,114161.978,,,
screen,html.Screen,1_1_0_1_0,2021-04-22T15:23:55.333Z,,,,,,,,,,,,,,,,53,,,,,,,,,,,,,,1556.1719999714987,,response,,,,99,,,,,,,Space,keypress(Space),,,,,,,,When -- ----- -- ------ - ------- --- ----------<br>------------- ------ ------ ---- ---- ------- ----- -- ----<br>-------- ------- -- ---------- --- - --- ----- ----- ----<br>---- --- --- ----- --- ---- ---- ------- ----- ---- -------<br>--- --- -- ----- -- --- ---- -- --- ---- -- ------ ------<br>--- ----- -- ----,115725.48499994446,115718.1499999715,114128.632,114131.18999998551,114161.978,115729.24,,0,When
screen,html.Screen,1_1_0_1_1,2021-04-22T15:23:55.969Z,,,,,,,,,,,,,,,,53,,,,,,,,,,,,,,628.979999936404,,response,,,,99,,,,,,,Space,keypress(Space),,,,,,,,---- it ----- -- ------ - ------- --- ----------<br>------------- ------ ------ ---- ---- ------- ----- -- ----<br>-------- ------- -- ---------- --- - --- ----- ----- ----<br>---- --- --- ----- --- ---- ---- ------- ----- ---- -------<br>--- --- -- ----- -- --- ---- -- --- ---- -- ------ ------<br>--- ----- -- ----,116361.969999969,116358.21999993641,115712.567,115725.70499998983,115729.24,116364.13,,1,it
screen,html.Screen,1_1_0_1_2,2021-04-22T15:23:56.596Z,,,,,,,,,,,,,,,,53,,,,,,,,,,,,,,622.9599999514176,,response,,,,99,,,,,,,Space,keypress(Space),,,,,,,,---- -- comes -- ------ - ------- --- ----------<br>------------- ------ ------ ---- ---- ------- ----- -- ----<br>-------- ------- -- ---------- --- - --- ----- ----- ----<br>---- --- --- ----- --- ---- ---- ------- ----- ---- -------<br>--- --- -- ----- -- --- ---- -- --- ---- -- ------ ------<br>--- ----- -- ----,116989.32999989484,116987.08999995142,116347.457,116362.14999994263,116364.13,116997.704,,2,comes
screen,html.Screen,1_1_0_1_3,2021-04-22T15:23:57.060Z,,,,,,,,,,,,,,,,53,,,,,,,,,,,,,,451.495999915438,,response,,,,99,,,,,,,Space,keypress(Space),,,,,,,,---- -- ----- to ------ - ------- --- ----------<br>------------- ------ ------ ---- ---- ------- ----- -- ----<br>-------- ------- -- ---------- --- - --- ----- ----- ----<br>---- --- --- ----- --- ---- ---- ------- ----- ---- -------<br>--- --- -- ----- -- --- ---- -- --- ---- -- ------ ------<br>--- ----- -- ----,117453.21999990847,117449.19999991544,116981.031,116989.44999999367,116997.704,117464.548,,3,to
screen,html.Screen,1_1_0_1_4,2021-04-22T15:23:57.596Z,,,,,,,,,,,,,,,,53,,,,,,,,,,,,,,521.546999942002,,response,,,,99,,,,,,,Space,keypress(Space),,,,,,,,---- -- ----- -- having - ------- --- ----------<br>------------- ------ ------ ---- ---- ------- ----- -- ----<br>-------- ------- -- ---------- --- - --- ----- ----- ----<br>---- --- --- ----- --- ---- ---- ------- ----- ---- -------<br>--- --- -- ----- -- --- ---- -- --- ---- -- ------ ------<br>--- ----- -- ----,117989.31499989703,117986.094999942,117447.875,117453.39499996044,117464.548,117998.084,,4,having
screen,html.Screen,1_1_0_1_5,2021-04-22T15:23:58.092Z,,,,,,,,,,,,,,,,53,,,,,,,,,,,,,,482.96099990585935,,response,,,,99,,,,,,,Space,keypress(Space),,,,,,,,---- -- ----- -- ------ a ------- --- ----------<br>------------- ------ ------ ---- ---- ------- ----- -- ----<br>-------- ------- -- ---------- --- - --- ----- ----- ----<br>---- --- --- ----- --- ---- ---- ------- ----- ---- -------<br>--- --- -- ----- -- --- ---- -- --- ---- -- ------ ------<br>--- ----- -- ----,118484.92999991868,118481.04499990586,117981.411,117989.41999999806,117998.084,118498.274,,5,a
screen,html.Screen,1_1_0_1_6,2021-04-22T15:23:58.724Z,,,,,,,,,,,,,,,,53,,,,,,,,,,,,,,614.4009999821137,,response,,,,99,,,,,,,Space,keypress(Space),,,,,,,,---- -- ----- -- ------ - lasting --- ----------<br>------------- ------ ------ ---- ---- ------- ----- -- ----<br>-------- ------- -- ---------- --- - --- ----- ----- ----<br>---- --- --- ----- --- ---- ---- ------- ----- ---- -------<br>--- --- -- ----- -- --- ---- -- --- ---- -- ------ ------<br>--- ----- -- ----,119116.72499997076,119112.67499998212,118481.601,118485.15500000212,118498.274,119131.848,,6,lasting
screen,html.Screen,1_1_0_1_7,2021-04-22T15:23:59.130Z,,,,,,,,,,,,,,,,53,,,,,,,,,,,,,,387.3219999850262,,response,,,,99,,,,,,,Space,keypress(Space),,,,,,,,---- -- ----- -- ------ - ------- and ----------<br>------------- ------ ------ ---- ---- ------- ----- -- ----<br>-------- ------- -- ---------- --- - --- ----- ----- ----<br>---- --- --- ----- --- ---- ---- ------- ----- ---- -------<br>--- --- -- ----- -- --- ---- -- --- ---- -- ------ ------<br>--- ----- -- ----,119522.96999993268,119519.16999998502,119115.175,119116.90499994438,119131.848,119532,,7,and
screen,html.Screen,1_1_0_1_8,2021-04-22T15:23:59.854Z,,,,,,,,,,,,,,,,53,,,,,,,,,,,,,,712.8349999031052,,response,,,,99,,,,,,,Space,keypress(Space),,,,,,,,---- -- ----- -- ------ - ------- --- fulfilling<br>------------- ------ ------ ---- ---- ------- ----- -- ----<br>-------- ------- -- ---------- --- - --- ----- ----- ----<br>---- --- --- ----- --- ---- ---- ------- ----- ---- -------<br>--- --- -- ----- -- --- ---- -- --- ---- -- ------ ------<br>--- ----- -- ----,120247.41999991238,120244.8349999031,119515.327,119523.14499998465,119532,120248.939,,8,fulfilling
screen,html.Screen,1_1_0_1_9,2021-04-22T15:24:00.379Z,,,,,,,,,,,,,,,,53,,,,,,,,,,,,,,519.1359999126435,,response,,,,99,,,,,,,Space,keypress(Space),,,,,,,,"---- -- ----- -- ------ - ------- --- ----------<br>relationship, ------ ------ ---- ---- ------- ----- -- ----<br>-------- ------- -- ---------- --- - --- ----- ----- ----<br>---- --- --- ----- --- ---- ---- ------- ----- ---- -------<br>--- --- -- ----- -- --- ---- -- --- ---- -- ------ ------<br>--- ----- -- ----",120771.93499996793,120768.07499991264,120232.266,120247.52999993507,120248.939,120782.475,,9,"relationship,"
screen,html.Screen,1_1_0_1_10,2021-04-22T15:24:00.951Z,,,,,,,,,,,,,,,,53,,,,,,,,,,,,,,557.4349999805854,,response,,,,99,,,,,,,Space,keypress(Space),,,,,,,,---- -- ----- -- ------ - ------- --- ----------<br>------------- common ------ ---- ---- ------- ----- -- ----<br>-------- ------- -- ---------- --- - --- ----- ----- ----<br>---- --- --- ----- --- ---- ---- ------- ----- ---- -------<br>--- --- -- ----- -- --- ---- -- --- ---- -- ------ ------<br>--- ----- -- ----,121344.10999994725,121339.90999998059,120765.802,120772.12499990128,120782.475,121349.357,,10,common
screen,html.Screen,1_1_0_1_11,2021-04-22T15:24:01.455Z,,,,,,,,,,,,,,,,53,,,,,,,,,,,,,,494.7729999831208,,response,,,,99,,,,,,,Space,keypress(Space),,,,,,,,---- -- ----- -- ------ - ------- --- ----------<br>------------- ------ wisdom ---- ---- ------- ----- -- ----<br>-------- ------- -- ---------- --- - --- ----- ----- ----<br>---- --- --- ----- --- ---- ---- ------- ----- ---- -------<br>--- --- -- ----- -- --- ---- -- --- ---- -- ------ ------<br>--- ----- -- ----,121847.8799998993,121844.12999998312,121332.684,121344.28999992087,121349.357,121849.547,,11,wisdom
screen,html.Screen,1_1_0_1_12,2021-04-22T15:24:01.858Z,,,,,,,,,,,,,,,,53,,,,,,,,,,,,,,397.5579999585316,,response,,,,99,,,,,,,Space,keypress(Space),,,,,,,,---- -- ----- -- ------ - ------- --- ----------<br>------------- ------ ------ says ---- ------- ----- -- ----<br>-------- ------- -- ---------- --- - --- ----- ----- ----<br>---- --- --- ----- --- ---- ---- ------- ----- ---- -------<br>--- --- -- ----- -- --- ---- -- --- ---- -- ------ ------<br>--- ----- -- ----,122250.919999904,122247.10499995854,121832.874,121848.05999998935,121849.547,122266.372,,12,says
screen,html.Screen,1_1_0_1_13,2021-04-22T15:24:02.217Z,,,,,,,,,,,,,,,,53,,,,,,,,,,,,,,339.7229999373376,,response,,,,99,,,,,,,Space,keypress(Space),,,,,,,,---- -- ----- -- ------ - ------- --- ----------<br>------------- ------ ------ ---- that ------- ----- -- ----<br>-------- ------- -- ---------- --- - --- ----- ----- ----<br>---- --- --- ----- --- ---- ---- ------- ----- ---- -------<br>--- --- -- ----- -- --- ---- -- --- ---- -- ------ ------<br>--- ----- -- ----,122610.22499995306,122606.09499993734,122249.699,122251.1049999157,122266.372,122616.505,,13,that
screen,html.Screen,1_1_0_1_14,2021-04-22T15:24:02.708Z,,,,,,,,,,,,,,,,53,,,,,,,,,,,,,,480.6099998949794,,response,,,,99,,,,,,,Space,keypress(Space),,,,,,,,---- -- ----- -- ------ - ------- --- ----------<br>------------- ------ ------ ---- ---- feeling ----- -- ----<br>-------- ------- -- ---------- --- - --- ----- ----- ----<br>---- --- --- ----- --- ---- ---- ------- ----- ---- -------<br>--- --- -- ----- -- --- ---- -- --- ---- -- ------ ------<br>--- ----- -- ----,123100.83999997005,123097.11499989498,122599.832,122610.40499992669,122616.505,123116.695,,14,feeling
screen,html.Screen,1_1_0_1_15,2021-04-22T15:24:03.378Z,,,,,,,,,,,,,,,,53,,,,,,,,,,,,,,650.409999977157,,response,,,,99,,,,,,,Space,keypress(Space),,,,,,,,---- -- ----- -- ------ - ------- --- ----------<br>------------- ------ ------ ---- ---- ------- close -- ----<br>-------- ------- -- ---------- --- - --- ----- ----- ----<br>---- --- --- ----- --- ---- ---- ------- ----- ---- -------<br>--- --- -- ----- -- --- ---- -- --- ---- -- ------ ------<br>--- ----- -- ----,123771.16000000387,123767.10499997716,123100.022,123101.02499998175,123116.695,123783.615,,15,close
screen,html.Screen,1_1_0_1_16,2021-04-22T15:24:03.818Z,,,,,,,,,,,,,,,,53,,,,,,,,,,,,,,423.2899999117799,,response,,,,99,,,,,,,Space,keypress(Space),,,,,,,,---- -- ----- -- ------ - ------- --- ----------<br>------------- ------ ------ ---- ---- ------- ----- to ----<br>-------- ------- -- ---------- --- - --- ----- ----- ----<br>---- --- --- ----- --- ---- ---- ------- ----- ---- -------<br>--- --- -- ----- -- --- ---- -- --- ---- -- ------ ------<br>--- ----- -- ----,124210.80999996047,124206.90499991179,123766.942,123771.33499993943,123783.615,124217.113,,16,to
screen,html.Screen,1_1_0_1_17,2021-04-22T15:24:04.313Z,,,,,,,,,,,,,,,,53,,,,,,,,,,,,,,484.9619999210263,,response,,,,99,,,,,,,Space,keypress(Space),,,,,,,,---- -- ----- -- ------ - ------- --- ----------<br>------------- ------ ------ ---- ---- ------- ----- -- your<br>-------- ------- -- ---------- --- - --- ----- ----- ----<br>---- --- --- ----- --- ---- ---- ------- ----- ---- -------<br>--- --- -- ----- -- --- ---- -- --- ---- -- ------ ------<br>--- ----- -- ----,124705.85499994922,124702.07499992102,124200.44,124210.9899999341,124217.113,124717.303,,17,your
screen,html.Screen,1_1_0_1_18,2021-04-22T15:24:04.834Z,,,,,,,,,,,,,,,,53,,,,,,,,,,,,,,505.7169999175967,,response,,,,99,,,,,,,Space,keypress(Space),,,,,,,,---- -- ----- -- ------ - ------- --- ----------<br>------------- ------ ------ ---- ---- ------- ----- -- ----<br>romantic ------- -- ---------- --- - --- ----- ----- ----<br>---- --- --- ----- --- ---- ---- ------- ----- ---- -------<br>--- --- -- ----- -- --- ---- -- --- ---- -- ------ ------<br>--- ----- -- ----,125226.82499990333,125223.0199999176,124700.63,124706.03499992285,124717.303,125235.732,,18,romantic
screen,html.Screen,1_1_0_1_19,2021-04-22T15:24:05.359Z,,,,,,,,,,,,,,,,53,,,,,,,,,,,,,,512.3379999723547,,response,,,,99,,,,,,,Space,keypress(Space),,,,,,,,---- -- ----- -- ------ - ------- --- ----------<br>------------- ------ ------ ---- ---- ------- ----- -- ----<br>-------- partner -- ---------- --- - --- ----- ----- ----<br>---- --- --- ----- --- ---- ---- ------- ----- ---- -------<br>--- --- -- ----- -- --- ---- -- --- ---- -- ------ ------<br>--- ----- -- ----,125752.11000000127,125748.06999997236,125219.059,125226.9999999553,125235.732,125769.268,,19,partner
screen,html.Screen,1_1_0_1_20,2021-04-22T15:24:05.856Z,,,,,,,,,,,,,,,,53,,,,,,,,,,,,,,475.7519999148062,,response,,,,99,,,,,,,Space,keypress(Space),,,,,,,,---- -- ----- -- ------ - ------- --- ----------<br>------------- ------ ------ ---- ---- ------- ----- -- ----<br>-------- ------- is ---------- --- - --- ----- ----- ----<br>---- --- --- ----- --- ---- ---- ------- ----- ---- -------<br>--- --- -- ----- -- --- ---- -- --- ---- -- ------ ------<br>--- ----- -- ----,126248.70999995619,126245.0199999148,125752.595,125752.28499993682,125769.268,126252.785,,20,is
screen,html.Screen,1_1_0_1_21,2021-04-22T15:24:06.837Z,,,,,,,,,,,,,,,,53,,,,,,,,,,,,,,973.3299999685551,,response,,,,99,,,,,,,Space,keypress(Space),,,,,,,,---- -- ----- -- ------ - ------- --- ----------<br>------------- ------ ------ ---- ---- ------- ----- -- ----<br>-------- ------- -- paramount. --- - --- ----- ----- ----<br>---- --- --- ----- --- ---- ---- ------- ----- ---- -------<br>--- --- -- ----- -- --- ---- -- --- ---- -- ------ ------<br>--- ----- -- ----,127230.33499997109,127226.11499996856,126236.112,126248.88500000816,126252.785,127236.492,,21,paramount.
screen,html.Screen,1_1_0_1_22,2021-04-22T15:24:07.288Z,,,,,,,,,,,,,,,,53,,,,,,,,,,,,,,440.4829999512003,,response,,,,99,,,,,,,Space,keypress(Space),,,,,,,,---- -- ----- -- ------ - ------- --- ----------<br>------------- ------ ------ ---- ---- ------- ----- -- ----<br>-------- ------- -- ---------- But - --- ----- ----- ----<br>---- --- --- ----- --- ---- ---- ------- ----- ---- -------<br>--- --- -- ----- -- --- ---- -- --- ---- -- ------ ------<br>--- ----- -- ----,127680.80499989446,127676.9749999512,127219.819,127230.51999998279,127236.492,127686.663,,22,But
screen,html.Screen,1_1_0_1_23,2021-04-22T15:24:07.671Z,,,,,,,,,,,,,,,,53,,,,,,,,,,,,,,373.34199997753603,,response,,,,99,,,,,,,Space,keypress(Space),,,,,,,,---- -- ----- -- ------ - ------- --- ----------<br>------------- ------ ------ ---- ---- ------- ----- -- ----<br>-------- ------- -- ---------- --- a --- ----- ----- ----<br>---- --- --- ----- --- ---- ---- ------- ----- ---- -------<br>--- --- -- ----- -- --- ---- -- --- ---- -- ------ ------<br>--- ----- -- ----,128063.819999923,128060.00499997754,127669.99,127680.97999994643,127686.663,128070.142,,23,a
screen,html.Screen,1_1_0_1_24,2021-04-22T15:24:08.049Z,,,,,,,,,,,,,,,,53,,,,,,,,,,,,,,367.88299992306565,,response,,,,99,,,,,,,Space,keypress(Space),,,,,,,,---- -- ----- -- ------ - ------- --- ----------<br>------------- ------ ------ ---- ---- ------- ----- -- ----<br>-------- ------- -- ---------- --- - new ----- ----- ----<br>---- --- --- ----- --- ---- ---- ------- ----- ---- -------<br>--- --- -- ----- -- --- ---- -- --- ---- -- ------ ------<br>--- ----- -- ----,128441.83999998495,128438.02499992307,128053.469,128064.0049999347,128070.142,128453.621,,24,new
screen,html.Screen,1_1_0_1_25,2021-04-22T15:24:08.423Z,,,,,,,,,,,,,,,,53,,,,,,,,,,,,,,358.38899999418936,,response,,,,99,,,,,,,Space,keypress(Space),,,,,,,,---- -- ----- -- ------ - ------- --- ----------<br>------------- ------ ------ ---- ---- ------- ----- -- ----<br>-------- ------- -- ---------- --- - --- study ----- ----<br>---- --- --- ----- --- ---- ---- ------- ----- ---- -------<br>--- --- -- ----- -- --- ---- -- --- ---- -- ------ ------<br>--- ----- -- ----,128815.79499994405,128812.00999999419,128436.948,128442.0149999205,128453.621,128820.427,,25,study
screen,html.Screen,1_1_0_1_26,2021-04-22T15:24:08.793Z,,,,,,,,,,,,,,,,53,,,,,,,,,,,,,,361.5080000005255,,response,,,,99,,,,,,,Space,keypress(Space),,,,,,,,---- -- ----- -- ------ - ------- --- ----------<br>------------- ------ ------ ---- ---- ------- ----- -- ----<br>-------- ------- -- ---------- --- - --- ----- finds ----<br>---- --- --- ----- --- ---- ---- ------- ----- ---- -------<br>--- --- -- ----- -- --- ---- -- --- ---- -- ------ ------<br>--- ----- -- ----,129185.85000000894,129181.93500000052,128803.754,128815.97499991767,128820.427,129187.233,,26,finds
screen,html.Screen,1_1_0_1_27,2021-04-22T15:24:09.220Z,,,,,,,,,,,,,,,,53,,,,,,,,,,,,,,421.5469998931658,,response,,,,99,,,,,,,Space,keypress(Space),,,,,,,,---- -- ----- -- ------ - ------- --- ----------<br>------------- ------ ------ ---- ---- ------- ----- -- ----<br>-------- ------- -- ---------- --- - --- ----- ----- that<br>---- --- --- ----- --- ---- ---- ------- ----- ---- -------<br>--- --- -- ----- -- --- ---- -- --- ---- -- ------ ------<br>--- ----- -- ----,129612.50499996822,129608.77999989316,129170.56,129186.0249999445,129187.233,129620.731,,27,that
screen,html.Screen,1_1_0_1_28,2021-04-22T15:24:09.550Z,,,,,,,,,,,,,,,,53,,,,,,,,,,,,,,318.24399993909174,,response,,,,99,,,,,,,Space,keypress(Space),,,,,,,,---- -- ----- -- ------ - ------- --- ----------<br>------------- ------ ------ ---- ---- ------- ----- -- ----<br>-------- ------- -- ---------- --- - --- ----- ----- ----<br>it's --- --- ----- --- ---- ---- ------- ----- ---- -------<br>--- --- -- ----- -- --- ---- -- --- ---- -- ------ ------<br>--- ----- -- ----,129942.6599999424,129938.97499993909,129604.058,129612.68499994185,129620.731,129954.191,,28,it's
screen,html.Screen,1_1_0_1_29,2021-04-22T15:24:09.935Z,,,,,,,,,,,,,,,,53,,,,,,,,,,,,,,369.7289999952627,,response,,,,99,,,,,,,Space,keypress(Space),,,,,,,,---- -- ----- -- ------ - ------- --- ----------<br>------------- ------ ------ ---- ---- ------- ----- -- ----<br>-------- ------- -- ---------- --- - --- ----- ----- ----<br>---- not --- ----- --- ---- ---- ------- ----- ---- -------<br>--- --- -- ----- -- --- ---- -- --- ---- -- ------ ------<br>--- ----- -- ----,130327.6949999854,130323.91999999527,129937.518,129942.83499999437,129954.191,130337.67,,29,not
screen,html.Screen,1_1_0_1_30,2021-04-22T15:24:10.253Z,,,,,,,,,,,,,,,,53,,,,,,,,,,,,,,303.27499999191787,,response,,,,99,,,,,,,Space,keypress(Space),,,,,,,,---- -- ----- -- ------ - ------- --- ----------<br>------------- ------ ------ ---- ---- ------- ----- -- ----<br>-------- ------- -- ---------- --- - --- ----- ----- ----<br>---- --- how ----- --- ---- ---- ------- ----- ---- -------<br>--- --- -- ----- -- --- ---- -- --- ---- -- ------ ------<br>--- ----- -- ----,130646.17999992333,130640.94499999192,130320.997,130327.88999995682,130337.67,130654.457,,30,how
screen,html.Screen,1_1_0_1_31,2021-04-22T15:24:10.613Z,,,,,,,,,,,,,,,,53,,,,,,,,,,,,,,347.45299999177223,,response,,,,99,,,,,,,Space,keypress(Space),,,,,,,,---- -- ----- -- ------ - ------- --- ----------<br>------------- ------ ------ ---- ---- ------- ----- -- ----<br>-------- ------- -- ---------- --- - --- ----- ----- ----<br>---- --- --- close --- ---- ---- ------- ----- ---- -------<br>--- --- -- ----- -- --- ---- -- --- ---- -- ------ ------<br>--- ----- -- ----,131005.99499989767,131001.90999999177,130637.784,130646.3699999731,130654.457,131021.263,,31,close
screen,html.Screen,1_1_0_1_32,2021-04-22T15:24:11.013Z,,,,,,,,,,,,,,,,53,,,,,,,,,,,,,,380.6019999052223,,response,,,,99,,,,,,,Space,keypress(Space),,,,,,,,---- -- ----- -- ------ - ------- --- ----------<br>------------- ------ ------ ---- ---- ------- ----- -- ----<br>-------- ------- -- ---------- --- - --- ----- ----- ----<br>---- --- --- ----- you ---- ---- ------- ----- ---- -------<br>--- --- -- ----- -- --- ---- -- --- ---- -- ------ ------<br>--- ----- -- ----,131405.68500000518,131401.86499990523,131004.59,131006.17999990936,131021.263,131421.415,,32,you
screen,html.Screen,1_1_0_1_33,2021-04-22T15:24:11.335Z,,,,,,,,,,,,,,,,53,,,,,,,,,,,,,,302.5149999782734,,response,,,,99,,,,,,,Space,keypress(Space),,,,,,,,---- -- ----- -- ------ - ------- --- ----------<br>------------- ------ ------ ---- ---- ------- ----- -- ----<br>-------- ------- -- ---------- --- - --- ----- ----- ----<br>---- --- --- ----- --- feel ---- ------- ----- ---- -------<br>--- --- -- ----- -- --- ---- -- --- ---- -- ------ ------<br>--- ----- -- ----,131727.8899999801,131723.92999997828,131404.742,131405.849999981,131421.415,131738.202,,33,feel
screen,html.Screen,1_1_0_1_34,2021-04-22T15:24:11.750Z,,,,,,,,,,,,,,,,53,,,,,,,,,,,,,,400.7079999796697,,response,,,,99,,,,,,,Space,keypress(Space),,,,,,,,---- -- ----- -- ------ - ------- --- ----------<br>------------- ------ ------ ---- ---- ------- ----- -- ----<br>-------- ------- -- ---------- --- - --- ----- ----- ----<br>---- --- --- ----- --- ---- that ------- ----- ---- -------<br>--- --- -- ----- -- --- ---- -- --- ---- -- ------ ------<br>--- ----- -- ----,132142.96999992803,132138.90999997966,131721.529,131728.05499995593,131738.202,132155.027,,34,that
screen,html.Screen,1_1_0_1_35,2021-04-22T15:24:12.128Z,,,,,,,,,,,,,,,,53,,,,,,,,,,,,,,361.87299992959015,,response,,,,99,,,,,,,Space,keypress(Space),,,,,,,,---- -- ----- -- ------ - ------- --- ----------<br>------------- ------ ------ ---- ---- ------- ----- -- ----<br>-------- ------- -- ---------- --- - --- ----- ----- ----<br>---- --- --- ----- --- ---- ---- matters ----- ---- -------<br>--- --- -- ----- -- --- ---- -- --- ---- -- ------ ------<br>--- ----- -- ----,132521.16000000387,132516.8999999296,132138.354,132143.15499993972,132155.027,132538.506,,35,matters
screen,html.Screen,1_1_0_1_36,2021-04-22T15:24:12.532Z,,,,,,,,,,,,,,,,53,,,,,,,,,,,,,,382.39899994811276,,response,,,,99,,,,,,,Space,keypress(Space),,,,,,,,"---- -- ----- -- ------ - ------- --- ----------<br>------------- ------ ------ ---- ---- ------- ----- -- ----<br>-------- ------- -- ---------- --- - --- ----- ----- ----<br>---- --- --- ----- --- ---- ---- ------- most, ---- -------<br>--- --- -- ----- -- --- ---- -- --- ---- -- ------ ------<br>--- ----- -- ----",132924.70999993384,132920.9049999481,132521.833,132521.3399999775,132538.506,132938.658,,36,"most,"
screen,html.Screen,1_1_0_1_37,2021-04-22T15:24:12.862Z,,,,,,,,,,,,,,,,53,,,,,,,,,,,,,,313.0419999061269,,response,,,,99,,,,,,,Space,keypress(Space),,,,,,,,---- -- ----- -- ------ - ------- --- ----------<br>------------- ------ ------ ---- ---- ------- ----- -- ----<br>-------- ------- -- ---------- --- - --- ----- ----- ----<br>---- --- --- ----- --- ---- ---- ------- ----- it's -------<br>--- --- -- ----- -- --- ---- -- --- ---- -- ------ ------<br>--- ----- -- ----,133255.38499990944,133251.69999990612,132921.985,132924.87999994773,132938.658,133272.118,,37,it's
screen,html.Screen,1_1_0_1_38,2021-04-22T15:24:13.176Z,,,,,,,,,,,,,,,,53,,,,,,,,,,,,,,292.7220000063826,,response,,,,99,,,,,,,Space,keypress(Space),,,,,,,,---- -- ----- -- ------ - ------- --- ----------<br>------------- ------ ------ ---- ---- ------- ----- -- ----<br>-------- ------- -- ---------- --- - --- ----- ----- ----<br>---- --- --- ----- --- ---- ---- ------- ----- ---- whether<br>--- --- -- ----- -- --- ---- -- --- ---- -- ------ ------<br>--- ----- -- ----,133568.58999992255,133564.84000000637,133255.445,133255.5449999636,133272.118,133572.232,,38,whether
screen,html.Screen,1_1_0_1_39,2021-04-22T15:24:13.522Z,,,,,,,,,,,,,,,,53,,,,,,,,,,,,,,338.513000001054,,response,,,,99,,,,,,,Space,keypress(Space),,,,,,,,---- -- ----- -- ------ - ------- --- ----------<br>------------- ------ ------ ---- ---- ------- ----- -- ----<br>-------- ------- -- ---------- --- - --- ----- ----- ----<br>---- --- --- ----- --- ---- ---- ------- ----- ---- -------<br>you --- -- ----- -- --- ---- -- --- ---- -- ------ ------<br>--- ----- -- ----,133914.90999993403,133910.74500000104,133555.559,133568.75499989837,133572.232,133922.365,,39,you
screen,html.Screen,1_1_0_1_40,2021-04-22T15:24:13.797Z,,,,,,,,,,,,,,,,53,,,,,,,,,,,,,,263.4749999328051,,response,,,,99,,,,,,,Space,keypress(Space),,,,,,,,---- -- ----- -- ------ - ------- --- ----------<br>------------- ------ ------ ---- ---- ------- ----- -- ----<br>-------- ------- -- ---------- --- - --- ----- ----- ----<br>---- --- --- ----- --- ---- ---- ------- ----- ---- -------<br>--- are -- ----- -- --- ---- -- --- ---- -- ------ ------<br>--- ----- -- ----,134189.82500000857,134185.8399999328,133905.692,133915.53999995813,133922.365,134205.806,,40,are
screen,html.Screen,1_1_0_1_41,2021-04-22T15:24:14.276Z,,,,,,,,,,,,,,,,53,,,,,,,,,,,,,,459.0439999428054,,response,,,,99,,,,,,,Space,keypress(Space),,,,,,,,---- -- ----- -- ------ - ------- --- ----------<br>------------- ------ ------ ---- ---- ------- ----- -- ----<br>-------- ------- -- ---------- --- - --- ----- ----- ----<br>---- --- --- ----- --- ---- ---- ------- ----- ---- -------<br>--- --- as ----- -- --- ---- -- --- ---- -- ------ ------<br>--- ----- -- ----,134668.60999993514,134664.84999994282,134189.133,134189.99999994412,134205.806,134672.65,,41,as
screen,html.Screen,1_1_0_1_42,2021-04-22T15:24:14.586Z,,,,,,,,,,,,,,,,53,,,,,,,,,,,,,,302.16499996502534,,response,,,,99,,,,,,,Space,keypress(Space),,,,,,,,---- -- ----- -- ------ - ------- --- ----------<br>------------- ------ ------ ---- ---- ------- ----- -- ----<br>-------- ------- -- ---------- --- - --- ----- ----- ----<br>---- --- --- ----- --- ---- ---- ------- ----- ---- -------<br>--- --- -- close -- --- ---- -- --- ---- -- ------ ------<br>--- ----- -- ----,134978.82999991998,134974.81499996502,134655.977,134668.77499991097,134672.65,134989.437,,42,close
screen,html.Screen,1_1_0_1_43,2021-04-22T15:24:14.917Z,,,,,,,,,,,,,,,,53,,,,,,,,,,,,,,317.41299993536086,,response,,,,99,,,,,,,Space,keypress(Space),,,,,,,,---- -- ----- -- ------ - ------- --- ----------<br>------------- ------ ------ ---- ---- ------- ----- -- ----<br>-------- ------- -- ---------- --- - --- ----- ----- ----<br>---- --- --- ----- --- ---- ---- ------- ----- ---- -------<br>--- --- -- ----- as --- ---- -- --- ---- -- ------ ------<br>--- ----- -- ----,135310.43499999214,135306.84999993537,134972.764,134979.0099998936,134989.437,135323.623,,43,as
screen,html.Screen,1_1_0_1_44,2021-04-22T15:24:15.250Z,,,,,,,,,,,,,,,,53,,,,,,,,,,,,,,315.21699991231435,,response,,,,99,,,,,,,Space,keypress(Space),,,,,,,,---- -- ----- -- ------ - ------- --- ----------<br>------------- ------ ------ ---- ---- ------- ----- -- ----<br>-------- ------- -- ---------- --- - --- ----- ----- ----<br>---- --- --- ----- --- ---- ---- ------- ----- ---- -------<br>--- --- -- ----- -- you ---- -- --- ---- -- ------ ------<br>--- ----- -- ----,135642.5749999471,135638.8399999123,135306.95,135310.60500000603,135323.623,135657.083,,44,you
screen,html.Screen,1_1_0_1_45,2021-04-22T15:24:15.610Z,,,,,,,,,,,,,,,,53,,,,,,,,,,,,,,341.79699997007265,,response,,,,99,,,,,,,Space,keypress(Space),,,,,,,,---- -- ----- -- ------ - ------- --- ----------<br>------------- ------ ------ ---- ---- ------- ----- -- ----<br>-------- ------- -- ---------- --- - --- ----- ----- ----<br>---- --- --- ----- --- ---- ---- ------- ----- ---- -------<br>--- --- -- ----- -- --- want -- --- ---- -- ------ ------<br>--- ----- -- ----,136003.1200000085,135998.8799999701,135640.41,135642.73500000127,135657.083,136007.216,,45,want
screen,html.Screen,1_1_0_1_46,2021-04-22T15:24:15.914Z,,,,,,,,,,,,,,,,53,,,,,,,,,,,,,,296.47899989321013,,response,,,,99,,,,,,,Space,keypress(Space),,,,,,,,---- -- ----- -- ------ - ------- --- ----------<br>------------- ------ ------ ---- ---- ------- ----- -- ----<br>-------- ------- -- ---------- --- - --- ----- ----- ----<br>---- --- --- ----- --- ---- ---- ------- ----- ---- -------<br>--- --- -- ----- -- --- ---- to --- ---- -- ------ ------<br>--- ----- -- ----,136307.4599999236,136303.6949998932,135990.543,136003.27999994624,136007.216,136324.003,,46,to
screen,html.Screen,1_1_0_1_47,2021-04-22T15:24:16.249Z,,,,,,,,,,,,,,,,53,,,,,,,,,,,,,,313.7919999878213,,response,,,,99,,,,,,,Space,keypress(Space),,,,,,,,"---- -- ----- -- ------ - ------- --- ----------<br>------------- ------ ------ ---- ---- ------- ----- -- ----<br>-------- ------- -- ---------- --- - --- ----- ----- ----<br>---- --- --- ----- --- ---- ---- ------- ----- ---- -------<br>--- --- -- ----- -- --- ---- -- be, ---- -- ------ ------<br>--- ----- -- ----",136641.57999993768,136637.79499998782,136307.33,136307.61999997776,136324.003,136657.463,,47,"be,"
screen,html.Screen,1_1_0_1_48,2021-04-22T15:24:16.575Z,,,,,,,,,,,,,,,,53,,,,,,,,,,,,,,306.37699998216704,,response,,,,99,,,,,,,Space,keypress(Space),,,,,,,,---- -- ----- -- ------ - ------- --- ----------<br>------------- ------ ------ ---- ---- ------- ----- -- ----<br>-------- ------- -- ---------- --- - --- ----- ----- ----<br>---- --- --- ----- --- ---- ---- ------- ----- ---- -------<br>--- --- -- ----- -- --- ---- -- --- even -- ------ ------<br>--- ----- -- ----,136967.5799999386,136963.83999998216,136640.79,136641.73999999184,136657.463,136974.25,,48,even
screen,html.Screen,1_1_0_1_49,2021-04-22T15:24:16.915Z,,,,,,,,,,,,,,,,53,,,,,,,,,,,,,,329.57999998982996,,response,,,,99,,,,,,,Space,keypress(Space),,,,,,,,---- -- ----- -- ------ - ------- --- ----------<br>------------- ------ ------ ---- ---- ------- ----- -- ----<br>-------- ------- -- ---------- --- - --- ----- ----- ----<br>---- --- --- ----- --- ---- ---- ------- ----- ---- -------<br>--- --- -- ----- -- --- ---- -- --- ---- if ------ ------<br>--- ----- -- ----,137307.54499998875,137303.82999998983,136957.577,136967.73999999277,136974.25,137324.383,,49,if
screen,html.Screen,1_1_0_1_50,2021-04-22T15:24:17.224Z,,,,,,,,,,,,,,,,53,,,,,,,,,,,,,,289.2719999937399,,response,,,,99,,,,,,,Space,keypress(Space),,,,,,,,---- -- ----- -- ------ - ------- --- ----------<br>------------- ------ ------ ---- ---- ------- ----- -- ----<br>-------- ------- -- ---------- --- - --- ----- ----- ----<br>---- --- --- ----- --- ---- ---- ------- ----- ---- -------<br>--- --- -- ----- -- --- ---- -- --- ---- -- that's ------<br>--- ----- -- ----,137616.64999998175,137613.65499999374,137307.71,137307.7049999265,137324.383,137624.497,,50,that's
screen,html.Screen,1_1_0_1_51,2021-04-22T15:24:17.542Z,,,,,,,,,,,,,,,,53,,,,,,,,,,,,,,306.0729999676987,,response,,,,99,,,,,,,Space,keypress(Space),,,,,,,,---- -- ----- -- ------ - ------- --- ----------<br>------------- ------ ------ ---- ---- ------- ----- -- ----<br>-------- ------- -- ---------- --- - --- ----- ----- ----<br>---- --- --- ----- --- ---- ---- ------- ----- ---- -------<br>--- --- -- ----- -- --- ---- -- --- ---- -- ------ really<br>--- ----- -- ----,137935.10999996215,137930.5699999677,137607.824,137616.7799999239,137624.497,137941.284,,51,really
screen,html.Screen,1_1_0_1_52,2021-04-22T15:24:17.868Z,,,,,,,,,,,,,,,,53,,,,,,,,,,,,,,315.5259999334521,,response,,,,99,,,,,,,Space,keypress(Space),,,,,,,,---- -- ----- -- ------ - ------- --- ----------<br>------------- ------ ------ ---- ---- ------- ----- -- ----<br>-------- ------- -- ---------- --- - --- ----- ----- ----<br>---- --- --- ----- --- ---- ---- ------- ----- ---- -------<br>--- --- -- ----- -- --- ---- -- --- ---- -- ------ ------<br>not ----- -- ----,138260.5399999302,138256.80999993347,137924.611,137935.2699998999,137941.284,138274.744,,52,not
screen,html.Screen,1_1_0_1_53,2021-04-22T15:24:18.189Z,,,,,,,,,,,,,,,,53,,,,,,,,,,,,,,302.9409999092459,,response,,,,99,,,,,,,Space,keypress(Space),,,,,,,,---- -- ----- -- ------ - ------- --- ----------<br>------------- ------ ------ ---- ---- ------- ----- -- ----<br>-------- ------- -- ---------- --- - --- ----- ----- ----<br>---- --- --- ----- --- ---- ---- ------- ----- ---- -------<br>--- --- -- ----- -- --- ---- -- --- ---- -- ------ ------<br>--- close -- ----,138581.7049999023,138577.68499990925,138258.071,138260.704999906,138274.744,138591.531,,53,close
screen,html.Screen,1_1_0_1_54,2021-04-22T15:24:18.551Z,,,,,,,,,,,,,,,,53,,,,,,,,,,,,,,349.2039999528497,,response,,,,99,,,,,,,Space,keypress(Space),,,,,,,,---- -- ----- -- ------ - ------- --- ----------<br>------------- ------ ------ ---- ---- ------- ----- -- ----<br>-------- ------- -- ---------- --- - --- ----- ----- ----<br>---- --- --- ----- --- ---- ---- ------- ----- ---- -------<br>--- --- -- ----- -- --- ---- -- --- ---- -- ------ ------<br>--- ----- at ----,138944.39499999862,138940.73499995284,138574.858,138581.86499995645,138591.531,138958.337,,54,at
screen,html.Screen,1_1_0_1_55,2021-04-22T15:24:18.923Z,,,,,,,,,,,,,,,,53,,,,,,,,,,,,,,353.40799995540874,,response,,,,99,,,,,,,Space,keypress(Space),,,,,,,,---- -- ----- -- ------ - ------- --- ----------<br>------------- ------ ------ ---- ---- ------- ----- -- ----<br>-------- ------- -- ---------- --- - --- ----- ----- ----<br>---- --- --- ----- --- ---- ---- ------- ----- ---- -------<br>--- --- -- ----- -- --- ---- -- --- ---- -- ------ ------<br>--- ----- -- all.,139315.75999991037,139311.7449999554,138941.664,138944.5499998983,138958.337,139325.143,,55,all.
Item 99,flow.Loop,1_1_0_1,2021-04-22T15:24:18.923Z,,,,,,,,,,,,,,,,,,,,,,,,,,,,,,25149.766999955405,,completion,,,,,E,,,,,,,,,,,silence,,,,,139316.10499997623,139311.7449999554,114128.632,114131.10499992035,114161.978,139325.143,,,
Question 1,html.Screen,1_1_0_2,2021-04-22T15:24:22.873Z,,,,,,,,,,,,,,,,,,,,,,,,,,,true,FALSE,,3938.146999915276,,response,,,,99,E,,,,,,FALSE,click #choice-2,,,,silence,,,,,143265.98499994725,143263.2899999153,139308.47,139316.3099999074,139325.143,143276.644,,,
Question 2,html.Screen,1_1_0_3,2021-04-22T15:24:27.948Z,,,,,,,,,,,,,,,,,,,,,,,,,,,true,TRUE,,5061.690999978542,,response,,,,99,E,,,,,,TRUE,click #choice-1,,,,silence,,,,,148340.92499990948,148338.33499997854,143259.971,143266.16499992087,143276.644,148345.565,,,
Item 99,flow.Sequence,1_1_0,2021-04-22T15:24:27.948Z,,,,,,,,,,,,,,,,,,,,,,,,,,,,,,44196.82999997854,,completion,,,,,,,,,,,,,,,,,,,,,148341.18499991018,148338.33499997854,104124.832,104132.18999991659,104141.505,148345.565,,,
Holding screen,html.Screen,1_1_1_0,2021-04-22T15:24:37.941Z,,,,,,,,,,,,,,,,,,,,,,,,,,,,,,10003.377000000008,,timeout,,,,,,,,,,,,,,,,,,,,,158334.4700000016,158332.269,148328.892,148341.35499992408,148345.565,158348.942,,,
screen,html.Screen,1_1_1_1_0,2021-04-22T15:24:39.658Z,,,,,,,,,,,,,,,,54,,,,,,,,,,,,,,1696.3079999664624,,response,,,,100,,,,,,,Space,keypress(Space),,,,,,,,At --- ---- --- ------ ----- ------- ---- -- --- ------- --<br>------- ---------- ------ -- ----- -- ----- -- ---- ------<br>--- ----- --- --- ------ -------- ----- --- ------ ----- --<br>----- ----- ---------- --- --- ------ ------ ---- -- ------<br>------- --- ------ ----- --- ---- ------- -- ---- --- --<br>------- ------,160050.99999997765,160045.24999996647,158332.269,158334.70499992836,158348.942,160066.261,,0,At
screen,html.Screen,1_1_1_1_1,2021-04-22T15:24:40.045Z,,,,,,,,,,,,,,,,54,,,,,,,,,,,,,,368.13899991096696,,response,,,,100,,,,,,,Space,keypress(Space),,,,,,,,-- the ---- --- ------ ----- ------- ---- -- --- ------- --<br>------- ---------- ------ -- ----- -- ----- -- ---- ------<br>--- ----- --- --- ------ -------- ----- --- ------ ----- --<br>----- ----- ---------- --- --- ------ ------ ---- -- ------<br>------- --- ------ ----- --- ---- ------- -- ---- --- --<br>------- ------,160438.10999998823,160434.39999991097,160049.588,160051.2849999359,160066.261,160449.74,,1,the
screen,html.Screen,1_1_1_1_2,2021-04-22T15:24:40.369Z,,,,,,,,,,,,,,,,54,,,,,,,,,,,,,,308.68500000727363,,response,,,,100,,,,,,,Space,keypress(Space),,,,,,,,-- --- time --- ------ ----- ------- ---- -- --- ------- --<br>------- ---------- ------ -- ----- -- ----- -- ---- ------<br>--- ----- --- --- ------ -------- ----- --- ------ ----- --<br>----- ----- ---------- --- --- ------ ------ ---- -- ------<br>------- --- ------ ----- --- ---- ------- -- ---- --- --<br>------- ------,160762.40499992855,160758.42500000726,160433.067,160438.26999992598,160449.74,160766.527,,2,time
screen,html.Screen,1_1_1_1_3,2021-04-22T15:24:40.699Z,,,,,,,,,,,,,,,,54,,,,,,,,,,,,,,321.84799993387423,,response,,,,100,,,,,,,Space,keypress(Space),,,,,,,,-- --- ---- the ------ ----- ------- ---- -- --- ------- --<br>------- ---------- ------ -- ----- -- ----- -- ---- ------<br>--- ----- --- --- ------ -------- ----- --- ------ ----- --<br>----- ----- ---------- --- --- ------ ------ ---- -- ------<br>------- --- ------ ----- --- ---- ------- -- ---- --- --<br>------- ------,161092.13000000454,161088.37499993388,160749.854,160762.57999998052,160766.527,161099.987,,3,the
screen,html.Screen,1_1_1_1_4,2021-04-22T15:24:41.063Z,,,,,,,,,,,,,,,,54,,,,,,,,,,,,,,351.5829999174166,,response,,,,100,,,,,,,Space,keypress(Space),,,,,,,,-- --- ---- --- French ----- ------- ---- -- --- ------- --<br>------- ---------- ------ -- ----- -- ----- -- ---- ------<br>--- ----- --- --- ------ -------- ----- --- ------ ----- --<br>----- ----- ---------- --- --- ------ ------ ---- -- ------<br>------- --- ------ ----- --- ---- ------- -- ---- --- --<br>------- ------,161455.5849999888,161451.5699999174,161083.314,161092.28499990422,161099.987,161466.793,,4,French
screen,html.Screen,1_1_1_1_5,2021-04-22T15:24:41.497Z,,,,,,,,,,,,,,,,54,,,,,,,,,,,,,,419.58699992351467,,response,,,,100,,,,,,,Space,keypress(Space),,,,,,,,-- --- ---- --- ------ crown ------- ---- -- --- ------- --<br>------- ---------- ------ -- ----- -- ----- -- ---- ------<br>--- ----- --- --- ------ -------- ----- --- ------ ----- --<br>----- ----- ---------- --- --- ------ ------ ---- -- ------<br>------- --- ------ ----- --- ---- ------- -- ---- --- --<br>------- ------,161890.09000000078,161886.37999992352,161450.12,161455.74499992654,161466.793,161900.291,,5,crown
screen,html.Screen,1_1_1_1_6,2021-04-22T15:24:42.183Z,,,,,,,,,,,,,,,,54,,,,,,,,,,,,,,672.0739999126818,,response,,,,100,,,,,,,Space,keypress(Space),,,,,,,,-- --- ---- --- ------ ----- secured ---- -- --- ------- --<br>------- ---------- ------ -- ----- -- ----- -- ---- ------<br>--- ----- --- --- ------ -------- ----- --- ------ ----- --<br>----- ----- ---------- --- --- ------ ------ ---- -- ------<br>------- --- ------ ----- --- ---- ------- -- ---- --- --<br>------- ------,162576.39499998186,162572.36499991268,161883.618,161890.24999993853,161900.291,162583.884,,6,secured
screen,html.Screen,1_1_1_1_7,2021-04-22T15:24:42.948Z,,,,,,,,,,,,,,,,54,,,,,,,,,,,,,,753.450999931054,,response,,,,100,,,,,,,Space,keypress(Space),,,,,,,,-- --- ---- --- ------ ----- ------- much -- --- ------- --<br>------- ---------- ------ -- ----- -- ----- -- ---- ------<br>--- ----- --- --- ------ -------- ----- --- ------ ----- --<br>----- ----- ---------- --- --- ------ ------ ---- -- ------<br>------- --- ------ ----- --- ---- ------- -- ---- --- --<br>------- ------,163341.13999991678,163337.33499993104,162567.211,162576.55999995768,162583.884,163350.842,,7,much
screen,html.Screen,1_1_1_1_8,2021-04-22T15:24:43.510Z,,,,,,,,,,,,,,,,54,,,,,,,,,,,,,,548.4229998981464,,response,,,,100,,,,,,,Space,keypress(Space),,,,,,,,-- --- ---- --- ------ ----- ------- ---- of --- ------- --<br>------- ---------- ------ -- ----- -- ----- -- ---- ------<br>--- ----- --- --- ------ -------- ----- --- ------ ----- --<br>----- ----- ---------- --- --- ------ ------ ---- -- ------<br>------- --- ------ ----- --- ---- ------- -- ---- --- --<br>------- ------,163903.10499991756,163899.26499989815,163334.169,163341.29999997094,163350.842,163917.724,,8,of
screen,html.Screen,1_1_1_1_9,2021-04-22T15:24:43.987Z,,,,,,,,,,,,,,,,54,,,,,,,,,,,,,,458.5910000013537,,response,,,,100,,,,,,,Space,keypress(Space),,,,,,,,-- --- ---- --- ------ ----- ------- ---- -- its ------- --<br>------- ---------- ------ -- ----- -- ----- -- ---- ------<br>--- ----- --- --- ------ -------- ----- --- ------ ----- --<br>----- ----- ---------- --- --- ------ ------ ---- -- ------<br>------- --- ------ ----- --- ---- ------- -- ---- --- --<br>------- ------,164379.9749999307,164376.31500000134,163901.051,163903.26499997173,163917.724,164384.568,,9,its
screen,html.Screen,1_1_1_1_10,2021-04-22T15:24:44.633Z,,,,,,,,,,,,,,,,54,,,,,,,,,,,,,,637.5819999752275,,response,,,,100,,,,,,,Space,keypress(Space),,,,,,,,-- --- ---- --- ------ ----- ------- ---- -- --- revenue --<br>------- ---------- ------ -- ----- -- ----- -- ---- ------<br>--- ----- --- --- ------ -------- ----- --- ------ ----- --<br>----- ----- ---------- --- --- ------ ------ ---- -- ------<br>------- --- ------ ----- --- ---- ------- -- ---- --- --<br>------- ------,165025.87499993388,165022.14999997523,164367.895,164380.13499998488,164384.568,165034.815,,10,revenue
screen,html.Screen,1_1_1_1_11,2021-04-22T15:24:45.184Z,,,,,,,,,,,,,,,,54,,,,,,,,,,,,,,538.4749999711639,,response,,,,100,,,,,,,Space,keypress(Space),,,,,,,,-- --- ---- --- ------ ----- ------- ---- -- --- ------- by<br>------- ---------- ------ -- ----- -- ----- -- ---- ------<br>--- ----- --- --- ------ -------- ----- --- ------ ----- --<br>----- ----- ---------- --- --- ------ ------ ---- -- ------<br>------- --- ------ ----- --- ---- ------- -- ---- --- --<br>------- ------,165577.4349999847,165573.28999997117,165018.142,165026.02999994997,165034.815,165585.024,,11,by
screen,html.Screen,1_1_1_1_12,2021-04-22T15:24:45.940Z,,,,,,,,,,,,,,,,54,,,,,,,,,,,,,,744.4059999251913,,response,,,,100,,,,,,,Space,keypress(Space),,,,,,,,-- --- ---- --- ------ ----- ------- ---- -- --- ------- --<br>issuing ---------- ------ -- ----- -- ----- -- ---- ------<br>--- ----- --- --- ------ -------- ----- --- ------ ----- --<br>----- ----- ---------- --- --- ------ ------ ---- -- ------<br>------- --- ------ ----- --- ---- ------- -- ---- --- --<br>------- ------,166333.25999998488,166329.4299999252,165568.351,165577.59499992244,165585.024,166335.309,,12,issuing
screen,html.Screen,1_1_1_1_13,2021-04-22T15:24:46.506Z,,,,,,,,,,,,,,,,54,,,,,,,,,,,,,,559.8059999629622,,response,,,,100,,,,,,,Space,keypress(Space),,,,,,,,-- --- ---- --- ------ ----- ------- ---- -- --- ------- --<br>------- government ------ -- ----- -- ----- -- ---- ------<br>--- ----- --- --- ------ -------- ----- --- ------ ----- --<br>----- ----- ---------- --- --- ------ ------ ---- -- ------<br>------- --- ------ ----- --- ---- ------- -- ---- --- --<br>------- ------,166898.95999990404,166895.11499996297,166318.636,166333.3799999673,166335.309,166903.888,,13,government
screen,html.Screen,1_1_1_1_14,2021-04-22T15:24:48.256Z,,,,,,,,,,,,,,,,54,,,,,,,,,,,,,,1741.3669999812555,,response,,,,100,,,,,,,Space,keypress(Space),,,,,,,,-- --- ---- --- ------ ----- ------- ---- -- --- ------- --<br>------- ---------- bonds. -- ----- -- ----- -- ---- ------<br>--- ----- --- --- ------ -------- ----- --- ------ ----- --<br>----- ----- ---------- --- --- ------ ------ ---- -- ------<br>------- --- ------ ----- --- ---- ------- -- ---- --- --<br>------- ------,168649.49999994133,168645.25499998126,166887.215,166899.12499999627,166903.888,168654.553,,14,bonds.
screen,html.Screen,1_1_1_1_15,2021-04-22T15:24:48.742Z,,,,,,,,,,,,,,,,54,,,,,,,,,,,,,,476.6469999452238,,response,,,,100,,,,,,,Space,keypress(Space),,,,,,,,-- --- ---- --- ------ ----- ------- ---- -- --- ------- --<br>------- ---------- ------ In ----- -- ----- -- ---- ------<br>--- ----- --- --- ------ -------- ----- --- ------ ----- --<br>----- ----- ---------- --- --- ------ ------ ---- -- ------<br>------- --- ------ ----- --- ---- ------- -- ---- --- --<br>------- ------,169134.91999998223,169131.19999994524,168637.88,168649.6599999955,168654.553,169138.07,,15,In
screen,html.Screen,1_1_1_1_16,2021-04-22T15:24:49.323Z,,,,,,,,,,,,,,,,54,,,,,,,,,,,,,,574.1799999822979,,response,,,,100,,,,,,,Space,keypress(Space),,,,,,,,"-- --- ---- --- ------ ----- ------- ---- -- --- ------- --<br>------- ---------- ------ -- 1727, -- ----- -- ---- ------<br>--- ----- --- --- ------ -------- ----- --- ------ ----- --<br>----- ----- ---------- --- --- ------ ------ ---- -- ------<br>------- --- ------ ----- --- ---- ------- -- ---- --- --<br>------- ------",169715.94499994535,169712.2499999823,169121.397,169135.154999909,169138.07,169721.625,,16,"1727,"
screen,html.Screen,1_1_1_1_17,2021-04-22T15:24:52.723Z,,,,,,,,,,,,,,,,54,,,,,,,,,,,,,,3389.509999897331,,response,,,,100,,,,,,,Space,keypress(Space),,,,,,,,-- --- ---- --- ------ ----- ------- ---- -- --- ------- --<br>------- ---------- ------ -- ----- in ----- -- ---- ------<br>--- ----- --- --- ------ -------- ----- --- ------ ----- --<br>----- ----- ---------- --- --- ------ ------ ---- -- ------<br>------- --- ------ ----- --- ---- ------- -- ---- --- --<br>------- ------,173115.9950000001,173111.13499989733,169704.952,169716.10499999952,169721.625,173122.917,,17,in
screen,html.Screen,1_1_1_1_18,2021-04-22T15:24:53.242Z,,,,,,,,,,,,,,,,54,,,,,,,,,,,,,,508.2329999137728,,response,,,,100,,,,,,,Space,keypress(Space),,,,,,,,-- --- ---- --- ------ ----- ------- ---- -- --- ------- --<br>------- ---------- ------ -- ----- -- order -- ---- ------<br>--- ----- --- --- ------ -------- ----- --- ------ ----- --<br>----- ----- ---------- --- --- ------ ------ ---- -- ------<br>------- --- ------ ----- --- ---- ------- -- ---- --- --<br>------- ------,173635.12999995146,173631.14999991376,173106.244,173116.15999997593,173122.917,173639.78,,18,order
screen,html.Screen,1_1_1_1_19,2021-04-22T15:24:53.731Z,,,,,,,,,,,,,,,,54,,,,,,,,,,,,,,480.4099999286991,,response,,,,100,,,,,,,Space,keypress(Space),,,,,,,,-- --- ---- --- ------ ----- ------- ---- -- --- ------- --<br>------- ---------- ------ -- ----- -- ----- to ---- ------<br>--- ----- --- --- ------ -------- ----- --- ------ ----- --<br>----- ----- ---------- --- --- ------ ------ ---- -- ------<br>------- --- ------ ----- --- ---- ------- -- ---- --- --<br>------- ------,174123.9399999613,174120.1899999287,173623.107,173635.29499992728,173639.78,174139.97,,19,to
screen,html.Screen,1_1_1_1_20,2021-04-22T15:24:54.290Z,,,,,,,,,,,,,,,,54,,,,,,,,,,,,,,539.0249999656517,,response,,,,100,,,,,,,Space,keypress(Space),,,,,,,,-- --- ---- --- ------ ----- ------- ---- -- --- ------- --<br>------- ---------- ------ -- ----- -- ----- -- save ------<br>--- ----- --- --- ------ -------- ----- --- ------ ----- --<br>----- ----- ---------- --- --- ------ ------ ---- -- ------<br>------- --- ------ ----- --- ---- ------- -- ---- --- --<br>------- ------,174682.78499995358,174678.99499996565,174123.297,174124.10499993712,174139.97,174690.179,,20,save
screen,html.Screen,1_1_1_1_21,2021-04-22T15:24:54.790Z,,,,,,,,,,,,,,,,54,,,,,,,,,,,,,,488.9359999480657,,response,,,,100,,,,,,,Space,keypress(Space),,,,,,,,"-- --- ---- --- ------ ----- ------- ---- -- --- ------- --<br>------- ---------- ------ -- ----- -- ----- -- ---- money,<br>--- ----- --- --- ------ -------- ----- --- ------ ----- --<br>----- ----- ---------- --- --- ------ ------ ---- -- ------<br>------- --- ------ ----- --- ---- ------- -- ---- --- --<br>------- ------",175183.15499997698,175179.11499994807,174673.506,174682.94500000775,174690.179,175190.369,,21,"money,"
screen,html.Screen,1_1_1_1_22,2021-04-22T15:24:55.229Z,,,,,,,,,,,,,,,,54,,,,,,,,,,,,,,429.4109999499633,,response,,,,100,,,,,,,Space,keypress(Space),,,,,,,,-- --- ---- --- ------ ----- ------- ---- -- --- ------- --<br>------- ---------- ------ -- ----- -- ----- -- ---- ------<br>the ----- --- --- ------ -------- ----- --- ------ ----- --<br>----- ----- ---------- --- --- ------ ------ ---- -- ------<br>------- --- ------ ----- --- ---- ------- -- ---- --- --<br>------- ------,175622.37499991897,175619.77999994997,175173.696,175183.36999998428,175190.369,175623.867,,22,the
screen,html.Screen,1_1_1_1_23,2021-04-22T15:24:55.586Z,,,,,,,,,,,,,,,,54,,,,,,,,,,,,,,351.2379999613331,,response,,,,100,,,,,,,Space,keypress(Space),,,,,,,,-- --- ---- --- ------ ----- ------- ---- -- --- ------- --<br>------- ---------- ------ -- ----- -- ----- -- ---- ------<br>--- state --- --- ------ -------- ----- --- ------ ----- --<br>----- ----- ---------- --- --- ------ ------ ---- -- ------<br>------- --- ------ ----- --- ---- ------- -- ---- --- --<br>------- ------,175979.10999995656,175975.10499996133,175607.194,175622.45999998413,175623.867,175990.673,,23,state
screen,html.Screen,1_1_1_1_24,2021-04-22T15:24:56.042Z,,,,,,,,,,,,,,,,54,,,,,,,,,,,,,,440.43199996690964,,response,,,,100,,,,,,,Space,keypress(Space),,,,,,,,-- --- ---- --- ------ ----- ------- ---- -- --- ------- --<br>------- ---------- ------ -- ----- -- ----- -- ---- ------<br>--- ----- cut --- ------ -------- ----- --- ------ ----- --<br>----- ----- ---------- --- --- ------ ------ ---- -- ------<br>------- --- ------ ----- --- ---- ------- -- ---- --- --<br>------- ------,176434.86999999732,176431.10499996692,175974,175979.27999997046,175990.673,176441.513,,24,cut
screen,html.Screen,1_1_1_1_25,2021-04-22T15:24:56.484Z,,,,,,,,,,,,,,,,54,,,,,,,,,,,,,,431.5920000060287,,response,,,,100,,,,,,,Space,keypress(Space),,,,,,,,-- --- ---- --- ------ ----- ------- ---- -- --- ------- --<br>------- ---------- ------ -- ----- -- ----- -- ---- ------<br>--- ----- --- the ------ -------- ----- --- ------ ----- --<br>----- ----- ---------- --- --- ------ ------ ---- -- ------<br>------- --- ------ ----- --- ---- ------- -- ---- --- --<br>------- ------,176876.79999996908,176873.10500000603,176424.84,176435.024999897,176441.513,176891.684,,25,the
screen,html.Screen,1_1_1_1_26,2021-04-22T15:24:56.893Z,,,,,,,,,,,,,,,,54,,,,,,,,,,,,,,390.2459999391576,,response,,,,100,,,,,,,Space,keypress(Space),,,,,,,,-- --- ---- --- ------ ----- ------- ---- -- --- ------- --<br>------- ---------- ------ -- ----- -- ----- -- ---- ------<br>--- ----- --- --- bonds' -------- ----- --- ------ ----- --<br>----- ----- ---------- --- --- ------ ------ ---- -- ------<br>------- --- ------ ----- --- ---- ------- -- ---- --- --<br>------- ------,177285.7199999271,177281.92999993917,176875.011,176876.9649999449,176891.684,177291.836,,26,bonds'
screen,html.Screen,1_1_1_1_27,2021-04-22T15:24:57.351Z,,,,,,,,,,,,,,,,54,,,,,,,,,,,,,,448.0689999657916,,response,,,,100,,,,,,,Space,keypress(Space),,,,,,,,-- --- ---- --- ------ ----- ------- ---- -- --- ------- --<br>------- ---------- ------ -- ----- -- ----- -- ---- ------<br>--- ----- --- --- ------ interest ----- --- ------ ----- --<br>----- ----- ---------- --- --- ------ ------ ---- -- ------<br>------- --- ------ ----- --- ---- ------- -- ---- --- --<br>------- ------,177743.59999992885,177739.9049999658,177275.163,177285.88499990292,177291.836,177758.68,,27,interest
screen,html.Screen,1_1_1_1_28,2021-04-22T15:24:57.925Z,,,,,,,,,,,,,,,,54,,,,,,,,,,,,,,555.1549999208073,,response,,,,100,,,,,,,Space,keypress(Space),,,,,,,,-- --- ---- --- ------ ----- ------- ---- -- --- ------- --<br>------- ---------- ------ -- ----- -- ----- -- ---- ------<br>--- ----- --- --- ------ -------- rate. --- ------ ----- --<br>----- ----- ---------- --- --- ------ ------ ---- -- ------<br>------- --- ------ ----- --- ---- ------- -- ---- --- --<br>------- ------,178317.86999991164,178313.8349999208,177742.007,177743.75499994494,177758.68,178325.562,,28,rate.
screen,html.Screen,1_1_1_1_29,2021-04-22T15:24:58.426Z,,,,,,,,,,,,,,,,54,,,,,,,,,,,,,,489.4729999777919,,response,,,,100,,,,,,,Space,keypress(Space),,,,,,,,-- --- ---- --- ------ ----- ------- ---- -- --- ------- --<br>------- ---------- ------ -- ----- -- ----- -- ---- ------<br>--- ----- --- --- ------ -------- ----- The ------ ----- --<br>----- ----- ---------- --- --- ------ ------ ---- -- ------<br>------- --- ------ ----- --- ---- ------- -- ---- --- --<br>------- ------,178819.15999995545,178815.0349999778,178308.889,178318.05000000168,178325.562,178825.752,,29,The
screen,html.Screen,1_1_1_1_30,2021-04-22T15:24:58.914Z,,,,,,,,,,,,,,,,54,,,,,,,,,,,,,,477.2529999942926,,response,,,,100,,,,,,,Space,keypress(Space),,,,,,,,-- --- ---- --- ------ ----- ------- ---- -- --- ------- --<br>------- ---------- ------ -- ----- -- ----- -- ---- ------<br>--- ----- --- --- ------ -------- ----- --- market ----- --<br>----- ----- ---------- --- --- ------ ------ ---- -- ------<br>------- --- ------ ----- --- ---- ------- -- ---- --- --<br>------- ------,179306.80999998003,179303.0049999943,178809.079,178819.32999996934,178825.752,179309.269,,30,market
screen,html.Screen,1_1_1_1_31,2021-04-22T15:24:59.361Z,,,,,,,,,,,,,,,,54,,,,,,,,,,,,,,441.56099991718656,,response,,,,100,,,,,,,Space,keypress(Space),,,,,,,,-- --- ---- --- ------ ----- ------- ---- -- --- ------- --<br>------- ---------- ------ -- ----- -- ----- -- ---- ------<br>--- ----- --- --- ------ -------- ----- --- ------ value --<br>----- ----- ---------- --- --- ------ ------ ---- -- ------<br>------- --- ------ ----- --- ---- ------- -- ---- --- --<br>------- ------,179754.50499996077,179750.8299999172,179292.596,179306.96999991778,179309.269,179759.44,,31,value
screen,html.Screen,1_1_1_1_32,2021-04-22T15:24:59.817Z,,,,,,,,,,,,,,,,54,,,,,,,,,,,,,,446.53999996971106,,response,,,,100,,,,,,,Space,keypress(Space),,,,,,,,-- --- ---- --- ------ ----- ------- ---- -- --- ------- --<br>------- ---------- ------ -- ----- -- ----- -- ---- ------<br>--- ----- --- --- ------ -------- ----- --- ------ ----- of<br>----- ----- ---------- --- --- ------ ------ ---- -- ------<br>------- --- ------ ----- --- ---- ------- -- ---- --- --<br>------- ------,180209.78999999352,180205.9799999697,179742.767,179754.6699999366,179759.44,180226.284,,32,of
screen,html.Screen,1_1_1_1_33,2021-04-22T15:25:00.329Z,,,,,,,,,,,,,,,,54,,,,,,,,,,,,,,491.6809999597899,,response,,,,100,,,,,,,Space,keypress(Space),,,,,,,,-- --- ---- --- ------ ----- ------- ---- -- --- ------- --<br>------- ---------- ------ -- ----- -- ----- -- ---- ------<br>--- ----- --- --- ------ -------- ----- --- ------ ----- --<br>these ----- ---------- --- --- ------ ------ ---- -- ------<br>------- --- ------ ----- --- ---- ------- -- ---- --- --<br>------- ------,180721.7149999924,180717.9649999598,180209.611,180210.06999991369,180226.284,180726.474,,33,these
screen,html.Screen,1_1_1_1_34,2021-04-22T15:25:00.888Z,,,,,,,,,,,,,,,,54,,,,,,,,,,,,,,552.2209999863408,,response,,,,100,,,,,,,Space,keypress(Space),,,,,,,,-- --- ---- --- ------ ----- ------- ---- -- --- ------- --<br>------- ---------- ------ -- ----- -- ----- -- ---- ------<br>--- ----- --- --- ------ -------- ----- --- ------ ----- --<br>----- bonds ---------- --- --- ------ ------ ---- -- ------<br>------- --- ------ ----- --- ---- ------- -- ---- --- --<br>------- ------,181280.8199999854,181278.69499998633,180709.801,180721.87499993015,180726.474,181293.356,,34,bonds
screen,html.Screen,1_1_1_1_35,2021-04-22T15:25:01.408Z,,,,,,,,,,,,,,,,54,,,,,,,,,,,,,,503.58899995093816,,response,,,,100,,,,,,,Space,keypress(Space),,,,,,,,"-- --- ---- --- ------ ----- ------- ---- -- --- ------- --<br>------- ---------- ------ -- ----- -- ----- -- ---- ------<br>--- ----- --- --- ------ -------- ----- --- ------ ----- --<br>----- ----- plummeted, --- --- ------ ------ ---- -- ------<br>------- --- ------ ----- --- ---- ------- -- ---- --- --<br>------- ------",181801.4649999095,181796.94499995094,181276.683,181280.90499993414,181293.356,181810.219,,35,"plummeted,"
screen,html.Screen,1_1_1_1_36,2021-04-22T15:25:01.840Z,,,,,,,,,,,,,,,,54,,,,,,,,,,,,,,418.7209999426559,,response,,,,100,,,,,,,Space,keypress(Space),,,,,,,,-- --- ---- --- ------ ----- ------- ---- -- --- ------- --<br>------- ---------- ------ -- ----- -- ----- -- ---- ------<br>--- ----- --- --- ------ -------- ----- --- ------ ----- --<br>----- ----- ---------- and --- ------ ------ ---- -- ------<br>------- --- ------ ----- --- ---- ------- -- ---- --- --<br>------- ------,182233.11999998987,182228.93999994267,181793.546,181801.64499999955,181810.219,182243.717,,36,and
screen,html.Screen,1_1_1_1_37,2021-04-22T15:25:02.248Z,,,,,,,,,,,,,,,,54,,,,,,,,,,,,,,394.90299998334376,,response,,,,100,,,,,,,Space,keypress(Space),,,,,,,,-- --- ---- --- ------ ----- ------- ---- -- --- ------- --<br>------- ---------- ------ -- ----- -- ----- -- ---- ------<br>--- ----- --- --- ------ -------- ----- --- ------ ----- --<br>----- ----- ---------- --- the ------ ------ ---- -- ------<br>------- --- ------ ----- --- ---- ------- -- ---- --- --<br>------- ------,182641.34999993257,182638.61999998335,182227.044,182233.2849999657,182243.717,182643.869,,37,the
screen,html.Screen,1_1_1_1_38,2021-04-22T15:25:02.712Z,,,,,,,,,,,,,,,,54,,,,,,,,,,,,,,457.0359999993234,,response,,,,100,,,,,,,Space,keypress(Space),,,,,,,,-- --- ---- --- ------ ----- ------- ---- -- --- ------- --<br>------- ---------- ------ -- ----- -- ----- -- ---- ------<br>--- ----- --- --- ------ -------- ----- --- ------ ----- --<br>----- ----- ---------- --- --- market ------ ---- -- ------<br>------- --- ------ ----- --- ---- ------- -- ---- --- --<br>------- ------,183104.57500000484,183100.90499999933,182627.196,182641.48999995086,182643.869,183110.713,,38,market
screen,html.Screen,1_1_1_1_39,2021-04-22T15:25:03.192Z,,,,,,,,,,,,,,,,54,,,,,,,,,,,,,,469.1469999398105,,response,,,,100,,,,,,,Space,keypress(Space),,,,,,,,-- --- ---- --- ------ ----- ------- ---- -- --- ------- --<br>------- ---------- ------ -- ----- -- ----- -- ---- ------<br>--- ----- --- --- ------ -------- ----- --- ------ ----- --<br>----- ----- ---------- --- --- ------ became ---- -- ------<br>------- --- ------ ----- --- ---- ------- -- ---- --- --<br>------- ------,183584.7300000023,183579.8599999398,183094.04,183104.7349999426,183110.713,183594.23,,39,became
screen,html.Screen,1_1_1_1_40,2021-04-22T15:25:03.679Z,,,,,,,,,,,,,,,,54,,,,,,,,,,,,,,473.6849999050319,,response,,,,100,,,,,,,Space,keypress(Space),,,,,,,,-- --- ---- --- ------ ----- ------- ---- -- --- ------- --<br>------- ---------- ------ -- ----- -- ----- -- ---- ------<br>--- ----- --- --- ------ -------- ----- --- ------ ----- --<br>----- ----- ---------- --- --- ------ ------ wary -- ------<br>------- --- ------ ----- --- ---- ------- -- ---- --- --<br>------- ------,184071.87999994494,184067.91499990504,183577.557,183584.89499997813,183594.23,184077.747,,40,wary
screen,html.Screen,1_1_1_1_41,2021-04-22T15:25:04.181Z,,,,,,,,,,,,,,,,54,,,,,,,,,,,,,,492.2329999128997,,response,,,,100,,,,,,,Space,keypress(Space),,,,,,,,-- --- ---- --- ------ ----- ------- ---- -- --- ------- --<br>------- ---------- ------ -- ----- -- ----- -- ---- ------<br>--- ----- --- --- ------ -------- ----- --- ------ ----- --<br>----- ----- ---------- --- --- ------ ------ ---- of ------<br>------- --- ------ ----- --- ---- ------- -- ---- --- --<br>------- ------,184573.81499989424,184569.9799999129,184061.074,184072.10999995004,184077.747,184577.937,,41,of
screen,html.Screen,1_1_1_1_42,2021-04-22T15:25:04.658Z,,,,,,,,,,,,,,,,54,,,,,,,,,,,,,,469.80799998893053,,response,,,,100,,,,,,,Space,keypress(Space),,,,,,,,-- --- ---- --- ------ ----- ------- ---- -- --- ------- --<br>------- ---------- ------ -- ----- -- ----- -- ---- ------<br>--- ----- --- --- ------ -------- ----- --- ------ ----- --<br>----- ----- ---------- --- --- ------ ------ ---- -- French<br>------- --- ------ ----- --- ---- ------- -- ---- --- --<br>------- ------,185051.45499994978,185047.74499998894,184561.264,184573.97999998648,184577.937,185061.454,,42,French
screen,html.Screen,1_1_1_1_43,2021-04-22T15:25:05.789Z,,,,,,,,,,,,,,,,54,,,,,,,,,,,,,,1116.3909999401367,,response,,,,100,,,,,,,Space,keypress(Space),,,,,,,,-- --- ---- --- ------ ----- ------- ---- -- --- ------- --<br>------- ---------- ------ -- ----- -- ----- -- ---- ------<br>--- ----- --- --- ------ -------- ----- --- ------ ----- --<br>----- ----- ---------- --- --- ------ ------ ---- -- ------<br>credit. --- ------ ----- --- ---- ------- -- ---- --- --<br>------- ------,186182.23499995656,186177.84499994013,185044.781,185051.61500000395,185061.454,186195.218,,43,credit.
screen,html.Screen,1_1_1_1_44,2021-04-22T15:25:06.553Z,,,,,,,,,,,,,,,,54,,,,,,,,,,,,,,746.6519999805605,,response,,,,100,,,,,,,Space,keypress(Space),,,,,,,,-- --- ---- --- ------ ----- ------- ---- -- --- ------- --<br>------- ---------- ------ -- ----- -- ----- -- ---- ------<br>--- ----- --- --- ------ -------- ----- --- ------ ----- --<br>----- ----- ---------- --- --- ------ ------ ---- -- ------<br>------- The ------ ----- --- ---- ------- -- ---- --- --<br>------- ------,186945.95500000287,186941.86999998055,186178.545,186182.3999999324,186195.218,186962.176,,44,The
screen,html.Screen,1_1_1_1_45,2021-04-22T15:25:07.010Z,,,,,,,,,,,,,,,,54,,,,,,,,,,,,,,436.64899992381106,,response,,,,100,,,,,,,Space,keypress(Space),,,,,,,,-- --- ---- --- ------ ----- ------- ---- -- --- ------- --<br>------- ---------- ------ -- ----- -- ----- -- ---- ------<br>--- ----- --- --- ------ -------- ----- --- ------ ----- --<br>----- ----- ---------- --- --- ------ ------ ---- -- ------<br>------- --- French ----- --- ---- ------- -- ---- --- --<br>------- ------,187402.60499995202,187398.82499992382,186945.503,186946.1199999787,186962.176,187413.43,,45,French
screen,html.Screen,1_1_1_1_46,2021-04-22T15:25:07.782Z,,,,,,,,,,,,,,,,54,,,,,,,,,,,,,,757.3799999232288,,response,,,,100,,,,,,,Space,keypress(Space),,,,,,,,-- --- ---- --- ------ ----- ------- ---- -- --- ------- --<br>------- ---------- ------ -- ----- -- ----- -- ---- ------<br>--- ----- --- --- ------ -------- ----- --- ------ ----- --<br>----- ----- ---------- --- --- ------ ------ ---- -- ------<br>------- --- ------ state --- ---- ------- -- ---- --- --<br>------- ------,188174.55999995582,188170.80999992322,187396.757,187402.76999992784,187413.43,188180.388,,46,state
screen,html.Screen,1_1_1_1_47,2021-04-22T15:25:08.491Z,,,,,,,,,,,,,,,,54,,,,,,,,,,,,,,699.441999990755,,response,,,,100,,,,,,,Space,keypress(Space),,,,,,,,-- --- ---- --- ------ ----- ------- ---- -- --- ------- --<br>------- ---------- ------ -- ----- -- ----- -- ---- ------<br>--- ----- --- --- ------ -------- ----- --- ------ ----- --<br>----- ----- ---------- --- --- ------ ------ ---- -- ------<br>------- --- ------ ----- was ---- ------- -- ---- --- --<br>------- ------,188884.28999995813,188879.82999999076,188163.715,188174.71999989357,188180.388,188897.327,,47,was
screen,html.Screen,1_1_1_1_48,2021-04-22T15:25:08.892Z,,,,,,,,,,,,,,,,54,,,,,,,,,,,,,,383.4629999898025,,response,,,,100,,,,,,,Space,keypress(Space),,,,,,,,-- --- ---- --- ------ ----- ------- ---- -- --- ------- --<br>------- ---------- ------ -- ----- -- ----- -- ---- ------<br>--- ----- --- --- ------ -------- ----- --- ------ ----- --<br>----- ----- ---------- --- --- ------ ------ ---- -- ------<br>------- --- ------ ----- --- left ------- -- ---- --- --<br>------- ------,189284.63499993086,189280.7899999898,188880.654,188885.89999999385,188897.327,189297.479,,48,left
screen,html.Screen,1_1_1_1_49,2021-04-22T15:25:09.330Z,,,,,,,,,,,,,,,,54,,,,,,,,,,,,,,422.19599994207965,,response,,,,100,,,,,,,Space,keypress(Space),,,,,,,,-- --- ---- --- ------ ----- ------- ---- -- --- ------- --<br>------- ---------- ------ -- ----- -- ----- -- ---- ------<br>--- ----- --- --- ------ -------- ----- --- ------ ----- --<br>----- ----- ---------- --- --- ------ ------ ---- -- ------<br>------- --- ------ ----- --- ---- without -- ---- --- --<br>------- ------,189723.25499996077,189719.67499994207,189280.806,189284.78999994695,189297.479,189730.977,,49,without
screen,html.Screen,1_1_1_1_50,2021-04-22T15:25:09.781Z,,,,,,,,,,,,,,,,54,,,,,,,,,,,,,,438.7879999987199,,response,,,,100,,,,,,,Space,keypress(Space),,,,,,,,-- --- ---- --- ------ ----- ------- ---- -- --- ------- --<br>------- ---------- ------ -- ----- -- ----- -- ---- ------<br>--- ----- --- --- ------ -------- ----- --- ------ ----- --<br>----- ----- ---------- --- --- ------ ------ ---- -- ------<br>------- --- ------ ----- --- ---- ------- an ---- --- --<br>------- ------,190173.90499997418,190169.76499999873,189714.304,189723.4199999366,189730.977,190181.148,,50,an
screen,html.Screen,1_1_1_1_51,2021-04-22T15:25:10.175Z,,,,,,,,,,,,,,,,54,,,,,,,,,,,,,,382.61199993180344,,response,,,,100,,,,,,,Space,keypress(Space),,,,,,,,-- --- ---- --- ------ ----- ------- ---- -- --- ------- --<br>------- ---------- ------ -- ----- -- ----- -- ---- ------<br>--- ----- --- --- ------ -------- ----- --- ------ ----- --<br>----- ----- ---------- --- --- ------ ------ ---- -- ------<br>------- --- ------ ----- --- ---- ------- -- easy --- --<br>------- ------,190567.5849999534,190563.7599999318,190164.475,190174.06999995,190181.148,190581.3,,51,easy
screen,html.Screen,1_1_1_1_52,2021-04-22T15:25:10.571Z,,,,,,,,,,,,,,,,54,,,,,,,,,,,,,,378.48499995545717,,response,,,,100,,,,,,,Space,keypress(Space),,,,,,,,-- --- ---- --- ------ ----- ------- ---- -- --- ------- --<br>------- ---------- ------ -- ----- -- ----- -- ---- ------<br>--- ----- --- --- ------ -------- ----- --- ------ ----- --<br>----- ----- ---------- --- --- ------ ------ ---- -- ------<br>------- --- ------ ----- --- ---- ------- -- ---- way --<br>------- ------,190963.63499993458,190959.78499995545,190564.627,190567.74500000756,190581.3,190964.779,,52,way
screen,html.Screen,1_1_1_1_53,2021-04-22T15:25:11.184Z,,,,,,,,,,,,,,,,54,,,,,,,,,,,,,,593.7759999959671,,response,,,,100,,,,,,,Space,keypress(Space),,,,,,,,-- --- ---- --- ------ ----- ------- ---- -- --- ------- --<br>------- ---------- ------ -- ----- -- ----- -- ---- ------<br>--- ----- --- --- ------ -------- ----- --- ------ ----- --<br>----- ----- ---------- --- --- ------ ------ ---- -- ------<br>------- --- ------ ----- --- ---- ------- -- ---- --- of<br>------- ------,191576.90499990713,191558.55499999598,190948.106,190963.7999999104,190964.779,191581.68,,53,of
screen,html.Screen,1_1_1_1_54,2021-04-22T15:25:11.860Z,,,,,,,,,,,,,,,,54,,,,,,,,,,,,,,668.0349999253522,,response,,,,100,,,,,,,Space,keypress(Space),,,,,,,,-- --- ---- --- ------ ----- ------- ---- -- --- ------- --<br>------- ---------- ------ -- ----- -- ----- -- ---- ------<br>--- ----- --- --- ------ -------- ----- --- ------ ----- --<br>----- ----- ---------- --- --- ------ ------ ---- -- ------<br>------- --- ------ ----- --- ---- ------- -- ---- --- --<br>raising ------,192253.40499996673,192249.71499992535,191565.007,191576.999999932,191581.68,192265.273,,54,raising
screen,html.Screen,1_1_1_1_55,2021-04-22T15:25:12.602Z,,,,,,,,,,,,,,,,54,,,,,,,,,,,,,,725.4320000038133,,response,,,,100,,,,,,,Space,keypress(Space),,,,,,,,-- --- ---- --- ------ ----- ------- ---- -- --- ------- --<br>------- ---------- ------ -- ----- -- ----- -- ---- ------<br>--- ----- --- --- ------ -------- ----- --- ------ ----- --<br>----- ----- ---------- --- --- ------ ------ ---- -- ------<br>------- --- ------ ----- --- ---- ------- -- ---- --- --<br>------- money.,192995.08999998216,192990.7050000038,192248.6,192253.56499990448,192265.273,192998.885,,55,money.
Item 100,flow.Loop,1_1_1_1,2021-04-22T15:25:12.602Z,,,,,,,,,,,,,,,,,,,,,,,,,,,,,,34641.76300000379,,completion,,,,,E,,,,,,,,,,,silence,,,,,192995.46999996528,192990.7050000038,158332.269,158334.64499993715,158348.942,192998.885,,,
Question 1,html.Screen,1_1_1_2,2021-04-22T15:25:16.748Z,,,,,,,,,,,,,,,,,,,,,,,,,,,true,TRUE,,4139.699999949662,,response,,,,100,E,,,,,,TRUE,click #choice-1,,,,silence,,,,,197141.32499997504,197138.58499994967,192982.212,192995.59999990743,192998.885,197151.799,,,
Question 2,html.Screen,1_1_1_3,2021-04-22T15:25:19.114Z,,,,,,,,,,,,,,,,,,,,,,,,,,,true,FALSE,,2353.390999938012,,response,,,,100,E,,,,,,FALSE,click #choice-2,,,,silence,,,,,199506.93499995396,199505.189999938,197135.126,197141.49499998894,197151.799,199519.365,,,
Item 100,flow.Sequence,1_1_1,2021-04-22T15:25:19.114Z,,,,,,,,,,,,,,,,,,,,,,,,,,,,,,51159.62499993801,,completion,,,,,,,,,,,,,,,,,,,,,199507.0799998939,199505.189999938,148328.892,148341.30999993067,148345.565,199519.365,,,
End of Practice,html.Page,1_1_2,2021-04-22T15:25:39.119Z,,,,,,,,,,,,,,,,,,,,,,,,,,,,,,20006.818,,timeout,,,,,,,,,,,,,,,,,,,,,219512.23999995273,219509.51,199502.692,199507.15499999933,199519.365,219526.183,,,
Practice,flow.Sequence,1_1,2021-04-22T15:25:39.119Z,,,,,,,,,,,,,,,,,,,,,,,,,,,,,,115368.005,,completion,,,,,,,,,,,,,,,,,,,,,219512.55499990657,219509.51,104124.832,104132.15499999933,104141.505,219526.183,,,
Trap_instruction,html.Page,1_2_0,2021-04-22T15:25:59.127Z,,,,,,,,,,,,,,,,,,,,,,,,,,,,,,20007.600000000006,,timeout,,,,,,,,,,,,,,,,,,,,,239519.61499999743,239517.11,219509.51,219512.74499995634,219526.183,239533.783,,,
trap_trial,html.Screen,1_2_1,2021-04-22T15:26:08.168Z,,,,,,,,,,,,,,,,,,,,,,,,,,,true,1,,9025.566999995906,,response,,,,,,,,,,,1,click #choice-1,,,,,,,,,248561.29499990493,248559.3499999959,239517.11,239519.864999922,239533.783,248572.806,,,
end of trap trial,html.Page,1_2_2,2021-04-22T15:26:18.164Z,,,,,,,,,,,,,,,,,,,,,,,,,,,,,,9999.822999999975,,timeout,,,,,,,,,,,,,,,,,,,,,258557.46999999974,258555.956,248556.133,248561.4099999657,248572.806,258572.629,,,
Trap 1,flow.Sequence,1_2,2021-04-22T15:26:18.165Z,,,,,,,,,,,,,,,,,,,,,,,,,,,,,,39029.773000000016,,completion,,,,,,,,,,,,,,,,,,,,,258557.63499997556,258555.956,219509.51,219512.68499996513,219526.183,258572.629,,,
Standby,html.Page,1_3_0,2021-04-22T15:26:26.167Z,,,,,,,,,,,,,,,,,,,,,,,,,,,,,,8003.040000000008,,timeout,,,,,,,,,,,,,,,,,,,,,266560.15499995556,266558.996,258555.956,258557.75499995798,258572.629,266575.669,,,
Holding screen,html.Screen,1_3_1_0_0,2021-04-22T15:26:33.171Z,,,,,,,,,,,,,,,,,,,,,,,,,,,,,,7002.640000000014,,timeout,,,,,,,,,,,,,,,,,,,,,273563.70499997865,273561.636,266558.996,266560.32499996945,266575.669,273578.309,,,
screen,html.Screen,1_3_1_0_1_0,2021-04-22T15:26:33.869Z,,,,,,,,,,,,,,,,15,,,,,,,,,,,,,,680.9509999625152,,response,,,,7,E,,,,,,Space,keypress(Space),,,,lyrical,,,,Greg --------- ---------- - --- ------- -- --- ------------<br>----- -- -------- ------- ---- ------ - -------- ---- -----<br>--- ------- ---- -- --- -------- --- - ----- ------ ---- --<br>-------- --- -------- -------- --- -------- ---- -- ----- -<br>-------- ---- --- ---------- --------- -- ------- ------ -<br>--------- ----- -----,274262.5349999871,274259.2599999625,273561.636,273563.894999912,273578.309,274278.575,,0,Greg
screen,html.Screen,1_3_1_0_1_1,2021-04-22T15:26:34.246Z,,,,,,,,,,,,,,,,15,,,,,,,,,,,,,,357.6999999388936,,response,,,,7,E,,,,,,Space,keypress(Space),,,,lyrical,,,,"---- Anderson, ---------- - --- ------- -- --- ------------<br>----- -- -------- ------- ---- ------ - -------- ---- -----<br>--- ------- ---- -- --- -------- --- - ----- ------ ---- --<br>-------- --- -------- -------- --- -------- ---- -- ----- -<br>-------- ---- --- ---------- --------- -- ------- ------ -<br>--------- ----- -----",274638.81999999285,274636.2749999389,274261.902,274262.6600000076,274278.575,274645.381,,1,"Anderson,"
screen,html.Screen,1_3_1_0_1_2,2021-04-22T15:26:34.813Z,,,,,,,,,,,,,,,,15,,,,,,,,,,,,,,558.7789999647648,,response,,,,7,E,,,,,,Space,keypress(Space),,,,lyrical,,,,---- --------- considered - --- ------- -- --- ------------<br>----- -- -------- ------- ---- ------ - -------- ---- -----<br>--- ------- ---- -- --- -------- --- - ----- ------ ---- --<br>-------- --- -------- -------- --- -------- ---- -- ----- -<br>-------- ---- --- ---------- --------- -- ------- ------ -<br>--------- ----- -----,275206.57499996014,275204.15999996476,274628.708,274638.9299998991,274645.381,275212.263,,2,considered
screen,html.Screen,1_3_1_0_1_3,2021-04-22T15:26:35.210Z,,,,,,,,,,,,,,,,15,,,,,,,,,,,,,,388.01199997524964,,response,,,,7,E,,,,,,Space,keypress(Space),,,,lyrical,,,,---- --------- ---------- a --- ------- -- --- ------------<br>----- -- -------- ------- ---- ------ - -------- ---- -----<br>--- ------- ---- -- --- -------- --- - ----- ------ ---- --<br>-------- --- -------- -------- --- -------- ---- -- ----- -<br>-------- ---- --- ---------- --------- -- ------- ------ -<br>--------- ----- -----,275602.8599999845,275600.2749999752,275195.59,275206.67999994475,275212.263,275612.415,,3,a
screen,html.Screen,1_3_1_0_1_4,2021-04-22T15:26:35.746Z,,,,,,,,,,,,,,,,15,,,,,,,,,,,,,,523.7549999543116,,response,,,,7,E,,,,,,Space,keypress(Space),,,,lyrical,,,,---- --------- ---------- - key ------- -- --- ------------<br>----- -- -------- ------- ---- ------ - -------- ---- -----<br>--- ------- ---- -- --- -------- --- - ----- ------ ---- --<br>-------- --- -------- -------- --- -------- ---- -- ----- -<br>-------- ---- --- ---------- --------- -- ------- ------ -<br>--------- ----- -----,276139.30999999866,276136.1699999543,275595.742,275602.9649999691,275612.415,276145.951,,4,key
screen,html.Screen,1_3_1_0_1_5,2021-04-22T15:26:36.134Z,,,,,,,,,,,,,,,,15,,,,,,,,,,,,,,379.13399997202214,,response,,,,7,E,,,,,,Space,keypress(Space),,,,lyrical,,,,---- --------- ---------- - --- witness -- --- ------------<br>----- -- -------- ------- ---- ------ - -------- ---- -----<br>--- ------- ---- -- --- -------- --- - ----- ------ ---- --<br>-------- --- -------- -------- --- -------- ---- -- ----- -<br>-------- ---- --- ---------- --------- -- ------- ------ -<br>--------- ----- -----,276527.56999991834,276525.084999972,276129.278,276139.41999990493,276145.951,276529.43,,5,witness
screen,html.Screen,1_3_1_0_1_6,2021-04-22T15:26:36.608Z,,,,,,,,,,,,,,,,15,,,,,,,,,,,,,,468.6600000082399,,response,,,,7,E,,,,,,Space,keypress(Space),,,,lyrical,,,,---- --------- ---------- - --- ------- by --- ------------<br>----- -- -------- ------- ---- ------ - -------- ---- -----<br>--- ------- ---- -- --- -------- --- - ----- ------ ---- --<br>-------- --- -------- -------- --- -------- ---- -- ----- -<br>-------- ---- --- ---------- --------- -- ------- ------ -<br>--------- ----- -----,277000.9349999018,276998.09000000823,276512.757,276527.67499990296,276529.43,277012.947,,6,by
screen,html.Screen,1_3_1_0_1_7,2021-04-22T15:26:37.092Z,,,,,,,,,,,,,,,,15,,,,,,,,,,,,,,469.1229999109055,,response,,,,7,E,,,,,,Space,keypress(Space),,,,lyrical,,,,---- --------- ---------- - --- ------- -- the ------------<br>----- -- -------- ------- ---- ------ - -------- ---- -----<br>--- ------- ---- -- --- -------- --- - ----- ------ ---- --<br>-------- --- -------- -------- --- -------- ---- -- ----- -<br>-------- ---- --- ---------- --------- -- ------- ------ -<br>--------- ----- -----,277484.76499994285,277482.0699999109,276996.274,277001.03499996476,277012.947,277496.464,,7,the
screen,html.Screen,1_3_1_0_1_8,2021-04-22T15:26:38.442Z,,,,,,,,,,,,,,,,15,,,,,,,,,,,,,,1335.715999910317,,response,,,,7,E,,,,,,Space,keypress(Space),,,,lyrical,,,,"---- --------- ---------- - --- ------- -- --- prosecution,<br>----- -- -------- ------- ---- ------ - -------- ---- -----<br>--- ------- ---- -- --- -------- --- - ----- ------ ---- --<br>-------- --- -------- -------- --- -------- ---- -- ----- -<br>-------- ---- --- ---------- --------- -- ------- ------ -<br>--------- ----- -----",278834.9449998932,278832.1799999103,277479.791,277484.87499996554,277496.464,278848.237,,8,"prosecution,"
screen,html.Screen,1_3_1_0_1_9,2021-04-22T15:26:38.899Z,,,,,,,,,,,,,,,,15,,,,,,,,,,,,,,441.02299999044044,,response,,,,7,E,,,,,,Space,keypress(Space),,,,lyrical,,,,---- --------- ---------- - --- ------- -- --- ------------<br>vowed -- -------- ------- ---- ------ - -------- ---- -----<br>--- ------- ---- -- --- -------- --- - ----- ------ ---- --<br>-------- --- -------- -------- --- -------- ---- -- ----- -<br>-------- ---- --- ---------- --------- -- ------- ------ -<br>--------- ----- -----,279292.11999999825,279289.25999999046,278831.564,278835.0499999942,278848.237,279298.408,,9,vowed
screen,html.Screen,1_3_1_0_1_10,2021-04-22T15:26:39.653Z,,,,,,,,,,,,,,,,15,,,,,,,,,,,,,,744.8069999542204,,response,,,,7,E,,,,,,Space,keypress(Space),,,,lyrical,,,,---- --------- ---------- - --- ------- -- --- ------------<br>----- he -------- ------- ---- ------ - -------- ---- -----<br>--- ------- ---- -- --- -------- --- - ----- ------ ---- --<br>-------- --- -------- -------- --- -------- ---- -- ----- -<br>-------- ---- --- ---------- --------- -- ------- ------ -<br>--------- ----- -----,280046.0149999708,280043.2149999542,279281.735,279292.2299999045,279298.408,280048.693,,10,he
screen,html.Screen,1_3_1_0_1_11,2021-04-22T15:26:40.159Z,,,,,,,,,,,,,,,,15,,,,,,,,,,,,,,500.5019999704673,,response,,,,7,E,,,,,,Space,keypress(Space),,,,lyrical,,,,---- --------- ---------- - --- ------- -- --- ------------<br>----- -- wouldn't ------- ---- ------ - -------- ---- -----<br>--- ------- ---- -- --- -------- --- - ----- ------ ---- --<br>-------- --- -------- -------- --- -------- ---- -- ----- -<br>-------- ---- --- ---------- --------- -- ------- ------ -<br>--------- ----- -----,280552.15000000317,280549.1949999705,280032.02,280046.11499991734,280048.693,280565.556,,11,wouldn't
screen,html.Screen,1_3_1_0_1_12,2021-04-22T15:26:41.559Z,,,,,,,,,,,,,,,,15,,,,,,,,,,,,,,1383.7489999000682,,response,,,,7,E,,,,,,Space,keypress(Space),,,,lyrical,,,,---- --------- ---------- - --- ------- -- --- ------------<br>----- -- -------- testify ---- ------ - -------- ---- -----<br>--- ------- ---- -- --- -------- --- - ----- ------ ---- --<br>-------- --- -------- -------- --- -------- ---- -- ----- -<br>-------- ---- --- ---------- --------- -- ------- ------ -<br>--------- ----- -----,281951.924999943,281949.30499990005,280548.883,280552.25999990944,280565.556,281966.088,,12,testify
screen,html.Screen,1_3_1_0_1_13,2021-04-22T15:26:41.980Z,,,,,,,,,,,,,,,,15,,,,,,,,,,,,,,404.0820000092499,,response,,,,7,E,,,,,,Space,keypress(Space),,,,lyrical,,,,---- --------- ---------- - --- ------- -- --- ------------<br>----- -- -------- ------- when ------ - -------- ---- -----<br>--- ------- ---- -- --- -------- --- - ----- ------ ---- --<br>-------- --- -------- -------- --- -------- ---- -- ----- -<br>-------- ---- --- ---------- --------- -- ------- ------ -<br>--------- ----- -----,282373.13500000164,282370.17000000924,281949.415,281952.0349999657,281966.088,282382.913,,13,when
screen,html.Screen,1_3_1_0_1_14,2021-04-22T15:26:42.342Z,,,,,,,,,,,,,,,,15,,,,,,,,,,,,,,348.2520000046934,,response,,,,7,E,,,,,,Space,keypress(Space),,,,lyrical,,,,---- --------- ---------- - --- ------- -- --- ------------<br>----- -- -------- ------- ---- served - -------- ---- -----<br>--- ------- ---- -- --- -------- --- - ----- ------ ---- --<br>-------- --- -------- -------- --- -------- ---- -- ----- -<br>-------- ---- --- ---------- --------- -- ------- ------ -<br>--------- ----- -----,282734.6649999963,282731.1650000047,282366.24,282373.2649999438,282382.913,282749.719,,14,served
screen,html.Screen,1_3_1_0_1_15,2021-04-22T15:26:42.754Z,,,,,,,,,,,,,,,,15,,,,,,,,,,,,,,394.430999949167,,response,,,,7,E,,,,,,Space,keypress(Space),,,,lyrical,,,,---- --------- ---------- - --- ------- -- --- ------------<br>----- -- -------- ------- ---- ------ a -------- ---- -----<br>--- ------- ---- -- --- -------- --- - ----- ------ ---- --<br>-------- --- -------- -------- --- -------- ---- -- ----- -<br>-------- ---- --- ---------- --------- -- ------- ------ -<br>--------- ----- -----,283146.9049999723,283144.14999994915,282733.046,282734.7899999004,282749.719,283149.871,,15,a
screen,html.Screen,1_3_1_0_1_16,2021-04-22T15:26:44.148Z,,,,,,,,,,,,,,,,15,,,,,,,,,,,,,,1388.3239999137004,,response,,,,7,E,,,,,,Space,keypress(Space),,,,lyrical,,,,---- --------- ---------- - --- ------- -- --- ------------<br>----- -- -------- ------- ---- ------ - subpoena ---- -----<br>--- ------- ---- -- --- -------- --- - ----- ------ ---- --<br>-------- --- -------- -------- --- -------- ---- -- ----- -<br>-------- ---- --- ---------- --------- -- ------- ------ -<br>--------- ----- -----,284541.1299999105,284538.1949999137,283133.198,283147.00999995694,283149.871,284550.403,,16,subpoena
screen,html.Screen,1_3_1_0_1_17,2021-04-22T15:26:44.567Z,,,,,,,,,,,,,,,,15,,,,,,,,,,,,,,405.61200000339886,,response,,,,7,E,,,,,,Space,keypress(Space),,,,lyrical,,,,---- --------- ---------- - --- ------- -- --- ------------<br>----- -- -------- ------- ---- ------ - -------- last -----<br>--- ------- ---- -- --- -------- --- - ----- ------ ---- --<br>-------- --- -------- -------- --- -------- ---- -- ----- -<br>-------- ---- --- ---------- --------- -- ------- ------ -<br>--------- ----- -----,284960.3949999437,284956.0150000034,284533.73,284541.2499998929,284550.403,284967.228,,17,last
screen,html.Screen,1_3_1_0_1_18,2021-04-22T15:26:44.895Z,,,,,,,,,,,,,,,,15,,,,,,,,,,,,,,317.8669999410631,,response,,,,7,E,,,,,,Space,keypress(Space),,,,lyrical,,,,---- --------- ---------- - --- ------- -- --- ------------<br>----- -- -------- ------- ---- ------ - -------- ---- week.<br>--- ------- ---- -- --- -------- --- - ----- ------ ---- --<br>-------- --- -------- -------- --- -------- ---- -- ----- -<br>-------- ---- --- ---------- --------- -- ------- ------ -<br>--------- ----- -----,285288.22999994736,285285.09499994107,284950.555,284960.62999998685,284967.228,285300.688,,18,week.
screen,html.Screen,1_3_1_0_1_19,2021-04-22T15:26:45.286Z,,,,,,,,,,,,,,,,15,,,,,,,,,,,,,,375.4719999153749,,response,,,,7,E,,,,,,Space,keypress(Space),,,,lyrical,,,,---- --------- ---------- - --- ------- -- --- ------------<br>----- -- -------- ------- ---- ------ - -------- ---- -----<br>His ------- ---- -- --- -------- --- - ----- ------ ---- --<br>-------- --- -------- -------- --- -------- ---- -- ----- -<br>-------- ---- --- ---------- --------- -- ------- ------ -<br>--------- ----- -----,285678.7599999225,285676.1599999154,285284.015,285288.334999932,285300.688,285684.167,,19,His
screen,html.Screen,1_3_1_0_1_20,2021-04-22T15:26:45.730Z,,,,,,,,,,,,,,,,15,,,,,,,,,,,,,,435.91799994406756,,response,,,,7,E,,,,,,Space,keypress(Space),,,,lyrical,,,,---- --------- ---------- - --- ------- -- --- ------------<br>----- -- -------- ------- ---- ------ - -------- ---- -----<br>--- lawyers ---- -- --- -------- --- - ----- ------ ---- --<br>-------- --- -------- -------- --- -------- ---- -- ----- -<br>-------- ---- --- ---------- --------- -- ------- ------ -<br>--------- ----- -----,286122.88499996066,286120.0849999441,285667.494,285678.96499997005,285684.167,286134.338,,20,lawyers
screen,html.Screen,1_3_1_0_1_21,2021-04-22T15:26:46.151Z,,,,,,,,,,,,,,,,15,,,,,,,,,,,,,,407.68699997337535,,response,,,,7,E,,,,,,Space,keypress(Space),,,,lyrical,,,,---- --------- ---------- - --- ------- -- --- ------------<br>----- -- -------- ------- ---- ------ - -------- ---- -----<br>--- ------- said -- --- -------- --- - ----- ------ ---- --<br>-------- --- -------- -------- --- -------- ---- -- ----- -<br>-------- ---- --- ---------- --------- -- ------- ------ -<br>--------- ----- -----,286544.5199999958,286542.02499997336,286117.665,286122.99499998335,286134.338,286551.163,,21,said
screen,html.Screen,1_3_1_0_1_22,2021-04-22T15:26:46.521Z,,,,,,,,,,,,,,,,15,,,,,,,,,,,,,,359.89699995488627,,response,,,,7,E,,,,,,Space,keypress(Space),,,,lyrical,,,,---- --------- ---------- - --- ------- -- --- ------------<br>----- -- -------- ------- ---- ------ - -------- ---- -----<br>--- ------- ---- he --- -------- --- - ----- ------ ---- --<br>-------- --- -------- -------- --- -------- ---- -- ----- -<br>-------- ---- --- ---------- --------- -- ------- ------ -<br>--------- ----- -----,286914.2499999143,286911.0599999549,286534.49,286544.62499998044,286551.163,286917.969,,22,he
screen,html.Screen,1_3_1_0_1_23,2021-04-22T15:26:46.844Z,,,,,,,,,,,,,,,,15,,,,,,,,,,,,,,316.0860000081011,,response,,,,7,E,,,,,,Space,keypress(Space),,,,lyrical,,,,---- --------- ---------- - --- ------- -- --- ------------<br>----- -- -------- ------- ---- ------ - -------- ---- -----<br>--- ------- ---- -- was -------- --- - ----- ------ ---- --<br>-------- --- -------- -------- --- -------- ---- -- ----- -<br>-------- ---- --- ---------- --------- -- ------- ------ -<br>--------- ----- -----,287236.8349999888,287234.0550000081,286901.296,286914.35499989893,286917.969,287251.429,,23,was
screen,html.Screen,1_3_1_0_1_24,2021-04-22T15:26:47.202Z,,,,,,,,,,,,,,,,15,,,,,,,,,,,,,,341.570999993477,,response,,,,7,E,,,,,,Space,keypress(Space),,,,lyrical,,,,---- --------- ---------- - --- ------- -- --- ------------<br>----- -- -------- ------- ---- ------ - -------- ---- -----<br>--- ------- ---- -- --- prepared --- - ----- ------ ---- --<br>-------- --- -------- -------- --- -------- ---- -- ----- -<br>-------- ---- --- ---------- --------- -- ------- ------ -<br>--------- ----- -----,287595.5899999244,287592.9999999935,287234.756,287237.2650000034,287251.429,287601.562,,24,prepared
screen,html.Screen,1_3_1_0_1_25,2021-04-22T15:26:47.576Z,,,,,,,,,,,,,,,,15,,,,,,,,,,,,,,343.48299994220724,,response,,,,7,E,,,,,,Space,keypress(Space),,,,lyrical,,,,---- --------- ---------- - --- ------- -- --- ------------<br>----- -- -------- ------- ---- ------ - -------- ---- -----<br>--- ------- ---- -- --- -------- for - ----- ------ ---- --<br>-------- --- -------- -------- --- -------- ---- -- ----- -<br>-------- ---- --- ---------- --------- -- ------- ------ -<br>--------- ----- -----,287969.27999996115,287945.0449999422,287584.889,287595.694999909,287601.562,287986.081,,25,for
screen,html.Screen,1_3_1_0_1_26,2021-04-22T15:26:47.862Z,,,,,,,,,,,,,,,,15,,,,,,,,,,,,,,266.00899996538647,,response,,,,7,E,,,,,,Space,keypress(Space),,,,lyrical,,,,---- --------- ---------- - --- ------- -- --- ------------<br>----- -- -------- ------- ---- ------ - -------- ---- -----<br>--- ------- ---- -- --- -------- --- a ----- ------ ---- --<br>-------- --- -------- -------- --- -------- ---- -- ----- -<br>-------- ---- --- ---------- --------- -- ------- ------ -<br>--------- ----- -----,288255.3599999519,288252.0899999654,287969.408,287969.38999998383,287986.081,288269.522,,26,a
screen,html.Screen,1_3_1_0_1_27,2021-04-22T15:26:48.135Z,,,,,,,,,,,,,,,,15,,,,,,,,,,,,,,255.54299993615132,,response,,,,7,E,,,,,,Space,keypress(Space),,,,lyrical,,,,---- --------- ---------- - --- ------- -- --- ------------<br>----- -- -------- ------- ---- ------ - -------- ---- -----<br>--- ------- ---- -- --- -------- --- - third ------ ---- --<br>-------- --- -------- -------- --- -------- ---- -- ----- -<br>-------- ---- --- ---------- --------- -- ------- ------ -<br>--------- ----- -----,288528.05999992415,288525.06499993615,288252.849,288255.4649999365,288269.522,288536.29,,27,third
screen,html.Screen,1_3_1_0_1_28,2021-04-22T15:26:48.474Z,,,,,,,,,,,,,,,,15,,,,,,,,,,,,,,328.70499995263526,,response,,,,7,E,,,,,,Space,keypress(Space),,,,lyrical,,,,---- --------- ---------- - --- ------- -- --- ------------<br>----- -- -------- ------- ---- ------ - -------- ---- -----<br>--- ------- ---- -- --- -------- --- - ----- prison ---- --<br>-------- --- -------- -------- --- -------- ---- -- ----- -<br>-------- ---- --- ---------- --------- -- ------- ------ -<br>--------- ----- -----,288867.62999999337,288864.9949999526,288519.617,288528.1749999849,288536.29,288869.75,,28,prison
screen,html.Screen,1_3_1_0_1_29,2021-04-22T15:26:48.826Z,,,,,,,,,,,,,,,,15,,,,,,,,,,,,,,347.3699999283999,,response,,,,7,E,,,,,,Space,keypress(Space),,,,lyrical,,,,---- --------- ---------- - --- ------- -- --- ------------<br>----- -- -------- ------- ---- ------ - -------- ---- -----<br>--- ------- ---- -- --- -------- --- - ----- ------ stay --<br>-------- --- -------- -------- --- -------- ---- -- ----- -<br>-------- ---- --- ---------- --------- -- ------- ------ -<br>--------- ----- -----,289219.6099999128,289217.1199999284,288853.077,288867.734999978,288869.75,289236.556,,29,stay
screen,html.Screen,1_3_1_0_1_30,2021-04-22T15:26:49.240Z,,,,,,,,,,,,,,,,15,,,,,,,,,,,,,,394.4139999401523,,response,,,,7,E,,,,,,Space,keypress(Space),,,,lyrical,,,,---- --------- ---------- - --- ------- -- --- ------------<br>----- -- -------- ------- ---- ------ - -------- ---- -----<br>--- ------- ---- -- --- -------- --- - ----- ------ ---- to<br>-------- --- -------- -------- --- -------- ---- -- ----- -<br>-------- ---- --- ---------- --------- -- ------- ------ -<br>--------- ----- -----,289633.5299999919,289630.96999994013,289219.883,289219.7199999355,289236.556,289636.708,,30,to
screen,html.Screen,1_3_1_0_1_31,2021-04-22T15:26:49.653Z,,,,,,,,,,,,,,,,15,,,,,,,,,,,,,,406.28199998720083,,response,,,,7,E,,,,,,Space,keypress(Space),,,,lyrical,,,,---- --------- ---------- - --- ------- -- --- ------------<br>----- -- -------- ------- ---- ------ - -------- ---- -----<br>--- ------- ---- -- --- -------- --- - ----- ------ ---- --<br>maintain --- -------- -------- --- -------- ---- -- ----- -<br>-------- ---- --- ---------- --------- -- ------- ------ -<br>--------- ----- -----,290045.6499999855,290042.9899999872,289620.035,289633.6449999362,289636.708,290053.533,,31,maintain
screen,html.Screen,1_3_1_0_1_32,2021-04-22T15:26:49.976Z,,,,,,,,,,,,,,,,15,,,,,,,,,,,,,,312.6019999019918,,response,,,,7,E,,,,,,Space,keypress(Space),,,,lyrical,,,,---- --------- ---------- - --- ------- -- --- ------------<br>----- -- -------- ------- ---- ------ - -------- ---- -----<br>--- ------- ---- -- --- -------- --- - ----- ------ ---- --<br>-------- his -------- -------- --- -------- ---- -- ----- -<br>-------- ---- --- ---------- --------- -- ------- ------ -<br>--------- ----- -----,290368.67999995593,290366.134999902,290036.86,290045.76000000816,290053.533,290370.32,,32,his
screen,html.Screen,1_3_1_0_1_33,2021-04-22T15:26:50.418Z,,,,,,,,,,,,,,,,15,,,,,,,,,,,,,,438.6199999007513,,response,,,,7,E,,,,,,Space,keypress(Space),,,,lyrical,,,,---- --------- ---------- - --- ------- -- --- ------------<br>----- -- -------- ------- ---- ------ - -------- ---- -----<br>--- ------- ---- -- --- -------- --- - ----- ------ ---- --<br>-------- --- silence. -------- --- -------- ---- -- ----- -<br>-------- ---- --- ---------- --------- -- ------- ------ -<br>--------- ----- -----,290811.4399999613,290808.93999990076,290353.647,290368.7899999786,290370.32,290820.491,,33,silence.
screen,html.Screen,1_3_1_0_1_34,2021-04-22T15:26:50.903Z,,,,,,,,,,,,,,,,15,,,,,,,,,,,,,,472.48399998940295,,response,,,,7,E,,,,,,Space,keypress(Space),,,,lyrical,,,,---- --------- ---------- - --- ------- -- --- ------------<br>----- -- -------- ------- ---- ------ - -------- ---- -----<br>--- ------- ---- -- --- -------- --- - ----- ------ ---- --<br>-------- --- -------- Anderson --- -------- ---- -- ----- -<br>-------- ---- --- ---------- --------- -- ------- ------ -<br>--------- ----- -----,291295.83499999717,291292.9749999894,290803.818,290811.5599999437,290820.491,291304.008,,34,Anderson
screen,html.Screen,1_3_1_0_1_35,2021-04-22T15:26:51.241Z,,,,,,,,,,,,,,,,15,,,,,,,,,,,,,,328.0769999320037,,response,,,,7,E,,,,,,Space,keypress(Space),,,,lyrical,,,,---- --------- ---------- - --- ------- -- --- ------------<br>----- -- -------- ------- ---- ------ - -------- ---- -----<br>--- ------- ---- -- --- -------- --- - ----- ------ ---- --<br>-------- --- -------- -------- was -------- ---- -- ----- -<br>-------- ---- --- ---------- --------- -- ------- ------ -<br>--------- ----- -----,291634.52999992296,291632.084999932,291287.335,291295.9399999818,291304.008,291637.468,,35,was
screen,html.Screen,1_3_1_0_1_36,2021-04-22T15:26:51.583Z,,,,,,,,,,,,,,,,15,,,,,,,,,,,,,,336.69699990504887,,response,,,,7,E,,,,,,Space,keypress(Space),,,,lyrical,,,,---- --------- ---------- - --- ------- -- --- ------------<br>----- -- -------- ------- ---- ------ - -------- ---- -----<br>--- ------- ---- -- --- -------- --- - ----- ------ ---- --<br>-------- --- -------- -------- --- released ---- -- ----- -<br>-------- ---- --- ---------- --------- -- ------- ------ -<br>--------- ----- -----,291976.5549999429,291974.16499990504,291620.795,291634.6449999837,291637.468,291987.601,,36,released
screen,html.Screen,1_3_1_0_1_37,2021-04-22T15:26:51.937Z,,,,,,,,,,,,,,,,15,,,,,,,,,,,,,,339.1689999268856,,response,,,,7,E,,,,,,Space,keypress(Space),,,,lyrical,,,,---- --------- ---------- - --- ------- -- --- ------------<br>----- -- -------- ------- ---- ------ - -------- ---- -----<br>--- ------- ---- -- --- -------- --- - ----- ------ ---- --<br>-------- --- -------- -------- --- -------- July -- ----- -<br>-------- ---- --- ---------- --------- -- ------- ------ -<br>--------- ----- -----,292330.2399999229,292326.7699999269,291970.928,291976.6599999275,291987.601,292337.734,,37,July
screen,html.Screen,1_3_1_0_1_38,2021-04-22T15:26:52.346Z,,,,,,,,,,,,,,,,15,,,,,,,,,,,,,,399.1659999016556,,response,,,,7,E,,,,,,Space,keypress(Space),,,,lyrical,,,,---- --------- ---------- - --- ------- -- --- ------------<br>----- -- -------- ------- ---- ------ - -------- ---- -----<br>--- ------- ---- -- --- -------- --- - ----- ------ ---- --<br>-------- --- -------- -------- --- -------- ---- 20 ----- -<br>-------- ---- --- ---------- --------- -- ------- ------ -<br>--------- ----- -----,292739.62000000756,292736.89999990165,292321.061,292330.3499999456,292337.734,292754.559,,38,20
screen,html.Screen,1_3_1_0_1_39,2021-04-22T15:26:52.732Z,,,,,,,,,,,,,,,,15,,,,,,,,,,,,,,367.20599993073847,,response,,,,7,E,,,,,,Space,keypress(Space),,,,lyrical,,,,---- --------- ---------- - --- ------- -- --- ------------<br>----- -- -------- ------- ---- ------ - -------- ---- -----<br>--- ------- ---- -- --- -------- --- - ----- ------ ---- --<br>-------- --- -------- -------- --- -------- ---- -- after -<br>-------- ---- --- ---------- --------- -- ------- ------ -<br>--------- ----- -----,293125.50999992527,293121.76499993075,292737.886,292739.72999991383,292754.559,293138.038,,39,after
