sender,sender_type,sender_id,timestamp,meta,,Blues,Classical,Country,Dance,Electronic,Folk,Gospel,Hip-Hop,Jazz,Latin,Musical/Film,New-age,Pop,Provo_ID,R&B,Rap,Reggae,Religious,Rock,Soul,Swing,Traditional,age,artist_name,correct,correctResponse,distraction,duration,education,ended_on,familiarity,gender,headphone_check_performance,item,list,music_frequency,offensiveness,pleasantness,position_correct,preference,response,response_action,snippet_file,song_name,song_rating,sound,stimulus_1,stimulus_2,stimulus_3,text,time_commit,time_end,time_render,time_run,time_show,time_switch,url,word,word_ID
Introduction,html.Screen,0_0,2021-04-22T14:49:03.989Z,"{""labjs_version"":""20.2.2"",""labjs_build"":{""flavor"":""production"",""commit"":""a25486e0c714a0ae2ce03ff94b7bb6896854dcfa""},""location"":""https://run.pavlovia.org/mvasilev/music_e/"",""userAgent"":""Mozilla/5.0 (Windows NT 10.0; Win64; x64) AppleWebKit/537.36 (KHTML, like Gecko) Chrome/88.0.4324.104 Safari/537.36"",""platform"":""Win32"",""language"":""en-US"",""locale"":""en-US"",""timeZone"":""Europe/London"",""timezoneOffset"":-60,""screen_width"":1280,""screen_height"":720,""scroll_width"":1280,""scroll_height"":521,""window_innerWidth"":1280,""window_innerHeight"":521,""devicePixelRatio"":1.5}",,,,,,,,,,,,,,,,,,,,,,,,,,,,,12353.338000295937,,response,,,,,,,,,,,continue,click button,,,,,,,,,22813.075000420213,22811.010000295937,10390.828,10395.60000039637,10457.672,22822.762,{},,
Volume calibration,html.Screen,0_1,2021-04-22T14:49:22.223Z,,,,,,,,,,,,,,,,,,,,,,,,,,,,,,18221.108000168682,,response,,,,,,,,,,,continue,click button,,,,,,,,,41047.24000021815,41043.87000016868,22806.141,22813.5150000453,22822.762,41053.758,,,
Task instructions,html.Screen,0_2,2021-04-22T14:49:31.722Z,,,,,,,,,,,,,,,,,,,,,,,,,,,,,,9491.892000683962,,response,,,,,,,,,,,continue,click button,,,,,,,,,50546.62000015378,50545.65000068396,41037.115,41047.48999979347,41053.758,50552.531,,,
Sounds,html.Screen,0_3_0_0,2021-04-22T14:49:35.965Z,,,,,,,,,,,,,,,,,,,,,,,,,,,,,,4249.400999999998,,timeout,,,,,,,,,3,,,,,,,,O,I,S,,54789.25000037998,54785.294,50535.861,50546.990000642836,50552.531,54801.932,,,
Judgement,html.Screen,0_3_0_1,2021-04-22T14:49:38.028Z,,,,,,,,,,,,,,,,,,,,,,,,,,,true,3,,2048.4380001165264,,response,,,,,,,,,3,,3,click #choice-3,,,,,O,I,S,,56852.17500012368,56850.37000011653,54785.294,54789.49000034481,54801.932,56851.689,,,
Trial,flow.Sequence,0_3_0,2021-04-22T14:49:38.029Z,,,,,,,,,,,,,,,,,,,,,,,,,,,,,,6297.839000116524,,completion,,,,,,,,,3,,,,,,,,O,I,S,,56853.690000250936,56850.37000011653,50535.861,50546.88999988139,50552.531,56851.689,,,
Sounds,html.Screen,0_3_1_0,2021-04-22T14:49:42.261Z,,,,,,,,,,,,,,,,,,,,,,,,,,,,,,4249.445,,timeout,,,,,,,,,2,,,,,,,,I,S,O,,61085.25000046939,61084.498,56835.035,56854.179999791086,56851.689,61101.134,,,
Judgement,html.Screen,0_3_1_1,2021-04-22T14:49:43.412Z,,,,,,,,,,,,,,,,,,,,,,,,,,,true,2,,1134.1509999442715,,response,,,,,,,,,2,,2,click #choice-2,,,,,I,S,O,,62236.440000124276,62235.28499994427,61084.498,61085.43500024825,61101.134,62250.992,,,
Trial,flow.Sequence,0_3_1,2021-04-22T14:49:43.412Z,,,,,,,,,,,,,,,,,,,,,,,,,,,,,,5383.595999944271,,completion,,,,,,,,,2,,,,,,,,I,S,O,,62236.76500003785,62235.28499994427,56835.035,56854.050000198185,56851.689,62250.992,,,
Sounds,html.Screen,0_3_2_0,2021-04-22T14:49:47.660Z,,,,,,,,,,,,,,,,,,,,,,,,,,,,,,4249.472000000009,,timeout,,,,,,,,,3,,,,,,,,I,O,S,,66484.61499996483,66483.795,62234.416,62236.9950003922,62250.992,66500.464,,,
Judgement,html.Screen,0_3_2_1,2021-04-22T14:49:49.563Z,,,,,,,,,,,,,,,,,,,,,,,,,,,true,3,,1885.190999874525,,response,,,,,,,,,3,,3,click #choice-3,,,,,I,O,S,,68387.28500064462,68385.65499987453,66483.795,66484.78000052273,66500.464,68400.227,,,
Trial,flow.Sequence,0_3_2,2021-04-22T14:49:49.563Z,,,,,,,,,,,,,,,,,,,,,,,,,,,,,,6134.662999874534,,completion,,,,,,,,,3,,,,,,,,I,O,S,,68387.7400001511,68385.65499987453,62234.416,62236.92000005394,62250.992,68400.227,,,
Sounds,html.Screen,0_3_3_0,2021-04-22T14:49:53.809Z,,,,,,,,,,,,,,,,,,,,,,,,,,,,,,4249.4419999999955,,timeout,,,,,,,,,1,,,,,,,,S,O,I,,72633.87000001967,72633.03,68383.559,68388.09000048786,68400.227,72649.669,,,
Judgement,html.Screen,0_3_3_1,2021-04-22T14:49:56.094Z,,,,,,,,,,,,,,,,,,,,,,,,,,,true,1,,2267.8310004470404,,response,,,,,,,,,1,,1,click #choice-1,,,,,S,O,I,,74918.66500023752,74917.50000044703,72633.03,72634.03000030667,72649.669,74932.722,,,
Trial,flow.Sequence,0_3_3,2021-04-22T14:49:56.095Z,,,,,,,,,,,,,,,,,,,,,,,,,,,,,,6517.273000447036,,completion,,,,,,,,,1,,,,,,,,S,O,I,,74919.08000037074,74917.50000044703,68383.559,68387.97000050545,68400.227,74932.722,,,
Sounds,html.Screen,0_3_4_0,2021-04-22T14:50:00.342Z,,,,,,,,,,,,,,,,,,,,,,,,,,,,,,4249.442999999999,,timeout,,,,,,,,,1,,,,,,,,S,I,O,,79166.62999987602,79165.549,74916.039,74919.37000025064,74932.722,79182.165,,,
Judgement,html.Screen,0_3_4_1,2021-04-22T14:50:01.030Z,,,,,,,,,,,,,,,,,,,,,,,,,,,false,1,,670.8450006610219,,response,,,,,,,,,1,,3,click #choice-3,,,,,S,I,O,,79854.07500062138,79853.01000066102,79165.549,79166.80000070482,79182.165,79865.467,,,
Trial,flow.Sequence,0_3_4,2021-04-22T14:50:01.030Z,,,,,,,,,,,,,,,,,,,,,,,,,,,,,,4920.288000661021,,completion,,,,,,,,,1,,,,,,,,S,I,O,,79854.39500026405,79853.01000066102,74916.039,74919.2850003019,74932.722,79865.467,,,
Sounds,html.Screen,0_3_5_0,2021-04-22T14:50:05.275Z,,,,,,,,,,,,,,,,,,,,,,,,,,,,,,4249.370999999999,,timeout,,,,,,,,,2,,,,,,,,O,S,I,,84099.19500071555,84098.198,79848.758,79854.58000004292,79865.467,84114.838,,,
Judgement,html.Screen,0_3_5_1,2021-04-22T14:50:05.778Z,,,,,,,,,,,,,,,,,,,,,,,,,,,true,2,,486.6770006860461,,response,,,,,,,,,2,,2,click #choice-2,,,,,O,S,I,,84602.67500020564,84601.51500068605,84098.198,84099.36500061303,84114.838,84614.836,,,
Trial,flow.Sequence,0_3_5,2021-04-22T14:50:05.779Z,,,,,,,,,,,,,,,,,,,,,,,,,,,,,,4736.048000686045,,completion,,,,,,,,,2,,,,,,,,O,S,I,,84603.01000066102,84601.51500068605,79848.758,79854.53000012785,79865.467,84614.836,,,
Task,flow.Loop,0_3,2021-04-22T14:50:05.785Z,,,,,,,,,,,,,,,,,,,,,,,,,,,,,,34048.98400068605,,completion,,,0.8333333333333334,,,,,,,,,,,,,,,,,,84609.27500016987,84601.51500068605,50535.861,50546.81000020355,50552.531,84614.836,,,
Trap,html.Screen,0_4,2021-04-22T14:50:05.787Z,,,,,,,,,,,,,,,,,,,,,,,,,,,,,,NaN,,skipped,,,,,,,,,,,,,,,,,,,,,84611.29000037909,84601.51500068605,,84611.08999978751,,84614.836,,,
Thanks,html.Screen,0_5,2021-04-22T14:50:18.653Z,,,,,,,,,,,,,,,,,,,,,,,,,,,,,,12861.578999924604,,response,,,,,,,,,,,continue,click button,,,,,,,,,97477.35500056297,97476.4149999246,84598.174,84611.48500069976,84614.836,106961.94,,,
Headphone screening,flow.Sequence,0,2021-04-22T14:50:18.653Z,,,,,,,,,,,,,,,,,,,,,,,,,,,,,,87018.7429999246,,completion,,,,,,,,,,,,,,,,,,,,,97477.66500059515,97476.4149999246,10390.828,10395.539999939501,10457.672,106961.94,,,
Instructions,html.Page,1_0,2021-04-22T14:50:40.122Z,,,,,,,,,,,,,,,,,,,,,,,,,,,,,,11983.985000123677,,form submission,,,,,,,,,,,,,,,,,,,,,118946.29500061274,118945.92500012368,106945.277,106964.66500032693,106961.94,118960.377,,,
Holding screen,html.Screen,1_1_0_0,2021-04-22T14:50:50.119Z,,,,,,,,,,,,,,,,,,,,,,,,,,,,,,10015.375,,timeout,,,,,,,,,,,,,,,,,,,,,128943.26000008732,128942.541,118943.754,118946.58500049263,118960.377,128975.752,,,
screen,html.Screen,1_1_0_1_0,2021-04-22T14:50:51.431Z,,,,,,,,,,,,,,,,53,,,,,,,,,,,,,,1273.7080005447933,,response,,,,99,,,,,,,Space,keypress(Space),,,,,,,,When -- ----- -- ------ - ------- --- ----------<br>------------- ------ ------ ---- ---- ------- ----- -- ----<br>-------- ------- -- ---------- --- - --- ----- ----- ----<br>---- --- --- ----- --- ---- ---- ------- ----- ---- -------<br>--- --- -- ----- -- --- ---- -- --- ---- -- ------ ------<br>--- ----- -- ----,130254.87999990582,130249.46000054479,128942.541,128943.5950005427,128975.752,130258.916,,0,When
screen,html.Screen,1_1_0_1_1,2021-04-22T14:50:52.400Z,,,,,,,,,,,,,,,,53,,,,,,,,,,,,,,964.4340005677368,,response,,,,99,,,,,,,Space,keypress(Space),,,,,,,,---- it ----- -- ------ - ------- --- ----------<br>------------- ------ ------ ---- ---- ------- ----- -- ----<br>-------- ------- -- ---------- --- - --- ----- ----- ----<br>---- --- --- ----- --- ---- ---- ------- ----- ---- -------<br>--- --- -- ----- -- --- ---- -- --- ---- -- ------ ------<br>--- ----- -- ----,131223.99500012398,131223.35000056773,130242.379,130255.10000064969,130258.916,131242.793,,1,it
screen,html.Screen,1_1_0_1_2,2021-04-22T14:50:53.782Z,,,,,,,,,,,,,,,,53,,,,,,,,,,,,,,1362.86699988466,,response,,,,99,,,,,,,Space,keypress(Space),,,,,,,,---- -- comes -- ------ - ------- --- ----------<br>------------- ------ ------ ---- ---- ------- ----- -- ----<br>-------- ------- -- ---------- --- - --- ----- ----- ----<br>---- --- --- ----- --- ---- ---- ------- ----- ---- -------<br>--- --- -- ----- -- --- ---- -- --- ---- -- ------ ------<br>--- ----- -- ----,132606.39999993145,132605.65999988467,131208.838,131224.16500002146,131242.793,132608.625,,2,comes
screen,html.Screen,1_1_0_1_3,2021-04-22T14:50:54.609Z,,,,,,,,,,,,,,,,53,,,,,,,,,,,,,,823.2349998950958,,response,,,,99,,,,,,,Space,keypress(Space),,,,,,,,---- -- ----- to ------ - ------- --- ----------<br>------------- ------ ------ ---- ---- ------- ----- -- ----<br>-------- ------- -- ---------- --- - --- ----- ----- ----<br>---- --- --- ----- --- ---- ---- ------- ----- ---- -------<br>--- --- -- ----- -- --- ---- -- --- ---- -- ------ ------<br>--- ----- -- ----,133432.51000065356,133431.8599998951,132592.051,132606.56500048935,132608.625,133441.919,,3,to
screen,html.Screen,1_1_0_1_4,2021-04-22T14:50:55.126Z,,,,,,,,,,,,,,,,53,,,,,,,,,,,,,,507.5560006124433,,response,,,,99,,,,,,,Space,keypress(Space),,,,,,,,---- -- ----- -- having - ------- --- ----------<br>------------- ------ ------ ---- ---- ------- ----- -- ----<br>-------- ------- -- ---------- --- - --- ----- ----- ----<br>---- --- --- ----- --- ---- ---- ------- ----- ---- -------<br>--- --- -- ----- -- --- ---- -- --- ---- -- ------ ------<br>--- ----- -- ----,133950.14500059187,133949.47500061244,133425.303,133432.67500028014,133441.919,133958.576,,4,having
screen,html.Screen,1_1_0_1_5,2021-04-22T14:50:55.643Z,,,,,,,,,,,,,,,,53,,,,,,,,,,,,,,507.8839997922769,,response,,,,99,,,,,,,Space,keypress(Space),,,,,,,,---- -- ----- -- ------ a ------- --- ----------<br>------------- ------ ------ ---- ---- ------- ----- -- ----<br>-------- ------- -- ---------- --- - --- ----- ----- ----<br>---- --- --- ----- --- ---- ---- ------- ----- ---- -------<br>--- --- -- ----- -- --- ---- -- --- ---- -- ------ ------<br>--- ----- -- ----,134467.07500051707,134466.45999979228,133941.899,133950.31000021845,133958.576,134475.112,,5,a
screen,html.Screen,1_1_0_1_6,2021-04-22T14:50:56.184Z,,,,,,,,,,,,,,,,53,,,,,,,,,,,,,,532.3780006875459,,response,,,,99,,,,,,,Space,keypress(Space),,,,,,,,---- -- ----- -- ------ - lasting --- ----------<br>------------- ------ ------ ---- ---- ------- ----- -- ----<br>-------- ------- -- ---------- --- - --- ----- ----- ----<br>---- --- --- ----- --- ---- ---- ------- ----- ---- -------<br>--- --- -- ----- -- --- ---- -- --- ---- -- ------ ------<br>--- ----- -- ----,135008.1200003624,135007.49000068754,134458.389,134467.24000014365,134475.112,135024.991,,6,lasting
screen,html.Screen,1_1_0_1_7,2021-04-22T14:50:56.944Z,,,,,,,,,,,,,,,,53,,,,,,,,,,,,,,742.3140006851463,,response,,,,99,,,,,,,Space,keypress(Space),,,,,,,,---- -- ----- -- ------ - ------- and ----------<br>------------- ------ ------ ---- ---- ------- ----- -- ----<br>-------- ------- -- ---------- --- - --- ----- ----- ----<br>---- --- --- ----- --- ---- ---- ------- ----- ---- -------<br>--- --- -- ----- -- --- ---- -- --- ---- -- ------ ------<br>--- ----- -- ----,135767.9650001228,135767.30500068516,135008.464,135008.30500014126,135024.991,135774.841,,7,and
screen,html.Screen,1_1_0_1_8,2021-04-22T14:50:57.597Z,,,,,,,,,,,,,,,,53,,,,,,,,,,,,,,645.1690004673146,,response,,,,99,,,,,,,Space,keypress(Space),,,,,,,,---- -- ----- -- ------ - ------- --- fulfilling<br>------------- ------ ------ ---- ---- ------- ----- -- ----<br>-------- ------- -- ---------- --- - --- ----- ----- ----<br>---- --- --- ----- --- ---- ---- ------- ----- ---- -------<br>--- --- -- ----- -- --- ---- -- --- ---- -- ------ ------<br>--- ----- -- ----,136420.60500010848,136420.0100004673,135758.355,135768.14500056207,135774.841,136424.824,,8,fulfilling
screen,html.Screen,1_1_0_1_9,2021-04-22T14:50:59.634Z,,,,,,,,,,,,,,,,53,,,,,,,,,,,,,,2032.8110003480979,,response,,,,99,,,,,,,Space,keypress(Space),,,,,,,,"---- -- ----- -- ------ - ------- --- ----------<br>relationship, ------ ------ ---- ---- ------- ----- -- ----<br>-------- ------- -- ---------- --- - --- ----- ----- ----<br>---- --- --- ----- --- ---- ---- ------- ----- ---- -------<br>--- --- -- ----- -- --- ---- -- --- ---- -- ------ ------<br>--- ----- -- ----",138458.29500071704,138457.6350003481,136408.158,136420.77000066638,136424.824,138474.577,,9,"relationship,"
screen,html.Screen,1_1_0_1_10,2021-04-22T14:51:00.122Z,,,,,,,,,,,,,,,,53,,,,,,,,,,,,,,470.60299980599666,,response,,,,99,,,,,,,Space,keypress(Space),,,,,,,,---- -- ----- -- ------ - ------- --- ----------<br>------------- common ------ ---- ---- ------- ----- -- ----<br>-------- ------- -- ---------- --- - --- ----- ----- ----<br>---- --- --- ----- --- ---- ---- ------- ----- ---- -------<br>--- --- -- ----- -- --- ---- -- --- ---- -- ------ ------<br>--- ----- -- ----,138945.82000002265,138945.179999806,138457.876,138458.46500061452,138474.577,138957.886,,10,common
screen,html.Screen,1_1_0_1_11,2021-04-22T14:51:00.690Z,,,,,,,,,,,,,,,,53,,,,,,,,,,,,,,555.1490003018989,,response,,,,99,,,,,,,Space,keypress(Space),,,,,,,,---- -- ----- -- ------ - ------- --- ----------<br>------------- ------ wisdom ---- ---- ------- ----- -- ----<br>-------- ------- -- ---------- --- - --- ----- ----- ----<br>---- --- --- ----- --- ---- ---- ------- ----- ---- -------<br>--- --- -- ----- -- --- ---- -- --- ---- -- ------ ------<br>--- ----- -- ----,139513.70000001043,139513.0350003019,138941.25,138945.98500058055,138957.886,139524.45,,11,wisdom
screen,html.Screen,1_1_0_1_12,2021-04-22T14:51:01.319Z,,,,,,,,,,,,,,,,53,,,,,,,,,,,,,,617.9750006675604,,response,,,,99,,,,,,,Space,keypress(Space),,,,,,,,---- -- ----- -- ------ - ------- --- ----------<br>------------- ------ ------ says ---- ------- ----- -- ----<br>-------- ------- -- ---------- --- - --- ----- ----- ----<br>---- --- --- ----- --- ---- ---- ------- ----- ---- -------<br>--- --- -- ----- -- --- ---- -- --- ---- -- ------ ------<br>--- ----- -- ----,140143.16000044346,140142.42500066757,139507.848,139513.8699999079,139524.45,140157.779,,12,says
screen,html.Screen,1_1_0_1_13,2021-04-22T14:51:01.928Z,,,,,,,,,,,,,,,,53,,,,,,,,,,,,,,593.0259998432302,,response,,,,99,,,,,,,Space,keypress(Space),,,,,,,,---- -- ----- -- ------ - ------- --- ----------<br>------------- ------ ------ ---- that ------- ----- -- ----<br>-------- ------- -- ---------- --- - --- ----- ----- ----<br>---- --- --- ----- --- ---- ---- ------- ----- ---- -------<br>--- --- -- ----- -- --- ---- -- --- ---- -- ------ ------<br>--- ----- -- ----,140751.4650002122,140750.80499984324,140141.03,140143.33000034094,140157.779,140757.601,,13,that
screen,html.Screen,1_1_0_1_14,2021-04-22T14:51:02.427Z,,,,,,,,,,,,,,,,53,,,,,,,,,,,,,,492.9090006237675,,response,,,,99,,,,,,,Space,keypress(Space),,,,,,,,---- -- ----- -- ------ - ------- --- ----------<br>------------- ------ ------ ---- ---- feeling ----- -- ----<br>-------- ------- -- ---------- --- - --- ----- ----- ----<br>---- --- --- ----- --- ---- ---- ------- ----- ---- -------<br>--- --- -- ----- -- --- ---- -- --- ---- -- ------ ------<br>--- ----- -- ----,141251.11000053585,141250.51000062376,140740.907,140751.63500010967,140757.601,141257.565,,14,feeling
screen,html.Screen,1_1_0_1_15,2021-04-22T14:51:02.981Z,,,,,,,,,,,,,,,,53,,,,,,,,,,,,,,546.5400005704141,,response,,,,99,,,,,,,Space,keypress(Space),,,,,,,,---- -- ----- -- ------ - ------- --- ----------<br>------------- ------ ------ ---- ---- ------- close -- ----<br>-------- ------- -- ---------- --- - --- ----- ----- ----<br>---- --- --- ----- --- ---- ---- ------- ----- ---- -------<br>--- --- -- ----- -- --- ---- -- --- ---- -- ------ ------<br>--- ----- -- ----,141804.80500031263,141804.10500057042,141240.996,141251.28000043333,141257.565,141807.415,,15,close
screen,html.Screen,1_1_0_1_16,2021-04-22T14:51:03.348Z,,,,,,,,,,,,,,,,53,,,,,,,,,,,,,,363.2950002095022,,response,,,,99,,,,,,,Space,keypress(Space),,,,,,,,---- -- ----- -- ------ - ------- --- ----------<br>------------- ------ ------ ---- ---- ------- ----- to ----<br>-------- ------- -- ---------- --- - --- ----- ----- ----<br>---- --- --- ----- --- ---- ---- ------- ----- ---- -------<br>--- --- -- ----- -- --- ---- -- --- ---- -- ------ ------<br>--- ----- -- ----,142171.51000071317,142170.7100002095,141790.773,141804.980000481,141807.415,142174.07,,16,to
screen,html.Screen,1_1_0_1_17,2021-04-22T14:51:03.807Z,,,,,,,,,,,,,,,,53,,,,,,,,,,,,,,456.30999998777406,,response,,,,99,,,,,,,Space,keypress(Space),,,,,,,,---- -- ----- -- ------ - ------- --- ----------<br>------------- ------ ------ ---- ---- ------- ----- -- your<br>-------- ------- -- ---------- --- - --- ----- ----- ----<br>---- --- --- ----- --- ---- ---- ------- ----- ---- -------<br>--- --- -- ----- -- --- ---- -- --- ---- -- ------ ------<br>--- ----- -- ----,142631.0750003904,142630.37999998778,142157.517,142171.83500062674,142174.07,142640.64,,17,your
screen,html.Screen,1_1_0_1_18,2021-04-22T14:51:04.598Z,,,,,,,,,,,,,,,,53,,,,,,,,,,,,,,781.0249997979263,,response,,,,99,,,,,,,Space,keypress(Space),,,,,,,,---- -- ----- -- ------ - ------- --- ----------<br>------------- ------ ------ ---- ---- ------- ----- -- ----<br>romantic ------- -- ---------- --- - --- ----- ----- ----<br>---- --- --- ----- --- ---- ---- ------- ----- ---- -------<br>--- --- -- ----- -- --- ---- -- --- ---- -- ------ ------<br>--- ----- -- ----,143422.3300004378,143421.66499979794,142624.047,142631.2500005588,142640.64,143441.645,,18,romantic
screen,html.Screen,1_1_0_1_19,2021-04-22T14:51:06.246Z,,,,,,,,,,,,,,,,53,,,,,,,,,,,,,,1628.0250001135573,,response,,,,99,,,,,,,Space,keypress(Space),,,,,,,,---- -- ----- -- ------ - ------- --- ----------<br>------------- ------ ------ ---- ---- ------- ----- -- ----<br>-------- partner -- ---------- --- - --- ----- ----- ----<br>---- --- --- ----- --- ---- ---- ------- ----- ---- -------<br>--- --- -- ----- -- --- ---- -- --- ---- -- ------ ------<br>--- ----- -- ----,145070.26500068605,145069.67000011355,143407.324,143422.50999994576,143441.645,145073.7,,19,partner
screen,html.Screen,1_1_0_1_20,2021-04-22T14:51:06.721Z,,,,,,,,,,,,,,,,53,,,,,,,,,,,,,,470.60500045417575,,response,,,,99,,,,,,,Space,keypress(Space),,,,,,,,---- -- ----- -- ------ - ------- --- ----------<br>------------- ------ ------ ---- ---- ------- ----- -- ----<br>-------- ------- is ---------- --- - --- ----- ----- ----<br>---- --- --- ----- --- ---- ---- ------- ----- ---- -------<br>--- --- -- ----- -- --- ---- -- --- ---- -- ------ ------<br>--- ----- -- ----,145544.94000039995,145544.3050004542,145057.05,145070.445000194,145073.7,145557.134,,20,is
screen,html.Screen,1_1_0_1_21,2021-04-22T14:51:08.169Z,,,,,,,,,,,,,,,,53,,,,,,,,,,,,,,1434.9960001442523,,response,,,,99,,,,,,,Space,keypress(Space),,,,,,,,---- -- ----- -- ------ - ------- --- ----------<br>------------- ------ ------ ---- ---- ------- ----- -- ----<br>-------- ------- -- paramount. --- - --- ----- ----- ----<br>---- --- --- ----- --- ---- ---- ------- ----- ---- -------<br>--- --- -- ----- -- --- ---- -- --- ---- -- ------ ------<br>--- ----- -- ----,146992.7900005132,146992.13000014424,145540.372,145545.1199999079,145557.134,147006.845,,21,paramount.
screen,html.Screen,1_1_0_1_22,2021-04-22T14:51:08.608Z,,,,,,,,,,,,,,,,53,,,,,,,,,,,,,,424.63000045597437,,response,,,,99,,,,,,,Space,keypress(Space),,,,,,,,---- -- ----- -- ------ - ------- --- ----------<br>------------- ------ ------ ---- ---- ------- ----- -- ----<br>-------- ------- -- ---------- But - --- ----- ----- ----<br>---- --- --- ----- --- ---- ---- ------- ----- ---- -------<br>--- --- -- ----- -- --- ---- -- --- ---- -- ------ ------<br>--- ----- -- ----,147432.17500019819,147431.47500045598,146990.139,146992.98000056297,147006.845,147440.09,,22,But
screen,html.Screen,1_1_0_1_23,2021-04-22T14:51:09.017Z,,,,,,,,,,,,,,,,53,,,,,,,,,,,,,,400.5299999153649,,response,,,,99,,,,,,,Space,keypress(Space),,,,,,,,---- -- ----- -- ------ - ------- --- ----------<br>------------- ------ ------ ---- ---- ------- ----- -- ----<br>-------- ------- -- ---------- --- a --- ----- ----- ----<br>---- --- --- ----- --- ---- ---- ------- ----- ---- -------<br>--- --- -- ----- -- --- ---- -- --- ---- -- ------ ------<br>--- ----- -- ----,147841.28500055522,147840.61999991536,147423.528,147432.33999982476,147440.09,147856.721,,23,a
screen,html.Screen,1_1_0_1_24,2021-04-22T14:51:09.217Z,,,,,,,,,,,,,,,,53,,,,,,,,,,,,,,183.45400020564557,,response,,,,99,,,,,,,Space,keypress(Space),,,,,,,,---- -- ----- -- ------ - ------- --- ----------<br>------------- ------ ------ ---- ---- ------- ----- -- ----<br>-------- ------- -- ---------- --- - new ----- ----- ----<br>---- --- --- ----- --- ---- ---- ------- ----- ---- -------<br>--- --- -- ----- -- --- ---- -- --- ---- -- ------ ------<br>--- ----- -- ----,148040.8200006932,148040.17500020564,147840.105,147841.4550004527,147856.721,148056.779,,24,new
screen,html.Screen,1_1_0_1_25,2021-04-22T14:51:10.038Z,,,,,,,,,,,,,,,,53,,,,,,,,,,,,,,804.4960004976892,,response,,,,99,,,,,,,Space,keypress(Space),,,,,,,,---- -- ----- -- ------ - ------- --- ----------<br>------------- ------ ------ ---- ---- ------- ----- -- ----<br>-------- ------- -- ---------- --- - --- study ----- ----<br>---- --- --- ----- --- ---- ---- ------- ----- ---- -------<br>--- --- -- ----- -- --- ---- -- --- ---- -- ------ ------<br>--- ----- -- ----,148861.92500032485,148861.2750004977,148040.092,148041.01500008255,148056.779,148873.194,,25,study
screen,html.Screen,1_1_0_1_26,2021-04-22T14:51:10.359Z,,,,,,,,,,,,,,,,53,,,,,,,,,,,,,,308.9110001308436,,response,,,,99,,,,,,,Space,keypress(Space),,,,,,,,---- -- ----- -- ------ - ------- --- ----------<br>------------- ------ ------ ---- ---- ------- ----- -- ----<br>-------- ------- -- ---------- --- - --- ----- finds ----<br>---- --- --- ----- --- ---- ---- ------- ----- ---- -------<br>--- --- -- ----- -- --- ---- -- --- ---- -- ------ ------<br>--- ----- -- ----,149182.81500041485,149182.10500013083,148856.645,148862.08999995142,148873.194,149189.873,,26,finds
screen,html.Screen,1_1_0_1_27,2021-04-22T14:51:10.898Z,,,,,,,,,,,,,,,,53,,,,,,,,,,,,,,531.31699995292,,response,,,,99,,,,,,,Space,keypress(Space),,,,,,,,---- -- ----- -- ------ - ------- --- ----------<br>------------- ------ ------ ---- ---- ------- ----- -- ----<br>-------- ------- -- ---------- --- - --- ----- ----- that<br>---- --- --- ----- --- ---- ---- ------- ----- ---- -------<br>--- --- -- ----- -- --- ---- -- --- ---- -- ------ ------<br>--- ----- -- ----,149721.8200005591,149721.1899999529,149173.218,149183.06000065058,149189.873,149740.276,,27,that
screen,html.Screen,1_1_0_1_28,2021-04-22T14:51:11.414Z,,,,,,,,,,,,,,,,53,,,,,,,,,,,,,,496.98399984888965,,response,,,,99,,,,,,,Space,keypress(Space),,,,,,,,---- -- ----- -- ------ - ------- --- ----------<br>------------- ------ ------ ---- ---- ------- ----- -- ----<br>-------- ------- -- ---------- --- - --- ----- ----- ----<br>it's --- --- ----- --- ---- ---- ------- ----- ---- -------<br>--- --- -- ----- -- --- ---- -- --- ---- -- ------ ------<br>--- ----- -- ----,150237.93500009924,150237.2599998489,149706.475,149721.99000045657,149740.276,150239.689,,28,it's
screen,html.Screen,1_1_0_1_29,2021-04-22T14:51:11.776Z,,,,,,,,,,,,,,,,53,,,,,,,,,,,,,,359.34600042854436,,response,,,,99,,,,,,,Space,keypress(Space),,,,,,,,---- -- ----- -- ------ - ------- --- ----------<br>------------- ------ ------ ---- ---- ------- ----- -- ----<br>-------- ------- -- ---------- --- - --- ----- ----- ----<br>---- not --- ----- --- ---- ---- ------- ----- ---- -------<br>--- --- -- ----- -- --- ---- -- --- ---- -- ------ ------<br>--- ----- -- ----,150600.32000020146,150599.03500042856,150223.093,150238.10000065714,150239.689,150606.333,,29,not
screen,html.Screen,1_1_0_1_30,2021-04-22T14:51:12.127Z,,,,,,,,,,,,,,,,53,,,,,,,,,,,,,,342.1270005671249,,response,,,,99,,,,,,,Space,keypress(Space),,,,,,,,---- -- ----- -- ------ - ------- --- ----------<br>------------- ------ ------ ---- ---- ------- ----- -- ----<br>-------- ------- -- ---------- --- - --- ----- ----- ----<br>---- --- how ----- --- ---- ---- ------- ----- ---- -------<br>--- --- -- ----- -- --- ---- -- --- ---- -- ------ ------<br>--- ----- -- ----,150950.75500011444,150948.46000056714,150589.795,150600.48499982804,150606.333,150956.328,,30,how
screen,html.Screen,1_1_0_1_31,2021-04-22T14:51:12.647Z,,,,,,,,,,,,,,,,53,,,,,,,,,,,,,,514.1520006002102,,response,,,,99,,,,,,,Space,keypress(Space),,,,,,,,---- -- ----- -- ------ - ------- --- ----------<br>------------- ------ ------ ---- ---- ------- ----- -- ----<br>-------- ------- -- ---------- --- - --- ----- ----- ----<br>---- --- --- close --- ---- ---- ------- ----- ---- -------<br>--- --- -- ----- -- --- ---- -- --- ---- -- ------ ------<br>--- ----- -- ----,151471.32000047714,151470.48000060022,150939.755,150950.92000067234,150956.328,151490.072,,31,close
screen,html.Screen,1_1_0_1_32,2021-04-22T14:51:13.107Z,,,,,,,,,,,,,,,,53,,,,,,,,,,,,,,440.2380006655003,,response,,,,99,,,,,,,Space,keypress(Space),,,,,,,,---- -- ----- -- ------ - ------- --- ----------<br>------------- ------ ------ ---- ---- ------- ----- -- ----<br>-------- ------- -- ---------- --- - --- ----- ----- ----<br>---- --- --- ----- you ---- ---- ------- ----- ---- -------<br>--- --- -- ----- -- --- ---- -- --- ---- -- ------ ------<br>--- ----- -- ----,151930.97000010312,151930.3100006655,151456.261,151471.47500049323,151490.072,151939.538,,32,you
screen,html.Screen,1_1_0_1_33,2021-04-22T14:51:13.414Z,,,,,,,,,,,,,,,,53,,,,,,,,,,,,,,297.92200044047786,,response,,,,99,,,,,,,Space,keypress(Space),,,,,,,,---- -- ----- -- ------ - ------- --- ----------<br>------------- ------ ------ ---- ---- ------- ----- -- ----<br>-------- ------- -- ---------- --- - --- ----- ----- ----<br>---- --- --- ----- --- feel ---- ------- ----- ---- -------<br>--- --- -- ----- -- --- ---- -- --- ---- -- ------ ------<br>--- ----- -- ----,152238.11000026762,152237.46000044048,151922.982,151931.1250001192,151939.538,152257.121,,33,feel
screen,html.Screen,1_1_0_1_34,2021-04-22T14:51:13.665Z,,,,,,,,,,,,,,,,53,,,,,,,,,,,,,,231.38400024853763,,response,,,,99,,,,,,,Space,keypress(Space),,,,,,,,---- -- ----- -- ------ - ------- --- ----------<br>------------- ------ ------ ---- ---- ------- ----- -- ----<br>-------- ------- -- ---------- --- - --- ----- ----- ----<br>---- --- --- ----- --- ---- that ------- ----- ---- -------<br>--- --- -- ----- -- --- ---- -- --- ---- -- ------ ------<br>--- ----- -- ----,152489.1400001943,152488.50500024855,152222.887,152238.26500028372,152257.121,152506.126,,34,that
screen,html.Screen,1_1_0_1_35,2021-04-22T14:51:13.957Z,,,,,,,,,,,,,,,,53,,,,,,,,,,,,,,274.21900032664416,,response,,,,99,,,,,,,Space,keypress(Space),,,,,,,,---- -- ----- -- ------ - ------- --- ----------<br>------------- ------ ------ ---- ---- ------- ----- -- ----<br>-------- ------- -- ---------- --- - --- ----- ----- ----<br>---- --- --- ----- --- ---- ---- matters ----- ---- -------<br>--- --- -- ----- -- --- ---- -- --- ---- -- ------ ------<br>--- ----- -- ----,152781.02000057697,152780.34500032663,152489.569,152489.2950002104,152506.126,152789.373,,35,matters
screen,html.Screen,1_1_0_1_36,2021-04-22T14:51:14.470Z,,,,,,,,,,,,,,,,53,,,,,,,,,,,,,,503.5720003430324,,response,,,,99,,,,,,,Space,keypress(Space),,,,,,,,"---- -- ----- -- ------ - ------- --- ----------<br>------------- ------ ------ ---- ---- ------- ----- -- ----<br>-------- ------- -- ---------- --- - --- ----- ----- ----<br>---- --- --- ----- --- ---- ---- ------- most, ---- -------<br>--- --- -- ----- -- --- ---- -- --- ---- -- ------ ------<br>--- ----- -- ----",153293.6850003898,153292.94500034302,152772.713,152781.17500059307,152789.373,153306.01,,36,"most,"
screen,html.Screen,1_1_0_1_37,2021-04-22T14:51:14.901Z,,,,,,,,,,,,,,,,53,,,,,,,,,,,,,,417.8350003787782,,response,,,,99,,,,,,,Space,keypress(Space),,,,,,,,---- -- ----- -- ------ - ------- --- ----------<br>------------- ------ ------ ---- ---- ------- ----- -- ----<br>-------- ------- -- ---------- --- - --- ----- ----- ----<br>---- --- --- ----- --- ---- ---- ------- ----- it's -------<br>--- --- -- ----- -- --- ---- -- --- ---- -- ------ ------<br>--- ----- -- ----,153724.5500003919,153723.8450003788,153289.417,153293.835000135,153306.01,153739.363,,37,it's
screen,html.Screen,1_1_0_1_38,2021-04-22T14:51:15.422Z,,,,,,,,,,,,,,,,53,,,,,,,,,,,,,,505.49200063745957,,response,,,,99,,,,,,,Space,keypress(Space),,,,,,,,---- -- ----- -- ------ - ------- --- ----------<br>------------- ------ ------ ---- ---- ------- ----- -- ----<br>-------- ------- -- ---------- --- - --- ----- ----- ----<br>---- --- --- ----- --- ---- ---- ------- ----- ---- whether<br>--- --- -- ----- -- --- ---- -- --- ---- -- ------ ------<br>--- ----- -- ----,154245.4949999228,154244.85500063747,153722.568,153724.7100006789,153739.363,154255.902,,38,whether
screen,html.Screen,1_1_0_1_39,2021-04-22T14:51:15.811Z,,,,,,,,,,,,,,,,53,,,,,,,,,,,,,,378.02300020563416,,response,,,,99,,,,,,,Space,keypress(Space),,,,,,,,---- -- ----- -- ------ - ------- --- ----------<br>------------- ------ ------ ---- ---- ------- ----- -- ----<br>-------- ------- -- ---------- --- - --- ----- ----- ----<br>---- --- --- ----- --- ---- ---- ------- ----- ---- -------<br>you --- -- ----- -- --- ---- -- --- ---- -- ------ ------<br>--- ----- -- ----,154634.51999984682,154633.92500020564,154239.218,154245.6550002098,154255.902,154639.134,,39,you
screen,html.Screen,1_1_0_1_40,2021-04-22T14:51:16.020Z,,,,,,,,,,,,,,,,53,,,,,,,,,,,,,,204.38100030607893,,response,,,,99,,,,,,,Space,keypress(Space),,,,,,,,---- -- ----- -- ------ - ------- --- ----------<br>------------- ------ ------ ---- ---- ------- ----- -- ----<br>-------- ------- -- ---------- --- - --- ----- ----- ----<br>---- --- --- ----- --- ---- ---- ------- ----- ---- -------<br>--- are -- ----- -- --- ---- -- --- ---- -- ------ ------<br>--- ----- -- ----,154844.15000025183,154843.51500030607,154622.576,154634.6749998629,154639.134,154855.866,,40,are
screen,html.Screen,1_1_0_1_41,2021-04-22T14:51:16.256Z,,,,,,,,,,,,,,,,53,,,,,,,,,,,,,,223.67900056802318,,response,,,,99,,,,,,,Space,keypress(Space),,,,,,,,---- -- ----- -- ------ - ------- --- ----------<br>------------- ------ ------ ---- ---- ------- ----- -- ----<br>-------- ------- -- ---------- --- - --- ----- ----- ----<br>---- --- --- ----- --- ---- ---- ------- ----- ---- -------<br>--- --- as ----- -- --- ---- -- --- ---- -- ------ ------<br>--- ----- -- ----,155080.19500039518,155079.54500056803,154839.263,154844.3149998784,154855.866,155089.098,,41,as
screen,html.Screen,1_1_0_1_42,2021-04-22T14:51:16.484Z,,,,,,,,,,,,,,,,53,,,,,,,,,,,,,,218.3570004676003,,response,,,,99,,,,,,,Space,keypress(Space),,,,,,,,---- -- ----- -- ------ - ------- --- ----------<br>------------- ------ ------ ---- ---- ------- ----- -- ----<br>-------- ------- -- ---------- --- - --- ----- ----- ----<br>---- --- --- ----- --- ---- ---- ------- ----- ---- -------<br>--- --- -- close -- --- ---- -- --- ---- -- ------ ------<br>--- ----- -- ----,155308.19000024348,155307.4550004676,155072.537,155080.35000041127,155089.098,155322.499,,42,close
screen,html.Screen,1_1_0_1_43,2021-04-22T14:51:17.016Z,,,,,,,,,,,,,,,,53,,,,,,,,,,,,,,517.2210005128873,,response,,,,99,,,,,,,Space,keypress(Space),,,,,,,,---- -- ----- -- ------ - ------- --- ----------<br>------------- ------ ------ ---- ---- ------- ----- -- ----<br>-------- ------- -- ---------- --- - --- ----- ----- ----<br>---- --- --- ----- --- ---- ---- ------- ----- ---- -------<br>--- --- -- ----- as --- ---- -- --- ---- -- ------ ------<br>--- ----- -- ----,155840.37999995053,155839.7200005129,155305.827,155308.3350006491,155322.499,155855.684,,43,as
screen,html.Screen,1_1_0_1_44,2021-04-22T14:51:17.399Z,,,,,,,,,,,,,,,,53,,,,,,,,,,,,,,366.9560002837097,,response,,,,99,,,,,,,Space,keypress(Space),,,,,,,,---- -- ----- -- ------ - ------- --- ----------<br>------------- ------ ------ ---- ---- ------- ----- -- ----<br>-------- ------- -- ---------- --- - --- ----- ----- ----<br>---- --- --- ----- --- ---- ---- ------- ----- ---- -------<br>--- --- -- ----- -- you ---- -- --- ---- -- ------ ------<br>--- ----- -- ----,156223.26999995857,156222.64000028372,155839.092,155840.53000062704,155855.684,156239.057,,44,you
screen,html.Screen,1_1_0_1_45,2021-04-22T14:51:17.783Z,,,,,,,,,,,,,,,,53,,,,,,,,,,,,,,367.42300054061343,,response,,,,99,,,,,,,Space,keypress(Space),,,,,,,,---- -- ----- -- ------ - ------- --- ----------<br>------------- ------ ------ ---- ---- ------- ----- -- ----<br>-------- ------- -- ---------- --- - --- ----- ----- ----<br>---- --- --- ----- --- ---- ---- ------- ----- ---- -------<br>--- --- -- ----- -- --- want -- --- ---- -- ------ ------<br>--- ----- -- ----,156607.100000605,156606.4800005406,156222.286,156223.41500036418,156239.057,156622.212,,45,want
screen,html.Screen,1_1_0_1_46,2021-04-22T14:51:18.158Z,,,,,,,,,,,,,,,,53,,,,,,,,,,,,,,358.60800017166184,,response,,,,99,,,,,,,Space,keypress(Space),,,,,,,,---- -- ----- -- ------ - ------- --- ----------<br>------------- ------ ------ ---- ---- ------- ----- -- ----<br>-------- ------- -- ---------- --- - --- ----- ----- ----<br>---- --- --- ----- --- ---- ---- ------- ----- ---- -------<br>--- --- -- ----- -- --- ---- to --- ---- -- ------ ------<br>--- ----- -- ----,156981.42500035465,156980.82000017166,156605.643,156607.24500007927,156622.212,156988.859,,46,to
screen,html.Screen,1_1_0_1_47,2021-04-22T14:51:18.468Z,,,,,,,,,,,,,,,,53,,,,,,,,,,,,,,302.0460006419453,,response,,,,99,,,,,,,Space,keypress(Space),,,,,,,,"---- -- ----- -- ------ - ------- --- ----------<br>------------- ------ ------ ---- ---- ------- ----- -- ----<br>-------- ------- -- ---------- --- - --- ----- ----- ----<br>---- --- --- ----- --- ---- ---- ------- ----- ---- -------<br>--- --- -- ----- -- --- ---- -- be, ---- -- ------ ------<br>--- ----- -- ----",157291.49500001222,157290.90500064194,156972.267,156981.68500047177,156988.859,157305.502,,47,"be,"
screen,html.Screen,1_1_0_1_48,2021-04-22T14:51:18.988Z,,,,,,,,,,,,,,,,53,,,,,,,,,,,,,,506.1029999371094,,response,,,,99,,,,,,,Space,keypress(Space),,,,,,,,---- -- ----- -- ------ - ------- --- ----------<br>------------- ------ ------ ---- ---- ------- ----- -- ----<br>-------- ------- -- ---------- --- - --- ----- ----- ----<br>---- --- --- ----- --- ---- ---- ------- ----- ---- -------<br>--- --- -- ----- -- --- ---- -- --- even -- ------ ------<br>--- ----- -- ----,157812.2049998492,157811.60499993712,157288.906,157291.64500068873,157305.502,157822.107,,48,even
screen,html.Screen,1_1_0_1_49,2021-04-22T14:51:19.389Z,,,,,,,,,,,,,,,,53,,,,,,,,,,,,,,390.2330000855436,,response,,,,99,,,,,,,Space,keypress(Space),,,,,,,,---- -- ----- -- ------ - ------- --- ----------<br>------------- ------ ------ ---- ---- ------- ----- -- ----<br>-------- ------- -- ---------- --- - --- ----- ----- ----<br>---- --- --- ----- --- ---- ---- ------- ----- ---- -------<br>--- --- -- ----- -- --- ---- -- --- ---- if ------ ------<br>--- ----- -- ----,158212.94500026852,158212.34000008553,157805.377,157812.3550005257,157822.107,158222.015,,49,if
screen,html.Screen,1_1_0_1_50,2021-04-22T14:51:19.851Z,,,,,,,,,,,,,,,,53,,,,,,,,,,,,,,451.8150006836513,,response,,,,99,,,,,,,Space,keypress(Space),,,,,,,,---- -- ----- -- ------ - ------- --- ----------<br>------------- ------ ------ ---- ---- ------- ----- -- ----<br>-------- ------- -- ---------- --- - --- ----- ----- ----<br>---- --- --- ----- --- ---- ---- ------- ----- ---- -------<br>--- --- -- ----- -- --- ---- -- --- ---- -- that's ------<br>--- ----- -- ----,158674.5150005445,158673.83000068367,158205.303,158213.09000067413,158222.015,158688.66,,50,that's
screen,html.Screen,1_1_0_1_51,2021-04-22T14:51:20.237Z,,,,,,,,,,,,,,,,53,,,,,,,,,,,,,,371.95500031500706,,response,,,,99,,,,,,,Space,keypress(Space),,,,,,,,---- -- ----- -- ------ - ------- --- ----------<br>------------- ------ ------ ---- ---- ------- ----- -- ----<br>-------- ------- -- ---------- --- - --- ----- ----- ----<br>---- --- --- ----- --- ---- ---- ------- ----- ---- -------<br>--- --- -- ----- -- --- ---- -- --- ---- -- ------ really<br>--- ----- -- ----,159061.1950000748,159060.615000315,158672.061,158674.66500028968,158688.66,159071.9,,51,really
screen,html.Screen,1_1_0_1_52,2021-04-22T14:51:20.977Z,,,,,,,,,,,,,,,,53,,,,,,,,,,,,,,727.8400006279408,,response,,,,99,,,,,,,Space,keypress(Space),,,,,,,,---- -- ----- -- ------ - ------- --- ----------<br>------------- ------ ------ ---- ---- ------- ----- -- ----<br>-------- ------- -- ---------- --- - --- ----- ----- ----<br>---- --- --- ----- --- ---- ---- ------- ----- ---- -------<br>--- --- -- ----- -- --- ---- -- --- ---- -- ------ ------<br>not ----- -- ----,159800.3750005737,159799.74000062793,159055.324,159061.34499982,159071.9,159805.169,,52,not
screen,html.Screen,1_1_0_1_53,2021-04-22T14:51:21.508Z,,,,,,,,,,,,,,,,53,,,,,,,,,,,,,,525.656000070041,,response,,,,99,,,,,,,Space,keypress(Space),,,,,,,,---- -- ----- -- ------ - ------- --- ----------<br>------------- ------ ------ ---- ---- ------- ----- -- ----<br>-------- ------- -- ---------- --- - --- ----- ----- ----<br>---- --- --- ----- --- ---- ---- ------- ----- ---- -------<br>--- --- -- ----- -- --- ---- -- --- ---- -- ------ ------<br>--- close -- ----,160331.485000439,160330.82500007004,159788.562,159800.52000004798,159805.169,160338.515,,53,close
screen,html.Screen,1_1_0_1_54,2021-04-22T14:51:21.977Z,,,,,,,,,,,,,,,,53,,,,,,,,,,,,,,461.84000042139087,,response,,,,99,,,,,,,Space,keypress(Space),,,,,,,,---- -- ----- -- ------ - ------- --- ----------<br>------------- ------ ------ ---- ---- ------- ----- -- ----<br>-------- ------- -- ---------- --- - --- ----- ----- ----<br>---- --- --- ----- --- ---- ---- ------- ----- ---- -------<br>--- --- -- ----- -- --- ---- -- --- ---- -- ------ ------<br>--- ----- at ----,160800.97000021487,160800.3550004214,160321.815,160331.6250005737,160338.515,160805.015,,54,at
screen,html.Screen,1_1_0_1_55,2021-04-22T14:51:22.852Z,,,,,,,,,,,,,,,,53,,,,,,,,,,,,,,870.1700005239109,,response,,,,99,,,,,,,Space,keypress(Space),,,,,,,,---- -- ----- -- ------ - ------- --- ----------<br>------------- ------ ------ ---- ---- ------- ----- -- ----<br>-------- ------- -- ---------- --- - --- ----- ----- ----<br>---- --- --- ----- --- ---- ---- ------- ----- ---- -------<br>--- --- -- ----- -- --- ---- -- --- ---- -- ------ ------<br>--- ----- -- all.,161675.76000001281,161675.18500052392,160788.457,160801.11999996006,160805.015,161688.222,,55,all.
Item 99,flow.Loop,1_1_0_1,2021-04-22T14:51:22.852Z,,,,,,,,,,,,,,,,,,,,,,,,,,,,,,32699.43300052393,,completion,,,,,E,,,,,,,,,,,silence,,,,,161676.070000045,161675.18500052392,128942.541,128943.51000059396,128975.752,161688.222,,,
Question 1,html.Screen,1_1_0_2,2021-04-22T14:51:26.731Z,,,,,,,,,,,,,,,,,,,,,,,,,,,false,FALSE,,3864.9929998471052,,response,,,,99,E,,,,,,TRUE,click #choice-1,,,,silence,,,,,165554.20000012964,165553.2149998471,161671.685,161676.2150004506,161688.222,165572.482,,,
Question 2,html.Screen,1_1_0_3,2021-04-22T14:51:35.140Z,,,,,,,,,,,,,,,,,,,,,,,,,,,true,TRUE,,8390.428000234853,,response,,,,99,E,,,,,,TRUE,click #choice-1,,,,silence,,,,,173963.8550002128,173962.91000023484,165537.84,165554.38000056893,165572.482,173969.957,,,
Item 99,flow.Sequence,1_1_0,2021-04-22T14:51:35.140Z,,,,,,,,,,,,,,,,,,,,,,,,,,,,,,55002.53300023485,,completion,,,,,,,,,,,,,,,,,,,,,173964.110000059,173962.91000023484,118943.754,118946.53500057757,118960.377,173969.957,,,
Holding screen,html.Screen,1_1_1_0,2021-04-22T14:51:45.129Z,,,,,,,,,,,,,,,,,,,,,,,,,,,,,,9998.883000000002,,timeout,,,,,,,,,,,,,,,,,,,,,183952.8550002724,183952.146,173953.467,173964.30000010878,173969.957,183968.84,,,
screen,html.Screen,1_1_1_1_0,2021-04-22T14:51:45.956Z,,,,,,,,,,,,,,,,54,,,,,,,,,,,,,,810.2150002828275,,response,,,,100,,,,,,,Space,keypress(Space),,,,,,,,At --- ---- --- ------ ----- ------- ---- -- --- ------- --<br>------- ---------- ------ -- ----- -- ----- -- ---- ------<br>--- ----- --- --- ------ -------- ----- --- ------ ----- --<br>----- ----- ---------- --- --- ------ ------ ---- -- ------<br>------- --- ------ ----- --- ---- ------- -- ---- --- --<br>------- ------,184779.6600004658,184779.05500028282,183952.146,183953.05499993265,183968.84,184785.297,,0,At
screen,html.Screen,1_1_1_1_1,2021-04-22T14:51:46.330Z,,,,,,,,,,,,,,,,54,,,,,,,,,,,,,,367.3780000193801,,response,,,,100,,,,,,,Space,keypress(Space),,,,,,,,-- the ---- --- ------ ----- ------- ---- -- --- ------- --<br>------- ---------- ------ -- ----- -- ----- -- ---- ------<br>--- ----- --- --- ------ -------- ----- --- ------ ----- --<br>----- ----- ---------- --- --- ------ ------ ---- -- ------<br>------- --- ------ ----- --- ---- ------- -- ---- --- --<br>------- ------,185153.29500008374,185152.67500001937,184768.591,184779.8150004819,184785.297,185168.677,,1,the
screen,html.Screen,1_1_1_1_2,2021-04-22T14:51:46.730Z,,,,,,,,,,,,,,,,54,,,,,,,,,,,,,,384.2979998822848,,response,,,,100,,,,,,,Space,keypress(Space),,,,,,,,-- --- time --- ------ ----- ------- ---- -- --- ------- --<br>------- ---------- ------ -- ----- -- ----- -- ---- ------<br>--- ----- --- --- ------ -------- ----- --- ------ ----- --<br>----- ----- ---------- --- --- ------ ------ ---- -- ------<br>------- --- ------ ----- --- ---- ------- -- ---- --- --<br>------- ------,185553.56500018388,185552.97499988228,185151.928,185153.4850001335,185168.677,185568.507,,2,time
screen,html.Screen,1_1_1_1_3,2021-04-22T14:51:47.002Z,,,,,,,,,,,,,,,,54,,,,,,,,,,,,,,256.14800012038904,,response,,,,100,,,,,,,Space,keypress(Space),,,,,,,,-- --- ---- the ------ ----- ------- ---- -- --- ------- --<br>------- ---------- ------ -- ----- -- ----- -- ---- ------<br>--- ----- --- --- ------ -------- ----- --- ------ ----- --<br>----- ----- ---------- --- --- ------ ------ ---- -- ------<br>------- --- ------ ----- --- ---- ------- -- ---- --- --<br>------- ------,185825.2600003034,185824.6550001204,185551.955,185553.7100005895,185568.507,185835.27,,3,the
screen,html.Screen,1_1_1_1_4,2021-04-22T14:51:47.204Z,,,,,,,,,,,,,,,,54,,,,,,,,,,,,,,191.79999983639573,,response,,,,100,,,,,,,Space,keypress(Space),,,,,,,,-- --- ---- --- French ----- ------- ---- -- --- ------- --<br>------- ---------- ------ -- ----- -- ----- -- ---- ------<br>--- ----- --- --- ------ -------- ----- --- ------ ----- --<br>----- ----- ---------- --- --- ------ ------ ---- -- ------<br>------- --- ------ ----- --- ---- ------- -- ---- --- --<br>------- ------,186027.69500017166,186027.06999983639,185818.59,185825.3950001672,185835.27,186035.132,,4,French
screen,html.Screen,1_1_1_1_5,2021-04-22T14:51:47.985Z,,,,,,,,,,,,,,,,54,,,,,,,,,,,,,,773.0529999725695,,response,,,,100,,,,,,,Space,keypress(Space),,,,,,,,-- --- ---- --- ------ crown ------- ---- -- --- ------- --<br>------- ---------- ------ -- ----- -- ----- -- ---- ------<br>--- ----- --- --- ------ -------- ----- --- ------ ----- --<br>----- ----- ---------- --- --- ------ ------ ---- -- ------<br>------- --- ------ ----- --- ---- ------- -- ---- --- --<br>------- ------,186808.8750001043,186808.18499997258,186018.499,186027.83500030637,186035.132,186818.357,,5,crown
screen,html.Screen,1_1_1_1_6,2021-04-22T14:51:48.647Z,,,,,,,,,,,,,,,,54,,,,,,,,,,,,,,651.57300060321,,response,,,,100,,,,,,,Space,keypress(Space),,,,,,,,-- --- ---- --- ------ ----- secured ---- -- --- ------- --<br>------- ---------- ------ -- ----- -- ----- -- ---- ------<br>--- ----- --- --- ------ -------- ----- --- ------ ----- --<br>----- ----- ---------- --- --- ------ ------ ---- -- ------<br>------- --- ------ ----- --- ---- ------- -- ---- --- --<br>------- ------,187470.51999997348,187469.9300006032,186801.761,186809.0249998495,186818.357,187484.942,,6,secured
screen,html.Screen,1_1_1_1_7,2021-04-22T14:51:49.218Z,,,,,,,,,,,,,,,,54,,,,,,,,,,,,,,556.2880005555053,,response,,,,100,,,,,,,Space,keypress(Space),,,,,,,,-- --- ---- --- ------ ----- ------- much -- --- ------- --<br>------- ---------- ------ -- ----- -- ----- -- ---- ------<br>--- ----- --- --- ------ -------- ----- --- ------ ----- --<br>----- ----- ---------- --- --- ------ ------ ---- -- ------<br>------- --- ------ ----- --- ---- ------- -- ---- --- --<br>------- ------,188041.76000040025,188041.23000055552,187468.349,187470.67000065,187484.942,188051.67,,7,much
screen,html.Screen,1_1_1_1_8,2021-04-22T14:51:49.676Z,,,,,,,,,,,,,,,,54,,,,,,,,,,,,,,447.20000024317414,,response,,,,100,,,,,,,Space,keypress(Space),,,,,,,,-- --- ---- --- ------ ----- ------- ---- of --- ------- --<br>------- ---------- ------ -- ----- -- ----- -- ---- ------<br>--- ----- --- --- ------ -------- ----- --- ------ ----- --<br>----- ----- ---------- --- --- ------ ------ ---- -- ------<br>------- --- ------ ----- --- ---- ------- -- ---- --- --<br>------- ------,188499.4299998507,188498.8700002432,188034.942,188041.91000014544,188051.67,188501.458,,8,of
screen,html.Screen,1_1_1_1_9,2021-04-22T14:51:50.037Z,,,,,,,,,,,,,,,,54,,,,,,,,,,,,,,358.79199991057976,,response,,,,100,,,,,,,Space,keypress(Space),,,,,,,,-- --- ---- --- ------ ----- ------- ---- -- its ------- --<br>------- ---------- ------ -- ----- -- ----- -- ---- ------<br>--- ----- --- --- ------ -------- ----- --- ------ ----- --<br>----- ----- ---------- --- --- ------ ------ ---- -- ------<br>------- --- ------ ----- --- ---- ------- -- ---- --- --<br>------- ------,188860.85500009358,188860.2499999106,188484.858,188499.5800005272,188501.458,188868.087,,9,its
screen,html.Screen,1_1_1_1_10,2021-04-22T14:51:50.541Z,,,,,,,,,,,,,,,,54,,,,,,,,,,,,,,495.737999891222,,response,,,,100,,,,,,,Space,keypress(Space),,,,,,,,-- --- ---- --- ------ ----- ------- ---- -- --- revenue --<br>------- ---------- ------ -- ----- -- ----- -- ---- ------<br>--- ----- --- --- ------ -------- ----- --- ------ ----- --<br>----- ----- ---------- --- --- ------ ------ ---- -- ------<br>------- --- ------ ----- --- ---- ------- -- ---- --- --<br>------- ------,189364.40500058234,189363.82499989122,188851.462,188861.07000056654,188868.087,189368.008,,10,revenue
screen,html.Screen,1_1_1_1_11,2021-04-22T14:51:51.121Z,,,,,,,,,,,,,,,,54,,,,,,,,,,,,,,576.1120001165255,,response,,,,100,,,,,,,Space,keypress(Space),,,,,,,,-- --- ---- --- ------ ----- ------- ---- -- --- ------- by<br>------- ---------- ------ -- ----- -- ----- -- ---- ------<br>--- ----- --- --- ------ -------- ----- --- ------ ----- --<br>----- ----- ---------- --- --- ------ ------ ---- -- ------<br>------- --- ------ ----- --- ---- ------- -- ---- --- --<br>------- ------,189944.8750000447,189944.12000011653,189351.446,189364.55500032753,189368.008,189951.303,,11,by
screen,html.Screen,1_1_1_1_12,2021-04-22T14:51:51.720Z,,,,,,,,,,,,,,,,54,,,,,,,,,,,,,,591.8470002741669,,response,,,,100,,,,,,,Space,keypress(Space),,,,,,,,-- --- ---- --- ------ ----- ------- ---- -- --- ------- --<br>issuing ---------- ------ -- ----- -- ----- -- ---- ------<br>--- ----- --- --- ------ -------- ----- --- ------ ----- --<br>----- ----- ---------- --- --- ------ ------ ---- -- ------<br>------- --- ------ ----- --- ---- ------- -- ---- --- --<br>------- ------,190543.7150001526,190543.15000027418,189934.644,189945.0249997899,189951.303,190551.243,,12,issuing
screen,html.Screen,1_1_1_1_13,2021-04-22T14:51:52.331Z,,,,,,,,,,,,,,,,54,,,,,,,,,,,,,,602.3620001159434,,response,,,,100,,,,,,,Space,keypress(Space),,,,,,,,-- --- ---- --- ------ ----- ------- ---- -- --- ------- --<br>------- government ------ -- ----- -- ----- -- ---- ------<br>--- ----- --- --- ------ -------- ----- --- ------ ----- --<br>----- ----- ---------- --- --- ------ ------ ---- -- ------<br>------- --- ------ ----- --- ---- ------- -- ---- --- --<br>------- ------,191154.2400000617,191153.60500011593,190534.567,190543.86499989778,190551.243,191167.904,,13,government
screen,html.Screen,1_1_1_1_14,2021-04-22T14:51:53.299Z,,,,,,,,,,,,,,,,54,,,,,,,,,,,,,,954.0060002199316,,response,,,,100,,,,,,,Space,keypress(Space),,,,,,,,-- --- ---- --- ------ ----- ------- ---- -- --- ------- --<br>------- ---------- bonds. -- ----- -- ----- -- ---- ------<br>--- ----- --- --- ------ -------- ----- --- ------ ----- --<br>----- ----- ---------- --- --- ------ ------ ---- -- ------<br>------- --- ------ ----- --- ---- ------- -- ---- --- --<br>------- ------,192122.57499992847,192121.91000021994,191151.136,191154.3850004673,191167.904,192134.374,,14,bonds.
screen,html.Screen,1_1_1_1_15,2021-04-22T14:51:54.554Z,,,,,,,,,,,,,,,,54,,,,,,,,,,,,,,1242.3160002956283,,response,,,,100,,,,,,,Space,keypress(Space),,,,,,,,-- --- ---- --- ------ ----- ------- ---- -- --- ------- --<br>------- ---------- ------ In ----- -- ----- -- ---- ------<br>--- ----- --- --- ------ -------- ----- --- ------ ----- --<br>----- ----- ---------- --- --- ------ ------ ---- -- ------<br>------- --- ------ ----- --- ---- ------- -- ---- --- --<br>------- ------,193377.3400001228,193376.69000029564,192117.667,192122.75000009686,192134.374,193384.182,,15,In
screen,html.Screen,1_1_1_1_16,2021-04-22T14:51:55.254Z,,,,,,,,,,,,,,,,54,,,,,,,,,,,,,,693.0680000894063,,response,,,,100,,,,,,,Space,keypress(Space),,,,,,,,"-- --- ---- --- ------ ----- ------- ---- -- --- ------- --<br>------- ---------- ------ -- 1727, -- ----- -- ---- ------<br>--- ----- --- --- ------ -------- ----- --- ------ ----- --<br>----- ----- ---------- --- --- ------ ------ ---- -- ------<br>------- --- ------ ----- --- ---- ------- -- ---- --- --<br>------- ------",194077.89999991655,194077.2500000894,193367.553,193377.4850005284,193384.182,194084.05,,16,"1727,"
screen,html.Screen,1_1_1_1_17,2021-04-22T14:51:57.118Z,,,,,,,,,,,,,,,,54,,,,,,,,,,,,,,1857.330000673246,,response,,,,100,,,,,,,Space,keypress(Space),,,,,,,,-- --- ---- --- ------ ----- ------- ---- -- --- ------- --<br>------- ---------- ------ -- ----- in ----- -- ---- ------<br>--- ----- --- --- ------ -------- ----- --- ------ ----- --<br>----- ----- ---------- --- --- ------ ------ ---- -- ------<br>------- --- ------ ----- --- ---- ------- -- ---- --- --<br>------- ------,195942.0100003481,195941.38000067323,194067.5,194078.05000059307,194084.05,195950.548,,17,in
screen,html.Screen,1_1_1_1_18,2021-04-22T14:51:57.670Z,,,,,,,,,,,,,,,,54,,,,,,,,,,,,,,542.7320000533364,,response,,,,100,,,,,,,Space,keypress(Space),,,,,,,,-- --- ---- --- ------ ----- ------- ---- -- --- ------- --<br>------- ---------- ------ -- ----- -- order -- ---- ------<br>--- ----- --- --- ------ -------- ----- --- ------ ----- --<br>----- ----- ---------- --- --- ------ ------ ---- -- ------<br>------- --- ------ ----- --- ---- ------- -- ---- --- --<br>------- ------,196493.95000003278,196493.28000005335,195933.78,195942.16000009328,195950.548,196500.486,,18,order
screen,html.Screen,1_1_1_1_19,2021-04-22T14:51:58.040Z,,,,,,,,,,,,,,,,54,,,,,,,,,,,,,,362.1090003042773,,response,,,,100,,,,,,,Space,keypress(Space),,,,,,,,-- --- ---- --- ------ ----- ------- ---- -- --- ------- --<br>------- ---------- ------ -- ----- -- ----- to ---- ------<br>--- ----- --- --- ------ -------- ----- --- ------ ----- --<br>----- ----- ---------- --- --- ------ ------ ---- -- ------<br>------- --- ------ ----- --- ---- ------- -- ---- --- --<br>------- ------,196863.20000048727,196862.59500030428,196483.853,196494.0950004384,196500.486,196867.007,,19,to
screen,html.Screen,1_1_1_1_20,2021-04-22T14:51:58.366Z,,,,,,,,,,,,,,,,54,,,,,,,,,,,,,,322.2330002106901,,response,,,,100,,,,,,,Space,keypress(Space),,,,,,,,-- --- ---- --- ------ ----- ------- ---- -- --- ------- --<br>------- ---------- ------ -- ----- -- ----- -- save ------<br>--- ----- --- --- ------ -------- ----- --- ------ ----- --<br>----- ----- ---------- --- --- ------ ------ ---- -- ------<br>------- --- ------ ----- --- ---- ------- -- ---- --- --<br>------- ------,197189.91999980062,197189.2400002107,196850.483,196863.35500050336,196867.007,197200.355,,20,save
screen,html.Screen,1_1_1_1_21,2021-04-22T14:51:59.043Z,,,,,,,,,,,,,,,,54,,,,,,,,,,,,,,665.7500004884496,,response,,,,100,,,,,,,Space,keypress(Space),,,,,,,,"-- --- ---- --- ------ ----- ------- ---- -- --- ------- --<br>------- ---------- ------ -- ----- -- ----- -- ---- money,<br>--- ----- --- --- ------ -------- ----- --- ------ ----- --<br>----- ----- ---------- --- --- ------ ------ ---- -- ------<br>------- --- ------ ----- --- ---- ------- -- ---- --- --<br>------- ------",197866.7299998924,197866.10500048846,197183.835,197190.06500020623,197200.355,197883.611,,21,"money,"
screen,html.Screen,1_1_1_1_22,2021-04-22T14:51:59.981Z,,,,,,,,,,,,,,,,54,,,,,,,,,,,,,,920.2840003683523,,response,,,,100,,,,,,,Space,keypress(Space),,,,,,,,-- --- ---- --- ------ ----- ------- ---- -- --- ------- --<br>------- ---------- ------ -- ----- -- ----- -- ---- ------<br>the ----- --- --- ------ -------- ----- --- ------ ----- --<br>----- ----- ---------- --- --- ------ ------ ---- -- ------<br>------- --- ------ ----- --- ---- ------- -- ---- --- --<br>------- ------,198804.5250000432,198803.89500036836,197866.999,197866.87500029802,197883.611,198816.925,,22,the
screen,html.Screen,1_1_1_1_23,2021-04-22T14:52:00.328Z,,,,,,,,,,,,,,,,54,,,,,,,,,,,,,,334.60000011028023,,response,,,,100,,,,,,,Space,keypress(Space),,,,,,,,-- --- ---- --- ------ ----- ------- ---- -- --- ------- --<br>------- ---------- ------ -- ----- -- ----- -- ---- ------<br>--- state --- --- ------ -------- ----- --- ------ ----- --<br>----- ----- ---------- --- --- ------ ------ ---- -- ------<br>------- --- ------ ----- --- ---- ------- -- ---- --- --<br>------- ------,199152.15500071645,199151.52500011027,198800.118,198804.6749997884,198816.925,199166.872,,23,state
screen,html.Screen,1_1_1_1_24,2021-04-22T14:52:00.801Z,,,,,,,,,,,,,,,,54,,,,,,,,,,,,,,456.98300036179717,,response,,,,100,,,,,,,Space,keypress(Space),,,,,,,,-- --- ---- --- ------ ----- ------- ---- -- --- ------- --<br>------- ---------- ------ -- ----- -- ----- -- ---- ------<br>--- ----- cut --- ------ -------- ----- --- ------ ----- --<br>----- ----- ---------- --- --- ------ ------ ---- -- ------<br>------- --- ------ ----- --- ---- ------- -- ---- --- --<br>------- ------,199624.51499979943,199623.8550003618,199150.042,199152.30999980122,199166.872,199633.407,,24,cut
screen,html.Screen,1_1_1_1_25,2021-04-22T14:52:01.172Z,,,,,,,,,,,,,,,,54,,,,,,,,,,,,,,361.1830002494389,,response,,,,100,,,,,,,Space,keypress(Space),,,,,,,,-- --- ---- --- ------ ----- ------- ---- -- --- ------- --<br>------- ---------- ------ -- ----- -- ----- -- ---- ------<br>--- ----- --- the ------ -------- ----- --- ------ ----- --<br>----- ----- ---------- --- --- ------ ------ ---- -- ------<br>------- --- ------ ----- --- ---- ------- -- ---- --- --<br>------- ------,199995.21000031382,199994.59000024945,199616.723,199624.66000020504,199633.407,200000.081,,25,the
screen,html.Screen,1_1_1_1_26,2021-04-22T14:52:01.548Z,,,,,,,,,,,,,,,,54,,,,,,,,,,,,,,371.12900047772564,,response,,,,100,,,,,,,Space,keypress(Space),,,,,,,,-- --- ---- --- ------ ----- ------- ---- -- --- ------- --<br>------- ---------- ------ -- ----- -- ----- -- ---- ------<br>--- ----- --- --- bonds' -------- ----- --- ------ ----- --<br>----- ----- ---------- --- --- ------ ------ ---- -- ------<br>------- --- ------ ----- --- ---- ------- -- ---- --- --<br>------- ------,200371.8500006944,200371.21000047773,199983.402,199995.3650003299,200000.081,200383.266,,26,bonds'
screen,html.Screen,1_1_1_1_27,2021-04-22T14:52:02.070Z,,,,,,,,,,,,,,,,54,,,,,,,,,,,,,,509.59900029265555,,response,,,,100,,,,,,,Space,keypress(Space),,,,,,,,-- --- ---- --- ------ ----- ------- ---- -- --- ------- --<br>------- ---------- ------ -- ----- -- ----- -- ---- ------<br>--- ----- --- --- ------ interest ----- --- ------ ----- --<br>----- ----- ---------- --- --- ------ ------ ---- -- ------<br>------- --- ------ ----- --- ---- ------- -- ---- --- --<br>------- ------,200893.50000023842,200892.86500029266,200366.733,200372.00000043958,200383.266,200899.896,,27,interest
screen,html.Screen,1_1_1_1_28,2021-04-22T14:52:02.718Z,,,,,,,,,,,,,,,,54,,,,,,,,,,,,,,641.3640003182809,,response,,,,100,,,,,,,Space,keypress(Space),,,,,,,,-- --- ---- --- ------ ----- ------- ---- -- --- ------- --<br>------- ---------- ------ -- ----- -- ----- -- ---- ------<br>--- ----- --- --- ------ -------- rate. --- ------ ----- --<br>----- ----- ---------- --- --- ------ ------ ---- -- ------<br>------- --- ------ ----- --- ---- ------- -- ---- --- --<br>------- ------,201541.93500056863,201541.2600003183,200883.292,200893.6550002545,200899.896,201549.802,,28,rate.
screen,html.Screen,1_1_1_1_29,2021-04-22T14:52:03.564Z,,,,,,,,,,,,,,,,54,,,,,,,,,,,,,,837.6330003898183,,response,,,,100,,,,,,,Space,keypress(Space),,,,,,,,-- --- ---- --- ------ ----- ------- ---- -- --- ------- --<br>------- ---------- ------ -- ----- -- ----- -- ---- ------<br>--- ----- --- --- ------ -------- ----- The ------ ----- --<br>----- ----- ---------- --- --- ------ ------ ---- -- ------<br>------- --- ------ ----- --- ---- ------- -- ---- --- --<br>------- ------,202388.06500006467,202387.4350003898,201533.222,201542.08500031382,201549.802,202399.678,,29,The
screen,html.Screen,1_1_1_1_30,2021-04-22T14:52:04.551Z,,,,,,,,,,,,,,,,54,,,,,,,,,,,,,,974.527000698552,,response,,,,100,,,,,,,Space,keypress(Space),,,,,,,,-- --- ---- --- ------ ----- ------- ---- -- --- ------- --<br>------- ---------- ------ -- ----- -- ----- -- ---- ------<br>--- ----- --- --- ------ -------- ----- --- market ----- --<br>----- ----- ---------- --- --- ------ ------ ---- -- ------<br>------- --- ------ ----- --- ---- ------- -- ---- --- --<br>------- ------,203374.80500061065,203374.20500069857,202383.013,202388.21000047028,202399.678,203382.908,,30,market
screen,html.Screen,1_1_1_1_31,2021-04-22T14:52:05.092Z,,,,,,,,,,,,,,,,54,,,,,,,,,,,,,,532.2870003579301,,response,,,,100,,,,,,,Space,keypress(Space),,,,,,,,-- --- ---- --- ------ ----- ------- ---- -- --- ------- --<br>------- ---------- ------ -- ----- -- ----- -- ---- ------<br>--- ----- --- --- ------ -------- ----- --- ------ value --<br>----- ----- ---------- --- --- ------ ------ ---- -- ------<br>------- --- ------ ----- --- ---- ------- -- ---- --- --<br>------- ------,203915.76999984682,203915.19500035793,203366.308,203374.95500035584,203382.908,203932.937,,31,value
screen,html.Screen,1_1_1_1_32,2021-04-22T14:52:05.527Z,,,,,,,,,,,,,,,,54,,,,,,,,,,,,,,416.70799995111884,,response,,,,100,,,,,,,Space,keypress(Space),,,,,,,,-- --- ---- --- ------ ----- ------- ---- -- --- ------- --<br>------- ---------- ------ -- ----- -- ----- -- ---- ------<br>--- ----- --- --- ------ -------- ----- --- ------ ----- of<br>----- ----- ---------- --- --- ------ ------ ---- -- ------<br>------- --- ------ ----- --- ---- ------- -- ---- --- --<br>------- ------,204350.2700002864,204349.64499995112,203916.27,203915.92000052333,203932.937,204366.185,,32,of
screen,html.Screen,1_1_1_1_33,2021-04-22T14:52:06.008Z,,,,,,,,,,,,,,,,54,,,,,,,,,,,,,,464.74500017106766,,response,,,,100,,,,,,,Space,keypress(Space),,,,,,,,-- --- ---- --- ------ ----- ------- ---- -- --- ------- --<br>------- ---------- ------ -- ----- -- ----- -- ---- ------<br>--- ----- --- --- ------ -------- ----- --- ------ ----- --<br>these ----- ---------- --- --- ------ ------ ---- -- ------<br>------- --- ------ ----- --- ---- ------- -- ---- --- --<br>------- ------,204831.56500011683,204830.93000017107,204349.525,204350.4200000316,204366.185,204850.255,,33,these
screen,html.Screen,1_1_1_1_34,2021-04-22T14:52:06.341Z,,,,,,,,,,,,,,,,54,,,,,,,,,,,,,,313.3650007051183,,response,,,,100,,,,,,,Space,keypress(Space),,,,,,,,-- --- ---- --- ------ ----- ------- ---- -- --- ------- --<br>------- ---------- ------ -- ----- -- ----- -- ---- ------<br>--- ----- --- --- ------ -------- ----- --- ------ ----- --<br>----- bonds ---------- --- --- ------ ------ ---- -- ------<br>------- --- ------ ----- --- ---- ------- -- ---- --- --<br>------- ------,205164.2300002277,205163.62000070512,204816.007,204831.71000052243,204850.255,205165.989,,34,bonds
screen,html.Screen,1_1_1_1_35,2021-04-22T14:52:06.916Z,,,,,,,,,,,,,,,,54,,,,,,,,,,,,,,572.8510007039295,,response,,,,100,,,,,,,Space,keypress(Space),,,,,,,,"-- --- ---- --- ------ ----- ------- ---- -- --- ------- --<br>------- ---------- ------ -- ----- -- ----- -- ---- ------<br>--- ----- --- --- ------ -------- ----- --- ------ ----- --<br>----- ----- plummeted, --- --- ------ ------ ---- -- ------<br>------- --- ------ ----- --- ---- ------- -- ---- --- --<br>------- ------",205739.46500010788,205738.84000070393,205149.463,205164.42500054836,205165.989,205749.28,,35,"plummeted,"
screen,html.Screen,1_1_1_1_36,2021-04-22T14:52:07.356Z,,,,,,,,,,,,,,,,54,,,,,,,,,,,,,,430.0750001457345,,response,,,,100,,,,,,,Space,keypress(Space),,,,,,,,-- --- ---- --- ------ ----- ------- ---- -- --- ------- --<br>------- ---------- ------ -- ----- -- ----- -- ---- ------<br>--- ----- --- --- ------ -------- ----- --- ------ ----- --<br>----- ----- ---------- and --- ------ ------ ---- -- ------<br>------- --- ------ ----- --- ---- ------- -- ---- --- --<br>------- ------,206179.93000056595,206179.35500014573,205732.661,205739.61499985307,205749.28,206182.498,,36,and
screen,html.Screen,1_1_1_1_37,2021-04-22T14:52:07.772Z,,,,,,,,,,,,,,,,54,,,,,,,,,,,,,,412.33700011266046,,response,,,,100,,,,,,,Space,keypress(Space),,,,,,,,-- --- ---- --- ------ ----- ------- ---- -- --- ------- --<br>------- ---------- ------ -- ----- -- ----- -- ---- ------<br>--- ----- --- --- ------ -------- ----- --- ------ ----- --<br>----- ----- ---------- --- the ------ ------ ---- -- ------<br>------- --- ------ ----- --- ---- ------- -- ---- --- --<br>------- ------,206595.43500002474,206594.83500011265,206165.9,206180.08999992162,206182.498,206599.212,,37,the
screen,html.Screen,1_1_1_1_38,2021-04-22T14:52:08.216Z,,,,,,,,,,,,,,,,54,,,,,,,,,,,,,,439.9330002789502,,response,,,,100,,,,,,,Space,keypress(Space),,,,,,,,-- --- ---- --- ------ ----- ------- ---- -- --- ------- --<br>------- ---------- ------ -- ----- -- ----- -- ---- ------<br>--- ----- --- --- ------ -------- ----- --- ------ ----- --<br>----- ----- ---------- --- --- market ------ ---- -- ------<br>------- --- ------ ----- --- ---- ------- -- ---- --- --<br>------- ------,207039.75000046194,207039.14500027895,206582.559,206595.58500070125,206599.212,207049.111,,38,market
screen,html.Screen,1_1_1_1_39,2021-04-22T14:52:08.614Z,,,,,,,,,,,,,,,,54,,,,,,,,,,,,,,388.19400061064516,,response,,,,100,,,,,,,Space,keypress(Space),,,,,,,,-- --- ---- --- ------ ----- ------- ---- -- --- ------- --<br>------- ---------- ------ -- ----- -- ----- -- ---- ------<br>--- ----- --- --- ------ -------- ----- --- ------ ----- --<br>----- ----- ---------- --- --- ------ became ---- -- ------<br>------- --- ------ ----- --- ---- ------- -- ---- --- --<br>------- ------,207437.89499998093,207437.30500061065,207032.513,207039.89499993622,207049.111,207449.149,,39,became
screen,html.Screen,1_1_1_1_40,2021-04-22T14:52:08.986Z,,,,,,,,,,,,,,,,54,,,,,,,,,,,,,,359.42600061392295,,response,,,,100,,,,,,,Space,keypress(Space),,,,,,,,-- --- ---- --- ------ ----- ------- ---- -- --- ------- --<br>------- ---------- ------ -- ----- -- ----- -- ---- ------<br>--- ----- --- --- ------ -------- ----- --- ------ ----- --<br>----- ----- ---------- --- --- ------ ------ wary -- ------<br>------- --- ------ ----- --- ---- ------- -- ---- --- --<br>------- ------,207809.1900004074,207808.57500061393,207432.38,207438.06000053883,207449.149,207815.692,,40,wary
screen,html.Screen,1_1_1_1_41,2021-04-22T14:52:09.316Z,,,,,,,,,,,,,,,,54,,,,,,,,,,,,,,323.3130007030268,,response,,,,100,,,,,,,Space,keypress(Space),,,,,,,,-- --- ---- --- ------ ----- ------- ---- -- --- ------- --<br>------- ---------- ------ -- ----- -- ----- -- ---- ------<br>--- ----- --- --- ------ -------- ----- --- ------ ----- --<br>----- ----- ---------- --- --- ------ ------ ---- of ------<br>------- --- ------ ----- --- ---- ------- -- ---- --- --<br>------- ------,208139.65500053018,208139.00500070304,207799.013,207809.33499988168,207815.692,208149.073,,41,of
screen,html.Screen,1_1_1_1_42,2021-04-22T14:52:09.702Z,,,,,,,,,,,,,,,,54,,,,,,,,,,,,,,376.4120005730947,,response,,,,100,,,,,,,Space,keypress(Space),,,,,,,,-- --- ---- --- ------ ----- ------- ---- -- --- ------- --<br>------- ---------- ------ -- ----- -- ----- -- ---- ------<br>--- ----- --- --- ------ -------- ----- --- ------ ----- --<br>----- ----- ---------- --- --- ------ ------ ---- -- French<br>------- --- ------ ----- --- ---- ------- -- ---- --- --<br>------- ------,208526.07499994338,208525.4850005731,208132.31,208139.80000000447,208149.073,208532.26,,42,French
screen,html.Screen,1_1_1_1_43,2021-04-22T14:52:10.352Z,,,,,,,,,,,,,,,,54,,,,,,,,,,,,,,642.785000389209,,response,,,,100,,,,,,,Space,keypress(Space),,,,,,,,-- --- ---- --- ------ ----- ------- ---- -- --- ------- --<br>------- ---------- ------ -- ----- -- ----- -- ---- ------<br>--- ----- --- --- ------ -------- ----- --- ------ ----- --<br>----- ----- ---------- --- --- ------ ------ ---- -- ------<br>credit. --- ------ ----- --- ---- ------- -- ---- --- --<br>------- ------,209175.6400000304,209175.04500038922,208515.666,208526.22000034899,208532.26,209182.148,,43,credit.
screen,html.Screen,1_1_1_1_44,2021-04-22T14:52:10.969Z,,,,,,,,,,,,,,,,54,,,,,,,,,,,,,,610.0120006520883,,response,,,,100,,,,,,,Space,keypress(Space),,,,,,,,-- --- ---- --- ------ ----- ------- ---- -- --- ------- --<br>------- ---------- ------ -- ----- -- ----- -- ---- ------<br>--- ----- --- --- ------ -------- ----- --- ------ ----- --<br>----- ----- ---------- --- --- ------ ------ ---- -- ------<br>------- The ------ ----- --- ---- ------- -- ---- --- --<br>------- ------,209792.81000047922,209792.16000065207,209165.546,209175.7900007069,209182.148,209798.7,,44,The
screen,html.Screen,1_1_1_1_45,2021-04-22T14:52:11.505Z,,,,,,,,,,,,,,,,54,,,,,,,,,,,,,,529.1350001200917,,response,,,,100,,,,,,,Space,keypress(Space),,,,,,,,-- --- ---- --- ------ ----- ------- ---- -- --- ------- --<br>------- ---------- ------ -- ----- -- ----- -- ---- ------<br>--- ----- --- --- ------ -------- ----- --- ------ ----- --<br>----- ----- ---------- --- --- ------ ------ ---- -- ------<br>------- --- French ----- --- ---- ------- -- ---- --- --<br>------- ------,210328.47000006586,210327.8350001201,209782.147,209792.9600002244,209798.7,210331.991,,45,French
screen,html.Screen,1_1_1_1_46,2021-04-22T14:52:12.112Z,,,,,,,,,,,,,,,,54,,,,,,,,,,,,,,603.1090003516583,,response,,,,100,,,,,,,Space,keypress(Space),,,,,,,,-- --- ---- --- ------ ----- ------- ---- -- --- ------- --<br>------- ---------- ------ -- ----- -- ----- -- ---- ------<br>--- ----- --- --- ------ -------- ----- --- ------ ----- --<br>----- ----- ---------- --- --- ------ ------ ---- -- ------<br>------- --- ------ state --- ---- ------- -- ---- --- --<br>------- ------,210935.67000050098,210935.10000035167,210315.412,210328.63999996334,210331.991,210948.626,,46,state
screen,html.Screen,1_1_1_1_47,2021-04-22T14:52:12.553Z,,,,,,,,,,,,,,,,54,,,,,,,,,,,,,,427.84400048310636,,response,,,,100,,,,,,,Space,keypress(Space),,,,,,,,-- --- ---- --- ------ ----- ------- ---- -- --- ------- --<br>------- ---------- ------ -- ----- -- ----- -- ---- ------<br>--- ----- --- --- ------ -------- ----- --- ------ ----- --<br>----- ----- ---------- --- --- ------ ------ ---- -- ------<br>------- --- ------ ----- was ---- ------- -- ---- --- --<br>------- ------,211377.11000069976,211376.4700004831,210931.928,210935.82500051707,210948.626,211381.95,,47,was
screen,html.Screen,1_1_1_1_48,2021-04-22T14:52:13.103Z,,,,,,,,,,,,,,,,54,,,,,,,,,,,,,,544.5799998223665,,response,,,,100,,,,,,,Space,keypress(Space),,,,,,,,-- --- ---- --- ------ ----- ------- ---- -- --- ------- --<br>------- ---------- ------ -- ----- -- ----- -- ---- ------<br>--- ----- --- --- ------ -------- ----- --- ------ ----- --<br>----- ----- ---------- --- --- ------ ------ ---- -- ------<br>------- --- ------ ----- --- left ------- -- ---- --- --<br>------- ------,211927.15500015765,211926.52999982238,211365.286,211377.26000044495,211381.95,211931.762,,48,left
screen,html.Screen,1_1_1_1_49,2021-04-22T14:52:13.452Z,,,,,,,,,,,,,,,,54,,,,,,,,,,,,,,343.3930003886344,,response,,,,100,,,,,,,Space,keypress(Space),,,,,,,,-- --- ---- --- ------ ----- ------- ---- -- --- ------- --<br>------- ---------- ------ -- ----- -- ----- -- ---- ------<br>--- ----- --- --- ------ -------- ----- --- ------ ----- --<br>----- ----- ---------- --- --- ------ ------ ---- -- ------<br>------- --- ------ ----- --- ---- without -- ---- --- --<br>------- ------,212275.7600005716,212275.15500038862,211915.208,211927.30499990284,211931.762,212281.711,,49,without
screen,html.Screen,1_1_1_1_50,2021-04-22T14:52:13.883Z,,,,,,,,,,,,,,,,54,,,,,,,,,,,,,,424.0340003921883,,response,,,,100,,,,,,,Space,keypress(Space),,,,,,,,-- --- ---- --- ------ ----- ------- ---- -- --- ------- --<br>------- ---------- ------ -- ----- -- ----- -- ---- ------<br>--- ----- --- --- ------ -------- ----- --- ------ ----- --<br>----- ----- ---------- --- --- ------ ------ ---- -- ------<br>------- --- ------ ----- --- ---- ------- an ---- --- --<br>------- ------,212706.36500045657,212705.7450003922,212265.199,212275.9150005877,212281.711,212715.06,,50,an
screen,html.Screen,1_1_1_1_51,2021-04-22T14:52:14.274Z,,,,,,,,,,,,,,,,54,,,,,,,,,,,,,,382.3200001665973,,response,,,,100,,,,,,,Space,keypress(Space),,,,,,,,-- --- ---- --- ------ ----- ------- ---- -- --- ------- --<br>------- ---------- ------ -- ----- -- ----- -- ---- ------<br>--- ----- --- --- ------ -------- ----- --- ------ ----- --<br>----- ----- ---------- --- --- ------ ------ ---- -- ------<br>------- --- ------ ----- --- ---- ------- -- easy --- --<br>------- ------,213098.05000014603,213097.3800001666,212698.44,212706.52000047266,212715.06,213115.09,,51,easy
screen,html.Screen,1_1_1_1_52,2021-04-22T14:52:14.695Z,,,,,,,,,,,,,,,,54,,,,,,,,,,,,,,402.62000027656904,,response,,,,100,,,,,,,Space,keypress(Space),,,,,,,,-- --- ---- --- ------ ----- ------- ---- -- --- ------- --<br>------- ---------- ------ -- ----- -- ----- -- ---- ------<br>--- ----- --- --- ------ -------- ----- --- ------ ----- --<br>----- ----- ---------- --- --- ------ ------ ---- -- ------<br>------- --- ------ ----- --- ---- ------- -- ---- way --<br>------- ------,213518.31500045955,213517.71000027657,213098.328,213098.19999989122,213115.09,213531.629,,52,way
screen,html.Screen,1_1_1_1_53,2021-04-22T14:52:15.107Z,,,,,,,,,,,,,,,,54,,,,,,,,,,,,,,398.4360004297632,,response,,,,100,,,,,,,Space,keypress(Space),,,,,,,,-- --- ---- --- ------ ----- ------- ---- -- --- ------- --<br>------- ---------- ------ -- ----- -- ----- -- ---- ------<br>--- ----- --- --- ------ -------- ----- --- ------ ----- --<br>----- ----- ---------- --- --- ------ ------ ---- -- ------<br>------- --- ------ ----- --- ---- ------- -- ---- --- of<br>------- ------,213930.68000022322,213930.06500042975,213515.018,213518.45999993384,213531.629,213949.095,,53,of
screen,html.Screen,1_1_1_1_54,2021-04-22T14:52:16.148Z,,,,,,,,,,,,,,,,54,,,,,,,,,,,,,,1022.0700004610408,,response,,,,100,,,,,,,Space,keypress(Space),,,,,,,,-- --- ---- --- ------ ----- ------- ---- -- --- ------- --<br>------- ---------- ------ -- ----- -- ----- -- ---- ------<br>--- ----- --- --- ------ -------- ----- --- ------ ----- --<br>----- ----- ---------- --- --- ------ ------ ---- -- ------<br>------- --- ------ ----- --- ---- ------- -- ---- --- --<br>raising ------,214971.7950001359,214971.16500046104,213914.898,213930.82000035793,213949.095,214981.429,,54,raising
screen,html.Screen,1_1_1_1_55,2021-04-22T14:52:16.637Z,,,,,,,,,,,,,,,,54,,,,,,,,,,,,,,478.9160000286065,,response,,,,100,,,,,,,Space,keypress(Space),,,,,,,,-- --- ---- --- ------ ----- ------- ---- -- --- ------- --<br>------- ---------- ------ -- ----- -- ----- -- ---- ------<br>--- ----- --- --- ------ -------- ----- --- ------ ----- --<br>----- ----- ---------- --- --- ------ ------ ---- -- ------<br>------- --- ------ ----- --- ---- ------- -- ---- --- --<br>------- money.,215461.0999999568,215460.3450000286,214964.826,214971.9550004229,214981.429,215464.619,,55,money.
Item 100,flow.Loop,1_1_1_1,2021-04-22T14:52:16.638Z,,,,,,,,,,,,,,,,,,,,,,,,,,,,,,31491.505000028614,,completion,,,,,E,,,,,,,,,,,silence,,,,,215461.48000005633,215460.3450000286,183952.146,183953.00500001758,183968.84,215464.619,,,
Question 1,html.Screen,1_1_1_2,2021-04-22T14:52:19.559Z,,,,,,,,,,,,,,,,,,,,,,,,,,,true,TRUE,,2917.201000708097,,response,,,,100,E,,,,,,TRUE,click #choice-1,,,,silence,,,,,218382.76000041515,218381.8200007081,215448.077,215461.6649998352,215464.619,218397.646,,,
Question 2,html.Screen,1_1_1_3,2021-04-22T14:52:21.897Z,,,,,,,,,,,,,,,,,,,,,,,,,,,true,FALSE,,2322.429000077478,,response,,,,100,E,,,,,,FALSE,click #choice-2,,,,silence,,,,,220720.97000014037,220720.0750000775,218380.974,218382.91500043124,218397.646,220730.755,,,
Item 100,flow.Sequence,1_1_1,2021-04-22T14:52:21.897Z,,,,,,,,,,,,,,,,,,,,,,,,,,,,,,46750.11800007749,,completion,,,,,,,,,,,,,,,,,,,,,220721.220000647,220720.0750000775,173953.467,173964.25000019372,173969.957,220730.755,,,
End of Practice,html.Page,1_1_2,2021-04-22T14:52:26.077Z,,,,,,,,,,,,,,,,,,,,,,,,,,,,,,4170.220000113244,,form submission,,,,,,,,,,,,,,,,,,,,,224901.2250006199,224900.97500011325,220714.023,220721.344999969,220730.755,224913.475,,,
Practice,flow.Sequence,1_1,2021-04-22T14:52:26.077Z,,,,,,,,,,,,,,,,,,,,,,,,,,,,,,105940.59800011326,,completion,,,,,,,,,,,,,,,,,,,,,224901.4699999243,224900.97500011325,118943.754,118946.4750001207,118960.377,224913.475,,,
Trap_instruction,html.Page,1_2_0,2021-04-22T14:52:30.257Z,,,,,,,,,,,,,,,,,,,,,,,,,,,,,,4167.835000270599,,form submission,,,,,,,,,,,,,,,,,,,,,229081.55999984592,229081.3100002706,224896.832,224901.62000060081,224913.475,229112.947,,,
trap_trial,html.Screen,1_2_1,2021-04-22T14:52:34.525Z,,,,,,,,,,,,,,,,,,,,,,,,,,,true,1,,4234.768000621989,,response,,,,,,,,,,,1,click #choice-1,,,,,,,,,233348.72500039637,233347.71500062197,229079.679,229081.69999998063,229112.947,233362.409,,,
end of trap trial,html.Page,1_2_2,2021-04-22T14:52:36.671Z,,,,,,,,,,,,,,,,,,,,,,,,,,,,,,2132.020999962435,,form submission,,,,,,,,,,,,,,,,,,,,,235494.78000029922,235494.42999996245,233345.865,233348.90499990433,233362.409,235495.399,,,
Trap 1,flow.Sequence,1_2,2021-04-22T14:52:36.671Z,,,,,,,,,,,,,,,,,,,,,,,,,,,,,,10580.954999962443,,completion,,,,,,,,,,,,,,,,,,,,,235495.00000011176,235494.42999996245,224896.832,224901.57500002533,224913.475,235495.399,,,
Standby,html.Page,1_3_0,2021-04-22T14:52:44.655Z,,,,,,,,,,,,,,,,,,,,,,,,,,,,,,7999.013999999996,,timeout,,,,,,,,,,,,,,,,,,,,,243478.69500052184,243477.847,235478.867,235495.16000039876,235495.399,243494.413,,,
Holding screen,html.Screen,1_3_1_0_0,2021-04-22T14:52:51.654Z,,,,,,,,,,,,,,,,,,,,,,,,,,,,,,6999.106,,timeout,,,,,,,,,,,,,,,,,,,,,250477.77500003576,250476.929,243477.847,243478.93999982625,243494.413,250493.519,,,
screen,html.Screen,1_3_1_0_1_0,2021-04-22T14:52:53.007Z,,,,,,,,,,,,,,,,51,,,,,,,,,,,,,,1336.7960003775952,,response,,,,13,E,,,,,,Space,keypress(Space),,,,lyrical,,,,American -------- --- --- ---- --- --- ------ -- --------<br>---- --------- --- ------- ------------ ---------- ---------<br>--- ---------- ------- ---------- ------- -- -------- ----<br>---- --- ------ ----- ------ -- ---- --- ----- -- - -------<br>-------- -- --- --- -- ----- ----------- ----- -----------<br>---- --- ---------- --- ---- --- -- ----------,251831.07000030577,251830.3150003776,250476.929,250478.0050003901,250493.519,251843.311,,0,American
screen,html.Screen,1_3_1_0_1_1,2021-04-22T14:52:53.625Z,,,,,,,,,,,,,,,,51,,,,,,,,,,,,,,604.9340000941884,,response,,,,13,E,,,,,,Space,keypress(Space),,,,lyrical,,,,-------- industry --- --- ---- --- --- ------ -- --------<br>---- --------- --- ------- ------------ ---------- ---------<br>--- ---------- ------- ---------- ------- -- -------- ----<br>---- --- ------ ----- ------ -- ---- --- ----- -- - -------<br>-------- -- --- --- -- ----- ----------- ----- -----------<br>---- --- ---------- --- ---- --- -- ----------,252448.85500054806,252448.24500009418,251826.709,251831.28000050783,251843.311,252459.944,,1,industry
screen,html.Screen,1_3_1_0_1_2,2021-04-22T14:52:54.523Z,,,,,,,,,,,,,,,,51,,,,,,,,,,,,,,886.08600059725,,response,,,,13,E,,,,,,Space,keypress(Space),,,,lyrical,,,,-------- -------- may --- ---- --- --- ------ -- --------<br>---- --------- --- ------- ------------ ---------- ---------<br>--- ---------- ------- ---------- ------- -- -------- ----<br>---- --- ------ ----- ------ -- ---- --- ----- -- - -------<br>-------- -- --- --- -- ----- ----------- ----- -----------<br>---- --- ---------- --- ---- --- -- ----------,253346.7749999836,253346.03000059724,252443.323,252449.00000002235,252459.944,253359.813,,2,may
screen,html.Screen,1_3_1_0_1_3,2021-04-22T14:52:55.069Z,,,,,,,,,,,,,,,,51,,,,,,,,,,,,,,532.9569998021179,,response,,,,13,E,,,,,,Space,keypress(Space),,,,lyrical,,,,-------- -------- --- not ---- --- --- ------ -- --------<br>---- --------- --- ------- ------------ ---------- ---------<br>--- ---------- ------- ---------- ------- -- -------- ----<br>---- --- ------ ----- ------ -- ---- --- ----- -- - -------<br>-------- -- --- --- -- ----- ----------- ----- -----------<br>---- --- ---------- --- ---- --- -- ----------,253893.3899998665,253892.7699998021,253343.132,253346.92500066012,253359.813,253909.865,,3,not
screen,html.Screen,1_3_1_0_1_4,2021-04-22T14:52:55.677Z,,,,,,,,,,,,,,,,51,,,,,,,,,,,,,,590.8800003177021,,response,,,,13,E,,,,,,Space,keypress(Space),,,,lyrical,,,,-------- -------- --- --- know --- --- ------ -- --------<br>---- --------- --- ------- ------------ ---------- ---------<br>--- ---------- ------- ---------- ------- -- -------- ----<br>---- --- ------ ----- ------ -- ---- --- ----- -- - -------<br>-------- -- --- --- -- ----- ----------- ----- -----------<br>---- --- ---------- --- ---- --- -- ----------,254501.43000017852,254500.7450003177,253893.066,253893.540000543,253909.865,254509.678,,4,know
screen,html.Screen,1_3_1_0_1_5,2021-04-22T14:52:56.140Z,,,,,,,,,,,,,,,,51,,,,,,,,,,,,,,453.3770006404375,,response,,,,13,E,,,,,,Space,keypress(Space),,,,lyrical,,,,"-------- -------- --- --- ---- it, --- ------ -- --------<br>---- --------- --- ------- ------------ ---------- ---------<br>--- ---------- ------- ---------- ------- -- -------- ----<br>---- --- ------ ----- ------ -- ---- --- ----- -- - -------<br>-------- -- --- --- -- ----- ----------- ----- -----------<br>---- --- ---------- --- ---- --- -- ----------",254963.72999995947,254963.05500064045,254493.001,254501.5900004655,254509.678,254976.369,,5,"it,"
screen,html.Screen,1_3_1_0_1_6,2021-04-22T14:52:56.746Z,,,,,,,,,,,,,,,,51,,,,,,,,,,,,,,593.201000283414,,response,,,,13,E,,,,,,Space,keypress(Space),,,,lyrical,,,,-------- -------- --- --- ---- --- but ------ -- --------<br>---- --------- --- ------- ------------ ---------- ---------<br>--- ---------- ------- ---------- ------- -- -------- ----<br>---- --- ------ ----- ------ -- ---- --- ----- -- - -------<br>-------- -- --- --- -- ----- ----------- ----- -----------<br>---- --- ---------- --- ---- --- -- ----------,255570.179999806,255569.57000028342,254959.612,254963.96000031382,254976.369,255576.142,,6,but
screen,html.Screen,1_3_1_0_1_7,2021-04-22T14:52:57.361Z,,,,,,,,,,,,,,,,51,,,,,,,,,,,,,,608.6030006753281,,response,,,,13,E,,,,,,Space,keypress(Space),,,,lyrical,,,,-------- -------- --- --- ---- --- --- debate -- --------<br>---- --------- --- ------- ------------ ---------- ---------<br>--- ---------- ------- ---------- ------- -- -------- ----<br>---- --- ------ ----- ------ -- ---- --- ----- -- - -------<br>-------- -- --- --- -- ----- ----------- ----- -----------<br>---- --- ---------- --- ---- --- -- ----------,256185.40500011295,256184.74500067532,255559.626,255570.3300004825,255576.142,256192.746,,7,debate
screen,html.Screen,1_3_1_0_1_8,2021-04-22T14:52:57.958Z,,,,,,,,,,,,,,,,51,,,,,,,,,,,,,,588.8289999135595,,response,,,,13,E,,,,,,Space,keypress(Space),,,,lyrical,,,,-------- -------- --- --- ---- --- --- ------ in --------<br>---- --------- --- ------- ------------ ---------- ---------<br>--- ---------- ------- ---------- ------- -- -------- ----<br>---- --- ------ ----- ------ -- ---- --- ----- -- - -------<br>-------- -- --- --- -- ----- ----------- ----- -----------<br>---- --- ---------- --- ---- --- -- ----------,256782.34000038356,256781.57499991357,256176.213,256185.55000051856,256192.746,256792.692,,8,in
screen,html.Screen,1_3_1_0_1_9,2021-04-22T14:52:58.535Z,,,,,,,,,,,,,,,,51,,,,,,,,,,,,,,566.1680000366468,,response,,,,13,E,,,,,,Space,keypress(Space),,,,lyrical,,,,-------- -------- --- --- ---- --- --- ------ -- Congress<br>---- --------- --- ------- ------------ ---------- ---------<br>--- ---------- ------- ---------- ------- -- -------- ----<br>---- --- ------ ----- ------ -- ---- --- ----- -- - -------<br>-------- -- --- --- -- ----- ----------- ----- -----------<br>---- --- ---------- --- ---- --- -- ----------,257359.50500052422,257358.86000003666,256776.088,256782.49500039965,256792.692,257375.902,,9,Congress
screen,html.Screen,1_3_1_0_1_10,2021-04-22T14:52:59.163Z,,,,,,,,,,,,,,,,51,,,,,,,,,,,,,,610.6179998021107,,response,,,,13,E,,,,,,Space,keypress(Space),,,,lyrical,,,,-------- -------- --- --- ---- --- --- ------ -- --------<br>over --------- --- ------- ------------ ---------- ---------<br>--- ---------- ------- ---------- ------- -- -------- ----<br>---- --- ------ ----- ------ -- ---- --- ----- -- - -------<br>-------- -- --- --- -- ----- ----------- ----- -----------<br>---- --- ---------- --- ---- --- -- ----------,257987.10000049323,257986.5199998021,257359.374,257359.6550002694,257375.902,257992.519,,10,over
screen,html.Screen,1_3_1_0_1_11,2021-04-22T14:53:00.230Z,,,,,,,,,,,,,,,,51,,,,,,,,,,,,,,1060.7159999994037,,response,,,,13,E,,,,,,Space,keypress(Space),,,,lyrical,,,,-------- -------- --- --- ---- --- --- ------ -- --------<br>---- reforming --- ------- ------------ ---------- ---------<br>--- ---------- ------- ---------- ------- -- -------- ----<br>---- --- ------ ----- ------ -- ---- --- ----- -- - -------<br>-------- -- --- --- -- ----- ----------- ----- -----------<br>---- --- ---------- --- ---- --- -- ----------,259054.0950000286,259053.2349999994,257975.951,257987.25000023842,257992.519,259059.068,,11,reforming
screen,html.Screen,1_3_1_0_1_12,2021-04-22T14:53:00.615Z,,,,,,,,,,,,,,,,51,,,,,,,,,,,,,,379.81700053435634,,response,,,,13,E,,,,,,Space,keypress(Space),,,,lyrical,,,,-------- -------- --- --- ---- --- --- ------ -- --------<br>---- --------- the ------- ------------ ---------- ---------<br>--- ---------- ------- ---------- ------- -- -------- ----<br>---- --- ------ ----- ------ -- ---- --- ----- -- - -------<br>-------- -- --- --- -- ----- ----------- ----- -----------<br>---- --- ---------- --- ---- --- -- ----------,259439.49500005692,259438.88500053436,259042.481,259054.2500000447,259059.068,259442.344,,12,the
screen,html.Screen,1_3_1_0_1_13,2021-04-22T14:53:01.111Z,,,,,,,,,,,,,,,,51,,,,,,,,,,,,,,491.98600054209237,,response,,,,13,E,,,,,,Space,keypress(Space),,,,lyrical,,,,-------- -------- --- --- ---- --- --- ------ -- --------<br>---- --------- --- federal ------------ ---------- ---------<br>--- ---------- ------- ---------- ------- -- -------- ----<br>---- --- ------ ----- ------ -- ---- --- ----- -- - -------<br>-------- -- --- --- -- ----- ----------- ----- -----------<br>---- --- ---------- --- ---- --- -- ----------,259934.96000021696,259934.3300005421,259425.839,259439.6449998021,259442.344,259942.353,,13,federal
screen,html.Screen,1_3_1_0_1_14,2021-04-22T14:53:01.801Z,,,,,,,,,,,,,,,,51,,,,,,,,,,,,,,682.0619999693008,,response,,,,13,E,,,,,,Space,keypress(Space),,,,lyrical,,,,-------- -------- --- --- ---- --- --- ------ -- --------<br>---- --------- --- ------- government's ---------- ---------<br>--- ---------- ------- ---------- ------- -- -------- ----<br>---- --- ------ ----- ------ -- ---- --- ----- -- - -------<br>-------- -- --- --- -- ----- ----------- ----- -----------<br>---- --- ---------- --- ---- --- -- ----------,260625.07000006735,260624.4149999693,259925.722,259935.10500062257,259942.353,260642.316,,14,government's
screen,html.Screen,1_3_1_0_1_15,2021-04-22T14:53:02.601Z,,,,,,,,,,,,,,,,51,,,,,,,,,,,,,,782.3990002047503,,response,,,,13,E,,,,,,Space,keypress(Space),,,,lyrical,,,,-------- -------- --- --- ---- --- --- ------ -- --------<br>---- --------- --- ------- ------------ regulatory ---------<br>--- ---------- ------- ---------- ------- -- -------- ----<br>---- --- ------ ----- ------ -- ---- --- ----- -- - -------<br>-------- -- --- --- -- ----- ----------- ----- -----------<br>---- --- ---------- --- ---- --- -- ----------,261425.38500018418,261424.71500020474,260625.486,260625.21999981254,260642.316,261442.131,,15,regulatory
screen,html.Screen,1_3_1_0_1_16,2021-04-22T14:53:03.257Z,,,,,,,,,,,,,,,,51,,,,,,,,,,,,,,638.0039999383152,,response,,,,13,E,,,,,,Space,keypress(Space),,,,lyrical,,,,-------- -------- --- --- ---- --- --- ------ -- --------<br>---- --------- --- ------- ------------ ---------- apparatus<br>--- ---------- ------- ---------- ------- -- -------- ----<br>---- --- ------ ----- ------ -- ---- --- ----- -- - -------<br>-------- -- --- --- -- ----- ----------- ----- -----------<br>---- --- ---------- --- ---- --- -- ----------,262080.76999988407,262080.1349999383,261425.498,261425.54500047117,261442.131,262092.12,,16,apparatus
screen,html.Screen,1_3_1_0_1_17,2021-04-22T14:53:03.961Z,,,,,,,,,,,,,,,,51,,,,,,,,,,,,,,692.7000006410526,,response,,,,13,E,,,,,,Space,keypress(Space),,,,lyrical,,,,-------- -------- --- --- ---- --- --- ------ -- --------<br>---- --------- --- ------- ------------ ---------- ---------<br>may ---------- ------- ---------- ------- -- -------- ----<br>---- --- ------ ----- ------ -- ---- --- ----- -- - -------<br>-------- -- --- --- -- ----- ----------- ----- -----------<br>---- --- ---------- --- ---- --- -- ----------,262785.4700004682,262784.82000064105,262075.433,262080.91000001878,262092.12,262792.017,,17,may
screen,html.Screen,1_3_1_0_1_18,2021-04-22T14:53:04.782Z,,,,,,,,,,,,,,,,51,,,,,,,,,,,,,,813.4780002580956,,response,,,,13,E,,,,,,Space,keypress(Space),,,,lyrical,,,,-------- -------- --- --- ---- --- --- ------ -- --------<br>---- --------- --- ------- ------------ ---------- ---------<br>--- profoundly ------- ---------- ------- -- -------- ----<br>---- --- ------ ----- ------ -- ---- --- ----- -- - -------<br>-------- -- --- --- -- ----- ----------- ----- -----------<br>---- --- ---------- --- ---- --- -- ----------,263606.2000002712,263605.4950002581,262775.331,262785.605000332,262792.017,263608.484,,18,profoundly
screen,html.Screen,1_3_1_0_1_19,2021-04-22T14:53:05.421Z,,,,,,,,,,,,,,,,51,,,,,,,,,,,,,,635.7010006580385,,response,,,,13,E,,,,,,Space,keypress(Space),,,,lyrical,,,,-------- -------- --- --- ---- --- --- ------ -- --------<br>---- --------- --- ------- ------------ ---------- ---------<br>--- ---------- improve ---------- ------- -- -------- ----<br>---- --- ------ ----- ------ -- ---- --- ----- -- - -------<br>-------- -- --- --- -- ----- ----------- ----- -----------<br>---- --- ---------- --- ---- --- -- ----------,264244.8150003329,264244.18500065804,263591.897,263606.3450006768,263608.484,264258.485,,19,improve
screen,html.Screen,1_3_1_0_1_20,2021-04-22T14:53:05.989Z,,,,,,,,,,,,,,,,51,,,,,,,,,,,,,,554.4200005227467,,response,,,,13,E,,,,,,Space,keypress(Space),,,,lyrical,,,,-------- -------- --- --- ---- --- --- ------ -- --------<br>---- --------- --- ------- ------------ ---------- ---------<br>--- ---------- ------- companies' ------- -- -------- ----<br>---- --- ------ ----- ------ -- ---- --- ----- -- - -------<br>-------- -- --- --- -- ----- ----------- ----- -----------<br>---- --- ---------- --- ---- --- -- ----------,264813.5200003162,264812.90500052273,264241.743,264244.9500001967,264258.485,264824.991,,20,companies'
screen,html.Screen,1_3_1_0_1_21,2021-04-22T14:53:06.576Z,,,,,,,,,,,,,,,,51,,,,,,,,,,,,,,574.7790000181994,,response,,,,13,E,,,,,,Space,keypress(Space),,,,lyrical,,,,-------- -------- --- --- ---- --- --- ------ -- --------<br>---- --------- --- ------- ------------ ---------- ---------<br>--- ---------- ------- ---------- ability -- -------- ----<br>---- --- ------ ----- ------ -- ---- --- ----- -- - -------<br>-------- -- --- --- -- ----- ----------- ----- -----------<br>---- --- ---------- --- ---- --- -- ----------,265400.3349998966,265399.7700000182,264808.412,264813.6600004509,264824.991,265408.29,,21,ability
screen,html.Screen,1_3_1_0_1_22,2021-04-22T14:53:06.928Z,,,,,,,,,,,,,,,,51,,,,,,,,,,,,,,343.3700005328865,,response,,,,13,E,,,,,,Space,keypress(Space),,,,lyrical,,,,-------- -------- --- --- ---- --- --- ------ -- --------<br>---- --------- --- ------- ------------ ---------- ---------<br>--- ---------- ------- ---------- ------- to -------- ----<br>---- --- ------ ----- ------ -- ---- --- ----- -- - -------<br>-------- -- --- --- -- ----- ----------- ----- -----------<br>---- --- ---------- --- ---- --- -- ----------,265752.1999999881,265751.66000053287,265391.516,265400.4750000313,265408.29,265758.19,,22,to
screen,html.Screen,1_3_1_0_1_23,2021-04-22T14:53:07.576Z,,,,,,,,,,,,,,,,51,,,,,,,,,,,,,,640.9200005805469,,response,,,,13,E,,,,,,Space,keypress(Space),,,,lyrical,,,,-------- -------- --- --- ---- --- --- ------ -- --------<br>---- --------- --- ------- ------------ ---------- ---------<br>--- ---------- ------- ---------- ------- -- survive. ----<br>---- --- ------ ----- ------ -- ---- --- ----- -- - -------<br>-------- -- --- --- -- ----- ----------- ----- -----------<br>---- --- ---------- --- ---- --- -- ----------,266399.67000018805,266399.11000058055,265741.634,265752.3450003937,265758.19,266408.161,,23,survive.
screen,html.Screen,1_3_1_0_1_24,2021-04-22T14:53:08.144Z,,,,,,,,,,,,,,,,51,,,,,,,,,,,,,,559.2590005829115,,response,,,,13,E,,,,,,Space,keypress(Space),,,,lyrical,,,,-------- -------- --- --- ---- --- --- ------ -- --------<br>---- --------- --- ------- ------------ ---------- ---------<br>--- ---------- ------- ---------- ------- -- -------- This<br>---- --- ------ ----- ------ -- ---- --- ----- -- - -------<br>-------- -- --- --- -- ----- ----------- ----- -----------<br>---- --- ---------- --- ---- --- -- ----------,266968.020000495,266967.42000058293,266391.551,266399.80500005186,266408.161,266974.763,,24,This
screen,html.Screen,1_3_1_0_1_25,2021-04-22T14:53:08.560Z,,,,,,,,,,,,,,,,51,,,,,,,,,,,,,,409.2120001207222,,response,,,,13,E,,,,,,Space,keypress(Space),,,,lyrical,,,,-------- -------- --- --- ---- --- --- ------ -- --------<br>---- --------- --- ------- ------------ ---------- ---------<br>--- ---------- ------- ---------- ------- -- -------- ----<br>week --- ------ ----- ------ -- ---- --- ----- -- - -------<br>-------- -- --- --- -- ----- ----------- ----- -----------<br>---- --- ---------- --- ---- --- -- ----------,267384.50499996543,267383.9750001207,266958.159,266968.1550003588,266974.763,267391.37,,25,week
screen,html.Screen,1_3_1_0_1_26,2021-04-22T14:53:08.965Z,,,,,,,,,,,,,,,,51,,,,,,,,,,,,,,396.75499996275175,,response,,,,13,E,,,,,,Space,keypress(Space),,,,lyrical,,,,-------- -------- --- --- ---- --- --- ------ -- --------<br>---- --------- --- ------- ------------ ---------- ---------<br>--- ---------- ------- ---------- ------- -- -------- ----<br>---- the ------ ----- ------ -- ---- --- ----- -- - -------<br>-------- -- --- --- -- ----- ----------- ----- -----------<br>---- --- ---------- --- ---- --- -- ----------,267788.69500011206,267788.12499996275,267374.752,267384.64500010014,267391.37,267791.233,,26,the
screen,html.Screen,1_3_1_0_1_27,2021-04-22T14:53:09.237Z,,,,,,,,,,,,,,,,51,,,,,,,,,,,,,,269.84200009237975,,response,,,,13,E,,,,,,Space,keypress(Space),,,,lyrical,,,,-------- -------- --- --- ---- --- --- ------ -- --------<br>---- --------- --- ------- ------------ ---------- ---------<br>--- ---------- ------- ---------- ------- -- -------- ----<br>---- --- Senate ----- ------ -- ---- --- ----- -- - -------<br>-------- -- --- --- -- ----- ----------- ----- -----------<br>---- --- ---------- --- ---- --- -- ----------,268061.59500032663,268061.0750000924,267774.707,267788.83500024676,267791.233,268074.662,,27,Senate
screen,html.Screen,1_3_1_0_1_28,2021-04-22T14:53:09.693Z,,,,,,,,,,,,,,,,51,,,,,,,,,,,,,,442.2230002810247,,response,,,,13,E,,,,,,Space,keypress(Space),,,,lyrical,,,,-------- -------- --- --- ---- --- --- ------ -- --------<br>---- --------- --- ------- ------------ ---------- ---------<br>--- ---------- ------- ---------- ------- -- -------- ----<br>---- --- ------ seems ------ -- ---- --- ----- -- - -------<br>-------- -- --- --- -- ----- ----------- ----- -----------<br>---- --- ---------- --- ---- --- -- ----------,268517.4850001931,268516.88500028104,268057.956,268061.8150001392,268074.662,268524.519,,28,seems
screen,html.Screen,1_3_1_0_1_29,2021-04-22T14:53:10.038Z,,,,,,,,,,,,,,,,51,,,,,,,,,,,,,,337.15100047865417,,response,,,,13,E,,,,,,Space,keypress(Space),,,,lyrical,,,,-------- -------- --- --- ---- --- --- ------ -- --------<br>---- --------- --- ------- ------------ ---------- ---------<br>--- ---------- ------- ---------- ------- -- -------- ----<br>---- --- ------ ----- poised -- ---- --- ----- -- - -------<br>-------- -- --- --- -- ----- ----------- ----- -----------<br>---- --- ---------- --- ---- --- -- ----------,268862.2449999675,268861.6700004786,268507.86,268517.6300005987,268524.519,268874.454,,29,poised
screen,html.Screen,1_3_1_0_1_30,2021-04-22T14:53:10.626Z,,,,,,,,,,,,,,,,51,,,,,,,,,,,,,,574.9960001892177,,response,,,,13,E,,,,,,Space,keypress(Space),,,,lyrical,,,,-------- -------- --- --- ---- --- --- ------ -- --------<br>---- --------- --- ------- ------------ ---------- ---------<br>--- ---------- ------- ---------- ------- -- -------- ----<br>---- --- ------ ----- ------ to ---- --- ----- -- - -------<br>-------- -- --- --- -- ----- ----------- ----- -----------<br>---- --- ---------- --- ---- --- -- ----------,269449.9900005758,269449.45000018924,268857.815,268862.3850001022,268874.454,269457.864,,30,to
screen,html.Screen,1_3_1_0_1_31,2021-04-22T14:53:11.287Z,,,,,,,,,,,,,,,,51,,,,,,,,,,,,,,652.631000146328,,response,,,,13,E,,,,,,Space,keypress(Space),,,,lyrical,,,,-------- -------- --- --- ---- --- --- ------ -- --------<br>---- --------- --- ------- ------------ ---------- ---------<br>--- ---------- ------- ---------- ------- -- -------- ----<br>---- --- ------ ----- ------ -- join --- ----- -- - -------<br>-------- -- --- --- -- ----- ----------- ----- -----------<br>---- --- ---------- --- ---- --- -- ----------,270111.0200006515,270110.49500014633,269441.145,269450.1300007105,269457.864,270124.273,,31,join
screen,html.Screen,1_3_1_0_1_32,2021-04-22T14:53:11.629Z,,,,,,,,,,,,,,,,51,,,,,,,,,,,,,,328.36200045986334,,response,,,,13,E,,,,,,Space,keypress(Space),,,,lyrical,,,,-------- -------- --- --- ---- --- --- ------ -- --------<br>---- --------- --- ------- ------------ ---------- ---------<br>--- ---------- ------- ---------- ------- -- -------- ----<br>---- --- ------ ----- ------ -- ---- the ----- -- - -------<br>-------- -- --- --- -- ----- ----------- ----- -----------<br>---- --- ---------- --- ---- --- -- ----------,270453.23500037193,270452.63500045985,270107.613,270111.15999985486,270124.273,270457.613,,32,the
screen,html.Screen,1_3_1_0_1_33,2021-04-22T14:53:12.237Z,,,,,,,,,,,,,,,,51,,,,,,,,,,,,,,603.312000347185,,response,,,,13,E,,,,,,Space,keypress(Space),,,,lyrical,,,,-------- -------- --- --- ---- --- --- ------ -- --------<br>---- --------- --- ------- ------------ ---------- ---------<br>--- ---------- ------- ---------- ------- -- -------- ----<br>---- --- ------ ----- ------ -- ---- --- House -- - -------<br>-------- -- --- --- -- ----- ----------- ----- -----------<br>---- --- ---------- --- ---- --- -- ----------,271061.4950004965,271060.9250003472,270441.025,270453.37000023574,270457.613,271074.186,,33,House
screen,html.Screen,1_3_1_0_1_34,2021-04-22T14:53:12.506Z,,,,,,,,,,,,,,,,51,,,,,,,,,,,,,,254.95900031621568,,response,,,,13,E,,,,,,Space,keypress(Space),,,,lyrical,,,,-------- -------- --- --- ---- --- --- ------ -- --------<br>---- --------- --- ------- ------------ ---------- ---------<br>--- ---------- ------- ---------- ------- -- -------- ----<br>---- --- ------ ----- ------ -- ---- --- ----- in - -------<br>-------- -- --- --- -- ----- ----------- ----- -----------<br>---- --- ---------- --- ---- --- -- ----------,271329.68000043184,271329.1450003162,271057.547,271061.6700006649,271074.186,271340.834,,34,in
screen,html.Screen,1_3_1_0_1_35,2021-04-22T14:53:12.884Z,,,,,,,,,,,,,,,,51,,,,,,,,,,,,,,366.71600039937766,,response,,,,13,E,,,,,,Space,keypress(Space),,,,lyrical,,,,-------- -------- --- --- ---- --- --- ------ -- --------<br>---- --------- --- ------- ------------ ---------- ---------<br>--- ---------- ------- ---------- ------- -- -------- ----<br>---- --- ------ ----- ------ -- ---- --- ----- -- a -------<br>-------- -- --- --- -- ----- ----------- ----- -----------<br>---- --- ---------- --- ---- --- -- ----------,271708.08999985456,271707.55000039935,271324.289,271329.8249999061,271340.834,271724.075,,35,a
screen,html.Screen,1_3_1_0_1_36,2021-04-22T14:53:13.651Z,,,,,,,,,,,,,,,,51,,,,,,,,,,,,,,750.5800004929188,,response,,,,13,E,,,,,,Space,keypress(Space),,,,lyrical,,,,-------- -------- --- --- ---- --- --- ------ -- --------<br>---- --------- --- ------- ------------ ---------- ---------<br>--- ---------- ------- ---------- ------- -- -------- ----<br>---- --- ------ ----- ------ -- ---- --- ----- -- - massive<br>-------- -- --- --- -- ----- ----------- ----- -----------<br>---- --- ---------- --- ---- --- -- ----------,272475.22000037134,272474.65500049293,271707.384,271708.2299999893,271724.075,272490.768,,36,massive
screen,html.Screen,1_3_1_0_1_37,2021-04-22T14:53:14.215Z,,,,,,,,,,,,,,,,51,,,,,,,,,,,,,,547.3670005045715,,response,,,,13,E,,,,,,Space,keypress(Space),,,,lyrical,,,,-------- -------- --- --- ---- --- --- ------ -- --------<br>---- --------- --- ------- ------------ ---------- ---------<br>--- ---------- ------- ---------- ------- -- -------- ----<br>---- --- ------ ----- ------ -- ---- --- ----- -- - -------<br>overhaul -- --- --- -- ----- ----------- ----- -----------<br>---- --- ---------- --- ---- --- -- ----------,273038.6600000784,273038.13500050455,272474.08,272475.35500023514,272490.768,273040.606,,37,overhaul
