sender,sender_type,sender_id,timestamp,meta,,Blues,Classical,Country,Dance,Electronic,Folk,Gospel,Hip-Hop,Jazz,Latin,Musical/Film,New-age,Pop,Provo_ID,R&B,Rap,Reggae,Religious,Rock,Soul,Swing,Traditional,age,artist_name,correct,correctResponse,distraction,duration,education,ended_on,familiarity,gender,headphone_check_performance,item,list,music_frequency,offensiveness,pleasantness,position_correct,preference,response,response_action,snippet_file,song_name,song_rating,sound,stimulus_1,stimulus_2,stimulus_3,text,time_commit,time_end,time_render,time_run,time_show,time_switch,url,word,word_ID
Introduction,html.Screen,0_0,2021-04-22T08:52:59.773Z,"{""labjs_version"":""20.2.2"",""labjs_build"":{""flavor"":""production"",""commit"":""a25486e0c714a0ae2ce03ff94b7bb6896854dcfa""},""location"":""https://run.pavlovia.org/mvasilev/music_f/"",""userAgent"":""Mozilla/5.0 (Windows NT 10.0; Win64; x64) AppleWebKit/537.36 (KHTML, like Gecko) Chrome/89.0.4389.128 Safari/537.36"",""platform"":""Win32"",""language"":""en-GB"",""locale"":""en-GB"",""timeZone"":""Europe/London"",""timezoneOffset"":-60,""screen_width"":1280,""screen_height"":720,""scroll_width"":1920,""scroll_height"":867,""window_innerWidth"":1920,""window_innerHeight"":915,""devicePixelRatio"":1}",,,,,,,,,,,,,,,,,,,,,,,,,,,,,10553.967999950451,,response,,,,,,,,,,,continue,click button,,,,,,,,,48531.87000006437,48528.674999950454,37849.727,37860.6050000526,37974.707,48550.456,{},,
Volume calibration,html.Screen,0_1,2021-04-22T08:54:07.750Z,,,,,,,,,,,,,,,,,,,,,,,,,,,,,,67952.13400004734,,response,,,,,,,,,,,continue,click button,,,,,,,,,116509.10500006285,116502.59000004735,48517.433,48532.254999969155,48550.456,116518.099,,,
Task instructions,html.Screen,0_2,2021-04-22T09:01:26.395Z,,,,,,,,,,,,,,,,,,,,,,,,,,,,,,438634.0659999777,,response,,,,,,,,,,,continue,click button,,,,,,,,,555153.9699999848,555152.1649999777,116501.741,116511.70999999158,116518.099,555169.02,,,
Sounds,html.Screen,0_3_0_0,2021-04-22T09:01:30.650Z,,,,,,,,,,,,,,,,,,,,,,,,,,,,,,4246.29999999993,,timeout,,,,,,,,,3,,,,,,,,I,O,S,,559408.6649999954,559398.849,555151.946,555154.3450000463,555169.02,559415.32,,,
Judgement,html.Screen,0_3_0_1,2021-04-22T09:01:33.359Z,,,,,,,,,,,,,,,,,,,,,,,,,,,true,3,,2698.935000022291,,response,,,,,,,,,3,,3,click #choice-3,,,,,I,O,S,,562118.359999964,562114.2550000222,559398.849,559409.0650000144,559415.32,562130.993,,,
Trial,flow.Sequence,0_3_0,2021-04-22T09:01:33.360Z,,,,,,,,,,,,,,,,,,,,,,,,,,,,,,6945.235000022221,,completion,,,,,,,,,3,,,,,,,,I,O,S,,562118.9399999566,562114.2550000222,555151.946,555154.2449999833,555169.02,562130.993,,,
Sounds,html.Screen,0_3_1_0,2021-04-22T09:01:37.603Z,,,,,,,,,,,,,,,,,,,,,,,,,,,,,,4246.243999999948,,timeout,,,,,,,,,2,,,,,,,,I,S,O,,566361.8900000583,566360.478,562113.369,562119.2449999508,562130.993,566377.237,,,
Judgement,html.Screen,0_3_1_1,2021-04-22T09:01:39.318Z,,,,,,,,,,,,,,,,,,,,,,,,,,,true,2,,1697.3529999747407,,response,,,,,,,,,2,,2,click #choice-2,,,,,I,S,O,,568077.1650000243,568074.5899999747,566360.478,566362.22000001,566377.237,568092.58,,,
Trial,flow.Sequence,0_3_1,2021-04-22T09:01:39.318Z,,,,,,,,,,,,,,,,,,,,,,,,,,,,,,5943.5969999746885,,completion,,,,,,,,,2,,,,,,,,I,S,O,,568077.5600000052,568074.5899999747,562113.369,562119.1300000064,562130.993,568092.58,,,
Sounds,html.Screen,0_3_2_0,2021-04-22T09:01:43.565Z,,,,,,,,,,,,,,,,,,,,,,,,,,,,,,4246.673999999999,,timeout,,,,,,,,,1,,,,,,,,S,I,O,,572324.1400000406,572322.837,568059.499,568077.825000044,568092.58,572339.254,,,
Judgement,html.Screen,0_3_2_1,2021-04-22T09:01:44.393Z,,,,,,,,,,,,,,,,,,,,,,,,,,,true,1,,811.13599996618,,response,,,,,,,,,1,,1,click #choice-1,,,,,S,I,O,,573152.1199999843,573150.3899999661,572322.837,572324.6049999725,572339.254,573172.233,,,
Trial,flow.Sequence,0_3_2,2021-04-22T09:01:44.393Z,,,,,,,,,,,,,,,,,,,,,,,,,,,,,,5057.809999966179,,completion,,,,,,,,,1,,,,,,,,S,I,O,,573152.3850000231,573150.3899999661,568059.499,568077.750000055,568092.58,573172.233,,,
Sounds,html.Screen,0_3_3_0,2021-04-22T09:01:48.646Z,,,,,,,,,,,,,,,,,,,,,,,,,,,,,,4246.773000000045,,timeout,,,,,,,,,3,,,,,,,,O,I,S,,577404.605000047,577402.576,573155.474,573152.5749999564,573172.233,577419.006,,,
Judgement,html.Screen,0_3_3_1,2021-04-22T09:01:51.654Z,,,,,,,,,,,,,,,,,,,,,,,,,,,true,3,,2992.1890000514686,,response,,,,,,,,,3,,3,click #choice-3,,,,,O,I,S,,580413.040000014,580411.1950000515,577402.576,577405.0600000191,577419.006,580416.809,,,
Trial,flow.Sequence,0_3_3,2021-04-22T09:01:51.654Z,,,,,,,,,,,,,,,,,,,,,,,,,,,,,,7238.962000051513,,completion,,,,,,,,,3,,,,,,,,O,I,S,,580413.3099999744,580411.1950000515,573155.474,573152.5100000435,573172.233,580416.809,,,
Sounds,html.Screen,0_3_4_0,2021-04-22T09:01:55.890Z,,,,,,,,,,,,,,,,,,,,,,,,,,,,,,4246.94299999997,,timeout,,,,,,,,,2,,,,,,,,O,S,I,,584648.7450000132,584647.291,580400.453,580413.4850000264,580416.809,584663.752,,,
Judgement,html.Screen,0_3_4_1,2021-04-22T09:01:57.783Z,,,,,,,,,,,,,,,,,,,,,,,,,,,true,2,,1876.4130000130972,,response,,,,,,,,,2,,2,click #choice-2,,,,,O,S,I,,586542.2200000612,586540.1650000131,584647.291,584649.0749999648,584663.752,586545.8,,,
Trial,flow.Sequence,0_3_4,2021-04-22T09:01:57.783Z,,,,,,,,,,,,,,,,,,,,,,,,,,,,,,6123.356000013067,,completion,,,,,,,,,2,,,,,,,,O,S,I,,586542.5800000085,586540.1650000131,580400.453,580413.4299999569,580416.809,586545.8,,,
Sounds,html.Screen,0_3_5_0,2021-04-22T09:02:02.018Z,,,,,,,,,,,,,,,,,,,,,,,,,,,,,,4247.329999999958,,timeout,,,,,,,,,1,,,,,,,,S,O,I,,590777.3250000319,590776.049,586529.857,586542.7749999799,586545.8,590793.13,,,
Judgement,html.Screen,0_3_5_1,2021-04-22T09:02:02.804Z,,,,,,,,,,,,,,,,,,,,,,,,,,,true,1,,768.2700000059558,,response,,,,,,,,,1,,1,click #choice-1,,,,,S,O,I,,591563.444999978,591561.400000006,590776.049,590777.6000000304,590793.13,591575.474,,,
Trial,flow.Sequence,0_3_5,2021-04-22T09:02:02.805Z,,,,,,,,,,,,,,,,,,,,,,,,,,,,,,5015.600000005914,,completion,,,,,,,,,1,,,,,,,,S,O,I,,591563.8000000035,591561.400000006,586529.857,586542.7200000267,586545.8,591575.474,,,
Task,flow.Loop,0_3,2021-04-22T09:02:02.811Z,,,,,,,,,,,,,,,,,,,,,,,,,,,,,,36392.38000000594,,completion,,,1,,,,,,,,,,,,,,,,,,591570.0799999759,591561.400000006,555151.946,555154.1750000324,555169.02,591575.474,,,
Trap,html.Screen,0_4,2021-04-22T09:02:02.823Z,,,,,,,,,,,,,,,,,,,,,,,,,,,,,,NaN,,skipped,,,,,,,,,,,,,,,,,,,,,591582.5200000545,591561.400000006,,591582.1650000289,,591575.474,,,
Thanks,html.Screen,0_5,2021-04-22T09:02:13.772Z,,,,,,,,,,,,,,,,,,,,,,,,,,,,,,10953.826000052853,,response,,,,,,,,,,,continue,click button,,,,,,,,,602531.0449999524,602529.3000000529,591558.886,591582.7000000281,591575.474,610778.264,,,
Headphone screening,flow.Sequence,0,2021-04-22T09:02:13.772Z,,,,,,,,,,,,,,,,,,,,,,,,,,,,,,564554.5930000528,,completion,,,,,,,,,,,,,,,,,,,,,602531.2949999934,602529.3000000529,37849.727,37860.51500006579,37974.707,610778.264,,,
Instructions,html.Page,1_0,2021-04-22T09:03:16.793Z,,,,,,,,,,,,,,,,,,,,,,,,,,,,,,54772.57100000186,,form submission,,,,,,,,,,,,,,,,,,,,,665551.2500000186,665550.8350000018,610628.669,610722.9100000113,610778.264,665555.4,,,
Holding screen,html.Screen,1_1_0_0,2021-04-22T09:03:26.774Z,,,,,,,,,,,,,,,,,,,,,,,,,,,,,,10042.73199999996,,timeout,,,,,,,,,,,,,,,,,,,,,675533.0049999757,675531.738,665538.823,665551.545000053,665555.4,675598.132,,,
screen,html.Screen,1_1_0_1_0,2021-04-22T09:03:27.847Z,,,,,,,,,,,,,,,,53,,,,,,,,,,,,,,1001.4679999577347,,response,,,,99,,,,,,,Space,keypress(Space),,,,,,,,When -- ----- -- ------ - ------- --- ----------<br>------------- ------ ------ ---- ---- ------- ----- -- ----<br>-------- ------- -- ---------- --- - --- ----- ----- ----<br>---- --- --- ----- --- ---- ---- ------- ----- ---- -------<br>--- --- -- ----- -- --- ---- -- --- ---- -- ------ ------<br>--- ----- -- ----,676605.6999999564,676599.5999999577,675531.738,675533.4299999522,675598.132,676614.115,,0,When
screen,html.Screen,1_1_0_1_1,2021-04-22T09:03:28.388Z,,,,,,,,,,,,,,,,53,,,,,,,,,,,,,,530.6199999798555,,response,,,,99,,,,,,,Space,keypress(Space),,,,,,,,---- it ----- -- ------ - ------- --- ----------<br>------------- ------ ------ ---- ---- ------- ----- -- ----<br>-------- ------- -- ---------- --- - --- ----- ----- ----<br>---- --- --- ----- --- ---- ---- ------- ----- ---- -------<br>--- --- -- ----- -- --- ---- -- --- ---- -- ------ ------<br>--- ----- -- ----,677146.9550000038,677144.7349999798,676598.283,676606.0249999864,676614.115,677163.986,,1,it
screen,html.Screen,1_1_0_1_2,2021-04-22T09:03:28.969Z,,,,,,,,,,,,,,,,53,,,,,,,,,,,,,,561.4790000249632,,response,,,,99,,,,,,,Space,keypress(Space),,,,,,,,---- -- comes -- ------ - ------- --- ----------<br>------------- ------ ------ ---- ---- ------- ----- -- ----<br>-------- ------- -- ---------- --- - --- ----- ----- ----<br>---- --- --- ----- --- ---- ---- ------- ----- ---- -------<br>--- --- -- ----- -- --- ---- -- --- ---- -- ------ ------<br>--- ----- -- ----,677727.8299999889,677725.465000025,677147.606,677147.2500000382,677163.986,677729.972,,2,comes
screen,html.Screen,1_1_0_1_3,2021-04-22T09:03:29.374Z,,,,,,,,,,,,,,,,53,,,,,,,,,,,,,,401.01300005440135,,response,,,,99,,,,,,,Space,keypress(Space),,,,,,,,---- -- ----- to ------ - ------- --- ----------<br>------------- ------ ------ ---- ---- ------- ----- -- ----<br>-------- ------- -- ---------- --- - --- ----- ----- ----<br>---- --- --- ----- --- ---- ---- ------- ----- ---- -------<br>--- --- -- ----- -- --- ---- -- --- ---- -- ------ ------<br>--- ----- -- ----,678133.3299999824,678130.9850000544,677713.639,677728.1150000636,677729.972,678146.5,,3,to
screen,html.Screen,1_1_0_1_4,2021-04-22T09:03:29.860Z,,,,,,,,,,,,,,,,53,,,,,,,,,,,,,,469.97999996785074,,response,,,,99,,,,,,,Space,keypress(Space),,,,,,,,---- -- ----- -- having - ------- --- ----------<br>------------- ------ ------ ---- ---- ------- ----- -- ----<br>-------- ------- -- ---------- --- - --- ----- ----- ----<br>---- --- --- ----- --- ---- ---- ------- ----- ---- -------<br>--- --- -- ----- -- --- ---- -- --- ---- -- ------ ------<br>--- ----- -- ----,678618.8000000548,678616.4799999679,678130.094,678133.6250000168,678146.5,678629.331,,4,having
screen,html.Screen,1_1_0_1_5,2021-04-22T09:03:30.245Z,,,,,,,,,,,,,,,,53,,,,,,,,,,,,,,372.9139999814797,,response,,,,99,,,,,,,Space,keypress(Space),,,,,,,,---- -- ----- -- ------ a ------- --- ----------<br>------------- ------ ------ ---- ---- ------- ----- -- ----<br>-------- ------- -- ---------- --- - --- ----- ----- ----<br>---- --- --- ----- --- ---- ---- ------- ----- ---- -------<br>--- --- -- ----- -- --- ---- -- --- ---- -- ------ ------<br>--- ----- -- ----,679004.3999999762,679002.2449999815,678612.967,678625.7200000109,678629.331,679012.651,,5,a
screen,html.Screen,1_1_0_1_6,2021-04-22T09:03:30.686Z,,,,,,,,,,,,,,,,53,,,,,,,,,,,,,,429.79899997322354,,response,,,,99,,,,,,,Space,keypress(Space),,,,,,,,---- -- ----- -- ------ - lasting --- ----------<br>------------- ------ ------ ---- ---- ------- ----- -- ----<br>-------- ------- -- ---------- --- - --- ----- ----- ----<br>---- --- --- ----- --- ---- ---- ------- ----- ---- -------<br>--- --- -- ----- -- --- ---- -- --- ---- -- ------ ------<br>--- ----- -- ----,679444.765000022,679442.4499999732,678996.158,679004.6850000508,679012.651,679478.821,,6,lasting
screen,html.Screen,1_1_0_1_7,2021-04-22T09:03:31.128Z,,,,,,,,,,,,,,,,53,,,,,,,,,,,,,,406.01899995515123,,response,,,,99,,,,,,,Space,keypress(Space),,,,,,,,---- -- ----- -- ------ - ------- and ----------<br>------------- ------ ------ ---- ---- ------- ----- -- ----<br>-------- ------- -- ---------- --- - --- ----- ----- ----<br>---- --- --- ----- --- ---- ---- ------- ----- ---- -------<br>--- --- -- ----- -- --- ---- -- --- ---- -- ------ ------<br>--- ----- -- ----,679887.4200000428,679884.8399999551,679462.232,679445.0450000586,679478.821,679895.082,,7,and
screen,html.Screen,1_1_0_1_8,2021-04-22T09:03:31.603Z,,,,,,,,,,,,,,,,53,,,,,,,,,,,,,,464.2180000109365,,response,,,,99,,,,,,,Space,keypress(Space),,,,,,,,---- -- ----- -- ------ - ------- --- fulfilling<br>------------- ------ ------ ---- ---- ------- ----- -- ----<br>-------- ------- -- ---------- --- - --- ----- ----- ----<br>---- --- --- ----- --- ---- ---- ------- ----- ---- -------<br>--- --- -- ----- -- --- ---- -- --- ---- -- ------ ------<br>--- ----- -- ----,680361.7950000335,680359.300000011,679878.642,679887.7149999607,679895.082,680378.325,,8,fulfilling
screen,html.Screen,1_1_0_1_9,2021-04-22T09:03:32.028Z,,,,,,,,,,,,,,,,53,,,,,,,,,,,,,,405.82000004150905,,response,,,,99,,,,,,,Space,keypress(Space),,,,,,,,"---- -- ----- -- ------ - ------- --- ----------<br>relationship, ------ ------ ---- ---- ------- ----- -- ----<br>-------- ------- -- ---------- --- - --- ----- ----- ----<br>---- --- --- ----- --- ---- ---- ------- ----- ---- -------<br>--- --- -- ----- -- --- ---- -- --- ---- -- ------ ------<br>--- ----- -- ----",680786.6099999519,680784.1450000415,680361.884,680362.0799999917,680378.325,680794.422,,9,"relationship,"
screen,html.Screen,1_1_0_1_10,2021-04-22T09:03:32.433Z,,,,,,,,,,,,,,,,53,,,,,,,,,,,,,,395.28300002613105,,response,,,,99,,,,,,,Space,keypress(Space),,,,,,,,---- -- ----- -- ------ - ------- --- ----------<br>------------- common ------ ---- ---- ------- ----- -- ----<br>-------- ------- -- ---------- --- - --- ----- ----- ----<br>---- --- --- ----- --- ---- ---- ------- ----- ---- -------<br>--- --- -- ----- -- --- ---- -- --- ---- -- ------ ------<br>--- ----- -- ----,681192.3350000288,681189.7050000262,680778.228,680786.8950000266,680794.422,681225.16,,10,common
screen,html.Screen,1_1_0_1_11,2021-04-22T09:03:32.803Z,,,,,,,,,,,,,,,,53,,,,,,,,,,,,,,335.2200000389712,,response,,,,99,,,,,,,Space,keypress(Space),,,,,,,,---- -- ----- -- ------ - ------- --- ----------<br>------------- ------ wisdom ---- ---- ------- ----- -- ----<br>-------- ------- -- ---------- --- - --- ----- ----- ----<br>---- --- --- ----- --- ---- ---- ------- ----- ---- -------<br>--- --- -- ----- -- --- ---- -- --- ---- -- ------ ------<br>--- ----- -- ----,681562.2300000396,681560.380000039,681177.904,681192.6100000273,681225.16,681577.286,,11,wisdom
screen,html.Screen,1_1_0_1_12,2021-04-22T09:03:33.194Z,,,,,,,,,,,,,,,,53,,,,,,,,,,,,,,373.17900000174996,,response,,,,99,,,,,,,Space,keypress(Space),,,,,,,,---- -- ----- -- ------ - ------- --- ----------<br>------------- ------ ------ says ---- ------- ----- -- ----<br>-------- ------- -- ---------- --- - --- ----- ----- ----<br>---- --- --- ----- --- ---- ---- ------- ----- ---- -------<br>--- --- -- ----- -- --- ---- -- --- ---- -- ------ ------<br>--- ----- -- ----,681952.975000022,681950.4650000017,681560.89,681562.5149999978,681577.286,681960.272,,12,says
screen,html.Screen,1_1_0_1_13,2021-04-22T09:03:33.650Z,,,,,,,,,,,,,,,,53,,,,,,,,,,,,,,446.6230000219075,,response,,,,99,,,,,,,Space,keypress(Space),,,,,,,,---- -- ----- -- ------ - ------- --- ----------<br>------------- ------ ------ ---- that ------- ----- -- ----<br>-------- ------- -- ---------- --- - --- ----- ----- ----<br>---- --- --- ----- --- ---- ---- ------- ----- ---- -------<br>--- --- -- ----- -- --- ---- -- --- ---- -- ------ ------<br>--- ----- -- ----,682409.4899999909,682406.8950000219,681944.019,681953.2650000183,681960.272,682426.792,,13,that
screen,html.Screen,1_1_0_1_14,2021-04-22T09:03:34.415Z,,,,,,,,,,,,,,,,53,,,,,,,,,,,,,,745.1030000358587,,response,,,,99,,,,,,,Space,keypress(Space),,,,,,,,---- -- ----- -- ------ - ------- --- ----------<br>------------- ------ ------ ---- ---- feeling ----- -- ----<br>-------- ------- -- ---------- --- - --- ----- ----- ----<br>---- --- --- ----- --- ---- ---- ------- ----- ---- -------<br>--- --- -- ----- -- --- ---- -- --- ---- -- ------ ------<br>--- ----- -- ----,683174.3799999822,683171.8950000359,682410.369,682409.7750000656,682426.792,683194.921,,14,feeling
screen,html.Screen,1_1_0_1_15,2021-04-22T09:03:34.802Z,,,,,,,,,,,,,,,,53,,,,,,,,,,,,,,363.45400002237875,,response,,,,99,,,,,,,Space,keypress(Space),,,,,,,,---- -- ----- -- ------ - ------- --- ----------<br>------------- ------ ------ ---- ---- ------- close -- ----<br>-------- ------- -- ---------- --- - --- ----- ----- ----<br>---- --- --- ----- --- ---- ---- ------- ----- ---- -------<br>--- --- -- ----- -- --- ---- -- --- ---- -- ------ ------<br>--- ----- -- ----,683560.9649999533,683558.3750000224,683160.051,683174.6650000568,683194.921,683575.847,,15,close
screen,html.Screen,1_1_0_1_16,2021-04-22T09:03:35.131Z,,,,,,,,,,,,,,,,53,,,,,,,,,,,,,,311.8829999585869,,response,,,,99,,,,,,,Space,keypress(Space),,,,,,,,---- -- ----- -- ------ - ------- --- ----------<br>------------- ------ ------ ---- ---- ------- ----- to ----<br>-------- ------- -- ---------- --- - --- ----- ----- ----<br>---- --- --- ----- --- ---- ---- ------- ----- ---- -------<br>--- --- -- ----- -- --- ---- -- --- ---- -- ------ ------<br>--- ----- -- ----,683890.250000055,683887.7299999585,683559.415,683561.2500000279,683575.847,683924.204,,16,to
screen,html.Screen,1_1_0_1_17,2021-04-22T09:03:35.526Z,,,,,,,,,,,,,,,,53,,,,,,,,,,,,,,358.9059999602614,,response,,,,99,,,,,,,Space,keypress(Space),,,,,,,,---- -- ----- -- ------ - ------- --- ----------<br>------------- ------ ------ ---- ---- ------- ----- -- your<br>-------- ------- -- ---------- --- - --- ----- ----- ----<br>---- --- --- ----- --- ---- ---- ------- ----- ---- -------<br>--- --- -- ----- -- --- ---- -- --- ---- -- ------ ------<br>--- ----- -- ----,684284.9500000011,684283.1099999603,683875.914,683890.5299999751,683924.204,684291.913,,17,your
screen,html.Screen,1_1_0_1_18,2021-04-22T09:03:35.948Z,,,,,,,,,,,,,,,,53,,,,,,,,,,,,,,412.25200000288896,,response,,,,99,,,,,,,Space,keypress(Space),,,,,,,,---- -- ----- -- ------ - ------- --- ----------<br>------------- ------ ------ ---- ---- ------- ----- -- ----<br>romantic ------- -- ---------- --- - --- ----- ----- ----<br>---- --- --- ----- --- ---- ---- ------- ----- ---- -------<br>--- --- -- ----- -- --- ---- -- --- ---- -- ------ ------<br>--- ----- -- ----,684706.6600000253,684704.1650000028,684275.663,684285.2349999594,684291.913,684728.44,,18,romantic
screen,html.Screen,1_1_0_1_19,2021-04-22T09:03:36.277Z,,,,,,,,,,,,,,,,53,,,,,,,,,,,,,,305.60499997856095,,response,,,,99,,,,,,,Space,keypress(Space),,,,,,,,---- -- ----- -- ------ - ------- --- ----------<br>------------- ------ ------ ---- ---- ------- ----- -- ----<br>-------- partner -- ---------- --- - --- ----- ----- ----<br>---- --- --- ----- --- ---- ---- ------- ----- ---- -------<br>--- --- -- ----- -- --- ---- -- --- ---- -- ------ ------<br>--- ----- -- ----,685035.9099999769,685034.0449999785,684691.902,684706.9449999835,684728.44,685041.414,,19,partner
screen,html.Screen,1_1_0_1_20,2021-04-22T09:03:36.712Z,,,,,,,,,,,,,,,,53,,,,,,,,,,,,,,428.23100006289314,,response,,,,99,,,,,,,Space,keypress(Space),,,,,,,,---- -- ----- -- ------ - ------- --- ----------<br>------------- ------ ------ ---- ---- ------- ----- -- ----<br>-------- ------- is ---------- --- - --- ----- ----- ----<br>---- --- --- ----- --- ---- ---- ------- ----- ---- -------<br>--- --- -- ----- -- --- ---- -- --- ---- -- ------ ------<br>--- ----- -- ----,685471.5400000568,685469.6450000629,685025.086,685036.2100000493,685041.414,685474.356,,20,is
screen,html.Screen,1_1_0_1_21,2021-04-22T09:03:37.364Z,,,,,,,,,,,,,,,,53,,,,,,,,,,,,,,646.1589999586577,,response,,,,99,,,,,,,Space,keypress(Space),,,,,,,,---- -- ----- -- ------ - ------- --- ----------<br>------------- ------ ------ ---- ---- ------- ----- -- ----<br>-------- ------- -- paramount. --- - --- ----- ----- ----<br>---- --- --- ----- --- ---- ---- ------- ----- ---- -------<br>--- --- -- ----- -- --- ---- -- --- ---- -- ------ ------<br>--- ----- -- ----,686122.9850000236,686120.5149999587,685458.139,685471.8150000554,685474.356,686140.755,,21,paramount.
screen,html.Screen,1_1_0_1_22,2021-04-22T09:03:37.849Z,,,,,,,,,,,,,,,,53,,,,,,,,,,,,,,465.17999999958556,,response,,,,99,,,,,,,Space,keypress(Space),,,,,,,,---- -- ----- -- ------ - ------- --- ----------<br>------------- ------ ------ ---- ---- ------- ----- -- ----<br>-------- ------- -- ---------- But - --- ----- ----- ----<br>---- --- --- ----- --- ---- ---- ------- ----- ---- -------<br>--- --- -- ----- -- --- ---- -- --- ---- -- ------ ------<br>--- ----- -- ----,686608.4699999774,686605.9349999996,686107.864,686123.2650000602,686140.755,686623.886,,22,But
screen,html.Screen,1_1_0_1_23,2021-04-22T09:03:38.215Z,,,,,,,,,,,,,,,,53,,,,,,,,,,,,,,347.92400001722854,,response,,,,99,,,,,,,Space,keypress(Space),,,,,,,,---- -- ----- -- ------ - ------- --- ----------<br>------------- ------ ------ ---- ---- ------- ----- -- ----<br>-------- ------- -- ---------- --- a --- ----- ----- ----<br>---- --- --- ----- --- ---- ---- ------- ----- ---- -------<br>--- --- -- ----- -- --- ---- -- --- ---- -- ------ ------<br>--- ----- -- ----,686974.2499999702,686971.8100000173,686607.38,686608.7449999759,686623.886,686990.24,,23,a
screen,html.Screen,1_1_0_1_24,2021-04-22T09:03:38.611Z,,,,,,,,,,,,,,,,53,,,,,,,,,,,,,,377.3999999531079,,response,,,,99,,,,,,,Space,keypress(Space),,,,,,,,---- -- ----- -- ------ - ------- --- ----------<br>------------- ------ ------ ---- ---- ------- ----- -- ----<br>-------- ------- -- ---------- --- - new ----- ----- ----<br>---- --- --- ----- --- ---- ---- ------- ----- ---- -------<br>--- --- -- ----- -- --- ---- -- --- ---- -- ------ ------<br>--- ----- -- ----,687369.6149999741,687367.6399999531,686973.646,686974.5399999665,686990.24,687372.962,,24,new
screen,html.Screen,1_1_0_1_25,2021-04-22T09:03:39.100Z,,,,,,,,,,,,,,,,53,,,,,,,,,,,,,,484.7180000154767,,response,,,,99,,,,,,,Space,keypress(Space),,,,,,,,---- -- ----- -- ------ - ------- --- ----------<br>------------- ------ ------ ---- ---- ------- ----- -- ----<br>-------- ------- -- ---------- --- - --- study ----- ----<br>---- --- --- ----- --- ---- ---- ------- ----- ---- -------<br>--- --- -- ----- -- --- ---- -- --- ---- -- ------ ------<br>--- ----- -- ----,687859.5800000476,687857.6800000155,687356.59,687369.9750000378,687372.962,687872.783,,25,study
screen,html.Screen,1_1_0_1_26,2021-04-22T09:03:39.672Z,,,,,,,,,,,,,,,,53,,,,,,,,,,,,,,555.2270000323188,,response,,,,99,,,,,,,Space,keypress(Space),,,,,,,,---- -- ----- -- ------ - ------- --- ----------<br>------------- ------ ------ ---- ---- ------- ----- -- ----<br>-------- ------- -- ---------- --- - --- ----- finds ----<br>---- --- --- ----- --- ---- ---- ------- ----- ---- -------<br>--- --- -- ----- -- --- ---- -- --- ---- -- ------ ------<br>--- ----- -- ----,688430.6100000395,688428.0100000324,687856.502,687859.8800000036,687872.783,688438.977,,26,finds
screen,html.Screen,1_1_0_1_27,2021-04-22T09:03:40.050Z,,,,,,,,,,,,,,,,53,,,,,,,,,,,,,,368.7080000070855,,response,,,,99,,,,,,,Space,keypress(Space),,,,,,,,---- -- ----- -- ------ - ------- --- ----------<br>------------- ------ ------ ---- ---- ------- ----- -- ----<br>-------- ------- -- ---------- --- - --- ----- ----- that<br>---- --- --- ----- --- ---- ---- ------- ----- ---- -------<br>--- --- -- ----- -- --- ---- -- --- ---- -- ------ ------<br>--- ----- -- ----,688808.8399999542,688807.685000007,688422.805,688430.885000038,688438.977,688821.94,,27,that
screen,html.Screen,1_1_0_1_28,2021-04-22T09:03:40.485Z,,,,,,,,,,,,,,,,53,,,,,,,,,,,,,,419.41999998549,,response,,,,99,,,,,,,Space,keypress(Space),,,,,,,,---- -- ----- -- ------ - ------- --- ----------<br>------------- ------ ------ ---- ---- ------- ----- -- ----<br>-------- ------- -- ---------- --- - --- ----- ----- ----<br>it's --- --- ----- --- ---- ---- ------- ----- ---- -------<br>--- --- -- ----- -- --- ---- -- --- ---- -- ------ ------<br>--- ----- -- ----,689244.0199999837,689241.3599999854,688805.723,688809.0350000421,688821.94,689255.013,,28,it's
screen,html.Screen,1_1_0_1_29,2021-04-22T09:03:40.878Z,,,,,,,,,,,,,,,,53,,,,,,,,,,,,,,379.32699998957105,,response,,,,99,,,,,,,Space,keypress(Space),,,,,,,,---- -- ----- -- ------ - ------- --- ----------<br>------------- ------ ------ ---- ---- ------- ----- -- ----<br>-------- ------- -- ---------- --- - --- ----- ----- ----<br>---- not --- ----- --- ---- ---- ------- ----- ---- -------<br>--- --- -- ----- -- --- ---- -- --- ---- -- ------ ------<br>--- ----- -- ----,689637.1700000018,689634.3399999896,689238.559,689244.2949999822,689255.013,689654.887,,29,not
screen,html.Screen,1_1_0_1_30,2021-04-22T09:03:41.229Z,,,,,,,,,,,,,,,,53,,,,,,,,,,,,,,330.78800000355113,,response,,,,99,,,,,,,Space,keypress(Space),,,,,,,,---- -- ----- -- ------ - ------- --- ----------<br>------------- ------ ------ ---- ---- ------- ----- -- ----<br>-------- ------- -- ---------- --- - --- ----- ----- ----<br>---- --- how ----- --- ---- ---- ------- ----- ---- -------<br>--- --- -- ----- -- --- ---- -- --- ---- -- ------ ------<br>--- ----- -- ----,689988.3100000443,689985.6750000035,689621.795,689637.4300000025,689654.887,690004.777,,30,how
screen,html.Screen,1_1_0_1_31,2021-04-22T09:03:41.715Z,,,,,,,,,,,,,,,,53,,,,,,,,,,,,,,466.432999988785,,response,,,,99,,,,,,,Space,keypress(Space),,,,,,,,---- -- ----- -- ------ - ------- --- ----------<br>------------- ------ ------ ---- ---- ------- ----- -- ----<br>-------- ------- -- ---------- --- - --- ----- ----- ----<br>---- --- --- close --- ---- ---- ------- ----- ---- -------<br>--- --- -- ----- -- --- ---- -- --- ---- -- ------ ------<br>--- ----- -- ----,690474.0250000032,690471.2099999888,689988.197,689988.5950000025,690004.777,690487.397,,31,close
screen,html.Screen,1_1_0_1_32,2021-04-22T09:03:42.074Z,,,,,,,,,,,,,,,,53,,,,,,,,,,,,,,343.48800006124657,,response,,,,99,,,,,,,Space,keypress(Space),,,,,,,,---- -- ----- -- ------ - ------- --- ----------<br>------------- ------ ------ ---- ---- ------- ----- -- ----<br>-------- ------- -- ---------- --- - --- ----- ----- ----<br>---- --- --- ----- you ---- ---- ------- ----- ---- -------<br>--- --- -- ----- -- --- ---- -- --- ---- -- ------ ------<br>--- ----- -- ----,690833.340000012,690830.8850000612,690471.256,690474.2799999658,690487.397,690837.221,,32,you
screen,html.Screen,1_1_0_1_33,2021-04-22T09:03:42.521Z,,,,,,,,,,,,,,,,53,,,,,,,,,,,,,,440.1040000318317,,response,,,,99,,,,,,,Space,keypress(Space),,,,,,,,---- -- ----- -- ------ - ------- --- ----------<br>------------- ------ ------ ---- ---- ------- ----- -- ----<br>-------- ------- -- ---------- --- - --- ----- ----- ----<br>---- --- --- ----- --- feel ---- ------- ----- ---- -------<br>--- --- -- ----- -- --- ---- -- --- ---- -- ------ ------<br>--- ----- -- ----,691279.8650000477,691277.3250000319,690820.924,690833.6000000127,690837.221,691286.857,,33,feel
screen,html.Screen,1_1_0_1_34,2021-04-22T09:03:42.951Z,,,,,,,,,,,,,,,,53,,,,,,,,,,,,,,420.1479999747826,,response,,,,99,,,,,,,Space,keypress(Space),,,,,,,,---- -- ----- -- ------ - ------- --- ----------<br>------------- ------ ------ ---- ---- ------- ----- -- ----<br>-------- ------- -- ---------- --- - --- ----- ----- ----<br>---- --- --- ----- --- ---- that ------- ----- ---- -------<br>--- --- -- ----- -- --- ---- -- --- ---- -- ------ ------<br>--- ----- -- ----,691709.6700000111,691707.0049999747,691270.457,691280.1299999701,691286.857,691719.813,,34,that
screen,html.Screen,1_1_0_1_35,2021-04-22T09:03:43.402Z,,,,,,,,,,,,,,,,53,,,,,,,,,,,,,,439.19200002320576,,response,,,,99,,,,,,,Space,keypress(Space),,,,,,,,---- -- ----- -- ------ - ------- --- ----------<br>------------- ------ ------ ---- ---- ------- ----- -- ----<br>-------- ------- -- ---------- --- - --- ----- ----- ----<br>---- --- --- ----- --- ---- ---- matters ----- ---- -------<br>--- --- -- ----- -- --- ---- -- --- ---- -- ------ ------<br>--- ----- -- ----,692160.8300000662,692159.0050000232,691703.684,691709.9300000118,691719.813,692169.504,,35,matters
screen,html.Screen,1_1_0_1_36,2021-04-22T09:03:43.852Z,,,,,,,,,,,,,,,,53,,,,,,,,,,,,,,438.5809999562334,,response,,,,99,,,,,,,Space,keypress(Space),,,,,,,,"---- -- ----- -- ------ - ------- --- ----------<br>------------- ------ ------ ---- ---- ------- ----- -- ----<br>-------- ------- -- ---------- --- - --- ----- ----- ----<br>---- --- --- ----- --- ---- ---- ------- most, ---- -------<br>--- --- -- ----- -- --- ---- -- --- ---- -- ------ ------<br>--- ----- -- ----",692610.7550000306,692608.0849999562,692153.407,692161.0799999908,692169.504,692619.226,,36,"most,"
screen,html.Screen,1_1_0_1_37,2021-04-22T09:03:44.287Z,,,,,,,,,,,,,,,,53,,,,,,,,,,,,,,424.0839999790769,,response,,,,99,,,,,,,Space,keypress(Space),,,,,,,,---- -- ----- -- ------ - ------- --- ----------<br>------------- ------ ------ ---- ---- ------- ----- -- ----<br>-------- ------- -- ---------- --- - --- ----- ----- ----<br>---- --- --- ----- --- ---- ---- ------- ----- it's -------<br>--- --- -- ----- -- --- ---- -- --- ---- -- ------ ------<br>--- ----- -- ----,693045.7600000082,693043.3099999791,692603.061,692611.0150000313,692619.226,693052.265,,37,it's
screen,html.Screen,1_1_0_1_38,2021-04-22T09:03:44.692Z,,,,,,,,,,,,,,,,53,,,,,,,,,,,,,,397.19500003254507,,response,,,,99,,,,,,,Space,keypress(Space),,,,,,,,---- -- ----- -- ------ - ------- --- ----------<br>------------- ------ ------ ---- ---- ------- ----- -- ----<br>-------- ------- -- ---------- --- - --- ----- ----- ----<br>---- --- --- ----- --- ---- ---- ------- ----- ---- whether<br>--- --- -- ----- -- --- ---- -- --- ---- -- ------ ------<br>--- ----- -- ----,693451.2600000016,693449.4600000326,693036.045,693046.0200000089,693052.265,693485.498,,38,whether
screen,html.Screen,1_1_0_1_39,2021-04-22T09:03:45.117Z,,,,,,,,,,,,,,,,53,,,,,,,,,,,,,,389.37200005783234,,response,,,,99,,,,,,,Space,keypress(Space),,,,,,,,---- -- ----- -- ------ - ------- --- ----------<br>------------- ------ ------ ---- ---- ------- ----- -- ----<br>-------- ------- -- ---------- --- - --- ----- ----- ----<br>---- --- --- ----- --- ---- ---- ------- ----- ---- -------<br>you --- -- ----- -- --- ---- -- --- ---- -- ------ ------<br>--- ----- -- ----,693876.0450000409,693874.8700000579,693468.8,693451.5299999621,693485.498,693885.041,,39,you
screen,html.Screen,1_1_0_1_40,2021-04-22T09:03:45.629Z,,,,,,,,,,,,,,,,53,,,,,,,,,,,,,,500.19899997417815,,response,,,,99,,,,,,,Space,keypress(Space),,,,,,,,---- -- ----- -- ------ - ------- --- ----------<br>------------- ------ ------ ---- ---- ------- ----- -- ----<br>-------- ------- -- ---------- --- - --- ----- ----- ----<br>---- --- --- ----- --- ---- ---- ------- ----- ---- -------<br>--- are -- ----- -- --- ---- -- --- ---- -- ------ ------<br>--- ----- -- ----,694387.7349999966,694385.2399999741,693868.755,693876.2100000167,693885.041,694401.407,,40,are
screen,html.Screen,1_1_0_1_41,2021-04-22T09:03:46.419Z,,,,,,,,,,,,,,,,53,,,,,,,,,,,,,,774.9380000435049,,response,,,,99,,,,,,,Space,keypress(Space),,,,,,,,---- -- ----- -- ------ - ------- --- ----------<br>------------- ------ ------ ---- ---- ------- ----- -- ----<br>-------- ------- -- ---------- --- - --- ----- ----- ----<br>---- --- --- ----- --- ---- ---- ------- ----- ---- -------<br>--- --- as ----- -- --- ---- -- --- ---- -- ------ ------<br>--- ----- -- ----,695177.6799999643,695176.3450000435,694385.129,694388.0000000354,694401.407,695183.98,,41,as
screen,html.Screen,1_1_0_1_42,2021-04-22T09:03:46.790Z,,,,,,,,,,,,,,,,53,,,,,,,,,,,,,,362.5399999744259,,response,,,,99,,,,,,,Space,keypress(Space),,,,,,,,---- -- ----- -- ------ - ------- --- ----------<br>------------- ------ ------ ---- ---- ------- ----- -- ----<br>-------- ------- -- ---------- --- - --- ----- ----- ----<br>---- --- --- ----- --- ---- ---- ------- ----- ---- -------<br>--- --- -- close -- --- ---- -- --- ---- -- ------ ------<br>--- ----- -- ----,695549.0449999925,695546.5199999744,695167.932,695177.8499999782,695183.98,695583.936,,42,close
screen,html.Screen,1_1_0_1_43,2021-04-22T09:03:47.144Z,,,,,,,,,,,,,,,,53,,,,,,,,,,,,,,314.3540000410285,,response,,,,99,,,,,,,Space,keypress(Space),,,,,,,,---- -- ----- -- ------ - ------- --- ----------<br>------------- ------ ------ ---- ---- ------- ----- -- ----<br>-------- ------- -- ---------- --- - --- ----- ----- ----<br>---- --- --- ----- --- ---- ---- ------- ----- ---- -------<br>--- --- -- ----- as --- ---- -- --- ---- -- ------ ------<br>--- ----- -- ----,695903.5750000039,695898.290000041,695570.32,695549.2999999551,695583.936,695916.887,,43,as
screen,html.Screen,1_1_0_1_44,2021-04-22T09:03:47.486Z,,,,,,,,,,,,,,,,53,,,,,,,,,,,,,,325.64799996849615,,response,,,,99,,,,,,,Space,keypress(Space),,,,,,,,---- -- ----- -- ------ - ------- --- ----------<br>------------- ------ ------ ---- ---- ------- ----- -- ----<br>-------- ------- -- ---------- --- - --- ----- ----- ----<br>---- --- --- ----- --- ---- ---- ------- ----- ---- -------<br>--- --- -- ----- -- you ---- -- --- ---- -- ------ ------<br>--- ----- -- ----,696244.8200000217,696242.5349999685,695900.578,695903.9249999914,695916.887,696249.972,,44,you
screen,html.Screen,1_1_0_1_45,2021-04-22T09:03:47.862Z,,,,,,,,,,,,,,,,53,,,,,,,,,,,,,,368.71299999405164,,response,,,,99,,,,,,,Space,keypress(Space),,,,,,,,---- -- ----- -- ------ - ------- --- ----------<br>------------- ------ ------ ---- ---- ------- ----- -- ----<br>-------- ------- -- ---------- --- - --- ----- ----- ----<br>---- --- --- ----- --- ---- ---- ------- ----- ---- -------<br>--- --- -- ----- -- --- want -- --- ---- -- ------ ------<br>--- ----- -- ----,696621.1250000633,696618.684999994,696233.587,696245.10499998,696249.972,696632.985,,45,want
screen,html.Screen,1_1_0_1_46,2021-04-22T09:03:48.200Z,,,,,,,,,,,,,,,,53,,,,,,,,,,,,,,324.5549999739742,,response,,,,99,,,,,,,Space,keypress(Space),,,,,,,,---- -- ----- -- ------ - ------- --- ----------<br>------------- ------ ------ ---- ---- ------- ----- -- ----<br>-------- ------- -- ---------- --- - --- ----- ----- ----<br>---- --- --- ----- --- ---- ---- ------- ----- ---- -------<br>--- --- -- ----- -- --- ---- to --- ---- -- ------ ------<br>--- ----- -- ----,696958.7299999548,696957.539999974,696616.74,696621.3749999879,696632.985,696965.999,,46,to
screen,html.Screen,1_1_0_1_47,2021-04-22T09:03:48.577Z,,,,,,,,,,,,,,,,53,,,,,,,,,,,,,,368.106000016327,,response,,,,99,,,,,,,Space,keypress(Space),,,,,,,,"---- -- ----- -- ------ - ------- --- ----------<br>------------- ------ ------ ---- ---- ------- ----- -- ----<br>-------- ------- -- ---------- --- - --- ----- ----- ----<br>---- --- --- ----- --- ---- ---- ------- ----- ---- -------<br>--- --- -- ----- -- --- ---- -- be, ---- -- ------ ------<br>--- ----- -- ----",697335.8299999963,697334.1050000163,696949.812,696958.8999999687,696965.999,697349.333,,47,"be,"
screen,html.Screen,1_1_0_1_48,2021-04-22T09:03:49.082Z,,,,,,,,,,,,,,,,53,,,,,,,,,,,,,,489.79699997848365,,response,,,,99,,,,,,,Space,keypress(Space),,,,,,,,---- -- ----- -- ------ - ------- --- ----------<br>------------- ------ ------ ---- ---- ------- ----- -- ----<br>-------- ------- -- ---------- --- - --- ----- ----- ----<br>---- --- --- ----- --- ---- ---- ------- ----- ---- -------<br>--- --- -- ----- -- --- ---- -- --- even -- ------ ------<br>--- ----- -- ----,697840.930000064,697839.1299999785,697332.908,697336.1199999927,697349.333,697848.809,,48,even
screen,html.Screen,1_1_0_1_49,2021-04-22T09:03:49.468Z,,,,,,,,,,,,,,,,53,,,,,,,,,,,,,,375.7759999599075,,response,,,,99,,,,,,,Space,keypress(Space),,,,,,,,---- -- ----- -- ------ - ------- --- ----------<br>------------- ------ ------ ---- ---- ------- ----- -- ----<br>-------- ------- -- ---------- --- - --- ----- ----- ----<br>---- --- --- ----- --- ---- ---- ------- ----- ---- -------<br>--- --- -- ----- -- --- ---- -- --- ---- if ------ ------<br>--- ----- -- ----,698227.4599999655,698224.5849999599,697832.641,697841.1799999885,697848.809,698231.928,,49,if
screen,html.Screen,1_1_0_1_50,2021-04-22T09:03:49.894Z,,,,,,,,,,,,,,,,53,,,,,,,,,,,,,,418.3869999771705,,response,,,,99,,,,,,,Space,keypress(Space),,,,,,,,---- -- ----- -- ------ - ------- --- ----------<br>------------- ------ ------ ---- ---- ------- ----- -- ----<br>-------- ------- -- ---------- --- - --- ----- ----- ----<br>---- --- --- ----- --- ---- ---- ------- ----- ---- -------<br>--- --- -- ----- -- --- ---- -- --- ---- -- that's ------<br>--- ----- -- ----,698652.7500000084,698650.3149999771,698215.567,698227.7100000065,698231.928,698664.817,,50,that's
screen,html.Screen,1_1_0_1_51,2021-04-22T09:03:50.309Z,,,,,,,,,,,,,,,,53,,,,,,,,,,,,,,400.9679999842774,,response,,,,99,,,,,,,Space,keypress(Space),,,,,,,,---- -- ----- -- ------ - ------- --- ----------<br>------------- ------ ------ ---- ---- ------- ----- -- ----<br>-------- ------- -- ---------- --- - --- ----- ----- ----<br>---- --- --- ----- --- ---- ---- ------- ----- ---- -------<br>--- --- -- ----- -- --- ---- -- --- ---- -- ------ really<br>--- ----- -- ----,699068.2899999665,699065.7849999843,698648.685,698652.9899999732,698664.817,699081.159,,51,really
screen,html.Screen,1_1_0_1_52,2021-04-22T09:03:50.664Z,,,,,,,,,,,,,,,,53,,,,,,,,,,,,,,339.9710000315681,,response,,,,99,,,,,,,Space,keypress(Space),,,,,,,,---- -- ----- -- ------ - ------- --- ----------<br>------------- ------ ------ ---- ---- ------- ----- -- ----<br>-------- ------- -- ---------- --- - --- ----- ----- ----<br>---- --- --- ----- --- ---- ---- ------- ----- ---- -------<br>--- --- -- ----- -- --- ---- -- --- ---- -- ------ ------<br>not ----- -- ----,699423.5699999845,699421.1300000316,699064.884,699068.5349999694,699081.159,699430.99,,52,not
screen,html.Screen,1_1_0_1_53,2021-04-22T09:03:51.025Z,,,,,,,,,,,,,,,,53,,,,,,,,,,,,,,350.75500004389323,,response,,,,99,,,,,,,Space,keypress(Space),,,,,,,,---- -- ----- -- ------ - ------- --- ----------<br>------------- ------ ------ ---- ---- ------- ----- -- ----<br>-------- ------- -- ---------- --- - --- ----- ----- ----<br>---- --- --- ----- --- ---- ---- ------- ----- ---- -------<br>--- --- -- ----- -- --- ---- -- --- ---- -- ------ ------<br>--- close -- ----,699784.2950000195,699781.7450000439,699414.724,699423.8250000635,699430.99,699797.302,,53,close
screen,html.Screen,1_1_0_1_54,2021-04-22T09:03:51.355Z,,,,,,,,,,,,,,,,53,,,,,,,,,,,,,,314.9330000077607,,response,,,,99,,,,,,,Space,keypress(Space),,,,,,,,---- -- ----- -- ------ - ------- --- ----------<br>------------- ------ ------ ---- ---- ------- ----- -- ----<br>-------- ------- -- ---------- --- - --- ----- ----- ----<br>---- --- --- ----- --- ---- ---- ------- ----- ---- -------<br>--- --- -- ----- -- --- ---- -- --- ---- -- ------ ------<br>--- ----- at ----,700114.0199999791,700112.2350000078,699781.142,699784.5349999843,699797.302,700130.755,,54,at
screen,html.Screen,1_1_0_1_55,2021-04-22T09:03:51.765Z,,,,,,,,,,,,,,,,53,,,,,,,,,,,,,,391.55999995104503,,response,,,,99,,,,,,,Space,keypress(Space),,,,,,,,---- -- ----- -- ------ - ------- --- ----------<br>------------- ------ ------ ---- ---- ------- ----- -- ----<br>-------- ------- -- ---------- --- - --- ----- ----- ----<br>---- --- --- ----- --- ---- ---- ------- ----- ---- -------<br>--- --- -- ----- -- --- ---- -- --- ---- -- ------ ------<br>--- ----- -- all.,700524.1150000365,700522.314999951,700114,700114.264999982,700130.755,700530.206,,55,all.
Item 99,flow.Loop,1_1_0_1,2021-04-22T09:03:51.766Z,,,,,,,,,,,,,,,,,,,,,,,,,,,,,,24924.182999951066,,completion,,,,,F,,,,,,,,,,,silence,,,,,700524.6150000021,700522.314999951,675531.738,675533.3050000481,675598.132,700530.206,,,
Question 1,html.Screen,1_1_0_2,2021-04-22T09:04:03.217Z,,,,,,,,,,,,,,,,,,,,,,,,,,,false,FALSE,,11443.979000057327,,response,,,,99,F,,,,,,TRUE,click #choice-1,,,,silence,,,,,711976.3599999715,711974.1850000573,700513.94,700524.8500000453,700530.206,711989.233,,,
Question 2,html.Screen,1_1_0_3,2021-04-22T09:04:09.923Z,,,,,,,,,,,,,,,,,,,,,,,,,,,true,TRUE,,6690.792000008747,,response,,,,99,F,,,,,,TRUE,click #choice-1,,,,silence,,,,,718681.884999969,718680.0250000088,711972.187,711976.5299999854,711989.233,718683.735,,,
Item 99,flow.Sequence,1_1_0,2021-04-22T09:04:09.923Z,,,,,,,,,,,,,,,,,,,,,,,,,,,,,,53124.62500000873,,completion,,,,,,,,,,,,,,,,,,,,,718682.1449999698,718680.0250000088,665538.823,665551.5000000596,665555.4,718683.735,,,
Holding screen,html.Screen,1_1_1_0,2021-04-22T09:04:19.903Z,,,,,,,,,,,,,,,,,,,,,,,,,,,,,,9993.418999999994,,timeout,,,,,,,,,,,,,,,,,,,,,728661.2050000113,728660.027,718667.505,718682.2999999858,718683.735,728677.154,,,
screen,html.Screen,1_1_1_1_0,2021-04-22T09:04:41.761Z,,,,,,,,,,,,,,,,54,,,,,,,,,,,,,,21840.221000054036,,response,,,,100,,,,,,,Space,keypress(Space),,,,,,,,At --- ---- --- ------ ----- ------- ---- -- --- ------- --<br>------- ---------- ------ -- ----- -- ----- -- ---- ------<br>--- ----- --- --- ------ -------- ----- --- ------ ----- --<br>----- ----- ---------- --- --- ------ ------ ---- -- ------<br>------- --- ------ ----- --- ---- ------- -- ---- --- --<br>------- ------,750519.7000000626,750517.375000054,728660.027,728661.540000001,728677.154,750527.422,,0,At
screen,html.Screen,1_1_1_1_1,2021-04-22T09:04:43.627Z,,,,,,,,,,,,,,,,54,,,,,,,,,,,,,,1856.2930000035558,,response,,,,100,,,,,,,Space,keypress(Space),,,,,,,,-- the ---- --- ------ ----- ------- ---- -- --- ------- --<br>------- ---------- ------ -- ----- -- ----- -- ---- ------<br>--- ----- --- --- ------ -------- ----- --- ------ ----- --<br>----- ----- ---------- --- --- ------ ------ ---- -- ------<br>------- --- ------ ----- --- ---- ------- -- ---- --- --<br>------- ------,752385.5700000422,752383.7150000036,750503.053,750519.9550000252,750527.422,752392.966,,1,the
screen,html.Screen,1_1_1_1_2,2021-04-22T09:04:45.204Z,,,,,,,,,,,,,,,,54,,,,,,,,,,,,,,1567.319000037387,,response,,,,100,,,,,,,Space,keypress(Space),,,,,,,,-- --- time --- ------ ----- ------- ---- -- --- ------- --<br>------- ---------- ------ -- ----- -- ----- -- ---- ------<br>--- ----- --- --- ------ -------- ----- --- ------ ----- --<br>----- ----- ---------- --- --- ------ ------ ---- -- ------<br>------- --- ------ ----- --- ---- ------- -- ---- --- --<br>------- ------,753962.2199999867,753960.2850000374,752377.271,752385.9200000297,752392.966,753974.914,,2,time
screen,html.Screen,1_1_1_1_3,2021-04-22T09:04:45.760Z,,,,,,,,,,,,,,,,54,,,,,,,,,,,,,,541.3209999882383,,response,,,,100,,,,,,,Space,keypress(Space),,,,,,,,-- --- ---- the ------ ----- ------- ---- -- --- ------- --<br>------- ---------- ------ -- ----- -- ----- -- ---- ------<br>--- ----- --- --- ------ -------- ----- --- ------ ----- --<br>----- ----- ---------- --- --- ------ ------ ---- -- ------<br>------- --- ------ ----- --- ---- ------- -- ---- --- --<br>------- ------,754518.5249999631,754516.2349999882,753959.372,753962.4649999896,753974.914,754524.581,,3,the
screen,html.Screen,1_1_1_1_4,2021-04-22T09:04:46.235Z,,,,,,,,,,,,,,,,54,,,,,,,,,,,,,,467.2539999934379,,response,,,,100,,,,,,,Space,keypress(Space),,,,,,,,-- --- ---- --- French ----- ------- ---- -- --- ------- --<br>------- ---------- ------ -- ----- -- ----- -- ---- ------<br>--- ----- --- --- ------ -------- ----- --- ------ ----- --<br>----- ----- ---------- --- --- ------ ------ ---- -- ------<br>------- --- ------ ----- --- ---- ------- -- ---- --- --<br>------- ------,754993.9800000284,754991.8349999934,754508.368,754518.7800000422,754524.581,755007.603,,4,French
screen,html.Screen,1_1_1_1_5,2021-04-22T09:04:46.616Z,,,,,,,,,,,,,,,,54,,,,,,,,,,,,,,364.7270000419812,,response,,,,100,,,,,,,Space,keypress(Space),,,,,,,,-- --- ---- --- ------ crown ------- ---- -- --- ------- --<br>------- ---------- ------ -- ----- -- ----- -- ---- ------<br>--- ----- --- --- ------ -------- ----- --- ------ ----- --<br>----- ----- ---------- --- --- ------ ------ ---- -- ------<br>------- --- ------ ----- --- ---- ------- -- ---- --- --<br>------- ------,755374.4400000433,755372.330000042,754991.384,754994.2400000291,755007.603,755390.898,,5,crown
screen,html.Screen,1_1_1_1_6,2021-04-22T09:04:47.107Z,,,,,,,,,,,,,,,,54,,,,,,,,,,,,,,472.5569999841973,,response,,,,100,,,,,,,Space,keypress(Space),,,,,,,,-- --- ---- --- ------ ----- secured ---- -- --- ------- --<br>------- ---------- ------ -- ----- -- ----- -- ---- ------<br>--- ----- --- --- ------ -------- ----- --- ------ ----- --<br>----- ----- ---------- --- --- ------ ------ ---- -- ------<br>------- --- ------ ----- --- ---- ------- -- ---- --- --<br>------- ------,755865.7899999525,755863.4549999842,755374.387,755374.6950000059,755390.898,755873.632,,6,secured
screen,html.Screen,1_1_1_1_7,2021-04-22T09:04:47.521Z,,,,,,,,,,,,,,,,54,,,,,,,,,,,,,,404.7480000325013,,response,,,,100,,,,,,,Space,keypress(Space),,,,,,,,-- --- ---- --- ------ ----- ------- much -- --- ------- --<br>------- ---------- ------ -- ----- -- ----- -- ---- ------<br>--- ----- --- --- ------ -------- ----- --- ------ ----- --<br>----- ----- ---------- --- --- ------ ------ ---- -- ------<br>------- --- ------ ----- --- ---- ------- -- ---- --- --<br>------- ------,756279.8450000118,756278.3800000325,755857.339,755866.0349999554,755873.632,756289.908,,7,much
screen,html.Screen,1_1_1_1_8,2021-04-22T09:04:47.983Z,,,,,,,,,,,,,,,,54,,,,,,,,,,,,,,449.72199996723793,,response,,,,100,,,,,,,Space,keypress(Space),,,,,,,,-- --- ---- --- ------ ----- ------- ---- of --- ------- --<br>------- ---------- ------ -- ----- -- ----- -- ---- ------<br>--- ----- --- --- ------ -------- ----- --- ------ ----- --<br>----- ----- ---------- --- --- ------ ------ ---- -- ------<br>------- --- ------ ----- --- ---- ------- -- ---- --- --<br>------- ------,756741.4349999744,756739.6299999673,756273.768,756280.1200000104,756289.908,756756.339,,8,of
screen,html.Screen,1_1_1_1_9,2021-04-22T09:04:48.349Z,,,,,,,,,,,,,,,,54,,,,,,,,,,,,,,348.9160000603879,,response,,,,100,,,,,,,Space,keypress(Space),,,,,,,,-- --- ---- --- ------ ----- ------- ---- -- its ------- --<br>------- ---------- ------ -- ----- -- ----- -- ---- ------<br>--- ----- --- --- ------ -------- ----- --- ------ ----- --<br>----- ----- ---------- --- --- ------ ------ ---- -- ------<br>------- --- ------ ----- --- ---- ------- -- ---- --- --<br>------- ------,757107.0750000654,757105.2550000604,756740.039,756741.6850000154,756756.339,757122.886,,9,its
screen,html.Screen,1_1_1_1_10,2021-04-22T09:04:48.859Z,,,,,,,,,,,,,,,,54,,,,,,,,,,,,,,492.0839999950258,,response,,,,100,,,,,,,Space,keypress(Space),,,,,,,,-- --- ---- --- ------ ----- ------- ---- -- --- revenue --<br>------- ---------- ------ -- ----- -- ----- -- ---- ------<br>--- ----- --- --- ------ -------- ----- --- ------ ----- --<br>----- ----- ---------- --- --- ------ ------ ---- -- ------<br>------- --- ------ ----- --- ---- ------- -- ---- --- --<br>------- ------,757617.4449999817,757614.9699999951,757106.546,757107.3199999519,757122.886,757622.373,,10,revenue
screen,html.Screen,1_1_1_1_11,2021-04-22T09:04:49.250Z,,,,,,,,,,,,,,,,54,,,,,,,,,,,,,,383.1869999613846,,response,,,,100,,,,,,,Space,keypress(Space),,,,,,,,-- --- ---- --- ------ ----- ------- ---- -- --- ------- by<br>------- ---------- ------ -- ----- -- ----- -- ---- ------<br>--- ----- --- --- ------ -------- ----- --- ------ ----- --<br>----- ----- ---------- --- --- ------ ------ ---- -- ------<br>------- --- ------ ----- --- ---- ------- -- ---- --- --<br>------- ------,758008.1050000153,758005.5599999614,757606.173,757617.6899999846,757622.373,758022.148,,11,by
screen,html.Screen,1_1_1_1_12,2021-04-22T09:04:49.609Z,,,,,,,,,,,,,,,,54,,,,,,,,,,,,,,343.7669999729842,,response,,,,100,,,,,,,Space,keypress(Space),,,,,,,,-- --- ---- --- ------ ----- ------- ---- -- --- ------- --<br>issuing ---------- ------ -- ----- -- ----- -- ---- ------<br>--- ----- --- --- ------ -------- ----- --- ------ ----- --<br>----- ----- ---------- --- --- ------ ------ ---- -- ------<br>------- --- ------ ----- --- ---- ------- -- ---- --- --<br>------- ------,758367.8749999963,758365.914999973,758005.775,758008.3550000563,758022.148,758388.372,,12,issuing
screen,html.Screen,1_1_1_1_13,2021-04-22T09:04:49.951Z,,,,,,,,,,,,,,,,54,,,,,,,,,,,,,,318.8580000582151,,response,,,,100,,,,,,,Space,keypress(Space),,,,,,,,-- --- ---- --- ------ ----- ------- ---- -- --- ------- --<br>------- government ------ -- ----- -- ----- -- ---- ------<br>--- ----- --- --- ------ -------- ----- --- ------ ----- --<br>----- ----- ---------- --- --- ------ ------ ---- -- ------<br>------- --- ------ ----- --- ---- ------- -- ---- --- --<br>------- ------,758709.765000036,758707.2300000582,758355.545,758368.1949999882,758388.372,758721.677,,13,government
screen,html.Screen,1_1_1_1_14,2021-04-22T09:04:50.317Z,,,,,,,,,,,,,,,,54,,,,,,,,,,,,,,351.48300002899487,,response,,,,100,,,,,,,Space,keypress(Space),,,,,,,,-- --- ---- --- ------ ----- ------- ---- -- --- ------- --<br>------- ---------- bonds. -- ----- -- ----- -- ---- ------<br>--- ----- --- --- ------ -------- ----- --- ------ ----- --<br>----- ----- ---------- --- --- ------ ------ ---- -- ------<br>------- --- ------ ----- --- ---- ------- -- ---- --- --<br>------- ------,759075.6100000581,759073.160000029,758705.003,758710.0050000008,758721.677,759087.942,,14,bonds.
screen,html.Screen,1_1_1_1_15,2021-04-22T09:04:50.996Z,,,,,,,,,,,,,,,,54,,,,,,,,,,,,,,665.1429999747779,,response,,,,100,,,,,,,Space,keypress(Space),,,,,,,,-- --- ---- --- ------ ----- ------- ---- -- --- ------- --<br>------- ---------- ------ In ----- -- ----- -- ---- ------<br>--- ----- --- --- ------ -------- ----- --- ------ ----- --<br>----- ----- ---------- --- --- ------ ------ ---- -- ------<br>------- --- ------ ----- --- ---- ------- -- ---- --- --<br>------- ------,759754.7649999615,759753.0849999748,759071.497,759075.8599999826,759087.942,759771.021,,15,In
screen,html.Screen,1_1_1_1_16,2021-04-22T09:04:51.348Z,,,,,,,,,,,,,,,,54,,,,,,,,,,,,,,332.7689999646973,,response,,,,100,,,,,,,Space,keypress(Space),,,,,,,,"-- --- ---- --- ------ ----- ------- ---- -- --- ------- --<br>------- ---------- ------ -- 1727, -- ----- -- ---- ------<br>--- ----- --- --- ------ -------- ----- --- ------ ----- --<br>----- ----- ---------- --- --- ------ ------ ---- -- ------<br>------- --- ------ ----- --- ---- ------- -- ---- --- --<br>------- ------",760106.2600000296,760103.7899999646,759754.77,759755.0150000025,759771.021,760120.825,,16,"1727,"
screen,html.Screen,1_1_1_1_17,2021-04-22T09:04:51.757Z,,,,,,,,,,,,,,,,54,,,,,,,,,,,,,,392.594999973895,,response,,,,100,,,,,,,Space,keypress(Space),,,,,,,,-- --- ---- --- ------ ----- ------- ---- -- --- ------- --<br>------- ---------- ------ -- ----- in ----- -- ---- ------<br>--- ----- --- --- ------ -------- ----- --- ------ ----- --<br>----- ----- ---------- --- --- ------ ------ ---- -- ------<br>------- --- ------ ----- --- ---- ------- -- ---- --- --<br>------- ------,760515.95000003,760513.4199999738,760104.277,760106.5050000325,760120.825,760520.271,,17,in
screen,html.Screen,1_1_1_1_18,2021-04-22T09:04:52.222Z,,,,,,,,,,,,,,,,54,,,,,,,,,,,,,,458.18900001305155,,response,,,,100,,,,,,,Space,keypress(Space),,,,,,,,-- --- ---- --- ------ ----- ------- ---- -- --- ------- --<br>------- ---------- ------ -- ----- -- order -- ---- ------<br>--- ----- --- --- ------ -------- ----- --- ------ ----- --<br>----- ----- ---------- --- --- ------ ------ ---- -- ------<br>------- --- ------ ----- --- ---- ------- -- ---- --- --<br>------- ------,760980.5300000589,760978.460000013,760504.051,760516.2049999926,760520.271,760986.548,,18,order
screen,html.Screen,1_1_1_1_19,2021-04-22T09:04:52.578Z,,,,,,,,,,,,,,,,54,,,,,,,,,,,,,,347.83200001483783,,response,,,,100,,,,,,,Space,keypress(Space),,,,,,,,-- --- ---- --- ------ ----- ------- ---- -- --- ------- --<br>------- ---------- ------ -- ----- -- ----- to ---- ------<br>--- ----- --- --- ------ -------- ----- --- ------ ----- --<br>----- ----- ---------- --- --- ------ ------ ---- -- ------<br>------- --- ------ ----- --- ---- ------- -- ---- --- --<br>------- ------,761336.9449999882,761334.3800000148,760970.404,760980.6749999989,760986.548,761353.443,,19,to
screen,html.Screen,1_1_1_1_20,2021-04-22T09:04:52.979Z,,,,,,,,,,,,,,,,54,,,,,,,,,,,,,,381.4070000080392,,response,,,,100,,,,,,,Space,keypress(Space),,,,,,,,-- --- ---- --- ------ ----- ------- ---- -- --- ------- --<br>------- ---------- ------ -- ----- -- ----- -- save ------<br>--- ----- --- --- ------ -------- ----- --- ------ ----- --<br>----- ----- ---------- --- --- ------ ------ ---- -- ------<br>------- --- ------ ----- --- ---- ------- -- ---- --- --<br>------- ------,761737.4100000598,761734.850000008,761336.487,761337.1899999911,761353.443,761752.874,,20,save
screen,html.Screen,1_1_1_1_21,2021-04-22T09:04:53.434Z,,,,,,,,,,,,,,,,54,,,,,,,,,,,,,,437.6009999521775,,response,,,,100,,,,,,,Space,keypress(Space),,,,,,,,"-- --- ---- --- ------ ----- ------- ---- -- --- ------- --<br>------- ---------- ------ -- ----- -- ----- -- ---- money,<br>--- ----- --- --- ------ -------- ----- --- ------ ----- --<br>----- ----- ---------- --- --- ------ ------ ---- -- ------<br>------- --- ------ ----- --- ---- ------- -- ---- --- --<br>------- ------",762192.9800000507,762190.4749999521,761736.255,761737.6650000224,761752.874,762202.309,,21,"money,"
screen,html.Screen,1_1_1_1_22,2021-04-22T09:04:53.854Z,,,,,,,,,,,,,,,,54,,,,,,,,,,,,,,408.21600002550986,,response,,,,100,,,,,,,Space,keypress(Space),,,,,,,,-- --- ---- --- ------ ----- ------- ---- -- --- ------- --<br>------- ---------- ------ -- ----- -- ----- -- ---- ------<br>the ----- --- --- ------ -------- ----- --- ------ ----- --<br>----- ----- ---------- --- --- ------ ------ ---- -- ------<br>------- --- ------ ----- --- ---- ------- -- ---- --- --<br>------- ------,762612.225000048,762610.5250000255,762186.022,762193.2250000536,762202.309,762618.641,,22,the
screen,html.Screen,1_1_1_1_23,2021-04-22T09:04:54.225Z,,,,,,,,,,,,,,,,54,,,,,,,,,,,,,,362.6540000633104,,response,,,,100,,,,,,,Space,keypress(Space),,,,,,,,-- --- ---- --- ------ ----- ------- ---- -- --- ------- --<br>------- ---------- ------ -- ----- -- ----- -- ---- ------<br>--- state --- --- ------ -------- ----- --- ------ ----- --<br>----- ----- ---------- --- --- ------ ------ ---- -- ------<br>------- --- ------ ----- --- ---- ------- -- ---- --- --<br>------- ------,762983.8000000454,762981.2950000633,762602.476,762612.3900000239,762618.641,763018.678,,23,state
screen,html.Screen,1_1_1_1_24,2021-04-22T09:04:54.581Z,,,,,,,,,,,,,,,,54,,,,,,,,,,,,,,318.1170000102138,,response,,,,100,,,,,,,Space,keypress(Space),,,,,,,,-- --- ---- --- ------ ----- ------- ---- -- --- ------- --<br>------- ---------- ------ -- ----- -- ----- -- ---- ------<br>--- ----- cut --- ------ -------- ----- --- ------ ----- --<br>----- ----- ---------- --- --- ------ ------ ---- -- ------<br>------- --- ------ ----- --- ---- ------- -- ---- --- --<br>------- ------,763339.3749999814,763336.7950000102,763004.088,762984.0550000081,763018.678,763351.509,,24,cut
screen,html.Screen,1_1_1_1_25,2021-04-22T09:04:55.066Z,,,,,,,,,,,,,,,,54,,,,,,,,,,,,,,470.9259999800706,,response,,,,100,,,,,,,Space,keypress(Space),,,,,,,,-- --- ---- --- ------ ----- ------- ---- -- --- ------- --<br>------- ---------- ------ -- ----- -- ----- -- ---- ------<br>--- ----- --- the ------ -------- ----- --- ------ ----- --<br>----- ----- ---------- --- --- ------ ------ ---- -- ------<br>------- --- ------ ----- --- ---- ------- -- ---- --- --<br>------- ------,763825.0049999915,763822.43499998,763335.27,763339.6300000604,763351.509,763834.557,,25,the
screen,html.Screen,1_1_1_1_26,2021-04-22T09:04:55.482Z,,,,,,,,,,,,,,,,54,,,,,,,,,,,,,,403.39800001867115,,response,,,,100,,,,,,,Space,keypress(Space),,,,,,,,-- --- ---- --- ------ ----- ------- ---- -- --- ------- --<br>------- ---------- ------ -- ----- -- ----- -- ---- ------<br>--- ----- --- --- bonds' -------- ----- --- ------ ----- --<br>----- ----- ---------- --- --- ------ ------ ---- -- ------<br>------- --- ------ ----- --- ---- ------- -- ---- --- --<br>------- ------,764240.5349999899,764237.9550000187,763818.24,763825.2449999563,763834.557,764250.837,,26,bonds'
screen,html.Screen,1_1_1_1_27,2021-04-22T09:04:55.928Z,,,,,,,,,,,,,,,,54,,,,,,,,,,,,,,433.51299999584444,,response,,,,100,,,,,,,Space,keypress(Space),,,,,,,,-- --- ---- --- ------ ----- ------- ---- -- --- ------- --<br>------- ---------- ------ -- ----- -- ----- -- ---- ------<br>--- ----- --- --- ------ interest ----- --- ------ ----- --<br>----- ----- ---------- --- --- ------ ------ ---- -- ------<br>------- --- ------ ----- --- ---- ------- -- ---- --- --<br>------- ------,764686.8600000162,764684.3499999959,764234.744,764240.7899999525,764250.837,764700.792,,27,interest
screen,html.Screen,1_1_1_1_28,2021-04-22T09:04:56.379Z,,,,,,,,,,,,,,,,54,,,,,,,,,,,,,,434.0679999910062,,response,,,,100,,,,,,,Space,keypress(Space),,,,,,,,-- --- ---- --- ------ ----- ------- ---- -- --- ------- --<br>------- ---------- ------ -- ----- -- ----- -- ---- ------<br>--- ----- --- --- ------ -------- rate. --- ------ ----- --<br>----- ----- ---------- --- --- ------ ------ ---- -- ------<br>------- --- ------ ----- --- ---- ------- -- ---- --- --<br>------- ------,765137.4500000384,765134.859999991,764684.388,764687.1100000571,764700.792,765150.262,,28,rate.
screen,html.Screen,1_1_1_1_29,2021-04-22T09:04:56.788Z,,,,,,,,,,,,,,,,54,,,,,,,,,,,,,,394.3080000273185,,response,,,,100,,,,,,,Space,keypress(Space),,,,,,,,-- --- ---- --- ------ ----- ------- ---- -- --- ------- --<br>------- ---------- ------ -- ----- -- ----- -- ---- ------<br>--- ----- --- --- ------ -------- ----- The ------ ----- --<br>----- ----- ---------- --- --- ------ ------ ---- -- ------<br>------- --- ------ ----- --- ---- ------- -- ---- --- --<br>------- ------,765547.024999978,765544.5700000273,765133.867,765137.6999999629,765150.262,765549.983,,29,The
screen,html.Screen,1_1_1_1_30,2021-04-22T09:04:57.200Z,,,,,,,,,,,,,,,,54,,,,,,,,,,,,,,406.011999967508,,response,,,,100,,,,,,,Space,keypress(Space),,,,,,,,-- --- ---- --- ------ ----- ------- ---- -- --- ------- --<br>------- ---------- ------ -- ----- -- ----- -- ---- ------<br>--- ----- --- --- ------ -------- ----- --- market ----- --<br>----- ----- ---------- --- --- ------ ------ ---- -- ------<br>------- --- ------ ----- --- ---- ------- -- ---- --- --<br>------- ------,765958.4849999519,765955.9949999675,765533.737,765547.2800000571,765549.983,765966.357,,30,market
screen,html.Screen,1_1_1_1_31,2021-04-22T09:04:57.536Z,,,,,,,,,,,,,,,,54,,,,,,,,,,,,,,325.35300001956057,,response,,,,100,,,,,,,Space,keypress(Space),,,,,,,,-- --- ---- --- ------ ----- ------- ---- -- --- ------- --<br>------- ---------- ------ -- ----- -- ----- -- ---- ------<br>--- ----- --- --- ------ -------- ----- --- ------ value --<br>----- ----- ---------- --- --- ------ ------ ---- -- ------<br>------- --- ------ ----- --- ---- ------- -- ---- --- --<br>------- ------,766294.1850000061,766291.7100000195,765949.917,765958.7349999929,765966.357,766299.445,,31,value
screen,html.Screen,1_1_1_1_32,2021-04-22T09:04:58.010Z,,,,,,,,,,,,,,,,54,,,,,,,,,,,,,,467.0400000292575,,response,,,,100,,,,,,,Space,keypress(Space),,,,,,,,-- --- ---- --- ------ ----- ------- ---- -- --- ------- --<br>------- ---------- ------ -- ----- -- ----- -- ---- ------<br>--- ----- --- --- ------ -------- ----- --- ------ ----- of<br>----- ----- ---------- --- --- ------ ------ ---- -- ------<br>------- --- ------ ----- --- ---- ------- -- ---- --- --<br>------- ------,766768.9750000136,766766.4850000292,766283.031,766294.430000009,766299.445,766782.612,,32,of
screen,html.Screen,1_1_1_1_33,2021-04-22T09:04:58.412Z,,,,,,,,,,,,,,,,54,,,,,,,,,,,,,,385.0679999550339,,response,,,,100,,,,,,,Space,keypress(Space),,,,,,,,-- --- ---- --- ------ ----- ------- ---- -- --- ------- --<br>------- ---------- ------ -- ----- -- ----- -- ---- ------<br>--- ----- --- --- ------ -------- ----- --- ------ ----- --<br>these ----- ---------- --- --- ------ ------ ---- -- ------<br>------- --- ------ ----- --- ---- ------- -- ---- --- --<br>------- ------,767170.3299999936,767167.679999955,766766.188,766769.2350000143,766782.612,767182.183,,33,these
screen,html.Screen,1_1_1_1_34,2021-04-22T09:04:58.886Z,,,,,,,,,,,,,,,,54,,,,,,,,,,,,,,459.7620000394527,,response,,,,100,,,,,,,Space,keypress(Space),,,,,,,,-- --- ---- --- ------ ----- ------- ---- -- --- ------- --<br>------- ---------- ------ -- ----- -- ----- -- ---- ------<br>--- ----- --- --- ------ -------- ----- --- ------ ----- --<br>----- bonds ---------- --- --- ------ ------ ---- -- ------<br>------- --- ------ ----- --- ---- ------- -- ---- --- --<br>------- ------,767644.4700000575,767641.9450000394,767165.83,767170.5800000345,767182.183,767648.469,,34,bonds
screen,html.Screen,1_1_1_1_35,2021-04-22T09:04:59.352Z,,,,,,,,,,,,,,,,54,,,,,,,,,,,,,,459.19099997961894,,response,,,,100,,,,,,,Space,keypress(Space),,,,,,,,"-- --- ---- --- ------ ----- ------- ---- -- --- ------- --<br>------- ---------- ------ -- ----- -- ----- -- ---- ------<br>--- ----- --- --- ------ -------- ----- --- ------ ----- --<br>----- ----- plummeted, --- --- ------ ------ ---- -- ------<br>------- --- ------ ----- --- ---- ------- -- ---- --- --<br>------- ------",768110.1649999619,768107.6599999797,767632.111,767644.7150000604,767648.469,768114.822,,35,"plummeted,"
screen,html.Screen,1_1_1_1_36,2021-04-22T09:04:59.757Z,,,,,,,,,,,,,,,,54,,,,,,,,,,,,,,398.2530000243569,,response,,,,100,,,,,,,Space,keypress(Space),,,,,,,,-- --- ---- --- ------ ----- ------- ---- -- --- ------- --<br>------- ---------- ------ -- ----- -- ----- -- ---- ------<br>--- ----- --- --- ------ -------- ----- --- ------ ----- --<br>----- ----- ---------- and --- ------ ------ ---- -- ------<br>------- --- ------ ----- --- ---- ------- -- ---- --- --<br>------- ------,768515.5350000132,768513.0750000244,768098.54,768110.4200000409,768114.822,768531.318,,36,and
screen,html.Screen,1_1_1_1_37,2021-04-22T09:05:00.055Z,,,,,,,,,,,,,,,,54,,,,,,,,,,,,,,281.542000063695,,response,,,,100,,,,,,,Space,keypress(Space),,,,,,,,-- --- ---- --- ------ ----- ------- ---- -- --- ------- --<br>------- ---------- ------ -- ----- -- ----- -- ---- ------<br>--- ----- --- --- ------ -------- ----- --- ------ ----- --<br>----- ----- ---------- --- the ------ ------ ---- -- ------<br>------- --- ------ ----- --- ---- ------- -- ---- --- --<br>------- ------,768813.9400000218,768812.8600000637,768514.73,768515.7899999758,768531.318,768847.598,,37,the
screen,html.Screen,1_1_1_1_38,2021-04-22T09:05:00.417Z,,,,,,,,,,,,,,,,54,,,,,,,,,,,,,,326.1219999624882,,response,,,,100,,,,,,,Space,keypress(Space),,,,,,,,-- --- ---- --- ------ ----- ------- ---- -- --- ------- --<br>------- ---------- ------ -- ----- -- ----- -- ---- ------<br>--- ----- --- --- ------ -------- ----- --- ------ ----- --<br>----- ----- ---------- --- --- market ------ ---- -- ------<br>------- --- ------ ----- --- ---- ------- -- ---- --- --<br>------- ------,769175.5399999674,769173.7199999625,768830.883,768814.0950000379,768847.598,769180.671,,38,market
screen,html.Screen,1_1_1_1_39,2021-04-22T09:05:00.798Z,,,,,,,,,,,,,,,,54,,,,,,,,,,,,,,373.65899995539803,,response,,,,100,,,,,,,Space,keypress(Space),,,,,,,,-- --- ---- --- ------ ----- ------- ---- -- --- ------- --<br>------- ---------- ------ -- ----- -- ----- -- ---- ------<br>--- ----- --- --- ------ -------- ----- --- ------ ----- --<br>----- ----- ---------- --- --- ------ became ---- -- ------<br>------- --- ------ ----- --- ---- ------- -- ---- --- --<br>------- ------,769556.7799999844,769554.3299999554,769164.386,769175.7950000465,769180.671,769564.357,,39,became
screen,html.Screen,1_1_1_1_40,2021-04-22T09:05:01.150Z,,,,,,,,,,,,,,,,54,,,,,,,,,,,,,,341.8579999663634,,response,,,,100,,,,,,,Space,keypress(Space),,,,,,,,-- --- ---- --- ------ ----- ------- ---- -- --- ------- --<br>------- ---------- ------ -- ----- -- ----- -- ---- ------<br>--- ----- --- --- ------ -------- ----- --- ------ ----- --<br>----- ----- ---------- --- --- ------ ------ wary -- ------<br>------- --- ------ ----- --- ---- ------- -- ---- --- --<br>------- ------,769908.070000005,769906.2149999663,769547.498,769557.0300000254,769564.357,769913.492,,40,wary
screen,html.Screen,1_1_1_1_41,2021-04-22T09:05:01.485Z,,,,,,,,,,,,,,,,54,,,,,,,,,,,,,,328.2329999707872,,response,,,,100,,,,,,,Space,keypress(Space),,,,,,,,-- --- ---- --- ------ ----- ------- ---- -- --- ------- --<br>------- ---------- ------ -- ----- -- ----- -- ---- ------<br>--- ----- --- --- ------ -------- ----- --- ------ ----- --<br>----- ----- ---------- --- --- ------ ------ ---- of ------<br>------- --- ------ ----- --- ---- ------- -- ---- --- --<br>------- ------,770243.5500000138,770241.7249999708,769897.219,769908.3249999676,769913.492,770246.566,,41,of
screen,html.Screen,1_1_1_1_42,2021-04-22T09:05:01.865Z,,,,,,,,,,,,,,,,54,,,,,,,,,,,,,,374.3140000604326,,response,,,,100,,,,,,,Space,keypress(Space),,,,,,,,-- --- ---- --- ------ ----- ------- ---- -- --- ------- --<br>------- ---------- ------ -- ----- -- ----- -- ---- ------<br>--- ----- --- --- ------ -------- ----- --- ------ ----- --<br>----- ----- ---------- --- --- ------ ------ ---- -- French<br>------- --- ------ ----- --- ---- ------- -- ---- --- --<br>------- ------,770623.4549999936,770620.8800000604,770230.284,770243.8000000548,770246.566,770629.59,,42,French
screen,html.Screen,1_1_1_1_43,2021-04-22T09:05:02.487Z,,,,,,,,,,,,,,,,54,,,,,,,,,,,,,,612.5250000300584,,response,,,,100,,,,,,,Space,keypress(Space),,,,,,,,-- --- ---- --- ------ ----- ------- ---- -- --- ------- --<br>------- ---------- ------ -- ----- -- ----- -- ---- ------<br>--- ----- --- --- ------ -------- ----- --- ------ ----- --<br>----- ----- ---------- --- --- ------ ------ ---- -- ------<br>credit. --- ------ ----- --- ---- ------- -- ---- --- --<br>------- ------,771245.1250000158,771242.11500003,770613.428,770623.6999999965,770629.59,771279.385,,43,credit.
screen,html.Screen,1_1_1_1_44,2021-04-22T09:05:03.012Z,,,,,,,,,,,,,,,,54,,,,,,,,,,,,,,489.0600000524428,,response,,,,100,,,,,,,Space,keypress(Space),,,,,,,,-- --- ---- --- ------ ----- ------- ---- -- --- ------- --<br>------- ---------- ------ -- ----- -- ----- -- ---- ------<br>--- ----- --- --- ------ -------- ----- --- ------ ----- --<br>----- ----- ---------- --- --- ------ ------ ---- -- ------<br>------- The ------ ----- --- ---- ------- -- ---- --- --<br>------- ------,771770.9749999922,771768.4450000525,771262.683,771245.4399999697,771279.385,771778.757,,44,The
screen,html.Screen,1_1_1_1_45,2021-04-22T09:05:03.897Z,,,,,,,,,,,,,,,,54,,,,,,,,,,,,,,874.5130000098143,,response,,,,100,,,,,,,Space,keypress(Space),,,,,,,,-- --- ---- --- ------ ----- ------- ---- -- --- ------- --<br>------- ---------- ------ -- ----- -- ----- -- ---- ------<br>--- ----- --- --- ------ -------- ----- --- ------ ----- --<br>----- ----- ---------- --- --- ------ ------ ---- -- ------<br>------- --- French ----- --- ---- ------- -- ---- --- --<br>------- ------,772655.8000000659,772653.2700000098,771762.641,771771.2299999548,771778.757,772661.513,,45,French
screen,html.Screen,1_1_1_1_46,2021-04-22T09:05:04.352Z,,,,,,,,,,,,,,,,54,,,,,,,,,,,,,,447.0819999978412,,response,,,,100,,,,,,,Space,keypress(Space),,,,,,,,-- --- ---- --- ------ ----- ------- ---- -- --- ------- --<br>------- ---------- ------ -- ----- -- ----- -- ---- ------<br>--- ----- --- --- ------ -------- ----- --- ------ ----- --<br>----- ----- ---------- --- --- ------ ------ ---- -- ------<br>------- --- ------ state --- ---- ------- -- ---- --- --<br>------- ------,773111.0399999889,773108.5949999979,772645.589,772656.0550000286,772661.513,773128.066,,46,state
screen,html.Screen,1_1_1_1_47,2021-04-22T09:05:04.813Z,,,,,,,,,,,,,,,,54,,,,,,,,,,,,,,441.17900002060924,,response,,,,100,,,,,,,Space,keypress(Space),,,,,,,,-- --- ---- --- ------ ----- ------- ---- -- --- ------- --<br>------- ---------- ------ -- ----- -- ----- -- ---- ------<br>--- ----- --- --- ------ -------- ----- --- ------ ----- --<br>----- ----- ---------- --- --- ------ ------ ---- -- ------<br>------- --- ------ ----- was ---- ------- -- ---- --- --<br>------- ------,773571.6800000519,773569.2450000206,773111.57,773111.2849999918,773128.066,773577.513,,47,was
screen,html.Screen,1_1_1_1_48,2021-04-22T09:05:05.210Z,,,,,,,,,,,,,,,,54,,,,,,,,,,,,,,388.2870000053663,,response,,,,100,,,,,,,Space,keypress(Space),,,,,,,,-- --- ---- --- ------ ----- ------- ---- -- --- ------- --<br>------- ---------- ------ -- ----- -- ----- -- ---- ------<br>--- ----- --- --- ------ -------- ----- --- ------ ----- --<br>----- ----- ---------- --- --- ------ ------ ---- -- ------<br>------- --- ------ ----- --- left ------- -- ---- --- --<br>------- ------,773968.2950000279,773965.8000000054,773561.216,773571.9250000548,773577.513,773977.39,,48,left
screen,html.Screen,1_1_1_1_49,2021-04-22T09:05:05.619Z,,,,,,,,,,,,,,,,54,,,,,,,,,,,,,,397.91499999410007,,response,,,,100,,,,,,,Space,keypress(Space),,,,,,,,-- --- ---- --- ------ ----- ------- ---- -- --- ------- --<br>------- ---------- ------ -- ----- -- ----- -- ---- ------<br>--- ----- --- --- ------ -------- ----- --- ------ ----- --<br>----- ----- ---------- --- --- ------ ------ ---- -- ------<br>------- --- ------ ----- --- ---- without -- ---- --- --<br>------- ------,774377.8150000144,774375.3049999941,773960.981,773968.5499999905,773977.39,774393.86,,49,without
screen,html.Screen,1_1_1_1_50,2021-04-22T09:05:06.025Z,,,,,,,,,,,,,,,,54,,,,,,,,,,,,,,387.0400000124937,,response,,,,100,,,,,,,Space,keypress(Space),,,,,,,,-- --- ---- --- ------ ----- ------- ---- -- --- ------- --<br>------- ---------- ------ -- ----- -- ----- -- ---- ------<br>--- ----- --- --- ------ -------- ----- --- ------ ----- --<br>----- ----- ---------- --- --- ------ ------ ---- -- ------<br>------- --- ------ ----- --- ---- ------- an ---- --- --<br>------- ------,774783.3800000371,774780.9000000125,774377.355,774378.0650000554,774393.86,774793.228,,50,an
screen,html.Screen,1_1_1_1_51,2021-04-22T09:05:06.500Z,,,,,,,,,,,,,,,,54,,,,,,,,,,,,,,463.22199998621363,,response,,,,100,,,,,,,Space,keypress(Space),,,,,,,,-- --- ---- --- ------ ----- ------- ---- -- --- ------- --<br>------- ---------- ------ -- ----- -- ----- -- ---- ------<br>--- ----- --- --- ------ -------- ----- --- ------ ----- --<br>----- ----- ---------- --- --- ------ ------ ---- -- ------<br>------- --- ------ ----- --- ---- ------- -- easy --- --<br>------- ------,775258.9399999706,775256.4499999862,774777.066,774783.6349999998,774793.228,775293.165,,51,easy
screen,html.Screen,1_1_1_1_52,2021-04-22T09:05:06.901Z,,,,,,,,,,,,,,,,54,,,,,,,,,,,,,,363.91500003356487,,response,,,,100,,,,,,,Space,keypress(Space),,,,,,,,-- --- ---- --- ------ ----- ------- ---- -- --- ------- --<br>------- ---------- ------ -- ----- -- ----- -- ---- ------<br>--- ----- --- --- ------ -------- ----- --- ------ ----- --<br>----- ----- ---------- --- --- ------ ------ ---- -- ------<br>------- --- ------ ----- --- ---- ------- -- ---- way --<br>------- ------,775659.5600000583,775657.0800000336,775276.399,775259.1900000116,775293.165,775676.165,,52,way
screen,html.Screen,1_1_1_1_53,2021-04-22T09:05:07.251Z,,,,,,,,,,,,,,,,54,,,,,,,,,,,,,,331.1500000534579,,response,,,,100,,,,,,,Space,keypress(Space),,,,,,,,-- --- ---- --- ------ ----- ------- ---- -- --- ------- --<br>------- ---------- ------ -- ----- -- ----- -- ---- ------<br>--- ----- --- --- ------ -------- ----- --- ------ ----- --<br>----- ----- ---------- --- --- ------ ------ ---- -- ------<br>------- --- ------ ----- --- ---- ------- -- ---- --- of<br>------- ------,776009.8500000313,776007.3150000535,775659.744,775659.820000059,775676.165,776026.059,,53,of
screen,html.Screen,1_1_1_1_54,2021-04-22T09:05:07.636Z,,,,,,,,,,,,,,,,54,,,,,,,,,,,,,,366.7659999880707,,response,,,,100,,,,,,,Space,keypress(Space),,,,,,,,-- --- ---- --- ------ ----- ------- ---- -- --- ------- --<br>------- ---------- ------ -- ----- -- ----- -- ---- ------<br>--- ----- --- --- ------ -------- ----- --- ------ ----- --<br>----- ----- ---------- --- --- ------ ------ ---- -- ------<br>------- --- ------ ----- --- ---- ------- -- ---- --- --<br>raising ------,776394.5900000399,776392.8249999881,776009.563,776010.0999999559,776026.059,776409.026,,54,raising
screen,html.Screen,1_1_1_1_55,2021-04-22T09:05:08.637Z,,,,,,,,,,,,,,,,54,,,,,,,,,,,,,,984.949000013643,,response,,,,100,,,,,,,Space,keypress(Space),,,,,,,,-- --- ---- --- ------ ----- ------- ---- -- --- ------- --<br>------- ---------- ------ -- ----- -- ----- -- ---- ------<br>--- ----- --- --- ------ -------- ----- --- ------ ----- --<br>----- ----- ---------- --- --- ------ ------ ---- -- ------<br>------- --- ------ ----- --- ---- ------- -- ---- --- --<br>------- money.,777395.7850000588,777393.9750000136,776392.553,776394.8350000428,776409.026,777408.121,,55,money.
Item 100,flow.Loop,1_1_1_1,2021-04-22T09:05:08.638Z,,,,,,,,,,,,,,,,,,,,,,,,,,,,,,48716.82100001362,,completion,,,,,F,,,,,,,,,,,silence,,,,,777396.5049999533,777393.9750000136,728660.027,728661.4449999761,728677.154,777408.121,,,
Question 1,html.Screen,1_1_1_2,2021-04-22T09:05:12.345Z,,,,,,,,,,,,,,,,,,,,,,,,,,,true,TRUE,,3693.9240000650752,,response,,,,100,F,,,,,,TRUE,click #choice-1,,,,silence,,,,,781103.9950000122,781102.0450000651,777392.198,777396.715000039,777408.121,781105.392,,,
Question 2,html.Screen,1_1_1_3,2021-04-22T09:05:17.232Z,,,,,,,,,,,,,,,,,,,,,,,,,,,true,FALSE,,4883.408000050113,,response,,,,100,F,,,,,,FALSE,click #choice-2,,,,silence,,,,,785990.5250000302,785988.8000000501,781089.01,781104.1650000261,781105.392,786002.772,,,
Item 100,flow.Sequence,1_1_1,2021-04-22T09:05:17.232Z,,,,,,,,,,,,,,,,,,,,,,,,,,,,,,67305.06500005012,,completion,,,,,,,,,,,,,,,,,,,,,785990.7550000353,785988.8000000501,718667.505,718682.2600000305,718683.735,786002.772,,,
End of Practice,html.Page,1_1_2,2021-04-22T09:05:37.230Z,,,,,,,,,,,,,,,,,,,,,,,,,,,,,,20001.302000000025,,timeout,,,,,,,,,,,,,,,,,,,,,805988.9350000303,805987.637,785985.476,785990.8600000199,786002.772,806004.074,,,
Practice,flow.Sequence,1_1,2021-04-22T09:05:37.231Z,,,,,,,,,,,,,,,,,,,,,,,,,,,,,,140432.23699999996,,completion,,,,,,,,,,,,,,,,,,,,,805989.2900000559,805987.637,665538.823,665551.4350000303,665555.4,806004.074,,,
Trap_instruction,html.Page,1_2_0,2021-04-22T09:05:57.233Z,,,,,,,,,,,,,,,,,,,,,,,,,,,,,,20035.554000000004,,timeout,,,,,,,,,,,,,,,,,,,,,825991.1749999737,825989.88,805987.637,805989.5450000186,806004.074,826039.628,,,
trap_trial,html.Screen,1_2_1,2021-04-22T09:06:07.517Z,,,,,,,,,,,,,,,,,,,,,,,,,,,true,1,,10233.557000056375,,response,,,,,,,,,,,1,click #choice-1,,,,,,,,,836275.0200000592,836273.1850000564,825989.88,825991.4750000462,826039.628,836282.956,,,
end of trap trial,html.Page,1_2_2,2021-04-22T09:06:17.501Z,,,,,,,,,,,,,,,,,,,,,,,,,,,,,,9991.98999999999,,timeout,,,,,,,,,,,,,,,,,,,,,846259.5100000035,846258.572,836265.99,836275.1899999566,836282.956,846274.946,,,
Trap 1,flow.Sequence,1_2,2021-04-22T09:06:17.501Z,,,,,,,,,,,,,,,,,,,,,,,,,,,,,,40254.49800000002,,completion,,,,,,,,,,,,,,,,,,,,,846259.7300000489,846258.572,805987.637,805989.4599999534,806004.074,846274.946,,,
Standby,html.Page,1_3_0,2021-04-22T09:06:25.496Z,,,,,,,,,,,,,,,,,,,,,,,,,,,,,,7994.491999999969,,timeout,,,,,,,,,,,,,,,,,,,,,854254.4100000523,854252.878,846258.572,846259.8950000247,846274.946,854269.438,,,
Holding screen,html.Screen,1_3_1_0_0,2021-04-22T09:06:32.490Z,,,,,,,,,,,,,,,,,,,,,,,,,,,,,,6994.72100000002,,timeout,,,,,,,,,,,,,,,,,,,,,861248.7899999833,861247.617,854252.878,854254.8550000647,854269.438,861264.159,,,
screen,html.Screen,1_3_1_0_1_0,2021-04-22T09:06:33.843Z,,,,,,,,,,,,,,,,11,,,,,,,,,,,,,,1335.4060000404716,,response,,,,4,F,,,,,,Space,keypress(Space),,,,instrumental,,,,Known -- ---- --- -- --- -------- ------------ ---------- --<br>- ------- ------ --------- -- ------------ -- --- ---- -----<br>------ ---- ---- ------ ------ ------- --- ----- ---------<br>---- --- -------- -------- --- --- -- ------- --- --- -----<br>-- --- ------ ------- --- --- -------- ---- --------- --<br>---------- -- -------- ----------------,862601.7249999568,862599.5650000405,861247.617,861249.1200000513,861264.159,862613.257,,0,Known
screen,html.Screen,1_3_1_0_1_1,2021-04-22T09:06:34.219Z,,,,,,,,,,,,,,,,11,,,,,,,,,,,,,,362.00800001551397,,response,,,,4,F,,,,,,Space,keypress(Space),,,,instrumental,,,,----- as ---- --- -- --- -------- ------------ ---------- --<br>- ------- ------ --------- -- ------------ -- --- ---- -----<br>------ ---- ---- ------ ------ ------- --- ----- ---------<br>---- --- -------- -------- --- --- -- ------- --- --- -----<br>-- --- ------ ------- --- --- -------- ---- --------- --<br>---------- -- -------- ----------------,862977.4899999611,862975.2650000155,862597.885,862601.9099999685,862613.257,862979.663,,1,as
screen,html.Screen,1_3_1_0_1_2,2021-04-22T09:06:34.569Z,,,,,,,,,,,,,,,,11,,,,,,,,,,,,,,346.7820000133943,,response,,,,4,F,,,,,,Space,keypress(Space),,,,instrumental,,,,----- -- Rapa --- -- --- -------- ------------ ---------- --<br>- ------- ------ --------- -- ------------ -- --- ---- -----<br>------ ---- ---- ------ ------ ------- --- ----- ---------<br>---- --- -------- -------- --- --- -- ------- --- --- -----<br>-- --- ------ ------- --- --- -------- ---- --------- --<br>---------- -- -------- ----------------,863327.9350000666,863326.4450000133,862963.193,862977.7400000021,862979.663,863350.357,,2,Rapa
screen,html.Screen,1_3_1_0_1_3,2021-04-22T09:06:35.130Z,,,,,,,,,,,,,,,,11,,,,,,,,,,,,,,535.7580000011949,,response,,,,4,F,,,,,,Space,keypress(Space),,,,instrumental,,,,----- -- ---- Nui -- --- -------- ------------ ---------- --<br>- ------- ------ --------- -- ------------ -- --- ---- -----<br>------ ---- ---- ------ ------ ------- --- ----- ---------<br>---- --- -------- -------- --- --- -- ------- --- --- -----<br>-- --- ------ ------- --- --- -------- ---- --------- --<br>---------- -- -------- ----------------,863888.2400000002,863886.1150000012,863312.965,863328.1750000315,863350.357,863896.307,,3,Nui
screen,html.Screen,1_3_1_0_1_4,2021-04-22T09:06:35.620Z,,,,,,,,,,,,,,,,11,,,,,,,,,,,,,,481.21800001803786,,response,,,,4,F,,,,,,Space,keypress(Space),,,,instrumental,,,,----- -- ---- --- to --- -------- ------------ ---------- --<br>- ------- ------ --------- -- ------------ -- --- ---- -----<br>------ ---- ---- ------ ------ ------- --- ----- ---------<br>---- --- -------- -------- --- --- -- ------- --- --- -----<br>-- --- ------ ------- --- --- -------- ---- --------- --<br>---------- -- -------- ----------------,864378.9749999996,864377.5250000181,863879.578,863888.4949999629,863896.307,864395.541,,4,to
screen,html.Screen,1_3_1_0_1_5,2021-04-22T09:06:36.022Z,,,,,,,,,,,,,,,,11,,,,,,,,,,,,,,382.58399995346554,,response,,,,4,F,,,,,,Space,keypress(Space),,,,instrumental,,,,----- -- ---- --- -- the -------- ------------ ---------- --<br>- ------- ------ --------- -- ------------ -- --- ---- -----<br>------ ---- ---- ------ ------ ------- --- ----- ---------<br>---- --- -------- -------- --- --- -- ------- --- --- -----<br>-- --- ------ ------- --- --- -------- ---- --------- --<br>---------- -- -------- ----------------,864780.2049999591,864778.1249999534,864379.18,864379.2200000025,864395.541,864795.127,,5,the
screen,html.Screen,1_3_1_0_1_6,2021-04-22T09:06:36.518Z,,,,,,,,,,,,,,,,11,,,,,,,,,,,,,,479.6130000225967,,response,,,,4,F,,,,,,Space,keypress(Space),,,,instrumental,,,,----- -- ---- --- -- --- island's ------------ ---------- --<br>- ------- ------ --------- -- ------------ -- --- ---- -----<br>------ ---- ---- ------ ------ ------- --- ----- ---------<br>---- --- -------- -------- --- --- -- ------- --- --- -----<br>-- --- ------ ------- --- --- -------- ---- --------- --<br>---------- -- -------- ----------------,865276.9300000509,865274.7400000226,864778.806,864780.4550000001,864795.127,865294.845,,6,island's
screen,html.Screen,1_3_1_0_1_7,2021-04-22T09:06:37.647Z,,,,,,,,,,,,,,,,11,,,,,,,,,,,,,,1109.5199999657925,,response,,,,4,F,,,,,,Space,keypress(Space),,,,instrumental,,,,"----- -- ---- --- -- --- -------- inhabitants, ---------- --<br>- ------- ------ --------- -- ------------ -- --- ---- -----<br>------ ---- ---- ------ ------ ------- --- ----- ---------<br>---- --- -------- -------- --- --- -- ------- --- --- -----<br>-- --- ------ ------- --- --- -------- ---- --------- --<br>---------- -- -------- ----------------",866405.9800000396,866404.3649999658,865261.843,865277.2200000472,865294.845,866410.539,,7,"inhabitants,"
screen,html.Screen,1_3_1_0_1_8,2021-04-22T09:06:38.444Z,,,,,,,,,,,,,,,,11,,,,,,,,,,,,,,789.9209999636514,,response,,,,4,F,,,,,,Space,keypress(Space),,,,instrumental,,,,----- -- ---- --- -- --- -------- ------------ Rongorongo --<br>- ------- ------ --------- -- ------------ -- --- ---- -----<br>------ ---- ---- ------ ------ ------- --- ----- ---------<br>---- --- -------- -------- --- --- -- ------- --- --- -----<br>-- --- ------ ------- --- --- -------- ---- --------- --<br>---------- -- -------- ----------------,867202.174999984,867200.4599999636,866394.909,866406.2299999641,866410.539,867209.965,,8,Rongorongo
screen,html.Screen,1_3_1_0_1_9,2021-04-22T09:06:38.878Z,,,,,,,,,,,,,,,,11,,,,,,,,,,,,,,425.1849999873666,,response,,,,4,F,,,,,,Space,keypress(Space),,,,instrumental,,,,----- -- ---- --- -- --- -------- ------------ ---------- is<br>- ------- ------ --------- -- ------------ -- --- ---- -----<br>------ ---- ---- ------ ------ ------- --- ----- ---------<br>---- --- -------- -------- --- --- -- ------- --- --- -----<br>-- --- ------ ------- --- --- -------- ---- --------- --<br>---------- -- -------- ----------------,867636.3450000063,867635.1499999873,867193.795,867202.430000063,867209.965,867643.362,,9,is
screen,html.Screen,1_3_1_0_1_10,2021-04-22T09:06:39.270Z,,,,,,,,,,,,,,,,11,,,,,,,,,,,,,,383.2430000209715,,response,,,,4,F,,,,,,Space,keypress(Space),,,,instrumental,,,,----- -- ---- --- -- --- -------- ------------ ---------- --<br>a ------- ------ --------- -- ------------ -- --- ---- -----<br>------ ---- ---- ------ ------ ------- --- ----- ---------<br>---- --- -------- -------- --- --- -- ------- --- --- -----<br>-- --- ------ ------- --- --- -------- ---- --------- --<br>---------- -- -------- ----------------,868029.0250000544,868026.6050000209,867626.625,867636.5950000472,867643.362,868043.752,,10,a
screen,html.Screen,1_3_1_0_1_11,2021-04-22T09:06:39.917Z,,,,,,,,,,,,,,,,11,,,,,,,,,,,,,,628.0230000534793,,response,,,,4,F,,,,,,Space,keypress(Space),,,,instrumental,,,,----- -- ---- --- -- --- -------- ------------ ---------- --<br>- writing ------ --------- -- ------------ -- --- ---- -----<br>------ ---- ---- ------ ------ ------- --- ----- ---------<br>---- --- -------- -------- --- --- -- ------- --- --- -----<br>-- --- ------ ------- --- --- -------- ---- --------- --<br>---------- -- -------- ----------------,868675.3849999513,868671.7750000535,868026.214,868029.280000017,868043.752,868692.312,,11,writing
screen,html.Screen,1_3_1_0_1_12,2021-04-22T09:06:40.561Z,,,,,,,,,,,,,,,,11,,,,,,,,,,,,,,625.2830000295071,,response,,,,4,F,,,,,,Space,keypress(Space),,,,instrumental,,,,----- -- ---- --- -- --- -------- ------------ ---------- --<br>- ------- system --------- -- ------------ -- --- ---- -----<br>------ ---- ---- ------ ------ ------- --- ----- ---------<br>---- --- -------- -------- --- --- -- ------- --- --- -----<br>-- --- ------ ------- --- --- -------- ---- --------- --<br>---------- -- -------- ----------------,869319.2699999781,869317.5950000295,868676.175,868675.6400000304,868692.312,869325.1,,12,system
screen,html.Screen,1_3_1_0_1_13,2021-04-22T09:06:41.217Z,,,,,,,,,,,,,,,,11,,,,,,,,,,,,,,648.9250000031898,,response,,,,4,F,,,,,,Space,keypress(Space),,,,instrumental,,,,----- -- ---- --- -- --- -------- ------------ ---------- --<br>- ------- ------ comprised -- ------------ -- --- ---- -----<br>------ ---- ---- ------ ------ ------- --- ----- ---------<br>---- --- -------- -------- --- --- -- ------- --- --- -----<br>-- --- ------ ------- --- --- -------- ---- --------- --<br>---------- -- -------- ----------------,869975.8200000506,869974.0250000032,869309.011,869319.5200000191,869325.1,869991.464,,13,comprised
screen,html.Screen,1_3_1_0_1_14,2021-04-22T09:06:41.678Z,,,,,,,,,,,,,,,,11,,,,,,,,,,,,,,443.40599999728147,,response,,,,4,F,,,,,,Space,keypress(Space),,,,instrumental,,,,----- -- ---- --- -- --- -------- ------------ ---------- --<br>- ------- ------ --------- of ------------ -- --- ---- -----<br>------ ---- ---- ------ ------ ------- --- ----- ---------<br>---- --- -------- -------- --- --- -- ------- --- --- -----<br>-- --- ------ ------- --- --- -------- ---- --------- --<br>---------- -- -------- ----------------,870436.6099999752,870434.8699999973,869975.192,869976.0650000535,869991.464,870440.917,,14,of
screen,html.Screen,1_3_1_0_1_15,2021-04-22T09:06:42.644Z,,,,,,,,,,,,,,,,11,,,,,,,,,,,,,,959.1330000547459,,response,,,,4,F,,,,,,Space,keypress(Space),,,,instrumental,,,,----- -- ---- --- -- --- -------- ------------ ---------- --<br>- ------- ------ --------- -- pictographs. -- --- ---- -----<br>------ ---- ---- ------ ------ ------- --- ----- ---------<br>---- --- -------- -------- --- --- -- ------- --- --- -----<br>-- --- ------ ------- --- --- -------- ---- --------- --<br>---------- -- -------- ----------------,871402.4500000523,871400.0500000548,870424.777,870436.8600000162,870440.917,871406.939,,15,pictographs.
screen,html.Screen,1_3_1_0_1_16,2021-04-22T09:06:43.105Z,,,,,,,,,,,,,,,,11,,,,,,,,,,,,,,453.49100000062026,,response,,,,4,F,,,,,,Space,keypress(Space),,,,instrumental,,,,----- -- ---- --- -- --- -------- ------------ ---------- --<br>- ------- ------ --------- -- ------------ It --- ---- -----<br>------ ---- ---- ------ ------ ------- --- ----- ---------<br>---- --- -------- -------- --- --- -- ------- --- --- -----<br>-- --- ------ ------- --- --- -------- ---- --------- --<br>---------- -- -------- ----------------,871863.9200000325,871860.4300000006,871391.098,871402.8649999527,871406.939,871873.746,,16,It
screen,html.Screen,1_3_1_0_1_17,2021-04-22T09:06:43.465Z,,,,,,,,,,,,,,,,11,,,,,,,,,,,,,,347.2939999748487,,response,,,,4,F,,,,,,Space,keypress(Space),,,,instrumental,,,,----- -- ---- --- -- --- -------- ------------ ---------- --<br>- ------- ------ --------- -- ------------ -- has ---- -----<br>------ ---- ---- ------ ------ ------- --- ----- ---------<br>---- --- -------- -------- --- --- -- ------- --- --- -----<br>-- --- ------ ------- --- --- -------- ---- --------- --<br>---------- -- -------- ----------------,872223.3649999835,872221.0399999749,871856.874,871864.189999993,871873.746,872239.606,,17,has
screen,html.Screen,1_3_1_0_1_18,2021-04-22T09:06:43.910Z,,,,,,,,,,,,,,,,11,,,,,,,,,,,,,,427.4740000428865,,response,,,,4,F,,,,,,Space,keypress(Space),,,,instrumental,,,,----- -- ---- --- -- --- -------- ------------ ---------- --<br>- ------- ------ --------- -- ------------ -- --- been -----<br>------ ---- ---- ------ ------ ------- --- ----- ---------<br>---- --- -------- -------- --- --- -- ------- --- --- -----<br>-- --- ------ ------- --- --- -------- ---- --------- --<br>---------- -- -------- ----------------,872668.810000061,872667.0800000429,872223.416,872223.8099999959,872239.606,872672.724,,18,been
screen,html.Screen,1_3_1_0_1_19,2021-04-22T09:06:44.320Z,,,,,,,,,,,,,,,,11,,,,,,,,,,,,,,404.30100000591483,,response,,,,4,F,,,,,,Space,keypress(Space),,,,instrumental,,,,----- -- ---- --- -- --- -------- ------------ ---------- --<br>- ------- ------ --------- -- ------------ -- --- ---- found<br>------ ---- ---- ------ ------ ------- --- ----- ---------<br>---- --- -------- -------- --- --- -- ------- --- --- -----<br>-- --- ------ ------- --- --- -------- ---- --------- --<br>---------- -- -------- ----------------,873078.8200000534,873077.025000006,872656.35,872669.1100000171,872672.724,873089.285,,19,found
screen,html.Screen,1_3_1_0_1_20,2021-04-22T09:06:45.252Z,,,,,,,,,,,,,,,,11,,,,,,,,,,,,,,918.8449999728473,,response,,,,4,F,,,,,,Space,keypress(Space),,,,instrumental,,,,----- -- ---- --- -- --- -------- ------------ ---------- --<br>- ------- ------ --------- -- ------------ -- --- ---- -----<br>carved ---- ---- ------ ------ ------- --- ----- ---------<br>---- --- -------- -------- --- --- -- ------- --- --- -----<br>-- --- ------ ------- --- --- -------- ---- --------- --<br>---------- -- -------- ----------------,874010.5700000422,874008.1299999729,873072.84,873079.069999978,873089.285,874021.652,,20,carved
screen,html.Screen,1_3_1_0_1_21,2021-04-22T09:06:45.606Z,,,,,,,,,,,,,,,,11,,,,,,,,,,,,,,342.11300001642667,,response,,,,4,F,,,,,,Space,keypress(Space),,,,instrumental,,,,----- -- ---- --- -- --- -------- ------------ ---------- --<br>- ------- ------ --------- -- ------------ -- --- ---- -----<br>------ into ---- ------ ------ ------- --- ----- ---------<br>---- --- -------- -------- --- --- -- ------- --- --- -----<br>-- --- ------ ------- --- --- -------- ---- --------- --<br>---------- -- -------- ----------------,874364.889999968,874363.7650000164,874005.937,874010.8150000451,874021.652,874371.389,,21,into
screen,html.Screen,1_3_1_0_1_22,2021-04-22T09:06:45.982Z,,,,,,,,,,,,,,,,11,,,,,,,,,,,,,,367.471000041347,,response,,,,4,F,,,,,,Space,keypress(Space),,,,instrumental,,,,----- -- ---- --- -- --- -------- ------------ ---------- --<br>- ------- ------ --------- -- ------------ -- --- ---- -----<br>------ ---- many ------ ------ ------- --- ----- ---------<br>---- --- -------- -------- --- --- -- ------- --- --- -----<br>-- --- ------ ------- --- --- -------- ---- --------- --<br>---------- -- -------- ----------------,874740.5750000617,874738.8600000413,874355.2,874365.0449999841,874371.389,874754.733,,22,many
screen,html.Screen,1_3_1_0_1_23,2021-04-22T09:06:46.493Z,,,,,,,,,,,,,,,,11,,,,,,,,,,,,,,494.73200000077486,,response,,,,4,F,,,,,,Space,keypress(Space),,,,instrumental,,,,----- -- ---- --- -- --- -------- ------------ ---------- --<br>- ------- ------ --------- -- ------------ -- --- ---- -----<br>------ ---- ---- oblong ------ ------- --- ----- ---------<br>---- --- -------- -------- --- --- -- ------- --- --- -----<br>-- --- ------ ------- --- --- -------- ---- --------- --<br>---------- -- -------- ----------------,875251.9800000591,875249.4650000008,874738.309,874740.8099999884,874754.733,875291.931,,23,oblong
screen,html.Screen,1_3_1_0_1_24,2021-04-22T09:06:46.999Z,,,,,,,,,,,,,,,,11,,,,,,,,,,,,,,464.0240000587655,,response,,,,4,F,,,,,,Space,keypress(Space),,,,instrumental,,,,----- -- ---- --- -- --- -------- ------------ ---------- --<br>- ------- ------ --------- -- ------------ -- --- ---- -----<br>------ ---- ---- ------ wooden ------- --- ----- ---------<br>---- --- -------- -------- --- --- -- ------- --- --- -----<br>-- --- ------ ------- --- --- -------- ---- --------- --<br>---------- -- -------- ----------------,875757.7750000637,875755.9550000587,875238.067,875252.2400000598,875291.931,875770.542,,24,wooden
screen,html.Screen,1_3_1_0_1_25,2021-04-22T09:06:47.645Z,,,,,,,,,,,,,,,,11,,,,,,,,,,,,,,630.3930000414839,,response,,,,4,F,,,,,,Space,keypress(Space),,,,instrumental,,,,----- -- ---- --- -- --- -------- ------------ ---------- --<br>- ------- ------ --------- -- ------------ -- --- ---- -----<br>------ ---- ---- ------ ------ tablets --- ----- ---------<br>---- --- -------- -------- --- --- -- ------- --- --- -----<br>-- --- ------ ------- --- --- -------- ---- --------- --<br>---------- -- -------- ----------------,876403.255000012,876400.9350000415,875754.4,875758.0150000285,875770.542,876420.192,,25,tablets
screen,html.Screen,1_3_1_0_1_26,2021-04-22T09:06:48.109Z,,,,,,,,,,,,,,,,11,,,,,,,,,,,,,,446.17300002346747,,response,,,,4,F,,,,,,Space,keypress(Space),,,,instrumental,,,,----- -- ---- --- -- --- -------- ------------ ---------- --<br>- ------- ------ --------- -- ------------ -- --- ---- -----<br>------ ---- ---- ------ ------ ------- and ----- ---------<br>---- --- -------- -------- --- --- -- ------- --- --- -----<br>-- --- ------ ------- --- --- -------- ---- --------- --<br>---------- -- -------- ----------------,876868.0350000504,876866.3650000235,876403.723,876403.6499999929,876420.192,876892.198,,26,and
screen,html.Screen,1_3_1_0_1_27,2021-04-22T09:06:48.528Z,,,,,,,,,,,,,,,,11,,,,,,,,,,,,,,392.03199999022763,,response,,,,4,F,,,,,,Space,keypress(Space),,,,instrumental,,,,----- -- ---- --- -- --- -------- ------------ ---------- --<br>- ------- ------ --------- -- ------------ -- --- ---- -----<br>------ ---- ---- ------ ------ ------- --- other ---------<br>---- --- -------- -------- --- --- -- ------- --- --- -----<br>-- --- ------ ------- --- --- -------- ---- --------- --<br>---------- -- -------- ----------------,877286.6800000193,877284.2299999902,876853.374,876868.2800000533,876892.198,877303.511,,27,other
screen,html.Screen,1_3_1_0_1_28,2021-04-22T09:06:49.326Z,,,,,,,,,,,,,,,,11,,,,,,,,,,,,,,779.754000022891,,response,,,,4,F,,,,,,Space,keypress(Space),,,,instrumental,,,,----- -- ---- --- -- --- -------- ------------ ---------- --<br>- ------- ------ --------- -- ------------ -- --- ---- -----<br>------ ---- ---- ------ ------ ------- --- ----- artifacts<br>---- --- -------- -------- --- --- -- ------- --- --- -----<br>-- --- ------ ------- --- --- -------- ---- --------- --<br>---------- -- -------- ----------------,878085.0250000367,878083.265000023,877286.526,877286.9300000602,877303.511,878102.122,,28,artifacts
screen,html.Screen,1_3_1_0_1_29,2021-04-22T09:06:49.736Z,,,,,,,,,,,,,,,,11,,,,,,,,,,,,,,391.47800004528835,,response,,,,4,F,,,,,,Space,keypress(Space),,,,instrumental,,,,----- -- ---- --- -- --- -------- ------------ ---------- --<br>- ------- ------ --------- -- ------------ -- --- ---- -----<br>------ ---- ---- ------ ------ ------- --- ----- ---------<br>from --- -------- -------- --- --- -- ------- --- --- -----<br>-- --- ------ ------- --- --- -------- ---- --------- --<br>---------- -- -------- ----------------,878494.7999999858,878493.6000000453,878085.886,878085.2799999993,878102.122,878501.706,,29,from
screen,html.Screen,1_3_1_0_1_30,2021-04-22T09:06:50.172Z,,,,,,,,,,,,,,,,11,,,,,,,,,,,,,,427.243999972241,,response,,,,4,F,,,,,,Space,keypress(Space),,,,instrumental,,,,----- -- ---- --- -- --- -------- ------------ ---------- --<br>- ------- ------ --------- -- ------------ -- --- ---- -----<br>------ ---- ---- ------ ------ ------- --- ----- ---------<br>---- the -------- -------- --- --- -- ------- --- --- -----<br>-- --- ------ ------- --- --- -------- ---- --------- --<br>---------- -- -------- ----------------,878930.6050000014,878928.9499999722,878485.586,878494.9450000422,878501.706,878934.846,,30,the
screen,html.Screen,1_3_1_0_1_31,2021-04-22T09:06:50.728Z,,,,,,,,,,,,,,,,11,,,,,,,,,,,,,,550.049000001396,,response,,,,4,F,,,,,,Space,keypress(Space),,,,instrumental,,,,----- -- ---- --- -- --- -------- ------------ ---------- --<br>- ------- ------ --------- -- ------------ -- --- ---- -----<br>------ ---- ---- ------ ------ ------- --- ----- ---------<br>---- --- island's -------- --- --- -- ------- --- --- -----<br>-- --- ------ ------- --- --- -------- ---- --------- --<br>---------- -- -------- ----------------,879486.6949999705,879484.8950000014,878918.403,878930.859999964,878934.846,879501.283,,31,island's
screen,html.Screen,1_3_1_0_1_32,2021-04-22T09:06:51.354Z,,,,,,,,,,,,,,,,11,,,,,,,,,,,,,,609.087000009371,,response,,,,4,F,,,,,,Space,keypress(Space),,,,instrumental,,,,----- -- ---- --- -- --- -------- ------------ ---------- --<br>- ------- ------ --------- -- ------------ -- --- ---- -----<br>------ ---- ---- ------ ------ ------- --- ----- ---------<br>---- --- -------- history. --- --- -- ------- --- --- -----<br>-- --- ------ ------- --- --- -------- ---- --------- --<br>---------- -- -------- ----------------,880112.2350000078,880110.3700000094,879484.973,879486.9450000115,879501.283,880117.321,,32,history.
screen,html.Screen,1_3_1_0_1_33,2021-04-22T09:06:51.789Z,,,,,,,,,,,,,,,,11,,,,,,,,,,,,,,428.49399996129796,,response,,,,4,F,,,,,,Space,keypress(Space),,,,instrumental,,,,----- -- ---- --- -- --- -------- ------------ ---------- --<br>- ------- ------ --------- -- ------------ -- --- ---- -----<br>------ ---- ---- ------ ------ ------- --- ----- ---------<br>---- --- -------- -------- The --- -- ------- --- --- -----<br>-- --- ------ ------- --- --- -------- ---- --------- --<br>---------- -- -------- ----------------,880547.5599999772,880545.8149999613,880101.234,880113.0399999674,880117.321,880550.318,,33,The
screen,html.Screen,1_3_1_0_1_34,2021-04-22T09:06:52.196Z,,,,,,,,,,,,,,,,11,,,,,,,,,,,,,,401.1219999752939,,response,,,,4,F,,,,,,Space,keypress(Space),,,,instrumental,,,,----- -- ---- --- -- --- -------- ------------ ---------- --<br>- ------- ------ --------- -- ------------ -- --- ---- -----<br>------ ---- ---- ------ ------ ------- --- ----- ---------<br>---- --- -------- -------- --- art -- ------- --- --- -----<br>-- --- ------ ------- --- --- -------- ---- --------- --<br>---------- -- -------- ----------------,880955.0100000342,880951.4399999753,880534.126,880547.819999978,880550.318,880966.797,,34,art
screen,html.Screen,1_3_1_0_1_35,2021-04-22T09:06:52.641Z,,,,,,,,,,,,,,,,11,,,,,,,,,,,,,,430.7280000366736,,response,,,,4,F,,,,,,Space,keypress(Space),,,,instrumental,,,,----- -- ---- --- -- --- -------- ------------ ---------- --<br>- ------- ------ --------- -- ------------ -- --- ---- -----<br>------ ---- ---- ------ ------ ------- --- ----- ---------<br>---- --- -------- -------- --- --- of ------- --- --- -----<br>-- --- ------ ------- --- --- -------- ---- --------- --<br>---------- -- -------- ----------------,881399.9700000277,881397.5250000367,880950.345,880955.2599999588,880966.797,881416.529,,35,of
screen,html.Screen,1_3_1_0_1_36,2021-04-22T09:06:53.127Z,,,,,,,,,,,,,,,,11,,,,,,,,,,,,,,465.79600001324434,,response,,,,4,F,,,,,,Space,keypress(Space),,,,instrumental,,,,----- -- ---- --- -- --- -------- ------------ ---------- --<br>- ------- ------ --------- -- ------------ -- --- ---- -----<br>------ ---- ---- ------ ------ ------- --- ----- ---------<br>---- --- -------- -------- --- --- -- writing --- --- -----<br>-- --- ------ ------- --- --- -------- ---- --------- --<br>---------- -- -------- ----------------,881885.9400000656,881882.3250000132,881400.032,881400.2300000284,881416.529,881899.355,,36,writing
screen,html.Screen,1_3_1_0_1_37,2021-04-22T09:06:53.548Z,,,,,,,,,,,,,,,,11,,,,,,,,,,,,,,405.09999997587875,,response,,,,4,F,,,,,,Space,keypress(Space),,,,instrumental,,,,----- -- ---- --- -- --- -------- ------------ ---------- --<br>- ------- ------ --------- -- ------------ -- --- ---- -----<br>------ ---- ---- ------ ------ ------- --- ----- ---------<br>---- --- -------- -------- --- --- -- ------- was --- -----<br>-- --- ------ ------- --- --- -------- ---- --------- --<br>---------- -- -------- ----------------,882306.884999969,882304.4549999759,881883.008,881886.1849999521,881899.355,882315.733,,37,was
screen,html.Screen,1_3_1_0_1_38,2021-04-22T09:06:53.970Z,,,,,,,,,,,,,,,,11,,,,,,,,,,,,,,409.9219999583438,,response,,,,4,F,,,,,,Space,keypress(Space),,,,instrumental,,,,----- -- ---- --- -- --- -------- ------------ ---------- --<br>- ------- ------ --------- -- ------------ -- --- ---- -----<br>------ ---- ---- ------ ------ ------- --- ----- ---------<br>---- --- -------- -------- --- --- -- ------- --- not -----<br>-- --- ------ ------- --- --- -------- ---- --------- --<br>---------- -- -------- ----------------,882728.2050000504,882725.6549999584,882299.539,882307.13500001,882315.733,882732.107,,38,not
