sender,sender_type,sender_id,timestamp,meta,,Blues,Classical,Country,Dance,Electronic,Folk,Gospel,Hip-Hop,Jazz,Latin,Musical/Film,New-age,Pop,Provo_ID,R&B,Rap,Reggae,Religious,Rock,Soul,Swing,Traditional,age,artist_name,correct,correctResponse,distraction,duration,education,ended_on,familiarity,gender,headphone_check_performance,item,list,music_frequency,offensiveness,pleasantness,position_correct,preference,response,response_action,snippet_file,song_name,song_rating,sound,stimulus_1,stimulus_2,stimulus_3,text,time_commit,time_end,time_render,time_run,time_show,time_switch,url,word,word_ID
Introduction,html.Screen,0_0,2021-04-23T13:56:37.419Z,"{""labjs_version"":""20.2.2"",""labjs_build"":{""flavor"":""production"",""commit"":""a25486e0c714a0ae2ce03ff94b7bb6896854dcfa""},""location"":""https://run.pavlovia.org/mvasilev/music_d/"",""userAgent"":""Mozilla/5.0 (Macintosh; Intel Mac OS X 10_14_6) AppleWebKit/537.36 (KHTML, like Gecko) Chrome/89.0.4389.114 Safari/537.36"",""platform"":""MacIntel"",""language"":""en-GB"",""locale"":""en-GB"",""timeZone"":""Europe/London"",""timezoneOffset"":-60,""screen_width"":1680,""screen_height"":1050,""scroll_width"":1680,""scroll_height"":879,""window_innerWidth"":1680,""window_innerHeight"":927,""devicePixelRatio"":2}",,,,,,,,,,,,,,,,,,,,,,,,,,,,,6510.278000057891,,response,,,,,,,,,,,continue,click button,,,,,,,,,22541.85000003781,22538.53500005789,16011.591,16020.260000019334,16028.257,22544.663,{},,
Volume calibration,html.Screen,0_1,2021-04-23T13:56:59.136Z,,,,,,,,,,,,,,,,,,,,,,,,,,,,,,21712.33200006158,,response,,,,,,,,,,,continue,click button,,,,,,,,,44258.900000015274,44256.99500006158,22527.997,22542.514999979176,22544.663,44273.752,,,
Task instructions,html.Screen,0_2,2021-04-23T13:57:13.531Z,,,,,,,,,,,,,,,,,,,,,,,,,,,,,,14377.088000016614,,response,,,,,,,,,,,continue,click button,,,,,,,,,58653.170000063255,58650.840000016615,44257.086,44259.03499999549,44273.752,58661.787,,,
Sounds,html.Screen,0_3_0_0,2021-04-23T13:57:17.777Z,,,,,,,,,,,,,,,,,,,,,,,,,,,,,,4249.830000000002,,timeout,,,,,,,,,1,,,,,,,,S,I,O,,62899.7199999867,62894.951,58645.121,58653.42500002589,58661.787,62911.617,,,
Judgement,html.Screen,0_3_0_1,2021-04-23T13:57:20.960Z,,,,,,,,,,,,,,,,,,,,,,,,,,,true,1,,3169.957999960141,,response,,,,,,,,,1,,1,click #choice-1,,,,,S,I,O,,66082.93000003323,66081.57499996014,62894.951,62899.86999996472,62911.617,66088.755,,,
Trial,flow.Sequence,0_3_0,2021-04-23T13:57:20.961Z,,,,,,,,,,,,,,,,,,,,,,,,,,,,,,7419.787999960143,,completion,,,,,,,,,1,,,,,,,,S,I,O,,66083.20500003174,66081.57499996014,58645.121,58653.35999999661,58661.787,66088.755,,,
Sounds,html.Screen,0_3_1_0,2021-04-23T13:57:25.202Z,,,,,,,,,,,,,,,,,,,,,,,,,,,,,,4249.830000000002,,timeout,,,,,,,,,1,,,,,,,,S,O,I,,70324.44999995641,70321.919,66072.089,66083.33499997389,66088.755,70338.585,,,
Judgement,html.Screen,0_3_1_1,2021-04-23T13:57:26.530Z,,,,,,,,,,,,,,,,,,,,,,,,,,,true,1,,1312.9099999982427,,response,,,,,,,,,1,,1,click #choice-1,,,,,S,O,I,,71652.98000001349,71651.49499999825,70321.919,70324.55000001937,70338.585,71655.199,,,
Trial,flow.Sequence,0_3_1,2021-04-23T13:57:26.530Z,,,,,,,,,,,,,,,,,,,,,,,,,,,,,,5562.7399999982445,,completion,,,,,,,,,1,,,,,,,,S,O,I,,71653.13500002958,71651.49499999825,66072.089,66083.29500001855,66088.755,71655.199,,,
Sounds,html.Screen,0_3_2_0,2021-04-23T13:57:30.767Z,,,,,,,,,,,,,,,,,,,,,,,,,,,,,,4249.830000000002,,timeout,,,,,,,,,2,,,,,,,,O,S,I,,75889.62000003085,75888.363,71638.533,71653.24999997392,71655.199,75905.029,,,
Judgement,html.Screen,0_3_2_1,2021-04-23T13:57:31.840Z,,,,,,,,,,,,,,,,,,,,,,,,,,,true,2,,1056.2109999750828,,response,,,,,,,,,2,,2,click #choice-2,,,,,O,S,I,,76962.78000005987,76961.23999997508,75888.363,75889.71000001766,75905.029,76975.617,,,
Trial,flow.Sequence,0_3_2,2021-04-23T13:57:31.840Z,,,,,,,,,,,,,,,,,,,,,,,,,,,,,,5306.040999975085,,completion,,,,,,,,,2,,,,,,,,O,S,I,,76962.96500007156,76961.23999997508,71638.533,71653.21500005666,71655.199,76975.617,,,
Sounds,html.Screen,0_3_3_0,2021-04-23T13:57:36.088Z,,,,,,,,,,,,,,,,,,,,,,,,,,,,,,4249.830000000002,,timeout,,,,,,,,,2,,,,,,,,I,S,O,,81210.30499995686,81208.781,76958.951,76963.0800000159,76975.617,81225.447,,,
Judgement,html.Screen,0_3_3_1,2021-04-23T13:57:37.207Z,,,,,,,,,,,,,,,,,,,,,,,,,,,false,2,,1102.8630000116973,,response,,,,,,,,,2,,1,click #choice-1,,,,,I,S,O,,82329.77499999106,82328.3100000117,81208.781,81210.39500006009,81225.447,82342.069,,,
Trial,flow.Sequence,0_3_3,2021-04-23T13:57:37.207Z,,,,,,,,,,,,,,,,,,,,,,,,,,,,,,5352.693000011699,,completion,,,,,,,,,2,,,,,,,,I,S,O,,82329.92000004742,82328.3100000117,76958.951,76963.04000006057,76975.617,82342.069,,,
Sounds,html.Screen,0_3_4_0,2021-04-23T13:57:41.454Z,,,,,,,,,,,,,,,,,,,,,,,,,,,,,,4249.830000000002,,timeout,,,,,,,,,3,,,,,,,,O,I,S,,86576.63000002503,86575.233,82325.403,82330.01500007231,82342.069,86591.899,,,
Judgement,html.Screen,0_3_4_1,2021-04-23T13:57:43.902Z,,,,,,,,,,,,,,,,,,,,,,,,,,,true,3,,2431.5260000212293,,response,,,,,,,,,3,,3,click #choice-3,,,,,O,I,S,,89024.59000004455,89023.42500002123,86575.233,86576.72500004992,86591.899,89031.209,,,
Trial,flow.Sequence,0_3_4,2021-04-23T13:57:43.902Z,,,,,,,,,,,,,,,,,,,,,,,,,,,,,,6681.356000021231,,completion,,,,,,,,,3,,,,,,,,O,I,S,,89024.7049999889,89023.42500002123,82325.403,82329.98499996029,82342.069,89031.209,,,
Sounds,html.Screen,0_3_5_0,2021-04-23T13:57:48.143Z,,,,,,,,,,,,,,,,,,,,,,,,,,,,,,4249.830000000002,,timeout,,,,,,,,,3,,,,,,,,I,O,S,,93266.09000004828,93264.373,89014.543,89024.77500005625,89031.209,93281.039,,,
Judgement,html.Screen,0_3_5_1,2021-04-23T13:57:49.355Z,,,,,,,,,,,,,,,,,,,,,,,,,,,true,3,,1194.7760000125127,,response,,,,,,,,,3,,3,click #choice-3,,,,,I,O,S,,94477.3849999765,94475.81500001252,93264.373,93266.1950000329,93281.039,94480.991,,,
Trial,flow.Sequence,0_3_5,2021-04-23T13:57:49.355Z,,,,,,,,,,,,,,,,,,,,,,,,,,,,,,5444.606000012514,,completion,,,,,,,,,3,,,,,,,,I,O,S,,94477.54500003066,94475.81500001252,89014.543,89024.75500002038,89031.209,94480.991,,,
Task,flow.Loop,0_3,2021-04-23T13:57:49.358Z,,,,,,,,,,,,,,,,,,,,,,,,,,,,,,35814.02800001252,,completion,,,0.8333333333333334,,,,,,,,,,,,,,,,,,94480.73499999009,94475.81500001252,58645.121,58653.30999996513,58661.787,94480.991,,,
Trap,html.Screen,0_4,2021-04-23T13:57:49.360Z,,,,,,,,,,,,,,,,,,,,,,,,,,,,,,NaN,,skipped,,,,,,,,,,,,,,,,,,,,,94482.56999999285,94475.81500001252,,94482.46500000823,,94480.991,,,
Thanks,html.Screen,0_5,2021-04-23T13:57:54.891Z,,,,,,,,,,,,,,,,,,,,,,,,,,,,,,5531.379000011293,,response,,,,,,,,,,,continue,click button,,,,,,,,,100013.89499998186,100012.37000001129,94464.325,94482.65999997966,94480.991,102925.919,,,
Headphone screening,flow.Sequence,0,2021-04-23T13:57:54.891Z,,,,,,,,,,,,,,,,,,,,,,,,,,,,,,83984.11300001129,,completion,,,,,,,,,,,,,,,,,,,,,100014.02500004042,100012.37000001129,16011.591,16020.23000002373,16028.257,102925.919,,,
Instructions,html.Page,1_0,2021-04-23T13:59:22.164Z,,,,,,,,,,,,,,,,,,,,,,,,,,,,,,84360.48099998268,,form submission,,,,,,,,,,,,,,,,,,,,,187286.60500003025,187286.39999998268,102909.253,102927.5599999819,102925.919,187284.938,,,
Holding screen,html.Screen,1_1_0_0,2021-04-23T13:59:32.147Z,,,,,,,,,,,,,,,,,,,,,,,,,,,,,,9999.600000000006,,timeout,,,,,,,,,,,,,,,,,,,,,197270.12000000104,197267.872,187268.272,187286.77500004414,187284.938,197284.538,,,
screen,html.Screen,1_1_0_1_0,2021-04-23T13:59:33.421Z,,,,,,,,,,,,,,,,53,,,,,,,,,,,,,,1253.4720000184025,,response,,,,99,,,,,,,Space,keypress(Space),,,,,,,,When -- ----- -- ------ - ------- --- ----------<br>------------- ------ ------ ---- ---- ------- ----- -- ----<br>-------- ------- -- ---------- --- - --- ----- ----- ----<br>---- --- --- ----- --- ---- ---- ------- ----- ---- -------<br>--- --- -- ----- -- --- ---- -- --- ---- -- ------ ------<br>--- ----- -- ----,198543.87499997392,198538.0100000184,197267.872,197270.4350000713,197284.538,198551.154,,0,When
screen,html.Screen,1_1_0_1_1,2021-04-23T13:59:34.525Z,,,,,,,,,,,,,,,,53,,,,,,,,,,,,,,1092.8960000025982,,response,,,,99,,,,,,,Space,keypress(Space),,,,,,,,---- it ----- -- ------ - ------- --- ----------<br>------------- ------ ------ ---- ---- ------- ----- -- ----<br>-------- ------- -- ---------- --- - --- ----- ----- ----<br>---- --- --- ----- --- ---- ---- ------- ----- ---- -------<br>--- --- -- ----- -- --- ---- -- --- ---- -- ------ ------<br>--- ----- -- ----,199647.4800000433,199644.0500000026,198534.488,198543.99500007275,198551.154,199650.516,,1,it
screen,html.Screen,1_1_0_1_2,2021-04-23T13:59:35.045Z,,,,,,,,,,,,,,,,53,,,,,,,,,,,,,,514.3490000570309,,response,,,,99,,,,,,,Space,keypress(Space),,,,,,,,---- -- comes -- ------ - ------- --- ----------<br>------------- ------ ------ ---- ---- ------- ----- -- ----<br>-------- ------- -- ---------- --- - --- ----- ----- ----<br>---- --- --- ----- --- ---- ---- ------- ----- ---- -------<br>--- --- -- ----- -- --- ---- -- --- ---- -- ------ ------<br>--- ----- -- ----,200167.92000003625,200164.86500005703,199633.85,199647.6000000257,199650.516,200183.828,,2,comes
screen,html.Screen,1_1_0_1_3,2021-04-23T13:59:35.502Z,,,,,,,,,,,,,,,,53,,,,,,,,,,,,,,437.15700004503014,,response,,,,99,,,,,,,Space,keypress(Space),,,,,,,,---- -- ----- to ------ - ------- --- ----------<br>------------- ------ ------ ---- ---- ------- ----- -- ----<br>-------- ------- -- ---------- --- - --- ----- ----- ----<br>---- --- --- ----- --- ---- ---- ------- ----- ---- -------<br>--- --- -- ----- -- --- ---- -- --- ---- -- ------ ------<br>--- ----- -- ----,200624.19500004034,200620.98500004504,200167.162,200168.04000001866,200183.828,200633.81,,3,to
screen,html.Screen,1_1_0_1_4,2021-04-23T13:59:35.879Z,,,,,,,,,,,,,,,,53,,,,,,,,,,,,,,364.06500000093365,,response,,,,99,,,,,,,Space,keypress(Space),,,,,,,,---- -- ----- -- having - ------- --- ----------<br>------------- ------ ------ ---- ---- ------- ----- -- ----<br>-------- ------- -- ---------- --- - --- ----- ----- ----<br>---- --- --- ----- --- ---- ---- ------- ----- ---- -------<br>--- --- -- ----- -- --- ---- -- --- ---- -- ------ ------<br>--- ----- -- ----,201001.3850000687,200997.87500000093,200617.144,200624.31500002276,200633.81,201017.128,,4,having
screen,html.Screen,1_1_0_1_5,2021-04-23T13:59:36.282Z,,,,,,,,,,,,,,,,53,,,,,,,,,,,,,,383.742000012222,,response,,,,99,,,,,,,Space,keypress(Space),,,,,,,,---- -- ----- -- ------ a ------- --- ----------<br>------------- ------ ------ ---- ---- ------- ----- -- ----<br>-------- ------- -- ---------- --- - --- ----- ----- ----<br>---- --- --- ----- --- ---- ---- ------- ----- ---- -------<br>--- --- -- ----- -- --- ---- -- --- ---- -- ------ ------<br>--- ----- -- ----,201404.43500003312,201400.87000001222,201000.462,201001.5050000511,201017.128,201417.112,,5,a
screen,html.Screen,1_1_0_1_6,2021-04-23T13:59:36.731Z,,,,,,,,,,,,,,,,53,,,,,,,,,,,,,,432.74799995843205,,response,,,,99,,,,,,,Space,keypress(Space),,,,,,,,---- -- ----- -- ------ - lasting --- ----------<br>------------- ------ ------ ---- ---- ------- ----- -- ----<br>-------- ------- -- ---------- --- - --- ----- ----- ----<br>---- --- --- ----- --- ---- ---- ------- ----- ---- -------<br>--- --- -- ----- -- --- ---- -- --- ---- -- ------ ------<br>--- ----- -- ----,201853.43999997713,201849.85999995843,201400.446,201404.5600000536,201417.112,201867.094,,6,lasting
screen,html.Screen,1_1_0_1_7,2021-04-23T13:59:37.118Z,,,,,,,,,,,,,,,,53,,,,,,,,,,,,,,369.73600006711786,,response,,,,99,,,,,,,Space,keypress(Space),,,,,,,,---- -- ----- -- ------ - ------- and ----------<br>------------- ------ ------ ---- ---- ------- ----- -- ----<br>-------- ------- -- ---------- --- - --- ----- ----- ----<br>---- --- --- ----- --- ---- ---- ------- ----- ---- -------<br>--- --- -- ----- -- --- ---- -- --- ---- -- ------ ------<br>--- ----- -- ----,202240.3499999782,202236.83000006713,201850.428,201853.56499999762,201867.094,202250.412,,7,and
screen,html.Screen,1_1_0_1_8,2021-04-23T13:59:37.584Z,,,,,,,,,,,,,,,,53,,,,,,,,,,,,,,452.4080000058748,,response,,,,99,,,,,,,Space,keypress(Space),,,,,,,,---- -- ----- -- ------ - ------- --- fulfilling<br>------------- ------ ------ ---- ---- ------- ----- -- ----<br>-------- ------- -- ---------- --- - --- ----- ----- ----<br>---- --- --- ----- --- ---- ---- ------- ----- ---- -------<br>--- --- -- ----- -- --- ---- -- --- ---- -- ------ ------<br>--- ----- -- ----,202706.2600000063,202702.8200000059,202233.746,202240.46999996062,202250.412,202717.06,,8,fulfilling
screen,html.Screen,1_1_0_1_9,2021-04-23T13:59:38.053Z,,,,,,,,,,,,,,,,53,,,,,,,,,,,,,,454.8050000402727,,response,,,,99,,,,,,,Space,keypress(Space),,,,,,,,"---- -- ----- -- ------ - ------- --- ----------<br>relationship, ------ ------ ---- ---- ------- ----- -- ----<br>-------- ------- -- ---------- --- - --- ----- ----- ----<br>---- --- --- ----- --- ---- ---- ------- ----- ---- -------<br>--- --- -- ----- -- --- ---- -- --- ---- -- ------ ------<br>--- ----- -- ----",203175.56999996305,203171.86500004027,202700.394,202706.3799999887,202717.06,203183.708,,9,"relationship,"
screen,html.Screen,1_1_0_1_10,2021-04-23T13:59:38.557Z,,,,,,,,,,,,,,,,53,,,,,,,,,,,,,,493.1270000493096,,response,,,,99,,,,,,,Space,keypress(Space),,,,,,,,---- -- ----- -- ------ - ------- --- ----------<br>------------- common ------ ---- ---- ------- ----- -- ----<br>-------- ------- -- ---------- --- - --- ----- ----- ----<br>---- --- --- ----- --- ---- ---- ------- ----- ---- -------<br>--- --- -- ----- -- --- ---- -- --- ---- -- ------ ------<br>--- ----- -- ----,203680.01999997068,203676.83500004932,203167.042,203175.69000006188,203183.708,203683.688,,10,common
screen,html.Screen,1_1_0_1_11,2021-04-23T13:59:38.949Z,,,,,,,,,,,,,,,,53,,,,,,,,,,,,,,384.1220000368485,,response,,,,99,,,,,,,Space,keypress(Space),,,,,,,,---- -- ----- -- ------ - ------- --- ----------<br>------------- ------ wisdom ---- ---- ------- ----- -- ----<br>-------- ------- -- ---------- --- - --- ----- ----- ----<br>---- --- --- ----- --- ---- ---- ------- ----- ---- -------<br>--- --- -- ----- -- --- ---- -- --- ---- -- ------ ------<br>--- ----- -- ----,204071.37500005774,204067.81000003684,203667.022,203680.1400000695,203683.688,204083.672,,11,wisdom
screen,html.Screen,1_1_0_1_12,2021-04-23T13:59:39.370Z,,,,,,,,,,,,,,,,53,,,,,,,,,,,,,,405.09300001643714,,response,,,,99,,,,,,,Space,keypress(Space),,,,,,,,---- -- ----- -- ------ - ------- --- ----------<br>------------- ------ ------ says ---- ------- ----- -- ----<br>-------- ------- -- ---------- --- - --- ----- ----- ----<br>---- --- --- ----- --- ---- ---- ------- ----- ---- -------<br>--- --- -- ----- -- --- ---- -- --- ---- -- ------ ------<br>--- ----- -- ----,204492.31000000145,204488.76500001643,204067.006,204071.49500004016,204083.672,204500.322,,12,says
screen,html.Screen,1_1_0_1_13,2021-04-23T13:59:39.781Z,,,,,,,,,,,,,,,,53,,,,,,,,,,,,,,399.3780000672559,,response,,,,99,,,,,,,Space,keypress(Space),,,,,,,,---- -- ----- -- ------ - ------- --- ----------<br>------------- ------ ------ ---- that ------- ----- -- ----<br>-------- ------- -- ---------- --- - --- ----- ----- ----<br>---- --- --- ----- --- ---- ---- ------- ----- ---- -------<br>--- --- -- ----- -- --- ---- -- --- ---- -- ------ ------<br>--- ----- -- ----,204903.24999997392,204899.70000006724,204483.656,204492.42999998387,204500.322,204916.972,,13,that
screen,html.Screen,1_1_0_1_14,2021-04-23T13:59:40.165Z,,,,,,,,,,,,,,,,53,,,,,,,,,,,,,,366.8279999755905,,response,,,,99,,,,,,,Space,keypress(Space),,,,,,,,---- -- ----- -- ------ - ------- --- ----------<br>------------- ------ ------ ---- ---- feeling ----- -- ----<br>-------- ------- -- ---------- --- - --- ----- ----- ----<br>---- --- --- ----- --- ---- ---- ------- ----- ---- -------<br>--- --- -- ----- -- --- ---- -- --- ---- -- ------ ------<br>--- ----- -- ----,205287.46000002138,205283.7999999756,204900.306,204903.38000003248,204916.972,205300.29,,14,feeling
screen,html.Screen,1_1_0_1_15,2021-04-23T13:59:40.552Z,,,,,,,,,,,,,,,,53,,,,,,,,,,,,,,370.4499999722757,,response,,,,99,,,,,,,Space,keypress(Space),,,,,,,,---- -- ----- -- ------ - ------- --- ----------<br>------------- ------ ------ ---- ---- ------- close -- ----<br>-------- ------- -- ---------- --- - --- ----- ----- ----<br>---- --- --- ----- --- ---- ---- ------- ----- ---- -------<br>--- --- -- ----- -- --- ---- -- --- ---- -- ------ ------<br>--- ----- -- ----,205674.24500000197,205670.73999997228,205283.624,205287.58500004187,205300.29,205683.608,,15,close
screen,html.Screen,1_1_0_1_16,2021-04-23T13:59:40.922Z,,,,,,,,,,,,,,,,53,,,,,,,,,,,,,,358.1320000151172,,response,,,,99,,,,,,,Space,keypress(Space),,,,,,,,---- -- ----- -- ------ - ------- --- ----------<br>------------- ------ ------ ---- ---- ------- ----- to ----<br>-------- ------- -- ---------- --- - --- ----- ----- ----<br>---- --- --- ----- --- ---- ---- ------- ----- ---- -------<br>--- --- -- ----- -- --- ---- -- --- ---- -- ------ ------<br>--- ----- -- ----,206045.04500003532,206041.74000001512,205666.942,205674.37000002246,205683.608,206050.26,,16,to
screen,html.Screen,1_1_0_1_17,2021-04-23T13:59:41.328Z,,,,,,,,,,,,,,,,53,,,,,,,,,,,,,,396.49000000278465,,response,,,,99,,,,,,,Space,keypress(Space),,,,,,,,---- -- ----- -- ------ - ------- --- ----------<br>------------- ------ ------ ---- ---- ------- ----- -- your<br>-------- ------- -- ---------- --- - --- ----- ----- ----<br>---- --- --- ----- --- ---- ---- ------- ----- ---- -------<br>--- --- -- ----- -- --- ---- -- --- ---- -- ------ ------<br>--- ----- -- ----,206450.53999999072,206446.7500000028,206033.594,206045.16500001773,206050.26,206466.91,,17,your
screen,html.Screen,1_1_0_1_18,2021-04-23T13:59:41.763Z,,,,,,,,,,,,,,,,53,,,,,,,,,,,,,,414.7950000652636,,response,,,,99,,,,,,,Space,keypress(Space),,,,,,,,---- -- ----- -- ------ - ------- --- ----------<br>------------- ------ ------ ---- ---- ------- ----- -- ----<br>romantic ------- -- ---------- --- - --- ----- ----- ----<br>---- --- --- ----- --- ---- ---- ------- ----- ---- -------<br>--- --- -- ----- -- --- ---- -- --- ---- -- ------ ------<br>--- ----- -- ----,206885.2500000503,206881.70500006527,206450.244,206450.6650000112,206466.91,206900.226,,18,romantic
screen,html.Screen,1_1_0_1_19,2021-04-23T13:59:42.087Z,,,,,,,,,,,,,,,,53,,,,,,,,,,,,,,306.48899997843546,,response,,,,99,,,,,,,Space,keypress(Space),,,,,,,,---- -- ----- -- ------ - ------- --- ----------<br>------------- ------ ------ ---- ---- ------- ----- -- ----<br>-------- partner -- ---------- --- - --- ----- ----- ----<br>---- --- --- ----- --- ---- ---- ------- ----- ---- -------<br>--- --- -- ----- -- --- ---- -- --- ---- -- ------ ------<br>--- ----- -- ----,207209.95499996934,207206.71499997843,206883.56,206885.36499999464,206900.226,207216.88,,19,partner
screen,html.Screen,1_1_0_1_20,2021-04-23T13:59:42.465Z,,,,,,,,,,,,,,,,53,,,,,,,,,,,,,,367.2600000499515,,response,,,,99,,,,,,,Space,keypress(Space),,,,,,,,---- -- ----- -- ------ - ------- --- ----------<br>------------- ------ ------ ---- ---- ------- ----- -- ----<br>-------- ------- is ---------- --- - --- ----- ----- ----<br>---- --- --- ----- --- ---- ---- ------- ----- ---- -------<br>--- --- -- ----- -- --- ---- -- --- ---- -- ------ ------<br>--- ----- -- ----,207587.52499998081,207584.14000004996,207200.214,207210.0700000301,207216.88,207600.198,,20,is
screen,html.Screen,1_1_0_1_21,2021-04-23T13:59:42.839Z,,,,,,,,,,,,,,,,53,,,,,,,,,,,,,,359.36700002648286,,response,,,,99,,,,,,,Space,keypress(Space),,,,,,,,---- -- ----- -- ------ - ------- --- ----------<br>------------- ------ ------ ---- ---- ------- ----- -- ----<br>-------- ------- -- paramount. --- - --- ----- ----- ----<br>---- --- --- ----- --- ---- ---- ------- ----- ---- -------<br>--- --- -- ----- -- --- ---- -- --- ---- -- ------ ------<br>--- ----- -- ----,207961.89999999478,207959.5650000265,207583.532,207587.6500000013,207600.198,207966.85,,21,paramount.
screen,html.Screen,1_1_0_1_22,2021-04-23T13:59:43.306Z,,,,,,,,,,,,,,,,53,,,,,,,,,,,,,,458.79999999012216,,response,,,,99,,,,,,,Space,keypress(Space),,,,,,,,---- -- ----- -- ------ - ------- --- ----------<br>------------- ------ ------ ---- ---- ------- ----- -- ----<br>-------- ------- -- ---------- But - --- ----- ----- ----<br>---- --- --- ----- --- ---- ---- ------- ----- ---- -------<br>--- --- -- ----- -- --- ---- -- --- ---- -- ------ ------<br>--- ----- -- ----,208429.0800000308,208425.64999999013,207950.184,207962.0049999794,207966.85,208440.591,,22,But
screen,html.Screen,1_1_0_1_23,2021-04-23T13:59:43.669Z,,,,,,,,,,,,,,,,53,,,,,,,,,,,,,,347.0639999928244,,response,,,,99,,,,,,,Space,keypress(Space),,,,,,,,---- -- ----- -- ------ - ------- --- ----------<br>------------- ------ ------ ---- ---- ------- ----- -- ----<br>-------- ------- -- ---------- --- a --- ----- ----- ----<br>---- --- --- ----- --- ---- ---- ------- ----- ---- -------<br>--- --- -- ----- -- --- ---- -- --- ---- -- ------ ------<br>--- ----- -- ----,208791.70499998145,208787.6549999928,208423.925,208429.20000001322,208440.591,208807.243,,23,a
screen,html.Screen,1_1_0_1_24,2021-04-23T13:59:44.032Z,,,,,,,,,,,,,,,,53,,,,,,,,,,,,,,343.43200004080427,,response,,,,99,,,,,,,Space,keypress(Space),,,,,,,,---- -- ----- -- ------ - ------- --- ----------<br>------------- ------ ------ ---- ---- ------- ----- -- ----<br>-------- ------- -- ---------- --- - new ----- ----- ----<br>---- --- --- ----- --- ---- ---- ------- ----- ---- -------<br>--- --- -- ----- -- --- ---- -- --- ---- -- ------ ------<br>--- ----- -- ----,209154.22999998555,209150.6750000408,208790.577,208791.83000000194,208807.243,209157.229,,24,new
screen,html.Screen,1_1_0_1_25,2021-04-23T13:59:44.354Z,,,,,,,,,,,,,,,,53,,,,,,,,,,,,,,315.38599997694837,,response,,,,99,,,,,,,Space,keypress(Space),,,,,,,,---- -- ----- -- ------ - ------- --- ----------<br>------------- ------ ------ ---- ---- ------- ----- -- ----<br>-------- ------- -- ---------- --- - --- study ----- ----<br>---- --- --- ----- --- ---- ---- ------- ----- ---- -------<br>--- --- -- ----- -- --- ---- -- --- ---- -- ------ ------<br>--- ----- -- ----,209476.35999997146,209472.61499997694,209140.563,209154.3450000463,209157.229,209490.549,,25,study
screen,html.Screen,1_1_0_1_26,2021-04-23T13:59:44.709Z,,,,,,,,,,,,,,,,53,,,,,,,,,,,,,,337.0960000703344,,response,,,,99,,,,,,,Space,keypress(Space),,,,,,,,---- -- ----- -- ------ - ------- --- ----------<br>------------- ------ ------ ---- ---- ------- ----- -- ----<br>-------- ------- -- ---------- --- - --- ----- finds ----<br>---- --- --- ----- --- ---- ---- ------- ----- ---- -------<br>--- --- -- ----- -- --- ---- -- --- ---- -- ------ ------<br>--- ----- -- ----,209831.20500005316,209827.64500007033,209473.883,209476.48499999195,209490.549,209840.535,,26,finds
screen,html.Screen,1_1_0_1_27,2021-04-23T13:59:45.099Z,,,,,,,,,,,,,,,,53,,,,,,,,,,,,,,377.930000041757,,response,,,,99,,,,,,,Space,keypress(Space),,,,,,,,---- -- ----- -- ------ - ------- --- ----------<br>------------- ------ ------ ---- ---- ------- ----- -- ----<br>-------- ------- -- ---------- --- - --- ----- ----- that<br>---- --- --- ----- --- ---- ---- ------- ----- ---- -------<br>--- --- -- ----- -- --- ---- -- --- ---- -- ------ ------<br>--- ----- -- ----,210221.93500003777,210218.46500004176,209823.869,209831.32999995723,209840.535,210223.853,,27,that
screen,html.Screen,1_1_0_1_28,2021-04-23T13:59:45.511Z,,,,,,,,,,,,,,,,53,,,,,,,,,,,,,,406.7470000331523,,response,,,,99,,,,,,,Space,keypress(Space),,,,,,,,---- -- ----- -- ------ - ------- --- ----------<br>------------- ------ ------ ---- ---- ------- ----- -- ----<br>-------- ------- -- ---------- --- - --- ----- ----- ----<br>it's --- --- ----- --- ---- ---- ------- ----- ---- -------<br>--- --- -- ----- -- --- ---- -- --- ---- -- ------ ------<br>--- ----- -- ----,210634.12000006065,210630.60000003316,210207.187,210222.06499997992,210223.853,210640.503,,28,it's
screen,html.Screen,1_1_0_1_29,2021-04-23T13:59:45.829Z,,,,,,,,,,,,,,,,53,,,,,,,,,,,,,,307.0869999961287,,response,,,,99,,,,,,,Space,keypress(Space),,,,,,,,---- -- ----- -- ------ - ------- --- ----------<br>------------- ------ ------ ---- ---- ------- ----- -- ----<br>-------- ------- -- ---------- --- - --- ----- ----- ----<br>---- not --- ----- --- ---- ---- ------- ----- ---- -------<br>--- --- -- ----- -- --- ---- -- --- ---- -- ------ ------<br>--- ----- -- ----,210951.1750000529,210947.58999999613,210623.837,210634.24000004306,210640.503,210957.157,,29,not
screen,html.Screen,1_1_0_1_30,2021-04-23T13:59:46.164Z,,,,,,,,,,,,,,,,53,,,,,,,,,,,,,,326.4129999704892,,response,,,,99,,,,,,,Space,keypress(Space),,,,,,,,---- -- ----- -- ------ - ------- --- ----------<br>------------- ------ ------ ---- ---- ------- ----- -- ----<br>-------- ------- -- ---------- --- - --- ----- ----- ----<br>---- --- how ----- --- ---- ---- ------- ----- ---- -------<br>--- --- -- ----- -- --- ---- -- --- ---- -- ------ ------<br>--- ----- -- ----,211286.7499999702,211283.5699999705,210940.491,210951.30499999505,210957.157,211290.477,,30,how
screen,html.Screen,1_1_0_1_31,2021-04-23T13:59:46.555Z,,,,,,,,,,,,,,,,53,,,,,,,,,,,,,,383.1229999800562,,response,,,,99,,,,,,,Space,keypress(Space),,,,,,,,---- -- ----- -- ------ - ------- --- ----------<br>------------- ------ ------ ---- ---- ------- ----- -- ----<br>-------- ------- -- ---------- --- - --- ----- ----- ----<br>---- --- --- close --- ---- ---- ------- ----- ---- -------<br>--- --- -- ----- -- --- ---- -- --- ---- -- ------ ------<br>--- ----- -- ----,211677.314999979,211673.59999998007,211273.811,211287.80499997083,211290.477,211690.461,,31,close
screen,html.Screen,1_1_0_1_32,2021-04-23T13:59:46.905Z,,,,,,,,,,,,,,,,53,,,,,,,,,,,,,,334.0790000130655,,response,,,,99,,,,,,,Space,keypress(Space),,,,,,,,---- -- ----- -- ------ - ------- --- ----------<br>------------- ------ ------ ---- ---- ------- ----- -- ----<br>-------- ------- -- ---------- --- - --- ----- ----- ----<br>---- --- --- ----- you ---- ---- ------- ----- ---- -------<br>--- --- -- ----- -- --- ---- -- --- ---- -- ------ ------<br>--- ----- -- ----,212028.0250000069,212024.54000001308,211673.795,211677.44500003755,211690.461,212040.447,,32,you
screen,html.Screen,1_1_0_1_33,2021-04-23T13:59:47.292Z,,,,,,,,,,,,,,,,53,,,,,,,,,,,,,,371.0330000097747,,response,,,,99,,,,,,,Space,keypress(Space),,,,,,,,---- -- ----- -- ------ - ------- --- ----------<br>------------- ------ ------ ---- ---- ------- ----- -- ----<br>-------- ------- -- ---------- --- - --- ----- ----- ----<br>---- --- --- ----- --- feel ---- ------- ----- ---- -------<br>--- --- -- ----- -- --- ---- -- --- ---- -- ------ ------<br>--- ----- -- ----,212415.0049999589,212411.48000000976,212023.781,212028.1449999893,212040.447,212423.765,,33,feel
screen,html.Screen,1_1_0_1_34,2021-04-23T13:59:48.061Z,,,,,,,,,,,,,,,,53,,,,,,,,,,,,,,756.7500000145519,,response,,,,99,,,,,,,Space,keypress(Space),,,,,,,,---- -- ----- -- ------ - ------- --- ----------<br>------------- ------ ------ ---- ---- ------- ----- -- ----<br>-------- ------- -- ---------- --- - --- ----- ----- ----<br>---- --- --- ----- --- ---- that ------- ----- ---- -------<br>--- --- -- ----- -- --- ---- -- --- ---- -- ------ ------<br>--- ----- -- ----,213184.03999996372,213180.51500001457,212407.099,212415.12000001967,212423.765,213190.401,,34,that
screen,html.Screen,1_1_0_1_35,2021-04-23T13:59:48.625Z,,,,,,,,,,,,,,,,53,,,,,,,,,,,,,,554.1040000678622,,response,,,,99,,,,,,,Space,keypress(Space),,,,,,,,---- -- ----- -- ------ - ------- --- ----------<br>------------- ------ ------ ---- ---- ------- ----- -- ----<br>-------- ------- -- ---------- --- - --- ----- ----- ----<br>---- --- --- ----- --- ---- ---- matters ----- ---- -------<br>--- --- -- ----- -- --- ---- -- --- ---- -- ------ ------<br>--- ----- -- ----,213747.86999996286,213744.50500006787,213173.735,213184.16000006255,213190.401,213757.045,,35,matters
screen,html.Screen,1_1_0_1_36,2021-04-23T13:59:49.041Z,,,,,,,,,,,,,,,,53,,,,,,,,,,,,,,403.45499999812455,,response,,,,99,,,,,,,Space,keypress(Space),,,,,,,,"---- -- ----- -- ------ - ------- --- ----------<br>------------- ------ ------ ---- ---- ------- ----- -- ----<br>-------- ------- -- ---------- --- - --- ----- ----- ----<br>---- --- --- ----- --- ---- ---- ------- most, ---- -------<br>--- --- -- ----- -- --- ---- -- --- ---- -- ------ ------<br>--- ----- -- ----",214163.33999997005,214160.49999999814,213740.379,213747.9900000617,213757.045,214173.695,,36,"most,"
screen,html.Screen,1_1_0_1_37,2021-04-23T13:59:49.827Z,,,,,,,,,,,,,,,,53,,,,,,,,,,,,,,771.8050000307267,,response,,,,99,,,,,,,Space,keypress(Space),,,,,,,,---- -- ----- -- ------ - ------- --- ----------<br>------------- ------ ------ ---- ---- ------- ----- -- ----<br>-------- ------- -- ---------- --- - --- ----- ----- ----<br>---- --- --- ----- --- ---- ---- ------- ----- it's -------<br>--- --- -- ----- -- --- ---- -- --- ---- -- ------ ------<br>--- ----- -- ----,214949.20500006992,214945.50000003073,214157.029,214163.4550000308,214173.695,214956.997,,37,it's
screen,html.Screen,1_1_0_1_38,2021-04-23T13:59:50.330Z,,,,,,,,,,,,,,,,53,,,,,,,,,,,,,,492.49300002816017,,response,,,,99,,,,,,,Space,keypress(Space),,,,,,,,---- -- ----- -- ------ - ------- --- ----------<br>------------- ------ ------ ---- ---- ------- ----- -- ----<br>-------- ------- -- ---------- --- - --- ----- ----- ----<br>---- --- --- ----- --- ---- ---- ------- ----- ---- whether<br>--- --- -- ----- -- --- ---- -- --- ---- -- ------ ------<br>--- ----- -- ----,215453.00500001758,215449.49000002816,214940.331,214949.32000001427,214956.997,215456.977,,38,whether
screen,html.Screen,1_1_0_1_39,2021-04-23T13:59:50.732Z,,,,,,,,,,,,,,,,53,,,,,,,,,,,,,,394.44800000073155,,response,,,,99,,,,,,,Space,keypress(Space),,,,,,,,---- -- ----- -- ------ - ------- --- ----------<br>------------- ------ ------ ---- ---- ------- ----- -- ----<br>-------- ------- -- ---------- --- - --- ----- ----- ----<br>---- --- --- ----- --- ---- ---- ------- ----- ---- -------<br>you --- -- ----- -- --- ---- -- --- ---- -- ------ ------<br>--- ----- -- ----,215854.91500003263,215851.42500000075,215440.311,215453.11999996193,215456.977,215856.961,,39,you
screen,html.Screen,1_1_0_1_40,2021-04-23T13:59:51.104Z,,,,,,,,,,,,,,,,53,,,,,,,,,,,,,,367.2589999745833,,response,,,,99,,,,,,,Space,keypress(Space),,,,,,,,---- -- ----- -- ------ - ------- --- ----------<br>------------- ------ ------ ---- ---- ------- ----- -- ----<br>-------- ------- -- ---------- --- - --- ----- ----- ----<br>---- --- --- ----- --- ---- ---- ------- ----- ---- -------<br>--- are -- ----- -- --- ---- -- --- ---- -- ------ ------<br>--- ----- -- ----,216226.69999999925,216224.2199999746,215840.295,215855.03500001505,215856.961,216240.279,,40,are
screen,html.Screen,1_1_0_1_41,2021-04-23T13:59:51.438Z,,,,,,,,,,,,,,,,53,,,,,,,,,,,,,,317.13100000852137,,response,,,,99,,,,,,,Space,keypress(Space),,,,,,,,---- -- ----- -- ------ - ------- --- ----------<br>------------- ------ ------ ---- ---- ------- ----- -- ----<br>-------- ------- -- ---------- --- - --- ----- ----- ----<br>---- --- --- ----- --- ---- ---- ------- ----- ---- -------<br>--- --- as ----- -- --- ---- -- --- ---- -- ------ ------<br>--- ----- -- ----,216561.00500002503,216557.41000000853,216223.613,216226.79500002414,216240.279,216573.599,,41,as
screen,html.Screen,1_1_0_1_42,2021-04-23T13:59:51.815Z,,,,,,,,,,,,,,,,53,,,,,,,,,,,,,,359.7859999820939,,response,,,,99,,,,,,,Space,keypress(Space),,,,,,,,---- -- ----- -- ------ - ------- --- ----------<br>------------- ------ ------ ---- ---- ------- ----- -- ----<br>-------- ------- -- ---------- --- - --- ----- ----- ----<br>---- --- --- ----- --- ---- ---- ------- ----- ---- -------<br>--- --- -- close -- --- ---- -- --- ---- -- ------ ------<br>--- ----- -- ----,216937.28000007104,216933.38499998208,216556.933,216561.11500004772,216573.599,216940.251,,42,close
screen,html.Screen,1_1_0_1_43,2021-04-23T13:59:52.173Z,,,,,,,,,,,,,,,,53,,,,,,,,,,,,,,352.1589999945718,,response,,,,99,,,,,,,Space,keypress(Space),,,,,,,,---- -- ----- -- ------ - ------- --- ----------<br>------------- ------ ------ ---- ---- ------- ----- -- ----<br>-------- ------- -- ---------- --- - --- ----- ----- ----<br>---- --- --- ----- --- ---- ---- ------- ----- ---- -------<br>--- --- -- ----- as --- ---- -- --- ---- -- ------ ------<br>--- ----- -- ----,217295.89000006672,217292.40999999456,216923.585,216937.40499997512,216940.251,217306.903,,43,as
screen,html.Screen,1_1_0_1_44,2021-04-23T13:59:52.539Z,,,,,,,,,,,,,,,,53,,,,,,,,,,,,,,351.3019999851822,,response,,,,99,,,,,,,Space,keypress(Space),,,,,,,,---- -- ----- -- ------ - ------- --- ----------<br>------------- ------ ------ ---- ---- ------- ----- -- ----<br>-------- ------- -- ---------- --- - --- ----- ----- ----<br>---- --- --- ----- --- ---- ---- ------- ----- ---- -------<br>--- --- -- ----- -- you ---- -- --- ---- -- ------ ------<br>--- ----- -- ----,217661.7049999768,217658.20499998517,217290.237,217296.01000004914,217306.903,217673.555,,44,you
screen,html.Screen,1_1_0_1_45,2021-04-23T13:59:52.907Z,,,,,,,,,,,,,,,,53,,,,,,,,,,,,,,352.68500003562076,,response,,,,99,,,,,,,Space,keypress(Space),,,,,,,,---- -- ----- -- ------ - ------- --- ----------<br>------------- ------ ------ ---- ---- ------- ----- -- ----<br>-------- ------- -- ---------- --- - --- ----- ----- ----<br>---- --- --- ----- --- ---- ---- ------- ----- ---- -------<br>--- --- -- ----- -- --- want -- --- ---- -- ------ ------<br>--- ----- -- ----,218029.3450000463,218026.2400000356,217656.889,217661.81499999948,217673.555,218040.207,,45,want
screen,html.Screen,1_1_0_1_46,2021-04-23T13:59:53.300Z,,,,,,,,,,,,,,,,53,,,,,,,,,,,,,,378.99800004198914,,response,,,,99,,,,,,,Space,keypress(Space),,,,,,,,---- -- ----- -- ------ - ------- --- ----------<br>------------- ------ ------ ---- ---- ------- ----- -- ----<br>-------- ------- -- ---------- --- - --- ----- ----- ----<br>---- --- --- ----- --- ---- ---- ------- ----- ---- -------<br>--- --- -- ----- -- --- ---- to --- ---- -- ------ ------<br>--- ----- -- ----,218422.49999998603,218419.20500004198,218023.541,218029.45999999065,218040.207,218427.953,,46,to
screen,html.Screen,1_1_0_1_47,2021-04-23T13:59:53.719Z,,,,,,,,,,,,,,,,53,,,,,,,,,,,,,,409.21200003355625,,response,,,,99,,,,,,,Space,keypress(Space),,,,,,,,"---- -- ----- -- ------ - ------- --- ----------<br>------------- ------ ------ ---- ---- ------- ----- -- ----<br>-------- ------- -- ---------- --- - --- ----- ----- ----<br>---- --- --- ----- --- ---- ---- ------- ----- ---- -------<br>--- --- -- ----- -- --- ---- -- be, ---- -- ------ ------<br>--- ----- -- ----",218841.22000006028,218837.16500003356,218411.287,218422.61999996845,218427.953,218844.603,,47,"be,"
screen,html.Screen,1_1_0_1_48,2021-04-23T13:59:54.188Z,,,,,,,,,,,,,,,,53,,,,,,,,,,,,,,462.7719999748515,,response,,,,99,,,,,,,Space,keypress(Space),,,,,,,,---- -- ----- -- ------ - ------- --- ----------<br>------------- ------ ------ ---- ---- ------- ----- -- ----<br>-------- ------- -- ---------- --- - --- ----- ----- ----<br>---- --- --- ----- --- ---- ---- ------- ----- ---- -------<br>--- --- -- ----- -- --- ---- -- --- even -- ------ ------<br>--- ----- -- ----,219310.84499997087,219307.37499997485,218827.937,218841.33500000462,218844.603,219327.917,,48,even
screen,html.Screen,1_1_0_1_49,2021-04-23T13:59:54.602Z,,,,,,,,,,,,,,,,53,,,,,,,,,,,,,,393.50299995802925,,response,,,,99,,,,,,,Space,keypress(Space),,,,,,,,---- -- ----- -- ------ - ------- --- ----------<br>------------- ------ ------ ---- ---- ------- ----- -- ----<br>-------- ------- -- ---------- --- - --- ----- ----- ----<br>---- --- --- ----- --- ---- ---- ------- ----- ---- -------<br>--- --- -- ----- -- --- ---- -- --- ---- if ------ ------<br>--- ----- -- ----,219724.99500005506,219721.41999995802,219311.251,219310.95499999356,219327.917,219727.901,,49,if
screen,html.Screen,1_1_0_1_50,2021-04-23T13:59:55.036Z,,,,,,,,,,,,,,,,53,,,,,,,,,,,,,,427.26900004182244,,response,,,,99,,,,,,,Space,keypress(Space),,,,,,,,---- -- ----- -- ------ - ------- --- ----------<br>------------- ------ ------ ---- ---- ------- ----- -- ----<br>-------- ------- -- ---------- --- - --- ----- ----- ----<br>---- --- --- ----- --- ---- ---- ------- ----- ---- -------<br>--- --- -- ----- -- --- ---- -- --- ---- -- that's ------<br>--- ----- -- ----,220158.5399999749,220155.17000004184,219711.235,219725.11500003748,219727.901,220161.217,,50,that's
screen,html.Screen,1_1_0_1_51,2021-04-23T13:59:55.449Z,,,,,,,,,,,,,,,,53,,,,,,,,,,,,,,407.9380000337842,,response,,,,99,,,,,,,Space,keypress(Space),,,,,,,,---- -- ----- -- ------ - ------- --- ----------<br>------------- ------ ------ ---- ---- ------- ----- -- ----<br>-------- ------- -- ---------- --- - --- ----- ----- ----<br>---- --- --- ----- --- ---- ---- ------- ----- ---- -------<br>--- --- -- ----- -- --- ---- -- --- ---- -- ------ really<br>--- ----- -- ----,220571.55500003137,220569.1550000338,220144.551,220158.65500003565,220161.217,220577.867,,51,really
screen,html.Screen,1_1_0_1_52,2021-04-23T13:59:55.867Z,,,,,,,,,,,,,,,,53,,,,,,,,,,,,,,408.3030000474246,,response,,,,99,,,,,,,Space,keypress(Space),,,,,,,,---- -- ----- -- ------ - ------- --- ----------<br>------------- ------ ------ ---- ---- ------- ----- -- ----<br>-------- ------- -- ---------- --- - --- ----- ----- ----<br>---- --- --- ----- --- ---- ---- ------- ----- ---- -------<br>--- --- -- ----- -- --- ---- -- --- ---- -- ------ ------<br>not ----- -- ----,220989.6149999695,220986.17000004742,220561.201,220571.64500001818,220577.867,220994.517,,52,not
screen,html.Screen,1_1_0_1_53,2021-04-23T13:59:56.212Z,,,,,,,,,,,,,,,,53,,,,,,,,,,,,,,336.74800004437566,,response,,,,99,,,,,,,Space,keypress(Space),,,,,,,,---- -- ----- -- ------ - ------- --- ----------<br>------------- ------ ------ ---- ---- ------- ----- -- ----<br>-------- ------- -- ---------- --- - --- ----- ----- ----<br>---- --- --- ----- --- ---- ---- ------- ----- ---- -------<br>--- --- -- ----- -- --- ---- -- --- ---- -- ------ ------<br>--- close -- ----,221334.365000017,221331.26500004437,220977.851,220989.73999998998,220994.517,221344.503,,53,close
screen,html.Screen,1_1_0_1_54,2021-04-23T13:59:56.598Z,,,,,,,,,,,,,,,,53,,,,,,,,,,,,,,372.6020000470162,,response,,,,99,,,,,,,Space,keypress(Space),,,,,,,,---- -- ----- -- ------ - ------- --- ----------<br>------------- ------ ------ ---- ---- ------- ----- -- ----<br>-------- ------- -- ---------- --- - --- ----- ----- ----<br>---- --- --- ----- --- ---- ---- ------- ----- ---- -------<br>--- --- -- ----- -- --- ---- -- --- ---- -- ------ ------<br>--- ----- at ----,221720.84500000346,221717.105000047,221327.837,221334.4849999994,221344.503,221727.821,,54,at
screen,html.Screen,1_1_0_1_55,2021-04-23T13:59:57.237Z,,,,,,,,,,,,,,,,53,,,,,,,,,,,,,,628.4240000317805,,response,,,,99,,,,,,,Space,keypress(Space),,,,,,,,---- -- ----- -- ------ - ------- --- ----------<br>------------- ------ ------ ---- ---- ------- ----- -- ----<br>-------- ------- -- ---------- --- - --- ----- ----- ----<br>---- --- --- ----- --- ---- ---- ------- ----- ---- -------<br>--- --- -- ----- -- --- ---- -- --- ---- -- ------ ------<br>--- ----- -- all.,222359.79500005487,222356.24500003178,221711.155,221720.96000006422,221727.821,222361.129,,55,all.
Item 99,flow.Loop,1_1_0_1,2021-04-23T13:59:57.237Z,,,,,,,,,,,,,,,,,,,,,,,,,,,,,,25071.707000031776,,completion,,,,,D,,,,,,,,,,,silence,,,,,222360.02999998163,222356.24500003178,197267.872,197270.32500004862,197284.538,222361.129,,,
Question 1,html.Screen,1_1_0_2,2021-04-23T14:00:04.159Z,,,,,,,,,,,,,,,,,,,,,,,,,,,false,FALSE,,6918.270999999455,,response,,,,99,D,,,,,,TRUE,click #choice-1,,,,silence,,,,,229281.82500007097,229279.39999999944,222344.463,222360.13499996625,222361.129,229285.25,,,
Question 2,html.Screen,1_1_0_3,2021-04-23T14:00:12.110Z,,,,,,,,,,,,,,,,,,,,,,,,,,,true,TRUE,,7944.635000037029,,response,,,,99,D,,,,,,TRUE,click #choice-1,,,,silence,,,,,237232.22000000533,237229.88500003703,229268.584,229281.94999997504,229285.25,237234.932,,,
Item 99,flow.Sequence,1_1_0,2021-04-23T14:00:12.110Z,,,,,,,,,,,,,,,,,,,,,,,,,,,,,,49944.947000037035,,completion,,,,,,,,,,,,,,,,,,,,,237232.3950000573,237229.88500003703,187268.272,187286.74500004854,187284.938,237234.932,,,
Holding screen,html.Screen,1_1_1_0,2021-04-23T14:00:22.101Z,,,,,,,,,,,,,,,,,,,,,,,,,,,,,,10004.203999999998,,timeout,,,,,,,,,,,,,,,,,,,,,247224.02500000317,247222.47,237218.266,237232.5150000397,237234.932,247239.136,,,
screen,html.Screen,1_1_1_1_0,2021-04-23T14:00:22.900Z,,,,,,,,,,,,,,,,54,,,,,,,,,,,,,,779.2940000546514,,response,,,,100,,,,,,,Space,keypress(Space),,,,,,,,At --- ---- --- ------ ----- ------- ---- -- --- ------- --<br>------- ---------- ------ -- ----- -- ----- -- ---- ------<br>--- ----- --- --- ------ -------- ----- --- ------ ----- --<br>----- ----- ---------- --- --- ------ ------ ---- -- ------<br>------- --- ------ ----- --- ---- ------- -- ---- --- --<br>------- ------,248022.86999998614,248018.43000005465,247222.47,247224.17000005953,247239.136,248039.104,,0,At
screen,html.Screen,1_1_1_1_1,2021-04-23T14:00:23.463Z,,,,,,,,,,,,,,,,54,,,,,,,,,,,,,,543.0109999974375,,response,,,,100,,,,,,,Space,keypress(Space),,,,,,,,-- the ---- --- ------ ----- ------- ---- -- --- ------- --<br>------- ---------- ------ -- ----- -- ----- -- ---- ------<br>--- ----- --- --- ------ -------- ----- --- ------ ----- --<br>----- ----- ---------- --- --- ------ ------ ---- -- ------<br>------- --- ------ ----- --- ---- ------- -- ---- --- --<br>------- ------,248585.73499997146,248582.11499999743,248022.438,248022.96500001103,248039.104,248589.082,,1,the
screen,html.Screen,1_1_1_1_2,2021-04-23T14:00:24.102Z,,,,,,,,,,,,,,,,54,,,,,,,,,,,,,,633.027999973332,,response,,,,100,,,,,,,Space,keypress(Space),,,,,,,,-- --- time --- ------ ----- ------- ---- -- --- ------- --<br>------- ---------- ------ -- ----- -- ----- -- ---- ------<br>--- ----- --- --- ------ -------- ----- --- ------ ----- --<br>----- ----- ---------- --- --- ------ ------ ---- -- ------<br>------- --- ------ ----- --- ---- ------- -- ---- --- --<br>------- ------,249224.64000002947,249222.10999997333,248572.416,248585.8400000725,248589.082,249239.056,,2,time
screen,html.Screen,1_1_1_1_3,2021-04-23T14:00:24.726Z,,,,,,,,,,,,,,,,54,,,,,,,,,,,,,,606.094000066485,,response,,,,100,,,,,,,Space,keypress(Space),,,,,,,,-- --- ---- the ------ ----- ------- ---- -- --- ------- --<br>------- ---------- ------ -- ----- -- ----- -- ---- ------<br>--- ----- --- --- ------ -------- ----- --- ------ ----- --<br>----- ----- ---------- --- --- ------ ------ ---- -- ------<br>------- --- ------ ----- --- ---- ------- -- ---- --- --<br>------- ------,249848.25499996077,249845.1500000665,249222.39,249224.74500001408,249239.056,249855.698,,3,the
screen,html.Screen,1_1_1_1_4,2021-04-23T14:00:25.197Z,,,,,,,,,,,,,,,,54,,,,,,,,,,,,,,460.43699997183285,,response,,,,100,,,,,,,Space,keypress(Space),,,,,,,,-- --- ---- --- French ----- ------- ---- -- --- ------- --<br>------- ---------- ------ -- ----- -- ----- -- ---- ------<br>--- ----- --- --- ------ -------- ----- --- ------ ----- --<br>----- ----- ---------- --- --- ------ ------ ---- -- ------<br>------- --- ------ ----- --- ---- ------- -- ---- --- --<br>------- ------,250319.7200000286,250316.13499997184,249839.032,249848.37000002153,249855.698,250322.346,,4,French
screen,html.Screen,1_1_1_1_5,2021-04-23T14:00:25.647Z,,,,,,,,,,,,,,,,54,,,,,,,,,,,,,,443.8040000394976,,response,,,,100,,,,,,,Space,keypress(Space),,,,,,,,-- --- ---- --- ------ crown ------- ---- -- --- ------- --<br>------- ---------- ------ -- ----- -- ----- -- ---- ------<br>--- ----- --- --- ------ -------- ----- --- ------ ----- --<br>----- ----- ---------- --- --- ------ ------ ---- -- ------<br>------- --- ------ ----- --- ---- ------- -- ---- --- --<br>------- ------,250769.6650000289,250766.1500000395,250305.68,250319.82500001322,250322.346,250783.452,,5,crown
screen,html.Screen,1_1_1_1_6,2021-04-23T14:00:26.043Z,,,,,,,,,,,,,,,,54,,,,,,,,,,,,,,378.6880000294768,,response,,,,100,,,,,,,Space,keypress(Space),,,,,,,,-- --- ---- --- ------ ----- secured ---- -- --- ------- --<br>------- ---------- ------ -- ----- -- ----- -- ---- ------<br>--- ----- --- --- ------ -------- ----- --- ------ ----- --<br>----- ----- ---------- --- --- ------ ------ ---- -- ------<br>------- --- ------ ----- --- ---- ------- -- ---- --- --<br>------- ------,251165.56500003207,251162.14000002947,250766.786,250769.77999997325,250783.452,251166.77,,6,secured
screen,html.Screen,1_1_1_1_7,2021-04-23T14:00:26.465Z,,,,,,,,,,,,,,,,54,,,,,,,,,,,,,,417.43000004117494,,response,,,,100,,,,,,,Space,keypress(Space),,,,,,,,-- --- ---- --- ------ ----- ------- much -- --- ------- --<br>------- ---------- ------ -- ----- -- ----- -- ---- ------<br>--- ----- --- --- ------ -------- ----- --- ------ ----- --<br>----- ----- ---------- --- --- ------ ------ ---- -- ------<br>------- --- ------ ----- --- ---- ------- -- ---- --- --<br>------- ------,251587.71500003058,251584.20000004116,251150.104,251165.67999997642,251166.77,251600.086,,7,much
screen,html.Screen,1_1_1_1_8,2021-04-23T14:00:26.811Z,,,,,,,,,,,,,,,,54,,,,,,,,,,,,,,330.0640000292333,,response,,,,100,,,,,,,Space,keypress(Space),,,,,,,,-- --- ---- --- ------ ----- ------- ---- of --- ------- --<br>------- ---------- ------ -- ----- -- ----- -- ---- ------<br>--- ----- --- --- ------ -------- ----- --- ------ ----- --<br>----- ----- ---------- --- --- ------ ------ ---- -- ------<br>------- --- ------ ----- --- ---- ------- -- ---- --- --<br>------- ------,251933.39000002015,251930.15000002924,251583.42,251587.82999997493,251600.086,251950.072,,8,of
screen,html.Screen,1_1_1_1_9,2021-04-23T14:00:27.167Z,,,,,,,,,,,,,,,,54,,,,,,,,,,,,,,337.0929999870132,,response,,,,100,,,,,,,Space,keypress(Space),,,,,,,,-- --- ---- --- ------ ----- ------- ---- -- its ------- --<br>------- ---------- ------ -- ----- -- ----- -- ---- ------<br>--- ----- --- --- ------ -------- ----- --- ------ ----- --<br>----- ----- ---------- --- --- ------ ------ ---- -- ------<br>------- --- ------ ----- --- ---- ------- -- ---- --- --<br>------- ------,252290.02499999478,252287.164999987,251933.406,251933.50000004284,251950.072,252300.058,,9,its
screen,html.Screen,1_1_1_1_10,2021-04-23T14:00:27.541Z,,,,,,,,,,,,,,,,54,,,,,,,,,,,,,,360.06200001502293,,response,,,,100,,,,,,,Space,keypress(Space),,,,,,,,-- --- ---- --- ------ ----- ------- ---- -- --- revenue --<br>------- ---------- ------ -- ----- -- ----- -- ---- ------<br>--- ----- --- --- ------ -------- ----- --- ------ ----- --<br>----- ----- ---------- --- --- ------ ------ ---- -- ------<br>------- --- ------ ----- --- ---- ------- -- ---- --- --<br>------- ------,252663.60500000883,252660.120000015,252283.392,252290.13500001747,252300.058,252666.71,,10,revenue
screen,html.Screen,1_1_1_1_11,2021-04-23T14:00:28.587Z,,,,,,,,,,,,,,,,54,,,,,,,,,,,,,,1039.4150000260852,,response,,,,100,,,,,,,Space,keypress(Space),,,,,,,,-- --- ---- --- ------ ----- ------- ---- -- --- ------- by<br>------- ---------- ------ -- ----- -- ----- -- ---- ------<br>--- ----- --- --- ------ -------- ----- --- ------ ----- --<br>----- ----- ---------- --- --- ------ ------ ---- -- ------<br>------- --- ------ ----- --- ---- ------- -- ---- --- --<br>------- ------,253709.1800000053,253706.12500002608,252650.044,252663.70999999344,252666.71,253716.668,,11,by
screen,html.Screen,1_1_1_1_12,2021-04-23T14:00:29.229Z,,,,,,,,,,,,,,,,54,,,,,,,,,,,,,,631.492000052298,,response,,,,100,,,,,,,Space,keypress(Space),,,,,,,,-- --- ---- --- ------ ----- ------- ---- -- --- ------- --<br>issuing ---------- ------ -- ----- -- ----- -- ---- ------<br>--- ----- --- --- ------ -------- ----- --- ------ ----- --<br>----- ----- ---------- --- --- ------ ------ ---- -- ------<br>------- --- ------ ----- --- ---- ------- -- ---- --- --<br>------- ------,254351.69499996118,254348.1600000523,253700.002,253709.29000002798,253716.668,254366.642,,12,issuing
screen,html.Screen,1_1_1_1_13,2021-04-23T14:00:29.710Z,,,,,,,,,,,,,,,,54,,,,,,,,,,,,,,462.47299997135997,,response,,,,100,,,,,,,Space,keypress(Space),,,,,,,,-- --- ---- --- ------ ----- ------- ---- -- --- ------- --<br>------- government ------ -- ----- -- ----- -- ---- ------<br>--- ----- --- --- ------ -------- ----- --- ------ ----- --<br>----- ----- ---------- --- --- ------ ------ ---- -- ------<br>------- --- ------ ----- --- ---- ------- -- ---- --- --<br>------- ------,254832.48500002082,254829.11499997135,254349.976,254351.81000002194,254366.642,254833.29,,13,government
screen,html.Screen,1_1_1_1_14,2021-04-23T14:00:30.123Z,,,,,,,,,,,,,,,,54,,,,,,,,,,,,,,408.73999996486236,,response,,,,100,,,,,,,Space,keypress(Space),,,,,,,,-- --- ---- --- ------ ----- ------- ---- -- --- ------- --<br>------- ---------- bonds. -- ----- -- ----- -- ---- ------<br>--- ----- --- --- ------ -------- ----- --- ------ ----- --<br>----- ----- ---------- --- --- ------ ------ ---- -- ------<br>------- --- ------ ----- --- ---- ------- -- ---- --- --<br>------- ------,255245.51000003703,255242.02999996487,254816.624,254832.5950000435,254833.29,255249.94,,14,bonds.
screen,html.Screen,1_1_1_1_15,2021-04-23T14:00:31.352Z,,,,,,,,,,,,,,,,54,,,,,,,,,,,,,,1220.959999956598,,response,,,,100,,,,,,,Space,keypress(Space),,,,,,,,-- --- ---- --- ------ ----- ------- ---- -- --- ------- --<br>------- ---------- ------ In ----- -- ----- -- ---- ------<br>--- ----- --- --- ------ -------- ----- --- ------ ----- --<br>----- ----- ---------- --- --- ------ ------ ---- -- ------<br>------- --- ------ ----- --- ---- ------- -- ---- --- --<br>------- ------,256474.339999957,256470.8999999566,255233.274,255245.62000005972,255249.94,256483.224,,15,In
screen,html.Screen,1_1_1_1_16,2021-04-23T14:00:32.713Z,,,,,,,,,,,,,,,,54,,,,,,,,,,,,,,1349.77599998418,,response,,,,100,,,,,,,Space,keypress(Space),,,,,,,,"-- --- ---- --- ------ ----- ------- ---- -- --- ------- --<br>------- ---------- ------ -- 1727, -- ----- -- ---- ------<br>--- ----- --- --- ------ -------- ----- --- ------ ----- --<br>----- ----- ---------- --- --- ------ ------ ---- -- ------<br>------- --- ------ ----- --- ---- ------- -- ---- --- --<br>------- ------",257836.14999998827,257832.99999998417,256466.558,256474.4499999797,256483.224,257849.836,,16,"1727,"
screen,html.Screen,1_1_1_1_17,2021-04-23T14:00:33.572Z,,,,,,,,,,,,,,,,54,,,,,,,,,,,,,,841.0940000406699,,response,,,,100,,,,,,,Space,keypress(Space),,,,,,,,-- --- ---- --- ------ ----- ------- ---- -- --- ------- --<br>------- ---------- ------ -- ----- in ----- -- ---- ------<br>--- ----- --- --- ------ -------- ----- --- ------ ----- --<br>----- ----- ---------- --- --- ------ ------ ---- -- ------<br>------- --- ------ ----- --- ---- ------- -- ---- --- --<br>------- ------,258694.76500002202,258690.93000004068,257833.17,257836.26000001095,257849.836,258699.802,,17,in
screen,html.Screen,1_1_1_1_18,2021-04-23T14:00:34.291Z,,,,,,,,,,,,,,,,54,,,,,,,,,,,,,,710.1180000055174,,response,,,,100,,,,,,,Space,keypress(Space),,,,,,,,-- --- ---- --- ------ ----- ------- ---- -- --- ------- --<br>------- ---------- ------ -- ----- -- order -- ---- ------<br>--- ----- --- --- ------ -------- ----- --- ------ ----- --<br>----- ----- ---------- --- --- ------ ------ ---- -- ------<br>------- --- ------ ----- --- ---- ------- -- ---- --- --<br>------- ------,259413.71500003152,259409.9200000055,258683.136,258694.8750000447,258699.802,259416.44,,18,order
screen,html.Screen,1_1_1_1_19,2021-04-23T14:00:34.720Z,,,,,,,,,,,,,,,,54,,,,,,,,,,,,,,422.53499996237224,,response,,,,100,,,,,,,Space,keypress(Space),,,,,,,,-- --- ---- --- ------ ----- ------- ---- -- --- ------- --<br>------- ---------- ------ -- ----- -- ----- to ---- ------<br>--- ----- --- --- ------ -------- ----- --- ------ ----- --<br>----- ----- ---------- --- --- ------ ------ ---- -- ------<br>------- --- ------ ----- --- ---- ------- -- ---- --- --<br>------- ------,259842.56999997888,259838.97499996237,259399.774,259413.88999996707,259416.44,259849.756,,19,to
screen,html.Screen,1_1_1_1_20,2021-04-23T14:00:35.152Z,,,,,,,,,,,,,,,,54,,,,,,,,,,,,,,421.15399996290216,,response,,,,100,,,,,,,Space,keypress(Space),,,,,,,,-- --- ---- --- ------ ----- ------- ---- -- --- ------- --<br>------- ---------- ------ -- ----- -- ----- -- save ------<br>--- ----- --- --- ------ -------- ----- --- ------ ----- --<br>----- ----- ---------- --- --- ------ ------ ---- -- ------<br>------- --- ------ ----- --- ---- ------- -- ---- --- --<br>------- ------,260274.27000005264,260270.9099999629,259833.09,259842.6749999635,259849.756,260283.072,,20,save
screen,html.Screen,1_1_1_1_21,2021-04-23T14:00:36.429Z,,,,,,,,,,,,,,,,54,,,,,,,,,,,,,,1264.7880000497098,,response,,,,100,,,,,,,Space,keypress(Space),,,,,,,,"-- --- ---- --- ------ ----- ------- ---- -- --- ------- --<br>------- ---------- ------ -- ----- -- ----- -- ---- money,<br>--- ----- --- --- ------ -------- ----- --- ------ ----- --<br>----- ----- ---------- --- --- ------ ------ ---- -- ------<br>------- --- ------ ----- --- ---- ------- -- ---- --- --<br>------- ------",261551.37000000104,261547.8600000497,260266.406,260274.3799999589,260283.072,261566.354,,21,"money,"
screen,html.Screen,1_1_1_1_22,2021-04-23T14:00:37.831Z,,,,,,,,,,,,,,,,54,,,,,,,,,,,,,,1383.4860000156914,,response,,,,100,,,,,,,Space,keypress(Space),,,,,,,,-- --- ---- --- ------ ----- ------- ---- -- --- ------- --<br>------- ---------- ------ -- ----- -- ----- -- ---- ------<br>the ----- --- --- ------ -------- ----- --- ------ ----- --<br>----- ----- ---------- --- --- ------ ------ ---- -- ------<br>------- --- ------ ----- --- ---- ------- -- ---- --- --<br>------- ------,262953.3900000388,262949.8400000157,261549.688,261551.4850000618,261566.354,262956.982,,22,the
screen,html.Screen,1_1_1_1_23,2021-04-23T14:00:39.109Z,,,,,,,,,,,,,,,,54,,,,,,,,,,,,,,1271.7629999712226,,response,,,,100,,,,,,,Space,keypress(Space),,,,,,,,-- --- ---- --- ------ ----- ------- ---- -- --- ------- --<br>------- ---------- ------ -- ----- -- ----- -- ---- ------<br>--- state --- --- ------ -------- ----- --- ------ ----- --<br>----- ----- ---------- --- --- ------ ------ ---- -- ------<br>------- --- ------ ----- --- ---- ------- -- ---- --- --<br>------- ------,264231.8400000222,264228.74499997124,262940.316,262953.50000006147,262956.982,264240.264,,23,state
screen,html.Screen,1_1_1_1_24,2021-04-23T14:00:40.000Z,,,,,,,,,,,,,,,,54,,,,,,,,,,,,,,878.4910000613309,,response,,,,100,,,,,,,Space,keypress(Space),,,,,,,,-- --- ---- --- ------ ----- ------- ---- -- --- ------- --<br>------- ---------- ------ -- ----- -- ----- -- ---- ------<br>--- ----- cut --- ------ -------- ----- --- ------ ----- --<br>----- ----- ---------- --- --- ------ ------ ---- -- ------<br>------- --- ------ ----- --- ---- ------- -- ---- --- --<br>------- ------,265122.2650000127,265118.75500006136,264223.598,264231.9500000449,264240.264,265123.562,,24,cut
screen,html.Screen,1_1_1_1_25,2021-04-23T14:00:40.569Z,,,,,,,,,,,,,,,,54,,,,,,,,,,,,,,564.2229999582632,,response,,,,100,,,,,,,Space,keypress(Space),,,,,,,,-- --- ---- --- ------ ----- ------- ---- -- --- ------- --<br>------- ---------- ------ -- ----- -- ----- -- ---- ------<br>--- ----- --- the ------ -------- ----- --- ------ ----- --<br>----- ----- ---------- --- --- ------ ------ ---- -- ------<br>------- --- ------ ----- --- ---- ------- -- ---- --- --<br>------- ------,265691.3450000575,265687.78499995824,265106.896,265122.3699999973,265123.562,265706.872,,25,the
screen,html.Screen,1_1_1_1_26,2021-04-23T14:00:41.760Z,,,,,,,,,,,,,,,,54,,,,,,,,,,,,,,1172.6730000325479,,response,,,,100,,,,,,,Space,keypress(Space),,,,,,,,-- --- ---- --- ------ ----- ------- ---- -- --- ------- --<br>------- ---------- ------ -- ----- -- ----- -- ---- ------<br>--- ----- --- --- bonds' -------- ----- --- ------ ----- --<br>----- ----- ---------- --- --- ------ ------ ---- -- ------<br>------- --- ------ ----- --- ---- ------- -- ---- --- --<br>------- ------,266883.01500002854,266879.5450000325,265690.206,265691.4600000018,265706.872,266890.158,,26,bonds'
screen,html.Screen,1_1_1_1_27,2021-04-23T14:00:42.625Z,,,,,,,,,,,,,,,,54,,,,,,,,,,,,,,853.4520000049961,,response,,,,100,,,,,,,Space,keypress(Space),,,,,,,,-- --- ---- --- ------ ----- ------- ---- -- --- ------- --<br>------- ---------- ------ -- ----- -- ----- -- ---- ------<br>--- ----- --- --- ------ interest ----- --- ------ ----- --<br>----- ----- ---------- --- --- ------ ------ ---- -- ------<br>------- --- ------ ----- --- ---- ------- -- ---- --- --<br>------- ------,267747.2950000083,267743.610000005,266873.492,266883.1299999729,266890.158,267756.79,,27,interest
screen,html.Screen,1_1_1_1_28,2021-04-23T14:00:43.320Z,,,,,,,,,,,,,,,,54,,,,,,,,,,,,,,681.92500005482,,response,,,,100,,,,,,,Space,keypress(Space),,,,,,,,-- --- ---- --- ------ ----- ------- ---- -- --- ------- --<br>------- ---------- ------ -- ----- -- ----- -- ---- ------<br>--- ----- --- --- ------ -------- rate. --- ------ ----- --<br>----- ----- ---------- --- --- ------ ------ ---- -- ------<br>------- --- ------ ----- --- ---- ------- -- ---- --- --<br>------- ------,268442.2150000464,268438.7150000548,267740.124,267747.41000006907,267756.79,268456.762,,28,rate.
screen,html.Screen,1_1_1_1_29,2021-04-23T14:00:43.803Z,,,,,,,,,,,,,,,,54,,,,,,,,,,,,,,464.8880000329809,,response,,,,100,,,,,,,Space,keypress(Space),,,,,,,,-- --- ---- --- ------ ----- ------- ---- -- --- ------- --<br>------- ---------- ------ -- ----- -- ----- -- ---- ------<br>--- ----- --- --- ------ -------- ----- The ------ ----- --<br>----- ----- ---------- --- --- ------ ------ ---- -- ------<br>------- --- ------ ----- --- ---- ------- -- ---- --- --<br>------- ------,268925.70999998134,268921.65000003297,268440.096,268442.32999999076,268456.762,268940.076,,29,The
screen,html.Screen,1_1_1_1_30,2021-04-23T14:00:44.380Z,,,,,,,,,,,,,,,,54,,,,,,,,,,,,,,558.53900004772,,response,,,,100,,,,,,,Space,keypress(Space),,,,,,,,-- --- ---- --- ------ ----- ------- ---- -- --- ------- --<br>------- ---------- ------ -- ----- -- ----- -- ---- ------<br>--- ----- --- --- ------ -------- ----- --- market ----- --<br>----- ----- ---------- --- --- ------ ------ ---- -- ------<br>------- --- ------ ----- --- ---- ------- -- ---- --- --<br>------- ------,269502.1699999925,269498.6150000477,268923.41,268925.820000004,268940.076,269506.72,,30,market
screen,html.Screen,1_1_1_1_31,2021-04-23T14:00:44.829Z,,,,,,,,,,,,,,,,54,,,,,,,,,,,,,,441.87499996530823,,response,,,,100,,,,,,,Space,keypress(Space),,,,,,,,-- --- ---- --- ------ ----- ------- ---- -- --- ------- --<br>------- ---------- ------ -- ----- -- ----- -- ---- ------<br>--- ----- --- --- ------ -------- ----- --- ------ value --<br>----- ----- ---------- --- --- ------ ------ ---- -- ------<br>------- --- ------ ----- --- ---- ------- -- ---- --- --<br>------- ------,269951.83000003453,269948.5949999653,269490.054,269502.28000001516,269506.72,269956.702,,31,value
screen,html.Screen,1_1_1_1_32,2021-04-23T14:00:45.301Z,,,,,,,,,,,,,,,,54,,,,,,,,,,,,,,463.7080000206479,,response,,,,100,,,,,,,Space,keypress(Space),,,,,,,,-- --- ---- --- ------ ----- ------- ---- -- --- ------- --<br>------- ---------- ------ -- ----- -- ----- -- ---- ------<br>--- ----- --- --- ------ -------- ----- --- ------ ----- of<br>----- ----- ---------- --- --- ------ ------ ---- -- ------<br>------- --- ------ ----- --- ---- ------- -- ---- --- --<br>------- ------,270423.5050000716,270420.41000002064,269940.036,269951.9400000572,269956.702,270440.016,,32,of
screen,html.Screen,1_1_1_1_33,2021-04-23T14:00:45.732Z,,,,,,,,,,,,,,,,54,,,,,,,,,,,,,,411.6540000036475,,response,,,,100,,,,,,,Space,keypress(Space),,,,,,,,-- --- ---- --- ------ ----- ------- ---- -- --- ------- --<br>------- ---------- ------ -- ----- -- ----- -- ---- ------<br>--- ----- --- --- ------ -------- ----- --- ------ ----- --<br>these ----- ---------- --- --- ------ ------ ---- -- ------<br>------- --- ------ ----- --- ---- ------- -- ---- --- --<br>------- ------,270854.82000000775,270851.67000000365,270423.35,270423.6149999779,270440.016,270856.666,,33,these
screen,html.Screen,1_1_1_1_34,2021-04-23T14:00:46.134Z,,,,,,,,,,,,,,,,54,,,,,,,,,,,,,,395.90400001144735,,response,,,,100,,,,,,,Space,keypress(Space),,,,,,,,-- --- ---- --- ------ ----- ------- ---- -- --- ------- --<br>------- ---------- ------ -- ----- -- ----- -- ---- ------<br>--- ----- --- --- ------ -------- ----- --- ------ ----- --<br>----- bonds ---------- --- --- ------ ------ ---- -- ------<br>------- --- ------ ----- --- ---- ------- -- ---- --- --<br>------- ------,271256.2250000192,271252.5700000115,270840,270854.93000003044,270856.666,271261.496,,34,bonds
screen,html.Screen,1_1_1_1_35,2021-04-23T14:00:46.547Z,,,,,,,,,,,,,,,,54,,,,,,,,,,,,,,405.04400000564056,,response,,,,100,,,,,,,Space,keypress(Space),,,,,,,,"-- --- ---- --- ------ ----- ------- ---- -- --- ------- --<br>------- ---------- ------ -- ----- -- ----- -- ---- ------<br>--- ----- --- --- ------ -------- ----- --- ------ ----- --<br>----- ----- plummeted, --- --- ------ ------ ---- -- ------<br>------- --- ------ ----- --- ---- ------- -- ---- --- --<br>------- ------",271669.77499995846,271666.5400000056,271244.83,271256.3350000419,271261.496,271678.146,,35,"plummeted,"
screen,html.Screen,1_1_1_1_36,2021-04-23T14:00:46.990Z,,,,,,,,,,,,,,,,54,,,,,,,,,,,,,,431.324000024877,,response,,,,100,,,,,,,Space,keypress(Space),,,,,,,,-- --- ---- --- ------ ----- ------- ---- -- --- ------- --<br>------- ---------- ------ -- ----- -- ----- -- ---- ------<br>--- ----- --- --- ------ -------- ----- --- ------ ----- --<br>----- ----- ---------- and --- ------ ------ ---- -- ------<br>------- --- ------ ----- --- ---- ------- -- ---- --- --<br>------- ------,272112.9250000231,272109.4700000249,271661.48,271669.8900000192,271678.146,272128.128,,36,and
screen,html.Screen,1_1_1_1_37,2021-04-23T14:00:47.416Z,,,,,,,,,,,,,,,,54,,,,,,,,,,,,,,406.6120000318624,,response,,,,100,,,,,,,Space,keypress(Space),,,,,,,,-- --- ---- --- ------ ----- ------- ---- -- --- ------- --<br>------- ---------- ------ -- ----- -- ----- -- ---- ------<br>--- ----- --- --- ------ -------- ----- --- ------ ----- --<br>----- ----- ---------- --- the ------ ------ ---- -- ------<br>------- --- ------ ----- --- ---- ------- -- ---- --- --<br>------- ------,272538.1800000323,272534.7400000319,272111.462,272113.0300000077,272128.128,272544.778,,37,the
screen,html.Screen,1_1_1_1_38,2021-04-23T14:00:47.833Z,,,,,,,,,,,,,,,,54,,,,,,,,,,,,,,407.7220000139787,,response,,,,100,,,,,,,Space,keypress(Space),,,,,,,,-- --- ---- --- ------ ----- ------- ---- -- --- ------- --<br>------- ---------- ------ -- ----- -- ----- -- ---- ------<br>--- ----- --- --- ------ -------- ----- --- ------ ----- --<br>----- ----- ---------- --- --- market ------ ---- -- ------<br>------- --- ------ ----- --- ---- ------- -- ---- --- --<br>------- ------,272955.9850000078,272952.50000001397,272528.112,272538.29499997664,272544.778,272961.428,,38,market
screen,html.Screen,1_1_1_1_39,2021-04-23T14:00:48.234Z,,,,,,,,,,,,,,,,54,,,,,,,,,,,,,,391.1670000621234,,response,,,,100,,,,,,,Space,keypress(Space),,,,,,,,-- --- ---- --- ------ ----- ------- ---- -- --- ------- --<br>------- ---------- ------ -- ----- -- ----- -- ---- ------<br>--- ----- --- --- ------ -------- ----- --- ------ ----- --<br>----- ----- ---------- --- --- ------ became ---- -- ------<br>------- --- ------ ----- --- ---- ------- -- ---- --- --<br>------- ------,273356.23500007205,273352.59500006214,272944.762,272956.10000006855,272961.428,273361.412,,39,became
screen,html.Screen,1_1_1_1_40,2021-04-23T14:00:48.623Z,,,,,,,,,,,,,,,,54,,,,,,,,,,,,,,382.1230000159703,,response,,,,100,,,,,,,Space,keypress(Space),,,,,,,,-- --- ---- --- ------ ----- ------- ---- -- --- ------- --<br>------- ---------- ------ -- ----- -- ----- -- ---- ------<br>--- ----- --- --- ------ -------- ----- --- ------ ----- --<br>----- ----- ---------- --- --- ------ ------ wary -- ------<br>------- --- ------ ----- --- ---- ------- -- ---- --- --<br>------- ------,273746.03000003844,273743.535000016,273344.746,273356.3449999783,273361.412,273761.396,,40,wary
screen,html.Screen,1_1_1_1_41,2021-04-23T14:00:48.997Z,,,,,,,,,,,,,,,,54,,,,,,,,,,,,,,354.2940000059898,,response,,,,100,,,,,,,Space,keypress(Space),,,,,,,,-- --- ---- --- ------ ----- ------- ---- -- --- ------- --<br>------- ---------- ------ -- ----- -- ----- -- ---- ------<br>--- ----- --- --- ------ -------- ----- --- ------ ----- --<br>----- ----- ---------- --- --- ------ ------ ---- of ------<br>------- --- ------ ----- --- ---- ------- -- ---- --- --<br>------- ------,274119.39999996684,274115.690000006,273744.73,273746.14000006113,273761.396,274128.048,,41,of
screen,html.Screen,1_1_1_1_42,2021-04-23T14:00:49.560Z,,,,,,,,,,,,,,,,54,,,,,,,,,,,,,,551.5220000366098,,response,,,,100,,,,,,,Space,keypress(Space),,,,,,,,-- --- ---- --- ------ ----- ------- ---- -- --- ------- --<br>------- ---------- ------ -- ----- -- ----- -- ---- ------<br>--- ----- --- --- ------ -------- ----- --- ------ ----- --<br>----- ----- ---------- --- --- ------ ------ ---- -- French<br>------- --- ------ ----- --- ---- ------- -- ---- --- --<br>------- ------,274682.7350000385,274679.5700000366,274111.382,274119.50999998953,274128.048,274694.692,,42,French
screen,html.Screen,1_1_1_1_43,2021-04-23T14:00:50.340Z,,,,,,,,,,,,,,,,54,,,,,,,,,,,,,,764.7030000126106,,response,,,,100,,,,,,,Space,keypress(Space),,,,,,,,-- --- ---- --- ------ ----- ------- ---- -- --- ------- --<br>------- ---------- ------ -- ----- -- ----- -- ---- ------<br>--- ----- --- --- ------ -------- ----- --- ------ ----- --<br>----- ----- ---------- --- --- ------ ------ ---- -- ------<br>credit. --- ------ ----- --- ---- ------- -- ---- --- --<br>------- ------,275462.72000006866,275459.3950000126,274678.026,274682.8450000612,274694.692,275477.994,,43,credit.
screen,html.Screen,1_1_1_1_44,2021-04-23T14:00:50.871Z,,,,,,,,,,,,,,,,54,,,,,,,,,,,,,,511.4010000405251,,response,,,,100,,,,,,,Space,keypress(Space),,,,,,,,-- --- ---- --- ------ ----- ------- ---- -- --- ------- --<br>------- ---------- ------ -- ----- -- ----- -- ---- ------<br>--- ----- --- --- ------ -------- ----- --- ------ ----- --<br>----- ----- ---------- --- --- ------ ------ ---- -- ------<br>------- The ------ ----- --- ---- ------- -- ---- --- --<br>------- ------,275993.43500006944,275989.39500004053,275461.328,275462.8299999749,275477.994,275994.64,,44,The
screen,html.Screen,1_1_1_1_45,2021-04-23T14:00:51.333Z,,,,,,,,,,,,,,,,54,,,,,,,,,,,,,,456.73500006238464,,response,,,,100,,,,,,,Space,keypress(Space),,,,,,,,-- --- ---- --- ------ ----- ------- ---- -- --- ------- --<br>------- ---------- ------ -- ----- -- ----- -- ---- ------<br>--- ----- --- --- ------ -------- ----- --- ------ ----- --<br>----- ----- ---------- --- --- ------ ------ ---- -- ------<br>------- --- French ----- --- ---- ------- -- ---- --- --<br>------- ------,276455.350000062,276451.3750000624,275977.974,275993.55500005186,275994.64,276461.288,,45,French
screen,html.Screen,1_1_1_1_46,2021-04-23T14:00:51.775Z,,,,,,,,,,,,,,,,54,,,,,,,,,,,,,,433.1670000596787,,response,,,,100,,,,,,,Space,keypress(Space),,,,,,,,-- --- ---- --- ------ ----- ------- ---- -- --- ------- --<br>------- ---------- ------ -- ----- -- ----- -- ---- ------<br>--- ----- --- --- ------ -------- ----- --- ------ ----- --<br>----- ----- ---------- --- --- ------ ------ ---- -- ------<br>------- --- ------ state --- ---- ------- -- ---- --- --<br>------- ------,276898.1050000293,276894.4550000597,276444.622,276455.46500000637,276461.288,276911.27,,46,state
screen,html.Screen,1_1_1_1_47,2021-04-23T14:00:52.219Z,,,,,,,,,,,,,,,,54,,,,,,,,,,,,,,426.95999999390915,,response,,,,100,,,,,,,Space,keypress(Space),,,,,,,,-- --- ---- --- ------ ----- ------- ---- -- --- ------- --<br>------- ---------- ------ -- ----- -- ----- -- ---- ------<br>--- ----- --- --- ------ -------- ----- --- ------ ----- --<br>----- ----- ---------- --- --- ------ ------ ---- -- ------<br>------- --- ------ ----- was ---- ------- -- ---- --- --<br>------- ------,277341.68499999214,277338.2299999939,276894.604,276898.21999997366,276911.27,277344.586,,47,was
screen,html.Screen,1_1_1_1_48,2021-04-23T14:00:52.702Z,,,,,,,,,,,,,,,,54,,,,,,,,,,,,,,476.7740000599297,,response,,,,100,,,,,,,Space,keypress(Space),,,,,,,,-- --- ---- --- ------ ----- ------- ---- -- --- ------- --<br>------- ---------- ------ -- ----- -- ----- -- ---- ------<br>--- ----- --- --- ------ -------- ----- --- ------ ----- --<br>----- ----- ---------- --- --- ------ ------ ---- -- ------<br>------- --- ------ ----- --- left ------- -- ---- --- --<br>------- ------,277825.0400000252,277821.36000005994,277327.92,277341.7950000148,277344.586,277827.9,,48,left
screen,html.Screen,1_1_1_1_49,2021-04-23T14:00:53.391Z,,,,,,,,,,,,,,,,54,,,,,,,,,,,,,,682.4700000326848,,response,,,,100,,,,,,,Space,keypress(Space),,,,,,,,-- --- ---- --- ------ ----- ------- ---- -- --- ------- --<br>------- ---------- ------ -- ----- -- ----- -- ---- ------<br>--- ----- --- --- ------ -------- ----- --- ------ ----- --<br>----- ----- ---------- --- --- ------ ------ ---- -- ------<br>------- --- ------ ----- --- ---- without -- ---- --- --<br>------- ------,278514.0100000426,278510.3700000327,277811.234,277825.1549999695,277827.9,278527.872,,49,without
screen,html.Screen,1_1_1_1_50,2021-04-23T14:00:53.946Z,,,,,,,,,,,,,,,,54,,,,,,,,,,,,,,536.3180000628345,,response,,,,100,,,,,,,Space,keypress(Space),,,,,,,,-- --- ---- --- ------ ----- ------- ---- -- --- ------- --<br>------- ---------- ------ -- ----- -- ----- -- ---- ------<br>--- ----- --- --- ------ -------- ----- --- ------ ----- --<br>----- ----- ---------- --- --- ------ ------ ---- -- ------<br>------- --- ------ ----- --- ---- ------- an ---- --- --<br>------- ------,279068.22500005364,279064.1900000628,278511.206,278514.1200000653,278527.872,279077.85,,50,an
screen,html.Screen,1_1_1_1_51,2021-04-23T14:00:54.481Z,,,,,,,,,,,,,,,,54,,,,,,,,,,,,,,522.5149999620626,,response,,,,100,,,,,,,Space,keypress(Space),,,,,,,,-- --- ---- --- ------ ----- ------- ---- -- --- ------- --<br>------- ---------- ------ -- ----- -- ----- -- ---- ------<br>--- ----- --- --- ------ -------- ----- --- ------ ----- --<br>----- ----- ---------- --- --- ------ ------ ---- -- ------<br>------- --- ------ ----- --- ---- ------- -- easy --- --<br>------- ------,279603.4800000489,279600.36499996204,279061.184,279068.339999998,279077.85,279611.162,,51,easy
screen,html.Screen,1_1_1_1_52,2021-04-23T14:00:54.884Z,,,,,,,,,,,,,,,,54,,,,,,,,,,,,,,392.14800005825236,,response,,,,100,,,,,,,Space,keypress(Space),,,,,,,,-- --- ---- --- ------ ----- ------- ---- -- --- ------- --<br>------- ---------- ------ -- ----- -- ----- -- ---- ------<br>--- ----- --- --- ------ -------- ----- --- ------ ----- --<br>----- ----- ---------- --- --- ------ ------ ---- -- ------<br>------- --- ------ ----- --- ---- ------- -- ---- way --<br>------- ------,280006.9500000682,280003.31000005826,279594.496,279603.59000007156,279611.162,280011.146,,52,way
screen,html.Screen,1_1_1_1_53,2021-04-23T14:00:55.319Z,,,,,,,,,,,,,,,,54,,,,,,,,,,,,,,427.12899996404303,,response,,,,100,,,,,,,Space,keypress(Space),,,,,,,,-- --- ---- --- ------ ----- ------- ---- -- --- ------- --<br>------- ---------- ------ -- ----- -- ----- -- ---- ------<br>--- ----- --- --- ------ -------- ----- --- ------ ----- --<br>----- ----- ---------- --- --- ------ ------ ---- -- ------<br>------- --- ------ ----- --- ---- ------- -- ---- --- of<br>------- ------,280442.03999999445,280438.27499996405,279994.48,280007.0650000125,280011.146,280444.462,,53,of
screen,html.Screen,1_1_1_1_54,2021-04-23T14:00:55.660Z,,,,,,,,,,,,,,,,54,,,,,,,,,,,,,,334.80800005729543,,response,,,,100,,,,,,,Space,keypress(Space),,,,,,,,-- --- ---- --- ------ ----- ------- ---- -- --- ------- --<br>------- ---------- ------ -- ----- -- ----- -- ---- ------<br>--- ----- --- --- ------ -------- ----- --- ------ ----- --<br>----- ----- ---------- --- --- ------ ------ ---- -- ------<br>------- --- ------ ----- --- ---- ------- -- ---- --- --<br>raising ------,280782.78000000864,280779.2700000573,280427.796,280442.14499997906,280444.462,280794.448,,54,raising
screen,html.Screen,1_1_1_1_55,2021-04-23T14:00:56.062Z,,,,,,,,,,,,,,,,54,,,,,,,,,,,,,,386.82200005918276,,response,,,,100,,,,,,,Space,keypress(Space),,,,,,,,-- --- ---- --- ------ ----- ------- ---- -- --- ------- --<br>------- ---------- ------ -- ----- -- ----- -- ---- ------<br>--- ----- --- --- ------ -------- ----- --- ------ ----- --<br>----- ----- ---------- --- --- ------ ------ ---- -- ------<br>------- --- ------ ----- --- ---- ------- -- ---- --- --<br>------- money.,281184.8400000017,281181.27000005916,280777.782,280782.8950000694,280794.448,281198.674,,55,money.
Item 100,flow.Loop,1_1_1_1,2021-04-23T14:00:56.063Z,,,,,,,,,,,,,,,,,,,,,,,,,,,,,,33942.13400005916,,completion,,,,,D,,,,,,,,,,,silence,,,,,281185.53999997675,281181.27000005916,247222.47,247224.12999998778,247239.136,281198.674,,,
Question 1,html.Screen,1_1_1_2,2021-04-23T14:00:58.531Z,,,,,,,,,,,,,,,,,,,,,,,,,,,true,TRUE,,2452.8159999601776,,response,,,,100,D,,,,,,TRUE,click #choice-1,,,,silence,,,,,283653.93999998923,283651.4899999602,281182.008,281185.64999999944,281198.674,283665.242,,,
Question 2,html.Screen,1_1_1_3,2021-04-23T14:01:02.021Z,,,,,,,,,,,,,,,,,,,,,,,,,,,true,FALSE,,3475.6280000028783,,response,,,,100,D,,,,,,FALSE,click #choice-2,,,,silence,,,,,287143.2799999602,287140.8700000029,283648.576,283654.05999997165,283665.242,287148.436,,,
Item 100,flow.Sequence,1_1_1,2021-04-23T14:01:02.021Z,,,,,,,,,,,,,,,,,,,,,,,,,,,,,,49905.938000002905,,completion,,,,,,,,,,,,,,,,,,,,,287143.4649999719,287140.8700000029,237218.266,237232.48000000603,237234.932,287148.436,,,
End of Practice,html.Page,1_1_2,2021-04-23T14:01:09.392Z,,,,,,,,,,,,,,,,,,,,,,,,,,,,,,7366.289000015473,,form submission,,,,,,,,,,,,,,,,,,,,,294514.92500002496,294514.72500001546,287131.77,287143.5549999587,287148.436,294527.223,,,
Practice,flow.Sequence,1_1,2021-04-23T14:01:09.392Z,,,,,,,,,,,,,,,,,,,,,,,,,,,,,,107229.78700001547,,completion,,,,,,,,,,,,,,,,,,,,,294515.1049999986,294514.72500001546,187268.272,187286.71500005294,187284.938,294527.223,,,
Trap_instruction,html.Page,1_2_0,2021-04-23T14:01:16.138Z,,,,,,,,,,,,,,,,,,,,,,,,,,,,,,6733.676999993855,,form submission,,,,,,,,,,,,,,,,,,,,,301261.10000000335,301260.89999999385,294510.557,294515.22000005934,294527.223,301276.953,,,
trap_trial,html.Screen,1_2_1,2021-04-23T14:01:19.919Z,,,,,,,,,,,,,,,,,,,,,,,,,,,true,1,,3762.1320000549313,,response,,,,,,,,,,,1,click #choice-1,,,,,,,,,305041.35000007227,305039.0850000549,301260.287,301261.20499998797,301276.953,305043.469,,,
end of trap trial,html.Page,1_2_2,2021-04-23T14:01:22.132Z,,,,,,,,,,,,,,,,,,,,,,,,,,,,,,2210.730999966676,,form submission,,,,,,,,,,,,,,,,,,,,,307254.3650000589,307254.19999996666,305026.803,305041.4700000547,305043.469,307255.169,,,
Trap 1,flow.Sequence,1_2,2021-04-23T14:01:22.132Z,,,,,,,,,,,,,,,,,,,,,,,,,,,,,,12726.97699996666,,completion,,,,,,,,,,,,,,,,,,,,,307254.5000000391,307254.19999996666,294510.557,294515.1799999876,294527.223,307255.169,,,
Standby,html.Page,1_3_0,2021-04-23T14:01:30.116Z,,,,,,,,,,,,,,,,,,,,,,,,,,,,,,7999.679999999993,,timeout,,,,,,,,,,,,,,,,,,,,,315238.9050000347,315238.183,307238.503,307254.5900000259,307255.169,315254.849,,,
Holding screen,html.Screen,1_3_1_0_0,2021-04-23T14:01:37.124Z,,,,,,,,,,,,,,,,,,,,,,,,,,,,,,7007.195999999996,,timeout,,,,,,,,,,,,,,,,,,,,,322247.0850000391,322245.379,315238.183,315239.0750000486,315254.849,322262.045,,,
screen,html.Screen,1_3_1_0_1_0,2021-04-23T14:01:40.612Z,,,,,,,,,,,,,,,,48,,,,,,,,,,,,,,3467.305000037828,,response,,,,10,D,,,,,,Space,keypress(Space),,,,silence,,,,As -- --- ------ ------- --------- ----------- --------<br>--------- -------- --- ------- -- ------- ---- -- ------<br>-- --- -------- -------- ---------- ---- ---- ---- ------<br>-- --------- -- ---- -- --- -- --- ------- -- - -----<br>---------- -- -- -- ---- ----- -- ------ -- --- ------<br>-------,325734.1950000264,325729.3500000378,322245.379,322247.25999997463,322262.045,325745.239,,0,As
screen,html.Screen,1_3_1_0_1_1,2021-04-23T14:01:40.996Z,,,,,,,,,,,,,,,,48,,,,,,,,,,,,,,369.8710000133724,,response,,,,10,D,,,,,,Space,keypress(Space),,,,silence,,,,-- in --- ------ ------- --------- ----------- --------<br>--------- -------- --- ------- -- ------- ---- -- ------<br>-- --- -------- -------- ---------- ---- ---- ---- ------<br>-- --------- -- ---- -- --- -- --- ------- -- - -----<br>---------- -- -- -- ---- ----- -- ------ -- --- ------<br>-------,326118.610000005,326115.1100000134,325728.573,325734.32000004686,325745.239,326128.557,,1,in
screen,html.Screen,1_3_1_0_1_2,2021-04-23T14:01:41.373Z,,,,,,,,,,,,,,,,48,,,,,,,,,,,,,,363.4630000051693,,response,,,,10,D,,,,,,Space,keypress(Space),,,,silence,,,,-- -- the ------ ------- --------- ----------- --------<br>--------- -------- --- ------- -- ------- ---- -- ------<br>-- --- -------- -------- ---------- ---- ---- ---- ------<br>-- --------- -- ---- -- --- -- --- ------- -- - -----<br>---------- -- -- -- ---- ----- -- ------ -- --- ------<br>-------,326495.15500001144,326492.02000000514,326111.891,326118.72500006575,326128.557,326499.212,,2,the
screen,html.Screen,1_3_1_0_1_3,2021-04-23T14:01:41.716Z,,,,,,,,,,,,,,,,48,,,,,,,,,,,,,,335.91299998323666,,response,,,,10,D,,,,,,Space,keypress(Space),,,,silence,,,,-- -- --- United ------- --------- ----------- --------<br>--------- -------- --- ------- -- ------- ---- -- ------<br>-- --- -------- -------- ---------- ---- ---- ---- ------<br>-- --------- -- ---- -- --- -- --- ------- -- - -----<br>---------- -- -- -- ---- ----- -- ------ -- --- ------<br>-------,326838.6450000107,326835.12499998324,326482.546,326495.2650000341,326499.212,326849.198,,3,United
screen,html.Screen,1_3_1_0_1_4,2021-04-23T14:01:42.098Z,,,,,,,,,,,,,,,,48,,,,,,,,,,,,,,367.8819999730913,,response,,,,10,D,,,,,,Space,keypress(Space),,,,silence,,,,"-- -- --- ------ States, --------- ----------- --------<br>--------- -------- --- ------- -- ------- ---- -- ------<br>-- --- -------- -------- ---------- ---- ---- ---- ------<br>-- --------- -- ---- -- --- -- --- ------- -- - -----<br>---------- -- -- -- ---- ----- -- ------ -- --- ------<br>-------",327220.62000003643,327217.07999997307,326832.532,326838.7600000715,326849.198,327232.516,,4,"States,"
screen,html.Screen,1_3_1_0_1_5,2021-04-23T14:01:42.827Z,,,,,,,,,,,,,,,,48,,,,,,,,,,,,,,713.5640000233543,,response,,,,10,D,,,,,,Space,keypress(Space),,,,silence,,,,-- -- --- ------ ------- Colombian ----------- --------<br>--------- -------- --- ------- -- ------- ---- -- ------<br>-- --- -------- -------- ---------- ---- ---- ---- ------<br>-- --------- -- ---- -- --- -- --- ------- -- - -----<br>---------- -- -- -- ---- ----- -- ------ -- --- ------<br>-------,327949.4249999989,327946.08000002336,327215.85,327220.7300000591,327232.516,327965.82,,5,Colombian
screen,html.Screen,1_3_1_0_1_6,2021-04-23T14:01:43.206Z,,,,,,,,,,,,,,,,48,,,,,,,,,,,,,,359.11000000248896,,response,,,,10,D,,,,,,Space,keypress(Space),,,,silence,,,,-- -- --- ------ ------- --------- legislation --------<br>--------- -------- --- ------- -- ------- ---- -- ------<br>-- --- -------- -------- ---------- ---- ---- ---- ------<br>-- --------- -- ---- -- --- -- --- ------- -- - -----<br>---------- -- -- -- ---- ----- -- ------ -- --- ------<br>-------,328328.40999995824,328324.9300000025,327949.154,327949.53500002157,327965.82,328332.472,,6,legislation
screen,html.Screen,1_3_1_0_1_7,2021-04-23T14:01:43.964Z,,,,,,,,,,,,,,,,48,,,,,,,,,,,,,,750.4280000376166,,response,,,,10,D,,,,,,Space,keypress(Space),,,,silence,,,,-- -- --- ------ ------- --------- ----------- requires<br>--------- -------- --- ------- -- ------- ---- -- ------<br>-- --- -------- -------- ---------- ---- ---- ---- ------<br>-- --------- -- ---- -- --- -- --- ------- -- - -----<br>---------- -- -- -- ---- ----- -- ------ -- --- ------<br>-------,329086.4500000607,329082.9000000376,328315.806,328328.525000019,328332.472,329099.108,,7,requires
screen,html.Screen,1_3_1_0_1_8,2021-04-23T14:01:44.715Z,,,,,,,,,,,,,,,,48,,,,,,,,,,,,,,734.9520000228658,,response,,,,10,D,,,,,,Space,keypress(Space),,,,silence,,,,-- -- --- ------ ------- --------- ----------- --------<br>travelers -------- --- ------- -- ------- ---- -- ------<br>-- --- -------- -------- ---------- ---- ---- ---- ------<br>-- --------- -- ---- -- --- -- --- ------- -- - -----<br>---------- -- -- -- ---- ----- -- ------ -- --- ------<br>-------,329837.5300000189,329834.0600000229,329082.442,329086.56500000507,329099.108,329849.078,,8,travelers
screen,html.Screen,1_3_1_0_1_9,2021-04-23T14:01:45.326Z,,,,,,,,,,,,,,,,48,,,,,,,,,,,,,,595.8669999956619,,response,,,,10,D,,,,,,Space,keypress(Space),,,,silence,,,,-- -- --- ------ ------- --------- ----------- --------<br>--------- entering --- ------- -- ------- ---- -- ------<br>-- --- -------- -------- ---------- ---- ---- ---- ------<br>-- --------- -- ---- -- --- -- --- ------- -- - -----<br>---------- -- -- -- ---- ----- -- ------ -- --- ------<br>-------,330448.44499998726,330444.94499999564,329832.412,329837.6400000416,329849.078,330449.054,,9,entering
screen,html.Screen,1_3_1_0_1_10,2021-04-23T14:01:45.733Z,,,,,,,,,,,,,,,,48,,,,,,,,,,,,,,402.84099997067824,,response,,,,10,D,,,,,,Space,keypress(Space),,,,silence,,,,-- -- --- ------ ------- --------- ----------- --------<br>--------- -------- the ------- -- ------- ---- -- ------<br>-- --- -------- -------- ---------- ---- ---- ---- ------<br>-- --------- -- ---- -- --- -- --- ------- -- - -----<br>---------- -- -- -- ---- ----- -- ------ -- --- ------<br>-------,330855.4149999982,330851.8949999707,330432.388,330448.55500000995,330449.054,330865.704,,10,the
screen,html.Screen,1_3_1_0_1_11,2021-04-23T14:01:46.633Z,,,,,,,,,,,,,,,,48,,,,,,,,,,,,,,886.2260000276146,,response,,,,10,D,,,,,,Space,keypress(Space),,,,silence,,,,-- -- --- ------ ------- --------- ----------- --------<br>--------- -------- --- country -- ------- ---- -- ------<br>-- --- -------- -------- ---------- ---- ---- ---- ------<br>-- --------- -- ---- -- --- -- --- ------- -- - -----<br>---------- -- -- -- ---- ----- -- ------ -- --- ------<br>-------,331755.64500002656,331751.93000002764,330849.038,330855.52500002086,330865.704,331765.668,,11,country
screen,html.Screen,1_3_1_0_1_12,2021-04-23T14:01:47.009Z,,,,,,,,,,,,,,,,48,,,,,,,,,,,,,,363.1920000552782,,response,,,,10,D,,,,,,Space,keypress(Space),,,,silence,,,,-- -- --- ------ ------- --------- ----------- --------<br>--------- -------- --- ------- to ------- ---- -- ------<br>-- --- -------- -------- ---------- ---- ---- ---- ------<br>-- --------- -- ---- -- --- -- --- ------- -- - -----<br>---------- -- -- -- ---- ----- -- ------ -- --- ------<br>-------,332132.0250000572,332128.8600000553,331749.002,331755.7599999709,331765.668,332148.986,,12,to
screen,html.Screen,1_3_1_0_1_13,2021-04-23T14:01:47.615Z,,,,,,,,,,,,,,,,48,,,,,,,,,,,,,,586.0790000153356,,response,,,,10,D,,,,,,Space,keypress(Space),,,,silence,,,,-- -- --- ------ ------- --------- ----------- --------<br>--------- -------- --- ------- -- declare ---- -- ------<br>-- --- -------- -------- ---------- ---- ---- ---- ------<br>-- --------- -- ---- -- --- -- --- ------- -- - -----<br>---------- -- -- -- ---- ----- -- ------ -- --- ------<br>-------,332738.09999995865,332735.0650000153,332132.32,332132.1300000418,332148.986,332748.962,,13,declare
screen,html.Screen,1_3_1_0_1_14,2021-04-23T14:01:47.977Z,,,,,,,,,,,,,,,,48,,,,,,,,,,,,,,347.7630000685458,,response,,,,10,D,,,,,,Space,keypress(Space),,,,silence,,,,-- -- --- ------ ------- --------- ----------- --------<br>--------- -------- --- ------- -- ------- cash -- ------<br>-- --- -------- -------- ---------- ---- ---- ---- ------<br>-- --------- -- ---- -- --- -- --- ------- -- - -----<br>---------- -- -- -- ---- ----- -- ------ -- --- ------<br>-------,333099.81000004336,333096.72500006855,332732.296,332738.20999998134,332748.962,333115.614,,14,cash
screen,html.Screen,1_3_1_0_1_15,2021-04-23T14:01:48.324Z,,,,,,,,,,,,,,,,48,,,,,,,,,,,,,,327.20099995849887,,response,,,,10,D,,,,,,Space,keypress(Space),,,,silence,,,,-- -- --- ------ ------- --------- ----------- --------<br>--------- -------- --- ------- -- ------- ---- in ------<br>-- --- -------- -------- ---------- ---- ---- ---- ------<br>-- --------- -- ---- -- --- -- --- ------- -- - -----<br>---------- -- -- -- ---- ----- -- ------ -- --- ------<br>-------,333446.52500003576,333442.8149999585,333098.948,333099.9249999877,333115.614,333448.934,,15,in
screen,html.Screen,1_3_1_0_1_16,2021-04-23T14:01:49.171Z,,,,,,,,,,,,,,,,48,,,,,,,,,,,,,,840.935999978683,,response,,,,10,D,,,,,,Space,keypress(Space),,,,silence,,,,-- -- --- ------ ------- --------- ----------- --------<br>--------- -------- --- ------- -- ------- ---- -- excess<br>-- --- -------- -------- ---------- ---- ---- ---- ------<br>-- --------- -- ---- -- --- -- --- ------- -- - -----<br>---------- -- -- -- ---- ----- -- ------ -- --- ------<br>-------,334293.3750000084,334289.8699999787,333432.268,333446.63500005845,333448.934,334298.9,,16,excess
screen,html.Screen,1_3_1_0_1_17,2021-04-23T14:01:49.599Z,,,,,,,,,,,,,,,,48,,,,,,,,,,,,,,419.9300000270596,,response,,,,10,D,,,,,,Space,keypress(Space),,,,silence,,,,-- -- --- ------ ------- --------- ----------- --------<br>--------- -------- --- ------- -- ------- ---- -- ------<br>of --- -------- -------- ---------- ---- ---- ---- ------<br>-- --------- -- ---- -- --- -- --- ------- -- - -----<br>---------- -- -- -- ---- ----- -- ------ -- --- ------<br>-------,334721.9650000334,334718.8300000271,334282.234,334293.48500003107,334298.9,334732.216,,17,of
screen,html.Screen,1_3_1_0_1_18,2021-04-23T14:01:49.985Z,,,,,,,,,,,,,,,,48,,,,,,,,,,,,,,372.553999976255,,response,,,,10,D,,,,,,Space,keypress(Space),,,,silence,,,,-- -- --- ------ ------- --------- ----------- --------<br>--------- -------- --- ------- -- ------- ---- -- ------<br>-- ten -------- -------- ---------- ---- ---- ---- ------<br>-- --------- -- ---- -- --- -- --- ------- -- - -----<br>---------- -- -- -- ---- ----- -- ------ -- --- ------<br>-------,335107.70499997307,335104.76999997627,334715.55,334722.07500005607,334732.216,335115.534,,18,ten
screen,html.Screen,1_3_1_0_1_19,2021-04-23T14:01:50.453Z,,,,,,,,,,,,,,,,48,,,,,,,,,,,,,,457.20100005250424,,response,,,,10,D,,,,,,Space,keypress(Space),,,,silence,,,,-- -- --- ------ ------- --------- ----------- --------<br>--------- -------- --- ------- -- ------- ---- -- ------<br>-- --- thousand -------- ---------- ---- ---- ---- ------<br>-- --------- -- ---- -- --- -- --- ------- -- - -----<br>---------- -- -- -- ---- ----- -- ------ -- --- ------<br>-------,335575.67499997094,335572.7350000525,335098.868,335107.81499999575,335115.534,335582.182,,19,thousand
screen,html.Screen,1_3_1_0_1_20,2021-04-23T14:01:52.821Z,,,,,,,,,,,,,,,,48,,,,,,,,,,,,,,2356.5930000460357,,response,,,,10,D,,,,,,Space,keypress(Space),,,,silence,,,,-- -- --- ------ ------- --------- ----------- --------<br>--------- -------- --- ------- -- ------- ---- -- ------<br>-- --- -------- dollars. ---------- ---- ---- ---- ------<br>-- --------- -- ---- -- --- -- --- ------- -- - -----<br>---------- -- -- -- ---- ----- -- ------ -- --- ------<br>-------,337943.6350000324,337938.775000046,335565.516,335575.780000072,335582.182,337948.754,,20,dollars.
screen,html.Screen,1_3_1_0_1_21,2021-04-23T14:01:53.614Z,,,,,,,,,,,,,,,,48,,,,,,,,,,,,,,784.7759999685804,,response,,,,10,D,,,,,,Space,keypress(Space),,,,silence,,,,-- -- --- ------ ------- --------- ----------- --------<br>--------- -------- --- ------- -- ------- ---- -- ------<br>-- --- -------- -------- Concealing ---- ---- ---- ------<br>-- --------- -- ---- -- --- -- --- ------- -- - -----<br>---------- -- -- -- ---- ----- -- ------ -- --- ------<br>-------,338736.6349999793,338733.5299999686,337932.088,337943.740000017,337948.754,338748.722,,21,Concealing
screen,html.Screen,1_3_1_0_1_22,2021-04-23T14:01:54.080Z,,,,,,,,,,,,,,,,48,,,,,,,,,,,,,,450.0080000619055,,response,,,,10,D,,,,,,Space,keypress(Space),,,,silence,,,,-- -- --- ------ ------- --------- ----------- --------<br>--------- -------- --- ------- -- ------- ---- -- ------<br>-- --- -------- -------- ---------- more ---- ---- ------<br>-- --------- -- ---- -- --- -- --- ------- -- - -----<br>---------- -- -- -- ---- ----- -- ------ -- --- ------<br>-------,339202.29000004474,339198.7300000619,338732.056,338736.745000002,338748.722,339205.81,,22,more
screen,html.Screen,1_3_1_0_1_23,2021-04-23T14:01:54.459Z,,,,,,,,,,,,,,,,48,,,,,,,,,,,,,,372.8250000416883,,response,,,,10,D,,,,,,Space,keypress(Space),,,,silence,,,,-- -- --- ------ ------- --------- ----------- --------<br>--------- -------- --- ------- -- ------- ---- -- ------<br>-- --- -------- -------- ---------- ---- than ---- ------<br>-- --------- -- ---- -- --- -- --- ------- -- - -----<br>---------- -- -- -- ---- ----- -- ------ -- --- ------<br>-------,339581.7650000099,339578.6350000417,339189.144,339202.4000000674,339205.81,339589.128,,23,than
screen,html.Screen,1_3_1_0_1_24,2021-04-23T14:01:55.228Z,,,,,,,,,,,,,,,,48,,,,,,,,,,,,,,758.2869999674149,,response,,,,10,D,,,,,,Space,keypress(Space),,,,silence,,,,-- -- --- ------ ------- --------- ----------- --------<br>--------- -------- --- ------- -- ------- ---- -- ------<br>-- --- -------- -------- ---------- ---- ---- that ------<br>-- --------- -- ---- -- --- -- --- ------- -- - -----<br>---------- -- -- -- ---- ----- -- ------ -- --- ------<br>-------,340350.9750000667,340347.41499996744,339572.462,339581.8750000326,339589.128,340355.764,,24,that
screen,html.Screen,1_3_1_0_1_25,2021-04-23T14:01:55.756Z,,,,,,,,,,,,,,,,48,,,,,,,,,,,,,,519.6759999743081,,response,,,,10,D,,,,,,Space,keypress(Space),,,,silence,,,,-- -- --- ------ ------- --------- ----------- --------<br>--------- -------- --- ------- -- ------- ---- -- ------<br>-- --- -------- -------- ---------- ---- ---- ---- amount<br>-- --------- -- ---- -- --- -- --- ------- -- - -----<br>---------- -- -- -- ---- ----- -- ------ -- --- ------<br>-------,340878.87999997474,340875.43999997433,340339.098,340351.090000011,340355.764,340889.076,,25,amount
screen,html.Screen,1_3_1_0_1_26,2021-04-23T14:01:56.167Z,,,,,,,,,,,,,,,,48,,,,,,,,,,,,,,397.59899998118635,,response,,,,10,D,,,,,,Space,keypress(Space),,,,silence,,,,-- -- --- ------ ------- --------- ----------- --------<br>--------- -------- --- ------- -- ------- ---- -- ------<br>-- --- -------- -------- ---------- ---- ---- ---- ------<br>to --------- -- ---- -- --- -- --- ------- -- - -----<br>---------- -- -- -- ---- ----- -- ------ -- --- ------<br>-------,341289.91000005044,341286.6749999812,340872.41,340878.9950000355,340889.076,341305.726,,26,to
screen,html.Screen,1_3_1_0_1_27,2021-04-23T14:01:56.886Z,,,,,,,,,,,,,,,,48,,,,,,,,,,,,,,699.6539999877568,,response,,,,10,D,,,,,,Space,keypress(Space),,,,silence,,,,-- -- --- ------ ------- --------- ----------- --------<br>--------- -------- --- ------- -- ------- ---- -- ------<br>-- --- -------- -------- ---------- ---- ---- ---- ------<br>-- transport -- ---- -- --- -- --- ------- -- - -----<br>---------- -- -- -- ---- ----- -- ------ -- --- ------<br>-------,342008.7249999633,342005.3799999878,341289.06,341290.0249999948,341305.726,342022.364,,27,transport
screen,html.Screen,1_3_1_0_1_28,2021-04-23T14:01:57.663Z,,,,,,,,,,,,,,,,48,,,,,,,,,,,,,,759.2410000255913,,response,,,,10,D,,,,,,Space,keypress(Space),,,,silence,,,,-- -- --- ------ ------- --------- ----------- --------<br>--------- -------- --- ------- -- ------- ---- -- ------<br>-- --- -------- -------- ---------- ---- ---- ---- ------<br>-- --------- it ---- -- --- -- --- ------- -- - -----<br>---------- -- -- -- ---- ----- -- ------ -- --- ------<br>-------,342785.2249999996,342781.6050000256,342005.698,342008.834999986,342022.364,342789,,28,it
screen,html.Screen,1_3_1_0_1_29,2021-04-23T14:01:58.075Z,,,,,,,,,,,,,,,,48,,,,,,,,,,,,,,405.3550000432879,,response,,,,10,D,,,,,,Space,keypress(Space),,,,silence,,,,-- -- --- ------ ------- --------- ----------- --------<br>--------- -------- --- ------- -- ------- ---- -- ------<br>-- --- -------- -------- ---------- ---- ---- ---- ------<br>-- --------- -- into -- --- -- --- ------- -- - -----<br>---------- -- -- -- ---- ----- -- ------ -- --- ------<br>-------,343197.84499995876,343194.3550000433,342772.334,342785.3350000223,342789,343205.65,,29,into
screen,html.Screen,1_3_1_0_1_30,2021-04-23T14:01:58.450Z,,,,,,,,,,,,,,,,48,,,,,,,,,,,,,,363.9050000527641,,response,,,,10,D,,,,,,Space,keypress(Space),,,,silence,,,,-- -- --- ------ ------- --------- ----------- --------<br>--------- -------- --- ------- -- ------- ---- -- ------<br>-- --- -------- -------- ---------- ---- ---- ---- ------<br>-- --------- -- ---- or --- -- --- ------- -- - -----<br>---------- -- -- -- ---- ----- -- ------ -- --- ------<br>-------,343573.09499999974,343569.5550000528,343188.984,343197.95499998145,343205.65,343588.968,,30,or
screen,html.Screen,1_3_1_0_1_31,2021-04-23T14:01:58.812Z,,,,,,,,,,,,,,,,48,,,,,,,,,,,,,,342.577000057674,,response,,,,10,D,,,,,,Space,keypress(Space),,,,silence,,,,-- -- --- ------ ------- --------- ----------- --------<br>--------- -------- --- ------- -- ------- ---- -- ------<br>-- --- -------- -------- ---------- ---- ---- ---- ------<br>-- --------- -- ---- -- out -- --- ------- -- - -----<br>---------- -- -- -- ---- ----- -- ------ -- --- ------<br>-------,343935.0850000046,343931.54500005767,343572.302,343573.2050000224,343588.968,343938.954,,31,out
screen,html.Screen,1_3_1_0_1_32,2021-04-23T14:01:59.134Z,,,,,,,,,,,,,,,,48,,,,,,,,,,,,,,314.56600002746563,,response,,,,10,D,,,,,,Space,keypress(Space),,,,silence,,,,-- -- --- ------ ------- --------- ----------- --------<br>--------- -------- --- ------- -- ------- ---- -- ------<br>-- --- -------- -------- ---------- ---- ---- ---- ------<br>-- --------- -- ---- -- --- of --- ------- -- - -----<br>---------- -- -- -- ---- ----- -- ------ -- --- ------<br>-------,344256.6250000382,344253.5200000275,343922.288,343935.1950000273,343938.954,344272.274,,32,of
screen,html.Screen,1_3_1_0_1_33,2021-04-23T14:01:59.454Z,,,,,,,,,,,,,,,,48,,,,,,,,,,,,,,301.1259999938775,,response,,,,10,D,,,,,,Space,keypress(Space),,,,silence,,,,-- -- --- ------ ------- --------- ----------- --------<br>--------- -------- --- ------- -- ------- ---- -- ------<br>-- --- -------- -------- ---------- ---- ---- ---- ------<br>-- --------- -- ---- -- --- -- the ------- -- - -----<br>---------- -- -- -- ---- ----- -- ------ -- --- ------<br>-------,344576.5700000338,344573.39999999385,344255.608,344256.7350000609,344272.274,344588.928,,33,the
screen,html.Screen,1_3_1_0_1_34,2021-04-23T14:02:00.126Z,,,,,,,,,,,,,,,,48,,,,,,,,,,,,,,655.6670000546728,,response,,,,10,D,,,,,,Space,keypress(Space),,,,silence,,,,-- -- --- ------ ------- --------- ----------- --------<br>--------- -------- --- ------- -- ------- ---- -- ------<br>-- --- -------- -------- ---------- ---- ---- ---- ------<br>-- --------- -- ---- -- --- -- --- country -- - -----<br>---------- -- -- -- ---- ----- -- ------ -- --- ------<br>-------,345248.2000000309,345244.5950000547,344572.262,344576.68499997817,344588.928,345255.568,,34,country
screen,html.Screen,1_3_1_0_1_35,2021-04-23T14:02:00.533Z,,,,,,,,,,,,,,,,48,,,,,,,,,,,,,,396.9220000076457,,response,,,,10,D,,,,,,Space,keypress(Space),,,,silence,,,,-- -- --- ------ ------- --------- ----------- --------<br>--------- -------- --- ------- -- ------- ---- -- ------<br>-- --- -------- -------- ---------- ---- ---- ---- ------<br>-- --------- -- ---- -- --- -- --- ------- is - -----<br>---------- -- -- -- ---- ----- -- ------ -- --- ------<br>-------,345655.9750000015,345652.4900000077,345238.902,345248.3100000536,345255.568,345672.218,,35,is
screen,html.Screen,1_3_1_0_1_36,2021-04-23T14:02:00.890Z,,,,,,,,,,,,,,,,48,,,,,,,,,,,,,,338.05700000782963,,response,,,,10,D,,,,,,Space,keypress(Space),,,,silence,,,,-- -- --- ------ ------- --------- ----------- --------<br>--------- -------- --- ------- -- ------- ---- -- ------<br>-- --- -------- -------- ---------- ---- ---- ---- ------<br>-- --------- -- ---- -- --- -- --- ------- -- a -----<br>---------- -- -- -- ---- ----- -- ------ -- --- ------<br>-------,346013.1100000581,346010.2750000078,345655.552,345656.0850000242,345672.218,346022.204,,36,a
screen,html.Screen,1_3_1_0_1_37,2021-04-23T14:02:03.111Z,,,,,,,,,,,,,,,,48,,,,,,,,,,,,,,2207.1209999638377,,response,,,,10,D,,,,,,Space,keypress(Space),,,,silence,,,,-- -- --- ------ ------- --------- ----------- --------<br>--------- -------- --- ------- -- ------- ---- -- ------<br>-- --- -------- -------- ---------- ---- ---- ---- ------<br>-- --------- -- ---- -- --- -- --- ------- -- - crime<br>---------- -- -- -- ---- ----- -- ------ -- --- ------<br>-------,348233.31000003964,348229.32499996386,346005.538,346013.21999996435,346022.204,348238.782,,37,crime
screen,html.Screen,1_3_1_0_1_38,2021-04-23T14:02:03.758Z,,,,,,,,,,,,,,,,48,,,,,,,,,,,,,,638.5979999616975,,response,,,,10,D,,,,,,Space,keypress(Space),,,,silence,,,,-- -- --- ------ ------- --------- ----------- --------<br>--------- -------- --- ------- -- ------- ---- -- ------<br>-- --- -------- -------- ---------- ---- ---- ---- ------<br>-- --------- -- ---- -- --- -- --- ------- -- - -----<br>punishable -- -- -- ---- ----- -- ------ -- --- ------<br>-------,348880.7950000046,348877.3799999617,348222.116,348233.43000002205,348238.782,348888.756,,38,punishable
screen,html.Screen,1_3_1_0_1_39,2021-04-23T14:02:04.092Z,,,,,,,,,,,,,,,,48,,,,,,,,,,,,,,322.5889999596984,,response,,,,10,D,,,,,,Space,keypress(Space),,,,silence,,,,-- -- --- ------ ------- --------- ----------- --------<br>--------- -------- --- ------- -- ------- ---- -- ------<br>-- --- -------- -------- ---------- ---- ---- ---- ------<br>-- --------- -- ---- -- --- -- --- ------- -- - -----<br>---------- by -- -- ---- ----- -- ------ -- --- ------<br>-------,349214.804999996,349211.3449999597,348872.09,348880.91000006534,348888.756,349229.137,,39,by
screen,html.Screen,1_3_1_0_1_40,2021-04-23T14:02:04.398Z,,,,,,,,,,,,,,,,48,,,,,,,,,,,,,,288.1430000291439,,response,,,,10,D,,,,,,Space,keypress(Space),,,,silence,,,,-- -- --- ------ ------- --------- ----------- --------<br>--------- -------- --- ------- -- ------- ---- -- ------<br>-- --- -------- -------- ---------- ---- ---- ---- ------<br>-- --------- -- ---- -- --- -- --- ------- -- - -----<br>---------- -- up -- ---- ----- -- ------ -- --- ------<br>-------,349520.91500000097,349517.28000002913,349212.471,349214.92000005674,349229.137,349529.125,,40,up
screen,html.Screen,1_3_1_0_1_41,2021-04-23T14:02:04.721Z,,,,,,,,,,,,,,,,48,,,,,,,,,,,,,,311.2400000691414,,response,,,,10,D,,,,,,Space,keypress(Space),,,,silence,,,,-- -- --- ------ ------- --------- ----------- --------<br>--------- -------- --- ------- -- ------- ---- -- ------<br>-- --- -------- -------- ---------- ---- ---- ---- ------<br>-- --------- -- ---- -- --- -- --- ------- -- - -----<br>---------- -- -- to ---- ----- -- ------ -- --- ------<br>-------,349843.9299999736,349840.36500006914,349512.459,349521.0300000617,349529.125,349845.779,,41,to
