sender,sender_type,sender_id,timestamp,meta,,Blues,Classical,Country,Dance,Electronic,Folk,Gospel,Hip-Hop,Jazz,Latin,Musical/Film,New-age,Pop,Provo_ID,R&B,Rap,Reggae,Religious,Rock,Soul,Swing,Traditional,age,artist_name,correct,correctResponse,distraction,duration,education,ended_on,familiarity,gender,headphone_check_performance,item,list,music_frequency,offensiveness,pleasantness,position_correct,preference,response,response_action,snippet_file,song_name,song_rating,sound,stimulus_1,stimulus_2,stimulus_3,text,time_commit,time_end,time_render,time_run,time_show,time_switch,url,word,word_ID
Introduction,html.Screen,0_0,2021-04-16T13:16:04.606Z,"{""labjs_version"":""20.2.2"",""labjs_build"":{""flavor"":""production"",""commit"":""a25486e0c714a0ae2ce03ff94b7bb6896854dcfa""},""location"":""https://run.pavlovia.org/mvasilev/music_a/"",""userAgent"":""Mozilla/5.0 (Macintosh; Intel Mac OS X 10_15_6) AppleWebKit/605.1.15 (KHTML, like Gecko) Version/14.0.3 Safari/605.1.15"",""platform"":""MacIntel"",""language"":""en-gb"",""locale"":""en-GB"",""timeZone"":""Europe/London"",""timezoneOffset"":-60,""screen_width"":1440,""screen_height"":900,""scroll_width"":1440,""scroll_height"":772,""window_innerWidth"":1440,""window_innerHeight"":820,""devicePixelRatio"":2}",,,,,,,,,,,,,,,,,,,,,,,,,,,,,5429,,response,,,,,,,,,,,continue,click button,,,,,,,,,10863,10775,5346,5322,5369,10886,{},,
Volume calibration,html.Screen,0_1,2021-04-16T13:16:15.607Z,,,,,,,,,,,,,,,,,,,,,,,,,,,,,,10991,,response,,,,,,,,,,,continue,click button,,,,,,,,,21865.000000000004,21861,10870,10864,10886,21888,,,
Task instructions,html.Screen,0_2,2021-04-16T13:16:24.086Z,,,,,,,,,,,,,,,,,,,,,,,,,,,,,,8469,,response,,,,,,,,,,,continue,click button,,,,,,,,,30343,30341,21872,21865.000000000004,21888,30366,,,
Sounds,html.Screen,0_3_0_0,2021-04-16T13:16:28.346Z,,,,,,,,,,,,,,,,,,,,,,,,,,,,,,4253,,timeout,,,,,,,,,1,,,,,,,,S,I,O,,34603,34602,30350,30344,30366,34619,,,
Judgement,html.Screen,0_3_0_1,2021-04-16T13:16:29.786Z,,,,,,,,,,,,,,,,,,,,,,,,,,,true,1,,1439.0000000000073,,response,,,,,,,,,1,,1,click #choice-1,,,,,S,I,O,,36043,36041.00000000001,34602,34603,34619,36071,,,
Trial,flow.Sequence,0_3_0,2021-04-16T13:16:29.786Z,,,,,,,,,,,,,,,,,,,,,,,,,,,,,,5675.000000000007,,completion,,,,,,,,,1,,,,,,,,S,I,O,,36043,36041.00000000001,30350,30344,30366,36071,,,
Sounds,html.Screen,0_3_1_0,2021-04-16T13:16:34.042Z,,,,,,,,,,,,,,,,,,,,,,,,,,,,,,4246,,timeout,,,,,,,,,3,,,,,,,,I,O,S,,40300.00000000001,40299,36054,36044.00000000001,36071,40317,,,
Judgement,html.Screen,0_3_1_1,2021-04-16T13:16:34.564Z,,,,,,,,,,,,,,,,,,,,,,,,,,,true,3,,520,,response,,,,,,,,,3,,3,click #choice-3,,,,,I,O,S,,40821,40819,40299,40300.00000000001,40317,40839,,,
Trial,flow.Sequence,0_3_1,2021-04-16T13:16:34.564Z,,,,,,,,,,,,,,,,,,,,,,,,,,,,,,4748,,completion,,,,,,,,,3,,,,,,,,I,O,S,,40821,40819,36054,36043,36071,40839,,,
Sounds,html.Screen,0_3_2_0,2021-04-16T13:16:38.813Z,,,,,,,,,,,,,,,,,,,,,,,,,,,,,,4248,,timeout,,,,,,,,,2,,,,,,,,O,S,I,,45070,45070,40822,40821,40839,45087,,,
Judgement,html.Screen,0_3_2_1,2021-04-16T13:16:39.260Z,,,,,,,,,,,,,,,,,,,,,,,,,,,true,2,,445,,response,,,,,,,,,2,,2,click #choice-2,,,,,O,S,I,,45517,45515,45070,45070,45087,45541,,,
Trial,flow.Sequence,0_3_2,2021-04-16T13:16:39.260Z,,,,,,,,,,,,,,,,,,,,,,,,,,,,,,4676,,completion,,,,,,,,,2,,,,,,,,O,S,I,,45518,45515,40822,40821,40839,45541,,,
Sounds,html.Screen,0_3_3_0,2021-04-16T13:16:43.511Z,,,,,,,,,,,,,,,,,,,,,,,,,,,,,,4243,,timeout,,,,,,,,,3,,,,,,,,O,I,S,,49768,49768,45524,45518,45541,49784,,,
Judgement,html.Screen,0_3_3_1,2021-04-16T13:16:44.045Z,,,,,,,,,,,,,,,,,,,,,,,,,,,true,3,,533,,response,,,,,,,,,3,,3,click #choice-3,,,,,O,I,S,,50302,50301,49768,49768,49784,50323,,,
Trial,flow.Sequence,0_3_3,2021-04-16T13:16:44.045Z,,,,,,,,,,,,,,,,,,,,,,,,,,,,,,4760,,completion,,,,,,,,,3,,,,,,,,O,I,S,,50303.00000000001,50301,45524,45518,45541,50323,,,
Sounds,html.Screen,0_3_4_0,2021-04-16T13:16:48.293Z,,,,,,,,,,,,,,,,,,,,,,,,,,,,,,4243,,timeout,,,,,,,,,2,,,,,,,,I,S,O,,54550.00000000001,54549,50307,50303.00000000001,50323,54566,,,
Judgement,html.Screen,0_3_4_1,2021-04-16T13:16:48.758Z,,,,,,,,,,,,,,,,,,,,,,,,,,,true,2,,464,,response,,,,,,,,,2,,2,click #choice-2,,,,,I,S,O,,55015,55013,54549,54550.00000000001,54566,55038,,,
Trial,flow.Sequence,0_3_4,2021-04-16T13:16:48.758Z,,,,,,,,,,,,,,,,,,,,,,,,,,,,,,4690,,completion,,,,,,,,,2,,,,,,,,I,S,O,,55015,55013,50307,50303.00000000001,50323,55038,,,
Sounds,html.Screen,0_3_5_0,2021-04-16T13:16:53.019Z,,,,,,,,,,,,,,,,,,,,,,,,,,,,,,4255,,timeout,,,,,,,,,1,,,,,,,,S,O,I,,59276,59275,55021,55015,55038,59293,,,
Judgement,html.Screen,0_3_5_1,2021-04-16T13:16:53.687Z,,,,,,,,,,,,,,,,,,,,,,,,,,,true,1,,668,,response,,,,,,,,,1,,1,click #choice-1,,,,,S,O,I,,59944,59943,59275,59276,59293,59966,,,
Trial,flow.Sequence,0_3_5,2021-04-16T13:16:53.687Z,,,,,,,,,,,,,,,,,,,,,,,,,,,,,,4905,,completion,,,,,,,,,1,,,,,,,,S,O,I,,59944,59943,55021,55015,55038,59966,,,
Task,flow.Loop,0_3,2021-04-16T13:16:53.689Z,,,,,,,,,,,,,,,,,,,,,,,,,,,,,,29577,,completion,,,1,,,,,,,,,,,,,,,,,,59946,59943,30350,30344,30366,59966,,,
Trap,html.Screen,0_4,2021-04-16T13:16:53.690Z,,,,,,,,,,,,,,,,,,,,,,,,,,,,,,NaN,,skipped,,,,,,,,,,,,,,,,,,,,,59947,59943,,59947,,59966,,,
Thanks,html.Screen,0_5,2021-04-16T13:16:58.087Z,,,,,,,,,,,,,,,,,,,,,,,,,,,,,,4393,,response,,,,,,,,,,,continue,click button,,,,,,,,,64344.00000000001,64342,59949,59947,59966,68630,,,
Headphone screening,flow.Sequence,0,2021-04-16T13:16:58.087Z,,,,,,,,,,,,,,,,,,,,,,,,,,,,,,58973,,completion,,,,,,,,,,,,,,,,,,,,,64344.00000000001,64342,5346,5321,5369,68630,,,
Instructions,html.Page,1_0,2021-04-16T13:17:25.128Z,,,,,,,,,,,,,,,,,,,,,,,,,,,,,,22754,,form submission,,,,,,,,,,,,,,,,,,,,,91385,91384,68619,68603,68630,91405,,,
Holding screen,html.Screen,1_1_0_0,2021-04-16T13:17:35.136Z,,,,,,,,,,,,,,,,,,,,,,,,,,,,,,10013,,timeout,,,,,,,,,,,,,,,,,,,,,101393,101392,91390,91385,91405,101418,,,
screen,html.Screen,1_1_0_1_0,2021-04-16T13:17:36.988Z,,,,,,,,,,,,,,,,53,,,,,,,,,,,,,,1850,,response,,,,99,,,,,,,Space,keypress(Space),,,,,,,,When -- ----- -- ------ - ------- --- ----------<br>------------- ------ ------ ---- ---- ------- ----- -- ----<br>-------- ------- -- ---------- --- - --- ----- ----- ----<br>---- --- --- ----- --- ---- ---- ------- ----- ---- -------<br>--- --- -- ----- -- --- ---- -- --- ---- -- ------ ------<br>--- ----- -- ----,103245,103242,101392,101393,101418,103280,,0,When
screen,html.Screen,1_1_0_1_1,2021-04-16T13:17:37.607Z,,,,,,,,,,,,,,,,53,,,,,,,,,,,,,,597,,response,,,,99,,,,,,,Space,keypress(Space),,,,,,,,---- it ----- -- ------ - ------- --- ----------<br>------------- ------ ------ ---- ---- ------- ----- -- ----<br>-------- ------- -- ---------- --- - --- ----- ----- ----<br>---- --- --- ----- --- ---- ---- ------- ----- ---- -------<br>--- --- -- ----- -- --- ---- -- --- ---- -- ------ ------<br>--- ----- -- ----,103864,103860,103263,103245,103280,103891,,1,it
screen,html.Screen,1_1_0_1_2,2021-04-16T13:17:38.160Z,,,,,,,,,,,,,,,,53,,,,,,,,,,,,,,538,,response,,,,99,,,,,,,Space,keypress(Space),,,,,,,,---- -- comes -- ------ - ------- --- ----------<br>------------- ------ ------ ---- ---- ------- ----- -- ----<br>-------- ------- -- ---------- --- - --- ----- ----- ----<br>---- --- --- ----- --- ---- ---- ------- ----- ---- -------<br>--- --- -- ----- -- --- ---- -- --- ---- -- ------ ------<br>--- ----- -- ----,104417,104413,103875,103864,103891,104445,,2,comes
screen,html.Screen,1_1_0_1_3,2021-04-16T13:17:38.810Z,,,,,,,,,,,,,,,,53,,,,,,,,,,,,,,637,,response,,,,99,,,,,,,Space,keypress(Space),,,,,,,,---- -- ----- to ------ - ------- --- ----------<br>------------- ------ ------ ---- ---- ------- ----- -- ----<br>-------- ------- -- ---------- --- - --- ----- ----- ----<br>---- --- --- ----- --- ---- ---- ------- ----- ---- -------<br>--- --- -- ----- -- --- ---- -- --- ---- -- ------ ------<br>--- ----- -- ----,105067,105064,104427,104417,104445,105098,,3,to
screen,html.Screen,1_1_0_1_4,2021-04-16T13:17:39.253Z,,,,,,,,,,,,,,,,53,,,,,,,,,,,,,,427,,response,,,,99,,,,,,,Space,keypress(Space),,,,,,,,---- -- ----- -- having - ------- --- ----------<br>------------- ------ ------ ---- ---- ------- ----- -- ----<br>-------- ------- -- ---------- --- - --- ----- ----- ----<br>---- --- --- ----- --- ---- ---- ------- ----- ---- -------<br>--- --- -- ----- -- --- ---- -- --- ---- -- ------ ------<br>--- ----- -- ----,105510,105507,105080,105067,105098,105551,,4,having
screen,html.Screen,1_1_0_1_5,2021-04-16T13:17:39.628Z,,,,,,,,,,,,,,,,53,,,,,,,,,,,,,,348,,response,,,,99,,,,,,,Space,keypress(Space),,,,,,,,---- -- ----- -- ------ a ------- --- ----------<br>------------- ------ ------ ---- ---- ------- ----- -- ----<br>-------- ------- -- ---------- --- - --- ----- ----- ----<br>---- --- --- ----- --- ---- ---- ------- ----- ---- -------<br>--- --- -- ----- -- --- ---- -- --- ---- -- ------ ------<br>--- ----- -- ----,105885,105882,105534,105510,105551,105904,,5,a
screen,html.Screen,1_1_0_1_6,2021-04-16T13:17:40.047Z,,,,,,,,,,,,,,,,53,,,,,,,,,,,,,,414,,response,,,,99,,,,,,,Space,keypress(Space),,,,,,,,---- -- ----- -- ------ - lasting --- ----------<br>------------- ------ ------ ---- ---- ------- ----- -- ----<br>-------- ------- -- ---------- --- - --- ----- ----- ----<br>---- --- --- ----- --- ---- ---- ------- ----- ---- -------<br>--- --- -- ----- -- --- ---- -- --- ---- -- ------ ------<br>--- ----- -- ----,106305,106301,105887,105885,105904,106340,,6,lasting
screen,html.Screen,1_1_0_1_7,2021-04-16T13:17:40.460Z,,,,,,,,,,,,,,,,53,,,,,,,,,,,,,,390,,response,,,,99,,,,,,,Space,keypress(Space),,,,,,,,---- -- ----- -- ------ - ------- and ----------<br>------------- ------ ------ ---- ---- ------- ----- -- ----<br>-------- ------- -- ---------- --- - --- ----- ----- ----<br>---- --- --- ----- --- ---- ---- ------- ----- ---- -------<br>--- --- -- ----- -- --- ---- -- --- ---- -- ------ ------<br>--- ----- -- ----,106717,106714,106324,106305,106340,106759,,7,and
screen,html.Screen,1_1_0_1_8,2021-04-16T13:17:41.148Z,,,,,,,,,,,,,,,,53,,,,,,,,,,,,,,659,,response,,,,99,,,,,,,Space,keypress(Space),,,,,,,,---- -- ----- -- ------ - ------- --- fulfilling<br>------------- ------ ------ ---- ---- ------- ----- -- ----<br>-------- ------- -- ---------- --- - --- ----- ----- ----<br>---- --- --- ----- --- ---- ---- ------- ----- ---- -------<br>--- --- -- ----- -- --- ---- -- --- ---- -- ------ ------<br>--- ----- -- ----,107405,107402,106743,106718,106759,107446,,8,fulfilling
screen,html.Screen,1_1_0_1_9,2021-04-16T13:17:41.693Z,,,,,,,,,,,,,,,,53,,,,,,,,,,,,,,519,,response,,,,99,,,,,,,Space,keypress(Space),,,,,,,,"---- -- ----- -- ------ - ------- --- ----------<br>relationship, ------ ------ ---- ---- ------- ----- -- ----<br>-------- ------- -- ---------- --- - --- ----- ----- ----<br>---- --- --- ----- --- ---- ---- ------- ----- ---- -------<br>--- --- -- ----- -- --- ---- -- --- ---- -- ------ ------<br>--- ----- -- ----",107950,107947,107428,107405,107446,107982,,9,"relationship,"
screen,html.Screen,1_1_0_1_10,2021-04-16T13:17:42.375Z,,,,,,,,,,,,,,,,53,,,,,,,,,,,,,,663,,response,,,,99,,,,,,,Space,keypress(Space),,,,,,,,---- -- ----- -- ------ - ------- --- ----------<br>------------- common ------ ---- ---- ------- ----- -- ----<br>-------- ------- -- ---------- --- - --- ----- ----- ----<br>---- --- --- ----- --- ---- ---- ------- ----- ---- -------<br>--- --- -- ----- -- --- ---- -- --- ---- -- ------ ------<br>--- ----- -- ----,108632,108629,107966,107950,107982,108669,,10,common
screen,html.Screen,1_1_0_1_11,2021-04-16T13:17:42.871Z,,,,,,,,,,,,,,,,53,,,,,,,,,,,,,,473,,response,,,,99,,,,,,,Space,keypress(Space),,,,,,,,---- -- ----- -- ------ - ------- --- ----------<br>------------- ------ wisdom ---- ---- ------- ----- -- ----<br>-------- ------- -- ---------- --- - --- ----- ----- ----<br>---- --- --- ----- --- ---- ---- ------- ----- ---- -------<br>--- --- -- ----- -- --- ---- -- --- ---- -- ------ ------<br>--- ----- -- ----,109128,109125,108652,108632,108669,109171,,11,wisdom
screen,html.Screen,1_1_0_1_12,2021-04-16T13:17:43.422Z,,,,,,,,,,,,,,,,53,,,,,,,,,,,,,,520,,response,,,,99,,,,,,,Space,keypress(Space),,,,,,,,---- -- ----- -- ------ - ------- --- ----------<br>------------- ------ ------ says ---- ------- ----- -- ----<br>-------- ------- -- ---------- --- - --- ----- ----- ----<br>---- --- --- ----- --- ---- ---- ------- ----- ---- -------<br>--- --- -- ----- -- --- ---- -- --- ---- -- ------ ------<br>--- ----- -- ----,109679,109675,109155,109128,109171,109707,,12,says
screen,html.Screen,1_1_0_1_13,2021-04-16T13:17:43.826Z,,,,,,,,,,,,,,,,53,,,,,,,,,,,,,,389,,response,,,,99,,,,,,,Space,keypress(Space),,,,,,,,---- -- ----- -- ------ - ------- --- ----------<br>------------- ------ ------ ---- that ------- ----- -- ----<br>-------- ------- -- ---------- --- - --- ----- ----- ----<br>---- --- --- ----- --- ---- ---- ------- ----- ---- -------<br>--- --- -- ----- -- --- ---- -- --- ---- -- ------ ------<br>--- ----- -- ----,110083,110080,109691,109679,109707,110111,,13,that
screen,html.Screen,1_1_0_1_14,2021-04-16T13:17:44.199Z,,,,,,,,,,,,,,,,53,,,,,,,,,,,,,,358,,response,,,,99,,,,,,,Space,keypress(Space),,,,,,,,---- -- ----- -- ------ - ------- --- ----------<br>------------- ------ ------ ---- ---- feeling ----- -- ----<br>-------- ------- -- ---------- --- - --- ----- ----- ----<br>---- --- --- ----- --- ---- ---- ------- ----- ---- -------<br>--- --- -- ----- -- --- ---- -- --- ---- -- ------ ------<br>--- ----- -- ----,110456,110452,110094,110083,110111,110481,,14,feeling
screen,html.Screen,1_1_0_1_15,2021-04-16T13:17:44.599Z,,,,,,,,,,,,,,,,53,,,,,,,,,,,,,,389.00000000001455,,response,,,,99,,,,,,,Space,keypress(Space),,,,,,,,---- -- ----- -- ------ - ------- --- ----------<br>------------- ------ ------ ---- ---- ------- close -- ----<br>-------- ------- -- ---------- --- - --- ----- ----- ----<br>---- --- --- ----- --- ---- ---- ------- ----- ---- -------<br>--- --- -- ----- -- --- ---- -- --- ---- -- ------ ------<br>--- ----- -- ----,110856.00000000001,110853.00000000001,110464,110456,110481,110884,,15,close
screen,html.Screen,1_1_0_1_16,2021-04-16T13:17:44.957Z,,,,,,,,,,,,,,,,53,,,,,,,,,,,,,,344,,response,,,,99,,,,,,,Space,keypress(Space),,,,,,,,---- -- ----- -- ------ - ------- --- ----------<br>------------- ------ ------ ---- ---- ------- ----- to ----<br>-------- ------- -- ---------- --- - --- ----- ----- ----<br>---- --- --- ----- --- ---- ---- ------- ----- ---- -------<br>--- --- -- ----- -- --- ---- -- --- ---- -- ------ ------<br>--- ----- -- ----,111214,111211,110867,110856.00000000001,110884,111236,,16,to
screen,html.Screen,1_1_0_1_17,2021-04-16T13:17:45.385Z,,,,,,,,,,,,,,,,53,,,,,,,,,,,,,,420,,response,,,,99,,,,,,,Space,keypress(Space),,,,,,,,---- -- ----- -- ------ - ------- --- ----------<br>------------- ------ ------ ---- ---- ------- ----- -- your<br>-------- ------- -- ---------- --- - --- ----- ----- ----<br>---- --- --- ----- --- ---- ---- ------- ----- ---- -------<br>--- --- -- ----- -- --- ---- -- --- ---- -- ------ ------<br>--- ----- -- ----,111642,111639,111219,111214,111236,111672,,17,your
screen,html.Screen,1_1_0_1_18,2021-04-16T13:17:45.773Z,,,,,,,,,,,,,,,,53,,,,,,,,,,,,,,371,,response,,,,99,,,,,,,Space,keypress(Space),,,,,,,,---- -- ----- -- ------ - ------- --- ----------<br>------------- ------ ------ ---- ---- ------- ----- -- ----<br>romantic ------- -- ---------- --- - --- ----- ----- ----<br>---- --- --- ----- --- ---- ---- ------- ----- ---- -------<br>--- --- -- ----- -- --- ---- -- --- ---- -- ------ ------<br>--- ----- -- ----,112030,112027,111656,111642,111672,112059,,18,romantic
screen,html.Screen,1_1_0_1_19,2021-04-16T13:17:46.144Z,,,,,,,,,,,,,,,,53,,,,,,,,,,,,,,357,,response,,,,99,,,,,,,Space,keypress(Space),,,,,,,,---- -- ----- -- ------ - ------- --- ----------<br>------------- ------ ------ ---- ---- ------- ----- -- ----<br>-------- partner -- ---------- --- - --- ----- ----- ----<br>---- --- --- ----- --- ---- ---- ------- ----- ---- -------<br>--- --- -- ----- -- --- ---- -- --- ---- -- ------ ------<br>--- ----- -- ----,112401,112398,112041,112030,112059,112429,,19,partner
screen,html.Screen,1_1_0_1_20,2021-04-16T13:17:46.495Z,,,,,,,,,,,,,,,,53,,,,,,,,,,,,,,337.00000000001455,,response,,,,99,,,,,,,Space,keypress(Space),,,,,,,,---- -- ----- -- ------ - ------- --- ----------<br>------------- ------ ------ ---- ---- ------- ----- -- ----<br>-------- ------- is ---------- --- - --- ----- ----- ----<br>---- --- --- ----- --- ---- ---- ------- ----- ---- -------<br>--- --- -- ----- -- --- ---- -- --- ---- -- ------ ------<br>--- ----- -- ----,112752,112749.00000000001,112412,112401,112429,112781,,20,is
screen,html.Screen,1_1_0_1_21,2021-04-16T13:17:46.868Z,,,,,,,,,,,,,,,,53,,,,,,,,,,,,,,357,,response,,,,99,,,,,,,Space,keypress(Space),,,,,,,,---- -- ----- -- ------ - ------- --- ----------<br>------------- ------ ------ ---- ---- ------- ----- -- ----<br>-------- ------- -- paramount. --- - --- ----- ----- ----<br>---- --- --- ----- --- ---- ---- ------- ----- ---- -------<br>--- --- -- ----- -- --- ---- -- --- ---- -- ------ ------<br>--- ----- -- ----,113125,113122,112765,112753,112781,113151,,21,paramount.
screen,html.Screen,1_1_0_1_22,2021-04-16T13:17:47.988Z,,,,,,,,,,,,,,,,53,,,,,,,,,,,,,,1108,,response,,,,99,,,,,,,Space,keypress(Space),,,,,,,,---- -- ----- -- ------ - ------- --- ----------<br>------------- ------ ------ ---- ---- ------- ----- -- ----<br>-------- ------- -- ---------- But - --- ----- ----- ----<br>---- --- --- ----- --- ---- ---- ------- ----- ---- -------<br>--- --- -- ----- -- --- ---- -- --- ---- -- ------ ------<br>--- ----- -- ----,114245,114242,113134,113125,113151,114286,,22,But
screen,html.Screen,1_1_0_1_23,2021-04-16T13:17:49.087Z,,,,,,,,,,,,,,,,53,,,,,,,,,,,,,,1071.0000000000146,,response,,,,99,,,,,,,Space,keypress(Space),,,,,,,,---- -- ----- -- ------ - ------- --- ----------<br>------------- ------ ------ ---- ---- ------- ----- -- ----<br>-------- ------- -- ---------- --- a --- ----- ----- ----<br>---- --- --- ----- --- ---- ---- ------- ----- ---- -------<br>--- --- -- ----- -- --- ---- -- --- ---- -- ------ ------<br>--- ----- -- ----,115344.00000000001,115341.00000000001,114270,114245,114286,115373,,23,a
screen,html.Screen,1_1_0_1_24,2021-04-16T13:17:49.509Z,,,,,,,,,,,,,,,,53,,,,,,,,,,,,,,406,,response,,,,99,,,,,,,Space,keypress(Space),,,,,,,,---- -- ----- -- ------ - ------- --- ----------<br>------------- ------ ------ ---- ---- ------- ----- -- ----<br>-------- ------- -- ---------- --- - new ----- ----- ----<br>---- --- --- ----- --- ---- ---- ------- ----- ---- -------<br>--- --- -- ----- -- --- ---- -- --- ---- -- ------ ------<br>--- ----- -- ----,115766,115763,115357,115344.00000000001,115373,115792,,24,new
screen,html.Screen,1_1_0_1_25,2021-04-16T13:17:49.910Z,,,,,,,,,,,,,,,,53,,,,,,,,,,,,,,388,,response,,,,99,,,,,,,Space,keypress(Space),,,,,,,,---- -- ----- -- ------ - ------- --- ----------<br>------------- ------ ------ ---- ---- ------- ----- -- ----<br>-------- ------- -- ---------- --- - --- study ----- ----<br>---- --- --- ----- --- ---- ---- ------- ----- ---- -------<br>--- --- -- ----- -- --- ---- -- --- ---- -- ------ ------<br>--- ----- -- ----,116167,116164,115776,115766,115792,116195,,25,study
screen,html.Screen,1_1_0_1_26,2021-04-16T13:17:50.301Z,,,,,,,,,,,,,,,,53,,,,,,,,,,,,,,376,,response,,,,99,,,,,,,Space,keypress(Space),,,,,,,,---- -- ----- -- ------ - ------- --- ----------<br>------------- ------ ------ ---- ---- ------- ----- -- ----<br>-------- ------- -- ---------- --- - --- ----- finds ----<br>---- --- --- ----- --- ---- ---- ------- ----- ---- -------<br>--- --- -- ----- -- --- ---- -- --- ---- -- ------ ------<br>--- ----- -- ----,116558,116555,116179,116167,116195,116582,,26,finds
screen,html.Screen,1_1_0_1_27,2021-04-16T13:17:50.684Z,,,,,,,,,,,,,,,,53,,,,,,,,,,,,,,373,,response,,,,99,,,,,,,Space,keypress(Space),,,,,,,,---- -- ----- -- ------ - ------- --- ----------<br>------------- ------ ------ ---- ---- ------- ----- -- ----<br>-------- ------- -- ---------- --- - --- ----- ----- that<br>---- --- --- ----- --- ---- ---- ------- ----- ---- -------<br>--- --- -- ----- -- --- ---- -- --- ---- -- ------ ------<br>--- ----- -- ----,116941,116938,116565,116558,116582,116968,,27,that
screen,html.Screen,1_1_0_1_28,2021-04-16T13:17:51.082Z,,,,,,,,,,,,,,,,53,,,,,,,,,,,,,,384,,response,,,,99,,,,,,,Space,keypress(Space),,,,,,,,---- -- ----- -- ------ - ------- --- ----------<br>------------- ------ ------ ---- ---- ------- ----- -- ----<br>-------- ------- -- ---------- --- - --- ----- ----- ----<br>it's --- --- ----- --- ---- ---- ------- ----- ---- -------<br>--- --- -- ----- -- --- ---- -- --- ---- -- ------ ------<br>--- ----- -- ----,117339,117336,116952,116941,116968,117371,,28,it's
screen,html.Screen,1_1_0_1_29,2021-04-16T13:17:51.443Z,,,,,,,,,,,,,,,,53,,,,,,,,,,,,,,342,,response,,,,99,,,,,,,Space,keypress(Space),,,,,,,,---- -- ----- -- ------ - ------- --- ----------<br>------------- ------ ------ ---- ---- ------- ----- -- ----<br>-------- ------- -- ---------- --- - --- ----- ----- ----<br>---- not --- ----- --- ---- ---- ------- ----- ---- -------<br>--- --- -- ----- -- --- ---- -- --- ---- -- ------ ------<br>--- ----- -- ----,117700,117697,117355,117339,117371,117724,,29,not
screen,html.Screen,1_1_0_1_30,2021-04-16T13:17:51.780Z,,,,,,,,,,,,,,,,53,,,,,,,,,,,,,,326,,response,,,,99,,,,,,,Space,keypress(Space),,,,,,,,---- -- ----- -- ------ - ------- --- ----------<br>------------- ------ ------ ---- ---- ------- ----- -- ----<br>-------- ------- -- ---------- --- - --- ----- ----- ----<br>---- --- how ----- --- ---- ---- ------- ----- ---- -------<br>--- --- -- ----- -- --- ---- -- --- ---- -- ------ ------<br>--- ----- -- ----,118037,118033,117707,117700,117724,118061,,30,how
screen,html.Screen,1_1_0_1_31,2021-04-16T13:17:52.120Z,,,,,,,,,,,,,,,,53,,,,,,,,,,,,,,330.00000000001455,,response,,,,99,,,,,,,Space,keypress(Space),,,,,,,,---- -- ----- -- ------ - ------- --- ----------<br>------------- ------ ------ ---- ---- ------- ----- -- ----<br>-------- ------- -- ---------- --- - --- ----- ----- ----<br>---- --- --- close --- ---- ---- ------- ----- ---- -------<br>--- --- -- ----- -- --- ---- -- --- ---- -- ------ ------<br>--- ----- -- ----,118377.00000000001,118374.00000000001,118044,118037,118061,118396,,31,close
screen,html.Screen,1_1_0_1_32,2021-04-16T13:17:52.488Z,,,,,,,,,,,,,,,,53,,,,,,,,,,,,,,362,,response,,,,99,,,,,,,Space,keypress(Space),,,,,,,,---- -- ----- -- ------ - ------- --- ----------<br>------------- ------ ------ ---- ---- ------- ----- -- ----<br>-------- ------- -- ---------- --- - --- ----- ----- ----<br>---- --- --- ----- you ---- ---- ------- ----- ---- -------<br>--- --- -- ----- -- --- ---- -- --- ---- -- ------ ------<br>--- ----- -- ----,118745,118742,118380,118377.00000000001,118396,118766,,32,you
screen,html.Screen,1_1_0_1_33,2021-04-16T13:17:52.844Z,,,,,,,,,,,,,,,,53,,,,,,,,,,,,,,350,,response,,,,99,,,,,,,Space,keypress(Space),,,,,,,,---- -- ----- -- ------ - ------- --- ----------<br>------------- ------ ------ ---- ---- ------- ----- -- ----<br>-------- ------- -- ---------- --- - --- ----- ----- ----<br>---- --- --- ----- --- feel ---- ------- ----- ---- -------<br>--- --- -- ----- -- --- ---- -- --- ---- -- ------ ------<br>--- ----- -- ----,119101,119098,118748,118745,118766,119135,,33,feel
screen,html.Screen,1_1_0_1_34,2021-04-16T13:17:53.137Z,,,,,,,,,,,,,,,,53,,,,,,,,,,,,,,272,,response,,,,99,,,,,,,Space,keypress(Space),,,,,,,,---- -- ----- -- ------ - ------- --- ----------<br>------------- ------ ------ ---- ---- ------- ----- -- ----<br>-------- ------- -- ---------- --- - --- ----- ----- ----<br>---- --- --- ----- --- ---- that ------- ----- ---- -------<br>--- --- -- ----- -- --- ---- -- --- ---- -- ------ ------<br>--- ----- -- ----,119394,119391,119119,119101,119135,119421,,34,that
screen,html.Screen,1_1_0_1_35,2021-04-16T13:17:53.434Z,,,,,,,,,,,,,,,,53,,,,,,,,,,,,,,283,,response,,,,99,,,,,,,Space,keypress(Space),,,,,,,,---- -- ----- -- ------ - ------- --- ----------<br>------------- ------ ------ ---- ---- ------- ----- -- ----<br>-------- ------- -- ---------- --- - --- ----- ----- ----<br>---- --- --- ----- --- ---- ---- matters ----- ---- -------<br>--- --- -- ----- -- --- ---- -- --- ---- -- ------ ------<br>--- ----- -- ----,119691,119688,119405,119394,119421,119725,,35,matters
screen,html.Screen,1_1_0_1_36,2021-04-16T13:17:53.840Z,,,,,,,,,,,,,,,,53,,,,,,,,,,,,,,386.00000000001455,,response,,,,99,,,,,,,Space,keypress(Space),,,,,,,,"---- -- ----- -- ------ - ------- --- ----------<br>------------- ------ ------ ---- ---- ------- ----- -- ----<br>-------- ------- -- ---------- --- - --- ----- ----- ----<br>---- --- --- ----- --- ---- ---- ------- most, ---- -------<br>--- --- -- ----- -- --- ---- -- --- ---- -- ------ ------<br>--- ----- -- ----",120097.00000000001,120094.00000000001,119708,119692,119725,120127,,36,"most,"
screen,html.Screen,1_1_0_1_37,2021-04-16T13:17:54.225Z,,,,,,,,,,,,,,,,53,,,,,,,,,,,,,,371,,response,,,,99,,,,,,,Space,keypress(Space),,,,,,,,---- -- ----- -- ------ - ------- --- ----------<br>------------- ------ ------ ---- ---- ------- ----- -- ----<br>-------- ------- -- ---------- --- - --- ----- ----- ----<br>---- --- --- ----- --- ---- ---- ------- ----- it's -------<br>--- --- -- ----- -- --- ---- -- --- ---- -- ------ ------<br>--- ----- -- ----,120482,120480,120109,120097.00000000001,120127,120513,,37,it's
screen,html.Screen,1_1_0_1_38,2021-04-16T13:17:54.549Z,,,,,,,,,,,,,,,,53,,,,,,,,,,,,,,307,,response,,,,99,,,,,,,Space,keypress(Space),,,,,,,,---- -- ----- -- ------ - ------- --- ----------<br>------------- ------ ------ ---- ---- ------- ----- -- ----<br>-------- ------- -- ---------- --- - --- ----- ----- ----<br>---- --- --- ----- --- ---- ---- ------- ----- ---- whether<br>--- --- -- ----- -- --- ---- -- --- ---- -- ------ ------<br>--- ----- -- ----,120806,120803,120496,120482,120513,120833,,38,whether
screen,html.Screen,1_1_0_1_39,2021-04-16T13:17:54.903Z,,,,,,,,,,,,,,,,53,,,,,,,,,,,,,,342,,response,,,,99,,,,,,,Space,keypress(Space),,,,,,,,---- -- ----- -- ------ - ------- --- ----------<br>------------- ------ ------ ---- ---- ------- ----- -- ----<br>-------- ------- -- ---------- --- - --- ----- ----- ----<br>---- --- --- ----- --- ---- ---- ------- ----- ---- -------<br>you --- -- ----- -- --- ---- -- --- ---- -- ------ ------<br>--- ----- -- ----,121160,121158,120816,120806,120833,121186,,39,you
screen,html.Screen,1_1_0_1_40,2021-04-16T13:17:55.211Z,,,,,,,,,,,,,,,,53,,,,,,,,,,,,,,297,,response,,,,99,,,,,,,Space,keypress(Space),,,,,,,,---- -- ----- -- ------ - ------- --- ----------<br>------------- ------ ------ ---- ---- ------- ----- -- ----<br>-------- ------- -- ---------- --- - --- ----- ----- ----<br>---- --- --- ----- --- ---- ---- ------- ----- ---- -------<br>--- are -- ----- -- --- ---- -- --- ---- -- ------ ------<br>--- ----- -- ----,121468,121465,121168,121161,121186,121488,,40,are
screen,html.Screen,1_1_0_1_41,2021-04-16T13:17:55.519Z,,,,,,,,,,,,,,,,53,,,,,,,,,,,,,,302,,response,,,,99,,,,,,,Space,keypress(Space),,,,,,,,---- -- ----- -- ------ - ------- --- ----------<br>------------- ------ ------ ---- ---- ------- ----- -- ----<br>-------- ------- -- ---------- --- - --- ----- ----- ----<br>---- --- --- ----- --- ---- ---- ------- ----- ---- -------<br>--- --- as ----- -- --- ---- -- --- ---- -- ------ ------<br>--- ----- -- ----,121776,121773,121471,121468,121488,121807,,41,as
screen,html.Screen,1_1_0_1_42,2021-04-16T13:17:55.863Z,,,,,,,,,,,,,,,,53,,,,,,,,,,,,,,326,,response,,,,99,,,,,,,Space,keypress(Space),,,,,,,,---- -- ----- -- ------ - ------- --- ----------<br>------------- ------ ------ ---- ---- ------- ----- -- ----<br>-------- ------- -- ---------- --- - --- ----- ----- ----<br>---- --- --- ----- --- ---- ---- ------- ----- ---- -------<br>--- --- -- close -- --- ---- -- --- ---- -- ------ ------<br>--- ----- -- ----,122120,122117,121791,121776,121807,122144,,42,close
screen,html.Screen,1_1_0_1_43,2021-04-16T13:17:56.170Z,,,,,,,,,,,,,,,,53,,,,,,,,,,,,,,298,,response,,,,99,,,,,,,Space,keypress(Space),,,,,,,,---- -- ----- -- ------ - ------- --- ----------<br>------------- ------ ------ ---- ---- ------- ----- -- ----<br>-------- ------- -- ---------- --- - --- ----- ----- ----<br>---- --- --- ----- --- ---- ---- ------- ----- ---- -------<br>--- --- -- ----- as --- ---- -- --- ---- -- ------ ------<br>--- ----- -- ----,122427,122424,122126,122121.00000000001,122144,122447,,43,as
screen,html.Screen,1_1_0_1_44,2021-04-16T13:17:56.503Z,,,,,,,,,,,,,,,,53,,,,,,,,,,,,,,327,,response,,,,99,,,,,,,Space,keypress(Space),,,,,,,,---- -- ----- -- ------ - ------- --- ----------<br>------------- ------ ------ ---- ---- ------- ----- -- ----<br>-------- ------- -- ---------- --- - --- ----- ----- ----<br>---- --- --- ----- --- ---- ---- ------- ----- ---- -------<br>--- --- -- ----- -- you ---- -- --- ---- -- ------ ------<br>--- ----- -- ----,122760,122757,122430,122427,122447,122783,,44,you
screen,html.Screen,1_1_0_1_45,2021-04-16T13:17:56.836Z,,,,,,,,,,,,,,,,53,,,,,,,,,,,,,,325,,response,,,,99,,,,,,,Space,keypress(Space),,,,,,,,---- -- ----- -- ------ - ------- --- ----------<br>------------- ------ ------ ---- ---- ------- ----- -- ----<br>-------- ------- -- ---------- --- - --- ----- ----- ----<br>---- --- --- ----- --- ---- ---- ------- ----- ---- -------<br>--- --- -- ----- -- --- want -- --- ---- -- ------ ------<br>--- ----- -- ----,123093,123090,122765,122760,122783,123119,,45,want
screen,html.Screen,1_1_0_1_46,2021-04-16T13:17:57.170Z,,,,,,,,,,,,,,,,53,,,,,,,,,,,,,,323,,response,,,,99,,,,,,,Space,keypress(Space),,,,,,,,---- -- ----- -- ------ - ------- --- ----------<br>------------- ------ ------ ---- ---- ------- ----- -- ----<br>-------- ------- -- ---------- --- - --- ----- ----- ----<br>---- --- --- ----- --- ---- ---- ------- ----- ---- -------<br>--- --- -- ----- -- --- ---- to --- ---- -- ------ ------<br>--- ----- -- ----,123427,123424,123101,123093,123119,123455,,46,to
screen,html.Screen,1_1_0_1_47,2021-04-16T13:17:57.553Z,,,,,,,,,,,,,,,,53,,,,,,,,,,,,,,369,,response,,,,99,,,,,,,Space,keypress(Space),,,,,,,,"---- -- ----- -- ------ - ------- --- ----------<br>------------- ------ ------ ---- ---- ------- ----- -- ----<br>-------- ------- -- ---------- --- - --- ----- ----- ----<br>---- --- --- ----- --- ---- ---- ------- ----- ---- -------<br>--- --- -- ----- -- --- ---- -- be, ---- -- ------ ------<br>--- ----- -- ----",123811,123808,123439,123427,123455,123841,,47,"be,"
screen,html.Screen,1_1_0_1_48,2021-04-16T13:17:57.991Z,,,,,,,,,,,,,,,,53,,,,,,,,,,,,,,421,,response,,,,99,,,,,,,Space,keypress(Space),,,,,,,,---- -- ----- -- ------ - ------- --- ----------<br>------------- ------ ------ ---- ---- ------- ----- -- ----<br>-------- ------- -- ---------- --- - --- ----- ----- ----<br>---- --- --- ----- --- ---- ---- ------- ----- ---- -------<br>--- --- -- ----- -- --- ---- -- --- even -- ------ ------<br>--- ----- -- ----,124249.00000000001,124245,123824,123811,123841,124277,,48,even
screen,html.Screen,1_1_0_1_49,2021-04-16T13:17:58.292Z,,,,,,,,,,,,,,,,53,,,,,,,,,,,,,,285,,response,,,,99,,,,,,,Space,keypress(Space),,,,,,,,---- -- ----- -- ------ - ------- --- ----------<br>------------- ------ ------ ---- ---- ------- ----- -- ----<br>-------- ------- -- ---------- --- - --- ----- ----- ----<br>---- --- --- ----- --- ---- ---- ------- ----- ---- -------<br>--- --- -- ----- -- --- ---- -- --- ---- if ------ ------<br>--- ----- -- ----,124549,124545,124260,124249.00000000001,124277,124580,,49,if
screen,html.Screen,1_1_0_1_50,2021-04-16T13:17:58.542Z,,,,,,,,,,,,,,,,53,,,,,,,,,,,,,,233,,response,,,,99,,,,,,,Space,keypress(Space),,,,,,,,---- -- ----- -- ------ - ------- --- ----------<br>------------- ------ ------ ---- ---- ------- ----- -- ----<br>-------- ------- -- ---------- --- - --- ----- ----- ----<br>---- --- --- ----- --- ---- ---- ------- ----- ---- -------<br>--- --- -- ----- -- --- ---- -- --- ---- -- that's ------<br>--- ----- -- ----,124799,124796,124563,124549,124580,124833,,50,that's
screen,html.Screen,1_1_0_1_51,2021-04-16T13:17:58.829Z,,,,,,,,,,,,,,,,53,,,,,,,,,,,,,,267,,response,,,,99,,,,,,,Space,keypress(Space),,,,,,,,---- -- ----- -- ------ - ------- --- ----------<br>------------- ------ ------ ---- ---- ------- ----- -- ----<br>-------- ------- -- ---------- --- - --- ----- ----- ----<br>---- --- --- ----- --- ---- ---- ------- ----- ---- -------<br>--- --- -- ----- -- --- ---- -- --- ---- -- ------ really<br>--- ----- -- ----,125086,125083,124816,124799,124833,125118,,51,really
screen,html.Screen,1_1_0_1_52,2021-04-16T13:17:59.165Z,,,,,,,,,,,,,,,,53,,,,,,,,,,,,,,317,,response,,,,99,,,,,,,Space,keypress(Space),,,,,,,,---- -- ----- -- ------ - ------- --- ----------<br>------------- ------ ------ ---- ---- ------- ----- -- ----<br>-------- ------- -- ---------- --- - --- ----- ----- ----<br>---- --- --- ----- --- ---- ---- ------- ----- ---- -------<br>--- --- -- ----- -- --- ---- -- --- ---- -- ------ ------<br>not ----- -- ----,125422,125418,125101,125087,125118,125455,,52,not
screen,html.Screen,1_1_0_1_53,2021-04-16T13:17:59.430Z,,,,,,,,,,,,,,,,53,,,,,,,,,,,,,,245,,response,,,,99,,,,,,,Space,keypress(Space),,,,,,,,---- -- ----- -- ------ - ------- --- ----------<br>------------- ------ ------ ---- ---- ------- ----- -- ----<br>-------- ------- -- ---------- --- - --- ----- ----- ----<br>---- --- --- ----- --- ---- ---- ------- ----- ---- -------<br>--- --- -- ----- -- --- ---- -- --- ---- -- ------ ------<br>--- close -- ----,125687,125684,125439,125422,125455,125708,,53,close
screen,html.Screen,1_1_0_1_54,2021-04-16T13:17:59.711Z,,,,,,,,,,,,,,,,53,,,,,,,,,,,,,,274,,response,,,,99,,,,,,,Space,keypress(Space),,,,,,,,---- -- ----- -- ------ - ------- --- ----------<br>------------- ------ ------ ---- ---- ------- ----- -- ----<br>-------- ------- -- ---------- --- - --- ----- ----- ----<br>---- --- --- ----- --- ---- ---- ------- ----- ---- -------<br>--- --- -- ----- -- --- ---- -- --- ---- -- ------ ------<br>--- ----- at ----,125968,125965,125691,125687,125708,125994,,54,at
screen,html.Screen,1_1_0_1_55,2021-04-16T13:18:00.023Z,,,,,,,,,,,,,,,,53,,,,,,,,,,,,,,300,,response,,,,99,,,,,,,Space,keypress(Space),,,,,,,,---- -- ----- -- ------ - ------- --- ----------<br>------------- ------ ------ ---- ---- ------- ----- -- ----<br>-------- ------- -- ---------- --- - --- ----- ----- ----<br>---- --- --- ----- --- ---- ---- ------- ----- ---- -------<br>--- --- -- ----- -- --- ---- -- --- ---- -- ------ ------<br>--- ----- -- all.,126280,126277,125977,125968,125994,126312,,55,all.
Item 99,flow.Loop,1_1_0_1,2021-04-16T13:18:00.023Z,,,,,,,,,,,,,,,,,,,,,,,,,,,,,,24859,,completion,,,,,A,,,,,,,,,,,silence,,,,,126280,126277,101392,101393,101418,126312,,,
Question 1,html.Screen,1_1_0_2,2021-04-16T13:18:04.798Z,,,,,,,,,,,,,,,,,,,,,,,,,,,false,FALSE,,4755.999999999985,,response,,,,99,A,,,,,,TRUE,click #choice-1,,,,silence,,,,,131055,131051.99999999999,126296,126280,126312,131077,,,
Question 2,html.Screen,1_1_0_3,2021-04-16T13:18:09.476Z,,,,,,,,,,,,,,,,,,,,,,,,,,,true,TRUE,,4670,,response,,,,99,A,,,,,,TRUE,click #choice-1,,,,silence,,,,,135733,135731,131061,131055,131077,135769,,,
Item 99,flow.Sequence,1_1_0,2021-04-16T13:18:09.476Z,,,,,,,,,,,,,,,,,,,,,,,,,,,,,,44326,,completion,,,,,,,,,,,,,,,,,,,,,135733,135731,91390,91385,91405,135769,,,
Holding screen,html.Screen,1_1_1_0,2021-04-16T13:18:19.497Z,,,,,,,,,,,,,,,,,,,,,,,,,,,,,,10001,,timeout,,,,,,,,,,,,,,,,,,,,,145754,145754,135746,135733,135769,145770,,,
screen,html.Screen,1_1_1_1_0,2021-04-16T13:18:20.549Z,,,,,,,,,,,,,,,,54,,,,,,,,,,,,,,1049,,response,,,,100,,,,,,,Space,keypress(Space),,,,,,,,At --- ---- --- ------ ----- ------- ---- -- --- ------- --<br>------- ---------- ------ -- ----- -- ----- -- ---- ------<br>--- ----- --- --- ------ -------- ----- --- ------ ----- --<br>----- ----- ---------- --- --- ------ ------ ---- -- ------<br>------- --- ------ ----- --- ---- ------- -- ---- --- --<br>------- ------,146806,146803,145754,145755,145770,146840,,0,At
screen,html.Screen,1_1_1_1_1,2021-04-16T13:18:20.904Z,,,,,,,,,,,,,,,,54,,,,,,,,,,,,,,334.0000000000291,,response,,,,100,,,,,,,Space,keypress(Space),,,,,,,,-- the ---- --- ------ ----- ------- ---- -- --- ------- --<br>------- ---------- ------ -- ----- -- ----- -- ---- ------<br>--- ----- --- --- ------ -------- ----- --- ------ ----- --<br>----- ----- ---------- --- --- ------ ------ ---- -- ------<br>------- --- ------ ----- --- ---- ------- -- ---- --- --<br>------- ------,147161,147158.00000000003,146824,146807.00000000003,146840,147186,,1,the
screen,html.Screen,1_1_1_1_2,2021-04-16T13:18:21.190Z,,,,,,,,,,,,,,,,54,,,,,,,,,,,,,,275.0000000000291,,response,,,,100,,,,,,,Space,keypress(Space),,,,,,,,-- --- time --- ------ ----- ------- ---- -- --- ------- --<br>------- ---------- ------ -- ----- -- ----- -- ---- ------<br>--- ----- --- --- ------ -------- ----- --- ------ ----- --<br>----- ----- ---------- --- --- ------ ------ ---- -- ------<br>------- --- ------ ----- --- ---- ------- -- ---- --- --<br>------- ------,147447,147444.00000000003,147169,147161,147186,147474,,2,time
screen,html.Screen,1_1_1_1_3,2021-04-16T13:18:21.455Z,,,,,,,,,,,,,,,,54,,,,,,,,,,,,,,252,,response,,,,100,,,,,,,Space,keypress(Space),,,,,,,,-- --- ---- the ------ ----- ------- ---- -- --- ------- --<br>------- ---------- ------ -- ----- -- ----- -- ---- ------<br>--- ----- --- --- ------ -------- ----- --- ------ ----- --<br>----- ----- ---------- --- --- ------ ------ ---- -- ------<br>------- --- ------ ----- --- ---- ------- -- ---- --- --<br>------- ------,147712,147709,147457,147447,147474,147744,,3,the
screen,html.Screen,1_1_1_1_4,2021-04-16T13:18:21.742Z,,,,,,,,,,,,,,,,54,,,,,,,,,,,,,,269,,response,,,,100,,,,,,,Space,keypress(Space),,,,,,,,-- --- ---- --- French ----- ------- ---- -- --- ------- --<br>------- ---------- ------ -- ----- -- ----- -- ---- ------<br>--- ----- --- --- ------ -------- ----- --- ------ ----- --<br>----- ----- ---------- --- --- ------ ------ ---- -- ------<br>------- --- ------ ----- --- ---- ------- -- ---- --- --<br>------- ------,147999,147996,147727,147712,147744,148030,,4,French
screen,html.Screen,1_1_1_1_5,2021-04-16T13:18:22.058Z,,,,,,,,,,,,,,,,54,,,,,,,,,,,,,,299,,response,,,,100,,,,,,,Space,keypress(Space),,,,,,,,-- --- ---- --- ------ crown ------- ---- -- --- ------- --<br>------- ---------- ------ -- ----- -- ----- -- ---- ------<br>--- ----- --- --- ------ -------- ----- --- ------ ----- --<br>----- ----- ---------- --- --- ------ ------ ---- -- ------<br>------- --- ------ ----- --- ---- ------- -- ---- --- --<br>------- ------,148315,148312,148013,147999,148030,148333,,5,crown
screen,html.Screen,1_1_1_1_6,2021-04-16T13:18:22.399Z,,,,,,,,,,,,,,,,54,,,,,,,,,,,,,,337,,response,,,,100,,,,,,,Space,keypress(Space),,,,,,,,-- --- ---- --- ------ ----- secured ---- -- --- ------- --<br>------- ---------- ------ -- ----- -- ----- -- ---- ------<br>--- ----- --- --- ------ -------- ----- --- ------ ----- --<br>----- ----- ---------- --- --- ------ ------ ---- -- ------<br>------- --- ------ ----- --- ---- ------- -- ---- --- --<br>------- ------,148656,148653,148316,148315,148333,148685,,6,secured
screen,html.Screen,1_1_1_1_7,2021-04-16T13:18:22.767Z,,,,,,,,,,,,,,,,54,,,,,,,,,,,,,,352.0000000000291,,response,,,,100,,,,,,,Space,keypress(Space),,,,,,,,-- --- ---- --- ------ ----- ------- much -- --- ------- --<br>------- ---------- ------ -- ----- -- ----- -- ---- ------<br>--- ----- --- --- ------ -------- ----- --- ------ ----- --<br>----- ----- ---------- --- --- ------ ------ ---- -- ------<br>------- --- ------ ----- --- ---- ------- -- ---- --- --<br>------- ------,149024,149021.00000000003,148669,148656,148685,149055,,7,much
screen,html.Screen,1_1_1_1_8,2021-04-16T13:18:23.116Z,,,,,,,,,,,,,,,,54,,,,,,,,,,,,,,332,,response,,,,100,,,,,,,Space,keypress(Space),,,,,,,,-- --- ---- --- ------ ----- ------- ---- of --- ------- --<br>------- ---------- ------ -- ----- -- ----- -- ---- ------<br>--- ----- --- --- ------ -------- ----- --- ------ ----- --<br>----- ----- ---------- --- --- ------ ------ ---- -- ------<br>------- --- ------ ----- --- ---- ------- -- ---- --- --<br>------- ------,149373,149370,149038,149025,149055,149391,,8,of
screen,html.Screen,1_1_1_1_9,2021-04-16T13:18:23.438Z,,,,,,,,,,,,,,,,54,,,,,,,,,,,,,,318,,response,,,,100,,,,,,,Space,keypress(Space),,,,,,,,-- --- ---- --- ------ ----- ------- ---- -- its ------- --<br>------- ---------- ------ -- ----- -- ----- -- ---- ------<br>--- ----- --- --- ------ -------- ----- --- ------ ----- --<br>----- ----- ---------- --- --- ------ ------ ---- -- ------<br>------- --- ------ ----- --- ---- ------- -- ---- --- --<br>------- ------,149695,149692,149374,149373,149391,149727,,9,its
screen,html.Screen,1_1_1_1_10,2021-04-16T13:18:23.788Z,,,,,,,,,,,,,,,,54,,,,,,,,,,,,,,331,,response,,,,100,,,,,,,Space,keypress(Space),,,,,,,,-- --- ---- --- ------ ----- ------- ---- -- --- revenue --<br>------- ---------- ------ -- ----- -- ----- -- ---- ------<br>--- ----- --- --- ------ -------- ----- --- ------ ----- --<br>----- ----- ---------- --- --- ------ ------ ---- -- ------<br>------- --- ------ ----- --- ---- ------- -- ---- --- --<br>------- ------,150045.00000000003,150042,149711,149695,149727,150063,,10,revenue
screen,html.Screen,1_1_1_1_11,2021-04-16T13:18:24.058Z,,,,,,,,,,,,,,,,54,,,,,,,,,,,,,,264,,response,,,,100,,,,,,,Space,keypress(Space),,,,,,,,-- --- ---- --- ------ ----- ------- ---- -- --- ------- by<br>------- ---------- ------ -- ----- -- ----- -- ---- ------<br>--- ----- --- --- ------ -------- ----- --- ------ ----- --<br>----- ----- ---------- --- --- ------ ------ ---- -- ------<br>------- --- ------ ----- --- ---- ------- -- ---- --- --<br>------- ------,150315,150311,150047,150045.00000000003,150063,150333,,11,by
screen,html.Screen,1_1_1_1_12,2021-04-16T13:18:24.410Z,,,,,,,,,,,,,,,,54,,,,,,,,,,,,,,348.0000000000291,,response,,,,100,,,,,,,Space,keypress(Space),,,,,,,,-- --- ---- --- ------ ----- ------- ---- -- --- ------- --<br>issuing ---------- ------ -- ----- -- ----- -- ---- ------<br>--- ----- --- --- ------ -------- ----- --- ------ ----- --<br>----- ----- ---------- --- --- ------ ------ ---- -- ------<br>------- --- ------ ----- --- ---- ------- -- ---- --- --<br>------- ------,150667,150664.00000000003,150316,150315,150333,150685,,12,issuing
screen,html.Screen,1_1_1_1_13,2021-04-16T13:18:24.766Z,,,,,,,,,,,,,,,,54,,,,,,,,,,,,,,351,,response,,,,100,,,,,,,Space,keypress(Space),,,,,,,,-- --- ---- --- ------ ----- ------- ---- -- --- ------- --<br>------- government ------ -- ----- -- ----- -- ---- ------<br>--- ----- --- --- ------ -------- ----- --- ------ ----- --<br>----- ----- ---------- --- --- ------ ------ ---- -- ------<br>------- --- ------ ----- --- ---- ------- -- ---- --- --<br>------- ------,151023,151020,150669,150667,150685,151055,,13,government
screen,html.Screen,1_1_1_1_14,2021-04-16T13:18:25.345Z,,,,,,,,,,,,,,,,54,,,,,,,,,,,,,,561,,response,,,,100,,,,,,,Space,keypress(Space),,,,,,,,-- --- ---- --- ------ ----- ------- ---- -- --- ------- --<br>------- ---------- bonds. -- ----- -- ----- -- ---- ------<br>--- ----- --- --- ------ -------- ----- --- ------ ----- --<br>----- ----- ---------- --- --- ------ ------ ---- -- ------<br>------- --- ------ ----- --- ---- ------- -- ---- --- --<br>------- ------,151602,151599,151038,151024,151055,151641,,14,bonds.
screen,html.Screen,1_1_1_1_15,2021-04-16T13:18:25.833Z,,,,,,,,,,,,,,,,54,,,,,,,,,,,,,,463,,response,,,,100,,,,,,,Space,keypress(Space),,,,,,,,-- --- ---- --- ------ ----- ------- ---- -- --- ------- --<br>------- ---------- ------ In ----- -- ----- -- ---- ------<br>--- ----- --- --- ------ -------- ----- --- ------ ----- --<br>----- ----- ---------- --- --- ------ ------ ---- -- ------<br>------- --- ------ ----- --- ---- ------- -- ---- --- --<br>------- ------,152090,152087,151624,151602,151641,152127,,15,In
screen,html.Screen,1_1_1_1_16,2021-04-16T13:18:26.204Z,,,,,,,,,,,,,,,,54,,,,,,,,,,,,,,349,,response,,,,100,,,,,,,Space,keypress(Space),,,,,,,,"-- --- ---- --- ------ ----- ------- ---- -- --- ------- --<br>------- ---------- ------ -- 1727, -- ----- -- ---- ------<br>--- ----- --- --- ------ -------- ----- --- ------ ----- --<br>----- ----- ---------- --- --- ------ ------ ---- -- ------<br>------- --- ------ ----- --- ---- ------- -- ---- --- --<br>------- ------",152461,152458,152109,152090,152127,152479,,16,"1727,"
screen,html.Screen,1_1_1_1_17,2021-04-16T13:18:26.868Z,,,,,,,,,,,,,,,,54,,,,,,,,,,,,,,660,,response,,,,100,,,,,,,Space,keypress(Space),,,,,,,,-- --- ---- --- ------ ----- ------- ---- -- --- ------- --<br>------- ---------- ------ -- ----- in ----- -- ---- ------<br>--- ----- --- --- ------ -------- ----- --- ------ ----- --<br>----- ----- ---------- --- --- ------ ------ ---- -- ------<br>------- --- ------ ----- --- ---- ------- -- ---- --- --<br>------- ------,153125,153122,152462,152461,152479,153165,,17,in
screen,html.Screen,1_1_1_1_18,2021-04-16T13:18:27.265Z,,,,,,,,,,,,,,,,54,,,,,,,,,,,,,,370,,response,,,,100,,,,,,,Space,keypress(Space),,,,,,,,-- --- ---- --- ------ ----- ------- ---- -- --- ------- --<br>------- ---------- ------ -- ----- -- order -- ---- ------<br>--- ----- --- --- ------ -------- ----- --- ------ ----- --<br>----- ----- ---------- --- --- ------ ------ ---- -- ------<br>------- --- ------ ----- --- ---- ------- -- ---- --- --<br>------- ------,153522,153519,153149,153126,153165,153552,,18,order
screen,html.Screen,1_1_1_1_19,2021-04-16T13:18:27.623Z,,,,,,,,,,,,,,,,54,,,,,,,,,,,,,,340,,response,,,,100,,,,,,,Space,keypress(Space),,,,,,,,-- --- ---- --- ------ ----- ------- ---- -- --- ------- --<br>------- ---------- ------ -- ----- -- ----- to ---- ------<br>--- ----- --- --- ------ -------- ----- --- ------ ----- --<br>----- ----- ---------- --- --- ------ ------ ---- -- ------<br>------- --- ------ ----- --- ---- ------- -- ---- --- --<br>------- ------,153880,153876,153536,153522,153552,153906,,19,to
screen,html.Screen,1_1_1_1_20,2021-04-16T13:18:28.281Z,,,,,,,,,,,,,,,,54,,,,,,,,,,,,,,646,,response,,,,100,,,,,,,Space,keypress(Space),,,,,,,,-- --- ---- --- ------ ----- ------- ---- -- --- ------- --<br>------- ---------- ------ -- ----- -- ----- -- save ------<br>--- ----- --- --- ------ -------- ----- --- ------ ----- --<br>----- ----- ---------- --- --- ------ ------ ---- -- ------<br>------- --- ------ ----- --- ---- ------- -- ---- --- --<br>------- ------,154538,154535,153889,153880,153906,154575,,20,save
screen,html.Screen,1_1_1_1_21,2021-04-16T13:18:28.684Z,,,,,,,,,,,,,,,,54,,,,,,,,,,,,,,381.0000000000291,,response,,,,100,,,,,,,Space,keypress(Space),,,,,,,,"-- --- ---- --- ------ ----- ------- ---- -- --- ------- --<br>------- ---------- ------ -- ----- -- ----- -- ---- money,<br>--- ----- --- --- ------ -------- ----- --- ------ ----- --<br>----- ----- ---------- --- --- ------ ------ ---- -- ------<br>------- --- ------ ----- --- ---- ------- -- ---- --- --<br>------- ------",154941,154938.00000000003,154557,154538,154575,154961,,21,"money,"
screen,html.Screen,1_1_1_1_22,2021-04-16T13:18:29.088Z,,,,,,,,,,,,,,,,54,,,,,,,,,,,,,,398,,response,,,,100,,,,,,,Space,keypress(Space),,,,,,,,-- --- ---- --- ------ ----- ------- ---- -- --- ------- --<br>------- ---------- ------ -- ----- -- ----- -- ---- ------<br>the ----- --- --- ------ -------- ----- --- ------ ----- --<br>----- ----- ---------- --- --- ------ ------ ---- -- ------<br>------- --- ------ ----- --- ---- ------- -- ---- --- --<br>------- ------,155345,155341,154943,154941,154961,155381,,22,the
screen,html.Screen,1_1_1_1_23,2021-04-16T13:18:29.434Z,,,,,,,,,,,,,,,,54,,,,,,,,,,,,,,322,,response,,,,100,,,,,,,Space,keypress(Space),,,,,,,,-- --- ---- --- ------ ----- ------- ---- -- --- ------- --<br>------- ---------- ------ -- ----- -- ----- -- ---- ------<br>--- state --- --- ------ -------- ----- --- ------ ----- --<br>----- ----- ---------- --- --- ------ ------ ---- -- ------<br>------- --- ------ ----- --- ---- ------- -- ---- --- --<br>------- ------,155691,155687,155365,155345,155381,155718,,23,state
screen,html.Screen,1_1_1_1_24,2021-04-16T13:18:29.732Z,,,,,,,,,,,,,,,,54,,,,,,,,,,,,,,285,,response,,,,100,,,,,,,Space,keypress(Space),,,,,,,,-- --- ---- --- ------ ----- ------- ---- -- --- ------- --<br>------- ---------- ------ -- ----- -- ----- -- ---- ------<br>--- ----- cut --- ------ -------- ----- --- ------ ----- --<br>----- ----- ---------- --- --- ------ ------ ---- -- ------<br>------- --- ------ ----- --- ---- ------- -- ---- --- --<br>------- ------,155989,155986,155701,155691,155718,156021,,24,cut
screen,html.Screen,1_1_1_1_25,2021-04-16T13:18:30.409Z,,,,,,,,,,,,,,,,54,,,,,,,,,,,,,,658,,response,,,,100,,,,,,,Space,keypress(Space),,,,,,,,-- --- ---- --- ------ ----- ------- ---- -- --- ------- --<br>------- ---------- ------ -- ----- -- ----- -- ---- ------<br>--- ----- --- the ------ -------- ----- --- ------ ----- --<br>----- ----- ---------- --- --- ------ ------ ---- -- ------<br>------- --- ------ ----- --- ---- ------- -- ---- --- --<br>------- ------,156666,156662,156004,155990,156021,156706,,25,the
screen,html.Screen,1_1_1_1_26,2021-04-16T13:18:30.852Z,,,,,,,,,,,,,,,,54,,,,,,,,,,,,,,415,,response,,,,100,,,,,,,Space,keypress(Space),,,,,,,,-- --- ---- --- ------ ----- ------- ---- -- --- ------- --<br>------- ---------- ------ -- ----- -- ----- -- ---- ------<br>--- ----- --- --- bonds' -------- ----- --- ------ ----- --<br>----- ----- ---------- --- --- ------ ------ ---- -- ------<br>------- --- ------ ----- --- ---- ------- -- ---- --- --<br>------- ------,157109,157105,156690,156666,156706,157143,,26,bonds'
screen,html.Screen,1_1_1_1_27,2021-04-16T13:18:31.272Z,,,,,,,,,,,,,,,,54,,,,,,,,,,,,,,399,,response,,,,100,,,,,,,Space,keypress(Space),,,,,,,,-- --- ---- --- ------ ----- ------- ---- -- --- ------- --<br>------- ---------- ------ -- ----- -- ----- -- ---- ------<br>--- ----- --- --- ------ interest ----- --- ------ ----- --<br>----- ----- ---------- --- --- ------ ------ ---- -- ------<br>------- --- ------ ----- --- ---- ------- -- ---- --- --<br>------- ------,157529,157525,157126,157109,157143,157562,,27,interest
screen,html.Screen,1_1_1_1_28,2021-04-16T13:18:31.657Z,,,,,,,,,,,,,,,,54,,,,,,,,,,,,,,365,,response,,,,100,,,,,,,Space,keypress(Space),,,,,,,,-- --- ---- --- ------ ----- ------- ---- -- --- ------- --<br>------- ---------- ------ -- ----- -- ----- -- ---- ------<br>--- ----- --- --- ------ -------- rate. --- ------ ----- --<br>----- ----- ---------- --- --- ------ ------ ---- -- ------<br>------- --- ------ ----- --- ---- ------- -- ---- --- --<br>------- ------,157914.00000000003,157911,157546,157529,157562,157949,,28,rate.
screen,html.Screen,1_1_1_1_29,2021-04-16T13:18:33.688Z,,,,,,,,,,,,,,,,54,,,,,,,,,,,,,,2009,,response,,,,100,,,,,,,Space,keypress(Space),,,,,,,,-- --- ---- --- ------ ----- ------- ---- -- --- ------- --<br>------- ---------- ------ -- ----- -- ----- -- ---- ------<br>--- ----- --- --- ------ -------- ----- The ------ ----- --<br>----- ----- ---------- --- --- ------ ------ ---- -- ------<br>------- --- ------ ----- --- ---- ------- -- ---- --- --<br>------- ------,159945,159941,157932,157915,157949,159985,,29,The
screen,html.Screen,1_1_1_1_30,2021-04-16T13:18:34.361Z,,,,,,,,,,,,,,,,54,,,,,,,,,,,,,,647,,response,,,,100,,,,,,,Space,keypress(Space),,,,,,,,-- --- ---- --- ------ ----- ------- ---- -- --- ------- --<br>------- ---------- ------ -- ----- -- ----- -- ---- ------<br>--- ----- --- --- ------ -------- ----- --- market ----- --<br>----- ----- ---------- --- --- ------ ------ ---- -- ------<br>------- --- ------ ----- --- ---- ------- -- ---- --- --<br>------- ------,160618,160615,159968,159945,159985,160654,,30,market
screen,html.Screen,1_1_1_1_31,2021-04-16T13:18:34.747Z,,,,,,,,,,,,,,,,54,,,,,,,,,,,,,,362,,response,,,,100,,,,,,,Space,keypress(Space),,,,,,,,-- --- ---- --- ------ ----- ------- ---- -- --- ------- --<br>------- ---------- ------ -- ----- -- ----- -- ---- ------<br>--- ----- --- --- ------ -------- ----- --- ------ value --<br>----- ----- ---------- --- --- ------ ------ ---- -- ------<br>------- --- ------ ----- --- ---- ------- -- ---- --- --<br>------- ------,161004,161001,160639,160619,160654,161025,,31,value
screen,html.Screen,1_1_1_1_32,2021-04-16T13:18:35.038Z,,,,,,,,,,,,,,,,54,,,,,,,,,,,,,,283,,response,,,,100,,,,,,,Space,keypress(Space),,,,,,,,-- --- ---- --- ------ ----- ------- ---- -- --- ------- --<br>------- ---------- ------ -- ----- -- ----- -- ---- ------<br>--- ----- --- --- ------ -------- ----- --- ------ ----- of<br>----- ----- ---------- --- --- ------ ------ ---- -- ------<br>------- --- ------ ----- --- ---- ------- -- ---- --- --<br>------- ------,161295.00000000003,161291,161008,161004,161025,161328,,32,of
screen,html.Screen,1_1_1_1_33,2021-04-16T13:18:35.367Z,,,,,,,,,,,,,,,,54,,,,,,,,,,,,,,309,,response,,,,100,,,,,,,Space,keypress(Space),,,,,,,,-- --- ---- --- ------ ----- ------- ---- -- --- ------- --<br>------- ---------- ------ -- ----- -- ----- -- ---- ------<br>--- ----- --- --- ------ -------- ----- --- ------ ----- --<br>these ----- ---------- --- --- ------ ------ ---- -- ------<br>------- --- ------ ----- --- ---- ------- -- ---- --- --<br>------- ------,161624,161621,161312,161295.00000000003,161328,161648,,33,these
screen,html.Screen,1_1_1_1_34,2021-04-16T13:18:35.685Z,,,,,,,,,,,,,,,,54,,,,,,,,,,,,,,308,,response,,,,100,,,,,,,Space,keypress(Space),,,,,,,,-- --- ---- --- ------ ----- ------- ---- -- --- ------- --<br>------- ---------- ------ -- ----- -- ----- -- ---- ------<br>--- ----- --- --- ------ -------- ----- --- ------ ----- --<br>----- bonds ---------- --- --- ------ ------ ---- -- ------<br>------- --- ------ ----- --- ---- ------- -- ---- --- --<br>------- ------,161942,161939,161631,161624,161648,161968,,34,bonds
screen,html.Screen,1_1_1_1_35,2021-04-16T13:18:35.970Z,,,,,,,,,,,,,,,,54,,,,,,,,,,,,,,272,,response,,,,100,,,,,,,Space,keypress(Space),,,,,,,,"-- --- ---- --- ------ ----- ------- ---- -- --- ------- --<br>------- ---------- ------ -- ----- -- ----- -- ---- ------<br>--- ----- --- --- ------ -------- ----- --- ------ ----- --<br>----- ----- plummeted, --- --- ------ ------ ---- -- ------<br>------- --- ------ ----- --- ---- ------- -- ---- --- --<br>------- ------",162226,162223,161951,161943,161968,162253,,35,"plummeted,"
screen,html.Screen,1_1_1_1_36,2021-04-16T13:18:36.317Z,,,,,,,,,,,,,,,,54,,,,,,,,,,,,,,334,,response,,,,100,,,,,,,Space,keypress(Space),,,,,,,,-- --- ---- --- ------ ----- ------- ---- -- --- ------- --<br>------- ---------- ------ -- ----- -- ----- -- ---- ------<br>--- ----- --- --- ------ -------- ----- --- ------ ----- --<br>----- ----- ---------- and --- ------ ------ ---- -- ------<br>------- --- ------ ----- --- ---- ------- -- ---- --- --<br>------- ------,162574,162571,162237,162227,162253,162607,,36,and
screen,html.Screen,1_1_1_1_37,2021-04-16T13:18:36.593Z,,,,,,,,,,,,,,,,54,,,,,,,,,,,,,,257,,response,,,,100,,,,,,,Space,keypress(Space),,,,,,,,-- --- ---- --- ------ ----- ------- ---- -- --- ------- --<br>------- ---------- ------ -- ----- -- ----- -- ---- ------<br>--- ----- --- --- ------ -------- ----- --- ------ ----- --<br>----- ----- ---------- --- the ------ ------ ---- -- ------<br>------- --- ------ ----- --- ---- ------- -- ---- --- --<br>------- ------,162850,162847,162590,162574,162607,162876,,37,the
screen,html.Screen,1_1_1_1_38,2021-04-16T13:18:36.917Z,,,,,,,,,,,,,,,,54,,,,,,,,,,,,,,312,,response,,,,100,,,,,,,Space,keypress(Space),,,,,,,,-- --- ---- --- ------ ----- ------- ---- -- --- ------- --<br>------- ---------- ------ -- ----- -- ----- -- ---- ------<br>--- ----- --- --- ------ -------- ----- --- ------ ----- --<br>----- ----- ---------- --- --- market ------ ---- -- ------<br>------- --- ------ ----- --- ---- ------- -- ---- --- --<br>------- ------,163174,163171,162859,162850,162876,163194,,38,market
screen,html.Screen,1_1_1_1_39,2021-04-16T13:18:37.279Z,,,,,,,,,,,,,,,,54,,,,,,,,,,,,,,353,,response,,,,100,,,,,,,Space,keypress(Space),,,,,,,,-- --- ---- --- ------ ----- ------- ---- -- --- ------- --<br>------- ---------- ------ -- ----- -- ----- -- ---- ------<br>--- ----- --- --- ------ -------- ----- --- ------ ----- --<br>----- ----- ---------- --- --- ------ became ---- -- ------<br>------- --- ------ ----- --- ---- ------- -- ---- --- --<br>------- ------,163536,163532,163179,163174,163194,163565,,39,became
screen,html.Screen,1_1_1_1_40,2021-04-16T13:18:37.620Z,,,,,,,,,,,,,,,,54,,,,,,,,,,,,,,325,,response,,,,100,,,,,,,Space,keypress(Space),,,,,,,,-- --- ---- --- ------ ----- ------- ---- -- --- ------- --<br>------- ---------- ------ -- ----- -- ----- -- ---- ------<br>--- ----- --- --- ------ -------- ----- --- ------ ----- --<br>----- ----- ---------- --- --- ------ ------ wary -- ------<br>------- --- ------ ----- --- ---- ------- -- ---- --- --<br>------- ------,163877,163873,163548,163536,163565,163901,,40,wary
screen,html.Screen,1_1_1_1_41,2021-04-16T13:18:38.120Z,,,,,,,,,,,,,,,,54,,,,,,,,,,,,,,490,,response,,,,100,,,,,,,Space,keypress(Space),,,,,,,,-- --- ---- --- ------ ----- ------- ---- -- --- ------- --<br>------- ---------- ------ -- ----- -- ----- -- ---- ------<br>--- ----- --- --- ------ -------- ----- --- ------ ----- --<br>----- ----- ---------- --- --- ------ ------ ---- of ------<br>------- --- ------ ----- --- ---- ------- -- ---- --- --<br>------- ------,164377,164374,163884,163877,163901,164420,,41,of
screen,html.Screen,1_1_1_1_42,2021-04-16T13:18:38.488Z,,,,,,,,,,,,,,,,54,,,,,,,,,,,,,,339,,response,,,,100,,,,,,,Space,keypress(Space),,,,,,,,-- --- ---- --- ------ ----- ------- ---- -- --- ------- --<br>------- ---------- ------ -- ----- -- ----- -- ---- ------<br>--- ----- --- --- ------ -------- ----- --- ------ ----- --<br>----- ----- ---------- --- --- ------ ------ ---- -- French<br>------- --- ------ ----- --- ---- ------- -- ---- --- --<br>------- ------,164745,164742,164403,164377,164420,164773,,42,French
screen,html.Screen,1_1_1_1_43,2021-04-16T13:18:38.871Z,,,,,,,,,,,,,,,,54,,,,,,,,,,,,,,369,,response,,,,100,,,,,,,Space,keypress(Space),,,,,,,,-- --- ---- --- ------ ----- ------- ---- -- --- ------- --<br>------- ---------- ------ -- ----- -- ----- -- ---- ------<br>--- ----- --- --- ------ -------- ----- --- ------ ----- --<br>----- ----- ---------- --- --- ------ ------ ---- -- ------<br>credit. --- ------ ----- --- ---- ------- -- ---- --- --<br>------- ------,165128,165125,164756,164745,164773,165160,,43,credit.
screen,html.Screen,1_1_1_1_44,2021-04-16T13:18:39.407Z,,,,,,,,,,,,,,,,54,,,,,,,,,,,,,,517,,response,,,,100,,,,,,,Space,keypress(Space),,,,,,,,-- --- ---- --- ------ ----- ------- ---- -- --- ------- --<br>------- ---------- ------ -- ----- -- ----- -- ---- ------<br>--- ----- --- --- ------ -------- ----- --- ------ ----- --<br>----- ----- ---------- --- --- ------ ------ ---- -- ------<br>------- The ------ ----- --- ---- ------- -- ---- --- --<br>------- ------,165664.00000000003,165660,165143,165128,165160,165696,,44,The
screen,html.Screen,1_1_1_1_45,2021-04-16T13:18:39.727Z,,,,,,,,,,,,,,,,54,,,,,,,,,,,,,,303,,response,,,,100,,,,,,,Space,keypress(Space),,,,,,,,-- --- ---- --- ------ ----- ------- ---- -- --- ------- --<br>------- ---------- ------ -- ----- -- ----- -- ---- ------<br>--- ----- --- --- ------ -------- ----- --- ------ ----- --<br>----- ----- ---------- --- --- ------ ------ ---- -- ------<br>------- --- French ----- --- ---- ------- -- ---- --- --<br>------- ------,165984,165981,165678,165664.00000000003,165696,166015,,45,French
screen,html.Screen,1_1_1_1_46,2021-04-16T13:18:40.041Z,,,,,,,,,,,,,,,,54,,,,,,,,,,,,,,297.0000000000291,,response,,,,100,,,,,,,Space,keypress(Space),,,,,,,,-- --- ---- --- ------ ----- ------- ---- -- --- ------- --<br>------- ---------- ------ -- ----- -- ----- -- ---- ------<br>--- ----- --- --- ------ -------- ----- --- ------ ----- --<br>----- ----- ---------- --- --- ------ ------ ---- -- ------<br>------- --- ------ state --- ---- ------- -- ---- --- --<br>------- ------,166298,166295.00000000003,165998,165984,166015,166318,,46,state
screen,html.Screen,1_1_1_1_47,2021-04-16T13:18:40.377Z,,,,,,,,,,,,,,,,54,,,,,,,,,,,,,,329,,response,,,,100,,,,,,,Space,keypress(Space),,,,,,,,-- --- ---- --- ------ ----- ------- ---- -- --- ------- --<br>------- ---------- ------ -- ----- -- ----- -- ---- ------<br>--- ----- --- --- ------ -------- ----- --- ------ ----- --<br>----- ----- ---------- --- --- ------ ------ ---- -- ------<br>------- --- ------ ----- was ---- ------- -- ---- --- --<br>------- ------,166634,166630,166301,166298,166318,166654,,47,was
screen,html.Screen,1_1_1_1_48,2021-04-16T13:18:40.699Z,,,,,,,,,,,,,,,,54,,,,,,,,,,,,,,316,,response,,,,100,,,,,,,Space,keypress(Space),,,,,,,,-- --- ---- --- ------ ----- ------- ---- -- --- ------- --<br>------- ---------- ------ -- ----- -- ----- -- ---- ------<br>--- ----- --- --- ------ -------- ----- --- ------ ----- --<br>----- ----- ---------- --- --- ------ ------ ---- -- ------<br>------- --- ------ ----- --- left ------- -- ---- --- --<br>------- ------,166956.00000000003,166953,166637,166634,166654,166973,,48,left
screen,html.Screen,1_1_1_1_49,2021-04-16T13:18:40.960Z,,,,,,,,,,,,,,,,54,,,,,,,,,,,,,,256,,response,,,,100,,,,,,,Space,keypress(Space),,,,,,,,-- --- ---- --- ------ ----- ------- ---- -- --- ------- --<br>------- ---------- ------ -- ----- -- ----- -- ---- ------<br>--- ----- --- --- ------ -------- ----- --- ------ ----- --<br>----- ----- ---------- --- --- ------ ------ ---- -- ------<br>------- --- ------ ----- --- ---- without -- ---- --- --<br>------- ------,167217,167213,166957,166956.00000000003,166973,167242,,49,without
screen,html.Screen,1_1_1_1_50,2021-04-16T13:18:41.256Z,,,,,,,,,,,,,,,,54,,,,,,,,,,,,,,283,,response,,,,100,,,,,,,Space,keypress(Space),,,,,,,,-- --- ---- --- ------ ----- ------- ---- -- --- ------- --<br>------- ---------- ------ -- ----- -- ----- -- ---- ------<br>--- ----- --- --- ------ -------- ----- --- ------ ----- --<br>----- ----- ---------- --- --- ------ ------ ---- -- ------<br>------- --- ------ ----- --- ---- ------- an ---- --- --<br>------- ------,167513,167509,167226,167217,167242,167546,,50,an
screen,html.Screen,1_1_1_1_51,2021-04-16T13:18:41.544Z,,,,,,,,,,,,,,,,54,,,,,,,,,,,,,,269,,response,,,,100,,,,,,,Space,keypress(Space),,,,,,,,-- --- ---- --- ------ ----- ------- ---- -- --- ------- --<br>------- ---------- ------ -- ----- -- ----- -- ---- ------<br>--- ----- --- --- ------ -------- ----- --- ------ ----- --<br>----- ----- ---------- --- --- ------ ------ ---- -- ------<br>------- --- ------ ----- --- ---- ------- -- easy --- --<br>------- ------,167801.00000000003,167798,167529,167513,167546,167832,,51,easy
screen,html.Screen,1_1_1_1_52,2021-04-16T13:18:41.847Z,,,,,,,,,,,,,,,,54,,,,,,,,,,,,,,285,,response,,,,100,,,,,,,Space,keypress(Space),,,,,,,,-- --- ---- --- ------ ----- ------- ---- -- --- ------- --<br>------- ---------- ------ -- ----- -- ----- -- ---- ------<br>--- ----- --- --- ------ -------- ----- --- ------ ----- --<br>----- ----- ---------- --- --- ------ ------ ---- -- ------<br>------- --- ------ ----- --- ---- ------- -- ---- way --<br>------- ------,168104,168101,167816,167801.00000000003,167832,168135,,52,way
screen,html.Screen,1_1_1_1_53,2021-04-16T13:18:42.106Z,,,,,,,,,,,,,,,,54,,,,,,,,,,,,,,241,,response,,,,100,,,,,,,Space,keypress(Space),,,,,,,,-- --- ---- --- ------ ----- ------- ---- -- --- ------- --<br>------- ---------- ------ -- ----- -- ----- -- ---- ------<br>--- ----- --- --- ------ -------- ----- --- ------ ----- --<br>----- ----- ---------- --- --- ------ ------ ---- -- ------<br>------- --- ------ ----- --- ---- ------- -- ---- --- of<br>------- ------,168363,168360,168119,168104,168135,168388,,53,of
screen,html.Screen,1_1_1_1_54,2021-04-16T13:18:42.403Z,,,,,,,,,,,,,,,,54,,,,,,,,,,,,,,286,,response,,,,100,,,,,,,Space,keypress(Space),,,,,,,,-- --- ---- --- ------ ----- ------- ---- -- --- ------- --<br>------- ---------- ------ -- ----- -- ----- -- ---- ------<br>--- ----- --- --- ------ -------- ----- --- ------ ----- --<br>----- ----- ---------- --- --- ------ ------ ---- -- ------<br>------- --- ------ ----- --- ---- ------- -- ---- --- --<br>raising ------,168660,168657,168371,168363,168388,168690,,54,raising
screen,html.Screen,1_1_1_1_55,2021-04-16T13:18:42.697Z,,,,,,,,,,,,,,,,54,,,,,,,,,,,,,,277,,response,,,,100,,,,,,,Space,keypress(Space),,,,,,,,-- --- ---- --- ------ ----- ------- ---- -- --- ------- --<br>------- ---------- ------ -- ----- -- ----- -- ---- ------<br>--- ----- --- --- ------ -------- ----- --- ------ ----- --<br>----- ----- ---------- --- --- ------ ------ ---- -- ------<br>------- --- ------ ----- --- ---- ------- -- ---- --- --<br>------- money.,168954,168951,168674,168660,168690,168977,,55,money.
Item 100,flow.Loop,1_1_1_1,2021-04-16T13:18:42.698Z,,,,,,,,,,,,,,,,,,,,,,,,,,,,,,23181,,completion,,,,,A,,,,,,,,,,,silence,,,,,168955,168951,145754,145755,145770,168977,,,
Question 1,html.Screen,1_1_1_2,2021-04-16T13:18:46.549Z,,,,,,,,,,,,,,,,,,,,,,,,,,,true,TRUE,,3844,,response,,,,100,A,,,,,,TRUE,click #choice-1,,,,silence,,,,,172806,172804,168960,168955,168977,172835,,,
Question 2,html.Screen,1_1_1_3,2021-04-16T13:18:48.556Z,,,,,,,,,,,,,,,,,,,,,,,,,,,false,FALSE,,1993,,response,,,,100,A,,,,,,TRUE,click #choice-1,,,,silence,,,,,174813.00000000003,174811,172818,172806,172835,174839,,,
Item 100,flow.Sequence,1_1_1,2021-04-16T13:18:48.556Z,,,,,,,,,,,,,,,,,,,,,,,,,,,,,,39042,,completion,,,,,,,,,,,,,,,,,,,,,174813.00000000003,174811,135746,135733,135769,174839,,,
End of Practice,html.Page,1_1_2,2021-04-16T13:18:51.565Z,,,,,,,,,,,,,,,,,,,,,,,,,,,,,,2983,,form submission,,,,,,,,,,,,,,,,,,,,,177822,177822,174823,174813.00000000003,174839,177847,,,
Practice,flow.Sequence,1_1,2021-04-16T13:18:51.565Z,,,,,,,,,,,,,,,,,,,,,,,,,,,,,,86417,,completion,,,,,,,,,,,,,,,,,,,,,177822,177822,91390,91385,91405,177847,,,
Trap_instruction,html.Page,1_2_0,2021-04-16T13:18:56.050Z,,,,,,,,,,,,,,,,,,,,,,,,,,,,,,4459,,form submission,,,,,,,,,,,,,,,,,,,,,182307.00000000003,182306,177831,177822,177847,182336,,,
trap_trial,html.Screen,1_2_1,2021-04-16T13:18:59.041Z,,,,,,,,,,,,,,,,,,,,,,,,,,,true,1,,2976,,response,,,,,,,,,,,1,click #choice-1,,,,,,,,,185298,185296,182320,182307.00000000003,182336,185341,,,
end of trap trial,html.Page,1_2_2,2021-04-16T13:19:00.811Z,,,,,,,,,,,,,,,,,,,,,,,,,,,,,,1727,,form submission,,,,,,,,,,,,,,,,,,,,,187068,187068,185336,185298,185341,187089,,,
Trap 1,flow.Sequence,1_2,2021-04-16T13:19:00.812Z,,,,,,,,,,,,,,,,,,,,,,,,,,,,,,9221,,completion,,,,,,,,,,,,,,,,,,,,,187068,187068,177831,177822,177847,187089,,,
Standby,html.Page,1_3_0,2021-04-16T13:19:08.822Z,,,,,,,,,,,,,,,,,,,,,,,,,,,,,,8006,,timeout,,,,,,,,,,,,,,,,,,,,,195079,195079,187072,187069.00000000003,187089,195095,,,
Holding screen,html.Screen,1_3_1_0_0,2021-04-16T13:19:15.817Z,,,,,,,,,,,,,,,,,,,,,,,,,,,,,,6996,,timeout,,,,,,,,,,,,,,,,,,,,,202074,202074,195079,195079,195095,202091,,,
screen,html.Screen,1_3_1_0_1_0,2021-04-16T13:19:17.665Z,,,,,,,,,,,,,,,,15,,,,,,,,,,,,,,1843,,response,,,,7,A,,,,,,Space,keypress(Space),,,,silence,,,,Greg --------- ---------- - --- ------- -- --- ------------<br>----- -- -------- ------- ---- ------ - -------- ---- -----<br>--- ------- ---- -- --- -------- --- - ----- ------ ---- --<br>-------- --- -------- -------- --- -------- ---- -- ----- -<br>-------- ---- --- ---------- --------- -- ------- ------ -<br>--------- ----- -----,203921,203917,202074,202074,202091,203960,,0,Greg
screen,html.Screen,1_3_1_0_1_1,2021-04-16T13:19:18.100Z,,,,,,,,,,,,,,,,15,,,,,,,,,,,,,,409,,response,,,,7,A,,,,,,Space,keypress(Space),,,,silence,,,,"---- Anderson, ---------- - --- ------- -- --- ------------<br>----- -- -------- ------- ---- ------ - -------- ---- -----<br>--- ------- ---- -- --- -------- --- - ----- ------ ---- --<br>-------- --- -------- -------- --- -------- ---- -- ----- -<br>-------- ---- --- ---------- --------- -- ------- ------ -<br>--------- ----- -----",204357,204353,203944,203922,203960,204384,,1,"Anderson,"
screen,html.Screen,1_3_1_0_1_2,2021-04-16T13:19:18.751Z,,,,,,,,,,,,,,,,15,,,,,,,,,,,,,,637,,response,,,,7,A,,,,,,Space,keypress(Space),,,,silence,,,,---- --------- considered - --- ------- -- --- ------------<br>----- -- -------- ------- ---- ------ - -------- ---- -----<br>--- ------- ---- -- --- -------- --- - ----- ------ ---- --<br>-------- --- -------- -------- --- -------- ---- -- ----- -<br>-------- ---- --- ---------- --------- -- ------- ------ -<br>--------- ----- -----,205008,205004,204367,204357,204384,205038,,2,considered
screen,html.Screen,1_3_1_0_1_3,2021-04-16T13:19:19.142Z,,,,,,,,,,,,,,,,15,,,,,,,,,,,,,,374.0000000000291,,response,,,,7,A,,,,,,Space,keypress(Space),,,,silence,,,,---- --------- ---------- a --- ------- -- --- ------------<br>----- -- -------- ------- ---- ------ - -------- ---- -----<br>--- ------- ---- -- --- -------- --- - ----- ------ ---- --<br>-------- --- -------- -------- --- -------- ---- -- ----- -<br>-------- ---- --- ---------- --------- -- ------- ------ -<br>--------- ----- -----,205399,205396.00000000003,205022,205008,205038,205425,,3,a
screen,html.Screen,1_3_1_0_1_4,2021-04-16T13:19:19.506Z,,,,,,,,,,,,,,,,15,,,,,,,,,,,,,,353,,response,,,,7,A,,,,,,Space,keypress(Space),,,,silence,,,,---- --------- ---------- - key ------- -- --- ------------<br>----- -- -------- ------- ---- ------ - -------- ---- -----<br>--- ------- ---- -- --- -------- --- - ----- ------ ---- --<br>-------- --- -------- -------- --- -------- ---- -- ----- -<br>-------- ---- --- ---------- --------- -- ------- ------ -<br>--------- ----- -----,205763,205760,205407,205399,205425,205795,,4,key
screen,html.Screen,1_3_1_0_1_5,2021-04-16T13:19:19.809Z,,,,,,,,,,,,,,,,15,,,,,,,,,,,,,,285.0000000000291,,response,,,,7,A,,,,,,Space,keypress(Space),,,,silence,,,,---- --------- ---------- - --- witness -- --- ------------<br>----- -- -------- ------- ---- ------ - -------- ---- -----<br>--- ------- ---- -- --- -------- --- - ----- ------ ---- --<br>-------- --- -------- -------- --- -------- ---- -- ----- -<br>-------- ---- --- ---------- --------- -- ------- ------ -<br>--------- ----- -----,206066,206063.00000000003,205778,205763,205795,206098,,5,witness
screen,html.Screen,1_3_1_0_1_6,2021-04-16T13:19:20.213Z,,,,,,,,,,,,,,,,15,,,,,,,,,,,,,,386,,response,,,,7,A,,,,,,Space,keypress(Space),,,,silence,,,,---- --------- ---------- - --- ------- by --- ------------<br>----- -- -------- ------- ---- ------ - -------- ---- -----<br>--- ------- ---- -- --- -------- --- - ----- ------ ---- --<br>-------- --- -------- -------- --- -------- ---- -- ----- -<br>-------- ---- --- ---------- --------- -- ------- ------ -<br>--------- ----- -----,206470,206467,206081,206066,206098,206500,,6,by
screen,html.Screen,1_3_1_0_1_7,2021-04-16T13:19:20.525Z,,,,,,,,,,,,,,,,15,,,,,,,,,,,,,,295,,response,,,,7,A,,,,,,Space,keypress(Space),,,,silence,,,,---- --------- ---------- - --- ------- -- the ------------<br>----- -- -------- ------- ---- ------ - -------- ---- -----<br>--- ------- ---- -- --- -------- --- - ----- ------ ---- --<br>-------- --- -------- -------- --- -------- ---- -- ----- -<br>-------- ---- --- ---------- --------- -- ------- ------ -<br>--------- ----- -----,206782,206779,206484,206470,206500,206803,,7,the
screen,html.Screen,1_3_1_0_1_8,2021-04-16T13:19:20.865Z,,,,,,,,,,,,,,,,15,,,,,,,,,,,,,,332,,response,,,,7,A,,,,,,Space,keypress(Space),,,,silence,,,,"---- --------- ---------- - --- ------- -- --- prosecution,<br>----- -- -------- ------- ---- ------ - -------- ---- -----<br>--- ------- ---- -- --- -------- --- - ----- ------ ---- --<br>-------- --- -------- -------- --- -------- ---- -- ----- -<br>-------- ---- --- ---------- --------- -- ------- ------ -<br>--------- ----- -----",207122,207118,206786,206782,206803,207139,,8,"prosecution,"
screen,html.Screen,1_3_1_0_1_9,2021-04-16T13:19:21.385Z,,,,,,,,,,,,,,,,15,,,,,,,,,,,,,,515,,response,,,,7,A,,,,,,Space,keypress(Space),,,,silence,,,,---- --------- ---------- - --- ------- -- --- ------------<br>vowed -- -------- ------- ---- ------ - -------- ---- -----<br>--- ------- ---- -- --- -------- --- - ----- ------ ---- --<br>-------- --- -------- -------- --- -------- ---- -- ----- -<br>-------- ---- --- ---------- --------- -- ------- ------ -<br>--------- ----- -----,207642,207638,207123,207122,207139,207674,,9,vowed
screen,html.Screen,1_3_1_0_1_10,2021-04-16T13:19:21.675Z,,,,,,,,,,,,,,,,15,,,,,,,,,,,,,,270,,response,,,,7,A,,,,,,Space,keypress(Space),,,,silence,,,,---- --------- ---------- - --- ------- -- --- ------------<br>----- he -------- ------- ---- ------ - -------- ---- -----<br>--- ------- ---- -- --- -------- --- - ----- ------ ---- --<br>-------- --- -------- -------- --- -------- ---- -- ----- -<br>-------- ---- --- ---------- --------- -- ------- ------ -<br>--------- ----- -----,207932.00000000003,207928,207658,207642,207674,207962,,10,he
screen,html.Screen,1_3_1_0_1_11,2021-04-16T13:19:21.980Z,,,,,,,,,,,,,,,,15,,,,,,,,,,,,,,288,,response,,,,7,A,,,,,,Space,keypress(Space),,,,silence,,,,---- --------- ---------- - --- ------- -- --- ------------<br>----- -- wouldn't ------- ---- ------ - -------- ---- -----<br>--- ------- ---- -- --- -------- --- - ----- ------ ---- --<br>-------- --- -------- -------- --- -------- ---- -- ----- -<br>-------- ---- --- ---------- --------- -- ------- ------ -<br>--------- ----- -----,208236.00000000003,208233,207945,207932.00000000003,207962,208264,,11,wouldn't
screen,html.Screen,1_3_1_0_1_12,2021-04-16T13:19:22.316Z,,,,,,,,,,,,,,,,15,,,,,,,,,,,,,,321.0000000000291,,response,,,,7,A,,,,,,Space,keypress(Space),,,,silence,,,,---- --------- ---------- - --- ------- -- --- ------------<br>----- -- -------- testify ---- ------ - -------- ---- -----<br>--- ------- ---- -- --- -------- --- - ----- ------ ---- --<br>-------- --- -------- -------- --- -------- ---- -- ----- -<br>-------- ---- --- ---------- --------- -- ------- ------ -<br>--------- ----- -----,208573,208569.00000000003,208248,208237,208264,208600,,12,testify
screen,html.Screen,1_3_1_0_1_13,2021-04-16T13:19:22.618Z,,,,,,,,,,,,,,,,15,,,,,,,,,,,,,,287,,response,,,,7,A,,,,,,Space,keypress(Space),,,,silence,,,,---- --------- ---------- - --- ------- -- --- ------------<br>----- -- -------- ------- when ------ - -------- ---- -----<br>--- ------- ---- -- --- -------- --- - ----- ------ ---- --<br>-------- --- -------- -------- --- -------- ---- -- ----- -<br>-------- ---- --- ---------- --------- -- ------- ------ -<br>--------- ----- -----,208875,208871,208584,208573,208600,208903,,13,when
screen,html.Screen,1_3_1_0_1_14,2021-04-16T13:19:22.905Z,,,,,,,,,,,,,,,,15,,,,,,,,,,,,,,272.0000000000291,,response,,,,7,A,,,,,,Space,keypress(Space),,,,silence,,,,---- --------- ---------- - --- ------- -- --- ------------<br>----- -- -------- ------- ---- served - -------- ---- -----<br>--- ------- ---- -- --- -------- --- - ----- ------ ---- --<br>-------- --- -------- -------- --- -------- ---- -- ----- -<br>-------- ---- --- ---------- --------- -- ------- ------ -<br>--------- ----- -----,209162,209158.00000000003,208886,208875,208903,209189,,14,served
screen,html.Screen,1_3_1_0_1_15,2021-04-16T13:19:23.226Z,,,,,,,,,,,,,,,,15,,,,,,,,,,,,,,307,,response,,,,7,A,,,,,,Space,keypress(Space),,,,silence,,,,---- --------- ---------- - --- ------- -- --- ------------<br>----- -- -------- ------- ---- ------ a -------- ---- -----<br>--- ------- ---- -- --- -------- --- - ----- ------ ---- --<br>-------- --- -------- -------- --- -------- ---- -- ----- -<br>-------- ---- --- ---------- --------- -- ------- ------ -<br>--------- ----- -----,209483,209479,209172,209162,209189,209508,,15,a
screen,html.Screen,1_3_1_0_1_16,2021-04-16T13:19:23.562Z,,,,,,,,,,,,,,,,15,,,,,,,,,,,,,,323,,response,,,,7,A,,,,,,Space,keypress(Space),,,,silence,,,,---- --------- ---------- - --- ------- -- --- ------------<br>----- -- -------- ------- ---- ------ - subpoena ---- -----<br>--- ------- ---- -- --- -------- --- - ----- ------ ---- --<br>-------- --- -------- -------- --- -------- ---- -- ----- -<br>-------- ---- --- ---------- --------- -- ------- ------ -<br>--------- ----- -----,209819.00000000003,209815,209492,209483,209508,209845,,16,subpoena
screen,html.Screen,1_3_1_0_1_17,2021-04-16T13:19:24.175Z,,,,,,,,,,,,,,,,15,,,,,,,,,,,,,,600,,response,,,,7,A,,,,,,Space,keypress(Space),,,,silence,,,,---- --------- ---------- - --- ------- -- --- ------------<br>----- -- -------- ------- ---- ------ - -------- last -----<br>--- ------- ---- -- --- -------- --- - ----- ------ ---- --<br>-------- --- -------- -------- --- -------- ---- -- ----- -<br>-------- ---- --- ---------- --------- -- ------- ------ -<br>--------- ----- -----,210431,210428,209828,209819.00000000003,209845,210464,,17,last
screen,html.Screen,1_3_1_0_1_18,2021-04-16T13:19:24.534Z,,,,,,,,,,,,,,,,15,,,,,,,,,,,,,,340,,response,,,,7,A,,,,,,Space,keypress(Space),,,,silence,,,,---- --------- ---------- - --- ------- -- --- ------------<br>----- -- -------- ------- ---- ------ - -------- ---- week.<br>--- ------- ---- -- --- -------- --- - ----- ------ ---- --<br>-------- --- -------- -------- --- -------- ---- -- ----- -<br>-------- ---- --- ---------- --------- -- ------- ------ -<br>--------- ----- -----,210791,210787,210447,210432.00000000003,210464,210817,,18,week.
screen,html.Screen,1_3_1_0_1_19,2021-04-16T13:19:26.157Z,,,,,,,,,,,,,,,,15,,,,,,,,,,,,,,1611,,response,,,,7,A,,,,,,Space,keypress(Space),,,,silence,,,,---- --------- ---------- - --- ------- -- --- ------------<br>----- -- -------- ------- ---- ------ - -------- ---- -----<br>His ------- ---- -- --- -------- --- - ----- ------ ---- --<br>-------- --- -------- -------- --- -------- ---- -- ----- -<br>-------- ---- --- ---------- --------- -- ------- ------ -<br>--------- ----- -----,212414.00000000003,212410,210799,210791,210817,212452,,19,His
screen,html.Screen,1_3_1_0_1_20,2021-04-16T13:19:26.598Z,,,,,,,,,,,,,,,,15,,,,,,,,,,,,,,415,,response,,,,7,A,,,,,,Space,keypress(Space),,,,silence,,,,---- --------- ---------- - --- ------- -- --- ------------<br>----- -- -------- ------- ---- ------ - -------- ---- -----<br>--- lawyers ---- -- --- -------- --- - ----- ------ ---- --<br>-------- --- -------- -------- --- -------- ---- -- ----- -<br>-------- ---- --- ---------- --------- -- ------- ------ -<br>--------- ----- -----,212854,212851,212436,212414.00000000003,212452,212890,,20,lawyers
screen,html.Screen,1_3_1_0_1_21,2021-04-16T13:19:26.958Z,,,,,,,,,,,,,,,,15,,,,,,,,,,,,,,338,,response,,,,7,A,,,,,,Space,keypress(Space),,,,silence,,,,---- --------- ---------- - --- ------- -- --- ------------<br>----- -- -------- ------- ---- ------ - -------- ---- -----<br>--- ------- said -- --- -------- --- - ----- ------ ---- --<br>-------- --- -------- -------- --- -------- ---- -- ----- -<br>-------- ---- --- ---------- --------- -- ------- ------ -<br>--------- ----- -----,213215,213211,212873,212855.00000000003,212890,213242,,21,said
screen,html.Screen,1_3_1_0_1_22,2021-04-16T13:19:27.280Z,,,,,,,,,,,,,,,,15,,,,,,,,,,,,,,307.0000000000291,,response,,,,7,A,,,,,,Space,keypress(Space),,,,silence,,,,---- --------- ---------- - --- ------- -- --- ------------<br>----- -- -------- ------- ---- ------ - -------- ---- -----<br>--- ------- ---- he --- -------- --- - ----- ------ ---- --<br>-------- --- -------- -------- --- -------- ---- -- ----- -<br>-------- ---- --- ---------- --------- -- ------- ------ -<br>--------- ----- -----,213537,213533.00000000003,213226,213215,213242,213563,,22,he
screen,html.Screen,1_3_1_0_1_23,2021-04-16T13:19:27.554Z,,,,,,,,,,,,,,,,15,,,,,,,,,,,,,,262,,response,,,,7,A,,,,,,Space,keypress(Space),,,,silence,,,,---- --------- ---------- - --- ------- -- --- ------------<br>----- -- -------- ------- ---- ------ - -------- ---- -----<br>--- ------- ---- -- was -------- --- - ----- ------ ---- --<br>-------- --- -------- -------- --- -------- ---- -- ----- -<br>-------- ---- --- ---------- --------- -- ------- ------ -<br>--------- ----- -----,213811,213808,213546,213537,213563,213832,,23,was
screen,html.Screen,1_3_1_0_1_24,2021-04-16T13:19:27.881Z,,,,,,,,,,,,,,,,15,,,,,,,,,,,,,,319,,response,,,,7,A,,,,,,Space,keypress(Space),,,,silence,,,,---- --------- ---------- - --- ------- -- --- ------------<br>----- -- -------- ------- ---- ------ - -------- ---- -----<br>--- ------- ---- -- --- prepared --- - ----- ------ ---- --<br>-------- --- -------- -------- --- -------- ---- -- ----- -<br>-------- ---- --- ---------- --------- -- ------- ------ -<br>--------- ----- -----,214137,214134,213815,213812,213832,214168,,24,prepared
screen,html.Screen,1_3_1_0_1_25,2021-04-16T13:19:28.546Z,,,,,,,,,,,,,,,,15,,,,,,,,,,,,,,648,,response,,,,7,A,,,,,,Space,keypress(Space),,,,silence,,,,---- --------- ---------- - --- ------- -- --- ------------<br>----- -- -------- ------- ---- ------ - -------- ---- -----<br>--- ------- ---- -- --- -------- for - ----- ------ ---- --<br>-------- --- -------- -------- --- -------- ---- -- ----- -<br>-------- ---- --- ---------- --------- -- ------- ------ -<br>--------- ----- -----,214803,214799,214151,214138,214168,214837,,25,for
screen,html.Screen,1_3_1_0_1_26,2021-04-16T13:19:28.928Z,,,,,,,,,,,,,,,,15,,,,,,,,,,,,,,359,,response,,,,7,A,,,,,,Space,keypress(Space),,,,silence,,,,---- --------- ---------- - --- ------- -- --- ------------<br>----- -- -------- ------- ---- ------ - -------- ---- -----<br>--- ------- ---- -- --- -------- --- a ----- ------ ---- --<br>-------- --- -------- -------- --- -------- ---- -- ----- -<br>-------- ---- --- ---------- --------- -- ------- ------ -<br>--------- ----- -----,215185,215179,214820,214803,214837,215207,,26,a
screen,html.Screen,1_3_1_0_1_27,2021-04-16T13:19:29.326Z,,,,,,,,,,,,,,,,15,,,,,,,,,,,,,,390,,response,,,,7,A,,,,,,Space,keypress(Space),,,,silence,,,,---- --------- ---------- - --- ------- -- --- ------------<br>----- -- -------- ------- ---- ------ - -------- ---- -----<br>--- ------- ---- -- --- -------- --- - third ------ ---- --<br>-------- --- -------- -------- --- -------- ---- -- ----- -<br>-------- ---- --- ---------- --------- -- ------- ------ -<br>--------- ----- -----,215583,215580,215190,215185,215207,215626,,27,third
screen,html.Screen,1_3_1_0_1_28,2021-04-16T13:19:29.731Z,,,,,,,,,,,,,,,,15,,,,,,,,,,,,,,374,,response,,,,7,A,,,,,,Space,keypress(Space),,,,silence,,,,---- --------- ---------- - --- ------- -- --- ------------<br>----- -- -------- ------- ---- ------ - -------- ---- -----<br>--- ------- ---- -- --- -------- --- - ----- prison ---- --<br>-------- --- -------- -------- --- -------- ---- -- ----- -<br>-------- ---- --- ---------- --------- -- ------- ------ -<br>--------- ----- -----,215988,215984,215610,215583,215626,216012,,28,prison
screen,html.Screen,1_3_1_0_1_29,2021-04-16T13:19:30.203Z,,,,,,,,,,,,,,,,15,,,,,,,,,,,,,,461,,response,,,,7,A,,,,,,Space,keypress(Space),,,,silence,,,,---- --------- ---------- - --- ------- -- --- ------------<br>----- -- -------- ------- ---- ------ - -------- ---- -----<br>--- ------- ---- -- --- -------- --- - ----- ------ stay --<br>-------- --- -------- -------- --- -------- ---- -- ----- -<br>-------- ---- --- ---------- --------- -- ------- ------ -<br>--------- ----- -----,216460,216457,215996,215988,216012,216499,,29,stay
screen,html.Screen,1_3_1_0_1_30,2021-04-16T13:19:30.711Z,,,,,,,,,,,,,,,,15,,,,,,,,,,,,,,483,,response,,,,7,A,,,,,,Space,keypress(Space),,,,silence,,,,---- --------- ---------- - --- ------- -- --- ------------<br>----- -- -------- ------- ---- ------ - -------- ---- -----<br>--- ------- ---- -- --- -------- --- - ----- ------ ---- to<br>-------- --- -------- -------- --- -------- ---- -- ----- -<br>-------- ---- --- ---------- --------- -- ------- ------ -<br>--------- ----- -----,216968.00000000003,216965,216482,216460,216499,217002,,30,to
screen,html.Screen,1_3_1_0_1_31,2021-04-16T13:19:31.150Z,,,,,,,,,,,,,,,,15,,,,,,,,,,,,,,418,,response,,,,7,A,,,,,,Space,keypress(Space),,,,silence,,,,---- --------- ---------- - --- ------- -- --- ------------<br>----- -- -------- ------- ---- ------ - -------- ---- -----<br>--- ------- ---- -- --- -------- --- - ----- ------ ---- --<br>maintain --- -------- -------- --- -------- ---- -- ----- -<br>-------- ---- --- ---------- --------- -- ------- ------ -<br>--------- ----- -----,217407,217403,216985,216968.00000000003,217002,217438,,31,maintain
screen,html.Screen,1_3_1_0_1_32,2021-04-16T13:19:31.559Z,,,,,,,,,,,,,,,,15,,,,,,,,,,,,,,392.0000000000291,,response,,,,7,A,,,,,,Space,keypress(Space),,,,silence,,,,---- --------- ---------- - --- ------- -- --- ------------<br>----- -- -------- ------- ---- ------ - -------- ---- -----<br>--- ------- ---- -- --- -------- --- - ----- ------ ---- --<br>-------- his -------- -------- --- -------- ---- -- ----- -<br>-------- ---- --- ---------- --------- -- ------- ------ -<br>--------- ----- -----,217816,217813.00000000003,217421,217407,217438,217857,,32,his
screen,html.Screen,1_3_1_0_1_33,2021-04-16T13:19:31.892Z,,,,,,,,,,,,,,,,15,,,,,,,,,,,,,,305.0000000000291,,response,,,,7,A,,,,,,Space,keypress(Space),,,,silence,,,,---- --------- ---------- - --- ------- -- --- ------------<br>----- -- -------- ------- ---- ------ - -------- ---- -----<br>--- ------- ---- -- --- -------- --- - ----- ------ ---- --<br>-------- --- silence. -------- --- -------- ---- -- ----- -<br>-------- ---- --- ---------- --------- -- ------- ------ -<br>--------- ----- -----,218149,218146.00000000003,217841,217816,217857,218177,,33,silence.
screen,html.Screen,1_3_1_0_1_34,2021-04-16T13:19:32.507Z,,,,,,,,,,,,,,,,15,,,,,,,,,,,,,,600,,response,,,,7,A,,,,,,Space,keypress(Space),,,,silence,,,,---- --------- ---------- - --- ------- -- --- ------------<br>----- -- -------- ------- ---- ------ - -------- ---- -----<br>--- ------- ---- -- --- -------- --- - ----- ------ ---- --<br>-------- --- -------- Anderson --- -------- ---- -- ----- -<br>-------- ---- --- ---------- --------- -- ------- ------ -<br>--------- ----- -----,218763,218760,218160,218149,218177,218796,,34,Anderson
screen,html.Screen,1_3_1_0_1_35,2021-04-16T13:19:33.020Z,,,,,,,,,,,,,,,,15,,,,,,,,,,,,,,493,,response,,,,7,A,,,,,,Space,keypress(Space),,,,silence,,,,---- --------- ---------- - --- ------- -- --- ------------<br>----- -- -------- ------- ---- ------ - -------- ---- -----<br>--- ------- ---- -- --- -------- --- - ----- ------ ---- --<br>-------- --- -------- -------- was -------- ---- -- ----- -<br>-------- ---- --- ---------- --------- -- ------- ------ -<br>--------- ----- -----,219277.00000000003,219273,218780,218764,218796,219316,,35,was
screen,html.Screen,1_3_1_0_1_36,2021-04-16T13:19:33.439Z,,,,,,,,,,,,,,,,15,,,,,,,,,,,,,,393,,response,,,,7,A,,,,,,Space,keypress(Space),,,,silence,,,,---- --------- ---------- - --- ------- -- --- ------------<br>----- -- -------- ------- ---- ------ - -------- ---- -----<br>--- ------- ---- -- --- -------- --- - ----- ------ ---- --<br>-------- --- -------- -------- --- released ---- -- ----- -<br>-------- ---- --- ---------- --------- -- ------- ------ -<br>--------- ----- -----,219696,219692,219299,219277.00000000003,219316,219736,,36,released
screen,html.Screen,1_3_1_0_1_37,2021-04-16T13:19:33.826Z,,,,,,,,,,,,,,,,15,,,,,,,,,,,,,,361,,response,,,,7,A,,,,,,Space,keypress(Space),,,,silence,,,,---- --------- ---------- - --- ------- -- --- ------------<br>----- -- -------- ------- ---- ------ - -------- ---- -----<br>--- ------- ---- -- --- -------- --- - ----- ------ ---- --<br>-------- --- -------- -------- --- -------- July -- ----- -<br>-------- ---- --- ---------- --------- -- ------- ------ -<br>--------- ----- -----,220083,220080,219719,219696,219736,220105,,37,July
screen,html.Screen,1_3_1_0_1_38,2021-04-16T13:19:34.339Z,,,,,,,,,,,,,,,,15,,,,,,,,,,,,,,505.0000000000291,,response,,,,7,A,,,,,,Space,keypress(Space),,,,silence,,,,---- --------- ---------- - --- ------- -- --- ------------<br>----- -- -------- ------- ---- ------ - -------- ---- -----<br>--- ------- ---- -- --- -------- --- - ----- ------ ---- --<br>-------- --- -------- -------- --- -------- ---- 20 ----- -<br>-------- ---- --- ---------- --------- -- ------- ------ -<br>--------- ----- -----,220596,220593.00000000003,220088,220083,220105,220625,,38,20
screen,html.Screen,1_3_1_0_1_39,2021-04-16T13:19:34.850Z,,,,,,,,,,,,,,,,15,,,,,,,,,,,,,,496,,response,,,,7,A,,,,,,Space,keypress(Space),,,,silence,,,,---- --------- ---------- - --- ------- -- --- ------------<br>----- -- -------- ------- ---- ------ - -------- ---- -----<br>--- ------- ---- -- --- -------- --- - ----- ------ ---- --<br>-------- --- -------- -------- --- -------- ---- -- after -<br>-------- ---- --- ---------- --------- -- ------- ------ -<br>--------- ----- -----,221107,221103,220607,220596,220625,221144,,39,after
screen,html.Screen,1_3_1_0_1_40,2021-04-16T13:19:35.542Z,,,,,,,,,,,,,,,,15,,,,,,,,,,,,,,669,,response,,,,7,A,,,,,,Space,keypress(Space),,,,silence,,,,---- --------- ---------- - --- ------- -- --- ------------<br>----- -- -------- ------- ---- ------ - -------- ---- -----<br>--- ------- ---- -- --- -------- --- - ----- ------ ---- --<br>-------- --- -------- -------- --- -------- ---- -- ----- a<br>-------- ---- --- ---------- --------- -- ------- ------ -<br>--------- ----- -----,221799,221796,221127,221107,221144,221831,,40,a
screen,html.Screen,1_3_1_0_1_41,2021-04-16T13:19:36.193Z,,,,,,,,,,,,,,,,15,,,,,,,,,,,,,,632,,response,,,,7,A,,,,,,Space,keypress(Space),,,,silence,,,,---- --------- ---------- - --- ------- -- --- ------------<br>----- -- -------- ------- ---- ------ - -------- ---- -----<br>--- ------- ---- -- --- -------- --- - ----- ------ ---- --<br>-------- --- -------- -------- --- -------- ---- -- ----- -<br>two-week ---- --- ---------- --------- -- ------- ------ -<br>--------- ----- -----,222450.00000000003,222447,221815,221799,221831,222484,,41,two-week
screen,html.Screen,1_3_1_0_1_42,2021-04-16T13:19:36.593Z,,,,,,,,,,,,,,,,15,,,,,,,,,,,,,,379,,response,,,,7,A,,,,,,Space,keypress(Space),,,,silence,,,,---- --------- ---------- - --- ------- -- --- ------------<br>----- -- -------- ------- ---- ------ - -------- ---- -----<br>--- ------- ---- -- --- -------- --- - ----- ------ ---- --<br>-------- --- -------- -------- --- -------- ---- -- ----- -<br>-------- stay --- ---------- --------- -- ------- ------ -<br>--------- ----- -----,222850,222847,222468,222451,222484,222870,,42,stay
screen,html.Screen,1_3_1_0_1_43,2021-04-16T13:19:36.923Z,,,,,,,,,,,,,,,,15,,,,,,,,,,,,,,323,,response,,,,7,A,,,,,,Space,keypress(Space),,,,silence,,,,---- --------- ---------- - --- ------- -- --- ------------<br>----- -- -------- ------- ---- ------ - -------- ---- -----<br>--- ------- ---- -- --- -------- --- - ----- ------ ---- --<br>-------- --- -------- -------- --- -------- ---- -- ----- -<br>-------- ---- for ---------- --------- -- ------- ------ -<br>--------- ----- -----,223180,223177,222854,222850,222870,223207,,43,for
screen,html.Screen,1_3_1_0_1_44,2021-04-16T13:19:37.281Z,,,,,,,,,,,,,,,,15,,,,,,,,,,,,,,344,,response,,,,7,A,,,,,,Space,keypress(Space),,,,silence,,,,---- --------- ---------- - --- ------- -- --- ------------<br>----- -- -------- ------- ---- ------ - -------- ---- -----<br>--- ------- ---- -- --- -------- --- - ----- ------ ---- --<br>-------- --- -------- -------- --- -------- ---- -- ----- -<br>-------- ---- --- previously --------- -- ------- ------ -<br>--------- ----- -----,223538,223535,223191,223180,223207,223560,,44,previously
screen,html.Screen,1_3_1_0_1_45,2021-04-16T13:19:37.787Z,,,,,,,,,,,,,,,,15,,,,,,,,,,,,,,498,,response,,,,7,A,,,,,,Space,keypress(Space),,,,silence,,,,---- --------- ---------- - --- ------- -- --- ------------<br>----- -- -------- ------- ---- ------ - -------- ---- -----<br>--- ------- ---- -- --- -------- --- - ----- ------ ---- --<br>-------- --- -------- -------- --- -------- ---- -- ----- -<br>-------- ---- --- ---------- declining -- ------- ------ -<br>--------- ----- -----,224044,224041,223543,223538,223560,224079,,45,declining
screen,html.Screen,1_3_1_0_1_46,2021-04-16T13:19:38.201Z,,,,,,,,,,,,,,,,15,,,,,,,,,,,,,,393,,response,,,,7,A,,,,,,Space,keypress(Space),,,,silence,,,,---- --------- ---------- - --- ------- -- --- ------------<br>----- -- -------- ------- ---- ------ - -------- ---- -----<br>--- ------- ---- -- --- -------- --- - ----- ------ ---- --<br>-------- --- -------- -------- --- -------- ---- -- ----- -<br>-------- ---- --- ---------- --------- to ------- ------ -<br>--------- ----- -----,224458,224455,224062,224044,224079,224498,,46,to
screen,html.Screen,1_3_1_0_1_47,2021-04-16T13:19:38.661Z,,,,,,,,,,,,,,,,15,,,,,,,,,,,,,,433,,response,,,,7,A,,,,,,Space,keypress(Space),,,,silence,,,,---- --------- ---------- - --- ------- -- --- ------------<br>----- -- -------- ------- ---- ------ - -------- ---- -----<br>--- ------- ---- -- --- -------- --- - ----- ------ ---- --<br>-------- --- -------- -------- --- -------- ---- -- ----- -<br>-------- ---- --- ---------- --------- -- testify ------ -<br>--------- ----- -----,224918,224915,224482,224458,224498,224951,,47,testify
screen,html.Screen,1_3_1_0_1_48,2021-04-16T13:19:39.095Z,,,,,,,,,,,,,,,,15,,,,,,,,,,,,,,415.0000000000291,,response,,,,7,A,,,,,,Space,keypress(Space),,,,silence,,,,---- --------- ---------- - --- ------- -- --- ------------<br>----- -- -------- ------- ---- ------ - -------- ---- -----<br>--- ------- ---- -- --- -------- --- - ----- ------ ---- --<br>-------- --- -------- -------- --- -------- ---- -- ----- -<br>-------- ---- --- ---------- --------- -- ------- before -<br>--------- ----- -----,225352,225349.00000000003,224934,224918,224951,225387,,48,before
screen,html.Screen,1_3_1_0_1_49,2021-04-16T13:19:39.463Z,,,,,,,,,,,,,,,,15,,,,,,,,,,,,,,346,,response,,,,7,A,,,,,,Space,keypress(Space),,,,silence,,,,---- --------- ---------- - --- ------- -- --- ------------<br>----- -- -------- ------- ---- ------ - -------- ---- -----<br>--- ------- ---- -- --- -------- --- - ----- ------ ---- --<br>-------- --- -------- -------- --- -------- ---- -- ----- -<br>-------- ---- --- ---------- --------- -- ------- ------ a<br>--------- ----- -----,225720,225717,225371,225352,225387,225740,,49,a
screen,html.Screen,1_3_1_0_1_50,2021-04-16T13:19:39.877Z,,,,,,,,,,,,,,,,15,,,,,,,,,,,,,,408,,response,,,,7,A,,,,,,Space,keypress(Space),,,,silence,,,,---- --------- ---------- - --- ------- -- --- ------------<br>----- -- -------- ------- ---- ------ - -------- ---- -----<br>--- ------- ---- -- --- -------- --- - ----- ------ ---- --<br>-------- --- -------- -------- --- -------- ---- -- ----- -<br>-------- ---- --- ---------- --------- -- ------- ------ -<br>different ----- -----,226134,226131,225723,225720,225740,226176,,50,different
screen,html.Screen,1_3_1_0_1_51,2021-04-16T13:19:40.280Z,,,,,,,,,,,,,,,,15,,,,,,,,,,,,,,375,,response,,,,7,A,,,,,,Space,keypress(Space),,,,silence,,,,---- --------- ---------- - --- ------- -- --- ------------<br>----- -- -------- ------- ---- ------ - -------- ---- -----<br>--- ------- ---- -- --- -------- --- - ----- ------ ---- --<br>-------- --- -------- -------- --- -------- ---- -- ----- -<br>-------- ---- --- ---------- --------- -- ------- ------ -<br>--------- grand -----,226537,226534,226159,226134,226176,226562,,51,grand
screen,html.Screen,1_3_1_0_1_52,2021-04-16T13:19:40.662Z,,,,,,,,,,,,,,,,15,,,,,,,,,,,,,,371,,response,,,,7,A,,,,,,Space,keypress(Space),,,,silence,,,,---- --------- ---------- - --- ------- -- --- ------------<br>----- -- -------- ------- ---- ------ - -------- ---- -----<br>--- ------- ---- -- --- -------- --- - ----- ------ ---- --<br>-------- --- -------- -------- --- -------- ---- -- ----- -<br>-------- ---- --- ---------- --------- -- ------- ------ -<br>--------- ----- jury.,226919,226916,226545,226537,226562,226948,,52,jury.
Item 7,flow.Loop,1_3_1_0_1,2021-04-16T13:19:40.662Z,,,,,,,,,,,,,,,,,,,,,,,,,,,,,,24825,,completion,,,,,,,,,,,,,,,,,,,,,226919,226916,202074,202074,202091,226948,,,
Question 1,html.Screen,1_3_1_0_2,2021-04-16T13:19:42.683Z,,,,,,,,,,,,,,,,,,,,,,,,,,,true,FALSE,,2006.000000000029,,response,,,,7,A,,,,,,FALSE,click #choice-2,,,,silence,,,,,228940,228938.00000000003,226932,226919,226948,228975,,,
Question 2,html.Screen,1_3_1_0_3,2021-04-16T13:19:45.100Z,,,,,,,,,,,,,,,,,,,,,,,,,,,true,TRUE,,2398.000000000029,,response,,,,7,A,,,,,,TRUE,click #choice-1,,,,silence,,,,,231357,231355.00000000003,228957,228940,228975,231382,,,
Item 7,flow.Sequence,1_3_1_0,2021-04-16T13:19:45.100Z,,,,,,,,,,,,,,,,,,,,,,,,,,,,,,36260.00000000003,,completion,,,,,,,,,,,,,,,,,,,,,231357,231355.00000000003,195079,195079,195095,231382,,,
Holding screen,html.Screen,1_3_1_1_0,2021-04-16T13:19:52.113Z,,,,,,,,,,,,,,,,,,,,,,,,,,,,,,7004,,timeout,,,,,,,,,,,,,,,,,,,,,238370,238370,231365,231357,231382,238386,,,
screen,html.Screen,1_3_1_1_1_0,2021-04-16T13:19:52.729Z,,,,,,,,,,,,,,,,51,,,,,,,,,,,,,,612,,response,,,,13,A,,,,,,Space,keypress(Space),,,,silence,,,,American -------- --- --- ---- --- --- ------ -- --------<br>---- --------- --- ------- ------------ ---------- ---------<br>--- ---------- ------- ---------- ------- -- -------- ----<br>---- --- ------ ----- ------ -- ---- --- ----- -- - -------<br>-------- -- --- --- -- ----- ----------- ----- -----------<br>---- --- ---------- --- ---- --- -- ----------,238986.00000000003,238982,238370,238370,238386,239023,,0,American
screen,html.Screen,1_3_1_1_1_1,2021-04-16T13:19:53.137Z,,,,,,,,,,,,,,,,51,,,,,,,,,,,,,,385,,response,,,,13,A,,,,,,Space,keypress(Space),,,,silence,,,,-------- industry --- --- ---- --- --- ------ -- --------<br>---- --------- --- ------- ------------ ---------- ---------<br>--- ---------- ------- ---------- ------- -- -------- ----<br>---- --- ------ ----- ------ -- ---- --- ----- -- - -------<br>-------- -- --- --- -- ----- ----------- ----- -----------<br>---- --- ---------- --- ---- --- -- ----------,239394,239391,239006,238986.00000000003,239023,239432,,1,industry
screen,html.Screen,1_3_1_1_1_2,2021-04-16T13:19:53.513Z,,,,,,,,,,,,,,,,51,,,,,,,,,,,,,,352,,response,,,,13,A,,,,,,Space,keypress(Space),,,,silence,,,,-------- -------- may --- ---- --- --- ------ -- --------<br>---- --------- --- ------- ------------ ---------- ---------<br>--- ---------- ------- ---------- ------- -- -------- ----<br>---- --- ------ ----- ------ -- ---- --- ----- -- - -------<br>-------- -- --- --- -- ----- ----------- ----- -----------<br>---- --- ---------- --- ---- --- -- ----------,239770,239767,239415,239394,239432,239802,,2,may
screen,html.Screen,1_3_1_1_1_3,2021-04-16T13:19:53.846Z,,,,,,,,,,,,,,,,51,,,,,,,,,,,,,,314,,response,,,,13,A,,,,,,Space,keypress(Space),,,,silence,,,,-------- -------- --- not ---- --- --- ------ -- --------<br>---- --------- --- ------- ------------ ---------- ---------<br>--- ---------- ------- ---------- ------- -- -------- ----<br>---- --- ------ ----- ------ -- ---- --- ----- -- - -------<br>-------- -- --- --- -- ----- ----------- ----- -----------<br>---- --- ---------- --- ---- --- -- ----------,240103,240100,239786,239770,239802,240121,,3,not
screen,html.Screen,1_3_1_1_1_4,2021-04-16T13:19:54.192Z,,,,,,,,,,,,,,,,51,,,,,,,,,,,,,,342,,response,,,,13,A,,,,,,Space,keypress(Space),,,,silence,,,,-------- -------- --- --- know --- --- ------ -- --------<br>---- --------- --- ------- ------------ ---------- ---------<br>--- ---------- ------- ---------- ------- -- -------- ----<br>---- --- ------ ----- ------ -- ---- --- ----- -- - -------<br>-------- -- --- --- -- ----- ----------- ----- -----------<br>---- --- ---------- --- ---- --- -- ----------,240449,240446,240104,240103,240121,240474,,4,know
