sender,sender_type,sender_id,timestamp,meta,,Blues,Classical,Country,Dance,Electronic,Folk,Gospel,Hip-Hop,Jazz,Latin,Musical/Film,New-age,Pop,Provo_ID,R&B,Rap,Reggae,Religious,Rock,Soul,Swing,Traditional,age,artist_name,correct,correctResponse,distraction,duration,education,ended_on,familiarity,gender,headphone_check_performance,item,list,music_frequency,offensiveness,pleasantness,position_correct,preference,response,response_action,snippet_file,song_name,song_rating,sound,stimulus_1,stimulus_2,stimulus_3,text,time_commit,time_end,time_render,time_run,time_show,time_switch,url,word,word_ID
Introduction,html.Screen,0_0,2021-04-12T21:20:47.358Z,"{""labjs_version"":""20.2.2"",""labjs_build"":{""flavor"":""production"",""commit"":""a25486e0c714a0ae2ce03ff94b7bb6896854dcfa""},""location"":""https://run.pavlovia.org/mvasilev/music_c/"",""userAgent"":""Mozilla/5.0 (Windows NT 10.0; Win64; x64) AppleWebKit/537.36 (KHTML, like Gecko) Chrome/89.0.4389.114 Safari/537.36"",""platform"":""Win32"",""language"":""en-GB"",""locale"":""en-GB"",""timeZone"":""Europe/London"",""timezoneOffset"":-60,""screen_width"":1536,""screen_height"":864,""scroll_width"":1536,""scroll_height"":706,""window_innerWidth"":1536,""window_innerHeight"":754,""devicePixelRatio"":1.25}",,,,,,,,,,,,,,,,,,,,,,,,,,,,,7162.47099999963,,response,,,,,,,,,,,continue,click button,,,,,,,,,27896.349999999984,27895.40999999963,20716.332,6680.489999999736,20732.939,27910.184,{},,
Volume calibration,html.Screen,0_1,2021-04-12T21:21:09.032Z,,,,,,,,,,,,,,,,,,,,,,,,,,,,,,21657.99599999976,,response,,,,,,,,,,,continue,click button,,,,,,,,,49570.17999999971,49568.17999999976,27893.813,27896.51499999991,27910.184,49574.574,,,
Task instructions,html.Screen,0_2,2021-04-12T21:21:17.505Z,,,,,,,,,,,,,,,,,,,,,,,,,,,,,,8468.535999999614,,response,,,,,,,,,,,continue,click button,,,,,,,,,58043.760000000024,58043.109999999615,49558.008,49570.26999999971,49574.574,58050.621,,,
Sounds,html.Screen,0_3_0_0,2021-04-12T21:21:21.744Z,,,,,,,,,,,,,,,,,,,,,,,,,,,,,,4246.144,,timeout,,,,,,,,,3,,,,,,,,O,I,S,,62281.825000000026,62280.222,58033.95,58043.89499999979,58050.621,62296.765,,,
Judgement,html.Screen,0_3_0_1,2021-04-12T21:21:26.052Z,,,,,,,,,,,,,,,,,,,,,,,,,,,true,3,,4292.804999999644,,response,,,,,,,,,3,,3,click #choice-3,,,,,O,I,S,,66590.25999999995,66589.56999999964,62280.222,62281.9199999999,62296.765,66593.037,,,
Trial,flow.Sequence,0_3_0,2021-04-12T21:21:26.053Z,,,,,,,,,,,,,,,,,,,,,,,,,,,,,,8538.948999999644,,completion,,,,,,,,,3,,,,,,,,O,I,S,,66591.2699999999,66589.56999999964,58033.95,58043.86499999964,58050.621,66593.037,,,
Sounds,html.Screen,0_3_1_0,2021-04-12T21:21:30.285Z,,,,,,,,,,,,,,,,,,,,,,,,,,,,,,4246.305000000008,,timeout,,,,,,,,,2,,,,,,,,I,S,O,,70823.27499999973,70822.843,66576.511,66591.36499999977,66593.037,70839.342,,,
Judgement,html.Screen,0_3_1_1,2021-04-12T21:21:30.806Z,,,,,,,,,,,,,,,,,,,,,,,,,,,true,2,,504.547999999646,,response,,,,,,,,,2,,2,click #choice-2,,,,,I,S,O,,71344.4599999998,71343.88999999965,70822.843,70823.36999999962,70839.342,71372.182,,,
Trial,flow.Sequence,0_3_1,2021-04-12T21:21:30.806Z,,,,,,,,,,,,,,,,,,,,,,,,,,,,,,4750.852999999654,,completion,,,,,,,,,2,,,,,,,,I,S,O,,71344.57999999996,71343.88999999965,66576.511,66591.33999999994,66593.037,71372.182,,,
Sounds,html.Screen,0_3_2_0,2021-04-12T21:21:35.064Z,,,,,,,,,,,,,,,,,,,,,,,,,,,,,,4246.417000000001,,timeout,,,,,,,,,2,,,,,,,,O,S,I,,75602.62499999999,75601.85,71355.499,71344.66499999963,71372.182,75618.599,,,
Judgement,html.Screen,0_3_2_1,2021-04-12T21:21:35.427Z,,,,,,,,,,,,,,,,,,,,,,,,,,,true,2,,346.01099999998405,,response,,,,,,,,,2,,2,click #choice-2,,,,,O,S,I,,75965.15,75964.60999999999,75601.85,75602.70999999966,75618.599,75968.222,,,
Trial,flow.Sequence,0_3_2,2021-04-12T21:21:35.427Z,,,,,,,,,,,,,,,,,,,,,,,,,,,,,,4592.427999999985,,completion,,,,,,,,,2,,,,,,,,O,S,I,,75965.25999999995,75964.60999999999,71355.499,71344.6399999998,71372.182,75968.222,,,
Sounds,html.Screen,0_3_3_0,2021-04-12T21:21:39.660Z,,,,,,,,,,,,,,,,,,,,,,,,,,,,,,4246.207999999999,,timeout,,,,,,,,,1,,,,,,,,S,I,O,,80198.38499999969,80197.778,75951.571,75965.33999999973,75968.222,80214.43,,,
Judgement,html.Screen,0_3_3_1,2021-04-12T21:21:40.238Z,,,,,,,,,,,,,,,,,,,,,,,,,,,true,1,,559.3599999997386,,response,,,,,,,,,1,,1,click #choice-1,,,,,S,I,O,,80774.3049999999,80773.78999999973,80197.778,80198.49999999997,80214.43,80780.611,,,
Trial,flow.Sequence,0_3_3,2021-04-12T21:21:40.238Z,,,,,,,,,,,,,,,,,,,,,,,,,,,,,,4805.567999999737,,completion,,,,,,,,,1,,,,,,,,S,I,O,,80774.41999999974,80773.78999999973,75951.571,75965.30999999959,75968.222,80780.611,,,
Sounds,html.Screen,0_3_4_0,2021-04-12T21:21:44.476Z,,,,,,,,,,,,,,,,,,,,,,,,,,,,,,4246.292999999991,,timeout,,,,,,,,,3,,,,,,,,I,O,S,,85012.18999999992,85010.267,80763.939,80774.48999999979,80780.611,85026.904,,,
Judgement,html.Screen,0_3_4_1,2021-04-12T21:21:45.017Z,,,,,,,,,,,,,,,,,,,,,,,,,,,true,3,,526.3709999997664,,response,,,,,,,,,3,,3,click #choice-3,,,,,I,O,S,,85553.86499999986,85553.27499999976,85010.267,85012.25999999997,85026.904,85559.882,,,
Trial,flow.Sequence,0_3_4,2021-04-12T21:21:45.017Z,,,,,,,,,,,,,,,,,,,,,,,,,,,,,,4772.663999999757,,completion,,,,,,,,,3,,,,,,,,I,O,S,,85553.96999999994,85553.27499999976,80763.939,80774.46999999984,80780.611,85559.882,,,
Sounds,html.Screen,0_3_5_0,2021-04-12T21:21:49.254Z,,,,,,,,,,,,,,,,,,,,,,,,,,,,,,4246.354999999996,,timeout,,,,,,,,,1,,,,,,,,S,O,I,,89790.20499999978,89789.443,85543.281,85554.03999999998,85559.882,89806.237,,,
Judgement,html.Screen,0_3_5_1,2021-04-12T21:21:49.638Z,,,,,,,,,,,,,,,,,,,,,,,,,,,true,1,,367.89799999975367,,response,,,,,,,,,1,,1,click #choice-1,,,,,S,O,I,,90174.64999999994,90174.13499999975,89789.443,89790.34999999976,89806.237,90189.206,,,
Trial,flow.Sequence,0_3_5,2021-04-12T21:21:49.638Z,,,,,,,,,,,,,,,,,,,,,,,,,,,,,,4614.25299999975,,completion,,,,,,,,,1,,,,,,,,S,O,I,,90174.76499999975,90174.13499999975,85543.281,85554.01999999958,85559.882,90189.206,,,
Task,flow.Loop,0_3,2021-04-12T21:21:49.641Z,,,,,,,,,,,,,,,,,,,,,,,,,,,,,,32123.51399999975,,completion,,,1,,,,,,,,,,,,,,,,,,90177.20499999996,90174.13499999975,58033.95,58043.83499999995,58050.621,90189.206,,,
Trap,html.Screen,0_4,2021-04-12T21:21:49.641Z,,,,,,,,,,,,,,,,,,,,,,,,,,,,,,NaN,,skipped,,,,,,,,,,,,,,,,,,,,,90177.83999999984,90174.13499999975,,90177.77999999998,,90189.206,,,
Thanks,html.Screen,0_5,2021-04-12T21:21:52.647Z,,,,,,,,,,,,,,,,,,,,,,,,,,,,,,2994.0739999997313,,response,,,,,,,,,,,continue,click button,,,,,,,,,93183.75500000002,93183.27999999974,90172.481,90177.90500000001,90189.206,96466.925,,,
Headphone screening,flow.Sequence,0,2021-04-12T21:21:52.647Z,,,,,,,,,,,,,,,,,,,,,,,,,,,,,,72450.34099999974,,completion,,,,,,,,,,,,,,,,,,,,,93183.85999999964,93183.27999999974,20716.332,6680.444999999963,20732.939,96466.925,,,
Instructions,html.Page,1_0,2021-04-12T21:22:15.759Z,,,,,,,,,,,,,,,,,,,,,,,,,,,,,,19828.70999999995,,form submission,,,,,,,,,,,,,,,,,,,,,116295.76499999984,116295.63499999995,96450.242,96449.86499999958,96466.925,116299.621,,,
Holding screen,html.Screen,1_1_0_0,2021-04-12T21:22:25.755Z,,,,,,,,,,,,,,,,,,,,,,,,,,,,,,10007.963000000003,,timeout,,,,,,,,,,,,,,,,,,,,,126291.28999999966,126290.923,116283.154,116295.87999999967,116299.621,126307.584,,,
screen,html.Screen,1_1_0_1_0,2021-04-12T21:22:27.271Z,,,,,,,,,,,,,,,,53,,,,,,,,,,,,,,1498.2409999999072,,response,,,,99,,,,,,,Space,keypress(Space),,,,,,,,When -- ----- -- ------ - ------- --- ----------<br>------------- ------ ------ ---- ---- ------- ----- -- ----<br>-------- ------- -- ---------- --- - --- ----- ----- ----<br>---- --- --- ----- --- ---- ---- ------- ----- ---- -------<br>--- --- -- ----- -- --- ---- -- --- ---- -- ------ ------<br>--- ----- -- ----,127807.4399999996,127805.82499999991,126290.923,126291.40499999994,126307.584,127823.059,,0,When
screen,html.Screen,1_1_0_1_1,2021-04-12T21:22:28.103Z,,,,,,,,,,,,,,,,53,,,,,,,,,,,,,,815.895999999906,,response,,,,99,,,,,,,Space,keypress(Space),,,,,,,,---- it ----- -- ------ - ------- --- ----------<br>------------- ------ ------ ---- ---- ------- ----- -- ----<br>-------- ------- -- ---------- --- - --- ----- ----- ----<br>---- --- --- ----- --- ---- ---- ------- ----- ---- -------<br>--- --- -- ----- -- --- ---- -- --- ---- -- ------ ------<br>--- ----- -- ----,128639.31999999977,128638.9549999999,127806.227,127807.51999999984,127823.059,128655.695,,1,it
screen,html.Screen,1_1_0_1_2,2021-04-12T21:22:28.629Z,,,,,,,,,,,,,,,,53,,,,,,,,,,,,,,509.375,,response,,,,99,,,,,,,Space,keypress(Space),,,,,,,,---- -- comes -- ------ - ------- --- ----------<br>------------- ------ ------ ---- ---- ------- ----- -- ----<br>-------- ------- -- ---------- --- - --- ----- ----- ----<br>---- --- --- ----- --- ---- ---- ------- ----- ---- -------<br>--- --- -- ----- -- --- ---- -- --- ---- -- ------ ------<br>--- ----- -- ----,129165.52000000002,129165.07,128638.878,128639.38999999982,128655.695,129171.853,,2,comes
screen,html.Screen,1_1_0_1_3,2021-04-12T21:22:29.890Z,,,,,,,,,,,,,,,,53,,,,,,,,,,,,,,1254.0819999997475,,response,,,,99,,,,,,,Space,keypress(Space),,,,,,,,---- -- ----- to ------ - ------- --- ----------<br>------------- ------ ------ ---- ---- ------- ----- -- ----<br>-------- ------- -- ---------- --- - --- ----- ----- ----<br>---- --- --- ----- --- ---- ---- ------- ----- ---- -------<br>--- --- -- ----- -- --- ---- -- --- ---- -- ------ ------<br>--- ----- -- ----,130426.26999999993,130425.93499999975,129155.219,129166.06000000001,129171.853,130437.409,,3,to
screen,html.Screen,1_1_0_1_4,2021-04-12T21:22:30.520Z,,,,,,,,,,,,,,,,53,,,,,,,,,,,,,,618.4559999998164,,response,,,,99,,,,,,,Space,keypress(Space),,,,,,,,---- -- ----- -- having - ------- --- ----------<br>------------- ------ ------ ---- ---- ------- ----- -- ----<br>-------- ------- -- ---------- --- - --- ----- ----- ----<br>---- --- --- ----- --- ---- ---- ------- ----- ---- -------<br>--- --- -- ----- -- --- ---- -- --- ---- -- ------ ------<br>--- ----- -- ----,131056.19499999966,131055.86499999982,130420.811,130426.34499999986,130437.409,131070.094,,4,having
screen,html.Screen,1_1_0_1_5,2021-04-12T21:22:30.969Z,,,,,,,,,,,,,,,,53,,,,,,,,,,,,,,435.11099999993166,,response,,,,99,,,,,,,Space,keypress(Space),,,,,,,,---- -- ----- -- ------ a ------- --- ----------<br>------------- ------ ------ ---- ---- ------- ----- -- ----<br>-------- ------- -- ---------- --- - --- ----- ----- ----<br>---- --- --- ----- --- ---- ---- ------- ----- ---- -------<br>--- --- -- ----- -- --- ---- -- --- ---- -- ------ ------<br>--- ----- -- ----,131505.5299999999,131505.20499999993,131053.39,131056.25999999983,131070.094,131519.672,,5,a
screen,html.Screen,1_1_0_1_6,2021-04-12T21:22:31.508Z,,,,,,,,,,,,,,,,53,,,,,,,,,,,,,,524.4480000000331,,response,,,,99,,,,,,,Space,keypress(Space),,,,,,,,---- -- ----- -- ------ - lasting --- ----------<br>------------- ------ ------ ---- ---- ------- ----- -- ----<br>-------- ------- -- ---------- --- - --- ----- ----- ----<br>---- --- --- ----- --- ---- ---- ------- ----- ---- -------<br>--- --- -- ----- -- --- ---- -- --- ---- -- ------ ------<br>--- ----- -- ----,132044.4749999997,132044.12000000002,131503.002,131505.59999999995,131519.672,132052.535,,6,lasting
screen,html.Screen,1_1_0_1_7,2021-04-12T21:22:31.911Z,,,,,,,,,,,,,,,,53,,,,,,,,,,,,,,394.39999999993597,,response,,,,99,,,,,,,Space,keypress(Space),,,,,,,,---- -- ----- -- ------ - ------- and ----------<br>------------- ------ ------ ---- ---- ------- ----- -- ----<br>-------- ------- -- ---------- --- - --- ----- ----- ----<br>---- --- --- ----- --- ---- ---- ------- ----- ---- -------<br>--- --- -- ----- -- --- ---- -- --- ---- -- ------ ------<br>--- ----- -- ----,132447.3149999999,132446.93499999994,132035.873,132044.57999999978,132052.535,132452.206,,7,and
screen,html.Screen,1_1_0_1_8,2021-04-12T21:22:32.287Z,,,,,,,,,,,,,,,,53,,,,,,,,,,,,,,370.90899999969406,,response,,,,99,,,,,,,Space,keypress(Space),,,,,,,,---- -- ----- -- ------ - ------- --- fulfilling<br>------------- ------ ------ ---- ---- ------- ----- -- ----<br>-------- ------- -- ---------- --- - --- ----- ----- ----<br>---- --- --- ----- --- ---- ---- ------- ----- ---- -------<br>--- --- -- ----- -- --- ---- -- --- ---- -- ------ ------<br>--- ----- -- ----,132823.55999999982,132823.1149999997,132435.534,132447.3899999998,132452.206,132835.302,,8,fulfilling
screen,html.Screen,1_1_0_1_9,2021-04-12T21:22:32.970Z,,,,,,,,,,,,,,,,53,,,,,,,,,,,,,,670.6629999998258,,response,,,,99,,,,,,,Space,keypress(Space),,,,,,,,"---- -- ----- -- ------ - ------- --- ----------<br>relationship, ------ ------ ---- ---- ------- ----- -- ----<br>-------- ------- -- ---------- --- - --- ----- ----- ----<br>---- --- --- ----- --- ---- ---- ------- ----- ---- -------<br>--- --- -- ----- -- --- ---- -- --- ---- -- ------ ------<br>--- ----- -- ----",133506.39499999987,133505.96499999982,132818.691,132823.62999999986,132835.302,133517.94,,9,"relationship,"
screen,html.Screen,1_1_0_1_10,2021-04-12T21:22:33.440Z,,,,,,,,,,,,,,,,53,,,,,,,,,,,,,,458.6049999999814,,response,,,,99,,,,,,,Space,keypress(Space),,,,,,,,---- -- ----- -- ------ - ------- --- ----------<br>------------- common ------ ---- ---- ------- ----- -- ----<br>-------- ------- -- ---------- --- - --- ----- ----- ----<br>---- --- --- ----- --- ---- ---- ------- ----- ---- -------<br>--- --- -- ----- -- --- ---- -- --- ---- -- ------ ------<br>--- ----- -- ----,133976.94999999975,133976.54499999998,133501.457,133506.49499999965,133517.94,133984.18,,10,common
screen,html.Screen,1_1_0_1_11,2021-04-12T21:22:33.939Z,,,,,,,,,,,,,,,,53,,,,,,,,,,,,,,491.2300000000105,,response,,,,99,,,,,,,Space,keypress(Space),,,,,,,,---- -- ----- -- ------ - ------- --- ----------<br>------------- ------ wisdom ---- ---- ------- ----- -- ----<br>-------- ------- -- ---------- --- - --- ----- ----- ----<br>---- --- --- ----- --- ---- ---- ------- ----- ---- -------<br>--- --- -- ----- -- --- ---- -- --- ---- -- ------ ------<br>--- ----- -- ----,134475.73999999987,134475.41,133967.655,133977.04499999963,133984.18,134483.765,,11,wisdom
screen,html.Screen,1_1_0_1_12,2021-04-12T21:22:34.737Z,,,,,,,,,,,,,,,,53,,,,,,,,,,,,,,789.1449999996694,,response,,,,99,,,,,,,Space,keypress(Space),,,,,,,,---- -- ----- -- ------ - ------- --- ----------<br>------------- ------ ------ says ---- ------- ----- -- ----<br>-------- ------- -- ---------- --- - --- ----- ----- ----<br>---- --- --- ----- --- ---- ---- ------- ----- ---- -------<br>--- --- -- ----- -- --- ---- -- --- ---- -- ------ ------<br>--- ----- -- ----,135273.28999999963,135272.90999999968,134467.057,134475.8099999999,134483.765,135283.056,,12,says
screen,html.Screen,1_1_0_1_13,2021-04-12T21:22:35.271Z,,,,,,,,,,,,,,,,53,,,,,,,,,,,,,,523.5989999998419,,response,,,,99,,,,,,,Space,keypress(Space),,,,,,,,---- -- ----- -- ------ - ------- --- ----------<br>------------- ------ ------ ---- that ------- ----- -- ----<br>-------- ------- -- ---------- --- - --- ----- ----- ----<br>---- --- --- ----- --- ---- ---- ------- ----- ---- -------<br>--- --- -- ----- -- --- ---- -- --- ---- -- ------ ------<br>--- ----- -- ----,135807.19499999986,135806.65499999985,135266.383,135273.36999999988,135283.056,135815.917,,13,that
screen,html.Screen,1_1_0_1_14,2021-04-12T21:22:35.644Z,,,,,,,,,,,,,,,,53,,,,,,,,,,,,,,364.38799999988987,,response,,,,99,,,,,,,Space,keypress(Space),,,,,,,,---- -- ----- -- ------ - ------- --- ----------<br>------------- ------ ------ ---- ---- feeling ----- -- ----<br>-------- ------- -- ---------- --- - --- ----- ----- ----<br>---- --- --- ----- --- ---- ---- ------- ----- ---- -------<br>--- --- -- ----- -- --- ---- -- --- ---- -- ------ ------<br>--- ----- -- ----,136180.71999999983,136180.30499999988,135799.232,135807.32499999978,135815.917,136182.239,,14,feeling
screen,html.Screen,1_1_0_1_15,2021-04-12T21:22:36.018Z,,,,,,,,,,,,,,,,53,,,,,,,,,,,,,,371.630999999732,,response,,,,99,,,,,,,Space,keypress(Space),,,,,,,,---- -- ----- -- ------ - ------- --- ----------<br>------------- ------ ------ ---- ---- ------- close -- ----<br>-------- ------- -- ---------- --- - --- ----- ----- ----<br>---- --- --- ----- --- ---- ---- ------- ----- ---- -------<br>--- --- -- ----- -- --- ---- -- --- ---- -- ------ ------<br>--- ----- -- ----,136554.26499999975,136553.86999999973,136165.576,136180.82499999992,136182.239,136565.335,,15,close
screen,html.Screen,1_1_0_1_16,2021-04-12T21:22:36.319Z,,,,,,,,,,,,,,,,53,,,,,,,,,,,,,,289.4249999997264,,response,,,,99,,,,,,,Space,keypress(Space),,,,,,,,---- -- ----- -- ------ - ------- --- ----------<br>------------- ------ ------ ---- ---- ------- ----- to ----<br>-------- ------- -- ---------- --- - --- ----- ----- ----<br>---- --- --- ----- --- ---- ---- ------- ----- ---- -------<br>--- --- -- ----- -- --- ---- -- --- ---- -- ------ ------<br>--- ----- -- ----,136855.16499999995,136854.75999999972,136548.571,136554.33999999968,136565.335,136865.032,,16,to
screen,html.Screen,1_1_0_1_17,2021-04-12T21:22:36.658Z,,,,,,,,,,,,,,,,53,,,,,,,,,,,,,,328.70799999969313,,response,,,,99,,,,,,,Space,keypress(Space),,,,,,,,---- -- ----- -- ------ - ------- --- ----------<br>------------- ------ ------ ---- ---- ------- ----- -- your<br>-------- ------- -- ---------- --- - --- ----- ----- ----<br>---- --- --- ----- --- ---- ---- ------- ----- ---- -------<br>--- --- -- ----- -- --- ---- -- --- ---- -- ------ ------<br>--- ----- -- ----,137194.14499999993,137193.7399999997,136848.359,136855.235,136865.032,137198.017,,17,your
screen,html.Screen,1_1_0_1_18,2021-04-12T21:22:37.057Z,,,,,,,,,,,,,,,,53,,,,,,,,,,,,,,394.6979999997711,,response,,,,99,,,,,,,Space,keypress(Space),,,,,,,,---- -- ----- -- ------ - ------- --- ----------<br>------------- ------ ------ ---- ---- ------- ----- -- ----<br>romantic ------- -- ---------- --- - --- ----- ----- ----<br>---- --- --- ----- --- ---- ---- ------- ----- ---- -------<br>--- --- -- ----- -- --- ---- -- --- ---- -- ------ ------<br>--- ----- -- ----,137593.02499999967,137592.71499999976,137181.388,137194.2299999996,137198.017,137597.717,,18,romantic
screen,html.Screen,1_1_0_1_19,2021-04-12T21:22:37.380Z,,,,,,,,,,,,,,,,53,,,,,,,,,,,,,,318.4629999996978,,response,,,,99,,,,,,,Space,keypress(Space),,,,,,,,---- -- ----- -- ------ - ------- --- ----------<br>------------- ------ ------ ---- ---- ------- ----- -- ----<br>-------- partner -- ---------- --- - --- ----- ----- ----<br>---- --- --- ----- --- ---- ---- ------- ----- ---- -------<br>--- --- -- ----- -- --- ---- -- --- ---- -- ------ ------<br>--- ----- -- ----,137916.60999999975,137916.1799999997,137581.026,137593.08999999985,137597.717,137930.888,,19,partner
screen,html.Screen,1_1_0_1_20,2021-04-12T21:22:37.752Z,,,,,,,,,,,,,,,,53,,,,,,,,,,,,,,357.47200000000885,,response,,,,99,,,,,,,Space,keypress(Space),,,,,,,,---- -- ----- -- ------ - ------- --- ----------<br>------------- ------ ------ ---- ---- ------- ----- -- ----<br>-------- ------- is ---------- --- - --- ----- ----- ----<br>---- --- --- ----- --- ---- ---- ------- ----- ---- -------<br>--- --- -- ----- -- --- ---- -- --- ---- -- ------ ------<br>--- ----- -- ----,138288.74499999982,138288.36000000002,137914.237,137916.67999999982,137930.888,138297.137,,20,is
screen,html.Screen,1_1_0_1_21,2021-04-12T21:22:38.141Z,,,,,,,,,,,,,,,,53,,,,,,,,,,,,,,380.097999999678,,response,,,,99,,,,,,,Space,keypress(Space),,,,,,,,---- -- ----- -- ------ - ------- --- ----------<br>------------- ------ ------ ---- ---- ------- ----- -- ----<br>-------- ------- -- paramount. --- - --- ----- ----- ----<br>---- --- --- ----- --- ---- ---- ------- ----- ---- -------<br>--- --- -- ----- -- --- ---- -- --- ---- -- ------ ------<br>--- ----- -- ----,138677.61999999994,138677.23499999967,138280.602,138288.81,138297.137,138680.119,,21,paramount.
screen,html.Screen,1_1_0_1_22,2021-04-12T21:22:38.559Z,,,,,,,,,,,,,,,,53,,,,,,,,,,,,,,415.1759999996284,,response,,,,99,,,,,,,Space,keypress(Space),,,,,,,,---- -- ----- -- ------ - ------- --- ----------<br>------------- ------ ------ ---- ---- ------- ----- -- ----<br>-------- ------- -- ---------- But - --- ----- ----- ----<br>---- --- --- ----- --- ---- ---- ------- ----- ---- -------<br>--- --- -- ----- -- --- ---- -- --- ---- -- ------ ------<br>--- ----- -- ----,139095.73999999976,139095.29499999963,138663.605,138677.68499999965,138680.119,139116.446,,22,But
screen,html.Screen,1_1_0_1_23,2021-04-12T21:22:38.869Z,,,,,,,,,,,,,,,,53,,,,,,,,,,,,,,288.6289999996661,,response,,,,99,,,,,,,Space,keypress(Space),,,,,,,,---- -- ----- -- ------ - ------- --- ----------<br>------------- ------ ------ ---- ---- ------- ----- -- ----<br>-------- ------- -- ---------- --- a --- ----- ----- ----<br>---- --- --- ----- --- ---- ---- ------- ----- ---- -------<br>--- --- -- ----- -- --- ---- -- --- ---- -- ------ ------<br>--- ----- -- ----,139405.51499999993,139405.07499999966,139079.856,139095.80499999993,139116.446,139412.97,,23,a
screen,html.Screen,1_1_0_1_24,2021-04-12T21:22:39.142Z,,,,,,,,,,,,,,,,53,,,,,,,,,,,,,,264.9499999996333,,response,,,,99,,,,,,,Space,keypress(Space),,,,,,,,---- -- ----- -- ------ - ------- --- ----------<br>------------- ------ ------ ---- ---- ------- ----- -- ----<br>-------- ------- -- ---------- --- - new ----- ----- ----<br>---- --- --- ----- --- ---- ---- ------- ----- ---- -------<br>--- --- -- ----- -- --- ---- -- --- ---- -- ------ ------<br>--- ----- -- ----,139678.3449999998,139677.91999999963,139396.127,139405.58499999996,139412.97,139705.758,,24,new
screen,html.Screen,1_1_0_1_25,2021-04-12T21:22:39.446Z,,,,,,,,,,,,,,,,53,,,,,,,,,,,,,,276.3169999998936,,response,,,,99,,,,,,,Space,keypress(Space),,,,,,,,---- -- ----- -- ------ - ------- --- ----------<br>------------- ------ ------ ---- ---- ------- ----- -- ----<br>-------- ------- -- ---------- --- - --- study ----- ----<br>---- --- --- ----- --- ---- ---- ------- ----- ---- -------<br>--- --- -- ----- -- --- ---- -- --- ---- -- ------ ------<br>--- ----- -- ----,139982.5599999999,139982.0749999999,139662.719,139678.40999999997,139705.758,139995.774,,25,study
screen,html.Screen,1_1_0_1_26,2021-04-12T21:22:39.695Z,,,,,,,,,,,,,,,,53,,,,,,,,,,,,,,235.74599999981,,response,,,,99,,,,,,,Space,keypress(Space),,,,,,,,---- -- ----- -- ------ - ------- --- ----------<br>------------- ------ ------ ---- ---- ------- ----- -- ----<br>-------- ------- -- ---------- --- - --- ----- finds ----<br>---- --- --- ----- --- ---- ---- ------- ----- ---- -------<br>--- --- -- ----- -- --- ---- -- --- ---- -- ------ ------<br>--- ----- -- ----,140231.90999999997,140231.51999999981,139979.119,139982.62999999998,139995.774,140245.57,,26,finds
screen,html.Screen,1_1_0_1_27,2021-04-12T21:22:40.209Z,,,,,,,,,,,,,,,,53,,,,,,,,,,,,,,499.66999999972177,,response,,,,99,,,,,,,Space,keypress(Space),,,,,,,,---- -- ----- -- ------ - ------- --- ----------<br>------------- ------ ------ ---- ---- ------- ----- -- ----<br>-------- ------- -- ---------- --- - --- ----- ----- that<br>---- --- --- ----- --- ---- ---- ------- ----- ---- -------<br>--- --- -- ----- -- --- ---- -- --- ---- -- ------ ------<br>--- ----- -- ----,140745.59499999986,140745.23999999973,140228.887,140231.98,140245.57,140761.685,,27,that
screen,html.Screen,1_1_0_1_28,2021-04-12T21:22:40.531Z,,,,,,,,,,,,,,,,53,,,,,,,,,,,,,,304.21499999961816,,response,,,,99,,,,,,,Space,keypress(Space),,,,,,,,---- -- ----- -- ------ - ------- --- ----------<br>------------- ------ ------ ---- ---- ------- ----- -- ----<br>-------- ------- -- ---------- --- - --- ----- ----- ----<br>it's --- --- ----- --- ---- ---- ------- ----- ---- -------<br>--- --- -- ----- -- --- ---- -- --- ---- -- ------ ------<br>--- ----- -- ----,141066.34499999974,141065.89999999962,140745.115,140745.66499999992,140761.685,141077.987,,28,it's
screen,html.Screen,1_1_0_1_29,2021-04-12T21:22:40.875Z,,,,,,,,,,,,,,,,53,,,,,,,,,,,,,,331.5879999996687,,response,,,,99,,,,,,,Space,keypress(Space),,,,,,,,---- -- ----- -- ------ - ------- --- ----------<br>------------- ------ ------ ---- ---- ------- ----- -- ----<br>-------- ------- -- ---------- --- - --- ----- ----- ----<br>---- not --- ----- --- ---- ---- ------- ----- ---- -------<br>--- --- -- ----- -- --- ---- -- --- ---- -- ------ ------<br>--- ----- -- ----,141410.0099999996,141409.57499999966,141061.505,141066.41499999978,141077.987,141430.918,,29,not
screen,html.Screen,1_1_0_1_30,2021-04-12T21:22:41.318Z,,,,,,,,,,,,,,,,53,,,,,,,,,,,,,,421.9569999995874,,response,,,,99,,,,,,,Space,keypress(Space),,,,,,,,---- -- ----- -- ------ - ------- --- ----------<br>------------- ------ ------ ---- ---- ------- ----- -- ----<br>-------- ------- -- ---------- --- - --- ----- ----- ----<br>---- --- how ----- --- ---- ---- ------- ----- ---- -------<br>--- --- -- ----- -- --- ---- -- --- ---- -- ------ ------<br>--- ----- -- ----,141853.41499999957,141852.8749999996,141394.459,141410.07999999967,141430.918,141860.783,,30,how
screen,html.Screen,1_1_0_1_31,2021-04-12T21:22:41.571Z,,,,,,,,,,,,,,,,53,,,,,,,,,,,,,,244.94699999978184,,response,,,,99,,,,,,,Space,keypress(Space),,,,,,,,---- -- ----- -- ------ - ------- --- ----------<br>------------- ------ ------ ---- ---- ------- ----- -- ----<br>-------- ------- -- ---------- --- - --- ----- ----- ----<br>---- --- --- close --- ---- ---- ------- ----- ---- -------<br>--- --- -- ----- -- --- ---- -- --- ---- -- ------ ------<br>--- ----- -- ----,142106.135,142105.72999999978,141844.157,141853.47999999975,141860.783,142110.452,,31,close
screen,html.Screen,1_1_0_1_32,2021-04-12T21:22:41.890Z,,,,,,,,,,,,,,,,53,,,,,,,,,,,,,,314.32299999997485,,response,,,,99,,,,,,,Space,keypress(Space),,,,,,,,---- -- ----- -- ------ - ------- --- ----------<br>------------- ------ ------ ---- ---- ------- ----- -- ----<br>-------- ------- -- ---------- --- - --- ----- ----- ----<br>---- --- --- ----- you ---- ---- ------- ----- ---- -------<br>--- --- -- ----- -- --- ---- -- --- ---- -- ------ ------<br>--- ----- -- ----,142425.26999999973,142424.77499999997,142093.946,142106.19999999972,142110.452,142426.799,,32,you
screen,html.Screen,1_1_0_1_33,2021-04-12T21:22:42.219Z,,,,,,,,,,,,,,,,53,,,,,,,,,,,,,,326.5559999998368,,response,,,,99,,,,,,,Space,keypress(Space),,,,,,,,---- -- ----- -- ------ - ------- --- ----------<br>------------- ------ ------ ---- ---- ------- ----- -- ----<br>-------- ------- -- ---------- --- - --- ----- ----- ----<br>---- --- --- ----- --- feel ---- ------- ----- ---- -------<br>--- --- -- ----- -- --- ---- -- --- ---- -- ------ ------<br>--- ----- -- ----,142753.745,142753.35499999984,142410.32,142425.3349999999,142426.799,142760.011,,33,feel
screen,html.Screen,1_1_0_1_34,2021-04-12T21:22:42.539Z,,,,,,,,,,,,,,,,53,,,,,,,,,,,,,,313.1189999997732,,response,,,,99,,,,,,,Space,keypress(Space),,,,,,,,---- -- ----- -- ------ - ------- --- ----------<br>------------- ------ ------ ---- ---- ------- ----- -- ----<br>-------- ------- -- ---------- --- - --- ----- ----- ----<br>---- --- --- ----- --- ---- that ------- ----- ---- -------<br>--- --- -- ----- -- --- ---- -- --- ---- -- ------ ------<br>--- ----- -- ----,143073.62999999986,143073.12999999977,142743.383,142753.8099999997,142760.011,143076.245,,34,that
screen,html.Screen,1_1_0_1_35,2021-04-12T21:22:42.804Z,,,,,,,,,,,,,,,,53,,,,,,,,,,,,,,262.074999999837,,response,,,,99,,,,,,,Space,keypress(Space),,,,,,,,---- -- ----- -- ------ - ------- --- ----------<br>------------- ------ ------ ---- ---- ------- ----- -- ----<br>-------- ------- -- ---------- --- - --- ----- ----- ----<br>---- --- --- ----- --- ---- ---- matters ----- ---- -------<br>--- --- -- ----- -- --- ---- -- --- ---- -- ------ ------<br>--- ----- -- ----,143338.69499999992,143338.31999999983,143059.753,143073.69999999992,143076.245,143342.715,,35,matters
screen,html.Screen,1_1_0_1_36,2021-04-12T21:22:43.079Z,,,,,,,,,,,,,,,,53,,,,,,,,,,,,,,271.1050000000396,,response,,,,99,,,,,,,Space,keypress(Space),,,,,,,,"---- -- ----- -- ------ - ------- --- ----------<br>------------- ------ ------ ---- ---- ------- ----- -- ----<br>-------- ------- -- ---------- --- - --- ----- ----- ----<br>---- --- --- ----- --- ---- ---- ------- most, ---- -------<br>--- --- -- ----- -- --- ---- -- --- ---- -- ------ ------<br>--- ----- -- ----",143614.24499999976,143613.82000000004,143326.193,143338.75999999963,143342.715,143625.838,,36,"most,"
screen,html.Screen,1_1_0_1_37,2021-04-12T21:22:43.420Z,,,,,,,,,,,,,,,,53,,,,,,,,,,,,,,328.8269999997574,,response,,,,99,,,,,,,Space,keypress(Space),,,,,,,,---- -- ----- -- ------ - ------- --- ----------<br>------------- ------ ------ ---- ---- ------- ----- -- ----<br>-------- ------- -- ---------- --- - --- ----- ----- ----<br>---- --- --- ----- --- ---- ---- ------- ----- it's -------<br>--- --- -- ----- -- --- ---- -- --- ---- -- ------ ------<br>--- ----- -- ----,143955.0999999997,143954.66499999975,143609.287,143614.30999999994,143625.838,143958.957,,37,it's
screen,html.Screen,1_1_0_1_38,2021-04-12T21:22:43.750Z,,,,,,,,,,,,,,,,53,,,,,,,,,,,,,,325.44799999988754,,response,,,,99,,,,,,,Space,keypress(Space),,,,,,,,---- -- ----- -- ------ - ------- --- ----------<br>------------- ------ ------ ---- ---- ------- ----- -- ----<br>-------- ------- -- ---------- --- - --- ----- ----- ----<br>---- --- --- ----- --- ---- ---- ------- ----- ---- whether<br>--- --- -- ----- -- --- ---- -- --- ---- -- ------ ------<br>--- ----- -- ----,144284.7899999997,144284.40499999988,143942.337,143955.16499999986,143958.957,144291.918,,38,whether
screen,html.Screen,1_1_0_1_39,2021-04-12T21:22:44.042Z,,,,,,,,,,,,,,,,53,,,,,,,,,,,,,,284.62200000003213,,response,,,,99,,,,,,,Space,keypress(Space),,,,,,,,---- -- ----- -- ------ - ------- --- ----------<br>------------- ------ ------ ---- ---- ------- ----- -- ----<br>-------- ------- -- ---------- --- - --- ----- ----- ----<br>---- --- --- ----- --- ---- ---- ------- ----- ---- -------<br>you --- -- ----- -- --- ---- -- --- ---- -- ------ ------<br>--- ----- -- ----,144576.93999999992,144576.54000000004,144275.376,144284.85499999986,144291.918,144591.799,,39,you
screen,html.Screen,1_1_0_1_40,2021-04-12T21:22:44.323Z,,,,,,,,,,,,,,,,53,,,,,,,,,,,,,,265.64599999965867,,response,,,,99,,,,,,,Space,keypress(Space),,,,,,,,---- -- ----- -- ------ - ------- --- ----------<br>------------- ------ ------ ---- ---- ------- ----- -- ----<br>-------- ------- -- ---------- --- - --- ----- ----- ----<br>---- --- --- ----- --- ---- ---- ------- ----- ---- -------<br>--- are -- ----- -- --- ---- -- --- ---- -- ------ ------<br>--- ----- -- ----,144857.80999999997,144857.44499999966,144575.068,144577.00499999966,144591.799,144874.723,,40,are
screen,html.Screen,1_1_0_1_41,2021-04-12T21:22:44.643Z,,,,,,,,,,,,,,,,53,,,,,,,,,,,,,,302.93699999983073,,response,,,,99,,,,,,,Space,keypress(Space),,,,,,,,---- -- ----- -- ------ - ------- --- ----------<br>------------- ------ ------ ---- ---- ------- ----- -- ----<br>-------- ------- -- ---------- --- - --- ----- ----- ----<br>---- --- --- ----- --- ---- ---- ------- ----- ---- -------<br>--- --- as ----- -- --- ---- -- --- ---- -- ------ ------<br>--- ----- -- ----,145178.04499999966,145177.65999999983,144841.556,144857.89999999997,144874.723,145191.139,,41,as
screen,html.Screen,1_1_0_1_42,2021-04-12T21:22:44.955Z,,,,,,,,,,,,,,,,53,,,,,,,,,,,,,,298.2109999998356,,response,,,,99,,,,,,,Space,keypress(Space),,,,,,,,---- -- ----- -- ------ - ------- --- ----------<br>------------- ------ ------ ---- ---- ------- ----- -- ----<br>-------- ------- -- ---------- --- - --- ----- ----- ----<br>---- --- --- ----- --- ---- ---- ------- ----- ---- -------<br>--- --- -- close -- --- ---- -- --- ---- -- ------ ------<br>--- ----- -- ----,145489.6649999996,145489.34999999983,145174.613,145178.1149999997,145191.139,145513.111,,42,close
screen,html.Screen,1_1_0_1_43,2021-04-12T21:22:45.209Z,,,,,,,,,,,,,,,,53,,,,,,,,,,,,,,230.87899999992806,,response,,,,99,,,,,,,Space,keypress(Space),,,,,,,,---- -- ----- -- ------ - ------- --- ----------<br>------------- ------ ------ ---- ---- ------- ----- -- ----<br>-------- ------- -- ---------- --- - --- ----- ----- ----<br>---- --- --- ----- --- ---- ---- ------- ----- ---- -------<br>--- --- -- ----- as --- ---- -- --- ---- -- ------ ------<br>--- ----- -- ----,145744.36500000002,145743.98999999993,145474.336,145489.72999999978,145513.111,145757.268,,43,as
screen,html.Screen,1_1_0_1_44,2021-04-12T21:22:45.485Z,,,,,,,,,,,,,,,,53,,,,,,,,,,,,,,262.67699999999604,,response,,,,99,,,,,,,Space,keypress(Space),,,,,,,,---- -- ----- -- ------ - ------- --- ----------<br>------------- ------ ------ ---- ---- ------- ----- -- ----<br>-------- ------- -- ---------- --- - --- ----- ----- ----<br>---- --- --- ----- --- ---- ---- ------- ----- ---- -------<br>--- --- -- ----- -- you ---- -- --- ---- -- ------ ------<br>--- ----- -- ----,146020.30999999988,146019.945,145740.613,145744.4499999997,145757.268,146023.76,,44,you
screen,html.Screen,1_1_0_1_45,2021-04-12T21:22:45.766Z,,,,,,,,,,,,,,,,53,,,,,,,,,,,,,,277.25500000000466,,response,,,,99,,,,,,,Space,keypress(Space),,,,,,,,---- -- ----- -- ------ - ------- --- ----------<br>------------- ------ ------ ---- ---- ------- ----- -- ----<br>-------- ------- -- ---------- --- - --- ----- ----- ----<br>---- --- --- ----- --- ---- ---- ------- ----- ---- -------<br>--- --- -- ----- -- --- want -- --- ---- -- ------ ------<br>--- ----- -- ----,146301.30499999996,146301.015,146007.039,146020.39999999988,146023.76,146306.798,,45,want
screen,html.Screen,1_1_0_1_46,2021-04-12T21:22:46.052Z,,,,,,,,,,,,,,,,53,,,,,,,,,,,,,,279.3969999998517,,response,,,,99,,,,,,,Space,keypress(Space),,,,,,,,---- -- ----- -- ------ - ------- --- ----------<br>------------- ------ ------ ---- ---- ------- ----- -- ----<br>-------- ------- -- ---------- --- - --- ----- ----- ----<br>---- --- --- ----- --- ---- ---- ------- ----- ---- -------<br>--- --- -- ----- -- --- ---- to --- ---- -- ------ ------<br>--- ----- -- ----,146586.62999999977,146586.19499999986,146290.176,146301.36999999968,146306.798,146589.91,,46,to
screen,html.Screen,1_1_0_1_47,2021-04-12T21:22:46.352Z,,,,,,,,,,,,,,,,53,,,,,,,,,,,,,,297.10499999977765,,response,,,,99,,,,,,,Space,keypress(Space),,,,,,,,"---- -- ----- -- ------ - ------- --- ----------<br>------------- ------ ------ ---- ---- ------- ----- -- ----<br>-------- ------- -- ---------- --- - --- ----- ----- ----<br>---- --- --- ----- --- ---- ---- ------- ----- ---- -------<br>--- --- -- ----- -- --- ---- -- be, ---- -- ------ ------<br>--- ----- -- ----",146887.40499999994,146887.01499999978,146573.323,146586.69499999995,146589.91,146889.573,,47,"be,"
screen,html.Screen,1_1_0_1_48,2021-04-12T21:22:46.585Z,,,,,,,,,,,,,,,,53,,,,,,,,,,,,,,229.89699999961886,,response,,,,99,,,,,,,Space,keypress(Space),,,,,,,,---- -- ----- -- ------ - ------- --- ----------<br>------------- ------ ------ ---- ---- ------- ----- -- ----<br>-------- ------- -- ---------- --- - --- ----- ----- ----<br>---- --- --- ----- --- ---- ---- ------- ----- ---- -------<br>--- --- -- ----- -- --- ---- -- --- even -- ------ ------<br>--- ----- -- ----,147119.91499999978,147119.46999999962,146873.106,146887.50499999968,146889.573,147122.946,,48,even
screen,html.Screen,1_1_0_1_49,2021-04-12T21:22:46.855Z,,,,,,,,,,,,,,,,53,,,,,,,,,,,,,,267.0189999998547,,response,,,,99,,,,,,,Space,keypress(Space),,,,,,,,---- -- ----- -- ------ - ------- --- ----------<br>------------- ------ ------ ---- ---- ------- ----- -- ----<br>-------- ------- -- ---------- --- - --- ----- ----- ----<br>---- --- --- ----- --- ---- ---- ------- ----- ---- -------<br>--- --- -- ----- -- --- ---- -- --- ---- if ------ ------<br>--- ----- -- ----,147390.41999999972,147389.96499999985,147106.242,147119.97999999995,147122.946,147405.91,,49,if
screen,html.Screen,1_1_0_1_50,2021-04-12T21:22:47.149Z,,,,,,,,,,,,,,,,53,,,,,,,,,,,,,,277.51999999958207,,response,,,,99,,,,,,,Space,keypress(Space),,,,,,,,---- -- ----- -- ------ - ------- --- ----------<br>------------- ------ ------ ---- ---- ------- ----- -- ----<br>-------- ------- -- ---------- --- - --- ----- ----- ----<br>---- --- --- ----- --- ---- ---- ------- ----- ---- -------<br>--- --- -- ----- -- --- ---- -- --- ---- -- that's ------<br>--- ----- -- ----,147683.85999999964,147683.4299999996,147389.282,147390.51999999993,147405.91,147688.957,,50,that's
screen,html.Screen,1_1_0_1_51,2021-04-12T21:22:47.555Z,,,,,,,,,,,,,,,,53,,,,,,,,,,,,,,400.3529999998573,,response,,,,99,,,,,,,Space,keypress(Space),,,,,,,,---- -- ----- -- ------ - ------- --- ----------<br>------------- ------ ------ ---- ---- ------- ----- -- ----<br>-------- ------- -- ---------- --- - --- ----- ----- ----<br>---- --- --- ----- --- ---- ---- ------- ----- ---- -------<br>--- --- -- ----- -- --- ---- -- --- ---- -- ------ really<br>--- ----- -- ----,148089.78999999998,148089.30999999985,147672.431,147683.9249999998,147688.957,148105.28,,51,really
screen,html.Screen,1_1_0_1_52,2021-04-12T21:22:47.853Z,,,,,,,,,,,,,,,,53,,,,,,,,,,,,,,282.02499999973224,,response,,,,99,,,,,,,Space,keypress(Space),,,,,,,,---- -- ----- -- ------ - ------- --- ----------<br>------------- ------ ------ ---- ---- ------- ----- -- ----<br>-------- ------- -- ---------- --- - --- ----- ----- ----<br>---- --- --- ----- --- ---- ---- ------- ----- ---- -------<br>--- --- -- ----- -- --- ---- -- --- ---- -- ------ ------<br>not ----- -- ----,148387.67999999982,148387.30499999973,148088.563,148089.8699999998,148105.28,148406.418,,52,not
screen,html.Screen,1_1_0_1_53,2021-04-12T21:22:48.181Z,,,,,,,,,,,,,,,,53,,,,,,,,,,,,,,309.2819999997446,,response,,,,99,,,,,,,Space,keypress(Space),,,,,,,,---- -- ----- -- ------ - ------- --- ----------<br>------------- ------ ------ ---- ---- ------- ----- -- ----<br>-------- ------- -- ---------- --- - --- ----- ----- ----<br>---- --- --- ----- --- ---- ---- ------- ----- ---- -------<br>--- --- -- ----- -- --- ---- -- --- ---- -- ------ ------<br>--- close -- ----,148716.1299999998,148715.69999999975,148371.796,148387.745,148406.418,148721.402,,53,close
screen,html.Screen,1_1_0_1_54,2021-04-12T21:22:48.481Z,,,,,,,,,,,,,,,,53,,,,,,,,,,,,,,294.6079999998328,,response,,,,99,,,,,,,Space,keypress(Space),,,,,,,,---- -- ----- -- ------ - ------- --- ----------<br>------------- ------ ------ ---- ---- ------- ----- -- ----<br>-------- ------- -- ---------- --- - --- ----- ----- ----<br>---- --- --- ----- --- ---- ---- ------- ----- ---- -------<br>--- --- -- ----- -- --- ---- -- --- ---- -- ------ ------<br>--- ----- at ----,149016.39499999964,149016.00999999983,148704.673,148716.19499999998,148721.402,149021.156,,54,at
screen,html.Screen,1_1_0_1_55,2021-04-12T21:22:49.153Z,,,,,,,,,,,,,,,,53,,,,,,,,,,,,,,666.7689999997383,,response,,,,99,,,,,,,Space,keypress(Space),,,,,,,,---- -- ----- -- ------ - ------- --- ----------<br>------------- ------ ------ ---- ---- ------- ----- -- ----<br>-------- ------- -- ---------- --- - --- ----- ----- ----<br>---- --- --- ----- --- ---- ---- ------- ----- ---- -------<br>--- --- -- ----- -- --- ---- -- --- ---- -- ------ ------<br>--- ----- -- all.,149688.26999999964,149687.92499999973,149004.584,149016.45999999982,149021.156,149703.817,,55,all.
Item 99,flow.Loop,1_1_0_1,2021-04-12T21:22:49.154Z,,,,,,,,,,,,,,,,,,,,,,,,,,,,,,23380.340999999724,,completion,,,,,C,,,,,,,,,,,silence,,,,,149688.54999999984,149687.92499999973,126290.923,126291.3749999998,126307.584,149703.817,,,
Question 1,html.Screen,1_1_0_2,2021-04-12T21:22:55.405Z,,,,,,,,,,,,,,,,,,,,,,,,,,,false,FALSE,,6235.322999999946,,response,,,,99,C,,,,,,TRUE,click #choice-1,,,,silence,,,,,155939.70499999978,155939.13999999996,149687.321,149688.72499999998,149703.817,155948.357,,,
Question 2,html.Screen,1_1_0_3,2021-04-12T21:23:00.479Z,,,,,,,,,,,,,,,,,,,,,,,,,,,false,TRUE,,5064.712999999989,,response,,,,99,C,,,,,,FALSE,click #choice-2,,,,silence,,,,,161013.59000000003,161013.06999999998,155931.718,155939.78500000003,155948.357,161027.274,,,
Item 99,flow.Sequence,1_1_0,2021-04-12T21:23:00.479Z,,,,,,,,,,,,,,,,,,,,,,,,,,,,,,44713.44899999998,,completion,,,,,,,,,,,,,,,,,,,,,161013.7249999998,161013.06999999998,116283.154,116295.85999999972,116299.621,161027.274,,,
Holding screen,html.Screen,1_1_1_0,2021-04-12T21:23:10.484Z,,,,,,,,,,,,,,,,,,,,,,,,,,,,,,10008.163,,timeout,,,,,,,,,,,,,,,,,,,,,171019.30499999982,171018.745,161010.639,161013.79999999973,161027.274,171035.437,,,
screen,html.Screen,1_1_1_1_0,2021-04-12T21:23:11.320Z,,,,,,,,,,,,,,,,54,,,,,,,,,,,,,,819.3830000000016,,response,,,,100,,,,,,,Space,keypress(Space),,,,,,,,At --- ---- --- ------ ----- ------- ---- -- --- ------- --<br>------- ---------- ------ -- ----- -- ----- -- ---- ------<br>--- ----- --- --- ------ -------- ----- --- ------ ----- --<br>----- ----- ---------- --- --- ------ ------ ---- -- ------<br>------- --- ------ ----- --- ---- ------- -- ---- --- --<br>------- ------,171855.32499999998,171854.82,171018.745,171019.38999999993,171035.437,171868.014,,0,At
screen,html.Screen,1_1_1_1_1,2021-04-12T21:23:11.684Z,,,,,,,,,,,,,,,,54,,,,,,,,,,,,,,350.5209999999788,,response,,,,100,,,,,,,Space,keypress(Space),,,,,,,,-- the ---- --- ------ ----- ------- ---- -- --- ------- --<br>------- ---------- ------ -- ----- -- ----- -- ---- ------<br>--- ----- --- --- ------ -------- ----- --- ------ ----- --<br>----- ----- ---------- --- --- ------ ------ ---- -- ------<br>------- --- ------ ----- --- ---- ------- -- ---- --- --<br>------- ------,172218.93499999988,172218.53499999997,171851.303,171855.3999999999,171868.014,172234.22,,1,the
screen,html.Screen,1_1_1_1_2,2021-04-12T21:23:12.017Z,,,,,,,,,,,,,,,,54,,,,,,,,,,,,,,317.5749999998661,,response,,,,100,,,,,,,Space,keypress(Space),,,,,,,,-- --- time --- ------ ----- ------- ---- -- --- ------- --<br>------- ---------- ------ -- ----- -- ----- -- ---- ------<br>--- ----- --- --- ------ -------- ----- --- ------ ----- --<br>----- ----- ---------- --- --- ------ ------ ---- -- ------<br>------- --- ------ ----- --- ---- ------- -- ---- --- --<br>------- ------,172552.27500000002,172551.79499999987,172217.68,172218.9999999996,172234.22,172567.347,,2,time
screen,html.Screen,1_1_1_1_3,2021-04-12T21:23:12.502Z,,,,,,,,,,,,,,,,54,,,,,,,,,,,,,,469.53299999964656,,response,,,,100,,,,,,,Space,keypress(Space),,,,,,,,-- --- ---- the ------ ----- ------- ---- -- --- ------- --<br>------- ---------- ------ -- ----- -- ----- -- ---- ------<br>--- ----- --- --- ------ -------- ----- --- ------ ----- --<br>----- ----- ---------- --- --- ------ ------ ---- -- ------<br>------- --- ------ ----- --- ---- ------- -- ---- --- --<br>------- ------,173037.28999999975,173036.87999999966,172550.718,172552.33499999985,172567.347,173050.337,,3,the
screen,html.Screen,1_1_1_1_4,2021-04-12T21:23:12.902Z,,,,,,,,,,,,,,,,54,,,,,,,,,,,,,,385.96799999973155,,response,,,,100,,,,,,,Space,keypress(Space),,,,,,,,-- --- ---- --- French ----- ------- ---- -- --- ------- --<br>------- ---------- ------ -- ----- -- ----- -- ---- ------<br>--- ----- --- --- ------ -------- ----- --- ------ ----- --<br>----- ----- ---------- --- --- ------ ------ ---- -- ------<br>------- --- ------ ----- --- ---- ------- -- ---- --- --<br>------- ------,173436.62499999983,173436.30499999973,173033.622,173037.35499999992,173050.337,173449.787,,4,French
screen,html.Screen,1_1_1_1_5,2021-04-12T21:23:13.186Z,,,,,,,,,,,,,,,,54,,,,,,,,,,,,,,270.45799999995506,,response,,,,100,,,,,,,Space,keypress(Space),,,,,,,,-- --- ---- --- ------ crown ------- ---- -- --- ------- --<br>------- ---------- ------ -- ----- -- ----- -- ---- ------<br>--- ----- --- --- ------ -------- ----- --- ------ ----- --<br>----- ----- ---------- --- --- ------ ------ ---- -- ------<br>------- --- ------ ----- --- ---- ------- -- ---- --- --<br>------- ------,173720.60499999998,173720.24499999997,173433.267,173436.69,173449.787,173732.869,,5,crown
screen,html.Screen,1_1_1_1_6,2021-04-12T21:23:13.692Z,,,,,,,,,,,,,,,,54,,,,,,,,,,,,,,493.7709999998624,,response,,,,100,,,,,,,Space,keypress(Space),,,,,,,,-- --- ---- --- ------ ----- secured ---- -- --- ------- --<br>------- ---------- ------ -- ----- -- ----- -- ---- ------<br>--- ----- --- --- ------ -------- ----- --- ------ ----- --<br>----- ----- ---------- --- --- ------ ------ ---- -- ------<br>------- --- ------ ----- --- ---- ------- -- ---- --- --<br>------- ------,174226.9449999999,174226.63999999987,173716.166,173720.69499999998,173732.869,174232.394,,6,secured
screen,html.Screen,1_1_1_1_7,2021-04-12T21:23:14.010Z,,,,,,,,,,,,,,,,54,,,,,,,,,,,,,,311.9659999998694,,response,,,,100,,,,,,,Space,keypress(Space),,,,,,,,-- --- ---- --- ------ ----- ------- much -- --- ------- --<br>------- ---------- ------ -- ----- -- ----- -- ---- ------<br>--- ----- --- --- ------ -------- ----- --- ------ ----- --<br>----- ----- ---------- --- --- ------ ------ ---- -- ------<br>------- --- ------ ----- --- ---- ------- -- ---- --- --<br>------- ------,174544.6899999997,174544.35999999987,174215.736,174227.0099999996,174232.394,174548.76,,7,much
screen,html.Screen,1_1_1_1_8,2021-04-12T21:23:14.352Z,,,,,,,,,,,,,,,,54,,,,,,,,,,,,,,337.72999999986496,,response,,,,100,,,,,,,Space,keypress(Space),,,,,,,,-- --- ---- --- ------ ----- ------- ---- of --- ------- --<br>------- ---------- ------ -- ----- -- ----- -- ---- ------<br>--- ----- --- --- ------ -------- ----- --- ------ ----- --<br>----- ----- ---------- --- --- ------ ------ ---- -- ------<br>------- --- ------ ----- --- ---- ------- -- ---- --- --<br>------- ------,174886.80999999997,174886.48999999987,174532.107,174544.7549999999,174548.76,174898.531,,8,of
screen,html.Screen,1_1_1_1_9,2021-04-12T21:23:14.626Z,,,,,,,,,,,,,,,,54,,,,,,,,,,,,,,262.15899999972316,,response,,,,100,,,,,,,Space,keypress(Space),,,,,,,,-- --- ---- --- ------ ----- ------- ---- -- its ------- --<br>------- ---------- ------ -- ----- -- ----- -- ---- ------<br>--- ----- --- --- ------ -------- ----- --- ------ ----- --<br>----- ----- ---------- --- --- ------ ------ ---- -- ------<br>------- --- ------ ----- --- ---- ------- -- ---- --- --<br>------- ------,175161.04499999984,175160.6899999997,174881.839,174886.88,174898.531,175164.921,,9,its
screen,html.Screen,1_1_1_1_10,2021-04-12T21:23:14.885Z,,,,,,,,,,,,,,,,54,,,,,,,,,,,,,,254.85399999984656,,response,,,,100,,,,,,,Space,keypress(Space),,,,,,,,-- --- ---- --- ------ ----- ------- ---- -- --- revenue --<br>------- ---------- ------ -- ----- -- ----- -- ---- ------<br>--- ----- --- --- ------ -------- ----- --- ------ ----- --<br>----- ----- ---------- --- --- ------ ------ ---- -- ------<br>------- --- ------ ----- --- ---- ------- -- ---- --- --<br>------- ------,175420.0649999998,175419.77499999985,175148.333,175161.11000000002,175164.921,175431.356,,10,revenue
screen,html.Screen,1_1_1_1_11,2021-04-12T21:23:15.283Z,,,,,,,,,,,,,,,,54,,,,,,,,,,,,,,385.97899999973015,,response,,,,100,,,,,,,Space,keypress(Space),,,,,,,,-- --- ---- --- ------ ----- ------- ---- -- --- ------- by<br>------- ---------- ------ -- ----- -- ----- -- ---- ------<br>--- ----- --- --- ------ -------- ----- --- ------ ----- --<br>----- ----- ---------- --- --- ------ ------ ---- -- ------<br>------- --- ------ ----- --- ---- ------- -- ---- --- --<br>------- ------,175817.7499999997,175817.33499999973,175414.678,175420.12999999998,175431.356,175831.06,,11,by
screen,html.Screen,1_1_1_1_12,2021-04-12T21:23:15.618Z,,,,,,,,,,,,,,,,54,,,,,,,,,,,,,,321.13499999966007,,response,,,,100,,,,,,,Space,keypress(Space),,,,,,,,-- --- ---- --- ------ ----- ------- ---- -- --- ------- --<br>issuing ---------- ------ -- ----- -- ----- -- ---- ------<br>--- ----- --- --- ------ -------- ----- --- ------ ----- --<br>----- ----- ---------- --- --- ------ ------ ---- -- ------<br>------- --- ------ ----- --- ---- ------- -- ---- --- --<br>------- ------,176152.6799999997,176152.19499999966,175814.394,175817.8149999999,175831.06,176164.202,,12,issuing
screen,html.Screen,1_1_1_1_13,2021-04-12T21:23:16.327Z,,,,,,,,,,,,,,,,54,,,,,,,,,,,,,,697.6380000000354,,response,,,,100,,,,,,,Space,keypress(Space),,,,,,,,-- --- ---- --- ------ ----- ------- ---- -- --- ------- --<br>------- government ------ -- ----- -- ----- -- ---- ------<br>--- ----- --- --- ------ -------- ----- --- ------ ----- --<br>----- ----- ---------- --- --- ------ ------ ---- -- ------<br>------- --- ------ ----- --- ---- ------- -- ---- --- --<br>------- ------,176862.31499999986,176861.84000000003,176147.573,176152.74499999988,176164.202,176895.755,,13,government
screen,html.Screen,1_1_1_1_14,2021-04-12T21:23:16.714Z,,,,,,,,,,,,,,,,54,,,,,,,,,,,,,,352.7149999999965,,response,,,,100,,,,,,,Space,keypress(Space),,,,,,,,-- --- ---- --- ------ ----- ------- ---- -- --- ------- --<br>------- ---------- bonds. -- ----- -- ----- -- ---- ------<br>--- ----- --- --- ------ -------- ----- --- ------ ----- --<br>----- ----- ---------- --- --- ------ ------ ---- -- ------<br>------- --- ------ ----- --- ---- ------- -- ---- --- --<br>------- ------,177248.8099999996,177248.47,176846.968,176862.3749999997,176895.755,177263.054,,14,bonds.
screen,html.Screen,1_1_1_1_15,2021-04-12T21:23:17.218Z,,,,,,,,,,,,,,,,54,,,,,,,,,,,,,,489.4309999999823,,response,,,,100,,,,,,,Space,keypress(Space),,,,,,,,-- --- ---- --- ------ ----- ------- ---- -- --- ------- --<br>------- ---------- ------ In ----- -- ----- -- ---- ------<br>--- ----- --- --- ------ -------- ----- --- ------ ----- --<br>----- ----- ---------- --- --- ------ ------ ---- -- ------<br>------- --- ------ ----- --- ---- ------- -- ---- --- --<br>------- ------,177752.84999999986,177752.485,177246.45,177248.87499999977,177263.054,177762.889,,15,In
screen,html.Screen,1_1_1_1_16,2021-04-12T21:23:17.607Z,,,,,,,,,,,,,,,,54,,,,,,,,,,,,,,378.9159999997646,,response,,,,100,,,,,,,Space,keypress(Space),,,,,,,,"-- --- ---- --- ------ ----- ------- ---- -- --- ------- --<br>------- ---------- ------ -- 1727, -- ----- -- ---- ------<br>--- ----- --- --- ------ -------- ----- --- ------ ----- --<br>----- ----- ---------- --- --- ------ ------ ---- -- ------<br>------- --- ------ ----- --- ---- ------- -- ---- --- --<br>------- ------",178142.2249999996,178141.80499999976,177746.12,177752.94499999972,177762.889,178145.68,,16,"1727,"
screen,html.Screen,1_1_1_1_17,2021-04-12T21:23:18.467Z,,,,,,,,,,,,,,,,54,,,,,,,,,,,,,,856.1599999999162,,response,,,,100,,,,,,,Space,keypress(Space),,,,,,,,-- --- ---- --- ------ ----- ------- ---- -- --- ------- --<br>------- ---------- ------ -- ----- in ----- -- ---- ------<br>--- ----- --- --- ------ -------- ----- --- ------ ----- --<br>----- ----- ---------- --- --- ------ ------ ---- -- ------<br>------- --- ------ ----- --- ---- ------- -- ---- --- --<br>------- ------,179002.26999999996,179001.8399999999,178129.188,178142.28999999978,178145.68,179011.747,,17,in
screen,html.Screen,1_1_1_1_18,2021-04-12T21:23:19.009Z,,,,,,,,,,,,,,,,54,,,,,,,,,,,,,,532.1979999998875,,response,,,,100,,,,,,,Space,keypress(Space),,,,,,,,-- --- ---- --- ------ ----- ------- ---- -- --- ------- --<br>------- ---------- ------ -- ----- -- order -- ---- ------<br>--- ----- --- --- ------ -------- ----- --- ------ ----- --<br>----- ----- ---------- --- --- ------ ------ ---- -- ------<br>------- --- ------ ----- --- ---- ------- -- ---- --- --<br>------- ------,179544.33499999958,179543.9449999999,178995.084,179002.3299999998,179011.747,179561.181,,18,order
screen,html.Screen,1_1_1_1_19,2021-04-12T21:23:19.400Z,,,,,,,,,,,,,,,,54,,,,,,,,,,,,,,373.56400000001304,,response,,,,100,,,,,,,Space,keypress(Space),,,,,,,,-- --- ---- --- ------ ----- ------- ---- -- --- ------- --<br>------- ---------- ------ -- ----- -- ----- to ---- ------<br>--- ----- --- --- ------ -------- ----- --- ------ ----- --<br>----- ----- ---------- --- --- ------ ------ ---- -- ------<br>------- --- ------ ----- --- ---- ------- -- ---- --- --<br>------- ------,179935.1499999998,179934.74500000002,179544.569,179544.39999999976,179561.181,179944.179,,19,to
screen,html.Screen,1_1_1_1_20,2021-04-12T21:23:19.711Z,,,,,,,,,,,,,,,,54,,,,,,,,,,,,,,301.8559999996505,,response,,,,100,,,,,,,Space,keypress(Space),,,,,,,,-- --- ---- --- ------ ----- ------- ---- -- --- ------- --<br>------- ---------- ------ -- ----- -- ----- -- save ------<br>--- ----- --- --- ------ -------- ----- --- ------ ----- --<br>----- ----- ---------- --- --- ------ ------ ---- -- ------<br>------- --- ------ ----- --- ---- ------- -- ---- --- --<br>------- ------,180246.41999999995,180246.03499999965,179927.628,179935.21499999997,179944.179,180260.66,,20,save
screen,html.Screen,1_1_1_1_21,2021-04-12T21:23:20.056Z,,,,,,,,,,,,,,,,54,,,,,,,,,,,,,,330.0549999998184,,response,,,,100,,,,,,,Space,keypress(Space),,,,,,,,"-- --- ---- --- ------ ----- ------- ---- -- --- ------- --<br>------- ---------- ------ -- ----- -- ----- -- ---- money,<br>--- ----- --- --- ------ -------- ----- --- ------ ----- --<br>----- ----- ---------- --- --- ------ ------ ---- -- ------<br>------- --- ------ ----- --- ---- ------- -- ---- --- --<br>------- ------",180591.10999999984,180590.71499999982,180244.046,180246.48499999967,180260.66,180593.756,,21,"money,"
screen,html.Screen,1_1_1_1_22,2021-04-12T21:23:20.415Z,,,,,,,,,,,,,,,,54,,,,,,,,,,,,,,355.80400000003283,,response,,,,100,,,,,,,Space,keypress(Space),,,,,,,,-- --- ---- --- ------ ----- ------- ---- -- --- ------- --<br>------- ---------- ------ -- ----- -- ----- -- ---- ------<br>the ----- --- --- ------ -------- ----- --- ------ ----- --<br>----- ----- ---------- --- --- ------ ------ ---- -- ------<br>------- --- ------ ----- --- ---- ------- -- ---- --- --<br>------- ------,180950.05999999968,180949.56000000003,180577.053,180591.17500000002,180593.756,180960.07,,22,the
screen,html.Screen,1_1_1_1_23,2021-04-12T21:23:20.957Z,,,,,,,,,,,,,,,,54,,,,,,,,,,,,,,530.9799999996321,,response,,,,100,,,,,,,Space,keypress(Space),,,,,,,,-- --- ---- --- ------ ----- ------- ---- -- --- ------- --<br>------- ---------- ------ -- ----- -- ----- -- ---- ------<br>--- state --- --- ------ -------- ----- --- ------ ----- --<br>----- ----- ---------- --- --- ------ ------ ---- -- ------<br>------- --- ------ ----- --- ---- ------- -- ---- --- --<br>------- ------,181491.4799999997,181491.04999999964,180943.252,180950.11999999997,180960.07,181516.421,,23,state
screen,html.Screen,1_1_1_1_24,2021-04-12T21:23:21.325Z,,,,,,,,,,,,,,,,54,,,,,,,,,,,,,,343.2539999996952,,response,,,,100,,,,,,,Space,keypress(Space),,,,,,,,-- --- ---- --- ------ ----- ------- ---- -- --- ------- --<br>------- ---------- ------ -- ----- -- ----- -- ---- ------<br>--- ----- cut --- ------ -------- ----- --- ------ ----- --<br>----- ----- ---------- --- --- ------ ------ ---- -- ------<br>------- --- ------ ----- --- ---- ------- -- ---- --- --<br>------- ------,181860.10499999975,181859.6749999997,181476.262,181491.53999999998,181516.421,181875.808,,24,cut
screen,html.Screen,1_1_1_1_25,2021-04-12T21:23:21.668Z,,,,,,,,,,,,,,,,54,,,,,,,,,,,,,,326.65199999997276,,response,,,,100,,,,,,,Space,keypress(Space),,,,,,,,-- --- ---- --- ------ ----- ------- ---- -- --- ------- --<br>------- ---------- ------ -- ----- -- ----- -- ---- ------<br>--- ----- --- the ------ -------- ----- --- ------ ----- --<br>----- ----- ---------- --- --- ------ ------ ---- -- ------<br>------- --- ------ ----- --- ---- ------- -- ---- --- --<br>------- ------,182202.7949999997,182202.45999999996,181859.287,181860.19499999975,181875.808,182208.796,,25,the
screen,html.Screen,1_1_1_1_26,2021-04-12T21:23:21.827Z,,,,,,,,,,,,,,,,54,,,,,,,,,,,,,,153.24399999997695,,response,,,,100,,,,,,,Space,keypress(Space),,,,,,,,-- --- ---- --- ------ ----- ------- ---- -- --- ------- --<br>------- ---------- ------ -- ----- -- ----- -- ---- ------<br>--- ----- --- --- bonds' -------- ----- --- ------ ----- --<br>----- ----- ---------- --- --- ------ ------ ---- -- ------<br>------- --- ------ ----- --- ---- ------- -- ---- --- --<br>------- ------,182362.36499999996,182362.03999999998,182192.128,182202.86499999976,182208.796,182375.34,,26,bonds'
screen,html.Screen,1_1_1_1_27,2021-04-12T21:23:22.263Z,,,,,,,,,,,,,,,,54,,,,,,,,,,,,,,422.7549999996554,,response,,,,100,,,,,,,Space,keypress(Space),,,,,,,,-- --- ---- --- ------ ----- ------- ---- -- --- ------- --<br>------- ---------- ------ -- ----- -- ----- -- ---- ------<br>--- ----- --- --- ------ interest ----- --- ------ ----- --<br>----- ----- ---------- --- --- ------ ------ ---- -- ------<br>------- --- ------ ----- --- ---- ------- -- ---- --- --<br>------- ------,182798.405,182798.09499999965,182358.653,182362.435,182375.34,182808.294,,27,interest
screen,html.Screen,1_1_1_1_28,2021-04-12T21:23:22.603Z,,,,,,,,,,,,,,,,54,,,,,,,,,,,,,,329.1559999997262,,response,,,,100,,,,,,,Space,keypress(Space),,,,,,,,-- --- ---- --- ------ ----- ------- ---- -- --- ------- --<br>------- ---------- ------ -- ----- -- ----- -- ---- ------<br>--- ----- --- --- ------ -------- rate. --- ------ ----- --<br>----- ----- ---------- --- --- ------ ------ ---- -- ------<br>------- --- ------ ----- --- ---- ------- -- ---- --- --<br>------- ------,183137.79499999963,183137.44999999972,182791.607,182798.46999999974,182808.294,183141.285,,28,rate.
screen,html.Screen,1_1_1_1_29,2021-04-12T21:23:22.893Z,,,,,,,,,,,,,,,,54,,,,,,,,,,,,,,286.38999999989755,,response,,,,100,,,,,,,Space,keypress(Space),,,,,,,,-- --- ---- --- ------ ----- ------- ---- -- --- ------- --<br>------- ---------- ------ -- ----- -- ----- -- ---- ------<br>--- ----- --- --- ------ -------- ----- The ------ ----- --<br>----- ----- ---------- --- --- ------ ------ ---- -- ------<br>------- --- ------ ----- --- ---- ------- -- ---- --- --<br>------- ------,183427.9849999998,183427.6749999999,183124.661,183137.85499999995,183141.285,183441.065,,29,The
screen,html.Screen,1_1_1_1_30,2021-04-12T21:23:23.139Z,,,,,,,,,,,,,,,,54,,,,,,,,,,,,,,232.31999999959953,,response,,,,100,,,,,,,Space,keypress(Space),,,,,,,,-- --- ---- --- ------ ----- ------- ---- -- --- ------- --<br>------- ---------- ------ -- ----- -- ----- -- ---- ------<br>--- ----- --- --- ------ -------- ----- --- market ----- --<br>----- ----- ---------- --- --- ------ ------ ---- -- ------<br>------- --- ------ ----- --- ---- ------- -- ---- --- --<br>------- ------,183673.71000000002,183673.3849999996,183424.428,183428.05,183441.065,183700.193,,30,market
screen,html.Screen,1_1_1_1_31,2021-04-12T21:23:23.407Z,,,,,,,,,,,,,,,,54,,,,,,,,,,,,,,241.08699999999953,,response,,,,100,,,,,,,Space,keypress(Space),,,,,,,,-- --- ---- --- ------ ----- ------- ---- -- --- ------- --<br>------- ---------- ------ -- ----- -- ----- -- ---- ------<br>--- ----- --- --- ------ -------- ----- --- ------ value --<br>----- ----- ---------- --- --- ------ ------ ---- -- ------<br>------- --- ------ ----- --- ---- ------- -- ---- --- --<br>------- ------,183941.69999999987,183941.28,183657.564,183673.76999999987,183700.193,183957.441,,31,value
screen,html.Screen,1_1_1_1_32,2021-04-12T21:23:23.840Z,,,,,,,,,,,,,,,,54,,,,,,,,,,,,,,417.05899999989197,,response,,,,100,,,,,,,Space,keypress(Space),,,,,,,,-- --- ---- --- ------ ----- ------- ---- -- --- ------- --<br>------- ---------- ------ -- ----- -- ----- -- ---- ------<br>--- ----- --- --- ------ -------- ----- --- ------ ----- of<br>----- ----- ---------- --- --- ------ ------ ---- -- ------<br>------- --- ------ ----- --- ---- ------- -- ---- --- --<br>------- ------,184374.93499999982,184374.49999999988,183940.578,183941.7699999999,183957.441,184390.441,,32,of
screen,html.Screen,1_1_1_1_33,2021-04-12T21:23:24.094Z,,,,,,,,,,,,,,,,54,,,,,,,,,,,,,,237.78899999981513,,response,,,,100,,,,,,,Space,keypress(Space),,,,,,,,-- --- ---- --- ------ ----- ------- ---- -- --- ------- --<br>------- ---------- ------ -- ----- -- ----- -- ---- ------<br>--- ----- --- --- ------ -------- ----- --- ------ ----- --<br>these ----- ---------- --- --- ------ ------ ---- -- ------<br>------- --- ------ ----- --- ---- ------- -- ---- --- --<br>------- ------,184628.60499999986,184628.2299999998,184373.723,184375,184390.441,184640.224,,33,these
screen,html.Screen,1_1_1_1_34,2021-04-12T21:23:24.735Z,,,,,,,,,,,,,,,,54,,,,,,,,,,,,,,629.7109999998065,,response,,,,100,,,,,,,Space,keypress(Space),,,,,,,,-- --- ---- --- ------ ----- ------- ---- -- --- ------- --<br>------- ---------- ------ -- ----- -- ----- -- ---- ------<br>--- ----- --- --- ------ -------- ----- --- ------ ----- --<br>----- bonds ---------- --- --- ------ ------ ---- -- ------<br>------- --- ------ ----- --- ---- ------- -- ---- --- --<br>------- ------,185270.36999999973,185269.9349999998,184623.53,184628.6699999996,184640.224,185272.805,,34,bonds
screen,html.Screen,1_1_1_1_35,2021-04-12T21:23:25.033Z,,,,,,,,,,,,,,,,54,,,,,,,,,,,,,,294.75499999997555,,response,,,,100,,,,,,,Space,keypress(Space),,,,,,,,"-- --- ---- --- ------ ----- ------- ---- -- --- ------- --<br>------- ---------- ------ -- ----- -- ----- -- ---- ------<br>--- ----- --- --- ------ -------- ----- --- ------ ----- --<br>----- ----- plummeted, --- --- ------ ------ ---- -- ------<br>------- --- ------ ----- --- ---- ------- -- ---- --- --<br>------- ------",185567.94499999977,185567.55999999997,185256.297,185270.43999999977,185272.805,185572.539,,35,"plummeted,"
screen,html.Screen,1_1_1_1_36,2021-04-12T21:23:25.421Z,,,,,,,,,,,,,,,,54,,,,,,,,,,,,,,383.0859999996028,,response,,,,100,,,,,,,Space,keypress(Space),,,,,,,,-- --- ---- --- ------ ----- ------- ---- -- --- ------- --<br>------- ---------- ------ -- ----- -- ----- -- ---- ------<br>--- ----- --- --- ------ -------- ----- --- ------ ----- --<br>----- ----- ---------- and --- ------ ------ ---- -- ------<br>------- --- ------ ----- --- ---- ------- -- ---- --- --<br>------- ------,185955.98999999993,185955.6249999996,185556.094,185568.00499999963,185572.539,185972.341,,36,and
screen,html.Screen,1_1_1_1_37,2021-04-12T21:23:25.717Z,,,,,,,,,,,,,,,,54,,,,,,,,,,,,,,279.4439999999304,,response,,,,100,,,,,,,Space,keypress(Space),,,,,,,,-- --- ---- --- ------ ----- ------- ---- -- --- ------- --<br>------- ---------- ------ -- ----- -- ----- -- ---- ------<br>--- ----- --- --- ------ -------- ----- --- ------ ----- --<br>----- ----- ---------- --- the ------ ------ ---- -- ------<br>------- --- ------ ----- --- ---- ------- -- ---- --- --<br>------- ------,186252.21999999986,186251.78499999992,185955.599,185956.06499999986,185972.341,186255.399,,37,the
screen,html.Screen,1_1_1_1_38,2021-04-12T21:23:25.973Z,,,,,,,,,,,,,,,,54,,,,,,,,,,,,,,251.75099999990198,,response,,,,100,,,,,,,Space,keypress(Space),,,,,,,,-- --- ---- --- ------ ----- ------- ---- -- --- ------- --<br>------- ---------- ------ -- ----- -- ----- -- ---- ------<br>--- ----- --- --- ------ -------- ----- --- ------ ----- --<br>----- ----- ---------- --- --- market ------ ---- -- ------<br>------- --- ------ ----- --- ---- ------- -- ---- --- --<br>------- ------,186507.5899999997,186507.1499999999,186238.74,186252.2799999997,186255.399,186521.884,,38,market
screen,html.Screen,1_1_1_1_39,2021-04-12T21:23:26.242Z,,,,,,,,,,,,,,,,54,,,,,,,,,,,,,,254.89599999968777,,response,,,,100,,,,,,,Space,keypress(Space),,,,,,,,-- --- ---- --- ------ ----- ------- ---- -- --- ------- --<br>------- ---------- ------ -- ----- -- ----- -- ---- ------<br>--- ----- --- --- ------ -------- ----- --- ------ ----- --<br>----- ----- ---------- --- --- ------ became ---- -- ------<br>------- --- ------ ----- --- ---- ------- -- ---- --- --<br>------- ------,186777.19499999966,186776.77999999968,186505.211,186507.65000000002,186521.884,186788.173,,39,became
screen,html.Screen,1_1_1_1_40,2021-04-12T21:23:26.559Z,,,,,,,,,,,,,,,,54,,,,,,,,,,,,,,305.6019999998098,,response,,,,100,,,,,,,Space,keypress(Space),,,,,,,,-- --- ---- --- ------ ----- ------- ---- -- --- ------- --<br>------- ---------- ------ -- ----- -- ----- -- ---- ------<br>--- ----- --- --- ------ -------- ----- --- ------ ----- --<br>----- ----- ---------- --- --- ------ ------ wary -- ------<br>------- --- ------ ----- --- ---- ------- -- ---- --- --<br>------- ------,187094.11,187093.77499999982,186771.654,186777.25999999983,186788.173,187104.578,,40,wary
screen,html.Screen,1_1_1_1_41,2021-04-12T21:23:26.863Z,,,,,,,,,,,,,,,,54,,,,,,,,,,,,,,293.35199999963515,,response,,,,100,,,,,,,Space,keypress(Space),,,,,,,,-- --- ---- --- ------ ----- ------- ---- -- --- ------- --<br>------- ---------- ------ -- ----- -- ----- -- ---- ------<br>--- ----- --- --- ------ -------- ----- --- ------ ----- --<br>----- ----- ---------- --- --- ------ ------ ---- of ------<br>------- --- ------ ----- --- ---- ------- -- ---- --- --<br>------- ------,187398.2649999998,187397.92999999964,187087.889,187094.17499999973,187104.578,187404.277,,41,of
screen,html.Screen,1_1_1_1_42,2021-04-12T21:23:27.324Z,,,,,,,,,,,,,,,,54,,,,,,,,,,,,,,454.5229999999865,,response,,,,100,,,,,,,Space,keypress(Space),,,,,,,,-- --- ---- --- ------ ----- ------- ---- -- --- ------- --<br>------- ---------- ------ -- ----- -- ----- -- ---- ------<br>--- ----- --- --- ------ -------- ----- --- ------ ----- --<br>----- ----- ---------- --- --- ------ ------ ---- -- French<br>------- --- ------ ----- --- ---- ------- -- ---- --- --<br>------- ------,187859.12999999983,187858.8,187387.635,187398.3549999998,187404.277,187870.529,,42,French
screen,html.Screen,1_1_1_1_43,2021-04-12T21:23:27.637Z,,,,,,,,,,,,,,,,54,,,,,,,,,,,,,,301.6109999996552,,response,,,,100,,,,,,,Space,keypress(Space),,,,,,,,-- --- ---- --- ------ ----- ------- ---- -- --- ------- --<br>------- ---------- ------ -- ----- -- ----- -- ---- ------<br>--- ----- --- --- ------ -------- ----- --- ------ ----- --<br>----- ----- ---------- --- --- ------ ------ ---- -- ------<br>credit. --- ------ ----- --- ---- ------- -- ---- --- --<br>------- ------,188172.46499999965,188172.13999999966,187853.889,187859.195,187870.529,188186.955,,43,credit.
screen,html.Screen,1_1_1_1_44,2021-04-12T21:23:27.974Z,,,,,,,,,,,,,,,,54,,,,,,,,,,,,,,321.38999999975204,,response,,,,100,,,,,,,Space,keypress(Space),,,,,,,,-- --- ---- --- ------ ----- ------- ---- -- --- ------- --<br>------- ---------- ------ -- ----- -- ----- -- ---- ------<br>--- ----- --- --- ------ -------- ----- --- ------ ----- --<br>----- ----- ---------- --- --- ------ ------ ---- -- ------<br>------- The ------ ----- --- ---- ------- -- ---- --- --<br>------- ------,188508.68999999965,188508.34499999974,188170.253,188172.53499999968,188186.955,188520.031,,44,The
screen,html.Screen,1_1_1_1_45,2021-04-12T21:23:28.287Z,,,,,,,,,,,,,,,,54,,,,,,,,,,,,,,301.85399999984656,,response,,,,100,,,,,,,Space,keypress(Space),,,,,,,,-- --- ---- --- ------ ----- ------- ---- -- --- ------- --<br>------- ---------- ------ -- ----- -- ----- -- ---- ------<br>--- ----- --- --- ------ -------- ----- --- ------ ----- --<br>----- ----- ---------- --- --- ------ ------ ---- -- ------<br>------- --- French ----- --- ---- ------- -- ---- --- --<br>------- ------,188822.21499999968,188821.88499999983,188503.263,188508.76500000004,188520.031,188836.379,,45,French
screen,html.Screen,1_1_1_1_46,2021-04-12T21:23:28.576Z,,,,,,,,,,,,,,,,54,,,,,,,,,,,,,,274.4409999999043,,response,,,,100,,,,,,,Space,keypress(Space),,,,,,,,-- --- ---- --- ------ ----- ------- ---- -- --- ------- --<br>------- ---------- ------ -- ----- -- ----- -- ---- ------<br>--- ----- --- --- ------ -------- ----- --- ------ ----- --<br>----- ----- ---------- --- --- ------ ------ ---- -- ------<br>------- --- ------ state --- ---- ------- -- ---- --- --<br>------- ------,189111.27999999962,189110.8199999999,188819.698,188822.28499999974,188836.379,189119.595,,46,state
screen,html.Screen,1_1_1_1_47,2021-04-12T21:23:28.911Z,,,,,,,,,,,,,,,,54,,,,,,,,,,,,,,326.09500000000116,,response,,,,100,,,,,,,Space,keypress(Space),,,,,,,,-- --- ---- --- ------ ----- ------- ---- -- --- ------- --<br>------- ---------- ------ -- ----- -- ----- -- ---- ------<br>--- ----- --- --- ------ -------- ----- --- ------ ----- --<br>----- ----- ---------- --- --- ------ ------ ---- -- ------<br>------- --- ------ ----- was ---- ------- -- ---- --- --<br>------- ------,189446.09999999966,189445.69,189102.74,189111.33999999994,189119.595,189452.597,,47,was
screen,html.Screen,1_1_1_1_48,2021-04-12T21:23:29.211Z,,,,,,,,,,,,,,,,54,,,,,,,,,,,,,,292.6680000000051,,response,,,,100,,,,,,,Space,keypress(Space),,,,,,,,-- --- ---- --- ------ ----- ------- ---- -- --- ------- --<br>------- ---------- ------ -- ----- -- ----- -- ---- ------<br>--- ----- --- --- ------ -------- ----- --- ------ ----- --<br>----- ----- ---------- --- --- ------ ------ ---- -- ------<br>------- --- ------ ----- --- left ------- -- ---- --- --<br>------- ------,189745.64499999996,189745.265,189435.998,189446.15499999962,189452.597,189752.375,,48,left
screen,html.Screen,1_1_1_1_49,2021-04-12T21:23:29.482Z,,,,,,,,,,,,,,,,54,,,,,,,,,,,,,,264.10499999977765,,response,,,,100,,,,,,,Space,keypress(Space),,,,,,,,-- --- ---- --- ------ ----- ------- ---- -- --- ------- --<br>------- ---------- ------ -- ----- -- ----- -- ---- ------<br>--- ----- --- --- ------ -------- ----- --- ------ ----- --<br>----- ----- ---------- --- --- ------ ------ ---- -- ------<br>------- --- ------ ----- --- ---- without -- ---- --- --<br>------- ------,190016.92999999976,190016.47999999978,189735.763,189745.7099999997,189752.375,190018.661,,49,without
screen,html.Screen,1_1_1_1_50,2021-04-12T21:23:29.771Z,,,,,,,,,,,,,,,,54,,,,,,,,,,,,,,287.4039999997767,,response,,,,100,,,,,,,Space,keypress(Space),,,,,,,,-- --- ---- --- ------ ----- ------- ---- -- --- ------- --<br>------- ---------- ------ -- ----- -- ----- -- ---- ------<br>--- ----- --- --- ------ -------- ----- --- ------ ----- --<br>----- ----- ---------- --- --- ------ ------ ---- -- ------<br>------- --- ------ ----- --- ---- ------- an ---- --- --<br>------- ------,190306.4549999999,190306.06499999977,190002.183,190016.9899999996,190018.661,190318.579,,50,an
screen,html.Screen,1_1_1_1_51,2021-04-12T21:23:30.099Z,,,,,,,,,,,,,,,,54,,,,,,,,,,,,,,314.50099999961094,,response,,,,100,,,,,,,Space,keypress(Space),,,,,,,,-- --- ---- --- ------ ----- ------- ---- -- --- ------- --<br>------- ---------- ------ -- ----- -- ----- -- ---- ------<br>--- ----- --- --- ------ -------- ----- --- ------ ----- --<br>----- ----- ---------- --- --- ------ ------ ---- -- ------<br>------- --- ------ ----- --- ---- ------- -- easy --- --<br>------- ------,190633.51499999998,190633.0799999996,190301.929,190306.51999999964,190318.579,190652.191,,51,easy
screen,html.Screen,1_1_1_1_52,2021-04-12T21:23:30.389Z,,,,,,,,,,,,,,,,54,,,,,,,,,,,,,,271.7439999998023,,response,,,,100,,,,,,,Space,keypress(Space),,,,,,,,-- --- ---- --- ------ ----- ------- ---- -- --- ------- --<br>------- ---------- ------ -- ----- -- ----- -- ---- ------<br>--- ----- --- --- ------ -------- ----- --- ------ ----- --<br>----- ----- ---------- --- --- ------ ------ ---- -- ------<br>------- --- ------ ----- --- ---- ------- -- ---- way --<br>------- ------,190924.34999999977,190923.9349999998,190618.281,190633.57499999984,190652.191,190934.692,,52,way
screen,html.Screen,1_1_1_1_53,2021-04-12T21:23:30.720Z,,,,,,,,,,,,,,,,54,,,,,,,,,,,,,,319.99299999987124,,response,,,,100,,,,,,,Space,keypress(Space),,,,,,,,-- --- ---- --- ------ ----- ------- ---- -- --- ------- --<br>------- ---------- ------ -- ----- -- ----- -- ---- ------<br>--- ----- --- --- ------ -------- ----- --- ------ ----- --<br>----- ----- ---------- --- --- ------ ------ ---- -- ------<br>------- --- ------ ----- --- ---- ------- -- ---- --- of<br>------- ------,191255.11999999982,191254.68499999988,190918.064,190924.41499999995,190934.692,191267.756,,53,of
screen,html.Screen,1_1_1_1_54,2021-04-12T21:23:31.193Z,,,,,,,,,,,,,,,,54,,,,,,,,,,,,,,460.2640000000247,,response,,,,100,,,,,,,Space,keypress(Space),,,,,,,,-- --- ---- --- ------ ----- ------- ---- -- --- ------- --<br>------- ---------- ------ -- ----- -- ----- -- ---- ------<br>--- ----- --- --- ------ -------- ----- --- ------ ----- --<br>----- ----- ---------- --- --- ------ ------ ---- -- ------<br>------- --- ------ ----- --- ---- ------- -- ---- --- --<br>raising ------,191728.43999999986,191728.02000000002,191251.062,191255.17999999964,191267.756,191733.836,,54,raising
screen,html.Screen,1_1_1_1_55,2021-04-12T21:23:31.818Z,,,,,,,,,,,,,,,,54,,,,,,,,,,,,,,618.9839999995893,,response,,,,100,,,,,,,Space,keypress(Space),,,,,,,,-- --- ---- --- ------ ----- ------- ---- -- --- ------- --<br>------- ---------- ------ -- ----- -- ----- -- ---- ------<br>--- ----- --- --- ------ -------- ----- --- ------ ----- --<br>----- ----- ---------- --- --- ------ ------ ---- -- ------<br>------- --- ------ ----- --- ---- ------- -- ---- --- --<br>------- money.,192353.17499999973,192352.8199999996,191717.333,191728.50500000003,191733.836,192366.643,,55,money.
Item 100,flow.Loop,1_1_1_1,2021-04-12T21:23:31.818Z,,,,,,,,,,,,,,,,,,,,,,,,,,,,,,21317.382999999594,,completion,,,,,C,,,,,,,,,,,silence,,,,,192353.29,192352.8199999996,171018.745,171019.37,171035.437,192366.643,,,
Question 1,html.Screen,1_1_1_2,2021-04-12T21:23:34.953Z,,,,,,,,,,,,,,,,,,,,,,,,,,,true,TRUE,,3120.3519999997516,,response,,,,100,C,,,,,,TRUE,click #choice-1,,,,silence,,,,,195487.60999999967,195486.99499999976,192350.105,192353.33999999968,192366.643,195497.372,,,
Question 2,html.Screen,1_1_1_3,2021-04-12T21:23:36.904Z,,,,,,,,,,,,,,,,,,,,,,,,,,,true,FALSE,,1941.0729999997711,,response,,,,100,C,,,,,,FALSE,click #choice-2,,,,silence,,,,,197439.02499999967,197438.44499999977,195480.715,195487.67999999973,195497.372,197445.56,,,
Item 100,flow.Sequence,1_1_1,2021-04-12T21:23:36.904Z,,,,,,,,,,,,,,,,,,,,,,,,,,,,,,36411.17099999977,,completion,,,,,,,,,,,,,,,,,,,,,197439.12,197438.44499999977,161010.639,161013.7749999999,161027.274,197445.56,,,
End of Practice,html.Page,1_1_2,2021-04-12T21:23:39.241Z,,,,,,,,,,,,,,,,,,,,,,,,,,,,,,2329.974999999773,,form submission,,,,,,,,,,,,,,,,,,,,,199775.6599999998,199775.53499999977,197428.863,197439.15999999992,197445.56,199776.814,,,
Practice,flow.Sequence,1_1,2021-04-12T21:23:39.241Z,,,,,,,,,,,,,,,,,,,,,,,,,,,,,,83475.91399999977,,completion,,,,,,,,,,,,,,,,,,,,,199775.75499999966,199775.53499999977,116283.154,116295.83999999976,116299.621,199776.814,,,
Trap_instruction,html.Page,1_2_0,2021-04-12T21:23:44.621Z,,,,,,,,,,,,,,,,,,,,,,,,,,,,,,5377.65599999993,,form submission,,,,,,,,,,,,,,,,,,,,,205154.58499999976,205154.46999999994,199760.353,199775.81499999997,199776.814,205155.475,,,
trap_trial,html.Screen,1_2_1,2021-04-12T21:23:47.821Z,,,,,,,,,,,,,,,,,,,,,,,,,,,true,1,,3198.08999999988,,response,,,,,,,,,,,1,click #choice-1,,,,,,,,,208354.20499999964,208353.5649999999,205139.005,205154.63999999975,205155.475,208369.559,,,
end of trap trial,html.Page,1_2_2,2021-04-12T21:23:49.471Z,,,,,,,,,,,,,,,,,,,,,,,,,,,,,,1635.070999999909,,form submission,,,,,,,,,,,,,,,,,,,,,210004.73999999985,210004.62999999992,208352.774,208354.27499999967,208369.559,210017.957,,,
Trap 1,flow.Sequence,1_2,2021-04-12T21:23:49.471Z,,,,,,,,,,,,,,,,,,,,,,,,,,,,,,10227.815999999904,,completion,,,,,,,,,,,,,,,,,,,,,210004.82999999984,210004.62999999992,199760.353,199775.7999999999,199776.814,210017.957,,,
Standby,html.Page,1_3_0,2021-04-12T21:23:57.461Z,,,,,,,,,,,,,,,,,,,,,,,,,,,,,,7993.144,,timeout,,,,,,,,,,,,,,,,,,,,,217994.99999999988,217994.444,210001.393,210004.8899999997,210017.957,218011.101,,,
Holding screen,html.Screen,1_3_1_0_0,2021-04-12T21:24:04.455Z,,,,,,,,,,,,,,,,,,,,,,,,,,,,,,6993.8429999999935,,timeout,,,,,,,,,,,,,,,,,,,,,224988.67999999993,224988.21,217994.444,217995.2599999997,218011.101,225004.944,,,
screen,html.Screen,1_3_1_0_1_0,2021-04-12T21:24:05.307Z,,,,,,,,,,,,,,,,15,,,,,,,,,,,,,,835.2709999997169,,response,,,,7,C,,,,,,Space,keypress(Space),,,,instrumental,,,,Greg --------- ---------- - --- ------- -- --- ------------<br>----- -- -------- ------- ---- ------ - -------- ---- -----<br>--- ------- ---- -- --- -------- --- - ----- ------ ---- --<br>-------- --- -------- -------- --- -------- ---- -- ----- -<br>-------- ---- --- ---------- --------- -- ------- ------ -<br>--------- ----- -----,225840.78,225840.2149999997,224988.21,224988.8149999997,225004.944,225854.119,,0,Greg
screen,html.Screen,1_3_1_0_1_1,2021-04-12T21:24:05.943Z,,,,,,,,,,,,,,,,15,,,,,,,,,,,,,,621.5659999998752,,response,,,,7,C,,,,,,Space,keypress(Space),,,,instrumental,,,,"---- Anderson, ---------- - --- ------- -- --- ------------<br>----- -- -------- ------- ---- ------ - -------- ---- -----<br>--- ------- ---- -- --- -------- --- - ----- ------ ---- --<br>-------- --- -------- -------- --- -------- ---- -- ----- -<br>-------- ---- --- ---------- --------- -- ------- ------ -<br>--------- ----- -----",226476.13999999975,226475.68499999988,225837.371,225840.8849999996,225854.119,226486.931,,1,"Anderson,"
screen,html.Screen,1_3_1_0_1_2,2021-04-12T21:24:06.546Z,,,,,,,,,,,,,,,,15,,,,,,,,,,,,,,592.2039999999397,,response,,,,7,C,,,,,,Space,keypress(Space),,,,instrumental,,,,---- --------- considered - --- ------- -- --- ------------<br>----- -- -------- ------- ---- ------ - -------- ---- -----<br>--- ------- ---- -- --- -------- --- - ----- ------ ---- --<br>-------- --- -------- -------- --- -------- ---- -- ----- -<br>-------- ---- --- ---------- --------- -- ------- ------ -<br>--------- ----- -----,227079.4249999999,227079.13499999995,226470.368,226476.1999999996,226486.931,227086.34,,2,considered
screen,html.Screen,1_3_1_0_1_3,2021-04-12T21:24:07.194Z,,,,,,,,,,,,,,,,15,,,,,,,,,,,,,,640.6299999997136,,response,,,,7,C,,,,,,Space,keypress(Space),,,,instrumental,,,,---- --------- ---------- a --- ------- -- --- ------------<br>----- -- -------- ------- ---- ------ - -------- ---- -----<br>--- ------- ---- -- --- -------- --- - ----- ------ ---- --<br>-------- --- -------- -------- --- -------- ---- -- ----- -<br>-------- ---- --- ---------- --------- -- ------- ------ -<br>--------- ----- -----,227727.32999999973,227726.9699999997,227069.752,227079.48499999975,227086.34,227735.746,,3,a
screen,html.Screen,1_3_1_0_1_4,2021-04-12T21:24:07.713Z,,,,,,,,,,,,,,,,15,,,,,,,,,,,,,,510.43399999963003,,response,,,,7,C,,,,,,Space,keypress(Space),,,,instrumental,,,,---- --------- ---------- - key ------- -- --- ------------<br>----- -- -------- ------- ---- ------ - -------- ---- -----<br>--- ------- ---- -- --- -------- --- - ----- ------ ---- --<br>-------- --- -------- -------- --- -------- ---- -- ----- -<br>-------- ---- --- ---------- --------- -- ------- ------ -<br>--------- ----- -----,228246.63499999998,228246.17999999964,227719.132,227727.40999999997,227735.746,228251.982,,4,key
screen,html.Screen,1_3_1_0_1_5,2021-04-12T21:24:08.441Z,,,,,,,,,,,,,,,,15,,,,,,,,,,,,,,722.5229999996955,,response,,,,7,C,,,,,,Space,keypress(Space),,,,instrumental,,,,---- --------- ---------- - --- witness -- --- ------------<br>----- -- -------- ------- ---- ------ - -------- ---- -----<br>--- ------- ---- -- --- -------- --- - ----- ------ ---- --<br>-------- --- -------- -------- --- -------- ---- -- ----- -<br>-------- ---- --- ---------- --------- -- ------- ------ -<br>--------- ----- -----,228974.90500000003,228974.50499999968,228235.287,228246.6999999997,228251.982,228984.82,,5,witness
screen,html.Screen,1_3_1_0_1_6,2021-04-12T21:24:09.028Z,,,,,,,,,,,,,,,,15,,,,,,,,,,,,,,576.6649999997171,,response,,,,7,C,,,,,,Space,keypress(Space),,,,instrumental,,,,---- --------- ---------- - --- ------- by --- ------------<br>----- -- -------- ------- ---- ------ - -------- ---- -----<br>--- ------- ---- -- --- -------- --- - ----- ------ ---- --<br>-------- --- -------- -------- --- -------- ---- -- ----- -<br>-------- ---- --- ---------- --------- -- ------- ------ -<br>--------- ----- -----,229561.9399999996,229561.48499999972,228968.059,228974.96499999988,228984.82,229567.635,,6,by
screen,html.Screen,1_3_1_0_1_7,2021-04-12T21:24:09.306Z,,,,,,,,,,,,,,,,15,,,,,,,,,,,,,,271.26499999972293,,response,,,,7,C,,,,,,Space,keypress(Space),,,,instrumental,,,,---- --------- ---------- - --- ------- -- the ------------<br>----- -- -------- ------- ---- ------ - -------- ---- -----<br>--- ------- ---- -- --- -------- --- - ----- ------ ---- --<br>-------- --- -------- -------- --- -------- ---- -- ----- -<br>-------- ---- --- ---------- --------- -- ------- ------ -<br>--------- ----- -----,229839.25999999975,229838.89999999973,229550.873,229562.00499999977,229567.635,229850.612,,7,the
screen,html.Screen,1_3_1_0_1_8,2021-04-12T21:24:09.888Z,,,,,,,,,,,,,,,,15,,,,,,,,,,,,,,571.0379999997676,,response,,,,7,C,,,,,,Space,keypress(Space),,,,instrumental,,,,"---- --------- ---------- - --- ------- -- --- prosecution,<br>----- -- -------- ------- ---- ------ - -------- ---- -----<br>--- ------- ---- -- --- -------- --- - ----- ------ ---- --<br>-------- --- -------- -------- --- -------- ---- -- ----- -<br>-------- ---- --- ---------- --------- -- ------- ------ -<br>--------- ----- -----",230422.0349999996,230421.64999999976,229834,229839.32499999992,229850.612,230433.406,,8,"prosecution,"
screen,html.Screen,1_3_1_0_1_9,2021-04-12T21:24:10.541Z,,,,,,,,,,,,,,,,15,,,,,,,,,,,,,,641.1339999996417,,response,,,,7,C,,,,,,Space,keypress(Space),,,,instrumental,,,,---- --------- ---------- - --- ------- -- --- ------------<br>vowed -- -------- ------- ---- ------ - -------- ---- -----<br>--- ------- ---- -- --- -------- --- - ----- ------ ---- --<br>-------- --- -------- -------- --- -------- ---- -- ----- -<br>-------- ---- --- ---------- --------- -- ------- ------ -<br>--------- ----- -----,231074.87999999966,231074.53999999963,230416.815,230422.11999999973,230433.406,231082.847,,9,vowed
screen,html.Screen,1_3_1_0_1_10,2021-04-12T21:24:11.260Z,,,,,,,,,,,,,,,,15,,,,,,,,,,,,,,709.7780000000494,,response,,,,7,C,,,,,,Space,keypress(Space),,,,instrumental,,,,---- --------- ---------- - --- ------- -- --- ------------<br>----- he -------- ------- ---- ------ - -------- ---- -----<br>--- ------- ---- -- --- -------- --- - ----- ------ ---- --<br>-------- --- -------- -------- --- -------- ---- -- ----- -<br>-------- ---- --- ---------- --------- -- ------- ------ -<br>--------- ----- -----,231793.095,231792.62500000006,231066.173,231074.94499999983,231082.847,231799.046,,10,he
screen,html.Screen,1_3_1_0_1_11,2021-04-12T21:24:11.989Z,,,,,,,,,,,,,,,,15,,,,,,,,,,,,,,722.6039999996719,,response,,,,7,C,,,,,,Space,keypress(Space),,,,instrumental,,,,---- --------- ---------- - --- ------- -- --- ------------<br>----- -- wouldn't ------- ---- ------ - -------- ---- -----<br>--- ------- ---- -- --- -------- --- - ----- ------ ---- --<br>-------- --- -------- -------- --- -------- ---- -- ----- -<br>-------- ---- --- ---------- --------- -- ------- ------ -<br>--------- ----- -----,232522.08999999994,232521.64999999967,231782.306,231793.1599999997,231799.046,232531.725,,11,wouldn't
screen,html.Screen,1_3_1_0_1_12,2021-04-12T21:24:12.670Z,,,,,,,,,,,,,,,,15,,,,,,,,,,,,,,671.6849999996193,,response,,,,7,C,,,,,,Space,keypress(Space),,,,instrumental,,,,---- --------- ---------- - --- ------- -- --- ------------<br>----- -- -------- testify ---- ------ - -------- ---- -----<br>--- ------- ---- -- --- -------- --- - ----- ------ ---- --<br>-------- --- -------- -------- --- -------- ---- -- ----- -<br>-------- ---- --- ---------- --------- -- ------- ------ -<br>--------- ----- -----,233203.7949999999,233203.40999999963,232515.071,232522.1499999998,232531.725,233214.477,,12,testify
screen,html.Screen,1_3_1_0_1_13,2021-04-12T21:24:13.376Z,,,,,,,,,,,,,,,,15,,,,,,,,,,,,,,694.5679999998538,,response,,,,7,C,,,,,,Space,keypress(Space),,,,instrumental,,,,---- --------- ---------- - --- ------- -- --- ------------<br>----- -- -------- ------- when ------ - -------- ---- -----<br>--- ------- ---- -- --- -------- --- - ----- ------ ---- --<br>-------- --- -------- -------- --- -------- ---- -- ----- -<br>-------- ---- --- ---------- --------- -- ------- ------ -<br>--------- ----- -----,233909.58499999988,233909.04499999987,233197.745,233203.85999999964,233214.477,233913.852,,13,when
screen,html.Screen,1_3_1_0_1_14,2021-04-12T21:24:14.026Z,,,,,,,,,,,,,,,,15,,,,,,,,,,,,,,645.0379999997676,,response,,,,7,C,,,,,,Space,keypress(Space),,,,instrumental,,,,---- --------- ---------- - --- ------- -- --- ------------<br>----- -- -------- ------- ---- served - -------- ---- -----<br>--- ------- ---- -- --- -------- --- - ----- ------ ---- --<br>-------- --- -------- -------- --- -------- ---- -- ----- -<br>-------- ---- --- ---------- --------- -- ------- ------ -<br>--------- ----- -----,234559.35,234558.88999999978,233897.228,233909.6599999998,233913.852,234563.113,,14,served
screen,html.Screen,1_3_1_0_1_15,2021-04-12T21:24:14.344Z,,,,,,,,,,,,,,,,15,,,,,,,,,,,,,,313.70699999993667,,response,,,,7,C,,,,,,Space,keypress(Space),,,,instrumental,,,,---- --------- ---------- - --- ------- -- --- ------------<br>----- -- -------- ------- ---- ------ a -------- ---- -----<br>--- ------- ---- -- --- -------- --- - ----- ------ ---- --<br>-------- --- -------- -------- --- -------- ---- -- ----- -<br>-------- ---- --- ---------- --------- -- ------- ------ -<br>--------- ----- -----,234877.27499999982,234876.81999999995,234546.638,234559.40999999986,234563.113,234879.552,,15,a
screen,html.Screen,1_3_1_0_1_16,2021-04-12T21:24:14.735Z,,,,,,,,,,,,,,,,15,,,,,,,,,,,,,,388.5229999999574,,response,,,,7,C,,,,,,Space,keypress(Space),,,,instrumental,,,,---- --------- ---------- - --- ------- -- --- ------------<br>----- -- -------- ------- ---- ------ - subpoena ---- -----<br>--- ------- ---- -- --- -------- --- - ----- ------ ---- --<br>-------- --- -------- -------- --- -------- ---- -- ----- -<br>-------- ---- --- ---------- --------- -- ------- ------ -<br>--------- ----- -----,235268.49999999968,235268.07499999995,234863.034,234877.34499999988,234879.552,235279.194,,16,subpoena
screen,html.Screen,1_3_1_0_1_17,2021-04-12T21:24:15.333Z,,,,,,,,,,,,,,,,15,,,,,,,,,,,,,,586.6259999999893,,response,,,,7,C,,,,,,Space,keypress(Space),,,,instrumental,,,,---- --------- ---------- - --- ------- -- --- ------------<br>----- -- -------- ------- ---- ------ - -------- last -----<br>--- ------- ---- -- --- -------- --- - ----- ------ ---- --<br>-------- --- -------- -------- --- -------- ---- -- ----- -<br>-------- ---- --- ---------- --------- -- ------- ------ -<br>--------- ----- -----,235866.2049999998,235865.81999999998,235262.723,235268.56499999986,235279.194,235878.848,,17,last
screen,html.Screen,1_3_1_0_1_18,2021-04-12T21:24:15.829Z,,,,,,,,,,,,,,,,15,,,,,,,,,,,,,,483.541999999783,,response,,,,7,C,,,,,,Space,keypress(Space),,,,instrumental,,,,---- --------- ---------- - --- ------- -- --- ------------<br>----- -- -------- ------- ---- ------ - -------- ---- week.<br>--- ------- ---- -- --- -------- --- - ----- ------ ---- --<br>-------- --- -------- -------- --- -------- ---- -- ----- -<br>-------- ---- --- ---------- --------- -- ------- ------ -<br>--------- ----- -----,236362.81999999983,236362.38999999978,235862.181,235866.26499999966,235878.848,236378.329,,18,week.
screen,html.Screen,1_3_1_0_1_19,2021-04-12T21:24:16.256Z,,,,,,,,,,,,,,,,15,,,,,,,,,,,,,,411.08099999986007,,response,,,,7,C,,,,,,Space,keypress(Space),,,,instrumental,,,,---- --------- ---------- - --- ------- -- --- ------------<br>----- -- -------- ------- ---- ------ - -------- ---- -----<br>His ------- ---- -- --- -------- --- - ----- ------ ---- --<br>-------- --- -------- -------- --- -------- ---- -- ----- -<br>-------- ---- --- ---------- --------- -- ------- ------ -<br>--------- ----- -----,236789.81999999995,236789.40999999986,236361.76,236362.885,236378.329,236794.635,,19,His
screen,html.Screen,1_3_1_0_1_20,2021-04-12T21:24:16.704Z,,,,,,,,,,,,,,,,15,,,,,,,,,,,,,,442.5399999997462,,response,,,,7,C,,,,,,Space,keypress(Space),,,,instrumental,,,,---- --------- ---------- - --- ------- -- --- ------------<br>----- -- -------- ------- ---- ------ - -------- ---- -----<br>--- lawyers ---- -- --- -------- --- - ----- ------ ---- --<br>-------- --- -------- -------- --- -------- ---- -- ----- -<br>-------- ---- --- ---------- --------- -- ------- ------ -<br>--------- ----- -----,237237.615,237237.17499999976,236778.044,236789.8799999998,236794.635,237244.301,,20,lawyers
screen,html.Screen,1_3_1_0_1_21,2021-04-12T21:24:17.085Z,,,,,,,,,,,,,,,,15,,,,,,,,,,,,,,373.36399999973946,,response,,,,7,C,,,,,,Space,keypress(Space),,,,instrumental,,,,---- --------- ---------- - --- ------- -- --- ------------<br>----- -- -------- ------- ---- ------ - -------- ---- -----<br>--- ------- said -- --- -------- --- - ----- ------ ---- --<br>-------- --- -------- -------- --- -------- ---- -- ----- -<br>-------- ---- --- ---------- --------- -- ------- ------ -<br>--------- ----- -----,237618.105,237617.66499999975,237227.654,237237.67999999973,237244.301,237627.192,,21,said
screen,html.Screen,1_3_1_0_1_22,2021-04-12T21:24:17.451Z,,,,,,,,,,,,,,,,15,,,,,,,,,,,,,,357.1429999996326,,response,,,,7,C,,,,,,Space,keypress(Space),,,,instrumental,,,,---- --------- ---------- - --- ------- -- --- ------------<br>----- -- -------- ------- ---- ------ - -------- ---- -----<br>--- ------- ---- he --- -------- --- - ----- ------ ---- --<br>-------- --- -------- -------- --- -------- ---- -- ----- -<br>-------- ---- --- ---------- --------- -- ------- ------ -<br>--------- ----- -----,237984.84999999983,237984.33499999964,237610.647,237618.16999999975,237627.192,237993.543,,22,he
screen,html.Screen,1_3_1_0_1_23,2021-04-12T21:24:17.804Z,,,,,,,,,,,,,,,,15,,,,,,,,,,,,,,343.7919999996957,,response,,,,7,C,,,,,,Space,keypress(Space),,,,instrumental,,,,---- --------- ---------- - --- ------- -- --- ------------<br>----- -- -------- ------- ---- ------ - -------- ---- -----<br>--- ------- ---- -- was -------- --- - ----- ------ ---- --<br>-------- --- -------- -------- --- -------- ---- -- ----- -<br>-------- ---- --- ---------- --------- -- ------- ------ -<br>--------- ----- -----,238337.72499999986,238337.3349999997,237977.004,237984.91999999987,237993.543,238343.212,,23,was
screen,html.Screen,1_3_1_0_1_24,2021-04-12T21:24:18.134Z,,,,,,,,,,,,,,,,15,,,,,,,,,,,,,,323.8979999998701,,response,,,,7,C,,,,,,Space,keypress(Space),,,,instrumental,,,,---- --------- ---------- - --- ------- -- --- ------------<br>----- -- -------- ------- ---- ------ - -------- ---- -----<br>--- ------- ---- -- --- prepared --- - ----- ------ ---- --<br>-------- --- -------- -------- --- -------- ---- -- ----- -<br>-------- ---- --- ---------- --------- -- ------- ------ -<br>--------- ----- -----,238667.4949999997,238667.10999999987,238326.602,238337.79000000004,238343.212,238676.384,,24,prepared
screen,html.Screen,1_3_1_0_1_25,2021-04-12T21:24:18.559Z,,,,,,,,,,,,,,,,15,,,,,,,,,,,,,,415.7209999997285,,response,,,,7,C,,,,,,Space,keypress(Space),,,,instrumental,,,,---- --------- ---------- - --- ------- -- --- ------------<br>----- -- -------- ------- ---- ------ - -------- ---- -----<br>--- ------- ---- -- --- -------- for - ----- ------ ---- --<br>-------- --- -------- -------- --- -------- ---- -- ----- -<br>-------- ---- --- ---------- --------- -- ------- ------ -<br>--------- ----- -----,239092.63499999998,239092.10499999972,238659.573,238667.55999999988,238676.384,239109.225,,25,for
screen,html.Screen,1_3_1_0_1_26,2021-04-12T21:24:18.976Z,,,,,,,,,,,,,,,,15,,,,,,,,,,,,,,400.2600000000384,,response,,,,7,C,,,,,,Space,keypress(Space),,,,instrumental,,,,---- --------- ---------- - --- ------- -- --- ------------<br>----- -- -------- ------- ---- ------ - -------- ---- -----<br>--- ------- ---- -- --- -------- --- a ----- ------ ---- --<br>-------- --- -------- -------- --- -------- ---- -- ----- -<br>-------- ---- --- ---------- --------- -- ------- ------ -<br>--------- ----- -----,239509.90999999977,239509.48500000004,239092.571,239092.70500000002,239109.225,239525.687,,26,a
screen,html.Screen,1_3_1_0_1_27,2021-04-12T21:24:19.300Z,,,,,,,,,,,,,,,,15,,,,,,,,,,,,,,307.14799999969546,,response,,,,7,C,,,,,,Space,keypress(Space),,,,instrumental,,,,---- --------- ---------- - --- ------- -- --- ------------<br>----- -- -------- ------- ---- ------ - -------- ---- -----<br>--- ------- ---- -- --- -------- --- - third ------ ---- --<br>-------- --- -------- -------- --- -------- ---- -- ----- -<br>-------- ---- --- ---------- --------- -- ------- ------ -<br>--------- ----- -----,239833.27999999982,239832.8349999997,239509.007,239509.97499999995,239525.687,239842.029,,27,third
screen,html.Screen,1_3_1_0_1_28,2021-04-12T21:24:19.603Z,,,,,,,,,,,,,,,,15,,,,,,,,,,,,,,294.1559999998426,,response,,,,7,C,,,,,,Space,keypress(Space),,,,instrumental,,,,---- --------- ---------- - --- ------- -- --- ------------<br>----- -- -------- ------- ---- ------ - -------- ---- -----<br>--- ------- ---- -- --- -------- --- - ----- prison ---- --<br>-------- --- -------- -------- --- -------- ---- -- ----- -<br>-------- ---- --- ---------- --------- -- ------- ------ -<br>--------- ----- -----,240136.58499999973,240136.18499999985,239825.423,239833.345,239842.029,240141.81,,28,prison
screen,html.Screen,1_3_1_0_1_29,2021-04-12T21:24:20.199Z,,,,,,,,,,,,,,,,15,,,,,,,,,,,,,,590.2499999998254,,response,,,,7,C,,,,,,Space,keypress(Space),,,,instrumental,,,,---- --------- ---------- - --- ------- -- --- ------------<br>----- -- -------- ------- ---- ------ - -------- ---- -----<br>--- ------- ---- -- --- -------- --- - ----- ------ stay --<br>-------- --- -------- -------- --- -------- ---- -- ----- -<br>-------- ---- --- ---------- --------- -- ------- ------ -<br>--------- ----- -----,240732.43000000002,240732.05999999982,240125.145,240136.63999999972,240141.81,240741.112,,29,stay
screen,html.Screen,1_3_1_0_1_30,2021-04-12T21:24:20.499Z,,,,,,,,,,,,,,,,15,,,,,,,,,,,,,,291.5179999997199,,response,,,,7,C,,,,,,Space,keypress(Space),,,,instrumental,,,,---- --------- ---------- - --- ------- -- --- ------------<br>----- -- -------- ------- ---- ------ - -------- ---- -----<br>--- ------- ---- -- --- -------- --- - ----- ------ ---- to<br>-------- --- -------- -------- --- -------- ---- -- ----- -<br>-------- ---- --- ---------- --------- -- ------- ------ -<br>--------- ----- -----,241032.99500000002,241032.6299999997,240724.619,240732.485,240741.112,241040.835,,30,to
screen,html.Screen,1_3_1_0_1_31,2021-04-12T21:24:20.848Z,,,,,,,,,,,,,,,,15,,,,,,,,,,,,,,339.96000000005006,,response,,,,7,C,,,,,,Space,keypress(Space),,,,instrumental,,,,---- --------- ---------- - --- ------- -- --- ------------<br>----- -- -------- ------- ---- ------ - -------- ---- -----<br>--- ------- ---- -- --- -------- --- - ----- ------ ---- --<br>maintain --- -------- -------- --- -------- ---- -- ----- -<br>-------- ---- --- ---------- --------- -- ------- ------ -<br>--------- ----- -----,241381.1899999996,241380.79500000004,241024.195,241033.06499999962,241040.835,241390.545,,31,maintain
screen,html.Screen,1_3_1_0_1_32,2021-04-12T21:24:21.155Z,,,,,,,,,,,,,,,,15,,,,,,,,,,,,,,297.9999999999709,,response,,,,7,C,,,,,,Space,keypress(Space),,,,instrumental,,,,---- --------- ---------- - --- ------- -- --- ------------<br>----- -- -------- ------- ---- ------ - -------- ---- -----<br>--- ------- ---- -- --- -------- --- - ----- ------ ---- --<br>-------- his -------- -------- --- -------- ---- -- ----- -<br>-------- ---- --- ---------- --------- -- ------- ------ -<br>--------- ----- -----,241689.03,241688.54499999998,241373.917,241381.2499999999,241390.545,241714.499,,32,his
screen,html.Screen,1_3_1_0_1_33,2021-04-12T21:24:21.383Z,,,,,,,,,,,,,,,,15,,,,,,,,,,,,,,202.07099999985076,,response,,,,7,C,,,,,,Space,keypress(Space),,,,instrumental,,,,---- --------- ---------- - --- ------- -- --- ------------<br>----- -- -------- ------- ---- ------ - -------- ---- -----<br>--- ------- ---- -- --- -------- --- - ----- ------ ---- --<br>-------- --- silence. -------- --- -------- ---- -- ----- -<br>-------- ---- --- ---------- --------- -- ------- ------ -<br>--------- ----- -----,241916.9899999997,241916.56999999986,241673.777,241689.09499999974,241714.499,241923.537,,33,silence.
screen,html.Screen,1_3_1_0_1_34,2021-04-12T21:24:21.790Z,,,,,,,,,,,,,,,,15,,,,,,,,,,,,,,400.0329999999958,,response,,,,7,C,,,,,,Space,keypress(Space),,,,instrumental,,,,---- --------- ---------- - --- ------- -- --- ------------<br>----- -- -------- ------- ---- ------ - -------- ---- -----<br>--- ------- ---- -- --- -------- --- - ----- ------ ---- --<br>-------- --- -------- Anderson --- -------- ---- -- ----- -<br>-------- ---- --- ---------- --------- -- ------- ------ -<br>--------- ----- -----,242324.0149999997,242323.57,241906.921,241917.05000000002,241923.537,242339.748,,34,Anderson
screen,html.Screen,1_3_1_0_1_35,2021-04-12T21:24:22.210Z,,,,,,,,,,,,,,,,15,,,,,,,,,,,,,,403.01199999963865,,response,,,,7,C,,,,,,Space,keypress(Space),,,,instrumental,,,,---- --------- ---------- - --- ------- -- --- ------------<br>----- -- -------- ------- ---- ------ - -------- ---- -----<br>--- ------- ---- -- --- -------- --- - ----- ------ ---- --<br>-------- --- -------- -------- was -------- ---- -- ----- -<br>-------- ---- --- ---------- --------- -- ------- ------ -<br>--------- ----- -----,242743.15499999965,242742.75999999963,242323.201,242324.07499999998,242339.748,242756.179,,35,was
screen,html.Screen,1_3_1_0_1_36,2021-04-12T21:24:22.518Z,,,,,,,,,,,,,,,,15,,,,,,,,,,,,,,294.86599999968894,,response,,,,7,C,,,,,,Space,keypress(Space),,,,instrumental,,,,---- --------- ---------- - --- ------- -- --- ------------<br>----- -- -------- ------- ---- ------ - -------- ---- -----<br>--- ------- ---- -- --- -------- --- - ----- ------ ---- --<br>-------- --- -------- -------- --- released ---- -- ----- -<br>-------- ---- --- ---------- --------- -- ------- ------ -<br>--------- ----- -----,243051.43999999974,243051.0449999997,242739.504,242743.21499999997,242756.179,243055.869,,36,released
screen,html.Screen,1_3_1_0_1_37,2021-04-12T21:24:22.881Z,,,,,,,,,,,,,,,,15,,,,,,,,,,,,,,358.7309999995923,,response,,,,7,C,,,,,,Space,keypress(Space),,,,instrumental,,,,---- --------- ---------- - --- ------- -- --- ------------<br>----- -- -------- ------- ---- ------ - -------- ---- -----<br>--- ------- ---- -- --- -------- --- - ----- ------ ---- --<br>-------- --- -------- -------- --- -------- July -- ----- -<br>-------- ---- --- ---------- --------- -- ------- ------ -<br>--------- ----- -----,243415.03999999986,243414.5999999996,243039.282,243051.50000000003,243055.869,243422.234,,37,July
screen,html.Screen,1_3_1_0_1_38,2021-04-12T21:24:23.188Z,,,,,,,,,,,,,,,,15,,,,,,,,,,,,,,299.27599999986705,,response,,,,7,C,,,,,,Space,keypress(Space),,,,instrumental,,,,---- --------- ---------- - --- ------- -- --- ------------<br>----- -- -------- ------- ---- ------ - -------- ---- -----<br>--- ------- ---- -- --- -------- --- - ----- ------ ---- --<br>-------- --- -------- -------- --- -------- ---- 20 ----- -<br>-------- ---- --- ---------- --------- -- ------- ------ -<br>--------- ----- -----,243721.97499999992,243721.50999999986,243405.449,243415.09999999971,243422.234,243738.661,,38,20
screen,html.Screen,1_3_1_0_1_39,2021-04-12T21:24:23.647Z,,,,,,,,,,,,,,,,15,,,,,,,,,,,,,,441.10399999987567,,response,,,,7,C,,,,,,Space,keypress(Space),,,,instrumental,,,,---- --------- ---------- - --- ------- -- --- ------------<br>----- -- -------- ------- ---- ------ - -------- ---- -----<br>--- ------- ---- -- --- -------- --- - ----- ------ ---- --<br>-------- --- -------- -------- --- -------- ---- -- after -<br>-------- ---- --- ---------- --------- -- ------- ------ -<br>--------- ----- -----,244180.2249999996,244179.76499999987,243721.989,243722.04999999984,243738.661,244188.268,,39,after
