sender,sender_type,sender_id,timestamp,meta,,Blues,Classical,Country,Dance,Electronic,Folk,Gospel,Hip-Hop,Jazz,Latin,Musical/Film,New-age,Pop,Provo_ID,R&B,Rap,Reggae,Religious,Rock,Soul,Swing,Traditional,age,artist_name,correct,correctResponse,distraction,duration,education,ended_on,familiarity,gender,headphone_check_performance,item,list,music_frequency,offensiveness,pleasantness,position_correct,preference,response,response_action,snippet_file,song_name,song_rating,sound,stimulus_1,stimulus_2,stimulus_3,text,time_commit,time_end,time_render,time_run,time_show,time_switch,url,word,word_ID
Introduction,html.Screen,0_0,2021-04-21T07:53:59.289Z,"{""labjs_version"":""20.2.2"",""labjs_build"":{""flavor"":""production"",""commit"":""a25486e0c714a0ae2ce03ff94b7bb6896854dcfa""},""location"":""https://run.pavlovia.org/mvasilev/music_d/"",""userAgent"":""Mozilla/5.0 (Macintosh; Intel Mac OS X 10_14_6) AppleWebKit/605.1.15 (KHTML, like Gecko) Version/14.0.1 Safari/605.1.15"",""platform"":""MacIntel"",""language"":""en-gb"",""locale"":""en-GB"",""timeZone"":""Europe/London"",""timezoneOffset"":-60,""screen_width"":1440,""screen_height"":900,""scroll_width"":1440,""scroll_height"":789,""window_innerWidth"":1440,""window_innerHeight"":837,""devicePixelRatio"":1}",,,,,,,,,,,,,,,,,,,,,,,,,,,,,18114,,response,,,,,,,,,,,continue,click button,,,,,,,,,24334,24358,6244,6222,6259,24360,{},,
Volume calibration,html.Screen,0_1,2021-04-21T07:54:24.589Z,,,,,,,,,,,,,,,,,,,,,,,,,,,,,,25318.000000000007,,response,,,,,,,,,,,continue,click button,,,,,,,,,49635,49663.00000000001,24345,24335,24360,49662,,,
Task instructions,html.Screen,0_2,2021-04-21T07:54:35.962Z,,,,,,,,,,,,,,,,,,,,,,,,,,,,,,11391,,response,,,,,,,,,,,continue,click button,,,,,,,,,61008,61037,49646,49635,49662,61030,,,
Sounds,html.Screen,0_3_0_0,2021-04-21T07:54:40.220Z,,,,,,,,,,,,,,,,,,,,,,,,,,,,,,4251,,timeout,,,,,,,,,1,,,,,,,,S,O,I,,65266.00000000001,65264,61014,61009,61030,65281,,,
Judgement,html.Screen,0_3_0_1,2021-04-21T07:54:41.178Z,,,,,,,,,,,,,,,,,,,,,,,,,,,true,1,,989,,response,,,,,,,,,1,,1,click #choice-1,,,,,S,O,I,,66224,66253,65264,65266.00000000001,65281,66247,,,
Trial,flow.Sequence,0_3_0,2021-04-21T07:54:41.178Z,,,,,,,,,,,,,,,,,,,,,,,,,,,,,,5223,,completion,,,,,,,,,1,,,,,,,,S,O,I,,66224,66253,61014,61008,61030,66247,,,
Sounds,html.Screen,0_3_1_0,2021-04-21T07:54:45.434Z,,,,,,,,,,,,,,,,,,,,,,,,,,,,,,4250,,timeout,,,,,,,,,2,,,,,,,,I,S,O,,70480,70480,66230,66225,66247,70497,,,
Judgement,html.Screen,0_3_1_1,2021-04-21T07:54:46.052Z,,,,,,,,,,,,,,,,,,,,,,,,,,,true,2,,647,,response,,,,,,,,,2,,2,click #choice-2,,,,,I,S,O,,71098,71127,70480,70481,70497,71131,,,
Trial,flow.Sequence,0_3_1,2021-04-21T07:54:46.052Z,,,,,,,,,,,,,,,,,,,,,,,,,,,,,,4880,,completion,,,,,,,,,2,,,,,,,,I,S,O,,71099,71127,66230,66224,66247,71131,,,
Sounds,html.Screen,0_3_2_0,2021-04-21T07:54:50.318Z,,,,,,,,,,,,,,,,,,,,,,,,,,,,,,4251,,timeout,,,,,,,,,2,,,,,,,,O,S,I,,75364,75364,71115,71099,71131,75382,,,
Judgement,html.Screen,0_3_2_1,2021-04-21T07:54:50.760Z,,,,,,,,,,,,,,,,,,,,,,,,,,,true,2,,471.00000000001455,,response,,,,,,,,,2,,2,click #choice-2,,,,,O,S,I,,75806,75835.00000000001,75364,75364,75382,75831,,,
Trial,flow.Sequence,0_3_2,2021-04-21T07:54:50.760Z,,,,,,,,,,,,,,,,,,,,,,,,,,,,,,4704.000000000015,,completion,,,,,,,,,2,,,,,,,,O,S,I,,75806,75835.00000000001,71115,71099,71131,75831,,,
Sounds,html.Screen,0_3_3_0,2021-04-21T07:54:55.019Z,,,,,,,,,,,,,,,,,,,,,,,,,,,,,,4250,,timeout,,,,,,,,,1,,,,,,,,S,I,O,,80065,80065,75815,75807,75831,80081,,,
Judgement,html.Screen,0_3_3_1,2021-04-21T07:54:55.433Z,,,,,,,,,,,,,,,,,,,,,,,,,,,true,1,,443,,response,,,,,,,,,1,,1,click #choice-1,,,,,S,I,O,,80479,80508,80065,80066,80081,80498,,,
Trial,flow.Sequence,0_3_3,2021-04-21T07:54:55.433Z,,,,,,,,,,,,,,,,,,,,,,,,,,,,,,4677,,completion,,,,,,,,,1,,,,,,,,S,I,O,,80479,80508,75815,75807,75831,80498,,,
Sounds,html.Screen,0_3_4_0,2021-04-21T07:54:59.686Z,,,,,,,,,,,,,,,,,,,,,,,,,,,,,,4250,,timeout,,,,,,,,,3,,,,,,,,O,I,S,,84732,84732,80481,80479,80498,84748,,,
Judgement,html.Screen,0_3_4_1,2021-04-21T07:55:00.096Z,,,,,,,,,,,,,,,,,,,,,,,,,,,true,3,,440,,response,,,,,,,,,3,,3,click #choice-3,,,,,O,I,S,,85142,85172,84732,84732,84748,85165,,,
Trial,flow.Sequence,0_3_4,2021-04-21T07:55:00.096Z,,,,,,,,,,,,,,,,,,,,,,,,,,,,,,4674,,completion,,,,,,,,,3,,,,,,,,O,I,S,,85143,85172,80481,80479,80498,85165,,,
Sounds,html.Screen,0_3_5_0,2021-04-21T07:55:04.352Z,,,,,,,,,,,,,,,,,,,,,,,,,,,,,,4250,,timeout,,,,,,,,,3,,,,,,,,I,O,S,,89399,89399,85148,85143,85165,89415,,,
Judgement,html.Screen,0_3_5_1,2021-04-21T07:55:04.732Z,,,,,,,,,,,,,,,,,,,,,,,,,,,true,3,,410,,response,,,,,,,,,3,,3,click #choice-3,,,,,I,O,S,,89779,89809,89399,89399,89415,89816,,,
Trial,flow.Sequence,0_3_5,2021-04-21T07:55:04.733Z,,,,,,,,,,,,,,,,,,,,,,,,,,,,,,4644,,completion,,,,,,,,,3,,,,,,,,I,O,S,,89779,89809,85148,85143,85165,89816,,,
Task,flow.Loop,0_3,2021-04-21T07:55:04.735Z,,,,,,,,,,,,,,,,,,,,,,,,,,,,,,28779,,completion,,,1,,,,,,,,,,,,,,,,,,89782,89809,61014,61008,61030,89816,,,
Trap,html.Screen,0_4,2021-04-21T07:55:04.737Z,,,,,,,,,,,,,,,,,,,,,,,,,,,,,,NaN,,skipped,,,,,,,,,,,,,,,,,,,,,89783,89809,,89783,,89816,,,
Thanks,html.Screen,0_5,2021-04-21T07:55:10.111Z,,,,,,,,,,,,,,,,,,,,,,,,,,,,,,5389,,response,,,,,,,,,,,continue,click button,,,,,,,,,95158,95188,89799,89784,89816,97799,,,
Headphone screening,flow.Sequence,0,2021-04-21T07:55:10.111Z,,,,,,,,,,,,,,,,,,,,,,,,,,,,,,88929,,completion,,,,,,,,,,,,,,,,,,,,,95158,95188,6244,6221,6259,97799,,,
Instructions,html.Page,1_0,2021-04-21T07:55:34.027Z,,,,,,,,,,,,,,,,,,,,,,,,,,,,,,21275,,form submission,,,,,,,,,,,,,,,,,,,,,119074,119074,97790,97773,97799,119101,,,
Holding screen,html.Screen,1_1_0_0,2021-04-21T07:55:44.038Z,,,,,,,,,,,,,,,,,,,,,,,,,,,,,,10016,,timeout,,,,,,,,,,,,,,,,,,,,,129086.00000000001,129085,119084,119075,119101,129117,,,
screen,html.Screen,1_1_0_1_0,2021-04-21T07:55:45.252Z,,,,,,,,,,,,,,,,53,,,,,,,,,,,,,,1243,,response,,,,99,,,,,,,Space,keypress(Space),,,,,,,,When -- ----- -- ------ - ------- --- ----------<br>------------- ------ ------ ---- ---- ------- ----- -- ----<br>-------- ------- -- ---------- --- - --- ----- ----- ----<br>---- --- --- ----- --- ---- ---- ------- ----- ---- -------<br>--- --- -- ----- -- --- ---- -- --- ---- -- ------ ------<br>--- ----- -- ----,130300.00000000001,130328,129085,129086.00000000001,129117,130334,,0,When
screen,html.Screen,1_1_0_1_1,2021-04-21T07:55:45.716Z,,,,,,,,,,,,,,,,53,,,,,,,,,,,,,,477.00000000001455,,response,,,,99,,,,,,,Space,keypress(Space),,,,,,,,---- it ----- -- ------ - ------- --- ----------<br>------------- ------ ------ ---- ---- ------- ----- -- ----<br>-------- ------- -- ---------- --- - --- ----- ----- ----<br>---- --- --- ----- --- ---- ---- ------- ----- ---- -------<br>--- --- -- ----- -- --- ---- -- --- ---- -- ------ ------<br>--- ----- -- ----,130764.00000000001,130795.00000000001,130318,130300.00000000001,130334,130801,,1,it
screen,html.Screen,1_1_0_1_2,2021-04-21T07:55:46.158Z,,,,,,,,,,,,,,,,53,,,,,,,,,,,,,,452,,response,,,,99,,,,,,,Space,keypress(Space),,,,,,,,---- -- comes -- ------ - ------- --- ----------<br>------------- ------ ------ ---- ---- ------- ----- -- ----<br>-------- ------- -- ---------- --- - --- ----- ----- ----<br>---- --- --- ----- --- ---- ---- ------- ----- ---- -------<br>--- --- -- ----- -- --- ---- -- --- ---- -- ------ ------<br>--- ----- -- ----,131206,131237,130785,130764.00000000001,130801,131236,,2,comes
screen,html.Screen,1_1_0_1_3,2021-04-21T07:55:46.792Z,,,,,,,,,,,,,,,,53,,,,,,,,,,,,,,651,,response,,,,99,,,,,,,Space,keypress(Space),,,,,,,,---- -- ----- to ------ - ------- --- ----------<br>------------- ------ ------ ---- ---- ------- ----- -- ----<br>-------- ------- -- ---------- --- - --- ----- ----- ----<br>---- --- --- ----- --- ---- ---- ------- ----- ---- -------<br>--- --- -- ----- -- --- ---- -- --- ---- -- ------ ------<br>--- ----- -- ----,131840,131870,131219,131206,131236,131868,,3,to
screen,html.Screen,1_1_0_1_4,2021-04-21T07:55:47.340Z,,,,,,,,,,,,,,,,53,,,,,,,,,,,,,,566,,response,,,,99,,,,,,,Space,keypress(Space),,,,,,,,---- -- ----- -- having - ------- --- ----------<br>------------- ------ ------ ---- ---- ------- ----- -- ----<br>-------- ------- -- ---------- --- - --- ----- ----- ----<br>---- --- --- ----- --- ---- ---- ------- ----- ---- -------<br>--- --- -- ----- -- --- ---- -- --- ---- -- ------ ------<br>--- ----- -- ----,132388,132418,131852,131840,131868,132419,,4,having
screen,html.Screen,1_1_0_1_5,2021-04-21T07:55:47.799Z,,,,,,,,,,,,,,,,53,,,,,,,,,,,,,,476,,response,,,,99,,,,,,,Space,keypress(Space),,,,,,,,---- -- ----- -- ------ a ------- --- ----------<br>------------- ------ ------ ---- ---- ------- ----- -- ----<br>-------- ------- -- ---------- --- - --- ----- ----- ----<br>---- --- --- ----- --- ---- ---- ------- ----- ---- -------<br>--- --- -- ----- -- --- ---- -- --- ---- -- ------ ------<br>--- ----- -- ----,132847,132877,132401,132388,132419,132886,,5,a
screen,html.Screen,1_1_0_1_6,2021-04-21T07:55:48.353Z,,,,,,,,,,,,,,,,53,,,,,,,,,,,,,,563.0000000000291,,response,,,,99,,,,,,,Space,keypress(Space),,,,,,,,---- -- ----- -- ------ - lasting --- ----------<br>------------- ------ ------ ---- ---- ------- ----- -- ----<br>-------- ------- -- ---------- --- - --- ----- ----- ----<br>---- --- --- ----- --- ---- ---- ------- ----- ---- -------<br>--- --- -- ----- -- --- ---- -- --- ---- -- ------ ------<br>--- ----- -- ----,133402.00000000003,133432.00000000003,132869,132847,132886,133436,,6,lasting
screen,html.Screen,1_1_0_1_7,2021-04-21T07:55:48.827Z,,,,,,,,,,,,,,,,53,,,,,,,,,,,,,,486,,response,,,,99,,,,,,,Space,keypress(Space),,,,,,,,---- -- ----- -- ------ - ------- and ----------<br>------------- ------ ------ ---- ---- ------- ----- -- ----<br>-------- ------- -- ---------- --- - --- ----- ----- ----<br>---- --- --- ----- --- ---- ---- ------- ----- ---- -------<br>--- --- -- ----- -- --- ---- -- --- ---- -- ------ ------<br>--- ----- -- ----,133875,133905,133419,133402.00000000003,133436,133902,,7,and
screen,html.Screen,1_1_0_1_8,2021-04-21T07:55:49.376Z,,,,,,,,,,,,,,,,53,,,,,,,,,,,,,,569,,response,,,,99,,,,,,,Space,keypress(Space),,,,,,,,---- -- ----- -- ------ - ------- --- fulfilling<br>------------- ------ ------ ---- ---- ------- ----- -- ----<br>-------- ------- -- ---------- --- - --- ----- ----- ----<br>---- --- --- ----- --- ---- ---- ------- ----- ---- -------<br>--- --- -- ----- -- --- ---- -- --- ---- -- ------ ------<br>--- ----- -- ----,134425,134455,133886,133875,133902,134452,,8,fulfilling
screen,html.Screen,1_1_0_1_9,2021-04-21T07:55:50.165Z,,,,,,,,,,,,,,,,53,,,,,,,,,,,,,,808,,response,,,,99,,,,,,,Space,keypress(Space),,,,,,,,"---- -- ----- -- ------ - ------- --- ----------<br>relationship, ------ ------ ---- ---- ------- ----- -- ----<br>-------- ------- -- ---------- --- - --- ----- ----- ----<br>---- --- --- ----- --- ---- ---- ------- ----- ---- -------<br>--- --- -- ----- -- --- ---- -- --- ---- -- ------ ------<br>--- ----- -- ----",135213,135244,134436,134425,134452,135252,,9,"relationship,"
screen,html.Screen,1_1_0_1_10,2021-04-21T07:55:50.637Z,,,,,,,,,,,,,,,,53,,,,,,,,,,,,,,481,,response,,,,99,,,,,,,Space,keypress(Space),,,,,,,,---- -- ----- -- ------ - ------- --- ----------<br>------------- common ------ ---- ---- ------- ----- -- ----<br>-------- ------- -- ---------- --- - --- ----- ----- ----<br>---- --- --- ----- --- ---- ---- ------- ----- ---- -------<br>--- --- -- ----- -- --- ---- -- --- ---- -- ------ ------<br>--- ----- -- ----,135685,135716,135235,135214,135252,135718,,10,common
screen,html.Screen,1_1_0_1_11,2021-04-21T07:55:51.183Z,,,,,,,,,,,,,,,,53,,,,,,,,,,,,,,560,,response,,,,99,,,,,,,Space,keypress(Space),,,,,,,,---- -- ----- -- ------ - ------- --- ----------<br>------------- ------ wisdom ---- ---- ------- ----- -- ----<br>-------- ------- -- ---------- --- - --- ----- ----- ----<br>---- --- --- ----- --- ---- ---- ------- ----- ---- -------<br>--- --- -- ----- -- --- ---- -- --- ---- -- ------ ------<br>--- ----- -- ----,136232,136262,135702,135685,135718,136269,,11,wisdom
screen,html.Screen,1_1_0_1_12,2021-04-21T07:55:51.788Z,,,,,,,,,,,,,,,,53,,,,,,,,,,,,,,615,,response,,,,99,,,,,,,Space,keypress(Space),,,,,,,,---- -- ----- -- ------ - ------- --- ----------<br>------------- ------ ------ says ---- ------- ----- -- ----<br>-------- ------- -- ---------- --- - --- ----- ----- ----<br>---- --- --- ----- --- ---- ---- ------- ----- ---- -------<br>--- --- -- ----- -- --- ---- -- --- ---- -- ------ ------<br>--- ----- -- ----,136836,136867,136252,136232,136269,136869,,12,says
screen,html.Screen,1_1_0_1_13,2021-04-21T07:55:52.326Z,,,,,,,,,,,,,,,,53,,,,,,,,,,,,,,553,,response,,,,99,,,,,,,Space,keypress(Space),,,,,,,,---- -- ----- -- ------ - ------- --- ----------<br>------------- ------ ------ ---- that ------- ----- -- ----<br>-------- ------- -- ---------- --- - --- ----- ----- ----<br>---- --- --- ----- --- ---- ---- ------- ----- ---- -------<br>--- --- -- ----- -- --- ---- -- --- ---- -- ------ ------<br>--- ----- -- ----,137374,137405,136852,136836,136869,137403,,13,that
screen,html.Screen,1_1_0_1_14,2021-04-21T07:55:52.893Z,,,,,,,,,,,,,,,,53,,,,,,,,,,,,,,587,,response,,,,99,,,,,,,Space,keypress(Space),,,,,,,,---- -- ----- -- ------ - ------- --- ----------<br>------------- ------ ------ ---- ---- feeling ----- -- ----<br>-------- ------- -- ---------- --- - --- ----- ----- ----<br>---- --- --- ----- --- ---- ---- ------- ----- ---- -------<br>--- --- -- ----- -- --- ---- -- --- ---- -- ------ ------<br>--- ----- -- ----,137941,137972,137385,137375,137403,137969,,14,feeling
screen,html.Screen,1_1_0_1_15,2021-04-21T07:55:53.446Z,,,,,,,,,,,,,,,,53,,,,,,,,,,,,,,572,,response,,,,99,,,,,,,Space,keypress(Space),,,,,,,,---- -- ----- -- ------ - ------- --- ----------<br>------------- ------ ------ ---- ---- ------- close -- ----<br>-------- ------- -- ---------- --- - --- ----- ----- ----<br>---- --- --- ----- --- ---- ---- ------- ----- ---- -------<br>--- --- -- ----- -- --- ---- -- --- ---- -- ------ ------<br>--- ----- -- ----,138495,138525,137953,137941,137969,138535,,15,close
screen,html.Screen,1_1_0_1_16,2021-04-21T07:55:53.948Z,,,,,,,,,,,,,,,,53,,,,,,,,,,,,,,509.0000000000291,,response,,,,99,,,,,,,Space,keypress(Space),,,,,,,,---- -- ----- -- ------ - ------- --- ----------<br>------------- ------ ------ ---- ---- ------- ----- to ----<br>-------- ------- -- ---------- --- - --- ----- ----- ----<br>---- --- --- ----- --- ---- ---- ------- ----- ---- -------<br>--- --- -- ----- -- --- ---- -- --- ---- -- ------ ------<br>--- ----- -- ----,138996,139027.00000000003,138518,138495,138535,139036,,16,to
screen,html.Screen,1_1_0_1_17,2021-04-21T07:55:54.409Z,,,,,,,,,,,,,,,,53,,,,,,,,,,,,,,468,,response,,,,99,,,,,,,Space,keypress(Space),,,,,,,,---- -- ----- -- ------ - ------- --- ----------<br>------------- ------ ------ ---- ---- ------- ----- -- your<br>-------- ------- -- ---------- --- - --- ----- ----- ----<br>---- --- --- ----- --- ---- ---- ------- ----- ---- -------<br>--- --- -- ----- -- --- ---- -- --- ---- -- ------ ------<br>--- ----- -- ----,139457,139488,139020,138996,139036,139485,,17,your
screen,html.Screen,1_1_0_1_18,2021-04-21T07:55:54.958Z,,,,,,,,,,,,,,,,53,,,,,,,,,,,,,,567,,response,,,,99,,,,,,,Space,keypress(Space),,,,,,,,---- -- ----- -- ------ - ------- --- ----------<br>------------- ------ ------ ---- ---- ------- ----- -- ----<br>romantic ------- -- ---------- --- - --- ----- ----- ----<br>---- --- --- ----- --- ---- ---- ------- ----- ---- -------<br>--- --- -- ----- -- --- ---- -- --- ---- -- ------ ------<br>--- ----- -- ----,140006,140037,139470,139458,139485,140036,,18,romantic
screen,html.Screen,1_1_0_1_19,2021-04-21T07:55:55.424Z,,,,,,,,,,,,,,,,53,,,,,,,,,,,,,,483,,response,,,,99,,,,,,,Space,keypress(Space),,,,,,,,---- -- ----- -- ------ - ------- --- ----------<br>------------- ------ ------ ---- ---- ------- ----- -- ----<br>-------- partner -- ---------- --- - --- ----- ----- ----<br>---- --- --- ----- --- ---- ---- ------- ----- ---- -------<br>--- --- -- ----- -- --- ---- -- --- ---- -- ------ ------<br>--- ----- -- ----,140472,140503,140020,140007,140036,140502,,19,partner
screen,html.Screen,1_1_0_1_20,2021-04-21T07:55:55.992Z,,,,,,,,,,,,,,,,53,,,,,,,,,,,,,,586,,response,,,,99,,,,,,,Space,keypress(Space),,,,,,,,---- -- ----- -- ------ - ------- --- ----------<br>------------- ------ ------ ---- ---- ------- ----- -- ----<br>-------- ------- is ---------- --- - --- ----- ----- ----<br>---- --- --- ----- --- ---- ---- ------- ----- ---- -------<br>--- --- -- ----- -- --- ---- -- --- ---- -- ------ ------<br>--- ----- -- ----,141041,141072,140486,140472,140502,141070,,20,is
screen,html.Screen,1_1_0_1_21,2021-04-21T07:55:57.147Z,,,,,,,,,,,,,,,,53,,,,,,,,,,,,,,1174,,response,,,,99,,,,,,,Space,keypress(Space),,,,,,,,---- -- ----- -- ------ - ------- --- ----------<br>------------- ------ ------ ---- ---- ------- ----- -- ----<br>-------- ------- -- paramount. --- - --- ----- ----- ----<br>---- --- --- ----- --- ---- ---- ------- ----- ---- -------<br>--- --- -- ----- -- --- ---- -- --- ---- -- ------ ------<br>--- ----- -- ----,142195,142226,141052,141041,141070,142236,,21,paramount.
screen,html.Screen,1_1_0_1_22,2021-04-21T07:55:57.699Z,,,,,,,,,,,,,,,,53,,,,,,,,,,,,,,559,,response,,,,99,,,,,,,Space,keypress(Space),,,,,,,,---- -- ----- -- ------ - ------- --- ----------<br>------------- ------ ------ ---- ---- ------- ----- -- ----<br>-------- ------- -- ---------- But - --- ----- ----- ----<br>---- --- --- ----- --- ---- ---- ------- ----- ---- -------<br>--- --- -- ----- -- --- ---- -- --- ---- -- ------ ------<br>--- ----- -- ----,142748,142779,142220,142195,142236,142786,,22,But
screen,html.Screen,1_1_0_1_23,2021-04-21T07:55:58.175Z,,,,,,,,,,,,,,,,53,,,,,,,,,,,,,,486,,response,,,,99,,,,,,,Space,keypress(Space),,,,,,,,---- -- ----- -- ------ - ------- --- ----------<br>------------- ------ ------ ---- ---- ------- ----- -- ----<br>-------- ------- -- ---------- --- a --- ----- ----- ----<br>---- --- --- ----- --- ---- ---- ------- ----- ---- -------<br>--- --- -- ----- -- --- ---- -- --- ---- -- ------ ------<br>--- ----- -- ----,143224,143255,142769,142748,142786,143253,,23,a
screen,html.Screen,1_1_0_1_24,2021-04-21T07:55:58.855Z,,,,,,,,,,,,,,,,53,,,,,,,,,,,,,,699,,response,,,,99,,,,,,,Space,keypress(Space),,,,,,,,---- -- ----- -- ------ - ------- --- ----------<br>------------- ------ ------ ---- ---- ------- ----- -- ----<br>-------- ------- -- ---------- --- - new ----- ----- ----<br>---- --- --- ----- --- ---- ---- ------- ----- ---- -------<br>--- --- -- ----- -- --- ---- -- --- ---- -- ------ ------<br>--- ----- -- ----,143904,143935,143236,143224,143253,143936,,24,new
screen,html.Screen,1_1_0_1_25,2021-04-21T07:55:59.347Z,,,,,,,,,,,,,,,,53,,,,,,,,,,,,,,507,,response,,,,99,,,,,,,Space,keypress(Space),,,,,,,,---- -- ----- -- ------ - ------- --- ----------<br>------------- ------ ------ ---- ---- ------- ----- -- ----<br>-------- ------- -- ---------- --- - --- study ----- ----<br>---- --- --- ----- --- ---- ---- ------- ----- ---- -------<br>--- --- -- ----- -- --- ---- -- --- ---- -- ------ ------<br>--- ----- -- ----,144396.00000000003,144427,143920,143904,143936,144436,,25,study
screen,html.Screen,1_1_0_1_26,2021-04-21T07:55:59.806Z,,,,,,,,,,,,,,,,53,,,,,,,,,,,,,,465,,response,,,,99,,,,,,,Space,keypress(Space),,,,,,,,---- -- ----- -- ------ - ------- --- ----------<br>------------- ------ ------ ---- ---- ------- ----- -- ----<br>-------- ------- -- ---------- --- - --- ----- finds ----<br>---- --- --- ----- --- ---- ---- ------- ----- ---- -------<br>--- --- -- ----- -- --- ---- -- --- ---- -- ------ ------<br>--- ----- -- ----,144855,144885,144420,144396.00000000003,144436,144886,,26,finds
screen,html.Screen,1_1_0_1_27,2021-04-21T07:56:00.257Z,,,,,,,,,,,,,,,,53,,,,,,,,,,,,,,467,,response,,,,99,,,,,,,Space,keypress(Space),,,,,,,,---- -- ----- -- ------ - ------- --- ----------<br>------------- ------ ------ ---- ---- ------- ----- -- ----<br>-------- ------- -- ---------- --- - --- ----- ----- that<br>---- --- --- ----- --- ---- ---- ------- ----- ---- -------<br>--- --- -- ----- -- --- ---- -- --- ---- -- ------ ------<br>--- ----- -- ----,145306,145337,144870,144855,144886,145337,,27,that
screen,html.Screen,1_1_0_1_28,2021-04-21T07:56:00.697Z,,,,,,,,,,,,,,,,53,,,,,,,,,,,,,,456,,response,,,,99,,,,,,,Space,keypress(Space),,,,,,,,---- -- ----- -- ------ - ------- --- ----------<br>------------- ------ ------ ---- ---- ------- ----- -- ----<br>-------- ------- -- ---------- --- - --- ----- ----- ----<br>it's --- --- ----- --- ---- ---- ------- ----- ---- -------<br>--- --- -- ----- -- --- ---- -- --- ---- -- ------ ------<br>--- ----- -- ----,145746,145776,145320,145306,145337,145787,,28,it's
screen,html.Screen,1_1_0_1_29,2021-04-21T07:56:01.102Z,,,,,,,,,,,,,,,,53,,,,,,,,,,,,,,412,,response,,,,99,,,,,,,Space,keypress(Space),,,,,,,,---- -- ----- -- ------ - ------- --- ----------<br>------------- ------ ------ ---- ---- ------- ----- -- ----<br>-------- ------- -- ---------- --- - --- ----- ----- ----<br>---- not --- ----- --- ---- ---- ------- ----- ---- -------<br>--- --- -- ----- -- --- ---- -- --- ---- -- ------ ------<br>--- ----- -- ----,146150,146181,145769,145746,145787,146169,,29,not
screen,html.Screen,1_1_0_1_30,2021-04-21T07:56:01.553Z,,,,,,,,,,,,,,,,53,,,,,,,,,,,,,,479,,response,,,,99,,,,,,,Space,keypress(Space),,,,,,,,---- -- ----- -- ------ - ------- --- ----------<br>------------- ------ ------ ---- ---- ------- ----- -- ----<br>-------- ------- -- ---------- --- - --- ----- ----- ----<br>---- --- how ----- --- ---- ---- ------- ----- ---- -------<br>--- --- -- ----- -- --- ---- -- --- ---- -- ------ ------<br>--- ----- -- ----,146602,146632,146153,146150,146169,146636,,30,how
screen,html.Screen,1_1_0_1_31,2021-04-21T07:56:02.039Z,,,,,,,,,,,,,,,,53,,,,,,,,,,,,,,498,,response,,,,99,,,,,,,Space,keypress(Space),,,,,,,,---- -- ----- -- ------ - ------- --- ----------<br>------------- ------ ------ ---- ---- ------- ----- -- ----<br>-------- ------- -- ---------- --- - --- ----- ----- ----<br>---- --- --- close --- ---- ---- ------- ----- ---- -------<br>--- --- -- ----- -- --- ---- -- --- ---- -- ------ ------<br>--- ----- -- ----,147087,147118,146620,146602,146636,147120,,31,close
screen,html.Screen,1_1_0_1_32,2021-04-21T07:56:02.444Z,,,,,,,,,,,,,,,,53,,,,,,,,,,,,,,422,,response,,,,99,,,,,,,Space,keypress(Space),,,,,,,,---- -- ----- -- ------ - ------- --- ----------<br>------------- ------ ------ ---- ---- ------- ----- -- ----<br>-------- ------- -- ---------- --- - --- ----- ----- ----<br>---- --- --- ----- you ---- ---- ------- ----- ---- -------<br>--- --- -- ----- -- --- ---- -- --- ---- -- ------ ------<br>--- ----- -- ----,147493,147524,147102,147087,147120,147520,,32,you
screen,html.Screen,1_1_0_1_33,2021-04-21T07:56:02.897Z,,,,,,,,,,,,,,,,53,,,,,,,,,,,,,,474,,response,,,,99,,,,,,,Space,keypress(Space),,,,,,,,---- -- ----- -- ------ - ------- --- ----------<br>------------- ------ ------ ---- ---- ------- ----- -- ----<br>-------- ------- -- ---------- --- - --- ----- ----- ----<br>---- --- --- ----- --- feel ---- ------- ----- ---- -------<br>--- --- -- ----- -- --- ---- -- --- ---- -- ------ ------<br>--- ----- -- ----,147946,147976,147502,147493,147520,147987,,33,feel
screen,html.Screen,1_1_0_1_34,2021-04-21T07:56:03.292Z,,,,,,,,,,,,,,,,53,,,,,,,,,,,,,,403,,response,,,,99,,,,,,,Space,keypress(Space),,,,,,,,---- -- ----- -- ------ - ------- --- ----------<br>------------- ------ ------ ---- ---- ------- ----- -- ----<br>-------- ------- -- ---------- --- - --- ----- ----- ----<br>---- --- --- ----- --- ---- that ------- ----- ---- -------<br>--- --- -- ----- -- --- ---- -- --- ---- -- ------ ------<br>--- ----- -- ----,148341,148372,147969,147946,147987,148369,,34,that
screen,html.Screen,1_1_0_1_35,2021-04-21T07:56:03.830Z,,,,,,,,,,,,,,,,53,,,,,,,,,,,,,,557,,response,,,,99,,,,,,,Space,keypress(Space),,,,,,,,---- -- ----- -- ------ - ------- --- ----------<br>------------- ------ ------ ---- ---- ------- ----- -- ----<br>-------- ------- -- ---------- --- - --- ----- ----- ----<br>---- --- --- ----- --- ---- ---- matters ----- ---- -------<br>--- --- -- ----- -- --- ---- -- --- ---- -- ------ ------<br>--- ----- -- ----,148879,148910,148353,148341,148369,148920,,35,matters
screen,html.Screen,1_1_0_1_36,2021-04-21T07:56:04.262Z,,,,,,,,,,,,,,,,53,,,,,,,,,,,,,,440,,response,,,,99,,,,,,,Space,keypress(Space),,,,,,,,"---- -- ----- -- ------ - ------- --- ----------<br>------------- ------ ------ ---- ---- ------- ----- -- ----<br>-------- ------- -- ---------- --- - --- ----- ----- ----<br>---- --- --- ----- --- ---- ---- ------- most, ---- -------<br>--- --- -- ----- -- --- ---- -- --- ---- -- ------ ------<br>--- ----- -- ----",149311,149342,148902,148879,148920,149353,,36,"most,"
screen,html.Screen,1_1_0_1_37,2021-04-21T07:56:04.701Z,,,,,,,,,,,,,,,,53,,,,,,,,,,,,,,445,,response,,,,99,,,,,,,Space,keypress(Space),,,,,,,,---- -- ----- -- ------ - ------- --- ----------<br>------------- ------ ------ ---- ---- ------- ----- -- ----<br>-------- ------- -- ---------- --- - --- ----- ----- ----<br>---- --- --- ----- --- ---- ---- ------- ----- it's -------<br>--- --- -- ----- -- --- ---- -- --- ---- -- ------ ------<br>--- ----- -- ----,149750,149781,149336,149311,149353,149787,,37,it's
screen,html.Screen,1_1_0_1_38,2021-04-21T07:56:05.105Z,,,,,,,,,,,,,,,,53,,,,,,,,,,,,,,415,,response,,,,99,,,,,,,Space,keypress(Space),,,,,,,,---- -- ----- -- ------ - ------- --- ----------<br>------------- ------ ------ ---- ---- ------- ----- -- ----<br>-------- ------- -- ---------- --- - --- ----- ----- ----<br>---- --- --- ----- --- ---- ---- ------- ----- ---- whether<br>--- --- -- ----- -- --- ---- -- --- ---- -- ------ ------<br>--- ----- -- ----,150154,150184,149769,149750,149787,150187,,38,whether
screen,html.Screen,1_1_0_1_39,2021-04-21T07:56:05.536Z,,,,,,,,,,,,,,,,53,,,,,,,,,,,,,,446,,response,,,,99,,,,,,,Space,keypress(Space),,,,,,,,---- -- ----- -- ------ - ------- --- ----------<br>------------- ------ ------ ---- ---- ------- ----- -- ----<br>-------- ------- -- ---------- --- - --- ----- ----- ----<br>---- --- --- ----- --- ---- ---- ------- ----- ---- -------<br>you --- -- ----- -- --- ---- -- --- ---- -- ------ ------<br>--- ----- -- ----,150585,150616,150170,150154,150187,150620,,39,you
screen,html.Screen,1_1_0_1_40,2021-04-21T07:56:05.926Z,,,,,,,,,,,,,,,,53,,,,,,,,,,,,,,402,,response,,,,99,,,,,,,Space,keypress(Space),,,,,,,,---- -- ----- -- ------ - ------- --- ----------<br>------------- ------ ------ ---- ---- ------- ----- -- ----<br>-------- ------- -- ---------- --- - --- ----- ----- ----<br>---- --- --- ----- --- ---- ---- ------- ----- ---- -------<br>--- are -- ----- -- --- ---- -- --- ---- -- ------ ------<br>--- ----- -- ----,150975,151006,150604,150585,150620,151004,,40,are
screen,html.Screen,1_1_0_1_41,2021-04-21T07:56:06.223Z,,,,,,,,,,,,,,,,53,,,,,,,,,,,,,,316,,response,,,,99,,,,,,,Space,keypress(Space),,,,,,,,---- -- ----- -- ------ - ------- --- ----------<br>------------- ------ ------ ---- ---- ------- ----- -- ----<br>-------- ------- -- ---------- --- - --- ----- ----- ----<br>---- --- --- ----- --- ---- ---- ------- ----- ---- -------<br>--- --- as ----- -- --- ---- -- --- ---- -- ------ ------<br>--- ----- -- ----,151272,151303,150987,150975,151004,151302,,41,as
screen,html.Screen,1_1_0_1_42,2021-04-21T07:56:06.450Z,,,,,,,,,,,,,,,,53,,,,,,,,,,,,,,242,,response,,,,99,,,,,,,Space,keypress(Space),,,,,,,,---- -- ----- -- ------ - ------- --- ----------<br>------------- ------ ------ ---- ---- ------- ----- -- ----<br>-------- ------- -- ---------- --- - --- ----- ----- ----<br>---- --- --- ----- --- ---- ---- ------- ----- ---- -------<br>--- --- -- close -- --- ---- -- --- ---- -- ------ ------<br>--- ----- -- ----,151499,151529,151287,151272,151302,151519,,42,close
screen,html.Screen,1_1_0_1_43,2021-04-21T07:56:06.632Z,,,,,,,,,,,,,,,,53,,,,,,,,,,,,,,210,,response,,,,99,,,,,,,Space,keypress(Space),,,,,,,,---- -- ----- -- ------ - ------- --- ----------<br>------------- ------ ------ ---- ---- ------- ----- -- ----<br>-------- ------- -- ---------- --- - --- ----- ----- ----<br>---- --- --- ----- --- ---- ---- ------- ----- ---- -------<br>--- --- -- ----- as --- ---- -- --- ---- -- ------ ------<br>--- ----- -- ----,151681,151712,151502,151499,151519,151704,,43,as
screen,html.Screen,1_1_0_1_44,2021-04-21T07:56:06.803Z,,,,,,,,,,,,,,,,53,,,,,,,,,,,,,,196,,response,,,,99,,,,,,,Space,keypress(Space),,,,,,,,---- -- ----- -- ------ - ------- --- ----------<br>------------- ------ ------ ---- ---- ------- ----- -- ----<br>-------- ------- -- ---------- --- - --- ----- ----- ----<br>---- --- --- ----- --- ---- ---- ------- ----- ---- -------<br>--- --- -- ----- -- you ---- -- --- ---- -- ------ ------<br>--- ----- -- ----,151852,151882,151686,151681,151704,151870,,44,you
screen,html.Screen,1_1_0_1_45,2021-04-21T07:56:07.070Z,,,,,,,,,,,,,,,,53,,,,,,,,,,,,,,296,,response,,,,99,,,,,,,Space,keypress(Space),,,,,,,,---- -- ----- -- ------ - ------- --- ----------<br>------------- ------ ------ ---- ---- ------- ----- -- ----<br>-------- ------- -- ---------- --- - --- ----- ----- ----<br>---- --- --- ----- --- ---- ---- ------- ----- ---- -------<br>--- --- -- ----- -- --- want -- --- ---- -- ------ ------<br>--- ----- -- ----,152119,152149,151853,151852,151870,152136,,45,want
screen,html.Screen,1_1_0_1_46,2021-04-21T07:56:07.258Z,,,,,,,,,,,,,,,,53,,,,,,,,,,,,,,217,,response,,,,99,,,,,,,Space,keypress(Space),,,,,,,,---- -- ----- -- ------ - ------- --- ----------<br>------------- ------ ------ ---- ---- ------- ----- -- ----<br>-------- ------- -- ---------- --- - --- ----- ----- ----<br>---- --- --- ----- --- ---- ---- ------- ----- ---- -------<br>--- --- -- ----- -- --- ---- to --- ---- -- ------ ------<br>--- ----- -- ----,152306,152337,152120,152119,152136,152337,,46,to
screen,html.Screen,1_1_0_1_47,2021-04-21T07:56:07.442Z,,,,,,,,,,,,,,,,53,,,,,,,,,,,,,,201.0000000000291,,response,,,,99,,,,,,,Space,keypress(Space),,,,,,,,"---- -- ----- -- ------ - ------- --- ----------<br>------------- ------ ------ ---- ---- ------- ----- -- ----<br>-------- ------- -- ---------- --- - --- ----- ----- ----<br>---- --- --- ----- --- ---- ---- ------- ----- ---- -------<br>--- --- -- ----- -- --- ---- -- be, ---- -- ------ ------<br>--- ----- -- ----",152491,152521.00000000003,152320,152306,152337,152520,,47,"be,"
screen,html.Screen,1_1_0_1_48,2021-04-21T07:56:07.624Z,,,,,,,,,,,,,,,,53,,,,,,,,,,,,,,199,,response,,,,99,,,,,,,Space,keypress(Space),,,,,,,,---- -- ----- -- ------ - ------- --- ----------<br>------------- ------ ------ ---- ---- ------- ----- -- ----<br>-------- ------- -- ---------- --- - --- ----- ----- ----<br>---- --- --- ----- --- ---- ---- ------- ----- ---- -------<br>--- --- -- ----- -- --- ---- -- --- even -- ------ ------<br>--- ----- -- ----,152673,152703,152504,152491,152520,152704,,48,even
screen,html.Screen,1_1_0_1_49,2021-04-21T07:56:07.803Z,,,,,,,,,,,,,,,,53,,,,,,,,,,,,,,196,,response,,,,99,,,,,,,Space,keypress(Space),,,,,,,,---- -- ----- -- ------ - ------- --- ----------<br>------------- ------ ------ ---- ---- ------- ----- -- ----<br>-------- ------- -- ---------- --- - --- ----- ----- ----<br>---- --- --- ----- --- ---- ---- ------- ----- ---- -------<br>--- --- -- ----- -- --- ---- -- --- ---- if ------ ------<br>--- ----- -- ----,152852,152882,152686,152673,152704,152870,,49,if
screen,html.Screen,1_1_0_1_50,2021-04-21T07:56:08.027Z,,,,,,,,,,,,,,,,53,,,,,,,,,,,,,,254,,response,,,,99,,,,,,,Space,keypress(Space),,,,,,,,---- -- ----- -- ------ - ------- --- ----------<br>------------- ------ ------ ---- ---- ------- ----- -- ----<br>-------- ------- -- ---------- --- - --- ----- ----- ----<br>---- --- --- ----- --- ---- ---- ------- ----- ---- -------<br>--- --- -- ----- -- --- ---- -- --- ---- -- that's ------<br>--- ----- -- ----,153076,153107,152853,152852,152870,153104,,50,that's
screen,html.Screen,1_1_0_1_51,2021-04-21T07:56:08.213Z,,,,,,,,,,,,,,,,53,,,,,,,,,,,,,,206,,response,,,,99,,,,,,,Space,keypress(Space),,,,,,,,---- -- ----- -- ------ - ------- --- ----------<br>------------- ------ ------ ---- ---- ------- ----- -- ----<br>-------- ------- -- ---------- --- - --- ----- ----- ----<br>---- --- --- ----- --- ---- ---- ------- ----- ---- -------<br>--- --- -- ----- -- --- ---- -- --- ---- -- ------ really<br>--- ----- -- ----,153262,153292,153086,153076,153104,153286,,51,really
screen,html.Screen,1_1_0_1_52,2021-04-21T07:56:08.682Z,,,,,,,,,,,,,,,,53,,,,,,,,,,,,,,491,,response,,,,99,,,,,,,Space,keypress(Space),,,,,,,,---- -- ----- -- ------ - ------- --- ----------<br>------------- ------ ------ ---- ---- ------- ----- -- ----<br>-------- ------- -- ---------- --- - --- ----- ----- ----<br>---- --- --- ----- --- ---- ---- ------- ----- ---- -------<br>--- --- -- ----- -- --- ---- -- --- ---- -- ------ ------<br>not ----- -- ----,153731,153761,153270,153262,153286,153770,,52,not
screen,html.Screen,1_1_0_1_53,2021-04-21T07:56:08.935Z,,,,,,,,,,,,,,,,53,,,,,,,,,,,,,,262.0000000000291,,response,,,,99,,,,,,,Space,keypress(Space),,,,,,,,---- -- ----- -- ------ - ------- --- ----------<br>------------- ------ ------ ---- ---- ------- ----- -- ----<br>-------- ------- -- ---------- --- - --- ----- ----- ----<br>---- --- --- ----- --- ---- ---- ------- ----- ---- -------<br>--- --- -- ----- -- --- ---- -- --- ---- -- ------ ------<br>--- close -- ----,153984,154015.00000000003,153753,153731,153770,154004,,53,close
screen,html.Screen,1_1_0_1_54,2021-04-21T07:56:09.141Z,,,,,,,,,,,,,,,,53,,,,,,,,,,,,,,234,,response,,,,99,,,,,,,Space,keypress(Space),,,,,,,,---- -- ----- -- ------ - ------- --- ----------<br>------------- ------ ------ ---- ---- ------- ----- -- ----<br>-------- ------- -- ---------- --- - --- ----- ----- ----<br>---- --- --- ----- --- ---- ---- ------- ----- ---- -------<br>--- --- -- ----- -- --- ---- -- --- ---- -- ------ ------<br>--- ----- at ----,154190,154221,153987,153984,154004,154220,,54,at
screen,html.Screen,1_1_0_1_55,2021-04-21T07:56:09.822Z,,,,,,,,,,,,,,,,53,,,,,,,,,,,,,,698.0000000000291,,response,,,,99,,,,,,,Space,keypress(Space),,,,,,,,---- -- ----- -- ------ - ------- --- ----------<br>------------- ------ ------ ---- ---- ------- ----- -- ----<br>-------- ------- -- ---------- --- - --- ----- ----- ----<br>---- --- --- ----- --- ---- ---- ------- ----- ---- -------<br>--- --- -- ----- -- --- ---- -- --- ---- -- ------ ------<br>--- ----- -- all.,154871,154902.00000000003,154204,154190,154220,154904,,55,all.
Item 99,flow.Loop,1_1_0_1,2021-04-21T07:56:09.823Z,,,,,,,,,,,,,,,,,,,,,,,,,,,,,,25785.00000000003,,completion,,,,,D,,,,,,,,,,,silence,,,,,154872,154902.00000000003,129085,129086.00000000001,129117,154904,,,
Question 1,html.Screen,1_1_0_2,2021-04-21T07:56:12.696Z,,,,,,,,,,,,,,,,,,,,,,,,,,,true,FALSE,,2891.000000000029,,response,,,,99,D,,,,,,FALSE,click #choice-2,,,,silence,,,,,157745,157777.00000000003,154886,154872,154904,157771,,,
Question 2,html.Screen,1_1_0_3,2021-04-21T07:56:17.905Z,,,,,,,,,,,,,,,,,,,,,,,,,,,true,TRUE,,5234,,response,,,,99,D,,,,,,TRUE,click #choice-1,,,,silence,,,,,162954,162987,157753,157746,157771,162988,,,
Item 99,flow.Sequence,1_1_0,2021-04-21T07:56:17.905Z,,,,,,,,,,,,,,,,,,,,,,,,,,,,,,43886,,completion,,,,,,,,,,,,,,,,,,,,,162954,162987,119084,119075,119101,162988,,,
Holding screen,html.Screen,1_1_1_0,2021-04-21T07:56:27.923Z,,,,,,,,,,,,,,,,,,,,,,,,,,,,,,10000,,timeout,,,,,,,,,,,,,,,,,,,,,172972,172972,162971,162954,162988,172988,,,
screen,html.Screen,1_1_1_1_0,2021-04-21T07:56:29.288Z,,,,,,,,,,,,,,,,54,,,,,,,,,,,,,,1396,,response,,,,100,,,,,,,Space,keypress(Space),,,,,,,,At --- ---- --- ------ ----- ------- ---- -- --- ------- --<br>------- ---------- ------ -- ----- -- ----- -- ---- ------<br>--- ----- --- --- ------ -------- ----- --- ------ ----- --<br>----- ----- ---------- --- --- ------ ------ ---- -- ------<br>------- --- ------ ----- --- ---- ------- -- ---- --- --<br>------- ------,174337.00000000003,174368,172972,172972,172988,174372,,0,At
screen,html.Screen,1_1_1_1_1,2021-04-21T07:56:29.653Z,,,,,,,,,,,,,,,,54,,,,,,,,,,,,,,380,,response,,,,100,,,,,,,Space,keypress(Space),,,,,,,,-- the ---- --- ------ ----- ------- ---- -- --- ------- --<br>------- ---------- ------ -- ----- -- ----- -- ---- ------<br>--- ----- --- --- ------ -------- ----- --- ------ ----- --<br>----- ----- ---------- --- --- ------ ------ ---- -- ------<br>------- --- ------ ----- --- ---- ------- -- ---- --- --<br>------- ------,174703,174735,174355,174337.00000000003,174372,174721,,1,the
screen,html.Screen,1_1_1_1_2,2021-04-21T07:56:29.829Z,,,,,,,,,,,,,,,,54,,,,,,,,,,,,,,207,,response,,,,100,,,,,,,Space,keypress(Space),,,,,,,,-- --- time --- ------ ----- ------- ---- -- --- ------- --<br>------- ---------- ------ -- ----- -- ----- -- ---- ------<br>--- ----- --- --- ------ -------- ----- --- ------ ----- --<br>----- ----- ---------- --- --- ------ ------ ---- -- ------<br>------- --- ------ ----- --- ---- ------- -- ---- --- --<br>------- ------,174879,174911,174704,174703,174721,174905,,2,time
screen,html.Screen,1_1_1_1_3,2021-04-21T07:56:30.000Z,,,,,,,,,,,,,,,,54,,,,,,,,,,,,,,192.0000000000291,,response,,,,100,,,,,,,Space,keypress(Space),,,,,,,,-- --- ---- the ------ ----- ------- ---- -- --- ------- --<br>------- ---------- ------ -- ----- -- ----- -- ---- ------<br>--- ----- --- --- ------ -------- ----- --- ------ ----- --<br>----- ----- ---------- --- --- ------ ------ ---- -- ------<br>------- --- ------ ----- --- ---- ------- -- ---- --- --<br>------- ------,175049,175081.00000000003,174889,174879,174905,175072,,3,the
screen,html.Screen,1_1_1_1_4,2021-04-21T07:56:30.146Z,,,,,,,,,,,,,,,,54,,,,,,,,,,,,,,174,,response,,,,100,,,,,,,Space,keypress(Space),,,,,,,,-- --- ---- --- French ----- ------- ---- -- --- ------- --<br>------- ---------- ------ -- ----- -- ----- -- ---- ------<br>--- ----- --- --- ------ -------- ----- --- ------ ----- --<br>----- ----- ---------- --- --- ------ ------ ---- -- ------<br>------- --- ------ ----- --- ---- ------- -- ---- --- --<br>------- ------,175196,175228,175054,175049,175072,175222,,4,French
screen,html.Screen,1_1_1_1_5,2021-04-21T07:56:30.320Z,,,,,,,,,,,,,,,,54,,,,,,,,,,,,,,197.0000000000291,,response,,,,100,,,,,,,Space,keypress(Space),,,,,,,,-- --- ---- --- ------ crown ------- ---- -- --- ------- --<br>------- ---------- ------ -- ----- -- ----- -- ---- ------<br>--- ----- --- --- ------ -------- ----- --- ------ ----- --<br>----- ----- ---------- --- --- ------ ------ ---- -- ------<br>------- --- ------ ----- --- ---- ------- -- ---- --- --<br>------- ------,175370,175402.00000000003,175205,175196,175222,175388,,5,crown
screen,html.Screen,1_1_1_1_6,2021-04-21T07:56:30.476Z,,,,,,,,,,,,,,,,54,,,,,,,,,,,,,,187,,response,,,,100,,,,,,,Space,keypress(Space),,,,,,,,-- --- ---- --- ------ ----- secured ---- -- --- ------- --<br>------- ---------- ------ -- ----- -- ----- -- ---- ------<br>--- ----- --- --- ------ -------- ----- --- ------ ----- --<br>----- ----- ---------- --- --- ------ ------ ---- -- ------<br>------- --- ------ ----- --- ---- ------- -- ---- --- --<br>------- ------,175526,175558,175371,175370,175388,175555,,6,secured
screen,html.Screen,1_1_1_1_7,2021-04-21T07:56:30.653Z,,,,,,,,,,,,,,,,54,,,,,,,,,,,,,,196,,response,,,,100,,,,,,,Space,keypress(Space),,,,,,,,-- --- ---- --- ------ ----- ------- much -- --- ------- --<br>------- ---------- ------ -- ----- -- ----- -- ---- ------<br>--- ----- --- --- ------ -------- ----- --- ------ ----- --<br>----- ----- ---------- --- --- ------ ------ ---- -- ------<br>------- --- ------ ----- --- ---- ------- -- ---- --- --<br>------- ------,175703,175735,175539,175526,175555,175721,,7,much
screen,html.Screen,1_1_1_1_8,2021-04-21T07:56:32.013Z,,,,,,,,,,,,,,,,54,,,,,,,,,,,,,,1389,,response,,,,100,,,,,,,Space,keypress(Space),,,,,,,,-- --- ---- --- ------ ----- ------- ---- of --- ------- --<br>------- ---------- ------ -- ----- -- ----- -- ---- ------<br>--- ----- --- --- ------ -------- ----- --- ------ ----- --<br>----- ----- ---------- --- --- ------ ------ ---- -- ------<br>------- --- ------ ----- --- ---- ------- -- ---- --- --<br>------- ------,177063.00000000003,177094,175705,175703,175721,177105,,8,of
screen,html.Screen,1_1_1_1_9,2021-04-21T07:56:32.288Z,,,,,,,,,,,,,,,,54,,,,,,,,,,,,,,281,,response,,,,100,,,,,,,Space,keypress(Space),,,,,,,,-- --- ---- --- ------ ----- ------- ---- -- its ------- --<br>------- ---------- ------ -- ----- -- ----- -- ---- ------<br>--- ----- --- --- ------ -------- ----- --- ------ ----- --<br>----- ----- ---------- --- --- ------ ------ ---- -- ------<br>------- --- ------ ----- --- ---- ------- -- ---- --- --<br>------- ------,177338,177370,177089,177063.00000000003,177105,177372,,9,its
screen,html.Screen,1_1_1_1_10,2021-04-21T07:56:32.510Z,,,,,,,,,,,,,,,,54,,,,,,,,,,,,,,236,,response,,,,100,,,,,,,Space,keypress(Space),,,,,,,,-- --- ---- --- ------ ----- ------- ---- -- --- revenue --<br>------- ---------- ------ -- ----- -- ----- -- ---- ------<br>--- ----- --- --- ------ -------- ----- --- ------ ----- --<br>----- ----- ---------- --- --- ------ ------ ---- -- ------<br>------- --- ------ ----- --- ---- ------- -- ---- --- --<br>------- ------,177560,177592,177356,177338,177372,177588,,10,revenue
screen,html.Screen,1_1_1_1_11,2021-04-21T07:56:32.878Z,,,,,,,,,,,,,,,,54,,,,,,,,,,,,,,388,,response,,,,100,,,,,,,Space,keypress(Space),,,,,,,,-- --- ---- --- ------ ----- ------- ---- -- --- ------- by<br>------- ---------- ------ -- ----- -- ----- -- ---- ------<br>--- ----- --- --- ------ -------- ----- --- ------ ----- --<br>----- ----- ---------- --- --- ------ ------ ---- -- ------<br>------- --- ------ ----- --- ---- ------- -- ---- --- --<br>------- ------,177928,177960,177572,177560,177588,177956,,11,by
screen,html.Screen,1_1_1_1_12,2021-04-21T07:56:33.175Z,,,,,,,,,,,,,,,,54,,,,,,,,,,,,,,317,,response,,,,100,,,,,,,Space,keypress(Space),,,,,,,,-- --- ---- --- ------ ----- ------- ---- -- --- ------- --<br>issuing ---------- ------ -- ----- -- ----- -- ---- ------<br>--- ----- --- --- ------ -------- ----- --- ------ ----- --<br>----- ----- ---------- --- --- ------ ------ ---- -- ------<br>------- --- ------ ----- --- ---- ------- -- ---- --- --<br>------- ------,178224,178256,177939,177928,177956,178254,,12,issuing
screen,html.Screen,1_1_1_1_13,2021-04-21T07:56:33.395Z,,,,,,,,,,,,,,,,54,,,,,,,,,,,,,,239,,response,,,,100,,,,,,,Space,keypress(Space),,,,,,,,-- --- ---- --- ------ ----- ------- ---- -- --- ------- --<br>------- government ------ -- ----- -- ----- -- ---- ------<br>--- ----- --- --- ------ -------- ----- --- ------ ----- --<br>----- ----- ---------- --- --- ------ ------ ---- -- ------<br>------- --- ------ ----- --- ---- ------- -- ---- --- --<br>------- ------,178445,178477,178238,178225,178254,178472,,13,government
screen,html.Screen,1_1_1_1_14,2021-04-21T07:56:33.549Z,,,,,,,,,,,,,,,,54,,,,,,,,,,,,,,177,,response,,,,100,,,,,,,Space,keypress(Space),,,,,,,,-- --- ---- --- ------ ----- ------- ---- -- --- ------- --<br>------- ---------- bonds. -- ----- -- ----- -- ---- ------<br>--- ----- --- --- ------ -------- ----- --- ------ ----- --<br>----- ----- ---------- --- --- ------ ------ ---- -- ------<br>------- --- ------ ----- --- ---- ------- -- ---- --- --<br>------- ------,178599,178631,178454,178445,178472,178622,,14,bonds.
screen,html.Screen,1_1_1_1_15,2021-04-21T07:56:34.664Z,,,,,,,,,,,,,,,,54,,,,,,,,,,,,,,1139,,response,,,,100,,,,,,,Space,keypress(Space),,,,,,,,-- --- ---- --- ------ ----- ------- ---- -- --- ------- --<br>------- ---------- ------ In ----- -- ----- -- ---- ------<br>--- ----- --- --- ------ -------- ----- --- ------ ----- --<br>----- ----- ---------- --- --- ------ ------ ---- -- ------<br>------- --- ------ ----- --- ---- ------- -- ---- --- --<br>------- ------,179714,179745,178606,178599,178622,179756,,15,In
screen,html.Screen,1_1_1_1_16,2021-04-21T07:56:34.913Z,,,,,,,,,,,,,,,,54,,,,,,,,,,,,,,256,,response,,,,100,,,,,,,Space,keypress(Space),,,,,,,,"-- --- ---- --- ------ ----- ------- ---- -- --- ------- --<br>------- ---------- ------ -- 1727, -- ----- -- ---- ------<br>--- ----- --- --- ------ -------- ----- --- ------ ----- --<br>----- ----- ---------- --- --- ------ ------ ---- -- ------<br>------- --- ------ ----- --- ---- ------- -- ---- --- --<br>------- ------",179963,179995,179739,179714,179756,179988,,16,"1727,"
screen,html.Screen,1_1_1_1_17,2021-04-21T07:56:35.874Z,,,,,,,,,,,,,,,,54,,,,,,,,,,,,,,985.0000000000291,,response,,,,100,,,,,,,Space,keypress(Space),,,,,,,,-- --- ---- --- ------ ----- ------- ---- -- --- ------- --<br>------- ---------- ------ -- ----- in ----- -- ---- ------<br>--- ----- --- --- ------ -------- ----- --- ------ ----- --<br>----- ----- ---------- --- --- ------ ------ ---- -- ------<br>------- --- ------ ----- --- ---- ------- -- ---- --- --<br>------- ------,180924,180956.00000000003,179971,179963,179988,180955,,17,in
screen,html.Screen,1_1_1_1_18,2021-04-21T07:56:36.166Z,,,,,,,,,,,,,,,,54,,,,,,,,,,,,,,309,,response,,,,100,,,,,,,Space,keypress(Space),,,,,,,,-- --- ---- --- ------ ----- ------- ---- -- --- ------- --<br>------- ---------- ------ -- ----- -- order -- ---- ------<br>--- ----- --- --- ------ -------- ----- --- ------ ----- --<br>----- ----- ---------- --- --- ------ ------ ---- -- ------<br>------- --- ------ ----- --- ---- ------- -- ---- --- --<br>------- ------,181216,181248,180939,180924,180955,181238,,18,order
screen,html.Screen,1_1_1_1_19,2021-04-21T07:56:36.328Z,,,,,,,,,,,,,,,,54,,,,,,,,,,,,,,187,,response,,,,100,,,,,,,Space,keypress(Space),,,,,,,,-- --- ---- --- ------ ----- ------- ---- -- --- ------- --<br>------- ---------- ------ -- ----- -- ----- to ---- ------<br>--- ----- --- --- ------ -------- ----- --- ------ ----- --<br>----- ----- ---------- --- --- ------ ------ ---- -- ------<br>------- --- ------ ----- --- ---- ------- -- ---- --- --<br>------- ------,181377,181409,181222,181216,181238,181405,,19,to
screen,html.Screen,1_1_1_1_20,2021-04-21T07:56:36.540Z,,,,,,,,,,,,,,,,54,,,,,,,,,,,,,,233,,response,,,,100,,,,,,,Space,keypress(Space),,,,,,,,-- --- ---- --- ------ ----- ------- ---- -- --- ------- --<br>------- ---------- ------ -- ----- -- ----- -- save ------<br>--- ----- --- --- ------ -------- ----- --- ------ ----- --<br>----- ----- ---------- --- --- ------ ------ ---- -- ------<br>------- --- ------ ----- --- ---- ------- -- ---- --- --<br>------- ------,181589,181622,181389,181378,181405,181622,,20,save
screen,html.Screen,1_1_1_1_21,2021-04-21T07:56:36.720Z,,,,,,,,,,,,,,,,54,,,,,,,,,,,,,,196.0000000000291,,response,,,,100,,,,,,,Space,keypress(Space),,,,,,,,"-- --- ---- --- ------ ----- ------- ---- -- --- ------- --<br>------- ---------- ------ -- ----- -- ----- -- ---- money,<br>--- ----- --- --- ------ -------- ----- --- ------ ----- --<br>----- ----- ---------- --- --- ------ ------ ---- -- ------<br>------- --- ------ ----- --- ---- ------- -- ---- --- --<br>------- ------",181769,181801.00000000003,181605,181590,181622,181789,,21,"money,"
screen,html.Screen,1_1_1_1_22,2021-04-21T07:56:36.906Z,,,,,,,,,,,,,,,,54,,,,,,,,,,,,,,216,,response,,,,100,,,,,,,Space,keypress(Space),,,,,,,,-- --- ---- --- ------ ----- ------- ---- -- --- ------- --<br>------- ---------- ------ -- ----- -- ----- -- ---- ------<br>the ----- --- --- ------ -------- ----- --- ------ ----- --<br>----- ----- ---------- --- --- ------ ------ ---- -- ------<br>------- --- ------ ----- --- ---- ------- -- ---- --- --<br>------- ------,181956.00000000003,181988,181772,181770,181789,181989,,22,the
screen,html.Screen,1_1_1_1_23,2021-04-21T07:56:37.116Z,,,,,,,,,,,,,,,,54,,,,,,,,,,,,,,226,,response,,,,100,,,,,,,Space,keypress(Space),,,,,,,,-- --- ---- --- ------ ----- ------- ---- -- --- ------- --<br>------- ---------- ------ -- ----- -- ----- -- ---- ------<br>--- state --- --- ------ -------- ----- --- ------ ----- --<br>----- ----- ---------- --- --- ------ ------ ---- -- ------<br>------- --- ------ ----- --- ---- ------- -- ---- --- --<br>------- ------,182166,182198,181972,181956.00000000003,181989,182189,,23,state
screen,html.Screen,1_1_1_1_24,2021-04-21T07:56:37.372Z,,,,,,,,,,,,,,,,54,,,,,,,,,,,,,,282,,response,,,,100,,,,,,,Space,keypress(Space),,,,,,,,-- --- ---- --- ------ ----- ------- ---- -- --- ------- --<br>------- ---------- ------ -- ----- -- ----- -- ---- ------<br>--- ----- cut --- ------ -------- ----- --- ------ ----- --<br>----- ----- ---------- --- --- ------ ------ ---- -- ------<br>------- --- ------ ----- --- ---- ------- -- ---- --- --<br>------- ------,182421,182454,182172,182166,182189,182456,,24,cut
screen,html.Screen,1_1_1_1_25,2021-04-21T07:56:37.594Z,,,,,,,,,,,,,,,,54,,,,,,,,,,,,,,237.0000000000291,,response,,,,100,,,,,,,Space,keypress(Space),,,,,,,,-- --- ---- --- ------ ----- ------- ---- -- --- ------- --<br>------- ---------- ------ -- ----- -- ----- -- ---- ------<br>--- ----- --- the ------ -------- ----- --- ------ ----- --<br>----- ----- ---------- --- --- ------ ------ ---- -- ------<br>------- --- ------ ----- --- ---- ------- -- ---- --- --<br>------- ------,182644,182676.00000000003,182439,182422,182456,182672,,25,the
screen,html.Screen,1_1_1_1_26,2021-04-21T07:56:37.767Z,,,,,,,,,,,,,,,,54,,,,,,,,,,,,,,193.0000000000291,,response,,,,100,,,,,,,Space,keypress(Space),,,,,,,,-- --- ---- --- ------ ----- ------- ---- -- --- ------- --<br>------- ---------- ------ -- ----- -- ----- -- ---- ------<br>--- ----- --- --- bonds' -------- ----- --- ------ ----- --<br>----- ----- ---------- --- --- ------ ------ ---- -- ------<br>------- --- ------ ----- --- ---- ------- -- ---- --- --<br>------- ------,182817,182849.00000000003,182656,182644,182672,182838,,26,bonds'
screen,html.Screen,1_1_1_1_27,2021-04-21T07:56:37.953Z,,,,,,,,,,,,,,,,54,,,,,,,,,,,,,,213,,response,,,,100,,,,,,,Space,keypress(Space),,,,,,,,-- --- ---- --- ------ ----- ------- ---- -- --- ------- --<br>------- ---------- ------ -- ----- -- ----- -- ---- ------<br>--- ----- --- --- ------ interest ----- --- ------ ----- --<br>----- ----- ---------- --- --- ------ ------ ---- -- ------<br>------- --- ------ ----- --- ---- ------- -- ---- --- --<br>------- ------,183003,183035,182822,182817,182838,183021,,27,interest
screen,html.Screen,1_1_1_1_28,2021-04-21T07:56:38.373Z,,,,,,,,,,,,,,,,54,,,,,,,,,,,,,,450,,response,,,,100,,,,,,,Space,keypress(Space),,,,,,,,-- --- ---- --- ------ ----- ------- ---- -- --- ------- --<br>------- ---------- ------ -- ----- -- ----- -- ---- ------<br>--- ----- --- --- ------ -------- rate. --- ------ ----- --<br>----- ----- ---------- --- --- ------ ------ ---- -- ------<br>------- --- ------ ----- --- ---- ------- -- ---- --- --<br>------- ------,183423,183455,183005,183003,183021,183456,,28,rate.
screen,html.Screen,1_1_1_1_29,2021-04-21T07:56:38.742Z,,,,,,,,,,,,,,,,54,,,,,,,,,,,,,,386,,response,,,,100,,,,,,,Space,keypress(Space),,,,,,,,-- --- ---- --- ------ ----- ------- ---- -- --- ------- --<br>------- ---------- ------ -- ----- -- ----- -- ---- ------<br>--- ----- --- --- ------ -------- ----- The ------ ----- --<br>----- ----- ---------- --- --- ------ ------ ---- -- ------<br>------- --- ------ ----- --- ---- ------- -- ---- --- --<br>------- ------,183792,183824,183438,183423,183456,183822,,29,The
screen,html.Screen,1_1_1_1_30,2021-04-21T07:56:38.966Z,,,,,,,,,,,,,,,,54,,,,,,,,,,,,,,242,,response,,,,100,,,,,,,Space,keypress(Space),,,,,,,,-- --- ---- --- ------ ----- ------- ---- -- --- ------- --<br>------- ---------- ------ -- ----- -- ----- -- ---- ------<br>--- ----- --- --- ------ -------- ----- --- market ----- --<br>----- ----- ---------- --- --- ------ ------ ---- -- ------<br>------- --- ------ ----- --- ---- ------- -- ---- --- --<br>------- ------,184016,184048,183806,183792,183822,184038,,30,market
screen,html.Screen,1_1_1_1_31,2021-04-21T07:56:39.169Z,,,,,,,,,,,,,,,,54,,,,,,,,,,,,,,229,,response,,,,100,,,,,,,Space,keypress(Space),,,,,,,,-- --- ---- --- ------ ----- ------- ---- -- --- ------- --<br>------- ---------- ------ -- ----- -- ----- -- ---- ------<br>--- ----- --- --- ------ -------- ----- --- ------ value --<br>----- ----- ---------- --- --- ------ ------ ---- -- ------<br>------- --- ------ ----- --- ---- ------- -- ---- --- --<br>------- ------,184219,184251,184022,184016,184038,184238,,31,value
screen,html.Screen,1_1_1_1_32,2021-04-21T07:56:39.389Z,,,,,,,,,,,,,,,,54,,,,,,,,,,,,,,248,,response,,,,100,,,,,,,Space,keypress(Space),,,,,,,,-- --- ---- --- ------ ----- ------- ---- -- --- ------- --<br>------- ---------- ------ -- ----- -- ----- -- ---- ------<br>--- ----- --- --- ------ -------- ----- --- ------ ----- of<br>----- ----- ---------- --- --- ------ ------ ---- -- ------<br>------- --- ------ ----- --- ---- ------- -- ---- --- --<br>------- ------,184438.00000000003,184470,184222,184219,184238,184472,,32,of
screen,html.Screen,1_1_1_1_33,2021-04-21T07:56:39.601Z,,,,,,,,,,,,,,,,54,,,,,,,,,,,,,,226.0000000000291,,response,,,,100,,,,,,,Space,keypress(Space),,,,,,,,-- --- ---- --- ------ ----- ------- ---- -- --- ------- --<br>------- ---------- ------ -- ----- -- ----- -- ---- ------<br>--- ----- --- --- ------ -------- ----- --- ------ ----- --<br>these ----- ---------- --- --- ------ ------ ---- -- ------<br>------- --- ------ ----- --- ---- ------- -- ---- --- --<br>------- ------,184650,184682.00000000003,184456,184439,184472,184672,,33,these
screen,html.Screen,1_1_1_1_34,2021-04-21T07:56:39.795Z,,,,,,,,,,,,,,,,54,,,,,,,,,,,,,,222,,response,,,,100,,,,,,,Space,keypress(Space),,,,,,,,-- --- ---- --- ------ ----- ------- ---- -- --- ------- --<br>------- ---------- ------ -- ----- -- ----- -- ---- ------<br>--- ----- --- --- ------ -------- ----- --- ------ ----- --<br>----- bonds ---------- --- --- ------ ------ ---- -- ------<br>------- --- ------ ----- --- ---- ------- -- ---- --- --<br>------- ------,184845,184878,184656,184651,184672,184873,,34,bonds
screen,html.Screen,1_1_1_1_35,2021-04-21T07:56:40.397Z,,,,,,,,,,,,,,,,54,,,,,,,,,,,,,,623,,response,,,,100,,,,,,,Space,keypress(Space),,,,,,,,"-- --- ---- --- ------ ----- ------- ---- -- --- ------- --<br>------- ---------- ------ -- ----- -- ----- -- ---- ------<br>--- ----- --- --- ------ -------- ----- --- ------ ----- --<br>----- ----- plummeted, --- --- ------ ------ ---- -- ------<br>------- --- ------ ----- --- ---- ------- -- ---- --- --<br>------- ------",185447,185479,184856,184845,184873,185489,,35,"plummeted,"
screen,html.Screen,1_1_1_1_36,2021-04-21T07:56:40.676Z,,,,,,,,,,,,,,,,54,,,,,,,,,,,,,,282,,response,,,,100,,,,,,,Space,keypress(Space),,,,,,,,-- --- ---- --- ------ ----- ------- ---- -- --- ------- --<br>------- ---------- ------ -- ----- -- ----- -- ---- ------<br>--- ----- --- --- ------ -------- ----- --- ------ ----- --<br>----- ----- ---------- and --- ------ ------ ---- -- ------<br>------- --- ------ ----- --- ---- ------- -- ---- --- --<br>------- ------,185726,185755,185473,185447,185489,185756,,36,and
screen,html.Screen,1_1_1_1_37,2021-04-21T07:56:40.882Z,,,,,,,,,,,,,,,,54,,,,,,,,,,,,,,224,,response,,,,100,,,,,,,Space,keypress(Space),,,,,,,,-- --- ---- --- ------ ----- ------- ---- -- --- ------- --<br>------- ---------- ------ -- ----- -- ----- -- ---- ------<br>--- ----- --- --- ------ -------- ----- --- ------ ----- --<br>----- ----- ---------- --- the ------ ------ ---- -- ------<br>------- --- ------ ----- --- ---- ------- -- ---- --- --<br>------- ------,185932.00000000003,185963,185739,185726,185756,185956,,37,the
screen,html.Screen,1_1_1_1_38,2021-04-21T07:56:41.078Z,,,,,,,,,,,,,,,,54,,,,,,,,,,,,,,221,,response,,,,100,,,,,,,Space,keypress(Space),,,,,,,,-- --- ---- --- ------ ----- ------- ---- -- --- ------- --<br>------- ---------- ------ -- ----- -- ----- -- ---- ------<br>--- ----- --- --- ------ -------- ----- --- ------ ----- --<br>----- ----- ---------- --- --- market ------ ---- -- ------<br>------- --- ------ ----- --- ---- ------- -- ---- --- --<br>------- ------,186128,186160,185939,185932.00000000003,185956,186156,,38,market
screen,html.Screen,1_1_1_1_39,2021-04-21T07:56:41.294Z,,,,,,,,,,,,,,,,54,,,,,,,,,,,,,,237,,response,,,,100,,,,,,,Space,keypress(Space),,,,,,,,-- --- ---- --- ------ ----- ------- ---- -- --- ------- --<br>------- ---------- ------ -- ----- -- ----- -- ---- ------<br>--- ----- --- --- ------ -------- ----- --- ------ ----- --<br>----- ----- ---------- --- --- ------ became ---- -- ------<br>------- --- ------ ----- --- ---- ------- -- ---- --- --<br>------- ------,186344,186376,186139,186128,186156,186372,,39,became
screen,html.Screen,1_1_1_1_40,2021-04-21T07:56:41.471Z,,,,,,,,,,,,,,,,54,,,,,,,,,,,,,,197,,response,,,,100,,,,,,,Space,keypress(Space),,,,,,,,-- --- ---- --- ------ ----- ------- ---- -- --- ------- --<br>------- ---------- ------ -- ----- -- ----- -- ---- ------<br>--- ----- --- --- ------ -------- ----- --- ------ ----- --<br>----- ----- ---------- --- --- ------ ------ wary -- ------<br>------- --- ------ ----- --- ---- ------- -- ---- --- --<br>------- ------,186521.00000000003,186553,186356,186344,186372,186539,,40,wary
screen,html.Screen,1_1_1_1_41,2021-04-21T07:56:41.677Z,,,,,,,,,,,,,,,,54,,,,,,,,,,,,,,236,,response,,,,100,,,,,,,Space,keypress(Space),,,,,,,,-- --- ---- --- ------ ----- ------- ---- -- --- ------- --<br>------- ---------- ------ -- ----- -- ----- -- ---- ------<br>--- ----- --- --- ------ -------- ----- --- ------ ----- --<br>----- ----- ---------- --- --- ------ ------ ---- of ------<br>------- --- ------ ----- --- ---- ------- -- ---- --- --<br>------- ------,186727,186759,186523,186521.00000000003,186539,186755,,41,of
screen,html.Screen,1_1_1_1_42,2021-04-21T07:56:42.015Z,,,,,,,,,,,,,,,,54,,,,,,,,,,,,,,358,,response,,,,100,,,,,,,Space,keypress(Space),,,,,,,,-- --- ---- --- ------ ----- ------- ---- -- --- ------- --<br>------- ---------- ------ -- ----- -- ----- -- ---- ------<br>--- ----- --- --- ------ -------- ----- --- ------ ----- --<br>----- ----- ---------- --- --- ------ ------ ---- -- French<br>------- --- ------ ----- --- ---- ------- -- ---- --- --<br>------- ------,187065,187097,186739,186727,186755,187089,,42,French
screen,html.Screen,1_1_1_1_43,2021-04-21T07:56:42.395Z,,,,,,,,,,,,,,,,54,,,,,,,,,,,,,,404,,response,,,,100,,,,,,,Space,keypress(Space),,,,,,,,-- --- ---- --- ------ ----- ------- ---- -- --- ------- --<br>------- ---------- ------ -- ----- -- ----- -- ---- ------<br>--- ----- --- --- ------ -------- ----- --- ------ ----- --<br>----- ----- ---------- --- --- ------ ------ ---- -- ------<br>credit. --- ------ ----- --- ---- ------- -- ---- --- --<br>------- ------,187445,187477,187073,187065,187089,187473,,43,credit.
screen,html.Screen,1_1_1_1_44,2021-04-21T07:56:42.902Z,,,,,,,,,,,,,,,,54,,,,,,,,,,,,,,528,,response,,,,100,,,,,,,Space,keypress(Space),,,,,,,,-- --- ---- --- ------ ----- ------- ---- -- --- ------- --<br>------- ---------- ------ -- ----- -- ----- -- ---- ------<br>--- ----- --- --- ------ -------- ----- --- ------ ----- --<br>----- ----- ---------- --- --- ------ ------ ---- -- ------<br>------- The ------ ----- --- ---- ------- -- ---- --- --<br>------- ------,187952,187984,187456,187445,187473,187989,,44,The
screen,html.Screen,1_1_1_1_45,2021-04-21T07:56:43.102Z,,,,,,,,,,,,,,,,54,,,,,,,,,,,,,,212,,response,,,,100,,,,,,,Space,keypress(Space),,,,,,,,-- --- ---- --- ------ ----- ------- ---- -- --- ------- --<br>------- ---------- ------ -- ----- -- ----- -- ---- ------<br>--- ----- --- --- ------ -------- ----- --- ------ ----- --<br>----- ----- ---------- --- --- ------ ------ ---- -- ------<br>------- --- French ----- --- ---- ------- -- ---- --- --<br>------- ------,188152.00000000003,188184,187972,187952,187989,188172,,45,French
screen,html.Screen,1_1_1_1_46,2021-04-21T07:56:43.289Z,,,,,,,,,,,,,,,,54,,,,,,,,,,,,,,216,,response,,,,100,,,,,,,Space,keypress(Space),,,,,,,,-- --- ---- --- ------ ----- ------- ---- -- --- ------- --<br>------- ---------- ------ -- ----- -- ----- -- ---- ------<br>--- ----- --- --- ------ -------- ----- --- ------ ----- --<br>----- ----- ---------- --- --- ------ ------ ---- -- ------<br>------- --- ------ state --- ---- ------- -- ---- --- --<br>------- ------,188339,188371,188155,188153,188172,188372,,46,state
screen,html.Screen,1_1_1_1_47,2021-04-21T07:56:43.429Z,,,,,,,,,,,,,,,,54,,,,,,,,,,,,,,155,,response,,,,100,,,,,,,Space,keypress(Space),,,,,,,,-- --- ---- --- ------ ----- ------- ---- -- --- ------- --<br>------- ---------- ------ -- ----- -- ----- -- ---- ------<br>--- ----- --- --- ------ -------- ----- --- ------ ----- --<br>----- ----- ---------- --- --- ------ ------ ---- -- ------<br>------- --- ------ ----- was ---- ------- -- ---- --- --<br>------- ------,188479,188511,188356,188340,188372,188506,,47,was
screen,html.Screen,1_1_1_1_48,2021-04-21T07:56:43.650Z,,,,,,,,,,,,,,,,54,,,,,,,,,,,,,,243,,response,,,,100,,,,,,,Space,keypress(Space),,,,,,,,-- --- ---- --- ------ ----- ------- ---- -- --- ------- --<br>------- ---------- ------ -- ----- -- ----- -- ---- ------<br>--- ----- --- --- ------ -------- ----- --- ------ ----- --<br>----- ----- ---------- --- --- ------ ------ ---- -- ------<br>------- --- ------ ----- --- left ------- -- ---- --- --<br>------- ------,188700.00000000003,188732,188489,188479,188506,188722,,48,left
screen,html.Screen,1_1_1_1_49,2021-04-21T07:56:43.848Z,,,,,,,,,,,,,,,,54,,,,,,,,,,,,,,225,,response,,,,100,,,,,,,Space,keypress(Space),,,,,,,,-- --- ---- --- ------ ----- ------- ---- -- --- ------- --<br>------- ---------- ------ -- ----- -- ----- -- ---- ------<br>--- ----- --- --- ------ -------- ----- --- ------ ----- --<br>----- ----- ---------- --- --- ------ ------ ---- -- ------<br>------- --- ------ ----- --- ---- without -- ---- --- --<br>------- ------,188898,188930,188705,188700.00000000003,188722,188923,,49,without
screen,html.Screen,1_1_1_1_50,2021-04-21T07:56:44.033Z,,,,,,,,,,,,,,,,54,,,,,,,,,,,,,,209,,response,,,,100,,,,,,,Space,keypress(Space),,,,,,,,-- --- ---- --- ------ ----- ------- ---- -- --- ------- --<br>------- ---------- ------ -- ----- -- ----- -- ---- ------<br>--- ----- --- --- ------ -------- ----- --- ------ ----- --<br>----- ----- ---------- --- --- ------ ------ ---- -- ------<br>------- --- ------ ----- --- ---- ------- an ---- --- --<br>------- ------,189083,189114,188905,188898,188923,189105,,50,an
screen,html.Screen,1_1_1_1_51,2021-04-21T07:56:44.298Z,,,,,,,,,,,,,,,,54,,,,,,,,,,,,,,291,,response,,,,100,,,,,,,Space,keypress(Space),,,,,,,,-- --- ---- --- ------ ----- ------- ---- -- --- ------- --<br>------- ---------- ------ -- ----- -- ----- -- ---- ------<br>--- ----- --- --- ------ -------- ----- --- ------ ----- --<br>----- ----- ---------- --- --- ------ ------ ---- -- ------<br>------- --- ------ ----- --- ---- ------- -- easy --- --<br>------- ------,189348,189380,189089,189083,189105,189372,,51,easy
screen,html.Screen,1_1_1_1_52,2021-04-21T07:56:44.594Z,,,,,,,,,,,,,,,,54,,,,,,,,,,,,,,320.0000000000291,,response,,,,100,,,,,,,Space,keypress(Space),,,,,,,,-- --- ---- --- ------ ----- ------- ---- -- --- ------- --<br>------- ---------- ------ -- ----- -- ----- -- ---- ------<br>--- ----- --- --- ------ -------- ----- --- ------ ----- --<br>----- ----- ---------- --- --- ------ ------ ---- -- ------<br>------- --- ------ ----- --- ---- ------- -- ---- way --<br>------- ------,189644,189676.00000000003,189356,189348,189372,189673,,52,way
screen,html.Screen,1_1_1_1_53,2021-04-21T07:56:44.911Z,,,,,,,,,,,,,,,,54,,,,,,,,,,,,,,337,,response,,,,100,,,,,,,Space,keypress(Space),,,,,,,,-- --- ---- --- ------ ----- ------- ---- -- --- ------- --<br>------- ---------- ------ -- ----- -- ----- -- ---- ------<br>--- ----- --- --- ------ -------- ----- --- ------ ----- --<br>----- ----- ---------- --- --- ------ ------ ---- -- ------<br>------- --- ------ ----- --- ---- ------- -- ---- --- of<br>------- ------,189961,189993,189656,189644,189673,189990,,53,of
screen,html.Screen,1_1_1_1_54,2021-04-21T07:56:45.117Z,,,,,,,,,,,,,,,,54,,,,,,,,,,,,,,227,,response,,,,100,,,,,,,Space,keypress(Space),,,,,,,,-- --- ---- --- ------ ----- ------- ---- -- --- ------- --<br>------- ---------- ------ -- ----- -- ----- -- ---- ------<br>--- ----- --- --- ------ -------- ----- --- ------ ----- --<br>----- ----- ---------- --- --- ------ ------ ---- -- ------<br>------- --- ------ ----- --- ---- ------- -- ---- --- --<br>raising ------,190167,190199,189972,189961,189990,190189,,54,raising
screen,html.Screen,1_1_1_1_55,2021-04-21T07:56:45.495Z,,,,,,,,,,,,,,,,54,,,,,,,,,,,,,,405,,response,,,,100,,,,,,,Space,keypress(Space),,,,,,,,-- --- ---- --- ------ ----- ------- ---- -- --- ------- --<br>------- ---------- ------ -- ----- -- ----- -- ---- ------<br>--- ----- --- --- ------ -------- ----- --- ------ ----- --<br>----- ----- ---------- --- --- ------ ------ ---- -- ------<br>------- --- ------ ----- --- ---- ------- -- ---- --- --<br>------- money.,190545.00000000003,190577,190172,190167,190189,190573,,55,money.
Item 100,flow.Loop,1_1_1_1,2021-04-21T07:56:45.495Z,,,,,,,,,,,,,,,,,,,,,,,,,,,,,,17589,,completion,,,,,D,,,,,,,,,,,silence,,,,,190546,190577,172972,172972,172988,190573,,,
Question 1,html.Screen,1_1_1_2,2021-04-21T07:56:48.779Z,,,,,,,,,,,,,,,,,,,,,,,,,,,true,TRUE,,3306,,response,,,,100,D,,,,,,TRUE,click #choice-1,,,,silence,,,,,193829,193862,190556,190546,190573,193857,,,
Question 2,html.Screen,1_1_1_3,2021-04-21T07:56:50.819Z,,,,,,,,,,,,,,,,,,,,,,,,,,,true,FALSE,,2062.000000000029,,response,,,,100,D,,,,,,FALSE,click #choice-2,,,,silence,,,,,195869,195902.00000000003,193840,193829,193857,195889,,,
Item 100,flow.Sequence,1_1_1,2021-04-21T07:56:50.819Z,,,,,,,,,,,,,,,,,,,,,,,,,,,,,,32914.00000000003,,completion,,,,,,,,,,,,,,,,,,,,,195869,195902.00000000003,162971,162954,162988,195889,,,
End of Practice,html.Page,1_1_2,2021-04-21T07:56:53.708Z,,,,,,,,,,,,,,,,,,,,,,,,,,,,,,2869,,form submission,,,,,,,,,,,,,,,,,,,,,198758,198758,195873,195869,195889,198790,,,
Practice,flow.Sequence,1_1,2021-04-21T07:56:53.708Z,,,,,,,,,,,,,,,,,,,,,,,,,,,,,,79657,,completion,,,,,,,,,,,,,,,,,,,,,198759,198758,119084,119075,119101,198790,,,
Trap_instruction,html.Page,1_2_0,2021-04-21T07:56:59.201Z,,,,,,,,,,,,,,,,,,,,,,,,,,,,,,5461,,form submission,,,,,,,,,,,,,,,,,,,,,204252,204251,198774,198759,198790,204273,,,
trap_trial,html.Screen,1_2_1,2021-04-21T07:57:02.312Z,,,,,,,,,,,,,,,,,,,,,,,,,,,true,1,,3130.000000000029,,response,,,,,,,,,,,1,click #choice-1,,,,,,,,,207363,207396.00000000003,204266,204252,204273,207406,,,
end of trap trial,html.Page,1_2_2,2021-04-21T07:57:04.024Z,,,,,,,,,,,,,,,,,,,,,,,,,,,,,,1668,,form submission,,,,,,,,,,,,,,,,,,,,,209075.00000000003,209074,207402,207363,207406,209108,,,
Trap 1,flow.Sequence,1_2,2021-04-21T07:57:04.024Z,,,,,,,,,,,,,,,,,,,,,,,,,,,,,,10284,,completion,,,,,,,,,,,,,,,,,,,,,209075.00000000003,209074,198774,198759,198790,209108,,,
Standby,html.Page,1_3_0,2021-04-21T07:57:12.041Z,,,,,,,,,,,,,,,,,,,,,,,,,,,,,,7999,,timeout,,,,,,,,,,,,,,,,,,,,,217092,217091,209091,209075.00000000003,209108,217107,,,
Holding screen,html.Screen,1_3_1_0_0,2021-04-21T07:57:19.041Z,,,,,,,,,,,,,,,,,,,,,,,,,,,,,,7001,,timeout,,,,,,,,,,,,,,,,,,,,,224092,224092,217091,217092,217107,224108,,,
screen,html.Screen,1_3_1_0_1_0,2021-04-21T07:57:20.583Z,,,,,,,,,,,,,,,,11,,,,,,,,,,,,,,1575,,response,,,,4,D,,,,,,Space,keypress(Space),,,,silence,,,,Known -- ---- --- -- --- -------- ------------ ---------- --<br>- ------- ------ --------- -- ------------ -- --- ---- -----<br>------ ---- ---- ------ ------ ------- --- ----- ---------<br>---- --- -------- -------- --- --- -- ------- --- --- -----<br>-- --- ------ ------- --- --- -------- ---- --------- --<br>---------- -- -------- ----------------,225635,225667,224092,224092,224108,225676,,0,Known
screen,html.Screen,1_3_1_0_1_1,2021-04-21T07:57:20.743Z,,,,,,,,,,,,,,,,11,,,,,,,,,,,,,,169,,response,,,,4,D,,,,,,Space,keypress(Space),,,,silence,,,,----- as ---- --- -- --- -------- ------------ ---------- --<br>- ------- ------ --------- -- ------------ -- --- ---- -----<br>------ ---- ---- ------ ------ ------- --- ----- ---------<br>---- --- -------- -------- --- --- -- ------- --- --- -----<br>-- --- ------ ------- --- --- -------- ---- --------- --<br>---------- -- -------- ----------------,225794,225828,225659,225635,225676,225825,,1,as
screen,html.Screen,1_3_1_0_1_2,2021-04-21T07:57:20.938Z,,,,,,,,,,,,,,,,11,,,,,,,,,,,,,,214,,response,,,,4,D,,,,,,Space,keypress(Space),,,,silence,,,,----- -- Rapa --- -- --- -------- ------------ ---------- --<br>- ------- ------ --------- -- ------------ -- --- ---- -----<br>------ ---- ---- ------ ------ ------- --- ----- ---------<br>---- --- -------- -------- --- --- -- ------- --- --- -----<br>-- --- ------ ------- --- --- -------- ---- --------- --<br>---------- -- -------- ----------------,225989,226023,225809,225795.00000000003,225825,226008,,2,Rapa
screen,html.Screen,1_3_1_0_1_3,2021-04-21T07:57:21.107Z,,,,,,,,,,,,,,,,11,,,,,,,,,,,,,,200,,response,,,,4,D,,,,,,Space,keypress(Space),,,,silence,,,,----- -- ---- Nui -- --- -------- ------------ ---------- --<br>- ------- ------ --------- -- ------------ -- --- ---- -----<br>------ ---- ---- ------ ------ ------- --- ----- ---------<br>---- --- -------- -------- --- --- -- ------- --- --- -----<br>-- --- ------ ------- --- --- -------- ---- --------- --<br>---------- -- -------- ----------------,226158.00000000003,226192,225992,225989,226008,226192,,3,Nui
screen,html.Screen,1_3_1_0_1_4,2021-04-21T07:57:21.695Z,,,,,,,,,,,,,,,,11,,,,,,,,,,,,,,606,,response,,,,4,D,,,,,,Space,keypress(Space),,,,silence,,,,----- -- ---- --- to --- -------- ------------ ---------- --<br>- ------- ------ --------- -- ------------ -- --- ---- -----<br>------ ---- ---- ------ ------ ------- --- ----- ---------<br>---- --- -------- -------- --- --- -- ------- --- --- -----<br>-- --- ------ ------- --- --- -------- ---- --------- --<br>---------- -- -------- ----------------,226747,226780,226174,226158.00000000003,226192,226776,,4,to
screen,html.Screen,1_3_1_0_1_5,2021-04-21T07:57:21.842Z,,,,,,,,,,,,,,,,11,,,,,,,,,,,,,,170,,response,,,,4,D,,,,,,Space,keypress(Space),,,,silence,,,,----- -- ---- --- -- the -------- ------------ ---------- --<br>- ------- ------ --------- -- ------------ -- --- ---- -----<br>------ ---- ---- ------ ------ ------- --- ----- ---------<br>---- --- -------- -------- --- --- -- ------- --- --- -----<br>-- --- ------ ------- --- --- -------- ---- --------- --<br>---------- -- -------- ----------------,226894,226928,226758,226747,226776,226925,,5,the
screen,html.Screen,1_3_1_0_1_6,2021-04-21T07:57:22.014Z,,,,,,,,,,,,,,,,11,,,,,,,,,,,,,,191.0000000000291,,response,,,,4,D,,,,,,Space,keypress(Space),,,,silence,,,,----- -- ---- --- -- --- island's ------------ ---------- --<br>- ------- ------ --------- -- ------------ -- --- ---- -----<br>------ ---- ---- ------ ------ ------- --- ----- ---------<br>---- --- -------- -------- --- --- -- ------- --- --- -----<br>-- --- ------ ------- --- --- -------- ---- --------- --<br>---------- -- -------- ----------------,227065,227099.00000000003,226908,226894,226925,227092,,6,island's
screen,html.Screen,1_3_1_0_1_7,2021-04-21T07:57:22.224Z,,,,,,,,,,,,,,,,11,,,,,,,,,,,,,,233,,response,,,,4,D,,,,,,Space,keypress(Space),,,,silence,,,,"----- -- ---- --- -- --- -------- inhabitants, ---------- --<br>- ------- ------ --------- -- ------------ -- --- ---- -----<br>------ ---- ---- ------ ------ ------- --- ----- ---------<br>---- --- -------- -------- --- --- -- ------- --- --- -----<br>-- --- ------ ------- --- --- -------- ---- --------- --<br>---------- -- -------- ----------------",227275,227308,227075,227065,227092,227308,,7,"inhabitants,"
screen,html.Screen,1_3_1_0_1_8,2021-04-21T07:57:22.413Z,,,,,,,,,,,,,,,,11,,,,,,,,,,,,,,206.0000000000291,,response,,,,4,D,,,,,,Space,keypress(Space),,,,silence,,,,----- -- ---- --- -- --- -------- ------------ Rongorongo --<br>- ------- ------ --------- -- ------------ -- --- ---- -----<br>------ ---- ---- ------ ------ ------- --- ----- ---------<br>---- --- -------- -------- --- --- -- ------- --- --- -----<br>-- --- ------ ------- --- --- -------- ---- --------- --<br>---------- -- -------- ----------------,227464,227498.00000000003,227292,227275,227308,227492,,8,Rongorongo
screen,html.Screen,1_3_1_0_1_9,2021-04-21T07:57:23.622Z,,,,,,,,,,,,,,,,11,,,,,,,,,,,,,,1231,,response,,,,4,D,,,,,,Space,keypress(Space),,,,silence,,,,----- -- ---- --- -- --- -------- ------------ ---------- is<br>- ------- ------ --------- -- ------------ -- --- ---- -----<br>------ ---- ---- ------ ------ ------- --- ----- ---------<br>---- --- -------- -------- --- --- -- ------- --- --- -----<br>-- --- ------ ------- --- --- -------- ---- --------- --<br>---------- -- -------- ----------------,228674,228707,227476,227464,227492,228708,,9,is
screen,html.Screen,1_3_1_0_1_10,2021-04-21T07:57:23.895Z,,,,,,,,,,,,,,,,11,,,,,,,,,,,,,,288.0000000000291,,response,,,,4,D,,,,,,Space,keypress(Space),,,,silence,,,,----- -- ---- --- -- --- -------- ------------ ---------- --<br>a ------- ------ --------- -- ------------ -- --- ---- -----<br>------ ---- ---- ------ ------ ------- --- ----- ---------<br>---- --- -------- -------- --- --- -- ------- --- --- -----<br>-- --- ------ ------- --- --- -------- ---- --------- --<br>---------- -- -------- ----------------,228946,228980.00000000003,228692,228674,228708,228976,,10,a
screen,html.Screen,1_3_1_0_1_11,2021-04-21T07:57:24.143Z,,,,,,,,,,,,,,,,11,,,,,,,,,,,,,,269,,response,,,,4,D,,,,,,Space,keypress(Space),,,,silence,,,,----- -- ---- --- -- --- -------- ------------ ---------- --<br>- writing ------ --------- -- ------------ -- --- ---- -----<br>------ ---- ---- ------ ------ ------- --- ----- ---------<br>---- --- -------- -------- --- --- -- ------- --- --- -----<br>-- --- ------ ------- --- --- -------- ---- --------- --<br>---------- -- -------- ----------------,229194.00000000003,229228,228959,228946,228976,229225,,11,writing
screen,html.Screen,1_3_1_0_1_12,2021-04-21T07:57:24.361Z,,,,,,,,,,,,,,,,11,,,,,,,,,,,,,,238,,response,,,,4,D,,,,,,Space,keypress(Space),,,,silence,,,,----- -- ---- --- -- --- -------- ------------ ---------- --<br>- ------- system --------- -- ------------ -- --- ---- -----<br>------ ---- ---- ------ ------ ------- --- ----- ---------<br>---- --- -------- -------- --- --- -- ------- --- --- -----<br>-- --- ------ ------- --- --- -------- ---- --------- --<br>---------- -- -------- ----------------,229413,229446,229208,229194.00000000003,229225,229441,,12,system
screen,html.Screen,1_3_1_0_1_13,2021-04-21T07:57:24.551Z,,,,,,,,,,,,,,,,11,,,,,,,,,,,,,,211,,response,,,,4,D,,,,,,Space,keypress(Space),,,,silence,,,,----- -- ---- --- -- --- -------- ------------ ---------- --<br>- ------- ------ comprised -- ------------ -- --- ---- -----<br>------ ---- ---- ------ ------ ------- --- ----- ---------<br>---- --- -------- -------- --- --- -- ------- --- --- -----<br>-- --- ------ ------- --- --- -------- ---- --------- --<br>---------- -- -------- ----------------,229602,229636,229425,229413,229441,229625,,13,comprised
screen,html.Screen,1_3_1_0_1_14,2021-04-21T07:57:24.812Z,,,,,,,,,,,,,,,,11,,,,,,,,,,,,,,289,,response,,,,4,D,,,,,,Space,keypress(Space),,,,silence,,,,----- -- ---- --- -- --- -------- ------------ ---------- --<br>- ------- ------ --------- of ------------ -- --- ---- -----<br>------ ---- ---- ------ ------ ------- --- ----- ---------<br>---- --- -------- -------- --- --- -- ------- --- --- -----<br>-- --- ------ ------- --- --- -------- ---- --------- --<br>---------- -- -------- ----------------,229864,229898,229609,229602,229625,229891,,14,of
screen,html.Screen,1_3_1_0_1_15,2021-04-21T07:57:25.042Z,,,,,,,,,,,,,,,,11,,,,,,,,,,,,,,252,,response,,,,4,D,,,,,,Space,keypress(Space),,,,silence,,,,----- -- ---- --- -- --- -------- ------------ ---------- --<br>- ------- ------ --------- -- pictographs. -- --- ---- -----<br>------ ---- ---- ------ ------ ------- --- ----- ---------<br>---- --- -------- -------- --- --- -- ------- --- --- -----<br>-- --- ------ ------- --- --- -------- ---- --------- --<br>---------- -- -------- ----------------,230093.00000000003,230127,229875,229864,229891,230125,,15,pictographs.
screen,html.Screen,1_3_1_0_1_16,2021-04-21T07:57:25.247Z,,,,,,,,,,,,,,,,11,,,,,,,,,,,,,,224,,response,,,,4,D,,,,,,Space,keypress(Space),,,,silence,,,,----- -- ---- --- -- --- -------- ------------ ---------- --<br>- ------- ------ --------- -- ------------ It --- ---- -----<br>------ ---- ---- ------ ------ ------- --- ----- ---------<br>---- --- -------- -------- --- --- -- ------- --- --- -----<br>-- --- ------ ------- --- --- -------- ---- --------- --<br>---------- -- -------- ----------------,230298,230332,230108,230093.00000000003,230125,230326,,16,It
screen,html.Screen,1_3_1_0_1_17,2021-04-21T07:57:25.813Z,,,,,,,,,,,,,,,,11,,,,,,,,,,,,,,589,,response,,,,4,D,,,,,,Space,keypress(Space),,,,silence,,,,----- -- ---- --- -- --- -------- ------------ ---------- --<br>- ------- ------ --------- -- ------------ -- has ---- -----<br>------ ---- ---- ------ ------ ------- --- ----- ---------<br>---- --- -------- -------- --- --- -- ------- --- --- -----<br>-- --- ------ ------- --- --- -------- ---- --------- --<br>---------- -- -------- ----------------,230864,230898,230309,230298,230326,230892,,17,has
screen,html.Screen,1_3_1_0_1_18,2021-04-21T07:57:25.982Z,,,,,,,,,,,,,,,,11,,,,,,,,,,,,,,190,,response,,,,4,D,,,,,,Space,keypress(Space),,,,silence,,,,----- -- ---- --- -- --- -------- ------------ ---------- --<br>- ------- ------ --------- -- ------------ -- --- been -----<br>------ ---- ---- ------ ------ ------- --- ----- ---------<br>---- --- -------- -------- --- --- -- ------- --- --- -----<br>-- --- ------ ------- --- --- -------- ---- --------- --<br>---------- -- -------- ----------------,231033.00000000003,231066,230876,230864,230892,231059,,18,been
screen,html.Screen,1_3_1_0_1_19,2021-04-21T07:57:26.223Z,,,,,,,,,,,,,,,,11,,,,,,,,,,,,,,267,,response,,,,4,D,,,,,,Space,keypress(Space),,,,silence,,,,----- -- ---- --- -- --- -------- ------------ ---------- --<br>- ------- ------ --------- -- ------------ -- --- ---- found<br>------ ---- ---- ------ ------ ------- --- ----- ---------<br>---- --- -------- -------- --- --- -- ------- --- --- -----<br>-- --- ------ ------- --- --- -------- ---- --------- --<br>---------- -- -------- ----------------,231275,231308,231041,231033.00000000003,231059,231292,,19,found
screen,html.Screen,1_3_1_0_1_20,2021-04-21T07:57:26.601Z,,,,,,,,,,,,,,,,11,,,,,,,,,,,,,,409,,response,,,,4,D,,,,,,Space,keypress(Space),,,,silence,,,,----- -- ---- --- -- --- -------- ------------ ---------- --<br>- ------- ------ --------- -- ------------ -- --- ---- -----<br>carved ---- ---- ------ ------ ------- --- ----- ---------<br>---- --- -------- -------- --- --- -- ------- --- --- -----<br>-- --- ------ ------- --- --- -------- ---- --------- --<br>---------- -- -------- ----------------,231652.00000000003,231685,231276,231275,231292,231675,,20,carved
screen,html.Screen,1_3_1_0_1_21,2021-04-21T07:57:26.906Z,,,,,,,,,,,,,,,,11,,,,,,,,,,,,,,332,,response,,,,4,D,,,,,,Space,keypress(Space),,,,silence,,,,----- -- ---- --- -- --- -------- ------------ ---------- --<br>- ------- ------ --------- -- ------------ -- --- ---- -----<br>------ into ---- ------ ------ ------- --- ----- ---------<br>---- --- -------- -------- --- --- -- ------- --- --- -----<br>-- --- ------ ------- --- --- -------- ---- --------- --<br>---------- -- -------- ----------------,231958,231991,231659,231652.00000000003,231675,231992,,21,into
screen,html.Screen,1_3_1_0_1_22,2021-04-21T07:57:27.130Z,,,,,,,,,,,,,,,,11,,,,,,,,,,,,,,239,,response,,,,4,D,,,,,,Space,keypress(Space),,,,silence,,,,----- -- ---- --- -- --- -------- ------------ ---------- --<br>- ------- ------ --------- -- ------------ -- --- ---- -----<br>------ ---- many ------ ------ ------- --- ----- ---------<br>---- --- -------- -------- --- --- -- ------- --- --- -----<br>-- --- ------ ------- --- --- -------- ---- --------- --<br>---------- -- -------- ----------------,232182.00000000003,232215,231976,231958,231992,232208,,22,many
screen,html.Screen,1_3_1_0_1_23,2021-04-21T07:57:27.449Z,,,,,,,,,,,,,,,,11,,,,,,,,,,,,,,342,,response,,,,4,D,,,,,,Space,keypress(Space),,,,silence,,,,----- -- ---- --- -- --- -------- ------------ ---------- --<br>- ------- ------ --------- -- ------------ -- --- ---- -----<br>------ ---- ---- oblong ------ ------- --- ----- ---------<br>---- --- -------- -------- --- --- -- ------- --- --- -----<br>-- --- ------ ------- --- --- -------- ---- --------- --<br>---------- -- -------- ----------------,232501,232534,232192,232182.00000000003,232208,232526,,23,oblong
screen,html.Screen,1_3_1_0_1_24,2021-04-21T07:57:27.874Z,,,,,,,,,,,,,,,,11,,,,,,,,,,,,,,449,,response,,,,4,D,,,,,,Space,keypress(Space),,,,silence,,,,----- -- ---- --- -- --- -------- ------------ ---------- --<br>- ------- ------ --------- -- ------------ -- --- ---- -----<br>------ ---- ---- ------ wooden ------- --- ----- ---------<br>---- --- -------- -------- --- --- -- ------- --- --- -----<br>-- --- ------ ------- --- --- -------- ---- --------- --<br>---------- -- -------- ----------------,232925,232958,232509,232501,232526,232959,,24,wooden
screen,html.Screen,1_3_1_0_1_25,2021-04-21T07:57:28.142Z,,,,,,,,,,,,,,,,11,,,,,,,,,,,,,,285,,response,,,,4,D,,,,,,Space,keypress(Space),,,,silence,,,,----- -- ---- --- -- --- -------- ------------ ---------- --<br>- ------- ------ --------- -- ------------ -- --- ---- -----<br>------ ---- ---- ------ ------ tablets --- ----- ---------<br>---- --- -------- -------- --- --- -- ------- --- --- -----<br>-- --- ------ ------- --- --- -------- ---- --------- --<br>---------- -- -------- ----------------,233194.00000000003,233227,232942,232925,232959,233225,,25,tablets
screen,html.Screen,1_3_1_0_1_26,2021-04-21T07:57:28.315Z,,,,,,,,,,,,,,,,11,,,,,,,,,,,,,,191,,response,,,,4,D,,,,,,Space,keypress(Space),,,,silence,,,,----- -- ---- --- -- --- -------- ------------ ---------- --<br>- ------- ------ --------- -- ------------ -- --- ---- -----<br>------ ---- ---- ------ ------ ------- and ----- ---------<br>---- --- -------- -------- --- --- -- ------- --- --- -----<br>-- --- ------ ------- --- --- -------- ---- --------- --<br>---------- -- -------- ----------------,233366,233400,233209,233194.00000000003,233225,233393,,26,and
screen,html.Screen,1_3_1_0_1_27,2021-04-21T07:57:28.545Z,,,,,,,,,,,,,,,,11,,,,,,,,,,,,,,254,,response,,,,4,D,,,,,,Space,keypress(Space),,,,silence,,,,----- -- ---- --- -- --- -------- ------------ ---------- --<br>- ------- ------ --------- -- ------------ -- --- ---- -----<br>------ ---- ---- ------ ------ ------- --- other ---------<br>---- --- -------- -------- --- --- -- ------- --- --- -----<br>-- --- ------ ------- --- --- -------- ---- --------- --<br>---------- -- -------- ----------------,233597,233630,233376,233366,233393,233625,,27,other
screen,html.Screen,1_3_1_0_1_28,2021-04-21T07:57:28.869Z,,,,,,,,,,,,,,,,11,,,,,,,,,,,,,,345,,response,,,,4,D,,,,,,Space,keypress(Space),,,,silence,,,,----- -- ---- --- -- --- -------- ------------ ---------- --<br>- ------- ------ --------- -- ------------ -- --- ---- -----<br>------ ---- ---- ------ ------ ------- --- ----- artifacts<br>---- --- -------- -------- --- --- -- ------- --- --- -----<br>-- --- ------ ------- --- --- -------- ---- --------- --<br>---------- -- -------- ----------------,233921,233954,233609,233597,233625,233942,,28,artifacts
screen,html.Screen,1_3_1_0_1_29,2021-04-21T07:57:29.273Z,,,,,,,,,,,,,,,,11,,,,,,,,,,,,,,432,,response,,,,4,D,,,,,,Space,keypress(Space),,,,silence,,,,----- -- ---- --- -- --- -------- ------------ ---------- --<br>- ------- ------ --------- -- ------------ -- --- ---- -----<br>------ ---- ---- ------ ------ ------- --- ----- ---------<br>from --- -------- -------- --- --- -- ------- --- --- -----<br>-- --- ------ ------- --- --- -------- ---- --------- --<br>---------- -- -------- ----------------,234325.00000000003,234358,233926,233921,233942,234358,,29,from
screen,html.Screen,1_3_1_0_1_30,2021-04-21T07:57:29.467Z,,,,,,,,,,,,,,,,11,,,,,,,,,,,,,,209,,response,,,,4,D,,,,,,Space,keypress(Space),,,,silence,,,,----- -- ---- --- -- --- -------- ------------ ---------- --<br>- ------- ------ --------- -- ------------ -- --- ---- -----<br>------ ---- ---- ------ ------ ------- --- ----- ---------<br>---- the -------- -------- --- --- -- ------- --- --- -----<br>-- --- ------ ------- --- --- -------- ---- --------- --<br>---------- -- -------- ----------------,234519,234552,234343,234325.00000000003,234358,234542,,30,the
screen,html.Screen,1_3_1_0_1_31,2021-04-21T07:57:29.650Z,,,,,,,,,,,,,,,,11,,,,,,,,,,,,,,209,,response,,,,4,D,,,,,,Space,keypress(Space),,,,silence,,,,----- -- ---- --- -- --- -------- ------------ ---------- --<br>- ------- ------ --------- -- ------------ -- --- ---- -----<br>------ ---- ---- ------ ------ ------- --- ----- ---------<br>---- --- island's -------- --- --- -- ------- --- --- -----<br>-- --- ------ ------- --- --- -------- ---- --------- --<br>---------- -- -------- ----------------,234702,234735,234526,234519,234542,234726,,31,island's
screen,html.Screen,1_3_1_0_1_32,2021-04-21T07:57:29.937Z,,,,,,,,,,,,,,,,11,,,,,,,,,,,,,,313,,response,,,,4,D,,,,,,Space,keypress(Space),,,,silence,,,,----- -- ---- --- -- --- -------- ------------ ---------- --<br>- ------- ------ --------- -- ------------ -- --- ---- -----<br>------ ---- ---- ------ ------ ------- --- ----- ---------<br>---- --- -------- history. --- --- -- ------- --- --- -----<br>-- --- ------ ------- --- --- -------- ---- --------- --<br>---------- -- -------- ----------------,234989,235022,234709,234702,234726,235009,,32,history.
screen,html.Screen,1_3_1_0_1_33,2021-04-21T07:57:30.421Z,,,,,,,,,,,,,,,,11,,,,,,,,,,,,,,513,,response,,,,4,D,,,,,,Space,keypress(Space),,,,silence,,,,----- -- ---- --- -- --- -------- ------------ ---------- --<br>- ------- ------ --------- -- ------------ -- --- ---- -----<br>------ ---- ---- ------ ------ ------- --- ----- ---------<br>---- --- -------- -------- The --- -- ------- --- --- -----<br>-- --- ------ ------- --- --- -------- ---- --------- --<br>---------- -- -------- ----------------,235473,235506,234993,234989,235009,235509,,33,The
screen,html.Screen,1_3_1_0_1_34,2021-04-21T07:57:30.628Z,,,,,,,,,,,,,,,,11,,,,,,,,,,,,,,221,,response,,,,4,D,,,,,,Space,keypress(Space),,,,silence,,,,----- -- ---- --- -- --- -------- ------------ ---------- --<br>- ------- ------ --------- -- ------------ -- --- ---- -----<br>------ ---- ---- ------ ------ ------- --- ----- ---------<br>---- --- -------- -------- --- art -- ------- --- --- -----<br>-- --- ------ ------- --- --- -------- ---- --------- --<br>---------- -- -------- ----------------,235680,235713,235492,235473,235509,235709,,34,art
screen,html.Screen,1_3_1_0_1_35,2021-04-21T07:57:30.818Z,,,,,,,,,,,,,,,,11,,,,,,,,,,,,,,211,,response,,,,4,D,,,,,,Space,keypress(Space),,,,silence,,,,----- -- ---- --- -- --- -------- ------------ ---------- --<br>- ------- ------ --------- -- ------------ -- --- ---- -----<br>------ ---- ---- ------ ------ ------- --- ----- ---------<br>---- --- -------- -------- --- --- of ------- --- --- -----<br>-- --- ------ ------- --- --- -------- ---- --------- --<br>---------- -- -------- ----------------,235870,235903,235692,235680,235709,235892,,35,of
screen,html.Screen,1_3_1_0_1_36,2021-04-21T07:57:31.017Z,,,,,,,,,,,,,,,,11,,,,,,,,,,,,,,226,,response,,,,4,D,,,,,,Space,keypress(Space),,,,silence,,,,----- -- ---- --- -- --- -------- ------------ ---------- --<br>- ------- ------ --------- -- ------------ -- --- ---- -----<br>------ ---- ---- ------ ------ ------- --- ----- ---------<br>---- --- -------- -------- --- --- -- writing --- --- -----<br>-- --- ------ ------- --- --- -------- ---- --------- --<br>---------- -- -------- ----------------,236069.00000000003,236102,235876,235870,235892,236092,,36,writing
screen,html.Screen,1_3_1_0_1_37,2021-04-21T07:57:31.124Z,,,,,,,,,,,,,,,,11,,,,,,,,,,,,,,133,,response,,,,4,D,,,,,,Space,keypress(Space),,,,silence,,,,----- -- ---- --- -- --- -------- ------------ ---------- --<br>- ------- ------ --------- -- ------------ -- --- ---- -----<br>------ ---- ---- ------ ------ ------- --- ----- ---------<br>---- --- -------- -------- --- --- -- ------- was --- -----<br>-- --- ------ ------- --- --- -------- ---- --------- --<br>---------- -- -------- ----------------,236176.00000000003,236209,236076,236069.00000000003,236092,236208,,37,was
screen,html.Screen,1_3_1_0_1_38,2021-04-21T07:57:31.391Z,,,,,,,,,,,,,,,,11,,,,,,,,,,,,,,284,,response,,,,4,D,,,,,,Space,keypress(Space),,,,silence,,,,----- -- ---- --- -- --- -------- ------------ ---------- --<br>- ------- ------ --------- -- ------------ -- --- ---- -----<br>------ ---- ---- ------ ------ ------- --- ----- ---------<br>---- --- -------- -------- --- --- -- ------- --- not -----<br>-- --- ------ ------- --- --- -------- ---- --------- --<br>---------- -- -------- ----------------,236443,236477,236193,236176.00000000003,236208,236476,,38,not
screen,html.Screen,1_3_1_0_1_39,2021-04-21T07:57:31.632Z,,,,,,,,,,,,,,,,11,,,,,,,,,,,,,,258,,response,,,,4,D,,,,,,Space,keypress(Space),,,,silence,,,,----- -- ---- --- -- --- -------- ------------ ---------- --<br>- ------- ------ --------- -- ------------ -- --- ---- -----<br>------ ---- ---- ------ ------ ------- --- ----- ---------<br>---- --- -------- -------- --- --- -- ------- --- --- known<br>-- --- ------ ------- --- --- -------- ---- --------- --<br>---------- -- -------- ----------------,236683,236717,236459,236443,236476,236709,,39,known
screen,html.Screen,1_3_1_0_1_40,2021-04-21T07:57:31.927Z,,,,,,,,,,,,,,,,11,,,,,,,,,,,,,,320,,response,,,,4,D,,,,,,Space,keypress(Space),,,,silence,,,,----- -- ---- --- -- --- -------- ------------ ---------- --<br>- ------- ------ --------- -- ------------ -- --- ---- -----<br>------ ---- ---- ------ ------ ------- --- ----- ---------<br>---- --- -------- -------- --- --- -- ------- --- --- -----<br>in --- ------ ------- --- --- -------- ---- --------- --<br>---------- -- -------- ----------------,236979,237012,236692,236683,236709,237009,,40,in
screen,html.Screen,1_3_1_0_1_41,2021-04-21T07:57:32.164Z,,,,,,,,,,,,,,,,11,,,,,,,,,,,,,,256,,response,,,,4,D,,,,,,Space,keypress(Space),,,,silence,,,,----- -- ---- --- -- --- -------- ------------ ---------- --<br>- ------- ------ --------- -- ------------ -- --- ---- -----<br>------ ---- ---- ------ ------ ------- --- ----- ---------<br>---- --- -------- -------- --- --- -- ------- --- --- -----<br>-- any ------ ------- --- --- -------- ---- --------- --<br>---------- -- -------- ----------------,237216,237249,236993,236979,237009,237243,,41,any
screen,html.Screen,1_3_1_0_1_42,2021-04-21T07:57:32.350Z,,,,,,,,,,,,,,,,11,,,,,,,,,,,,,,210,,response,,,,4,D,,,,,,Space,keypress(Space),,,,silence,,,,----- -- ---- --- -- --- -------- ------------ ---------- --<br>- ------- ------ --------- -- ------------ -- --- ---- -----<br>------ ---- ---- ------ ------ ------- --- ----- ---------<br>---- --- -------- -------- --- --- -- ------- --- --- -----<br>-- --- nearby ------- --- --- -------- ---- --------- --<br>---------- -- -------- ----------------,237402.00000000003,237435,237225,237216,237243,237425,,42,nearby
screen,html.Screen,1_3_1_0_1_43,2021-04-21T07:57:32.558Z,,,,,,,,,,,,,,,,11,,,,,,,,,,,,,,234,,response,,,,4,D,,,,,,Space,keypress(Space),,,,silence,,,,----- -- ---- --- -- --- -------- ------------ ---------- --<br>- ------- ------ --------- -- ------------ -- --- ---- -----<br>------ ---- ---- ------ ------ ------- --- ----- ---------<br>---- --- -------- -------- --- --- -- ------- --- --- -----<br>-- --- ------ islands --- --- -------- ---- --------- --<br>---------- -- -------- ----------------,237610,237643,237409,237402.00000000003,237425,237643,,43,islands
screen,html.Screen,1_3_1_0_1_44,2021-04-21T07:57:32.727Z,,,,,,,,,,,,,,,,11,,,,,,,,,,,,,,187,,response,,,,4,D,,,,,,Space,keypress(Space),,,,silence,,,,----- -- ---- --- -- --- -------- ------------ ---------- --<br>- ------- ------ --------- -- ------------ -- --- ---- -----<br>------ ---- ---- ------ ------ ------- --- ----- ---------<br>---- --- -------- -------- --- --- -- ------- --- --- -----<br>-- --- ------ ------- and --- -------- ---- --------- --<br>---------- -- -------- ----------------,237779,237812,237625,237610,237643,237809,,44,and
screen,html.Screen,1_3_1_0_1_45,2021-04-21T07:57:32.923Z,,,,,,,,,,,,,,,,11,,,,,,,,,,,,,,215,,response,,,,4,D,,,,,,Space,keypress(Space),,,,silence,,,,----- -- ---- --- -- --- -------- ------------ ---------- --<br>- ------- ------ --------- -- ------------ -- --- ---- -----<br>------ ---- ---- ------ ------ ------- --- ----- ---------<br>---- --- -------- -------- --- --- -- ------- --- --- -----<br>-- --- ------ ------- --- the -------- ---- --------- --<br>---------- -- -------- ----------------,237975,238008,237793,237779,237809,237993,,45,the
screen,html.Screen,1_3_1_0_1_46,2021-04-21T07:57:33.293Z,,,,,,,,,,,,,,,,11,,,,,,,,,,,,,,402,,response,,,,4,D,,,,,,Space,keypress(Space),,,,silence,,,,----- -- ---- --- -- --- -------- ------------ ---------- --<br>- ------- ------ --------- -- ------------ -- --- ---- -----<br>------ ---- ---- ------ ------ ------- --- ----- ---------<br>---- --- -------- -------- --- --- -- ------- --- --- -----<br>-- --- ------ ------- --- --- script's ---- --------- --<br>---------- -- -------- ----------------,238345,238378,237976,237975,237993,238376,,46,script's
screen,html.Screen,1_3_1_0_1_47,2021-04-21T07:57:33.512Z,,,,,,,,,,,,,,,,11,,,,,,,,,,,,,,239,,response,,,,4,D,,,,,,Space,keypress(Space),,,,silence,,,,----- -- ---- --- -- --- -------- ------------ ---------- --<br>- ------- ------ --------- -- ------------ -- --- ---- -----<br>------ ---- ---- ------ ------ ------- --- ----- ---------<br>---- --- -------- -------- --- --- -- ------- --- --- -----<br>-- --- ------ ------- --- --- -------- mere --------- --<br>---------- -- -------- ----------------,238564,238597,238358,238345,238376,238593,,47,mere
screen,html.Screen,1_3_1_0_1_48,2021-04-21T07:57:33.805Z,,,,,,,,,,,,,,,,11,,,,,,,,,,,,,,314.0000000000291,,response,,,,4,D,,,,,,Space,keypress(Space),,,,silence,,,,----- -- ---- --- -- --- -------- ------------ ---------- --<br>- ------- ------ --------- -- ------------ -- --- ---- -----<br>------ ---- ---- ------ ------ ------- --- ----- ---------<br>---- --- -------- -------- --- --- -- ------- --- --- -----<br>-- --- ------ ------- --- --- -------- ---- existence --<br>---------- -- -------- ----------------,238856,238890.00000000003,238576,238564,238593,238876,,48,existence
screen,html.Screen,1_3_1_0_1_49,2021-04-21T07:57:34.117Z,,,,,,,,,,,,,,,,11,,,,,,,,,,,,,,343,,response,,,,4,D,,,,,,Space,keypress(Space),,,,silence,,,,----- -- ---- --- -- --- -------- ------------ ---------- --<br>- ------- ------ --------- -- ------------ -- --- ---- -----<br>------ ---- ---- ------ ------ ------- --- ----- ---------<br>---- --- -------- -------- --- --- -- ------- --- --- -----<br>-- --- ------ ------- --- --- -------- ---- --------- is<br>---------- -- -------- ----------------,239168,239202,238859,238856,238876,239192,,49,is
screen,html.Screen,1_3_1_0_1_50,2021-04-21T07:57:34.316Z,,,,,,,,,,,,,,,,11,,,,,,,,,,,,,,225,,response,,,,4,D,,,,,,Space,keypress(Space),,,,silence,,,,----- -- ---- --- -- --- -------- ------------ ---------- --<br>- ------- ------ --------- -- ------------ -- --- ---- -----<br>------ ---- ---- ------ ------ ------- --- ----- ---------<br>---- --- -------- -------- --- --- -- ------- --- --- -----<br>-- --- ------ ------- --- --- -------- ---- --------- --<br>sufficient -- -------- ----------------,239368,239401,239176,239169,239192,239393,,50,sufficient
screen,html.Screen,1_3_1_0_1_51,2021-04-21T07:57:34.701Z,,,,,,,,,,,,,,,,11,,,,,,,,,,,,,,410,,response,,,,4,D,,,,,,Space,keypress(Space),,,,silence,,,,----- -- ---- --- -- --- -------- ------------ ---------- --<br>- ------- ------ --------- -- ------------ -- --- ---- -----<br>------ ---- ---- ------ ------ ------- --- ----- ---------<br>---- --- -------- -------- --- --- -- ------- --- --- -----<br>-- --- ------ ------- --- --- -------- ---- --------- --<br>---------- to -------- ----------------,239752,239786,239376,239368,239393,239776,,51,to
screen,html.Screen,1_3_1_0_1_52,2021-04-21T07:57:35.039Z,,,,,,,,,,,,,,,,11,,,,,,,,,,,,,,364,,response,,,,4,D,,,,,,Space,keypress(Space),,,,silence,,,,----- -- ---- --- -- --- -------- ------------ ---------- --<br>- ------- ------ --------- -- ------------ -- --- ---- -----<br>------ ---- ---- ------ ------ ------- --- ----- ---------<br>---- --- -------- -------- --- --- -- ------- --- --- -----<br>-- --- ------ ------- --- --- -------- ---- --------- --<br>---------- -- confound ----------------,240091,240124,239760,239753,239776,240110,,52,confound
screen,html.Screen,1_3_1_0_1_53,2021-04-21T07:57:35.545Z,,,,,,,,,,,,,,,,11,,,,,,,,,,,,,,539,,response,,,,4,D,,,,,,Space,keypress(Space),,,,silence,,,,----- -- ---- --- -- --- -------- ------------ ---------- --<br>- ------- ------ --------- -- ------------ -- --- ---- -----<br>------ ---- ---- ------ ------ ------- --- ----- ---------<br>---- --- -------- -------- --- --- -- ------- --- --- -----<br>-- --- ------ ------- --- --- -------- ---- --------- --<br>---------- -- -------- anthropologists.,240597,240631,240092,240091,240110,240627,,53,anthropologists.
Item 4,flow.Loop,1_3_1_0_1,2021-04-21T07:57:35.546Z,,,,,,,,,,,,,,,,,,,,,,,,,,,,,,16523,,completion,,,,,,,,,,,,,,,,,,,,,240597,240631,224092,224092,224108,240627,,,
Question 1,html.Screen,1_3_1_0_2,2021-04-21T07:57:38.278Z,,,,,,,,,,,,,,,,,,,,,,,,,,,true,FALSE,,2756,,response,,,,4,D,,,,,,FALSE,click #choice-2,,,,silence,,,,,243330,243365,240609,240598,240627,243360,,,
Question 2,html.Screen,1_3_1_0_3,2021-04-21T07:57:40.792Z,,,,,,,,,,,,,,,,,,,,,,,,,,,true,TRUE,,2537.000000000029,,response,,,,4,D,,,,,,TRUE,click #choice-1,,,,silence,,,,,245843.00000000003,245879.00000000003,243342,243330,243360,245876,,,
Item 4,flow.Sequence,1_3_1_0,2021-04-21T07:57:40.792Z,,,,,,,,,,,,,,,,,,,,,,,,,,,,,,28772.00000000003,,completion,,,,,,,,,,,,,,,,,,,,,245844,245879.00000000003,217091,217092,217107,245876,,,
Holding screen,html.Screen,1_3_1_1_0,2021-04-21T07:57:47.808Z,,,,,,,,,,,,,,,,,,,,,,,,,,,,,,7001,,timeout,,,,,,,,,,,,,,,,,,,,,252860,252860,245860,245844,245876,252877,,,
screen,html.Screen,1_3_1_1_1_0,2021-04-21T07:57:48.441Z,,,,,,,,,,,,,,,,15,,,,,,,,,,,,,,667.0000000000291,,response,,,,7,D,,,,,,Space,keypress(Space),,,,silence,,,,Greg --------- ---------- - --- ------- -- --- ------------<br>----- -- -------- ------- ---- ------ - -------- ---- -----<br>--- ------- ---- -- --- -------- --- - ----- ------ ---- --<br>-------- --- -------- -------- --- -------- ---- -- ----- -<br>-------- ---- --- ---------- --------- -- ------- ------ -<br>--------- ----- -----,253493,253527.00000000003,252860,252860,252877,253526,,0,Greg
screen,html.Screen,1_3_1_1_1_1,2021-04-21T07:57:48.969Z,,,,,,,,,,,,,,,,15,,,,,,,,,,,,,,544,,response,,,,7,D,,,,,,Space,keypress(Space),,,,silence,,,,"---- Anderson, ---------- - --- ------- -- --- ------------<br>----- -- -------- ------- ---- ------ - -------- ---- -----<br>--- ------- ---- -- --- -------- --- - ----- ------ ---- --<br>-------- --- -------- -------- --- -------- ---- -- ----- -<br>-------- ---- --- ---------- --------- -- ------- ------ -<br>--------- ----- -----",254021.00000000003,254055,253511,253493,253526,254060,,1,"Anderson,"
