sender,sender_type,sender_id,timestamp,meta,,Blues,Classical,Country,Dance,Electronic,Folk,Gospel,Hip-Hop,Jazz,Latin,Musical/Film,New-age,Pop,Provo_ID,R&B,Rap,Reggae,Religious,Rock,Soul,Swing,Traditional,age,artist_name,correct,correctResponse,distraction,duration,education,ended_on,familiarity,gender,headphone_check_performance,item,list,music_frequency,offensiveness,pleasantness,position_correct,preference,response,response_action,snippet_file,song_name,song_rating,sound,stimulus_1,stimulus_2,stimulus_3,text,time_commit,time_end,time_render,time_run,time_show,time_switch,url,word,word_ID
Introduction,html.Screen,0_0,2021-04-28T12:28:40.878Z,"{""labjs_version"":""20.2.2"",""labjs_build"":{""flavor"":""production"",""commit"":""a25486e0c714a0ae2ce03ff94b7bb6896854dcfa""},""location"":""https://run.pavlovia.org/mvasilev/music_f/"",""userAgent"":""Mozilla/5.0 (Windows NT 10.0; Win64; x64) AppleWebKit/537.36 (KHTML, like Gecko) Chrome/89.0.4389.128 Safari/537.36 Edg/89.0.774.77"",""platform"":""Win32"",""language"":""en-US"",""locale"":""en-US"",""timeZone"":""Europe/London"",""timezoneOffset"":-60,""screen_width"":1366,""screen_height"":768,""scroll_width"":1366,""scroll_height"":609,""window_innerWidth"":1366,""window_innerHeight"":657,""devicePixelRatio"":1}",,,,,,,,,,,,,,,,,,,,,,,,,,,,,8648.47699998413,,response,,,,,,,,,,,continue,click button,,,,,,,,,45656.62999986671,45653.70999998413,36423.404,36394.194999942556,37005.233,45679.963,{},,
Volume calibration,html.Screen,0_1,2021-04-28T12:29:03.384Z,,,,,,,,,,,,,,,,,,,,,,,,,,,,,,22477.221999901798,,response,,,,,,,,,,,continue,click button,,,,,,,,,68162.68999991007,68157.1849999018,45646.651,45657.33499987982,45679.963,68174.198,,,
Task instructions,html.Screen,0_2,2021-04-28T12:29:18.309Z,,,,,,,,,,,,,,,,,,,,,,,,,,,,,,14911.306999849941,,response,,,,,,,,,,,continue,click button,,,,,,,,,83087.28499989957,83085.50499984995,68157.584,68163.01499982364,68174.198,83109.426,,,
Sounds,html.Screen,0_3_0_0,2021-04-28T12:29:22.565Z,,,,,,,,,,,,,,,,,,,,,,,,,,,,,,4245.75,,timeout,,,,,,,,,1,,,,,,,,S,I,O,,87343.46499992535,87338.516,83076.173,83088.02999998443,83109.426,87355.176,,,
Judgement,html.Screen,0_3_0_1,2021-04-28T12:29:25.413Z,,,,,,,,,,,,,,,,,,,,,,,,,,,true,1,,2834.4089998108975,,response,,,,,,,,,1,,1,click #choice-1,,,,,S,I,O,,90191.71499996446,90189.5849998109,87338.516,87343.78500003368,87355.176,90202.361,,,
Trial,flow.Sequence,0_3_0,2021-04-28T12:29:25.414Z,,,,,,,,,,,,,,,,,,,,,,,,,,,,,,7080.1589998108975,,completion,,,,,,,,,1,,,,,,,,S,I,O,,90192.4899998121,90189.5849998109,83076.173,83087.87499996834,83109.426,90202.361,,,
Sounds,html.Screen,0_3_1_0,2021-04-28T12:29:29.655Z,,,,,,,,,,,,,,,,,,,,,,,,,,,,,,4245.720000000001,,timeout,,,,,,,,,3,,,,,,,,O,I,S,,94432.91999981739,94431.463,90185.681,90192.80499988236,90202.361,94448.081,,,
Judgement,html.Screen,0_3_1_1,2021-04-28T12:29:30.189Z,,,,,,,,,,,,,,,,,,,,,,,,,,,true,3,,517.6389999783132,,response,,,,,,,,,3,,3,click #choice-3,,,,,O,I,S,,94967.43499999866,94965.71999997832,94431.463,94433.23999992572,94448.081,94980.852,,,
Trial,flow.Sequence,0_3_1,2021-04-28T12:29:30.190Z,,,,,,,,,,,,,,,,,,,,,,,,,,,,,,4763.358999978314,,completion,,,,,,,,,3,,,,,,,,O,I,S,,94967.89500000887,94965.71999997832,90185.681,90192.71499989554,90202.361,94980.852,,,
Sounds,html.Screen,0_3_2_0,2021-04-28T12:29:34.434Z,,,,,,,,,,,,,,,,,,,,,,,,,,,,,,4246.415000000008,,timeout,,,,,,,,,2,,,,,,,,I,S,O,,99212.45999983512,99210.06,94964.313,94968.28999998979,94980.852,99227.267,,,
Judgement,html.Screen,0_3_2_1,2021-04-28T12:29:34.941Z,,,,,,,,,,,,,,,,,,,,,,,,,,,true,2,,491.0429999092448,,response,,,,,,,,,2,,2,click #choice-2,,,,,I,S,O,,99719.70499982126,99718.30999990925,99210.06,99213.06999982335,99227.267,99742.823,,,
Trial,flow.Sequence,0_3_2,2021-04-28T12:29:34.942Z,,,,,,,,,,,,,,,,,,,,,,,,,,,,,,4737.457999909253,,completion,,,,,,,,,2,,,,,,,,I,S,O,,99720.07999988273,99718.30999990925,94964.313,94968.19499996491,94980.852,99742.823,,,
Sounds,html.Screen,0_3_3_0,2021-04-28T12:29:39.197Z,,,,,,,,,,,,,,,,,,,,,,,,,,,,,,4245.831999999995,,timeout,,,,,,,,,2,,,,,,,,O,S,I,,103975.46999994665,103971.996,99726.202,99720.37500003353,99742.823,103988.655,,,
Judgement,html.Screen,0_3_3_1,2021-04-28T12:29:39.702Z,,,,,,,,,,,,,,,,,,,,,,,,,,,true,2,,489.54999981753645,,response,,,,,,,,,2,,2,click #choice-2,,,,,O,S,I,,104480.11999996379,104478.20499981754,103971.996,103975.79499986023,103988.655,104488.096,,,
Trial,flow.Sequence,0_3_3,2021-04-28T12:29:39.702Z,,,,,,,,,,,,,,,,,,,,,,,,,,,,,,4735.381999817531,,completion,,,,,,,,,2,,,,,,,,O,S,I,,104480.50999990664,104478.20499981754,99726.202,99720.2699999325,99742.823,104488.096,,,
Sounds,html.Screen,0_3_4_0,2021-04-28T12:29:43.941Z,,,,,,,,,,,,,,,,,,,,,,,,,,,,,,4245.752999999997,,timeout,,,,,,,,,3,,,,,,,,I,O,S,,108719.1200000234,108717.238,104471.518,104480.80000001937,104488.096,108733.849,,,
Judgement,html.Screen,0_3_4_1,2021-04-28T12:29:44.325Z,,,,,,,,,,,,,,,,,,,,,,,,,,,true,3,,368.4909999830852,,response,,,,,,,,,3,,3,click #choice-3,,,,,I,O,S,,109103.40999998152,109102.33999998309,108717.238,108719.3350000307,108733.849,109133.524,,,
Trial,flow.Sequence,0_3_4,2021-04-28T12:29:44.325Z,,,,,,,,,,,,,,,,,,,,,,,,,,,,,,4614.243999983082,,completion,,,,,,,,,3,,,,,,,,I,O,S,,109103.73999993317,109102.33999998309,104471.518,104480.69499991834,104488.096,109133.524,,,
Sounds,html.Screen,0_3_5_0,2021-04-28T12:29:48.586Z,,,,,,,,,,,,,,,,,,,,,,,,,,,,,,4245.843999999997,,timeout,,,,,,,,,1,,,,,,,,S,O,I,,113364.15999988094,113362.684,109116.924,109103.979999898,109133.524,113379.368,,,
Judgement,html.Screen,0_3_5_1,2021-04-28T12:29:49.092Z,,,,,,,,,,,,,,,,,,,,,,,,,,,true,1,,490.0519998863019,,response,,,,,,,,,1,,1,click #choice-1,,,,,S,O,I,,113870.45499985106,113869.4199998863,113362.684,113364.38499996439,113379.368,113895.434,,,
Trial,flow.Sequence,0_3_5,2021-04-28T12:29:49.092Z,,,,,,,,,,,,,,,,,,,,,,,,,,,,,,4735.895999886299,,completion,,,,,,,,,1,,,,,,,,S,O,I,,113870.71499996819,113869.4199998863,109116.924,109103.90999983065,109133.524,113895.434,,,
Task,flow.Loop,0_3,2021-04-28T12:29:49.106Z,,,,,,,,,,,,,,,,,,,,,,,,,,,,,,30759.993999886297,,completion,,,1,,,,,,,,,,,,,,,,,,113883.93999985419,113869.4199998863,83076.173,83087.73499983363,83109.426,113895.434,,,
Trap,html.Screen,0_4,2021-04-28T12:29:49.112Z,,,,,,,,,,,,,,,,,,,,,,,,,,,,,,NaN,,skipped,,,,,,,,,,,,,,,,,,,,,113890.6999998726,113869.4199998863,,113890.50999982283,,113895.434,,,
Thanks,html.Screen,0_5,2021-04-28T12:29:54.140Z,,,,,,,,,,,,,,,,,,,,,,,,,,,,,,5021.755999949193,,response,,,,,,,,,,,continue,click button,,,,,,,,,118918.03999990225,118917.18999994919,113878.803,113890.8700000029,113895.434,123236.65,,,
Headphone screening,flow.Sequence,0,2021-04-28T12:29:54.140Z,,,,,,,,,,,,,,,,,,,,,,,,,,,,,,81911.95699994918,,completion,,,,,,,,,,,,,,,,,,,,,118918.33499982022,118917.18999994919,36423.404,36393.92499998212,37005.233,123236.65,,,
Instructions,html.Page,1_0,2021-04-28T12:30:34.119Z,,,,,,,,,,,,,,,,,,,,,,,,,,,,,,35660.449999943754,,form submission,,,,,,,,,,,,,,,,,,,,,158897.6300000213,158897.09999994375,123186.241,123234.47000002488,123236.65,158900.683,,,
Holding screen,html.Screen,1_1_0_0,2021-04-28T12:30:44.113Z,,,,,,,,,,,,,,,,,,,,,,,,,,,,,,10040.008000000002,,timeout,,,,,,,,,,,,,,,,,,,,,168891.49499987252,168890.764,158884.1,158898.1349999085,158900.683,168940.691,,,
screen,html.Screen,1_1_0_1_0,2021-04-28T12:30:45.470Z,,,,,,,,,,,,,,,,53,,,,,,,,,,,,,,1305.008999853977,,response,,,,99,,,,,,,Space,keypress(Space),,,,,,,,When -- ----- -- ------ - ------- --- ----------<br>------------- ------ ------ ---- ---- ------- ----- -- ----<br>-------- ------- -- ---------- --- - --- ----- ----- ----<br>---- --- --- ----- --- ---- ---- ------- ----- ---- -------<br>--- --- -- ----- -- --- ---- -- --- ---- -- ------ ------<br>--- ----- -- ----,170248.86499997228,170245.69999985397,168890.764,168891.8049999047,168940.691,170256.015,,0,When
screen,html.Screen,1_1_0_1_1,2021-04-28T12:30:45.979Z,,,,,,,,,,,,,,,,53,,,,,,,,,,,,,,500.6550000315765,,response,,,,99,,,,,,,Space,keypress(Space),,,,,,,,---- it ----- -- ------ - ------- --- ----------<br>------------- ------ ------ ---- ---- ------- ----- -- ----<br>-------- ------- -- ---------- --- - --- ----- ----- ----<br>---- --- --- ----- --- ---- ---- ------- ----- ---- -------<br>--- --- -- ----- -- --- ---- -- --- ---- -- ------ ------<br>--- ----- -- ----,170757.54499994218,170756.6700000316,170239.459,170249.05500002205,170256.015,170772.171,,1,it
screen,html.Screen,1_1_0_1_2,2021-04-28T12:30:46.571Z,,,,,,,,,,,,,,,,53,,,,,,,,,,,,,,576.8589999248215,,response,,,,99,,,,,,,Space,keypress(Space),,,,,,,,---- -- comes -- ------ - ------- --- ----------<br>------------- ------ ------ ---- ---- ------- ----- -- ----<br>-------- ------- -- ---------- --- - --- ----- ----- ----<br>---- --- --- ----- --- ---- ---- ------- ----- ---- -------<br>--- --- -- ----- -- --- ---- -- --- ---- -- ------ ------<br>--- ----- -- ----,171350.14500003308,171349.02999992482,170756.052,170757.80999986455,170772.171,171354.985,,2,comes
screen,html.Screen,1_1_0_1_3,2021-04-28T12:30:47.035Z,,,,,,,,,,,,,,,,53,,,,,,,,,,,,,,457.9949999296805,,response,,,,99,,,,,,,Space,keypress(Space),,,,,,,,---- -- ----- to ------ - ------- --- ----------<br>------------- ------ ------ ---- ---- ------- ----- -- ----<br>-------- ------- -- ---------- --- - --- ----- ----- ----<br>---- --- --- ----- --- ---- ---- ------- ----- ---- -------<br>--- --- -- ----- -- --- ---- -- --- ---- -- ------ ------<br>--- ----- -- ----,171813.96499997936,171812.97999992967,171338.878,171350.44499998912,171354.985,171821.178,,3,to
screen,html.Screen,1_1_0_1_4,2021-04-28T12:30:47.522Z,,,,,,,,,,,,,,,,53,,,,,,,,,,,,,,479.2869998620008,,response,,,,99,,,,,,,Space,keypress(Space),,,,,,,,---- -- ----- -- having - ------- --- ----------<br>------------- ------ ------ ---- ---- ------- ----- -- ----<br>-------- ------- -- ---------- --- - --- ----- ----- ----<br>---- --- --- ----- --- ---- ---- ------- ----- ---- -------<br>--- --- -- ----- -- --- ---- -- --- ---- -- ------ ------<br>--- ----- -- ----,172301.1000000406,172300.46499986202,171805.024,171814.25499985926,171821.178,172304.028,,4,having
screen,html.Screen,1_1_0_1_5,2021-04-28T12:30:47.907Z,,,,,,,,,,,,,,,,53,,,,,,,,,,,,,,380.94699986552587,,response,,,,99,,,,,,,Space,keypress(Space),,,,,,,,---- -- ----- -- ------ a ------- --- ----------<br>------------- ------ ------ ---- ---- ------- ----- -- ----<br>-------- ------- -- ---------- --- - --- ----- ----- ----<br>---- --- --- ----- --- ---- ---- ------- ----- ---- -------<br>--- --- -- ----- -- --- ---- -- --- ---- -- ------ ------<br>--- ----- -- ----,172685.61499984935,172684.97499986552,172287.815,172301.25499982387,172304.028,172711.05,,5,a
screen,html.Screen,1_1_0_1_6,2021-04-28T12:30:48.379Z,,,,,,,,,,,,,,,,53,,,,,,,,,,,,,,446.1599998593447,,response,,,,99,,,,,,,Space,keypress(Space),,,,,,,,---- -- ----- -- ------ - lasting --- ----------<br>------------- ------ ------ ---- ---- ------- ----- -- ----<br>-------- ------- -- ---------- --- - --- ----- ----- ----<br>---- --- --- ----- --- ---- ---- ------- ----- ---- -------<br>--- --- -- ----- -- --- ---- -- --- ---- -- ------ ------<br>--- ----- -- ----,173157.89999999106,173157.20999985933,172670.707,172685.76000002213,172711.05,173169.877,,6,lasting
screen,html.Screen,1_1_0_1_7,2021-04-28T12:30:49.035Z,,,,,,,,,,,,,,,,53,,,,,,,,,,,,,,643.0129999428464,,response,,,,99,,,,,,,Space,keypress(Space),,,,,,,,---- -- ----- -- ------ - ------- and ----------<br>------------- ------ ------ ---- ---- ------- ----- -- ----<br>-------- ------- -- ---------- --- - --- ----- ----- ----<br>---- --- --- ----- --- ---- ---- ------- ----- ---- -------<br>--- --- -- ----- -- --- ---- -- --- ---- -- ------ ------<br>--- ----- -- ----,173813.88999987394,173812.88999994285,173153.654,173158.28499989584,173169.877,173819.204,,7,and
screen,html.Screen,1_1_0_1_8,2021-04-28T12:30:49.530Z,,,,,,,,,,,,,,,,53,,,,,,,,,,,,,,489.2259999754897,,response,,,,99,,,,,,,Space,keypress(Space),,,,,,,,---- -- ----- -- ------ - ------- --- fulfilling<br>------------- ------ ------ ---- ---- ------- ----- -- ----<br>-------- ------- -- ---------- --- - --- ----- ----- ----<br>---- --- --- ----- --- ---- ---- ------- ----- ---- -------<br>--- --- -- ----- -- --- ---- -- --- ---- -- ------ ------<br>--- ----- -- ----,174308.9949998539,174308.4299999755,173803.131,173814.19499986805,173819.204,174318.671,,8,fulfilling
screen,html.Screen,1_1_0_1_9,2021-04-28T12:30:49.955Z,,,,,,,,,,,,,,,,53,,,,,,,,,,,,,,414.103999924002,,response,,,,99,,,,,,,Space,keypress(Space),,,,,,,,"---- -- ----- -- ------ - ------- --- ----------<br>relationship, ------ ------ ---- ---- ------- ----- -- ----<br>-------- ------- -- ---------- --- - --- ----- ----- ----<br>---- --- --- ----- --- ---- ---- ------- ----- ---- -------<br>--- --- -- ----- -- --- ---- -- --- ---- -- ------ ------<br>--- ----- -- ----",174733.73500001617,174732.774999924,174302.461,174309.15499990806,174318.671,174752.628,,9,"relationship,"
screen,html.Screen,1_1_0_1_10,2021-04-28T12:30:50.396Z,,,,,,,,,,,,,,,,53,,,,,,,,,,,,,,421.3969998401881,,response,,,,99,,,,,,,Space,keypress(Space),,,,,,,,---- -- ----- -- ------ - ------- --- ----------<br>------------- common ------ ---- ---- ------- ----- -- ----<br>-------- ------- -- ---------- --- - --- ----- ----- ----<br>---- --- --- ----- --- ---- ---- ------- ----- ---- -------<br>--- --- -- ----- -- --- ---- -- --- ---- -- ------ ------<br>--- ----- -- ----,175174.60000002757,175174.02499984019,174718.635,174734.04000001028,174752.628,175184.494,,10,common
screen,html.Screen,1_1_0_1_11,2021-04-28T12:30:50.883Z,,,,,,,,,,,,,,,,53,,,,,,,,,,,,,,476.2560000391095,,response,,,,99,,,,,,,Space,keypress(Space),,,,,,,,---- -- ----- -- ------ - ------- --- ----------<br>------------- ------ wisdom ---- ---- ------- ----- -- ----<br>-------- ------- -- ---------- --- - --- ----- ----- ----<br>---- --- --- ----- --- ---- ---- ------- ----- ---- -------<br>--- --- -- ----- -- --- ---- -- --- ---- -- ------ ------<br>--- ----- -- ----,175661.3649998326,175660.75000003912,175168.216,175174.75499981083,175184.494,175667.333,,11,wisdom
screen,html.Screen,1_1_0_1_12,2021-04-28T12:30:51.314Z,,,,,,,,,,,,,,,,53,,,,,,,,,,,,,,424.99699989761575,,response,,,,99,,,,,,,Space,keypress(Space),,,,,,,,---- -- ----- -- ------ - ------- --- ----------<br>------------- ------ ------ says ---- ------- ----- -- ----<br>-------- ------- -- ---------- --- - --- ----- ----- ----<br>---- --- --- ----- --- ---- ---- ------- ----- ---- -------<br>--- --- -- ----- -- --- ---- -- --- ---- -- ------ ------<br>--- ----- -- ----,176092.93999988586,176092.32999989763,175651.12,175661.52999992482,175667.333,176100.23,,12,says
screen,html.Screen,1_1_0_1_13,2021-04-28T12:30:51.819Z,,,,,,,,,,,,,,,,53,,,,,,,,,,,,,,496.4349998444959,,response,,,,99,,,,,,,Space,keypress(Space),,,,,,,,---- -- ----- -- ------ - ------- --- ----------<br>------------- ------ ------ ---- that ------- ----- -- ----<br>-------- ------- -- ---------- --- - --- ----- ----- ----<br>---- --- --- ----- --- ---- ---- ------- ----- ---- -------<br>--- --- -- ----- -- --- ---- -- --- ---- -- ------ ------<br>--- ----- -- ----,176597.30499982834,176596.6649998445,176083.975,176093.0849998258,176100.23,176599.759,,13,that
screen,html.Screen,1_1_0_1_14,2021-04-28T12:30:52.243Z,,,,,,,,,,,,,,,,53,,,,,,,,,,,,,,420.6659999951662,,response,,,,99,,,,,,,Space,keypress(Space),,,,,,,,---- -- ----- -- ------ - ------- --- ----------<br>------------- ------ ------ ---- ---- feeling ----- -- ----<br>-------- ------- -- ---------- --- - --- ----- ----- ----<br>---- --- --- ----- --- ---- ---- ------- ----- ---- -------<br>--- --- -- ----- -- --- ---- -- --- ---- -- ------ ------<br>--- ----- -- ----,177021.2899998296,177020.42499999516,176583.563,176597.4550000392,176599.759,177032.691,,14,feeling
screen,html.Screen,1_1_0_1_15,2021-04-28T12:30:52.707Z,,,,,,,,,,,,,,,,53,,,,,,,,,,,,,,452.02400002779905,,response,,,,99,,,,,,,Space,keypress(Space),,,,,,,,---- -- ----- -- ------ - ------- --- ----------<br>------------- ------ ------ ---- ---- ------- close -- ----<br>-------- ------- -- ---------- --- - --- ----- ----- ----<br>---- --- --- ----- --- ---- ---- ------- ----- ---- -------<br>--- --- -- ----- -- --- ---- -- --- ---- -- ------ ------<br>--- ----- -- ----,177485.5249999091,177484.7150000278,177016.414,177021.44999988377,177032.691,177498.842,,15,close
screen,html.Screen,1_1_0_1_16,2021-04-28T12:30:53.059Z,,,,,,,,,,,,,,,,53,,,,,,,,,,,,,,337.7929998395848,,response,,,,99,,,,,,,Space,keypress(Space),,,,,,,,---- -- ----- -- ------ - ------- --- ----------<br>------------- ------ ------ ---- ---- ------- ----- to ----<br>-------- ------- -- ---------- --- - --- ----- ----- ----<br>---- --- --- ----- --- ---- ---- ------- ----- ---- -------<br>--- --- -- ----- -- --- ---- -- --- ---- -- ------ ------<br>--- ----- -- ----,177837.30499981903,177836.6349998396,177482.62,177485.6799999252,177498.842,177848.475,,16,to
screen,html.Screen,1_1_0_1_17,2021-04-28T12:30:53.388Z,,,,,,,,,,,,,,,,53,,,,,,,,,,,,,,316.5949998717697,,response,,,,99,,,,,,,Space,keypress(Space),,,,,,,,---- -- ----- -- ------ - ------- --- ----------<br>------------- ------ ------ ---- ---- ------- ----- -- your<br>-------- ------- -- ---------- --- - --- ----- ----- ----<br>---- --- --- ----- --- ---- ---- ------- ----- ---- -------<br>--- --- -- ----- -- --- ---- -- --- ---- -- ------ ------<br>--- ----- -- ----,178166.71000001952,178165.06999987178,177832.208,177837.4649998732,177848.475,178181.494,,17,your
screen,html.Screen,1_1_0_1_18,2021-04-28T12:30:53.771Z,,,,,,,,,,,,,,,,53,,,,,,,,,,,,,,367.4559999675839,,response,,,,99,,,,,,,Space,keypress(Space),,,,,,,,---- -- ----- -- ------ - ------- --- ----------<br>------------- ------ ------ ---- ---- ------- ----- -- ----<br>romantic ------- -- ---------- --- - --- ----- ----- ----<br>---- --- --- ----- --- ---- ---- ------- ----- ---- -------<br>--- --- -- ----- -- --- ---- -- --- ---- -- ------ ------<br>--- ----- -- ----,178549.81500003487,178548.9499999676,178165.135,178167.06999996677,178181.494,178564.504,,18,romantic
screen,html.Screen,1_1_0_1_19,2021-04-28T12:30:54.140Z,,,,,,,,,,,,,,,,53,,,,,,,,,,,,,,352.5809998481709,,response,,,,99,,,,,,,Space,keypress(Space),,,,,,,,---- -- ----- -- ------ - ------- --- ----------<br>------------- ------ ------ ---- ---- ------- ----- -- ----<br>-------- partner -- ---------- --- - --- ----- ----- ----<br>---- --- --- ----- --- ---- ---- ------- ----- ---- -------<br>--- --- -- ----- -- --- ---- -- --- ---- -- ------ ------<br>--- ----- -- ----,178918.22499991395,178917.08499984816,178548.146,178550.00999988988,178564.504,178930.759,,19,partner
screen,html.Screen,1_1_0_1_20,2021-04-28T12:30:54.539Z,,,,,,,,,,,,,,,,53,,,,,,,,,,,,,,385.82599990590825,,response,,,,99,,,,,,,Space,keypress(Space),,,,,,,,---- -- ----- -- ------ - ------- --- ----------<br>------------- ------ ------ ---- ---- ------- ----- -- ----<br>-------- ------- is ---------- --- - --- ----- ----- ----<br>---- --- --- ----- --- ---- ---- ------- ----- ---- -------<br>--- --- -- ----- -- --- ---- -- --- ---- -- ------ ------<br>--- ----- -- ----,179317.54499999806,179316.5849999059,178914.427,178918.60999981873,178930.759,179330.352,,20,is
screen,html.Screen,1_1_0_1_21,2021-04-28T12:30:54.883Z,,,,,,,,,,,,,,,,53,,,,,,,,,,,,,,330.6579999233945,,response,,,,99,,,,,,,Space,keypress(Space),,,,,,,,---- -- ----- -- ------ - ------- --- ----------<br>------------- ------ ------ ---- ---- ------- ----- -- ----<br>-------- ------- -- paramount. --- - --- ----- ----- ----<br>---- --- --- ----- --- ---- ---- ------- ----- ---- -------<br>--- --- -- ----- -- --- ---- -- --- ---- -- ------ ------<br>--- ----- -- ----,179661.9649999775,179661.0099999234,179314.076,179317.77499988675,179330.352,179695.669,,21,paramount.
screen,html.Screen,1_1_0_1_22,2021-04-28T12:30:55.474Z,,,,,,,,,,,,,,,,53,,,,,,,,,,,,,,556.6959998474922,,response,,,,99,,,,,,,Space,keypress(Space),,,,,,,,---- -- ----- -- ------ - ------- --- ----------<br>------------- ------ ------ ---- ---- ------- ----- -- ----<br>-------- ------- -- ---------- But - --- ----- ----- ----<br>---- --- --- ----- --- ---- ---- ------- ----- ---- -------<br>--- --- -- ----- -- --- ---- -- --- ---- -- ------ ------<br>--- ----- -- ----,180252.97499983571,180252.3649998475,179647.029,179662.2549998574,179695.669,180262.774,,22,But
screen,html.Screen,1_1_0_1_23,2021-04-28T12:30:55.908Z,,,,,,,,,,,,,,,,53,,,,,,,,,,,,,,423.0659999327909,,response,,,,99,,,,,,,Space,keypress(Space),,,,,,,,---- -- ----- -- ------ - ------- --- ----------<br>------------- ------ ------ ---- ---- ------- ----- -- ----<br>-------- ------- -- ---------- --- a --- ----- ----- ----<br>---- --- --- ----- --- ---- ---- ------- ----- ---- -------<br>--- --- -- ----- -- --- ---- -- --- ---- -- ------ ------<br>--- ----- -- ----,180686.62499985658,180685.8399999328,180246.61,180253.13499988988,180262.774,180695.707,,23,a
screen,html.Screen,1_1_0_1_24,2021-04-28T12:30:56.354Z,,,,,,,,,,,,,,,,53,,,,,,,,,,,,,,436.6930000022403,,response,,,,99,,,,,,,Space,keypress(Space),,,,,,,,---- -- ----- -- ------ - ------- --- ----------<br>------------- ------ ------ ---- ---- ------- ----- -- ----<br>-------- ------- -- ---------- --- - new ----- ----- ----<br>---- --- --- ----- --- ---- ---- ------- ----- ---- -------<br>--- --- -- ----- -- --- ---- -- --- ---- -- ------ ------<br>--- ----- -- ----,181133.03999998607,181132.40000000224,180679.383,180686.80000002496,180695.707,181145.201,,24,new
screen,html.Screen,1_1_0_1_25,2021-04-28T12:30:57.379Z,,,,,,,,,,,,,,,,53,,,,,,,,,,,,,,1011.5039999721339,,response,,,,99,,,,,,,Space,keypress(Space),,,,,,,,---- -- ----- -- ------ - ------- --- ----------<br>------------- ------ ------ ---- ---- ------- ----- -- ----<br>-------- ------- -- ---------- --- - --- study ----- ----<br>---- --- --- ----- --- ---- ---- ------- ----- ---- -------<br>--- --- -- ----- -- --- ---- -- --- ---- -- ------ ------<br>--- ----- -- ----,182157.38999983296,182156.70499997213,181129.127,181133.20999988355,181145.201,182160.924,,25,study
screen,html.Screen,1_1_0_1_26,2021-04-28T12:30:57.875Z,,,,,,,,,,,,,,,,53,,,,,,,,,,,,,,491.56600000767503,,response,,,,99,,,,,,,Space,keypress(Space),,,,,,,,---- -- ----- -- ------ - ------- --- ----------<br>------------- ------ ------ ---- ---- ------- ----- -- ----<br>-------- ------- -- ---------- --- - --- ----- finds ----<br>---- --- --- ----- --- ---- ---- ------- ----- ---- -------<br>--- --- -- ----- -- --- ---- -- --- ---- -- ------ ------<br>--- ----- -- ----,182653.049999848,182652.49000000767,182145.199,182157.5700000394,182160.924,182660.387,,26,finds
screen,html.Screen,1_1_0_1_27,2021-04-28T12:30:58.388Z,,,,,,,,,,,,,,,,53,,,,,,,,,,,,,,504.8829999977024,,response,,,,99,,,,,,,Space,keypress(Space),,,,,,,,---- -- ----- -- ------ - ------- --- ----------<br>------------- ------ ------ ---- ---- ------- ----- -- ----<br>-------- ------- -- ---------- --- - --- ----- ----- that<br>---- --- --- ----- --- ---- ---- ------- ----- ---- -------<br>--- --- -- ----- -- --- ---- -- --- ---- -- ------ ------<br>--- ----- -- ----,183166.52999981306,183165.2699999977,182644.196,182653.20999990217,182660.387,183176.544,,27,that
screen,html.Screen,1_1_0_1_28,2021-04-28T12:30:58.851Z,,,,,,,,,,,,,,,,53,,,,,,,,,,,,,,452.0909999718424,,response,,,,99,,,,,,,Space,keypress(Space),,,,,,,,---- -- ----- -- ------ - ------- --- ----------<br>------------- ------ ------ ---- ---- ------- ----- -- ----<br>-------- ------- -- ---------- --- - --- ----- ----- ----<br>it's --- --- ----- --- ---- ---- ------- ----- ---- -------<br>--- --- -- ----- -- --- ---- -- --- ---- -- ------ ------<br>--- ----- -- ----,183629.46500000544,183628.63499997184,183160.413,183166.95999982767,183176.544,183642.754,,28,it's
screen,html.Screen,1_1_0_1_29,2021-04-28T12:30:59.260Z,,,,,,,,,,,,,,,,53,,,,,,,,,,,,,,394.5009998574096,,response,,,,99,,,,,,,Space,keypress(Space),,,,,,,,---- -- ----- -- ------ - ------- --- ----------<br>------------- ------ ------ ---- ---- ------- ----- -- ----<br>-------- ------- -- ---------- --- - --- ----- ----- ----<br>---- not --- ----- --- ---- ---- ------- ----- ---- -------<br>--- --- -- ----- -- --- ---- -- --- ---- -- ------ ------<br>--- ----- -- ----,184038.21999998763,184037.2549998574,183626.496,183629.65999986045,183642.754,184042.356,,29,not
screen,html.Screen,1_1_0_1_30,2021-04-28T12:30:59.715Z,,,,,,,,,,,,,,,,53,,,,,,,,,,,,,,450.7239999274316,,response,,,,99,,,,,,,Space,keypress(Space),,,,,,,,---- -- ----- -- ------ - ------- --- ----------<br>------------- ------ ------ ---- ---- ------- ----- -- ----<br>-------- ------- -- ---------- --- - --- ----- ----- ----<br>---- --- how ----- --- ---- ---- ------- ----- ---- -------<br>--- --- -- ----- -- --- ---- -- --- ---- -- ------ ------<br>--- ----- -- ----,184493.78999997862,184493.07999992743,184026.067,184038.50999986753,184042.356,184508.599,,30,how
screen,html.Screen,1_1_0_1_31,2021-04-28T12:31:00.195Z,,,,,,,,,,,,,,,,53,,,,,,,,,,,,,,463.7459999001003,,response,,,,99,,,,,,,Space,keypress(Space),,,,,,,,---- -- ----- -- ------ - ------- --- ----------<br>------------- ------ ------ ---- ---- ------- ----- -- ----<br>-------- ------- -- ---------- --- - --- ----- ----- ----<br>---- --- --- close --- ---- ---- ------- ----- ---- -------<br>--- --- -- ----- -- --- ---- -- --- ---- -- ------ ------<br>--- ----- -- ----,184973.0199999176,184972.3449999001,184492.335,184493.98499983363,184508.599,184974.745,,31,close
screen,html.Screen,1_1_0_1_32,2021-04-28T12:31:00.619Z,,,,,,,,,,,,,,,,53,,,,,,,,,,,,,,421.57499982521404,,response,,,,99,,,,,,,Space,keypress(Space),,,,,,,,---- -- ----- -- ------ - ------- --- ----------<br>------------- ------ ------ ---- ---- ------- ----- -- ----<br>-------- ------- -- ---------- --- - --- ----- ----- ----<br>---- --- --- ----- you ---- ---- ------- ----- ---- -------<br>--- --- -- ----- -- --- ---- -- --- ---- -- ------ ------<br>--- ----- -- ----,185397.32999983244,185396.3199998252,184958.535,184973.18500000983,184974.745,185407.619,,32,you
screen,html.Screen,1_1_0_1_33,2021-04-28T12:31:00.979Z,,,,,,,,,,,,,,,,53,,,,,,,,,,,,,,348.89600001549115,,response,,,,99,,,,,,,Space,keypress(Space),,,,,,,,---- -- ----- -- ------ - ------- --- ----------<br>------------- ------ ------ ---- ---- ------- ----- -- ----<br>-------- ------- -- ---------- --- - --- ----- ----- ----<br>---- --- --- ----- --- feel ---- ------- ----- ---- -------<br>--- --- -- ----- -- --- ---- -- --- ---- -- ------ ------<br>--- ----- -- ----,185757.190000033,185756.5150000155,185391.426,185397.57499983534,185407.619,185773.948,,33,feel
screen,html.Screen,1_1_0_1_34,2021-04-28T12:31:01.363Z,,,,,,,,,,,,,,,,53,,,,,,,,,,,,,,366.68699984331033,,response,,,,99,,,,,,,Space,keypress(Space),,,,,,,,---- -- ----- -- ------ - ------- --- ----------<br>------------- ------ ------ ---- ---- ------- ----- -- ----<br>-------- ------- -- ---------- --- - --- ----- ----- ----<br>---- --- --- ----- --- ---- that ------- ----- ---- -------<br>--- --- -- ----- -- --- ---- -- --- ---- -- ------ ------<br>--- ----- -- ----,186141.62499993108,186140.6349998433,185757.633,185757.79499998316,185773.948,186156.925,,34,that
screen,html.Screen,1_1_0_1_35,2021-04-28T12:31:01.763Z,,,,,,,,,,,,,,,,53,,,,,,,,,,,,,,383.6149999581394,,response,,,,99,,,,,,,Space,keypress(Space),,,,,,,,---- -- ----- -- ------ - ------- --- ----------<br>------------- ------ ------ ---- ---- ------- ----- -- ----<br>-------- ------- -- ---------- --- - --- ----- ----- ----<br>---- --- --- ----- --- ---- ---- matters ----- ---- -------<br>--- --- -- ----- -- --- ---- -- --- ---- -- ------ ------<br>--- ----- -- ----,186541.479999898,186540.53999995813,186140.598,186141.84499997646,186156.925,186556.568,,35,matters
screen,html.Screen,1_1_0_1_36,2021-04-28T12:31:02.187Z,,,,,,,,,,,,,,,,53,,,,,,,,,,,,,,407.9269999637909,,response,,,,99,,,,,,,Space,keypress(Space),,,,,,,,"---- -- ----- -- ------ - ------- --- ----------<br>------------- ------ ------ ---- ---- ------- ----- -- ----<br>-------- ------- -- ---------- --- - --- ----- ----- ----<br>---- --- --- ----- --- ---- ---- ------- most, ---- -------<br>--- --- -- ----- -- --- ---- -- --- ---- -- ------ ------<br>--- ----- -- ----",186965.06499988027,186964.4949999638,186540.206,186541.62499983795,186556.568,186972.766,,36,"most,"
screen,html.Screen,1_1_0_1_37,2021-04-28T12:31:02.650Z,,,,,,,,,,,,,,,,53,,,,,,,,,,,,,,455.6189999774215,,response,,,,99,,,,,,,Space,keypress(Space),,,,,,,,---- -- ----- -- ------ - ------- --- ----------<br>------------- ------ ------ ---- ---- ------- ----- -- ----<br>-------- ------- -- ---------- --- - --- ----- ----- ----<br>---- --- --- ----- --- ---- ---- ------- ----- it's -------<br>--- --- -- ----- -- --- ---- -- --- ---- -- ------ ------<br>--- ----- -- ----,187428.92999993637,187428.38499997742,186956.47,186965.20500001498,186972.766,187438.961,,37,it's
screen,html.Screen,1_1_0_1_38,2021-04-28T12:31:03.107Z,,,,,,,,,,,,,,,,53,,,,,,,,,,,,,,445.73400001518894,,response,,,,99,,,,,,,Space,keypress(Space),,,,,,,,---- -- ----- -- ------ - ------- --- ----------<br>------------- ------ ------ ---- ---- ------- ----- -- ----<br>-------- ------- -- ---------- --- - --- ----- ----- ----<br>---- --- --- ----- --- ---- ---- ------- ----- ---- whether<br>--- --- -- ----- -- --- ---- -- --- ---- -- ------ ------<br>--- ----- -- ----,187885.30999980867,187884.6950000152,187422.747,187429.065000033,187438.961,187888.559,,38,whether
screen,html.Screen,1_1_0_1_39,2021-04-28T12:31:03.571Z,,,,,,,,,,,,,,,,53,,,,,,,,,,,,,,460.55599987355527,,response,,,,99,,,,,,,Space,keypress(Space),,,,,,,,---- -- ----- -- ------ - ------- --- ----------<br>------------- ------ ------ ---- ---- ------- ----- -- ----<br>-------- ------- -- ---------- --- - --- ----- ----- ----<br>---- --- --- ----- --- ---- ---- ------- ----- ---- -------<br>you --- -- ----- -- --- ---- -- --- ---- -- ------ ------<br>--- ----- -- ----,188349.8350000009,188349.11499987356,187872.346,187885.4449999053,187888.559,188354.795,,39,you
screen,html.Screen,1_1_0_1_40,2021-04-28T12:31:04.019Z,,,,,,,,,,,,,,,,53,,,,,,,,,,,,,,442.13499995312304,,response,,,,99,,,,,,,Space,keypress(Space),,,,,,,,---- -- ----- -- ------ - ------- --- ----------<br>------------- ------ ------ ---- ---- ------- ----- -- ----<br>-------- ------- -- ---------- --- - --- ----- ----- ----<br>---- --- --- ----- --- ---- ---- ------- ----- ---- -------<br>--- are -- ----- -- --- ---- -- --- ---- -- ------ ------<br>--- ----- -- ----,188797.8999998886,188796.92999995314,188338.466,188349.9699998647,188354.795,188804.274,,40,are
screen,html.Screen,1_1_0_1_41,2021-04-28T12:31:04.523Z,,,,,,,,,,,,,,,,53,,,,,,,,,,,,,,496.54099996594596,,response,,,,99,,,,,,,Space,keypress(Space),,,,,,,,---- -- ----- -- ------ - ------- --- ----------<br>------------- ------ ------ ---- ---- ------- ----- -- ----<br>-------- ------- -- ---------- --- - --- ----- ----- ----<br>---- --- --- ----- --- ---- ---- ------- ----- ---- -------<br>--- --- as ----- -- --- ---- -- --- ---- -- ------ ------<br>--- ----- -- ----,189301.34499981068,189300.81499996595,188788.023,188798.17499988712,188804.274,189303.794,,41,as
screen,html.Screen,1_1_0_1_42,2021-04-28T12:31:04.995Z,,,,,,,,,,,,,,,,53,,,,,,,,,,,,,,468.7509998397436,,response,,,,99,,,,,,,Space,keypress(Space),,,,,,,,---- -- ----- -- ------ - ------- --- ----------<br>------------- ------ ------ ---- ---- ------- ----- -- ----<br>-------- ------- -- ---------- --- - --- ----- ----- ----<br>---- --- --- ----- --- ---- ---- ------- ----- ---- -------<br>--- --- -- close -- --- ---- -- --- ---- -- ------ ------<br>--- ----- -- ----,189773.49499985576,189772.54499983974,189287.604,189301.48999998346,189303.794,189786.612,,42,close
screen,html.Screen,1_1_0_1_43,2021-04-28T12:31:05.443Z,,,,,,,,,,,,,,,,53,,,,,,,,,,,,,,434.1329998240981,,response,,,,99,,,,,,,Space,keypress(Space),,,,,,,,---- -- ----- -- ------ - ------- --- ----------<br>------------- ------ ------ ---- ---- ------- ----- -- ----<br>-------- ------- -- ---------- --- - --- ----- ----- ----<br>---- --- --- ----- --- ---- ---- ------- ----- ---- -------<br>--- --- -- ----- as --- ---- -- --- ---- -- ------ ------<br>--- ----- -- ----,190221.67999995872,190220.7449998241,189770.464,189777.099999832,189786.612,190236.171,,43,as
screen,html.Screen,1_1_0_1_44,2021-04-28T12:31:05.964Z,,,,,,,,,,,,,,,,53,,,,,,,,,,,,,,505.71899994657724,,response,,,,99,,,,,,,Space,keypress(Space),,,,,,,,---- -- ----- -- ------ - ------- --- ----------<br>------------- ------ ------ ---- ---- ------- ----- -- ----<br>-------- ------- -- ---------- --- - --- ----- ----- ----<br>---- --- --- ----- --- ---- ---- ------- ----- ---- -------<br>--- --- -- ----- -- you ---- -- --- ---- -- ------ ------<br>--- ----- -- ----,190742.66500002705,190741.88999994658,190219.932,190221.92499996163,190236.171,190752.404,,44,you
screen,html.Screen,1_1_0_1_45,2021-04-28T12:31:06.492Z,,,,,,,,,,,,,,,,53,,,,,,,,,,,,,,516.3909999235475,,response,,,,99,,,,,,,Space,keypress(Space),,,,,,,,---- -- ----- -- ------ - ------- --- ----------<br>------------- ------ ------ ---- ---- ------- ----- -- ----<br>-------- ------- -- ---------- --- - --- ----- ----- ----<br>---- --- --- ----- --- ---- ---- ------- ----- ---- -------<br>--- --- -- ----- -- --- want -- --- ---- -- ------ ------<br>--- ----- -- ----,191269.97999986634,191268.79499992356,190736.135,190742.79999989085,190752.404,191285.115,,45,want
screen,html.Screen,1_1_0_1_46,2021-04-28T12:31:06.963Z,,,,,,,,,,,,,,,,53,,,,,,,,,,,,,,455.41000003018416,,response,,,,99,,,,,,,Space,keypress(Space),,,,,,,,---- -- ----- -- ------ - ------- --- ----------<br>------------- ------ ------ ---- ---- ------- ----- -- ----<br>-------- ------- -- ---------- --- - --- ----- ----- ----<br>---- --- --- ----- --- ---- ---- ------- ----- ---- -------<br>--- --- -- ----- -- --- ---- to --- ---- -- ------ ------<br>--- ----- -- ----,191741.0750000272,191740.52500003017,191268.999,191270.17499995418,191285.115,191751.352,,46,to
screen,html.Screen,1_1_0_1_47,2021-04-28T12:31:07.523Z,,,,,,,,,,,,,,,,53,,,,,,,,,,,,,,549.2880000303849,,response,,,,99,,,,,,,Space,keypress(Space),,,,,,,,"---- -- ----- -- ------ - ------- --- ----------<br>------------- ------ ------ ---- ---- ------- ----- -- ----<br>-------- ------- -- ---------- --- - --- ----- ----- ----<br>---- --- --- ----- --- ---- ---- ------- ----- ---- -------<br>--- --- -- ----- -- --- ---- -- be, ---- -- ------ ------<br>--- ----- -- ----",192301.7899999395,192300.6400000304,191735.138,191741.20499985293,191751.352,192317.493,,47,"be,"
screen,html.Screen,1_1_0_1_48,2021-04-28T12:31:07.962Z,,,,,,,,,,,,,,,,53,,,,,,,,,,,,,,422.82199982812745,,response,,,,99,,,,,,,Space,keypress(Space),,,,,,,,---- -- ----- -- ------ - ------- --- ----------<br>------------- ------ ------ ---- ---- ------- ----- -- ----<br>-------- ------- -- ---------- --- - --- ----- ----- ----<br>---- --- --- ----- --- ---- ---- ------- ----- ---- -------<br>--- --- -- ----- -- --- ---- -- --- even -- ------ ------<br>--- ----- -- ----,192740.87999993935,192740.31499982812,192301.346,192301.96499987505,192317.493,192750.333,,48,even
screen,html.Screen,1_1_0_1_49,2021-04-28T12:31:08.402Z,,,,,,,,,,,,,,,,53,,,,,,,,,,,,,,430.0319999201165,,response,,,,99,,,,,,,Space,keypress(Space),,,,,,,,---- -- ----- -- ------ - ------- --- ----------<br>------------- ------ ------ ---- ---- ------- ----- -- ----<br>-------- ------- -- ---------- --- - --- ----- ----- ----<br>---- --- --- ----- --- ---- ---- ------- ----- ---- -------<br>--- --- -- ----- -- --- ---- -- --- ---- if ------ ------<br>--- ----- -- ----,193180.88999995962,193180.36499992013,192734.078,192741.00499995984,192750.333,193183.277,,49,if
screen,html.Screen,1_1_0_1_50,2021-04-28T12:31:08.891Z,,,,,,,,,,,,,,,,53,,,,,,,,,,,,,,485.557999902172,,response,,,,99,,,,,,,Space,keypress(Space),,,,,,,,---- -- ----- -- ------ - ------- --- ----------<br>------------- ------ ------ ---- ---- ------- ----- -- ----<br>-------- ------- -- ---------- --- - --- ----- ----- ----<br>---- --- --- ----- --- ---- ---- ------- ----- ---- -------<br>--- --- -- ----- -- --- ---- -- --- ---- -- that's ------<br>--- ----- -- ----,193669.7199998889,193668.83499990217,193166.974,193181.02000001818,193183.277,193682.915,,50,that's
screen,html.Screen,1_1_0_1_51,2021-04-28T12:31:09.347Z,,,,,,,,,,,,,,,,53,,,,,,,,,,,,,,441.6199999517121,,response,,,,99,,,,,,,Space,keypress(Space),,,,,,,,---- -- ----- -- ------ - ------- --- ----------<br>------------- ------ ------ ---- ---- ------- ----- -- ----<br>-------- ------- -- ---------- --- - --- ----- ----- ----<br>---- --- --- ----- --- ---- ---- ------- ----- ---- -------<br>--- --- -- ----- -- --- ---- -- --- ---- -- ------ really<br>--- ----- -- ----,194125.1649998594,194124.53499995172,193666.589,193670.03499995917,193682.915,194132.312,,51,really
screen,html.Screen,1_1_0_1_52,2021-04-28T12:31:09.850Z,,,,,,,,,,,,,,,,53,,,,,,,,,,,,,,496.08799981224,,response,,,,99,,,,,,,Space,keypress(Space),,,,,,,,---- -- ----- -- ------ - ------- --- ----------<br>------------- ------ ------ ---- ---- ------- ----- -- ----<br>-------- ------- -- ---------- --- - --- ----- ----- ----<br>---- --- --- ----- --- ---- ---- ------- ----- ---- -------<br>--- --- -- ----- -- --- ---- -- --- ---- -- ------ ------<br>not ----- -- ----,194628.92499985173,194628.39999981225,194116.1,194125.3199998755,194132.312,194631.822,,52,not
screen,html.Screen,1_1_0_1_53,2021-04-28T12:31:10.339Z,,,,,,,,,,,,,,,,53,,,,,,,,,,,,,,485.32300002564443,,response,,,,99,,,,,,,Space,keypress(Space),,,,,,,,---- -- ----- -- ------ - ------- --- ----------<br>------------- ------ ------ ---- ---- ------- ----- -- ----<br>-------- ------- -- ---------- --- - --- ----- ----- ----<br>---- --- --- ----- --- ---- ---- ------- ----- ---- -------<br>--- --- -- ----- -- --- ---- -- --- ---- -- ------ ------<br>--- close -- ----,195117.8849998396,195117.14500002563,194615.63,194629.05999994837,194631.822,195131.327,,53,close
screen,html.Screen,1_1_0_1_54,2021-04-28T12:31:10.755Z,,,,,,,,,,,,,,,,53,,,,,,,,,,,,,,401.46299985196674,,response,,,,99,,,,,,,Space,keypress(Space),,,,,,,,---- -- ----- -- ------ - ------- --- ----------<br>------------- ------ ------ ---- ---- ------- ----- -- ----<br>-------- ------- -- ---------- --- - --- ----- ----- ----<br>---- --- --- ----- --- ---- ---- ------- ----- ---- -------<br>--- --- -- ----- -- --- ---- -- --- ---- -- ------ ------<br>--- ----- at ----,195533.5999999661,195532.78999985196,195115.155,195118.01499989815,195131.327,195547.637,,54,at
screen,html.Screen,1_1_0_1_55,2021-04-28T12:31:11.291Z,,,,,,,,,,,,,,,,53,,,,,,,,,,,,,,521.1330000126036,,response,,,,99,,,,,,,Space,keypress(Space),,,,,,,,---- -- ----- -- ------ - ------- --- ----------<br>------------- ------ ------ ---- ---- ------- ----- -- ----<br>-------- ------- -- ---------- --- - --- ----- ----- ----<br>---- --- --- ----- --- ---- ---- ------- ----- ---- -------<br>--- --- -- ----- -- --- ---- -- --- ---- -- ------ ------<br>--- ----- -- all.,196069.74499998614,196068.7700000126,195531.32,195533.74499990605,195547.637,196080.418,,55,all.
Item 99,flow.Loop,1_1_0_1,2021-04-28T12:31:11.292Z,,,,,,,,,,,,,,,,,,,,,,,,,,,,,,27128.0790000126,,completion,,,,,F,,,,,,,,,,,silence,,,,,196070.28499990702,196068.7700000126,168890.764,168891.72499999404,168940.691,196080.418,,,
Question 1,html.Screen,1_1_0_2,2021-04-28T12:31:16.340Z,,,,,,,,,,,,,,,,,,,,,,,,,,,true,FALSE,,5036.671999839658,,response,,,,99,F,,,,,,FALSE,click #choice-2,,,,silence,,,,,201118.13499988057,201117.08999983966,196064.188,196070.54999982938,196080.418,201142.041,,,
Question 2,html.Screen,1_1_0_3,2021-04-28T12:31:25.892Z,,,,,,,,,,,,,,,,,,,,,,,,,,,false,TRUE,,9527.299000022205,,response,,,,99,F,,,,,,FALSE,click #choice-2,,,,silence,,,,,210670.35999987274,210669.3400000222,201125.398,201118.29499993473,201142.041,210682.519,,,
Item 99,flow.Sequence,1_1_0,2021-04-28T12:31:25.892Z,,,,,,,,,,,,,,,,,,,,,,,,,,,,,,51768.65700002221,,completion,,,,,,,,,,,,,,,,,,,,,210670.674999943,210669.3400000222,158884.1,158897.99999981187,158900.683,210682.519,,,
Holding screen,html.Screen,1_1_1_0,2021-04-28T12:31:35.895Z,,,,,,,,,,,,,,,,,,,,,,,,,,,,,,10006.696999999986,,timeout,,,,,,,,,,,,,,,,,,,,,220673.35999989882,220672.602,210665.935,210670.95499997959,210682.519,220689.216,,,
screen,html.Screen,1_1_1_1_0,2021-04-28T12:31:36.797Z,,,,,,,,,,,,,,,,54,,,,,,,,,,,,,,885.2839998714917,,response,,,,100,,,,,,,Space,keypress(Space),,,,,,,,At --- ---- --- ------ ----- ------- ---- -- --- ------- --<br>------- ---------- ------ -- ----- -- ----- -- ---- ------<br>--- ----- --- --- ------ -------- ----- --- ------ ----- --<br>----- ----- ---------- --- --- ------ ------ ---- -- ------<br>------- --- ------ ----- --- ---- ------- -- ---- --- --<br>------- ------,221575.7549998816,221574.49999987148,220672.602,220676.41499987803,220689.216,221588.363,,0,At
screen,html.Screen,1_1_1_1_1,2021-04-28T12:31:37.195Z,,,,,,,,,,,,,,,,54,,,,,,,,,,,,,,384.1419999542413,,response,,,,100,,,,,,,Space,keypress(Space),,,,,,,,-- the ---- --- ------ ----- ------- ---- -- --- ------- --<br>------- ---------- ------ -- ----- -- ----- -- ---- ------<br>--- ----- --- --- ------ -------- ----- --- ------ ----- --<br>----- ----- ---------- --- --- ------ ------ ---- -- ------<br>------- --- ------ ----- --- ---- ------- -- ---- --- --<br>------- ------,221973.63999998197,221972.50499995425,221571.839,221575.9099998977,221588.363,221988.317,,1,the
screen,html.Screen,1_1_1_1_2,2021-04-28T12:31:37.564Z,,,,,,,,,,,,,,,,54,,,,,,,,,,,,,,352.6629998626013,,response,,,,100,,,,,,,Space,keypress(Space),,,,,,,,-- --- time --- ------ ----- ------- ---- -- --- ------- --<br>------- ---------- ------ -- ----- -- ----- -- ---- ------<br>--- ----- --- --- ------ -------- ----- --- ------ ----- --<br>----- ----- ---------- --- --- ------ ------ ---- -- ------<br>------- --- ------ ----- --- ---- ------- -- ---- --- --<br>------- ------,222342.17499988154,222340.9799998626,221971.59,221973.8199999556,221988.317,222354.311,,2,time
screen,html.Screen,1_1_1_1_3,2021-04-28T12:31:37.947Z,,,,,,,,,,,,,,,,54,,,,,,,,,,,,,,370.1089998676907,,response,,,,100,,,,,,,Space,keypress(Space),,,,,,,,-- --- ---- the ------ ----- ------- ---- -- --- ------- --<br>------- ---------- ------ -- ----- -- ----- -- ---- ------<br>--- ----- --- --- ------ -------- ----- --- ------ ----- --<br>----- ----- ---------- --- --- ------ ------ ---- -- ------<br>------- --- ------ ----- --- ---- ------- -- ---- --- --<br>------- ------,222725.11999984272,222724.41999986768,222337.901,222342.65999984927,222354.311,222737.27,,3,the
screen,html.Screen,1_1_1_1_4,2021-04-28T12:31:38.283Z,,,,,,,,,,,,,,,,54,,,,,,,,,,,,,,323.14999999434804,,response,,,,100,,,,,,,Space,keypress(Space),,,,,,,,-- --- ---- --- French ----- ------- ---- -- --- ------- --<br>------- ---------- ------ -- ----- -- ----- -- ---- ------<br>--- ----- --- --- ------ -------- ----- --- ------ ----- --<br>----- ----- ---------- --- --- ------ ------ ---- -- ------<br>------- --- ------ ----- --- ---- ------- -- ---- --- --<br>------- ------,223060.98999991082,223060.41999999434,222720.955,222725.34499992616,222737.27,223070.242,,4,French
screen,html.Screen,1_1_1_1_5,2021-04-28T12:31:38.691Z,,,,,,,,,,,,,,,,54,,,,,,,,,,,,,,398.38299997951253,,response,,,,100,,,,,,,Space,keypress(Space),,,,,,,,-- --- ---- --- ------ crown ------- ---- -- --- ------- --<br>------- ---------- ------ -- ----- -- ----- -- ---- ------<br>--- ----- --- --- ------ -------- ----- --- ------ ----- --<br>----- ----- ---------- --- --- ------ ------ ---- -- ------<br>------- --- ------ ----- --- ---- ------- -- ---- --- --<br>------- ------,223469.18499981984,223468.6249999795,223053.829,223061.15500000305,223070.242,223486.515,,5,crown
screen,html.Screen,1_1_1_1_6,2021-04-28T12:31:39.139Z,,,,,,,,,,,,,,,,54,,,,,,,,,,,,,,430.13999983354006,,response,,,,100,,,,,,,Space,keypress(Space),,,,,,,,-- --- ---- --- ------ ----- secured ---- -- --- ------- --<br>------- ---------- ------ -- ----- -- ----- -- ---- ------<br>--- ----- --- --- ------ -------- ----- --- ------ ----- --<br>----- ----- ---------- --- --- ------ ------ ---- -- ------<br>------- --- ------ ----- --- ---- ------- -- ---- --- --<br>------- ------,223917.36499988474,223916.65499983355,223453.617,223469.31999991648,223486.515,223919.383,,6,secured
screen,html.Screen,1_1_1_1_7,2021-04-28T12:31:39.579Z,,,,,,,,,,,,,,,,54,,,,,,,,,,,,,,437.0570000032021,,response,,,,100,,,,,,,Space,keypress(Space),,,,,,,,-- --- ---- --- ------ ----- ------- much -- --- ------- --<br>------- ---------- ------ -- ----- -- ----- -- ---- ------<br>--- ----- --- --- ------ -------- ----- --- ------ ----- --<br>----- ----- ---------- --- --- ------ ------ ---- -- ------<br>------- --- ------ ----- --- ---- ------- -- ---- --- --<br>------- ------,224357.33999987133,224356.4400000032,223903.111,223917.5549999345,223919.383,224368.953,,7,much
screen,html.Screen,1_1_1_1_8,2021-04-28T12:31:39.946Z,,,,,,,,,,,,,,,,54,,,,,,,,,,,,,,355.4369998720649,,response,,,,100,,,,,,,Space,keypress(Space),,,,,,,,-- --- ---- --- ------ ----- ------- ---- of --- ------- --<br>------- ---------- ------ -- ----- -- ----- -- ---- ------<br>--- ----- --- --- ------ -------- ----- --- ------ ----- --<br>----- ----- ---------- --- --- ------ ------ ---- -- ------<br>------- --- ------ ----- --- ---- ------- -- ---- --- --<br>------- ------,224724.9399998691,224724.38999987207,224352.668,224357.52499988303,224368.953,224735.251,,8,of
screen,html.Screen,1_1_1_1_9,2021-04-28T12:31:40.315Z,,,,,,,,,,,,,,,,54,,,,,,,,,,,,,,357.1890000367421,,response,,,,100,,,,,,,Space,keypress(Space),,,,,,,,-- --- ---- --- ------ ----- ------- ---- -- its ------- --<br>------- ---------- ------ -- ----- -- ----- -- ---- ------<br>--- ----- --- --- ------ -------- ----- --- ------ ----- --<br>----- ----- ---------- --- --- ------ ------ ---- -- ------<br>------- --- ------ ----- --- ---- ------- -- ---- --- --<br>------- ------,225093.2099998463,225092.44000003673,224718.895,224725.07499996573,224735.251,225101.547,,9,its
screen,html.Screen,1_1_1_1_10,2021-04-28T12:31:40.636Z,,,,,,,,,,,,,,,,54,,,,,,,,,,,,,,312.39299988214043,,response,,,,100,,,,,,,Space,keypress(Space),,,,,,,,-- --- ---- --- ------ ----- ------- ---- -- --- revenue --<br>------- ---------- ------ -- ----- -- ----- -- ---- ------<br>--- ----- --- --- ------ -------- ----- --- ------ ----- --<br>----- ----- ---------- --- --- ------ ------ ---- -- ------<br>------- --- ------ ----- --- ---- ------- -- ---- --- --<br>------- ------,225414.55499990843,225413.93999988213,225085.199,225093.49499992095,225101.547,225417.921,,10,revenue
screen,html.Screen,1_1_1_1_11,2021-04-28T12:31:41.236Z,,,,,,,,,,,,,,,,54,,,,,,,,,,,,,,595.1539999079832,,response,,,,100,,,,,,,Space,keypress(Space),,,,,,,,-- --- ---- --- ------ ----- ------- ---- -- --- ------- by<br>------- ---------- ------ -- ----- -- ----- -- ---- ------<br>--- ----- --- --- ------ -------- ----- --- ------ ----- --<br>----- ----- ---------- --- --- ------ ------ ---- -- ------<br>------- --- ------ ----- --- ---- ------- -- ---- --- --<br>------- ------,226013.99999996647,226013.07499990799,225401.544,225414.69000000507,225417.921,226017.3,,11,by
screen,html.Screen,1_1_1_1_12,2021-04-28T12:31:41.811Z,,,,,,,,,,,,,,,,54,,,,,,,,,,,,,,571.2850000195322,,response,,,,100,,,,,,,Space,keypress(Space),,,,,,,,-- --- ---- --- ------ ----- ------- ---- -- --- ------- --<br>issuing ---------- ------ -- ----- -- ----- -- ---- ------<br>--- ----- --- --- ------ -------- ----- --- ------ ----- --<br>----- ----- ---------- --- --- ------ ------ ---- -- ------<br>------- --- ------ ----- --- ---- ------- -- ---- --- --<br>------- ------,226589.31499999017,226588.58500001952,226001.216,226014.14499990642,226017.3,226600.037,,12,issuing
screen,html.Screen,1_1_1_1_13,2021-04-28T12:31:42.227Z,,,,,,,,,,,,,,,,54,,,,,,,,,,,,,,404.63799997465685,,response,,,,100,,,,,,,Space,keypress(Space),,,,,,,,-- --- ---- --- ------ ----- ------- ---- -- --- ------- --<br>------- government ------ -- ----- -- ----- -- ---- ------<br>--- ----- --- --- ------ -------- ----- --- ------ ----- --<br>----- ----- ---------- --- --- ------ ------ ---- -- ------<br>------- --- ------ ----- --- ---- ------- -- ---- --- --<br>------- ------,227005.32500003465,227004.67499997467,226583.891,226589.54999991693,226600.037,227016.357,,13,government
screen,html.Screen,1_1_1_1_14,2021-04-28T12:31:42.587Z,,,,,,,,,,,,,,,,54,,,,,,,,,,,,,,348.6279998764803,,response,,,,100,,,,,,,Space,keypress(Space),,,,,,,,-- --- ---- --- ------ ----- ------- ---- -- --- ------- --<br>------- ---------- bonds. -- ----- -- ----- -- ---- ------<br>--- ----- --- --- ------ -------- ----- --- ------ ----- --<br>----- ----- ---------- --- --- ------ ------ ---- -- ------<br>------- --- ------ ----- --- ---- ------- -- ---- --- --<br>------- ------,227365.9200000111,227364.98499987647,227000.045,227005.4699999746,227016.357,227382.581,,14,bonds.
screen,html.Screen,1_1_1_1_15,2021-04-28T12:31:43.130Z,,,,,,,,,,,,,,,,54,,,,,,,,,,,,,,525.7139999719802,,response,,,,100,,,,,,,Space,keypress(Space),,,,,,,,-- --- ---- --- ------ ----- ------- ---- -- --- ------- --<br>------- ---------- ------ In ----- -- ----- -- ---- ------<br>--- ----- --- --- ------ -------- ----- --- ------ ----- --<br>----- ----- ---------- --- --- ------ ------ ---- -- ------<br>------- --- ------ ----- --- ---- ------- -- ---- --- --<br>------- ------,227908.8299998548,227908.294999972,227366.223,227366.39999994077,227382.581,227915.419,,15,In
screen,html.Screen,1_1_1_1_16,2021-04-28T12:31:44.082Z,,,,,,,,,,,,,,,,54,,,,,,,,,,,,,,944.8609999062028,,response,,,,100,,,,,,,Space,keypress(Space),,,,,,,,"-- --- ---- --- ------ ----- ------- ---- -- --- ------- --<br>------- ---------- ------ -- 1727, -- ----- -- ---- ------<br>--- ----- --- --- ------ -------- ----- --- ------ ----- --<br>----- ----- ---------- --- --- ------ ------ ---- -- ------<br>------- --- ------ ----- --- ---- ------- -- ---- --- --<br>------- ------",228860.84500001743,228860.2799999062,227899.216,227908.95999991335,227915.419,228864.513,,16,"1727,"
screen,html.Screen,1_1_1_1_17,2021-04-28T12:31:44.850Z,,,,,,,,,,,,,,,,54,,,,,,,,,,,,,,763.7769999059674,,response,,,,100,,,,,,,Space,keypress(Space),,,,,,,,-- --- ---- --- ------ ----- ------- ---- -- --- ------- --<br>------- ---------- ------ -- ----- in ----- -- ---- ------<br>--- ----- --- --- ------ -------- ----- --- ------ ----- --<br>----- ----- ---------- --- --- ------ ------ ---- -- ------<br>------- --- ------ ----- --- ---- ------- -- ---- --- --<br>------- ------,229628.81999998353,229628.28999990597,228848.705,228860.97499984317,228864.513,229630.375,,17,in
screen,html.Screen,1_1_1_1_18,2021-04-28T12:31:45.323Z,,,,,,,,,,,,,,,,54,,,,,,,,,,,,,,470.3949999026954,,response,,,,100,,,,,,,Space,keypress(Space),,,,,,,,-- --- ---- --- ------ ----- ------- ---- -- --- ------- --<br>------- ---------- ------ -- ----- -- order -- ---- ------<br>--- ----- --- --- ------ -------- ----- --- ------ ----- --<br>----- ----- ---------- --- --- ------ ------ ---- -- ------<br>------- --- ------ ----- --- ---- ------- -- ---- --- --<br>------- ------,230101.85500001535,230100.7699999027,229614.454,229628.94999980927,229630.375,230113.213,,18,order
screen,html.Screen,1_1_1_1_19,2021-04-28T12:31:45.747Z,,,,,,,,,,,,,,,,54,,,,,,,,,,,,,,411.63699992885813,,response,,,,100,,,,,,,Space,keypress(Space),,,,,,,,-- --- ---- --- ------ ----- ------- ---- -- --- ------- --<br>------- ---------- ------ -- ----- -- ----- to ---- ------<br>--- ----- --- --- ------ -------- ----- --- ------ ----- --<br>----- ----- ---------- --- --- ------ ------ ---- -- ------<br>------- --- ------ ----- --- ---- ------- -- ---- --- --<br>------- ------,230525.76999994926,230524.84999992885,230096.975,230102.1549999714,230113.213,230529.51,,19,to
screen,html.Screen,1_1_1_1_20,2021-04-28T12:31:46.211Z,,,,,,,,,,,,,,,,54,,,,,,,,,,,,,,459.04999996884726,,response,,,,100,,,,,,,Space,keypress(Space),,,,,,,,-- --- ---- --- ------ ----- ------- ---- -- --- ------- --<br>------- ---------- ------ -- ----- -- ----- -- save ------<br>--- ----- --- --- ------ -------- ----- --- ------ ----- --<br>----- ----- ---------- --- --- ------ ------ ---- -- ------<br>------- --- ------ ----- --- ---- ------- -- ---- --- --<br>------- ------,230989.3199999351,230988.55999996886,230513.213,230526.03499987163,230529.51,230995.662,,20,save
screen,html.Screen,1_1_1_1_21,2021-04-28T12:31:46.619Z,,,,,,,,,,,,,,,,54,,,,,,,,,,,,,,400.773000002373,,response,,,,100,,,,,,,Space,keypress(Space),,,,,,,,"-- --- ---- --- ------ ----- ------- ---- -- --- ------- --<br>------- ---------- ------ -- ----- -- ----- -- ---- money,<br>--- ----- --- --- ------ -------- ----- --- ------ ----- --<br>----- ----- ---------- --- --- ------ ------ ---- -- ------<br>------- --- ------ ----- --- ---- ------- -- ---- --- --<br>------- ------",231397.2000000067,231396.43500000238,230979.489,230989.58499985747,230995.662,231411.911,,21,"money,"
screen,html.Screen,1_1_1_1_22,2021-04-28T12:31:47.037Z,,,,,,,,,,,,,,,,54,,,,,,,,,,,,,,402.4639998416824,,response,,,,100,,,,,,,Space,keypress(Space),,,,,,,,-- --- ---- --- ------ ----- ------- ---- -- --- ------- --<br>------- ---------- ------ -- ----- -- ----- -- ---- ------<br>the ----- --- --- ------ -------- ----- --- ------ ----- --<br>----- ----- ---------- --- --- ------ ------ ---- -- ------<br>------- --- ------ ----- --- ---- ------- -- ---- --- --<br>------- ------,231815.63499988988,231814.37499984168,231395.626,231397.3349998705,231411.911,231828.216,,22,the
screen,html.Screen,1_1_1_1_23,2021-04-28T12:31:47.435Z,,,,,,,,,,,,,,,,54,,,,,,,,,,,,,,384.7339998409443,,response,,,,100,,,,,,,Space,keypress(Space),,,,,,,,-- --- ---- --- ------ ----- ------- ---- -- --- ------- --<br>------- ---------- ------ -- ----- -- ----- -- ---- ------<br>--- state --- --- ------ -------- ----- --- ------ ----- --<br>----- ----- ---------- --- --- ------ ------ ---- -- ------<br>------- --- ------ ----- --- ---- ------- -- ---- --- --<br>------- ------,232213.75999995507,232212.94999984093,231811.995,231815.85499993525,231828.216,232227.831,,23,state
screen,html.Screen,1_1_1_1_24,2021-04-28T12:31:47.771Z,,,,,,,,,,,,,,,,54,,,,,,,,,,,,,,320.5839998519514,,response,,,,100,,,,,,,Space,keypress(Space),,,,,,,,-- --- ---- --- ------ ----- ------- ---- -- --- ------- --<br>------- ---------- ------ -- ----- -- ----- -- ---- ------<br>--- ----- cut --- ------ -------- ----- --- ------ ----- --<br>----- ----- ---------- --- --- ------ ------ ---- -- ------<br>------- --- ------ ----- --- ---- ------- -- ---- --- --<br>------- ------,232549.2999998387,232548.41499985196,232211.455,232213.89999985695,232227.831,232560.821,,24,cut
screen,html.Screen,1_1_1_1_25,2021-04-28T12:31:48.138Z,,,,,,,,,,,,,,,,54,,,,,,,,,,,,,,355.5489999917336,,response,,,,100,,,,,,,Space,keypress(Space),,,,,,,,-- --- ---- --- ------ ----- ------- ---- -- --- ------- --<br>------- ---------- ------ -- ----- -- ----- -- ---- ------<br>--- ----- --- the ------ -------- ----- --- ------ ----- --<br>----- ----- ---------- --- --- ------ ------ ---- -- ------<br>------- --- ------ ----- --- ---- ------- -- ---- --- --<br>------- ------,232916.91499995068,232916.36999999173,232544.423,232549.44999981672,232560.821,232927.114,,25,the
screen,html.Screen,1_1_1_1_26,2021-04-28T12:31:48.484Z,,,,,,,,,,,,,,,,54,,,,,,,,,,,,,,334.30599987885216,,response,,,,100,,,,,,,Space,keypress(Space),,,,,,,,-- --- ---- --- ------ ----- ------- ---- -- --- ------- --<br>------- ---------- ------ -- ----- -- ----- -- ---- ------<br>--- ----- --- --- bonds' -------- ----- --- ------ ----- --<br>----- ----- ---------- --- --- ------ ------ ---- -- ------<br>------- --- ------ ----- --- ---- ------- -- ---- --- --<br>------- ------,233262.49499991536,233261.41999987885,232910.775,232917.04999981448,232927.114,233276.826,,26,bonds'
screen,html.Screen,1_1_1_1_27,2021-04-28T12:31:48.947Z,,,,,,,,,,,,,,,,54,,,,,,,,,,,,,,448.063999954029,,response,,,,100,,,,,,,Space,keypress(Space),,,,,,,,-- --- ---- --- ------ ----- ------- ---- -- --- ------- --<br>------- ---------- ------ -- ----- -- ----- -- ---- ------<br>--- ----- --- --- ------ interest ----- --- ------ ----- --<br>----- ----- ---------- --- --- ------ ------ ---- -- ------<br>------- --- ------ ----- --- ---- ------- -- ---- --- --<br>------- ------,233725.7999998983,233724.88999995403,233260.416,233262.8150000237,233276.826,233759.59,,27,interest
screen,html.Screen,1_1_1_1_28,2021-04-28T12:31:49.387Z,,,,,,,,,,,,,,,,54,,,,,,,,,,,,,,404.7249999436026,,response,,,,100,,,,,,,Space,keypress(Space),,,,,,,,-- --- ---- --- ------ ----- ------- ---- -- --- ------- --<br>------- ---------- ------ -- ----- -- ----- -- ---- ------<br>--- ----- --- --- ------ -------- rate. --- ------ ----- --<br>----- ----- ---------- --- --- ------ ------ ---- -- ------<br>------- --- ------ ----- --- ---- ------- -- ---- --- --<br>------- ------,234165.1249998249,234164.3149999436,233742.985,233726.04999993928,233759.59,234175.855,,28,rate.
screen,html.Screen,1_1_1_1_29,2021-04-28T12:31:49.787Z,,,,,,,,,,,,,,,,54,,,,,,,,,,,,,,388.67499985775794,,response,,,,100,,,,,,,Space,keypress(Space),,,,,,,,-- --- ---- --- ------ ----- ------- ---- -- --- ------- --<br>------- ---------- ------ -- ----- -- ----- -- ---- ------<br>--- ----- --- --- ------ -------- ----- The ------ ----- --<br>----- ----- ---------- --- --- ------ ------ ---- -- ------<br>------- --- ------ ----- --- ---- ------- -- ---- --- --<br>------- ------,234565.10499981232,234564.52999985777,234159.585,234165.27500003576,234175.855,234575.492,,29,The
screen,html.Screen,1_1_1_1_30,2021-04-28T12:31:50.267Z,,,,,,,,,,,,,,,,54,,,,,,,,,,,,,,468.9129998186545,,response,,,,100,,,,,,,Space,keypress(Space),,,,,,,,-- --- ---- --- ------ ----- ------- ---- -- --- ------- --<br>------- ---------- ------ -- ----- -- ----- -- ---- ------<br>--- ----- --- --- ------ -------- ----- --- market ----- --<br>----- ----- ---------- --- --- ------ ------ ---- -- ------<br>------- --- ------ ----- --- ---- ------- -- ---- --- --<br>------- ------,235045.60999991372,235044.40499981865,234559.12,234565.23499987088,234575.492,235058.39,,30,market
screen,html.Screen,1_1_1_1_31,2021-04-28T12:31:50.659Z,,,,,,,,,,,,,,,,54,,,,,,,,,,,,,,378.18999997957144,,response,,,,100,,,,,,,Space,keypress(Space),,,,,,,,-- --- ---- --- ------ ----- ------- ---- -- --- ------- --<br>------- ---------- ------ -- ----- -- ----- -- ---- ------<br>--- ----- --- --- ------ -------- ----- --- ------ value --<br>----- ----- ---------- --- --- ------ ------ ---- -- ------<br>------- --- ------ ----- --- ---- ------- -- ---- --- --<br>------- ------,235437.2349998448,235436.57999997959,235042.109,235045.88499991223,235058.39,235441.286,,31,value
screen,html.Screen,1_1_1_1_32,2021-04-28T12:31:51.051Z,,,,,,,,,,,,,,,,54,,,,,,,,,,,,,,386.9940000161005,,response,,,,100,,,,,,,Space,keypress(Space),,,,,,,,-- --- ---- --- ------ ----- ------- ---- -- --- ------- --<br>------- ---------- ------ -- ----- -- ----- -- ---- ------<br>--- ----- --- --- ------ -------- ----- --- ------ ----- of<br>----- ----- ---------- --- --- ------ ------ ---- -- ------<br>------- --- ------ ----- --- ---- ------- -- ---- --- --<br>------- ------,235829.04999982566,235828.2800000161,235424.967,235437.36499990337,235441.286,235840.851,,32,of
screen,html.Screen,1_1_1_1_33,2021-04-28T12:31:51.443Z,,,,,,,,,,,,,,,,54,,,,,,,,,,,,,,379.6939999310125,,response,,,,100,,,,,,,Space,keypress(Space),,,,,,,,-- --- ---- --- ------ ----- ------- ---- -- --- ------- --<br>------- ---------- ------ -- ----- -- ----- -- ---- ------<br>--- ----- --- --- ------ -------- ----- --- ------ ----- --<br>these ----- ---------- --- --- ------ ------ ---- -- ------<br>------- --- ------ ----- --- ---- ------- -- ---- --- --<br>------- ------,236221.10500000417,236220.544999931,235824.597,235829.26999987103,235840.851,236223.853,,33,these
screen,html.Screen,1_1_1_1_34,2021-04-28T12:31:51.787Z,,,,,,,,,,,,,,,,54,,,,,,,,,,,,,,340.7419998870464,,response,,,,100,,,,,,,Space,keypress(Space),,,,,,,,-- --- ---- --- ------ ----- ------- ---- -- --- ------- --<br>------- ---------- ------ -- ----- -- ----- -- ---- ------<br>--- ----- --- --- ------ -------- ----- --- ------ ----- --<br>----- bonds ---------- --- --- ------ ------ ---- -- ------<br>------- --- ------ ----- --- ---- ------- -- ---- --- --<br>------- ------,236565.37999981083,236564.59499988705,236207.54,236221.2349998299,236223.853,236573.487,,34,bonds
screen,html.Screen,1_1_1_1_35,2021-04-28T12:31:52.179Z,,,,,,,,,,,,,,,,54,,,,,,,,,,,,,,383.22299982394907,,response,,,,100,,,,,,,Space,keypress(Space),,,,,,,,"-- --- ---- --- ------ ----- ------- ---- -- --- ------- --<br>------- ---------- ------ -- ----- -- ----- -- ---- ------<br>--- ----- --- --- ------ -------- ----- --- ------ ----- --<br>----- ----- plummeted, --- --- ------ ------ ---- -- ------<br>------- --- ------ ----- --- ---- ------- -- ---- --- --<br>------- ------",236957.92499999516,236956.70999982394,236557.155,236566.6749998927,236573.487,236973.09,,35,"plummeted,"
screen,html.Screen,1_1_1_1_36,2021-04-28T12:31:52.643Z,,,,,,,,,,,,,,,,54,,,,,,,,,,,,,,447.3299998639559,,response,,,,100,,,,,,,Space,keypress(Space),,,,,,,,-- --- ---- --- ------ ----- ------- ---- -- --- ------- --<br>------- ---------- ------ -- ----- -- ----- -- ---- ------<br>--- ----- --- --- ------ -------- ----- --- ------ ----- --<br>----- ----- ---------- and --- ------ ------ ---- -- ------<br>------- --- ------ ----- --- ---- ------- -- ---- --- --<br>------- ------,237421.08500003815,237420.41999986395,236956.81,236958.11999985017,236973.09,237422.709,,36,and
screen,html.Screen,1_1_1_1_37,2021-04-28T12:31:53.051Z,,,,,,,,,,,,,,,,54,,,,,,,,,,,,,,405.71099991796655,,response,,,,100,,,,,,,Space,keypress(Space),,,,,,,,-- --- ---- --- ------ ----- ------- ---- -- --- ------- --<br>------- ---------- ------ -- ----- -- ----- -- ---- ------<br>--- ----- --- --- ------ -------- ----- --- ------ ----- --<br>----- ----- ---------- --- the ------ ------ ---- -- ------<br>------- --- ------ ----- --- ---- ------- -- ---- --- --<br>------- ------,237828.98999983445,237828.41999991797,237406.392,237421.2099998258,237422.709,237838.922,,37,the
screen,html.Screen,1_1_1_1_38,2021-04-28T12:31:53.475Z,,,,,,,,,,,,,,,,54,,,,,,,,,,,,,,413.4629999997851,,response,,,,100,,,,,,,Space,keypress(Space),,,,,,,,-- --- ---- --- ------ ----- ------- ---- -- --- ------- --<br>------- ---------- ------ -- ----- -- ----- -- ---- ------<br>--- ----- --- --- ------ -------- ----- --- ------ ----- --<br>----- ----- ---------- --- --- market ------ ---- -- ------<br>------- --- ------ ----- --- ---- ------- -- ---- --- --<br>------- ------,238253.10999993235,238252.38499999978,237822.633,237829.11499985494,237838.922,238255.152,,38,market
screen,html.Screen,1_1_1_1_39,2021-04-28T12:31:53.899Z,,,,,,,,,,,,,,,,54,,,,,,,,,,,,,,421.1079998619389,,response,,,,100,,,,,,,Space,keypress(Space),,,,,,,,-- --- ---- --- ------ ----- ------- ---- -- --- ------- --<br>------- ---------- ------ -- ----- -- ----- -- ---- ------<br>--- ----- --- --- ------ -------- ----- --- ------ ----- --<br>----- ----- ---------- --- --- ------ became ---- -- ------<br>------- --- ------ ----- --- ---- ------- -- ---- --- --<br>------- ------,238677.0199998282,238676.25999986194,238238.811,238253.24999983422,238255.152,238688.04,,39,became
screen,html.Screen,1_1_1_1_40,2021-04-28T12:31:54.266Z,,,,,,,,,,,,,,,,54,,,,,,,,,,,,,,356.24999987430056,,response,,,,100,,,,,,,Space,keypress(Space),,,,,,,,-- --- ---- --- ------ ----- ------- ---- -- --- ------- --<br>------- ---------- ------ -- ----- -- ----- -- ---- ------<br>--- ----- --- --- ------ -------- ----- --- ------ ----- --<br>----- ----- ---------- --- --- ------ ------ wary -- ------<br>------- --- ------ ----- --- ---- ------- -- ---- --- --<br>------- ------,239044.83499983326,239044.2899998743,238671.756,238677.20999987796,238688.04,239054.371,,40,wary
screen,html.Screen,1_1_1_1_41,2021-04-28T12:31:54.675Z,,,,,,,,,,,,,,,,54,,,,,,,,,,,,,,397.96899984337506,,response,,,,100,,,,,,,Space,keypress(Space),,,,,,,,-- --- ---- --- ------ ----- ------- ---- -- --- ------- --<br>------- ---------- ------ -- ----- -- ----- -- ---- ------<br>--- ----- --- --- ------ -------- ----- --- ------ ----- --<br>----- ----- ---------- --- --- ------ ------ ---- of ------<br>------- --- ------ ----- --- ---- ------- -- ---- --- --<br>------- ------,239453.23499990627,239452.3399998434,239037.978,239044.95499981567,239054.371,239487.262,,41,of
screen,html.Screen,1_1_1_1_42,2021-04-28T12:31:55.091Z,,,,,,,,,,,,,,,,54,,,,,,,,,,,,,,381.1729998366209,,response,,,,100,,,,,,,Space,keypress(Space),,,,,,,,-- --- ---- --- ------ ----- ------- ---- -- --- ------- --<br>------- ---------- ------ -- ----- -- ----- -- ---- ------<br>--- ----- --- --- ------ -------- ----- --- ------ ----- --<br>----- ----- ---------- --- --- ------ ------ ---- -- French<br>------- --- ------ ----- --- ---- ------- -- ---- --- --<br>------- ------,239868.9899998717,239868.4349998366,239470.599,239453.49999982864,239487.262,239888.164,,42,French
screen,html.Screen,1_1_1_1_43,2021-04-28T12:31:55.490Z,,,,,,,,,,,,,,,,54,,,,,,,,,,,,,,380.0960000407649,,response,,,,100,,,,,,,Space,keypress(Space),,,,,,,,-- --- ---- --- ------ ----- ------- ---- -- --- ------- --<br>------- ---------- ------ -- ----- -- ----- -- ---- ------<br>--- ----- --- --- ------ -------- ----- --- ------ ----- --<br>----- ----- ---------- --- --- ------ ------ ---- -- ------<br>credit. --- ------ ----- --- ---- ------- -- ---- --- --<br>------- ------,240268.87000002898,240268.26000004075,239853.854,239869.11999993026,239888.164,240296.733,,43,credit.
screen,html.Screen,1_1_1_1_44,2021-04-28T12:31:55.972Z,,,,,,,,,,,,,,,,54,,,,,,,,,,,,,,452.4069999707863,,response,,,,100,,,,,,,Space,keypress(Space),,,,,,,,-- --- ---- --- ------ ----- ------- ---- -- --- ------- --<br>------- ---------- ------ -- ----- -- ----- -- ---- ------<br>--- ----- --- --- ------ -------- ----- --- ------ ----- --<br>----- ----- ---------- --- --- ------ ------ ---- -- ------<br>------- The ------ ----- --- ---- ------- -- ---- --- --<br>------- ------,240750.1550000161,240749.1399999708,240253.461,240269.01499996893,240296.733,240752.659,,44,The
screen,html.Screen,1_1_1_1_45,2021-04-28T12:31:56.434Z,,,,,,,,,,,,,,,,54,,,,,,,,,,,,,,459.64100001376937,,response,,,,100,,,,,,,Space,keypress(Space),,,,,,,,-- --- ---- --- ------ ----- ------- ---- -- --- ------- --<br>------- ---------- ------ -- ----- -- ----- -- ---- ------<br>--- ----- --- --- ------ -------- ----- --- ------ ----- --<br>----- ----- ---------- --- --- ------ ------ ---- -- ------<br>------- --- French ----- --- ---- ------- -- ---- --- --<br>------- ------,241212.8649998922,241212.30000001378,240736.429,240750.40499982424,240752.659,241218.837,,45,French
screen,html.Screen,1_1_1_1_46,2021-04-28T12:31:56.882Z,,,,,,,,,,,,,,,,54,,,,,,,,,,,,,,441.42300003330456,,response,,,,100,,,,,,,Space,keypress(Space),,,,,,,,-- --- ---- --- ------ ----- ------- ---- -- --- ------- --<br>------- ---------- ------ -- ----- -- ----- -- ---- ------<br>--- ----- --- --- ------ -------- ----- --- ------ ----- --<br>----- ----- ---------- --- --- ------ ------ ---- -- ------<br>------- --- ------ state --- ---- ------- -- ---- --- --<br>------- ------,241660.80499999225,241660.2600000333,241202.607,241212.98999991268,241218.837,241668.392,,46,state
screen,html.Screen,1_1_1_1_47,2021-04-28T12:31:57.332Z,,,,,,,,,,,,,,,,54,,,,,,,,,,,,,,441.5179998828098,,response,,,,100,,,,,,,Space,keypress(Space),,,,,,,,-- --- ---- --- ------ ----- ------- ---- -- --- ------- --<br>------- ---------- ------ -- ----- -- ----- -- ---- ------<br>--- ----- --- --- ------ -------- ----- --- ------ ----- --<br>----- ----- ---------- --- --- ------ ------ ---- -- ------<br>------- --- ------ ----- was ---- ------- -- ---- --- --<br>------- ------,242110.46999995597,242109.9099998828,241652.131,241660.93499981798,241668.392,242117.912,,47,was
screen,html.Screen,1_1_1_1_48,2021-04-28T12:31:57.762Z,,,,,,,,,,,,,,,,54,,,,,,,,,,,,,,422.3529999596067,,response,,,,100,,,,,,,Space,keypress(Space),,,,,,,,-- --- ---- --- ------ ----- ------- ---- -- --- ------- --<br>------- ---------- ------ -- ----- -- ----- -- ---- ------<br>--- ----- --- --- ------ -------- ----- --- ------ ----- --<br>----- ----- ---------- --- --- ------ ------ ---- -- ------<br>------- --- ------ ----- --- left ------- -- ---- --- --<br>------- ------,242540.7899999991,242540.26499995962,242101.735,242110.58999993838,242117.912,242550.909,,48,left
screen,html.Screen,1_1_1_1_49,2021-04-28T12:31:58.163Z,,,,,,,,,,,,,,,,54,,,,,,,,,,,,,,389.4409998152114,,response,,,,100,,,,,,,Space,keypress(Space),,,,,,,,-- --- ---- --- ------ ----- ------- ---- -- --- ------- --<br>------- ---------- ------ -- ----- -- ----- -- ---- ------<br>--- ----- --- --- ------ -------- ----- --- ------ ----- --<br>----- ----- ---------- --- --- ------ ------ ---- -- ------<br>------- --- ------ ----- --- ---- without -- ---- --- --<br>------- ------,242940.91499992646,242940.34999981523,242534.59,242540.91999982484,242550.909,242950.528,,49,without
screen,html.Screen,1_1_1_1_50,2021-04-28T12:31:58.563Z,,,,,,,,,,,,,,,,54,,,,,,,,,,,,,,389.6669999388396,,response,,,,100,,,,,,,Space,keypress(Space),,,,,,,,-- --- ---- --- ------ ----- ------- ---- -- --- ------- --<br>------- ---------- ------ -- ----- -- ----- -- ---- ------<br>--- ----- --- --- ------ -------- ----- --- ------ ----- --<br>----- ----- ---------- --- --- ------ ------ ---- -- ------<br>------- --- ------ ----- --- ---- ------- an ---- --- --<br>------- ------,243340.72999982163,243340.19499993883,242934.196,242941.07499998063,242950.528,243350.065,,50,an
screen,html.Screen,1_1_1_1_51,2021-04-28T12:31:59.011Z,,,,,,,,,,,,,,,,54,,,,,,,,,,,,,,438.52999981626635,,response,,,,100,,,,,,,Space,keypress(Space),,,,,,,,-- --- ---- --- ------ ----- ------- ---- -- --- ------- --<br>------- ---------- ------ -- ----- -- ----- -- ---- ------<br>--- ----- --- --- ------ -------- ----- --- ------ ----- --<br>----- ----- ---------- --- --- ------ ------ ---- -- ------<br>------- --- ------ ----- --- ---- ------- -- easy --- --<br>------- ------,243789.12499989383,243788.59499981627,243333.801,243340.8599998802,243350.065,243799.63,,51,easy
screen,html.Screen,1_1_1_1_52,2021-04-28T12:31:59.467Z,,,,,,,,,,,,,,,,54,,,,,,,,,,,,,,444.7049999375595,,response,,,,100,,,,,,,Space,keypress(Space),,,,,,,,-- --- ---- --- ------ ----- ------- ---- -- --- ------- --<br>------- ---------- ------ -- ----- -- ----- -- ---- ------<br>--- ----- --- --- ------ -------- ----- --- ------ ----- --<br>----- ----- ---------- --- --- ------ ------ ---- -- ------<br>------- --- ------ ----- --- ---- ------- -- ---- way --<br>------- ------,244244.85499993898,244244.33499993756,243783.378,243789.24999991432,243799.63,244249.171,,52,way
screen,html.Screen,1_1_1_1_53,2021-04-28T12:31:59.860Z,,,,,,,,,,,,,,,,54,,,,,,,,,,,,,,387.2239999213198,,response,,,,100,,,,,,,Space,keypress(Space),,,,,,,,-- --- ---- --- ------ ----- ------- ---- -- --- ------- --<br>------- ---------- ------ -- ----- -- ----- -- ---- ------<br>--- ----- --- --- ------ -------- ----- --- ------ ----- --<br>----- ----- ---------- --- --- ------ ------ ---- -- ------<br>------- --- ------ ----- --- ---- ------- -- ---- --- of<br>------- ------,244637.34499993734,244636.39499992132,244232.89,244244.98499999754,244249.171,244648.824,,53,of
screen,html.Screen,1_1_1_1_54,2021-04-28T12:32:00.460Z,,,,,,,,,,,,,,,,54,,,,,,,,,,,,,,588.3960000099905,,response,,,,100,,,,,,,Space,keypress(Space),,,,,,,,-- --- ---- --- ------ ----- ------- ---- -- --- ------- --<br>------- ---------- ------ -- ----- -- ----- -- ---- ------<br>--- ----- --- --- ------ -------- ----- --- ------ ----- --<br>----- ----- ---------- --- --- ------ ------ ---- -- ------<br>------- --- ------ ----- --- ---- ------- -- ---- --- --<br>raising ------,245238.1400000304,245237.22000000998,244632.517,244637.54499983042,244648.824,245248.166,,54,raising
screen,html.Screen,1_1_1_1_55,2021-04-28T12:32:00.843Z,,,,,,,,,,,,,,,,54,,,,,,,,,,,,,,372.1290000297304,,response,,,,100,,,,,,,Space,keypress(Space),,,,,,,,-- --- ---- --- ------ ----- ------- ---- -- --- ------- --<br>------- ---------- ------ -- ----- -- ----- -- ---- ------<br>--- ----- --- --- ------ -------- ----- --- ------ ----- --<br>----- ----- ---------- --- --- ------ ------ ---- -- ------<br>------- --- ------ ----- --- ---- ------- -- ---- --- --<br>------- money.,245620.80999999307,245620.29500002973,245232.066,245238.37999999523,245248.166,245631.158,,55,money.
Item 100,flow.Loop,1_1_1_1,2021-04-28T12:32:00.843Z,,,,,,,,,,,,,,,,,,,,,,,,,,,,,,24931.079000029742,,completion,,,,,F,,,,,,,,,,,silence,,,,,245621.02500000037,245620.29500002973,220672.602,220673.59999986365,220689.216,245631.158,,,
Question 1,html.Screen,1_1_1_2,2021-04-28T12:32:03.501Z,,,,,,,,,,,,,,,,,,,,,,,,,,,true,TRUE,,2646.1969999110443,,response,,,,100,F,,,,,,TRUE,click #choice-1,,,,silence,,,,,248278.4100000281,248277.35499991104,245614.811,245621.1249998305,245631.158,248296.332,,,
Question 2,html.Screen,1_1_1_3,2021-04-28T12:32:08.165Z,,,,,,,,,,,,,,,,,,,,,,,,,,,true,FALSE,,4644.977999907394,,response,,,,100,F,,,,,,FALSE,click #choice-2,,,,silence,,,,,252942.56499991752,252941.3099999074,248261.906,248278.61499995925,248296.332,252957.225,,,
Item 100,flow.Sequence,1_1_1,2021-04-28T12:32:08.165Z,,,,,,,,,,,,,,,,,,,,,,,,,,,,,,42258.79099990739,,completion,,,,,,,,,,,,,,,,,,,,,252942.8599998355,252941.3099999074,210665.935,210670.84999987856,210682.519,252957.225,,,
End of Practice,html.Page,1_1_2,2021-04-28T12:32:09.661Z,,,,,,,,,,,,,,,,,,,,,,,,,,,,,,1480.9749999750347,,form submission,,,,,,,,,,,,,,,,,,,,,254438.76999989152,254438.19999997504,252940.555,252943.0099998135,252957.225,254455.652,,,
Practice,flow.Sequence,1_1,2021-04-28T12:32:09.662Z,,,,,,,,,,,,,,,,,,,,,,,,,,,,,,95537.51699997505,,completion,,,,,,,,,,,,,,,,,,,,,254439.37000003643,254438.19999997504,158884.1,158897.82499987632,158900.683,254455.652,,,
Trap_instruction,html.Page,1_2_0,2021-04-28T12:32:15.829Z,,,,,,,,,,,,,,,,,,,,,,,,,,,,,,6150.377999908058,,form submission,,,,,,,,,,,,,,,,,,,,,260606.380000012,260606.02999990806,254439.05,254439.61999984458,254455.652,260632.906,,,
trap_trial,html.Screen,1_2_1,2021-04-28T12:32:19.308Z,,,,,,,,,,,,,,,,,,,,,,,,,,,true,1,,3452.083999886614,,response,,,,,,,,,,,1,click #choice-1,,,,,,,,,264085.8499999158,264084.9899998866,260599.704,260606.50500003248,260632.906,264096.079,,,
end of trap trial,html.Page,1_2_2,2021-04-28T12:32:21.013Z,,,,,,,,,,,,,,,,,,,,,,,,,,,,,,1693.9359999186127,,form submission,,,,,,,,,,,,,,,,,,,,,265790.4349998571,265790.01499991864,264079.495,264085.99999989383,264096.079,265794.447,,,
Trap 1,flow.Sequence,1_2,2021-04-28T12:32:21.013Z,,,,,,,,,,,,,,,,,,,,,,,,,,,,,,11334.362999918638,,completion,,,,,,,,,,,,,,,,,,,,,265790.6400000211,265790.01499991864,254439.05,254439.55000001006,254455.652,265794.447,,,
Standby,html.Page,1_3_0,2021-04-28T12:32:28.993Z,,,,,,,,,,,,,,,,,,,,,,,,,,,,,,7992.054999999993,,timeout,,,,,,,,,,,,,,,,,,,,,273770.77499986626,273769.839,265777.775,265790.7950000372,265794.447,273786.502,,,
Holding screen,html.Screen,1_3_1_0_0,2021-04-28T12:32:35.986Z,,,,,,,,,,,,,,,,,,,,,,,,,,,,,,6993.020000000019,,timeout,,,,,,,,,,,,,,,,,,,,,280763.6400000192,280762.852,273769.839,273771.0749998223,273786.502,280779.522,,,
screen,html.Screen,1_3_1_0_1_0,2021-04-28T12:32:36.892Z,,,,,,,,,,,,,,,,11,,,,,,,,,,,,,,889.5979999768315,,response,,,,4,F,,,,,,Space,keypress(Space),,,,instrumental,,,,Known -- ---- --- -- --- -------- ------------ ---------- --<br>- ------- ------ --------- -- ------------ -- --- ---- -----<br>------ ---- ---- ------ ------ ------- --- ----- ---------<br>---- --- -------- -------- --- --- -- ------- --- --- -----<br>-- --- ------ ------- --- --- -------- ---- --------- --<br>---------- -- -------- ----------------,281670.04999984056,281669.1199999768,280762.852,280763.8850000221,280779.522,281678.717,,0,Known
screen,html.Screen,1_3_1_0_1_1,2021-04-28T12:32:37.323Z,,,,,,,,,,,,,,,,11,,,,,,,,,,,,,,421.5979999305564,,response,,,,4,F,,,,,,Space,keypress(Space),,,,instrumental,,,,----- as ---- --- -- --- -------- ------------ ---------- --<br>- ------- ------ --------- -- ------------ -- --- ---- -----<br>------ ---- ---- ------ ------ ------- --- ----- ---------<br>---- --- -------- -------- --- --- -- ------- --- --- -----<br>-- --- ------ ------- --- --- -------- ---- --------- --<br>---------- -- -------- ----------------,282100.89999996126,282100.31499993056,281662.83,281670.19500001334,281678.717,282111.556,,1,as
screen,html.Screen,1_3_1_0_1_2,2021-04-28T12:32:37.787Z,,,,,,,,,,,,,,,,11,,,,,,,,,,,,,,452.9989998153178,,response,,,,4,F,,,,,,Space,keypress(Space),,,,instrumental,,,,----- -- Rapa --- -- --- -------- ------------ ---------- --<br>- ------- ------ --------- -- ------------ -- --- ---- -----<br>------ ---- ---- ------ ------ ------- --- ----- ---------<br>---- --- -------- -------- --- --- -- ------- --- --- -----<br>-- --- ------ ------- --- --- -------- ---- --------- --<br>---------- -- -------- ----------------,282565.2499999851,282564.5549998153,282095.259,282101.03499982506,282111.556,282577.76,,2,Rapa
screen,html.Screen,1_3_1_0_1_3,2021-04-28T12:32:38.251Z,,,,,,,,,,,,,,,,11,,,,,,,,,,,,,,450.80999984941445,,response,,,,4,F,,,,,,Space,keypress(Space),,,,instrumental,,,,----- -- ---- Nui -- --- -------- ------------ ---------- --<br>- ------- ------ --------- -- ------------ -- --- ---- -----<br>------ ---- ---- ------ ------ ------- --- ----- ---------<br>---- --- -------- -------- --- --- -- ------- --- --- -----<br>-- --- ------ ------- --- --- -------- ---- --------- --<br>---------- -- -------- ----------------,283029.2950000148,283028.5699998494,282561.481,282565.4499998782,282577.76,283043.932,,3,Nui
screen,html.Screen,1_3_1_0_1_4,2021-04-28T12:32:38.851Z,,,,,,,,,,,,,,,,11,,,,,,,,,,,,,,584.5329998415546,,response,,,,4,F,,,,,,Space,keypress(Space),,,,instrumental,,,,----- -- ---- --- to --- -------- ------------ ---------- --<br>- ------- ------ --------- -- ------------ -- --- ---- -----<br>------ ---- ---- ------ ------ ------- --- ----- ---------<br>---- --- -------- -------- --- --- -- ------- --- --- -----<br>-- --- ------ ------- --- --- -------- ---- --------- --<br>---------- -- -------- ----------------,283629.1600000113,283628.4649998415,283027.762,283029.4649999123,283043.932,283643.338,,4,to
screen,html.Screen,1_3_1_0_1_5,2021-04-28T12:32:39.243Z,,,,,,,,,,,,,,,,11,,,,,,,,,,,,,,376.95699993660673,,response,,,,4,F,,,,,,Space,keypress(Space),,,,instrumental,,,,----- -- ---- --- -- the -------- ------------ ---------- --<br>- ------- ------ --------- -- ------------ -- --- ---- -----<br>------ ---- ---- ------ ------ ------- --- ----- ---------<br>---- --- -------- -------- --- --- -- ------- --- --- -----<br>-- --- ------ ------- --- --- -------- ---- --------- --<br>---------- -- -------- ----------------,284020.83999989554,284020.2949999366,283627.218,283629.3599999044,283643.338,284026.276,,5,the
screen,html.Screen,1_3_1_0_1_6,2021-04-28T12:32:39.755Z,,,,,,,,,,,,,,,,11,,,,,,,,,,,,,,505.95400001161033,,response,,,,4,F,,,,,,Space,keypress(Space),,,,instrumental,,,,----- -- ---- --- -- --- island's ------------ ---------- --<br>- ------- ------ --------- -- ------------ -- --- ---- -----<br>------ ---- ---- ------ ------ ------- --- ----- ---------<br>---- --- -------- -------- --- --- -- ------- --- --- -----<br>-- --- ------ ------- --- --- -------- ---- --------- --<br>---------- -- -------- ----------------,284532.78000000864,284532.2300000116,284009.957,284020.9749999922,284026.276,284542.491,,6,island's
screen,html.Screen,1_3_1_0_1_7,2021-04-28T12:32:40.691Z,,,,,,,,,,,,,,,,11,,,,,,,,,,,,,,925.6939998887829,,response,,,,4,F,,,,,,Space,keypress(Space),,,,instrumental,,,,"----- -- ---- --- -- --- -------- inhabitants, ---------- --<br>- ------- ------ --------- -- ------------ -- --- ---- -----<br>------ ---- ---- ------ ------ ------- --- ----- ---------<br>---- --- -------- -------- --- --- -- ------- --- --- -----<br>-- --- ------ ------- --- --- -------- ---- --------- --<br>---------- -- -------- ----------------",285468.7349998858,285468.18499988876,284526.282,284532.91499987245,284542.491,285474.857,,7,"inhabitants,"
screen,html.Screen,1_3_1_0_1_8,2021-04-28T12:32:41.476Z,,,,,,,,,,,,,,,,11,,,,,,,,,,,,,,777.9679998576757,,response,,,,4,F,,,,,,Space,keypress(Space),,,,instrumental,,,,----- -- ---- --- -- --- -------- ------------ Rongorongo --<br>- ------- ------ --------- -- ------------ -- --- ---- -----<br>------ ---- ---- ------ ------ ------- --- ----- ---------<br>---- --- -------- -------- --- --- -- ------- --- --- -----<br>-- --- ------ ------- --- --- -------- ---- --------- --<br>---------- -- -------- ----------------,286253.81999998353,286252.8249998577,285459.205,285468.8699999824,285474.857,286257.431,,8,Rongorongo
screen,html.Screen,1_3_1_0_1_9,2021-04-28T12:32:41.931Z,,,,,,,,,,,,,,,,11,,,,,,,,,,,,,,450.9039998574881,,response,,,,4,F,,,,,,Space,keypress(Space),,,,instrumental,,,,----- -- ---- --- -- --- -------- ------------ ---------- is<br>- ------- ------ --------- -- ------------ -- --- ---- -----<br>------ ---- ---- ------ ------ ------- --- ----- ---------<br>---- --- -------- -------- --- --- -- ------- --- --- -----<br>-- --- ------ ------- --- --- -------- ---- --------- --<br>---------- -- -------- ----------------,286709.0649998281,286708.33499985747,286241.505,286254.10999986343,286257.431,286723.644,,9,is
screen,html.Screen,1_3_1_0_1_10,2021-04-28T12:32:42.323Z,,,,,,,,,,,,,,,,11,,,,,,,,,,,,,,376.4809998808196,,response,,,,4,F,,,,,,Space,keypress(Space),,,,instrumental,,,,----- -- ---- --- -- --- -------- ------------ ---------- --<br>a ------- ------ --------- -- ------------ -- --- ---- -----<br>------ ---- ---- ------ ------ ------- --- ----- ---------<br>---- --- -------- -------- --- --- -- ------- --- --- -----<br>-- --- ------ ------- --- --- -------- ---- --------- --<br>---------- -- -------- ----------------,287100.66999983974,287100.1249998808,286707.375,286709.26499995403,286723.644,287106.53,,10,a
screen,html.Screen,1_3_1_0_1_11,2021-04-28T12:32:42.763Z,,,,,,,,,,,,,,,,11,,,,,,,,,,,,,,433.83999982778914,,response,,,,4,F,,,,,,Space,keypress(Space),,,,instrumental,,,,----- -- ---- --- -- --- -------- ------------ ---------- --<br>- writing ------ --------- -- ------------ -- --- ---- -----<br>------ ---- ---- ------ ------ ------- --- ----- ---------<br>---- --- -------- -------- --- --- -- ------- --- --- -----<br>-- --- ------ ------- --- --- -------- ---- --------- --<br>---------- -- -------- ----------------,287541.31999984384,287540.3699998278,287090.232,287100.8049999364,287106.53,287556.134,,11,writing
screen,html.Screen,1_3_1_0_1_12,2021-04-28T12:32:43.268Z,,,,,,,,,,,,,,,,11,,,,,,,,,,,,,,488.66099999431754,,response,,,,4,F,,,,,,Space,keypress(Space),,,,instrumental,,,,----- -- ---- --- -- --- -------- ------------ ---------- --<br>- ------- system --------- -- ------------ -- --- ---- -----<br>------ ---- ---- ------ ------ ------- --- ----- ---------<br>---- --- -------- -------- --- --- -- ------- --- --- -----<br>-- --- ------ ------- --- --- -------- ---- --------- --<br>---------- -- -------- ----------------,288045.6299998332,288044.79499999434,287539.84,287541.51999996975,287556.134,288055.628,,12,system
screen,html.Screen,1_3_1_0_1_13,2021-04-28T12:32:43.835Z,,,,,,,,,,,,,,,,11,,,,,,,,,,,,,,556.5769998957403,,response,,,,4,F,,,,,,Space,keypress(Space),,,,instrumental,,,,----- -- ---- --- -- --- -------- ------------ ---------- --<br>- ------- ------ comprised -- ------------ -- --- ---- -----<br>------ ---- ---- ------ ------ ------- --- ----- ---------<br>---- --- -------- -------- --- --- -- ------- --- --- -----<br>-- --- ------ ------- --- --- -------- ---- --------- --<br>---------- -- -------- ----------------,288612.770000007,288612.20499989577,288039.441,288045.8899999503,288055.628,288621.741,,13,comprised
screen,html.Screen,1_3_1_0_1_14,2021-04-28T12:32:44.299Z,,,,,,,,,,,,,,,,11,,,,,,,,,,,,,,454.7189998947433,,response,,,,4,F,,,,,,Space,keypress(Space),,,,instrumental,,,,----- -- ---- --- -- --- -------- ------------ ---------- --<br>- ------- ------ --------- of ------------ -- --- ---- -----<br>------ ---- ---- ------ ------ ------- --- ----- ---------<br>---- --- -------- -------- --- --- -- ------- --- --- -----<br>-- --- ------ ------- --- --- -------- ---- --------- --<br>---------- -- -------- ----------------,289077.0499999635,289076.4599998947,288605.594,288612.89999983273,288621.741,289087.997,,14,of
screen,html.Screen,1_3_1_0_1_15,2021-04-28T12:32:45.211Z,,,,,,,,,,,,,,,,11,,,,,,,,,,,,,,900.4979999396019,,response,,,,4,F,,,,,,Space,keypress(Space),,,,instrumental,,,,----- -- ---- --- -- --- -------- ------------ ---------- --<br>- ------- ------ --------- -- pictographs. -- --- ---- -----<br>------ ---- ---- ------ ------ ------- --- ----- ---------<br>---- --- -------- -------- --- --- -- ------- --- --- -----<br>-- --- ------ ------- --- --- -------- ---- --------- --<br>---------- -- -------- ----------------,289989.1999999527,289988.4949999396,289071.679,289077.21000001766,289087.997,290020.454,,15,pictographs.
screen,html.Screen,1_3_1_0_1_16,2021-04-28T12:32:45.675Z,,,,,,,,,,,,,,,,11,,,,,,,,,,,,,,431.8760000000475,,response,,,,4,F,,,,,,Space,keypress(Space),,,,instrumental,,,,----- -- ---- --- -- --- -------- ------------ ---------- --<br>- ------- ------ --------- -- ------------ It --- ---- -----<br>------ ---- ---- ------ ------ ------- --- ----- ---------<br>---- --- -------- -------- --- --- -- ------- --- --- -----<br>-- --- ------ ------- --- --- -------- ---- --------- --<br>---------- -- -------- ----------------,290452.874999959,290452.3300000001,290003.756,289989.36000000685,290020.454,290470.021,,16,It
screen,html.Screen,1_3_1_0_1_17,2021-04-28T12:32:46.075Z,,,,,,,,,,,,,,,,11,,,,,,,,,,,,,,382.2139998820494,,response,,,,4,F,,,,,,Space,keypress(Space),,,,instrumental,,,,----- -- ---- --- -- --- -------- ------------ ---------- --<br>- ------- ------ --------- -- ------------ -- has ---- -----<br>------ ---- ---- ------ ------ ------- --- ----- ---------<br>---- --- -------- -------- --- --- -- ------- --- --- -----<br>-- --- ------ ------- --- --- -------- ---- --------- --<br>---------- -- -------- ----------------,290853.2149998937,290852.23499988206,290453.274,290453.0099998228,290470.021,290869.539,,17,has
screen,html.Screen,1_3_1_0_1_18,2021-04-28T12:32:46.452Z,,,,,,,,,,,,,,,,11,,,,,,,,,,,,,,359.2659999624593,,response,,,,4,F,,,,,,Space,keypress(Space),,,,instrumental,,,,----- -- ---- --- -- --- -------- ------------ ---------- --<br>- ------- ------ --------- -- ------------ -- --- been -----<br>------ ---- ---- ------ ------ ------- --- ----- ---------<br>---- --- -------- -------- --- --- -- ------- --- --- -----<br>-- --- ------ ------- --- --- -------- ---- --------- --<br>---------- -- -------- ----------------,291229.7449999023,291228.80499996245,290853.163,290853.38999982923,290869.539,291235.787,,18,been
screen,html.Screen,1_3_1_0_1_19,2021-04-28T12:32:46.819Z,,,,,,,,,,,,,,,,11,,,,,,,,,,,,,,360.372999957297,,response,,,,4,F,,,,,,Space,keypress(Space),,,,instrumental,,,,----- -- ---- --- -- --- -------- ------------ ---------- --<br>- ------- ------ --------- -- ------------ -- --- ---- found<br>------ ---- ---- ------ ------ ------- --- ----- ---------<br>---- --- -------- -------- --- --- -- ------- --- --- -----<br>-- --- ------ ------- --- --- -------- ---- --------- --<br>---------- -- -------- ----------------,291596.7149999924,291596.1599999573,291219.527,291229.9999999814,291235.787,291602.071,,19,found
screen,html.Screen,1_3_1_0_1_20,2021-04-28T12:32:47.420Z,,,,,,,,,,,,,,,,11,,,,,,,,,,,,,,595.1439999346621,,response,,,,4,F,,,,,,Space,keypress(Space),,,,instrumental,,,,----- -- ---- --- -- --- -------- ------------ ---------- --<br>- ------- ------ --------- -- ------------ -- --- ---- -----<br>carved ---- ---- ------ ------ ------- --- ----- ---------<br>---- --- -------- -------- --- --- -- ------- --- --- -----<br>-- --- ------ ------- --- --- -------- ---- --------- --<br>---------- -- -------- ----------------,292197.8499998804,292197.21499993466,291585.813,291596.84499981813,291602.071,292201.51,,20,carved
screen,html.Screen,1_3_1_0_1_21,2021-04-28T12:32:47.915Z,,,,,,,,,,,,,,,,11,,,,,,,,,,,,,,490.6899999321904,,response,,,,4,F,,,,,,Space,keypress(Space),,,,instrumental,,,,----- -- ---- --- -- --- -------- ------------ ---------- --<br>- ------- ------ --------- -- ------------ -- --- ---- -----<br>------ into ---- ------ ------ ------- --- ----- ---------<br>---- --- -------- -------- --- --- -- ------- --- --- -----<br>-- --- ------ ------- --- --- -------- ---- --------- --<br>---------- -- -------- ----------------,292692.77499988675,292692.1999999322,292185.354,292197.979999939,292201.51,292701,,21,into
screen,html.Screen,1_3_1_0_1_22,2021-04-28T12:32:48.299Z,,,,,,,,,,,,,,,,11,,,,,,,,,,,,,,375.4999999664724,,response,,,,4,F,,,,,,Space,keypress(Space),,,,instrumental,,,,----- -- ---- --- -- --- -------- ------------ ---------- --<br>- ------- ------ --------- -- ------------ -- --- ---- -----<br>------ ---- many ------ ------ ------- --- ----- ---------<br>---- --- -------- -------- --- --- -- ------- --- --- -----<br>-- --- ------ ------- --- --- -------- ---- --------- --<br>---------- -- -------- ----------------,293077.30000000447,293076.4999999665,292684.773,292692.9049999453,292701,293083.952,,22,many
screen,html.Screen,1_3_1_0_1_23,2021-04-28T12:32:48.635Z,,,,,,,,,,,,,,,,11,,,,,,,,,,,,,,328.2729998618015,,response,,,,4,F,,,,,,Space,keypress(Space),,,,instrumental,,,,----- -- ---- --- -- --- -------- ------------ ---------- --<br>- ------- ------ --------- -- ------------ -- --- ---- -----<br>------ ---- ---- oblong ------ ------- --- ----- ---------<br>---- --- -------- -------- --- --- -- ------- --- --- -----<br>-- --- ------ ------- --- --- -------- ---- --------- --<br>---------- -- -------- ----------------,293413.01499982364,293412.2249998618,293067.694,293077.56499992684,293083.952,293416.99,,23,oblong
screen,html.Screen,1_3_1_0_1_24,2021-04-28T12:32:49.108Z,,,,,,,,,,,,,,,,11,,,,,,,,,,,,,,467.56999991857447,,response,,,,4,F,,,,,,Space,keypress(Space),,,,instrumental,,,,----- -- ---- --- -- --- -------- ------------ ---------- --<br>- ------- ------ --------- -- ------------ -- --- ---- -----<br>------ ---- ---- ------ wooden ------- --- ----- ---------<br>---- --- -------- -------- --- --- -- ------- --- --- -----<br>-- --- ------ ------- --- --- -------- ---- --------- --<br>---------- -- -------- ----------------,293885.61999984086,293884.55999991857,293400.578,293413.2699999027,293416.99,293899.851,,24,wooden
screen,html.Screen,1_3_1_0_1_25,2021-04-28T12:32:49.508Z,,,,,,,,,,,,,,,,11,,,,,,,,,,,,,,384.77899989276193,,response,,,,4,F,,,,,,Space,keypress(Space),,,,instrumental,,,,----- -- ---- --- -- --- -------- ------------ ---------- --<br>- ------- ------ --------- -- ------------ -- --- ---- -----<br>------ ---- ---- ------ ------ tablets --- ----- ---------<br>---- --- -------- -------- --- --- -- ------- --- --- -----<br>-- --- ------ ------- --- --- -------- ---- --------- --<br>---------- -- -------- ----------------,294285.77499999665,294284.6299998928,293883.623,293885.83999988623,293899.851,294299.424,,25,tablets
screen,html.Screen,1_3_1_0_1_26,2021-04-28T12:32:49.899Z,,,,,,,,,,,,,,,,11,,,,,,,,,,,,,,376.7609999893466,,response,,,,4,F,,,,,,Space,keypress(Space),,,,instrumental,,,,----- -- ---- --- -- --- -------- ------------ ---------- --<br>- ------- ------ --------- -- ------------ -- --- ---- -----<br>------ ---- ---- ------ ------ ------- and ----- ---------<br>---- --- -------- -------- --- --- -- ------- --- --- -----<br>-- --- ------ ------- --- --- -------- ---- --------- --<br>---------- -- -------- ----------------,294676.76499998197,294676.18499998935,294283.108,294285.9449998941,294299.424,294682.354,,26,and
screen,html.Screen,1_3_1_0_1_27,2021-04-28T12:32:50.219Z,,,,,,,,,,,,,,,,11,,,,,,,,,,,,,,313.79600002086954,,response,,,,4,F,,,,,,Space,keypress(Space),,,,instrumental,,,,----- -- ---- --- -- --- -------- ------------ ---------- --<br>- ------- ------ --------- -- ------------ -- --- ---- -----<br>------ ---- ---- ------ ------ ------- --- other ---------<br>---- --- -------- -------- --- --- -- ------- --- --- -----<br>-- --- ------ ------- --- --- -------- ---- --------- --<br>---------- -- -------- ----------------,294996.7300000135,294996.15000002086,294666.071,294676.8849999644,294682.354,294998.724,,27,other
screen,html.Screen,1_3_1_0_1_28,2021-04-28T12:32:50.699Z,,,,,,,,,,,,,,,,11,,,,,,,,,,,,,,477.4409998836345,,response,,,,4,F,,,,,,Space,keypress(Space),,,,instrumental,,,,----- -- ---- --- -- --- -------- ------------ ---------- --<br>- ------- ------ --------- -- ------------ -- --- ---- -----<br>------ ---- ---- ------ ------ ------- --- ----- artifacts<br>---- --- -------- -------- --- --- -- ------- --- --- -----<br>-- --- ------ ------- --- --- -------- ---- --------- --<br>---------- -- -------- ----------------,295476.70999984257,295476.1649998836,294982.331,294996.8599998392,294998.724,295481.557,,28,artifacts
screen,html.Screen,1_3_1_0_1_29,2021-04-28T12:32:51.227Z,,,,,,,,,,,,,,,,11,,,,,,,,,,,,,,522.6529999264167,,response,,,,4,F,,,,,,Space,keypress(Space),,,,instrumental,,,,----- -- ---- --- -- --- -------- ------------ ---------- --<br>- ------- ------ --------- -- ------------ -- --- ---- -----<br>------ ---- ---- ------ ------ ------- --- ----- ---------<br>from --- -------- -------- --- --- -- ------- --- --- -----<br>-- --- ------ ------- --- --- -------- ---- --------- --<br>---------- -- -------- ----------------,296004.86500002444,296004.2099999264,295465.375,295476.8449999392,295481.557,296014.343,,29,from
screen,html.Screen,1_3_1_0_1_30,2021-04-28T12:32:51.691Z,,,,,,,,,,,,,,,,11,,,,,,,,,,,,,,453.876999922446,,response,,,,4,F,,,,,,Space,keypress(Space),,,,instrumental,,,,----- -- ---- --- -- --- -------- ------------ ---------- --<br>- ------- ------ --------- -- ------------ -- --- ---- -----<br>------ ---- ---- ------ ------ ------- --- ----- ---------<br>---- the -------- -------- --- --- -- ------- --- --- -----<br>-- --- ------ ------- --- --- -------- ---- --------- --<br>---------- -- -------- ----------------,296469.18499981984,296468.21999992244,295998.241,296004.99499985017,296014.343,296480.629,,30,the
screen,html.Screen,1_3_1_0_1_31,2021-04-28T12:32:52.195Z,,,,,,,,,,,,,,,,11,,,,,,,,,,,,,,491.7209999381448,,response,,,,4,F,,,,,,Space,keypress(Space),,,,instrumental,,,,----- -- ---- --- -- --- -------- ------------ ---------- --<br>- ------- ------ --------- -- ------------ -- --- ---- -----<br>------ ---- ---- ------ ------ ------- --- ----- ---------<br>---- --- island's -------- --- --- -- ------- --- --- -----<br>-- --- ------ ------- --- --- -------- ---- --------- --<br>---------- -- -------- ----------------,296973.10499986634,296972.34999993816,296464.335,296469.3350000307,296480.629,296980.215,,31,island's
screen,html.Screen,1_3_1_0_1_32,2021-04-28T12:32:52.763Z,,,,,,,,,,,,,,,,11,,,,,,,,,,,,,,560.4999998936546,,response,,,,4,F,,,,,,Space,keypress(Space),,,,instrumental,,,,----- -- ---- --- -- --- -------- ------------ ---------- --<br>- ------- ------ --------- -- ------------ -- --- ---- -----<br>------ ---- ---- ------ ------ ------- --- ----- ---------<br>---- --- -------- history. --- --- -- ------- --- --- -----<br>-- --- ------ ------- --- --- -------- ---- --------- --<br>---------- -- -------- ----------------,297541.3150000386,297540.7149998937,296963.906,296973.27499999665,296980.215,297546.164,,32,history.
screen,html.Screen,1_3_1_0_1_33,2021-04-28T12:32:53.284Z,,,,,,,,,,,,,,,,11,,,,,,,,,,,,,,514.5209999167128,,response,,,,4,F,,,,,,Space,keypress(Space),,,,instrumental,,,,----- -- ---- --- -- --- -------- ------------ ---------- --<br>- ------- ------ --------- -- ------------ -- --- ---- -----<br>------ ---- ---- ------ ------ ------- --- ----- ---------<br>---- --- -------- -------- The --- -- ------- --- --- -----<br>-- --- ------ ------- --- --- -------- ---- --------- --<br>---------- -- -------- ----------------,298061.55500002205,298060.6849999167,297530.09,297541.4499999024,297546.164,298084.771,,33,The
screen,html.Screen,1_3_1_0_1_34,2021-04-28T12:32:53.723Z,,,,,,,,,,,,,,,,11,,,,,,,,,,,,,,415.4639999267529,,response,,,,4,F,,,,,,Space,keypress(Space),,,,instrumental,,,,----- -- ---- --- -- --- -------- ------------ ---------- --<br>- ------- ------ --------- -- ------------ -- --- ---- -----<br>------ ---- ---- ------ ------ ------- --- ----- ---------<br>---- --- -------- -------- --- art -- ------- --- --- -----<br>-- --- ------ ------- --- --- -------- ---- --------- --<br>---------- -- -------- ----------------,298501.0750000365,298500.23499992676,298046.209,298061.81499990635,298084.771,298511.925,,34,art
screen,html.Screen,1_3_1_0_1_35,2021-04-28T12:32:54.083Z,,,,,,,,,,,,,,,,11,,,,,,,,,,,,,,348.3599999442813,,response,,,,4,F,,,,,,Space,keypress(Space),,,,instrumental,,,,----- -- ---- --- -- --- -------- ------------ ---------- --<br>- ------- ------ --------- -- ------------ -- --- ---- -----<br>------ ---- ---- ------ ------ ------- --- ----- ---------<br>---- --- -------- -------- --- --- of ------- --- --- -----<br>-- --- ------ ------- --- --- -------- ---- --------- --<br>---------- -- -------- ----------------,298860.9549999237,298860.28499994427,298495.685,298501.23499985784,298511.925,298882.388,,35,of
screen,html.Screen,1_3_1_0_1_36,2021-04-28T12:32:54.452Z,,,,,,,,,,,,,,,,11,,,,,,,,,,,,,,346.15200004010694,,response,,,,4,F,,,,,,Space,keypress(Space),,,,instrumental,,,,----- -- ---- --- -- --- -------- ------------ ---------- --<br>- ------- ------ --------- -- ------------ -- --- ---- -----<br>------ ---- ---- ------ ------ ------- --- ----- ---------<br>---- --- -------- -------- --- --- -- writing --- --- -----<br>-- --- ------ ------- --- --- -------- ---- --------- --<br>---------- -- -------- ----------------,299229.4899998233,299228.5400000401,298845.194,298861.1099999398,298882.388,299244.498,,36,writing
screen,html.Screen,1_3_1_0_1_37,2021-04-28T12:32:54.931Z,,,,,,,,,,,,,,,,11,,,,,,,,,,,,,,463.74199983256403,,response,,,,4,F,,,,,,Space,keypress(Space),,,,instrumental,,,,----- -- ---- --- -- --- -------- ------------ ---------- --<br>- ------- ------ --------- -- ------------ -- --- ---- -----<br>------ ---- ---- ------ ------ ------- --- ----- ---------<br>---- --- -------- -------- --- --- -- ------- was --- -----<br>-- --- ------ ------- --- --- -------- ---- --------- --<br>---------- -- -------- ----------------,299708.9299999643,299708.2399998326,299228.178,299229.6249999199,299244.498,299710.701,,37,was
