sender,sender_type,sender_id,timestamp,meta,,Blues,Classical,Country,Dance,Electronic,Folk,Gospel,Hip-Hop,Jazz,Latin,Musical/Film,New-age,Pop,Provo_ID,R&B,Rap,Reggae,Religious,Rock,Soul,Swing,Traditional,age,artist_name,correct,correctResponse,distraction,duration,education,ended_on,familiarity,gender,headphone_check_performance,item,list,music_frequency,offensiveness,pleasantness,position_correct,preference,response,response_action,snippet_file,song_name,song_rating,sound,stimulus_1,stimulus_2,stimulus_3,text,time_commit,time_end,time_render,time_run,time_show,time_switch,url,word,word_ID
Introduction,html.Screen,0_0,2021-04-16T11:30:02.936Z,"{""labjs_version"":""20.2.2"",""labjs_build"":{""flavor"":""production"",""commit"":""a25486e0c714a0ae2ce03ff94b7bb6896854dcfa""},""location"":""https://run.pavlovia.org/mvasilev/music_c/"",""userAgent"":""Mozilla/5.0 (Windows NT 10.0; Win64; x64) AppleWebKit/537.36 (KHTML, like Gecko) Chrome/89.0.4389.114 Safari/537.36"",""platform"":""Win32"",""language"":""en-GB"",""locale"":""en-GB"",""timeZone"":""Europe/London"",""timezoneOffset"":-60,""screen_width"":1280,""screen_height"":720,""scroll_width"":1280,""scroll_height"":562,""window_innerWidth"":1280,""window_innerHeight"":610,""devicePixelRatio"":1.5}",,,,,,,,,,,,,,,,,,,,,,,,,,,,,2251.7170000000806,,response,,,,,,,,,,,continue,click button,,,,,,,,,20631.64000000006,20628.34500000008,18347.284,14094.659999999749,18376.628,20643.113,{},,
Volume calibration,html.Screen,0_1,2021-04-16T11:30:13.373Z,,,,,,,,,,,,,,,,,,,,,,,,,,,,,,10415.756999999841,,response,,,,,,,,,,,continue,click button,,,,,,,,,31068.275000000085,31058.869999999843,20626.244,20632.249999999658,20643.113,31076.49,,,
Task instructions,html.Screen,0_2,2021-04-16T11:30:18.917Z,,,,,,,,,,,,,,,,,,,,,,,,,,,,,,5532.369999999824,,response,,,,,,,,,,,continue,click button,,,,,,,,,36612.89499999976,36608.859999999826,31059.978,31068.844999999783,31076.49,36643.235,,,
Sounds,html.Screen,0_3_0_0,2021-04-16T11:30:23.185Z,,,,,,,,,,,,,,,,,,,,,,,,,,,,,,4252.165000000001,,timeout,,,,,,,,,1,,,,,,,,S,I,O,,40880.65999999981,40876.85,36626.573,36613.79499999975,36643.235,40895.4,,,
Judgement,html.Screen,0_3_0_1,2021-04-16T11:30:24.552Z,,,,,,,,,,,,,,,,,,,,,,,,,,,true,1,,1349.469999999994,,response,,,,,,,,,1,,1,click #choice-1,,,,,S,I,O,,42247.95999999969,42244.869999999995,40876.85,40880.999999999854,40895.4,42261.022,,,
Trial,flow.Sequence,0_3_0,2021-04-16T11:30:24.553Z,,,,,,,,,,,,,,,,,,,,,,,,,,,,,,5601.634999999995,,completion,,,,,,,,,1,,,,,,,,S,I,O,,42249.205000000075,42244.869999999995,36626.573,36613.55000000003,36643.235,42261.022,,,
Sounds,html.Screen,0_3_1_0,2021-04-16T11:30:28.803Z,,,,,,,,,,,,,,,,,,,,,,,,,,,,,,4250.698000000004,,timeout,,,,,,,,,3,,,,,,,,O,I,S,,46499.124999999825,46494.104,42243.744,42249.87499999997,42261.022,46511.72,,,
Judgement,html.Screen,0_3_1_1,2021-04-16T11:30:29.746Z,,,,,,,,,,,,,,,,,,,,,,,,,,,true,3,,927.1499999999505,,response,,,,,,,,,3,,3,click #choice-3,,,,,O,I,S,,47441.91999999975,47438.86999999995,46494.104,46499.980000000054,46511.72,47443.522,,,
Trial,flow.Sequence,0_3_1,2021-04-16T11:30:29.747Z,,,,,,,,,,,,,,,,,,,,,,,,,,,,,,5177.8479999999545,,completion,,,,,,,,,3,,,,,,,,O,I,S,,47442.88499999994,47438.86999999995,42243.744,42249.6799999999,42261.022,47443.522,,,
Sounds,html.Screen,0_3_2_0,2021-04-16T11:30:33.985Z,,,,,,,,,,,,,,,,,,,,,,,,,,,,,,4252.411,,timeout,,,,,,,,,2,,,,,,,,I,S,O,,51680.85999999994,51677.096,47427.122,47445.38499999999,47443.522,51695.933,,,
Judgement,html.Screen,0_3_2_1,2021-04-16T11:30:35.091Z,,,,,,,,,,,,,,,,,,,,,,,,,,,true,2,,1088.6969999996581,,response,,,,,,,,,2,,2,click #choice-2,,,,,I,S,O,,52786.78999999966,52784.629999999655,51677.096,51681.73999999999,51695.933,52794.267,,,
Trial,flow.Sequence,0_3_2,2021-04-16T11:30:35.091Z,,,,,,,,,,,,,,,,,,,,,,,,,,,,,,5341.107999999658,,completion,,,,,,,,,2,,,,,,,,I,S,O,,52787.16499999973,52784.629999999655,47427.122,47444.93999999986,47443.522,52794.267,,,
Sounds,html.Screen,0_3_3_0,2021-04-16T11:30:39.334Z,,,,,,,,,,,,,,,,,,,,,,,,,,,,,,4250.368999999999,,timeout,,,,,,,,,3,,,,,,,,I,O,S,,57030.289999999695,57027.209,52777.421,52787.434999999736,52794.267,57044.636,,,
Judgement,html.Screen,0_3_3_1,2021-04-16T11:30:40.029Z,,,,,,,,,,,,,,,,,,,,,,,,,,,true,3,,677.8390000000363,,response,,,,,,,,,3,,3,click #choice-3,,,,,I,O,S,,57724.969999999754,57722.475000000035,57027.209,57030.85999999985,57044.636,57727.024,,,
Trial,flow.Sequence,0_3_3,2021-04-16T11:30:40.030Z,,,,,,,,,,,,,,,,,,,,,,,,,,,,,,4928.208000000035,,completion,,,,,,,,,3,,,,,,,,I,O,S,,57725.68000000001,57722.475000000035,52777.421,52787.33999999986,52794.267,57727.024,,,
Sounds,html.Screen,0_3_4_0,2021-04-16T11:30:44.268Z,,,,,,,,,,,,,,,,,,,,,,,,,,,,,,4250.6700000000055,,timeout,,,,,,,,,1,,,,,,,,S,O,I,,61964.224999999715,61960.706,57710.754,57726.20000000006,57727.024,61977.694,,,
Judgement,html.Screen,0_3_4_1,2021-04-16T11:30:45.064Z,,,,,,,,,,,,,,,,,,,,,,,,,,,true,1,,779.1810000000332,,response,,,,,,,,,1,,1,click #choice-1,,,,,S,O,I,,62759.610000000066,62756.87500000004,61960.706,61964.78999999999,61977.694,62760.54,,,
Trial,flow.Sequence,0_3_4,2021-04-16T11:30:45.064Z,,,,,,,,,,,,,,,,,,,,,,,,,,,,,,5029.851000000039,,completion,,,,,,,,,1,,,,,,,,S,O,I,,62760.28499999984,62756.87500000004,57710.754,57726.04499999988,57727.024,62760.54,,,
Sounds,html.Screen,0_3_5_0,2021-04-16T11:30:49.300Z,,,,,,,,,,,,,,,,,,,,,,,,,,,,,,4250.68,,timeout,,,,,,,,,2,,,,,,,,O,S,I,,66996.12999999999,66994.097,62744.218,62763.14999999977,62760.54,67011.22,,,
Judgement,html.Screen,0_3_5_1,2021-04-16T11:30:49.769Z,,,,,,,,,,,,,,,,,,,,,,,,,,,true,2,,451.49499999966065,,response,,,,,,,,,2,,2,click #choice-2,,,,,O,S,I,,67465.45999999989,67462.71499999966,66994.097,66996.67999999975,67011.22,67493.953,,,
Trial,flow.Sequence,0_3_5,2021-04-16T11:30:49.770Z,,,,,,,,,,,,,,,,,,,,,,,,,,,,,,4702.174999999661,,completion,,,,,,,,,2,,,,,,,,O,S,I,,67466.12000000005,67462.71499999966,62744.218,62762.97500000009,62760.54,67493.953,,,
Task,flow.Loop,0_3,2021-04-16T11:30:49.783Z,,,,,,,,,,,,,,,,,,,,,,,,,,,,,,30819.47999999966,,completion,,,1,,,,,,,,,,,,,,,,,,67479.53499999995,67462.71499999966,36626.573,36613.35499999995,36643.235,67493.953,,,
Trap,html.Screen,0_4,2021-04-16T11:30:49.789Z,,,,,,,,,,,,,,,,,,,,,,,,,,,,,,NaN,,skipped,,,,,,,,,,,,,,,,,,,,,67484.61499999985,67462.71499999966,,67483.87999999977,,67493.953,,,
Thanks,html.Screen,0_5,2021-04-16T11:30:54.705Z,,,,,,,,,,,,,,,,,,,,,,,,,,,,,,4904.682000000015,,response,,,,,,,,,,,continue,click button,,,,,,,,,72401.28000000004,72398.63500000001,67460.813,67485.0849999998,67493.953,80744.176,,,
Headphone screening,flow.Sequence,0,2021-04-16T11:30:54.706Z,,,,,,,,,,,,,,,,,,,,,,,,,,,,,,54022.00700000001,,completion,,,,,,,,,,,,,,,,,,,,,72402.40999999968,72398.63500000001,18347.284,14094.569999999749,18376.628,80744.176,,,
Instructions,html.Page,1_0,2021-04-16T11:31:39.130Z,,,,,,,,,,,,,,,,,,,,,,,,,,,,,,36081.22399999971,,form submission,,,,,,,,,,,,,,,,,,,,,116826.2649999997,116825.39999999972,80645.758,80730.97000000007,80744.176,116844.966,,,
Holding screen,html.Screen,1_1_0_0,2021-04-16T11:31:49.135Z,,,,,,,,,,,,,,,,,,,,,,,,,,,,,,10050.263000000006,,timeout,,,,,,,,,,,,,,,,,,,,,126830.68000000002,126828.746,116811.844,116827.02999999993,116844.966,126895.229,,,
screen,html.Screen,1_1_0_1_0,2021-04-16T11:31:50.016Z,,,,,,,,,,,,,,,,53,,,,,,,,,,,,,,808.9259999998903,,response,,,,99,,,,,,,Space,keypress(Space),,,,,,,,When -- ----- -- ------ - ------- --- ----------<br>------------- ------ ------ ---- ---- ------- ----- -- ----<br>-------- ------- -- ---------- --- - --- ----- ----- ----<br>---- --- --- ----- --- ---- ---- ------- ----- ---- -------<br>--- --- -- ----- -- --- ---- -- --- ---- -- ------ ------<br>--- ----- -- ----,127712.26499999966,127704.1549999999,126828.746,126831.53999999967,126895.229,127728.556,,0,When
screen,html.Screen,1_1_0_1_1,2021-04-16T11:31:50.457Z,,,,,,,,,,,,,,,,53,,,,,,,,,,,,,,421.5489999997226,,response,,,,99,,,,,,,Space,keypress(Space),,,,,,,,---- it ----- -- ------ - ------- --- ----------<br>------------- ------ ------ ---- ---- ------- ----- -- ----<br>-------- ------- -- ---------- --- - --- ----- ----- ----<br>---- --- --- ----- --- ---- ---- ------- ----- ---- -------<br>--- --- -- ----- -- --- ---- -- --- ---- -- ------ ------<br>--- ----- -- ----,128152.47999999975,128150.10499999972,127711.901,127712.94499999976,127728.556,128161.966,,1,it
screen,html.Screen,1_1_0_1_2,2021-04-16T11:31:50.911Z,,,,,,,,,,,,,,,,53,,,,,,,,,,,,,,442.75399999981164,,response,,,,99,,,,,,,Space,keypress(Space),,,,,,,,---- -- comes -- ------ - ------- --- ----------<br>------------- ------ ------ ---- ---- ------- ----- -- ----<br>-------- ------- -- ---------- --- - --- ----- ----- ----<br>---- --- --- ----- --- ---- ---- ------- ----- ---- -------<br>--- --- -- ----- -- --- ---- -- --- ---- -- ------ ------<br>--- ----- -- ----,128607.01999999992,128604.71999999981,128145.252,128153.01999999974,128161.966,128611.994,,2,comes
screen,html.Screen,1_1_0_1_3,2021-04-16T11:31:51.314Z,,,,,,,,,,,,,,,,53,,,,,,,,,,,,,,395.88099999977567,,response,,,,99,,,,,,,Space,keypress(Space),,,,,,,,---- -- ----- to ------ - ------- --- ----------<br>------------- ------ ------ ---- ---- ------- ----- -- ----<br>-------- ------- -- ---------- --- - --- ----- ----- ----<br>---- --- --- ----- --- ---- ---- ------- ----- ---- -------<br>--- --- -- ----- -- --- ---- -- --- ---- -- ------ ------<br>--- ----- -- ----,129010.17000000001,129007.87499999978,128595.443,128607.56999999967,128611.994,129028.792,,3,to
screen,html.Screen,1_1_0_1_4,2021-04-16T11:31:51.679Z,,,,,,,,,,,,,,,,53,,,,,,,,,,,,,,343.7529999997205,,response,,,,99,,,,,,,Space,keypress(Space),,,,,,,,---- -- ----- -- having - ------- --- ----------<br>------------- ------ ------ ---- ---- ------- ----- -- ----<br>-------- ------- -- ---------- --- - --- ----- ----- ----<br>---- --- --- ----- --- ---- ---- ------- ----- ---- -------<br>--- --- -- ----- -- --- ---- -- --- ---- -- ------ ------<br>--- ----- -- ----,129374.97499999971,129372.54499999972,128995.458,129010.79499999969,129028.792,129378.657,,4,having
screen,html.Screen,1_1_0_1_5,2021-04-16T11:31:52.040Z,,,,,,,,,,,,,,,,53,,,,,,,,,,,,,,355.1129999998084,,response,,,,99,,,,,,,Space,keypress(Space),,,,,,,,---- -- ----- -- ------ a ------- --- ----------<br>------------- ------ ------ ---- ---- ------- ----- -- ----<br>-------- ------- -- ---------- --- - --- ----- ----- ----<br>---- --- --- ----- --- ---- ---- ------- ----- ---- -------<br>--- --- -- ----- -- --- ---- -- --- ---- -- ------ ------<br>--- ----- -- ----,129735.88999999993,129733.76999999981,129362.133,129375.54000000001,129378.657,129745.332,,5,a
screen,html.Screen,1_1_0_1_6,2021-04-16T11:31:52.396Z,,,,,,,,,,,,,,,,53,,,,,,,,,,,,,,344.4779999999446,,response,,,,99,,,,,,,Space,keypress(Space),,,,,,,,---- -- ----- -- ------ - lasting --- ----------<br>------------- ------ ------ ---- ---- ------- ----- -- ----<br>-------- ------- -- ---------- --- - --- ----- ----- ----<br>---- --- --- ----- --- ---- ---- ------- ----- ---- -------<br>--- --- -- ----- -- --- ---- -- --- ---- -- ------ ------<br>--- ----- -- ----,130092.02499999992,130089.80999999994,129728.797,129736.42999999993,129745.332,130095.318,,6,lasting
screen,html.Screen,1_1_0_1_7,2021-04-16T11:31:52.834Z,,,,,,,,,,,,,,,,53,,,,,,,,,,,,,,431.99199999994016,,response,,,,99,,,,,,,Space,keypress(Space),,,,,,,,---- -- ----- -- ------ - ------- and ----------<br>------------- ------ ------ ---- ---- ------- ----- -- ----<br>-------- ------- -- ---------- --- - --- ----- ----- ----<br>---- --- --- ----- --- ---- ---- ------- ----- ---- -------<br>--- --- -- ----- -- --- ---- -- --- ---- -- ------ ------<br>--- ----- -- ----,130529.83499999982,130527.30999999994,130078.822,130092.58999999975,130095.318,130545.317,,7,and
screen,html.Screen,1_1_0_1_8,2021-04-16T11:31:53.302Z,,,,,,,,,,,,,,,,53,,,,,,,,,,,,,,449.7179999999207,,response,,,,99,,,,,,,Space,keypress(Space),,,,,,,,---- -- ----- -- ------ - ------- --- fulfilling<br>------------- ------ ------ ---- ---- ------- ----- -- ----<br>-------- ------- -- ---------- --- - --- ----- ----- ----<br>---- --- --- ----- --- ---- ---- ------- ----- ---- -------<br>--- --- -- ----- -- --- ---- -- --- ---- -- ------ ------<br>--- ----- -- ----,130997.54499999972,130995.03499999992,130529.058,130530.37499999983,130545.317,131011.951,,8,fulfilling
screen,html.Screen,1_1_0_1_9,2021-04-16T11:31:53.695Z,,,,,,,,,,,,,,,,53,,,,,,,,,,,,,,377.37899999995716,,response,,,,99,,,,,,,Space,keypress(Space),,,,,,,,"---- -- ----- -- ------ - ------- --- ----------<br>relationship, ------ ------ ---- ---- ------- ----- -- ----<br>-------- ------- -- ---------- --- - --- ----- ----- ----<br>---- --- --- ----- --- ---- ---- ------- ----- ---- -------<br>--- --- -- ----- -- --- ---- -- --- ---- -- ------ ------<br>--- ----- -- ----",131390.73499999996,131389.32999999996,130995.559,130998.09499999991,131011.951,131395.254,,9,"relationship,"
screen,html.Screen,1_1_0_1_10,2021-04-16T11:31:54.094Z,,,,,,,,,,,,,,,,53,,,,,,,,,,,,,,391.63099999999395,,response,,,,99,,,,,,,Space,keypress(Space),,,,,,,,---- -- ----- -- ------ - ------- --- ----------<br>------------- common ------ ---- ---- ------- ----- -- ----<br>-------- ------- -- ---------- --- - --- ----- ----- ----<br>---- --- --- ----- --- ---- ---- ------- ----- ---- -------<br>--- --- -- ----- -- --- ---- -- --- ---- -- ------ ------<br>--- ----- -- ----,131789.77499999973,131786.88499999998,131378.85,131390.95999999973,131395.254,131795.254,,10,common
screen,html.Screen,1_1_0_1_11,2021-04-16T11:31:54.551Z,,,,,,,,,,,,,,,,53,,,,,,,,,,,,,,449.4209999999439,,response,,,,99,,,,,,,Space,keypress(Space),,,,,,,,---- -- ----- -- ------ - ------- --- ----------<br>------------- ------ wisdom ---- ---- ------- ----- -- ----<br>-------- ------- -- ---------- --- - --- ----- ----- ----<br>---- --- --- ----- --- ---- ---- ------- ----- ---- -------<br>--- --- -- ----- -- --- ---- -- --- ---- -- ------ ------<br>--- ----- -- ----,132247.19999999978,132244.67499999993,131778.653,131790.39999999985,131795.254,132262.116,,11,wisdom
screen,html.Screen,1_1_0_1_12,2021-04-16T11:31:54.968Z,,,,,,,,,,,,,,,,53,,,,,,,,,,,,,,399.76899999997113,,response,,,,99,,,,,,,Space,keypress(Space),,,,,,,,---- -- ----- -- ------ - ------- --- ----------<br>------------- ------ ------ says ---- ------- ----- -- ----<br>-------- ------- -- ---------- --- - --- ----- ----- ----<br>---- --- --- ----- --- ---- ---- ------- ----- ---- -------<br>--- --- -- ----- -- --- ---- -- --- ---- -- ------ ------<br>--- ----- -- ----,132664.4449999999,132661.88499999998,132245.342,132247.75499999986,132262.116,132678.693,,12,says
screen,html.Screen,1_1_0_1_13,2021-04-16T11:31:55.323Z,,,,,,,,,,,,,,,,53,,,,,,,,,,,,,,337.8519999999553,,response,,,,99,,,,,,,Space,keypress(Space),,,,,,,,---- -- ----- -- ------ - ------- --- ----------<br>------------- ------ ------ ---- that ------- ----- -- ----<br>-------- ------- -- ---------- --- - --- ----- ----- ----<br>---- --- --- ----- --- ---- ---- ------- ----- ---- -------<br>--- --- -- ----- -- --- ---- -- --- ---- -- ------ ------<br>--- ----- -- ----,133019.0349999998,133016.54499999995,132662.278,132664.98999999976,132678.693,133029.541,,13,that
screen,html.Screen,1_1_0_1_14,2021-04-16T11:31:55.723Z,,,,,,,,,,,,,,,,53,,,,,,,,,,,,,,387.0240000000049,,response,,,,99,,,,,,,Space,keypress(Space),,,,,,,,---- -- ----- -- ------ - ------- --- ----------<br>------------- ------ ------ ---- ---- feeling ----- -- ----<br>-------- ------- -- ---------- --- - --- ----- ----- ----<br>---- --- --- ----- --- ---- ---- ------- ----- ---- -------<br>--- --- -- ----- -- --- ---- -- --- ---- -- ------ ------<br>--- ----- -- ----,133419.16999999966,133416.565,133012.215,133019.5749999998,133029.541,133428.664,,14,feeling
screen,html.Screen,1_1_0_1_15,2021-04-16T11:31:56.101Z,,,,,,,,,,,,,,,,53,,,,,,,,,,,,,,365.3159999999334,,response,,,,99,,,,,,,Space,keypress(Space),,,,,,,,---- -- ----- -- ------ - ------- --- ----------<br>------------- ------ ------ ---- ---- ------- close -- ----<br>-------- ------- -- ---------- --- - --- ----- ----- ----<br>---- --- --- ----- --- ---- ---- ------- ----- ---- -------<br>--- --- -- ----- -- --- ---- -- --- ---- -- ------ ------<br>--- ----- -- ----,133796.69999999987,133793.97999999992,133412.21,133419.93499999988,133428.664,133812.096,,15,close
screen,html.Screen,1_1_0_1_16,2021-04-16T11:31:56.509Z,,,,,,,,,,,,,,,,53,,,,,,,,,,,,,,390.3139999998675,,response,,,,99,,,,,,,Space,keypress(Space),,,,,,,,---- -- ----- -- ------ - ------- --- ----------<br>------------- ------ ------ ---- ---- ------- ----- to ----<br>-------- ------- -- ---------- --- - --- ----- ----- ----<br>---- --- --- ----- --- ---- ---- ------- ----- ---- -------<br>--- --- -- ----- -- --- ---- -- --- ---- -- ------ ------<br>--- ----- -- ----,134204.94999999984,134202.40999999986,133795.608,133797.27000000002,133812.096,134212.114,,16,to
screen,html.Screen,1_1_0_1_17,2021-04-16T11:31:56.902Z,,,,,,,,,,,,,,,,53,,,,,,,,,,,,,,383.1460000000661,,response,,,,99,,,,,,,Space,keypress(Space),,,,,,,,---- -- ----- -- ------ - ------- --- ----------<br>------------- ------ ------ ---- ---- ------- ----- -- your<br>-------- ------- -- ---------- --- - --- ----- ----- ----<br>---- --- --- ----- --- ---- ---- ------- ----- ---- -------<br>--- --- -- ----- -- --- ---- -- --- ---- -- ------ ------<br>--- ----- -- ----,134597.78000000006,134595.26000000007,134195.566,134205.52,134212.114,134612.302,,17,your
screen,html.Screen,1_1_0_1_18,2021-04-16T11:31:57.327Z,,,,,,,,,,,,,,,,53,,,,,,,,,,,,,,408.4279999997234,,response,,,,99,,,,,,,Space,keypress(Space),,,,,,,,---- -- ----- -- ------ - ------- --- ----------<br>------------- ------ ------ ---- ---- ------- ----- -- ----<br>romantic ------- -- ---------- --- - --- ----- ----- ----<br>---- --- --- ----- --- ---- ---- ------- ----- ---- -------<br>--- --- -- ----- -- --- ---- -- --- ---- -- ------ ------<br>--- ----- -- ----,135023.3800000001,135020.72999999972,134595.593,134598.3299999998,134612.302,135028.783,,18,romantic
screen,html.Screen,1_1_0_1_19,2021-04-16T11:31:57.715Z,,,,,,,,,,,,,,,,53,,,,,,,,,,,,,,379.26199999966775,,response,,,,99,,,,,,,Space,keypress(Space),,,,,,,,---- -- ----- -- ------ - ------- --- ----------<br>------------- ------ ------ ---- ---- ------- ----- -- ----<br>-------- partner -- ---------- --- - --- ----- ----- ----<br>---- --- --- ----- --- ---- ---- ------- ----- ---- -------<br>--- --- -- ----- -- --- ---- -- --- ---- -- ------ ------<br>--- ----- -- ----,135410.57,135408.04499999966,135012.251,135023.9200000001,135028.783,135428.926,,19,partner
screen,html.Screen,1_1_0_1_20,2021-04-16T11:31:58.093Z,,,,,,,,,,,,,,,,53,,,,,,,,,,,,,,357.4739999999583,,response,,,,99,,,,,,,Space,keypress(Space),,,,,,,,---- -- ----- -- ------ - ------- --- ----------<br>------------- ------ ------ ---- ---- ------- ----- -- ----<br>-------- ------- is ---------- --- - --- ----- ----- ----<br>---- --- --- ----- --- ---- ---- ------- ----- ---- -------<br>--- --- -- ----- -- --- ---- -- --- ---- -- ------ ------<br>--- ----- -- ----,135788.8250000001,135786.39999999997,135395.668,135411.1250000001,135428.926,135795.466,,20,is
screen,html.Screen,1_1_0_1_21,2021-04-16T11:31:58.531Z,,,,,,,,,,,,,,,,53,,,,,,,,,,,,,,428.3639999999141,,response,,,,99,,,,,,,Space,keypress(Space),,,,,,,,---- -- ----- -- ------ - ------- --- ----------<br>------------- ------ ------ ---- ---- ------- ----- -- ----<br>-------- ------- -- paramount. --- - --- ----- ----- ----<br>---- --- --- ----- --- ---- ---- ------- ----- ---- -------<br>--- --- -- ----- -- --- ---- -- --- ---- -- ------ ------<br>--- ----- -- ----,136226.49499999988,136223.8299999999,135778.934,135789.3899999999,135795.466,136250.848,,21,paramount.
screen,html.Screen,1_1_0_1_22,2021-04-16T11:31:59.134Z,,,,,,,,,,,,,,,,53,,,,,,,,,,,,,,576.1919999996608,,response,,,,99,,,,,,,Space,keypress(Space),,,,,,,,---- -- ----- -- ------ - ------- --- ----------<br>------------- ------ ------ ---- ---- ------- ----- -- ----<br>-------- ------- -- ---------- But - --- ----- ----- ----<br>---- --- --- ----- --- ---- ---- ------- ----- ---- -------<br>--- --- -- ----- -- --- ---- -- --- ---- -- ------ ------<br>--- ----- -- ----,136829.71499999985,136827.03999999966,136212.322,136227.0450000001,136250.848,136845.504,,22,But
screen,html.Screen,1_1_0_1_23,2021-04-16T11:31:59.504Z,,,,,,,,,,,,,,,,53,,,,,,,,,,,,,,351.841000000044,,response,,,,99,,,,,,,Space,keypress(Space),,,,,,,,---- -- ----- -- ------ - ------- --- ----------<br>------------- ------ ------ ---- ---- ------- ----- -- ----<br>-------- ------- -- ---------- --- a --- ----- ----- ----<br>---- --- --- ----- --- ---- ---- ------- ----- ---- -------<br>--- --- -- ----- -- --- ---- -- --- ---- -- ------ ------<br>--- ----- -- ----,137199.885,137197.34500000003,136828.962,136830.25999999972,136845.504,137212.127,,23,a
screen,html.Screen,1_1_0_1_24,2021-04-16T11:31:59.855Z,,,,,,,,,,,,,,,,53,,,,,,,,,,,,,,336.5479999999807,,response,,,,99,,,,,,,Space,keypress(Space),,,,,,,,---- -- ----- -- ------ - ------- --- ----------<br>------------- ------ ------ ---- ---- ------- ----- -- ----<br>-------- ------- -- ---------- --- - new ----- ----- ----<br>---- --- --- ----- --- ---- ---- ------- ----- ---- -------<br>--- --- -- ----- -- --- ---- -- --- ---- -- ------ ------<br>--- ----- -- ----,137551.17999999993,137548.675,137195.632,137200.42999999988,137212.127,137562.088,,24,new
screen,html.Screen,1_1_0_1_25,2021-04-16T11:32:00.217Z,,,,,,,,,,,,,,,,53,,,,,,,,,,,,,,347.8670000000857,,response,,,,99,,,,,,,Space,keypress(Space),,,,,,,,---- -- ----- -- ------ - ------- --- ----------<br>------------- ------ ------ ---- ---- ------- ----- -- ----<br>-------- ------- -- ---------- --- - --- study ----- ----<br>---- --- --- ----- --- ---- ---- ------- ----- ---- -------<br>--- --- -- ----- -- --- ---- -- --- ---- -- ------ ------<br>--- ----- -- ----,137912.4750000001,137909.95500000007,137545.641,137551.71999999994,137562.088,137930.17,,25,study
screen,html.Screen,1_1_0_1_26,2021-04-16T11:32:00.609Z,,,,,,,,,,,,,,,,53,,,,,,,,,,,,,,372.4299999999639,,response,,,,99,,,,,,,Space,keypress(Space),,,,,,,,---- -- ----- -- ------ - ------- --- ----------<br>------------- ------ ------ ---- ---- ------- ----- -- ----<br>-------- ------- -- ---------- --- - --- ----- finds ----<br>---- --- --- ----- --- ---- ---- ------- ----- ---- -------<br>--- --- -- ----- -- --- ---- -- --- ---- -- ------ ------<br>--- ----- -- ----,138305.26499999996,138302.59999999998,137912.314,137913.02499999985,137930.17,138312.268,,26,finds
screen,html.Screen,1_1_0_1_27,2021-04-16T11:32:01.020Z,,,,,,,,,,,,,,,,53,,,,,,,,,,,,,,401.3670000000566,,response,,,,99,,,,,,,Space,keypress(Space),,,,,,,,---- -- ----- -- ------ - ------- --- ----------<br>------------- ------ ------ ---- ---- ------- ----- -- ----<br>-------- ------- -- ---------- --- - --- ----- ----- that<br>---- --- --- ----- --- ---- ---- ------- ----- ---- -------<br>--- --- -- ----- -- --- ---- -- --- ---- -- ------ ------<br>--- ----- -- ----,138716.1699999997,138713.63500000007,138295.651,138305.80999999982,138312.268,138728.813,,27,that
screen,html.Screen,1_1_0_1_28,2021-04-16T11:32:01.431Z,,,,,,,,,,,,,,,,53,,,,,,,,,,,,,,396.03699999969103,,response,,,,99,,,,,,,Space,keypress(Space),,,,,,,,---- -- ----- -- ------ - ------- --- ----------<br>------------- ------ ------ ---- ---- ------- ----- -- ----<br>-------- ------- -- ---------- --- - --- ----- ----- ----<br>it's --- --- ----- --- ---- ---- ------- ----- ---- -------<br>--- --- -- ----- -- --- ---- -- --- ---- -- ------ ------<br>--- ----- -- ----,139127.36499999982,139124.8499999997,138712.33,138716.71999999988,138728.813,139162.1,,28,it's
screen,html.Screen,1_1_0_1_29,2021-04-16T11:32:01.863Z,,,,,,,,,,,,,,,,53,,,,,,,,,,,,,,394.03499999979977,,response,,,,99,,,,,,,Space,keypress(Space),,,,,,,,---- -- ----- -- ------ - ------- --- ----------<br>------------- ------ ------ ---- ---- ------- ----- -- ----<br>-------- ------- -- ---------- --- - --- ----- ----- ----<br>---- not --- ----- --- ---- ---- ------- ----- ---- -------<br>--- --- -- ----- -- --- ---- -- --- ---- -- ------ ------<br>--- ----- -- ----,139559.08499999988,139556.1349999998,139145.673,139127.9099999997,139162.1,139562.182,,29,not
screen,html.Screen,1_1_0_1_30,2021-04-16T11:32:02.233Z,,,,,,,,,,,,,,,,53,,,,,,,,,,,,,,363.88300000011805,,response,,,,99,,,,,,,Space,keypress(Space),,,,,,,,---- -- ----- -- ------ - ------- --- ----------<br>------------- ------ ------ ---- ---- ------- ----- -- ----<br>-------- ------- -- ---------- --- - --- ----- ----- ----<br>---- --- how ----- --- ---- ---- ------- ----- ---- -------<br>--- --- -- ----- -- --- ---- -- --- ---- -- ------ ------<br>--- ----- -- ----,139928.52499999982,139926.06500000012,139545.721,139559.62499999988,139562.182,139945.823,,30,how
screen,html.Screen,1_1_0_1_31,2021-04-16T11:32:02.562Z,,,,,,,,,,,,,,,,53,,,,,,,,,,,,,,309.5169999997015,,response,,,,99,,,,,,,Space,keypress(Space),,,,,,,,---- -- ----- -- ------ - ------- --- ----------<br>------------- ------ ------ ---- ---- ------- ----- -- ----<br>-------- ------- -- ---------- --- - --- ----- ----- ----<br>---- --- --- close --- ---- ---- ------- ----- ---- -------<br>--- --- -- ----- -- --- ---- -- --- ---- -- ------ ------<br>--- ----- -- ----,140258.4499999998,140255.3399999997,139929.029,139929.22999999975,139945.823,140278.923,,31,close
screen,html.Screen,1_1_0_1_32,2021-04-16T11:32:02.978Z,,,,,,,,,,,,,,,,53,,,,,,,,,,,,,,392.8019999996759,,response,,,,99,,,,,,,Space,keypress(Space),,,,,,,,---- -- ----- -- ------ - ------- --- ----------<br>------------- ------ ------ ---- ---- ------- ----- -- ----<br>-------- ------- -- ---------- --- - --- ----- ----- ----<br>---- --- --- ----- you ---- ---- ------- ----- ---- -------<br>--- --- -- ----- -- --- ---- -- --- ---- -- ------ ------<br>--- ----- -- ----,140674.27499999985,140671.7249999997,140262.269,140261.5249999999,140278.923,140678.907,,32,you
screen,html.Screen,1_1_0_1_33,2021-04-16T11:32:03.327Z,,,,,,,,,,,,,,,,53,,,,,,,,,,,,,,341.6629999996803,,response,,,,99,,,,,,,Space,keypress(Space),,,,,,,,---- -- ----- -- ------ - ------- --- ----------<br>------------- ------ ------ ---- ---- ------- ----- -- ----<br>-------- ------- -- ---------- --- - --- ----- ----- ----<br>---- --- --- ----- --- feel ---- ------- ----- ---- -------<br>--- --- -- ----- -- --- ---- -- --- ---- -- ------ ------<br>--- ----- -- ----,141023.05499999964,141020.5699999997,140662.424,140674.7849999997,140678.907,141028.856,,33,feel
screen,html.Screen,1_1_0_1_34,2021-04-16T11:32:03.653Z,,,,,,,,,,,,,,,,53,,,,,,,,,,,,,,317.5940000000119,,response,,,,99,,,,,,,Space,keypress(Space),,,,,,,,---- -- ----- -- ------ - ------- --- ----------<br>------------- ------ ------ ---- ---- ------- ----- -- ----<br>-------- ------- -- ---------- --- - --- ----- ----- ----<br>---- --- --- ----- --- ---- that ------- ----- ---- -------<br>--- --- -- ----- -- --- ---- -- --- ---- -- ------ ------<br>--- ----- -- ----,141348.99499999982,141346.45,141012.425,141023.58000000005,141028.856,141362.306,,34,that
screen,html.Screen,1_1_0_1_35,2021-04-16T11:32:04.381Z,,,,,,,,,,,,,,,,53,,,,,,,,,,,,,,711.8539999996428,,response,,,,99,,,,,,,Space,keypress(Space),,,,,,,,---- -- ----- -- ------ - ------- --- ----------<br>------------- ------ ------ ---- ---- ------- ----- -- ----<br>-------- ------- -- ---------- --- - --- ----- ----- ----<br>---- --- --- ----- --- ---- ---- matters ----- ---- -------<br>--- --- -- ----- -- --- ---- -- --- ---- -- ------ ------<br>--- ----- -- ----,142076.72000000003,142074.15999999965,141345.582,141349.52999999997,141362.306,142104.507,,35,matters
screen,html.Screen,1_1_0_1_36,2021-04-16T11:32:04.755Z,,,,,,,,,,,,,,,,53,,,,,,,,,,,,,,343.4829999996582,,response,,,,99,,,,,,,Space,keypress(Space),,,,,,,,"---- -- ----- -- ------ - ------- --- ----------<br>------------- ------ ------ ---- ---- ------- ----- -- ----<br>-------- ------- -- ---------- --- - --- ----- ----- ----<br>---- --- --- ----- --- ---- ---- ------- most, ---- -------<br>--- --- -- ----- -- --- ---- -- --- ---- -- ------ ------<br>--- ----- -- ----",142450.47999999998,142447.98999999967,142062.406,142077.22999999986,142104.507,142462.285,,36,"most,"
screen,html.Screen,1_1_0_1_37,2021-04-16T11:32:05.146Z,,,,,,,,,,,,,,,,53,,,,,,,,,,,,,,377.3149999997986,,response,,,,99,,,,,,,Space,keypress(Space),,,,,,,,---- -- ----- -- ------ - ------- --- ----------<br>------------- ------ ------ ---- ---- ------- ----- -- ----<br>-------- ------- -- ---------- --- - --- ----- ----- ----<br>---- --- --- ----- --- ---- ---- ------- ----- it's -------<br>--- --- -- ----- -- --- ---- -- --- ---- -- ------ ------<br>--- ----- -- ----,142842.09499999997,142839.5999999998,142445.785,142451.00000000003,142462.285,142845.62,,37,it's
screen,html.Screen,1_1_0_1_38,2021-04-16T11:32:05.524Z,,,,,,,,,,,,,,,,53,,,,,,,,,,,,,,372.1649999998335,,response,,,,99,,,,,,,Space,keypress(Space),,,,,,,,---- -- ----- -- ------ - ------- --- ----------<br>------------- ------ ------ ---- ---- ------- ----- -- ----<br>-------- ------- -- ---------- --- - --- ----- ----- ----<br>---- --- --- ----- --- ---- ---- ------- ----- ---- whether<br>--- --- -- ----- -- --- ---- -- --- ---- -- ------ ------<br>--- ----- -- ----,143220.28,143217.78499999983,142829.08,142842.6199999999,142845.62,143228.939,,38,whether
screen,html.Screen,1_1_0_1_39,2021-04-16T11:32:05.941Z,,,,,,,,,,,,,,,,53,,,,,,,,,,,,,,405.83599999998114,,response,,,,99,,,,,,,Space,keypress(Space),,,,,,,,---- -- ----- -- ------ - ------- --- ----------<br>------------- ------ ------ ---- ---- ------- ----- -- ----<br>-------- ------- -- ---------- --- - --- ----- ----- ----<br>---- --- --- ----- --- ---- ---- ------- ----- ---- -------<br>you --- -- ----- -- --- ---- -- --- ---- -- ------ ------<br>--- ----- -- ----,143637.28999999966,143634.775,143212.431,143220.78499999997,143228.939,143645.57,,39,you
screen,html.Screen,1_1_0_1_40,2021-04-16T11:32:06.299Z,,,,,,,,,,,,,,,,53,,,,,,,,,,,,,,347.2249999996566,,response,,,,99,,,,,,,Space,keypress(Space),,,,,,,,---- -- ----- -- ------ - ------- --- ----------<br>------------- ------ ------ ---- ---- ------- ----- -- ----<br>-------- ------- -- ---------- --- - --- ----- ----- ----<br>---- --- --- ----- --- ---- ---- ------- ----- ---- -------<br>--- are -- ----- -- --- ---- -- --- ---- -- ------ ------<br>--- ----- -- ----,143995.23999999973,143992.79499999966,143629.196,143637.81500000006,143645.57,144012.46,,40,are
screen,html.Screen,1_1_0_1_41,2021-04-16T11:32:06.628Z,,,,,,,,,,,,,,,,53,,,,,,,,,,,,,,309.5549999997311,,response,,,,99,,,,,,,Space,keypress(Space),,,,,,,,---- -- ----- -- ------ - ------- --- ----------<br>------------- ------ ------ ---- ---- ------- ----- -- ----<br>-------- ------- -- ---------- --- - --- ----- ----- ----<br>---- --- --- ----- --- ---- ---- ------- ----- ---- -------<br>--- --- as ----- -- --- ---- -- --- ---- -- ------ ------<br>--- ----- -- ----,144324.45999999982,144322.01499999972,143995.778,143995.7449999997,144012.46,144328.987,,41,as
screen,html.Screen,1_1_0_1_42,2021-04-16T11:32:06.984Z,,,,,,,,,,,,,,,,53,,,,,,,,,,,,,,348.08299999972223,,response,,,,99,,,,,,,Space,keypress(Space),,,,,,,,---- -- ----- -- ------ - ------- --- ----------<br>------------- ------ ------ ---- ---- ------- ----- -- ----<br>-------- ------- -- ---------- --- - --- ----- ----- ----<br>---- --- --- ----- --- ---- ---- ------- ----- ---- -------<br>--- --- -- close -- --- ---- -- --- ---- -- ------ ------<br>--- ----- -- ----,144679.56499999992,144677.06999999972,144312.46,144324.99000000008,144328.987,144695.542,,42,close
screen,html.Screen,1_1_0_1_43,2021-04-16T11:32:07.326Z,,,,,,,,,,,,,,,,53,,,,,,,,,,,,,,324.017999999749,,response,,,,99,,,,,,,Space,keypress(Space),,,,,,,,---- -- ----- -- ------ - ------- --- ----------<br>------------- ------ ------ ---- ---- ------- ----- -- ----<br>-------- ------- -- ---------- --- - --- ----- ----- ----<br>---- --- --- ----- --- ---- ---- ------- ----- ---- -------<br>--- --- -- ----- as --- ---- -- --- ---- -- ------ ------<br>--- ----- -- ----,145022.25499999986,145019.55999999974,144679.129,144680.08499999996,144695.542,145045.575,,43,as
screen,html.Screen,1_1_0_1_44,2021-04-16T11:32:07.685Z,,,,,,,,,,,,,,,,53,,,,,,,,,,,,,,332.56999999965774,,response,,,,99,,,,,,,Space,keypress(Space),,,,,,,,---- -- ----- -- ------ - ------- --- ----------<br>------------- ------ ------ ---- ---- ------- ----- -- ----<br>-------- ------- -- ---------- --- - --- ----- ----- ----<br>---- --- --- ----- --- ---- ---- ------- ----- ---- -------<br>--- --- -- ----- -- you ---- -- --- ---- -- ------ ------<br>--- ----- -- ----,145381.23499999984,145378.14499999967,145028.892,145029.11499999982,145045.575,145395.882,,44,you
screen,html.Screen,1_1_0_1_45,2021-04-16T11:32:08.064Z,,,,,,,,,,,,,,,,53,,,,,,,,,,,,,,362.15299999981653,,response,,,,99,,,,,,,Space,keypress(Space),,,,,,,,---- -- ----- -- ------ - ------- --- ----------<br>------------- ------ ------ ---- ---- ------- ----- -- ----<br>-------- ------- -- ---------- --- - --- ----- ----- ----<br>---- --- --- ----- --- ---- ---- ------- ----- ---- -------<br>--- --- -- ----- -- --- want -- --- ---- -- ------ ------<br>--- ----- -- ----,145760.41499999975,145758.03499999983,145379.159,145381.71999999986,145395.882,145787.102,,45,want
screen,html.Screen,1_1_0_1_46,2021-04-16T11:32:08.419Z,,,,,,,,,,,,,,,,53,,,,,,,,,,,,,,325.7029999997467,,response,,,,99,,,,,,,Space,keypress(Space),,,,,,,,---- -- ----- -- ------ - ------- --- ----------<br>------------- ------ ------ ---- ---- ------- ----- -- ----<br>-------- ------- -- ---------- --- - --- ----- ----- ----<br>---- --- --- ----- --- ---- ---- ------- ----- ---- -------<br>--- --- -- ----- -- --- ---- to --- ---- -- ------ ------<br>--- ----- -- ----,146115.27999999997,146112.80499999976,145745.815,145760.90999999997,145787.102,146129.299,,46,to
screen,html.Screen,1_1_0_1_47,2021-04-16T11:32:08.760Z,,,,,,,,,,,,,,,,53,,,,,,,,,,,,,,323.771000000037,,response,,,,99,,,,,,,Space,keypress(Space),,,,,,,,"---- -- ----- -- ------ - ------- --- ----------<br>------------- ------ ------ ---- ---- ------- ----- -- ----<br>-------- ------- -- ---------- --- - --- ----- ----- ----<br>---- --- --- ----- --- ---- ---- ------- ----- ---- -------<br>--- --- -- ----- -- --- ---- -- be, ---- -- ------ ------<br>--- ----- -- ----",146455.48999999982,146453.07000000004,146112.488,146115.7599999997,146129.299,146462.297,,47,"be,"
screen,html.Screen,1_1_0_1_48,2021-04-16T11:32:09.090Z,,,,,,,,,,,,,,,,53,,,,,,,,,,,,,,322.4230000001262,,response,,,,99,,,,,,,Space,keypress(Space),,,,,,,,---- -- ----- -- ------ - ------- --- ----------<br>------------- ------ ------ ---- ---- ------- ----- -- ----<br>-------- ------- -- ---------- --- - --- ----- ----- ----<br>---- --- --- ----- --- ---- ---- ------- ----- ---- -------<br>--- --- -- ----- -- --- ---- -- --- even -- ------ ------<br>--- ----- -- ----,146786.1250000001,146784.72000000012,146445.844,146455.9650000001,146462.297,146795.649,,48,even
screen,html.Screen,1_1_0_1_49,2021-04-16T11:32:09.415Z,,,,,,,,,,,,,,,,53,,,,,,,,,,,,,,313.1009999998787,,response,,,,99,,,,,,,Space,keypress(Space),,,,,,,,---- -- ----- -- ------ - ------- --- ----------<br>------------- ------ ------ ---- ---- ------- ----- -- ----<br>-------- ------- -- ---------- --- - --- ----- ----- ----<br>---- --- --- ----- --- ---- ---- ------- ----- ---- -------<br>--- --- -- ----- -- --- ---- -- --- ---- if ------ ------<br>--- ----- -- ----,147111.12000000002,147108.74999999988,146778.975,146786.3299999999,146795.649,147129.573,,49,if
screen,html.Screen,1_1_0_1_50,2021-04-16T11:32:09.787Z,,,,,,,,,,,,,,,,53,,,,,,,,,,,,,,350.53200000009383,,response,,,,99,,,,,,,Space,keypress(Space),,,,,,,,---- -- ----- -- ------ - ------- --- ----------<br>------------- ------ ------ ---- ---- ------- ----- -- ----<br>-------- ------- -- ---------- --- - --- ----- ----- ----<br>---- --- --- ----- --- ---- ---- ------- ----- ---- -------<br>--- --- -- ----- -- --- ---- -- --- ---- -- that's ------<br>--- ----- -- ----,147482.575,147480.1050000001,147112.32,147111.60999999993,147129.573,147495.708,,50,that's
screen,html.Screen,1_1_0_1_51,2021-04-16T11:32:10.150Z,,,,,,,,,,,,,,,,53,,,,,,,,,,,,,,348.69699999981094,,response,,,,99,,,,,,,Space,keypress(Space),,,,,,,,---- -- ----- -- ------ - ------- --- ----------<br>------------- ------ ------ ---- ---- ------- ----- -- ----<br>-------- ------- -- ---------- --- - --- ----- ----- ----<br>---- --- --- ----- --- ---- ---- ------- ----- ---- -------<br>--- --- -- ----- -- --- ---- -- --- ---- -- ------ really<br>--- ----- -- ----,147845.8099999998,147844.40499999982,147479.285,147483.04499999995,147495.708,147862.34,,51,really
screen,html.Screen,1_1_0_1_52,2021-04-16T11:32:10.540Z,,,,,,,,,,,,,,,,53,,,,,,,,,,,,,,371.3599999997823,,response,,,,99,,,,,,,Space,keypress(Space),,,,,,,,---- -- ----- -- ------ - ------- --- ----------<br>------------- ------ ------ ---- ---- ------- ----- -- ----<br>-------- ------- -- ---------- --- - --- ----- ----- ----<br>---- --- --- ----- --- ---- ---- ------- ----- ---- -------<br>--- --- -- ----- -- --- ---- -- --- ---- -- ------ ------<br>not ----- -- ----,148236.18499999976,148233.69999999978,147845.687,147846.01500000007,147862.34,148246.293,,52,not
screen,html.Screen,1_1_0_1_53,2021-04-16T11:32:10.877Z,,,,,,,,,,,,,,,,53,,,,,,,,,,,,,,323.9869999999064,,response,,,,99,,,,,,,Space,keypress(Space),,,,,,,,---- -- ----- -- ------ - ------- --- ----------<br>------------- ------ ------ ---- ---- ------- ----- -- ----<br>-------- ------- -- ---------- --- - --- ----- ----- ----<br>---- --- --- ----- --- ---- ---- ------- ----- ---- -------<br>--- --- -- ----- -- --- ---- -- --- ---- -- ------ ------<br>--- close -- ----,148572.67999999976,148570.2799999999,148229.326,148236.6649999999,148246.293,148579.007,,53,close
screen,html.Screen,1_1_0_1_54,2021-04-16T11:32:11.237Z,,,,,,,,,,,,,,,,53,,,,,,,,,,,,,,352.03799999979674,,response,,,,99,,,,,,,Space,keypress(Space),,,,,,,,---- -- ----- -- ------ - ------- --- ----------<br>------------- ------ ------ ---- ---- ------- ----- -- ----<br>-------- ------- -- ---------- --- - --- ----- ----- ----<br>---- --- --- ----- --- ---- ---- ------- ----- ---- -------<br>--- --- -- ----- -- --- ---- -- --- ---- -- ------ ------<br>--- ----- at ----,148933.4349999999,148931.0449999998,148562.537,148573.1649999998,148579.007,148945.754,,54,at
screen,html.Screen,1_1_0_1_55,2021-04-16T11:32:11.824Z,,,,,,,,,,,,,,,,53,,,,,,,,,,,,,,571.9410000000207,,response,,,,99,,,,,,,Space,keypress(Space),,,,,,,,---- -- ----- -- ------ - ------- --- ----------<br>------------- ------ ------ ---- ---- ------- ----- -- ----<br>-------- ------- -- ---------- --- - --- ----- ----- ----<br>---- --- --- ----- --- ---- ---- ------- ----- ---- -------<br>--- --- -- ----- -- --- ---- -- --- ---- -- ------ ------<br>--- ----- -- all.,149520.05000000008,149517.695,148929.038,148933.9399999999,148945.754,149545.769,,55,all.
Item 99,flow.Loop,1_1_0_1,2021-04-16T11:32:11.825Z,,,,,,,,,,,,,,,,,,,,,,,,,,,,,,22622.466,,completion,,,,,C,,,,,,,,,,,silence,,,,,149521.12499999977,149517.695,126828.746,126831.25999999992,126895.229,149545.769,,,
Question 1,html.Screen,1_1_0_2,2021-04-16T11:32:23.085Z,,,,,,,,,,,,,,,,,,,,,,,,,,,false,FALSE,,11231.035999999964,,response,,,,99,C,,,,,,TRUE,click #choice-1,,,,silence,,,,,160780.9649999999,160776.80499999996,149512.57,149521.64499999981,149545.769,160808.784,,,
Question 2,html.Screen,1_1_0_3,2021-04-16T11:32:29.211Z,,,,,,,,,,,,,,,,,,,,,,,,,,,true,TRUE,,6095.885999999882,,response,,,,99,C,,,,,,TRUE,click #choice-1,,,,silence,,,,,166906.71999999994,166904.6699999999,160762.818,160781.46500000003,160808.784,166912.796,,,
Item 99,flow.Sequence,1_1_0,2021-04-16T11:32:29.211Z,,,,,,,,,,,,,,,,,,,,,,,,,,,,,,50059.703999999896,,completion,,,,,,,,,,,,,,,,,,,,,166907.36500000002,166904.6699999999,116811.844,116826.88499999995,116844.966,166912.796,,,
Holding screen,html.Screen,1_1_1_0,2021-04-16T11:32:39.203Z,,,,,,,,,,,,,,,,,,,,,,,,,,,,,,10000.241000000009,,timeout,,,,,,,,,,,,,,,,,,,,,176898.15499999985,176896.495,166896.283,166907.82499999978,166912.796,176913.037,,,
screen,html.Screen,1_1_1_1_0,2021-04-16T11:32:40.130Z,,,,,,,,,,,,,,,,54,,,,,,,,,,,,,,910.0179999998363,,response,,,,100,,,,,,,Space,keypress(Space),,,,,,,,At --- ---- --- ------ ----- ------- ---- -- --- ------- --<br>------- ---------- ------ -- ----- -- ----- -- ---- ------<br>--- ----- --- --- ------ -------- ----- --- ------ ----- --<br>----- ----- ---------- --- --- ------ ------ ---- -- ------<br>------- --- ------ ----- --- ---- ------- -- ---- --- --<br>------- ------,177825.89000000007,177823.05499999985,176896.495,176898.8199999999,176913.037,177829.716,,0,At
screen,html.Screen,1_1_1_1_1,2021-04-16T11:32:40.592Z,,,,,,,,,,,,,,,,54,,,,,,,,,,,,,,455.38400000007823,,response,,,,100,,,,,,,Space,keypress(Space),,,,,,,,-- the ---- --- ------ ----- ------- ---- -- --- ------- --<br>------- ---------- ------ -- ----- -- ----- -- ---- ------<br>--- ----- --- --- ------ -------- ----- --- ------ ----- --<br>----- ----- ---------- --- --- ------ ------ ---- -- ------<br>------- --- ------ ----- --- ---- ------- -- ---- --- --<br>------- ------,178287.17499999993,178285.10000000006,177813.208,177826.38999999972,177829.716,178297.271,,1,the
screen,html.Screen,1_1_1_1_2,2021-04-16T11:32:41.018Z,,,,,,,,,,,,,,,,54,,,,,,,,,,,,,,414.38899999993737,,response,,,,100,,,,,,,Space,keypress(Space),,,,,,,,-- --- time --- ------ ----- ------- ---- -- --- ------- --<br>------- ---------- ------ -- ----- -- ----- -- ---- ------<br>--- ----- --- --- ------ -------- ----- --- ------ ----- --<br>----- ----- ---------- --- --- ------ ------ ---- -- ------<br>------- --- ------ ----- --- ---- ------- -- ---- --- --<br>------- ------,178713.83500000002,178711.65999999995,178279.827,178287.64499999987,178297.271,178729.648,,2,time
screen,html.Screen,1_1_1_1_3,2021-04-16T11:32:41.472Z,,,,,,,,,,,,,,,,54,,,,,,,,,,,,,,435.15200000003097,,response,,,,100,,,,,,,Space,keypress(Space),,,,,,,,-- --- ---- the ------ ----- ------- ---- -- --- ------- --<br>------- ---------- ------ -- ----- -- ----- -- ---- ------<br>--- ----- --- --- ------ -------- ----- --- ------ ----- --<br>----- ----- ---------- --- --- ------ ------ ---- -- ------<br>------- --- ------ ----- --- ---- ------- -- ---- --- --<br>------- ------,179167.21000000008,179164.80000000002,178713.208,178714.4049999997,178729.648,179179.706,,3,the
screen,html.Screen,1_1_1_1_4,2021-04-16T11:32:41.990Z,,,,,,,,,,,,,,,,54,,,,,,,,,,,,,,503.5389999996987,,response,,,,100,,,,,,,Space,keypress(Space),,,,,,,,-- --- ---- --- French ----- ------- ---- -- --- ------- --<br>------- ---------- ------ -- ----- -- ----- -- ---- ------<br>--- ----- --- --- ------ -------- ----- --- ------ ----- --<br>----- ----- ---------- --- --- ------ ------ ---- -- ------<br>------- --- ------ ----- --- ---- ------- -- ---- --- --<br>------- ------,179685.41499999992,179683.2449999997,179163.25,179167.735,179179.706,179696.346,,4,French
screen,html.Screen,1_1_1_1_5,2021-04-16T11:32:42.447Z,,,,,,,,,,,,,,,,54,,,,,,,,,,,,,,443.42900000012014,,response,,,,100,,,,,,,Space,keypress(Space),,,,,,,,-- --- ---- --- ------ crown ------- ---- -- --- ------- --<br>------- ---------- ------ -- ----- -- ----- -- ---- ------<br>--- ----- --- --- ------ -------- ----- --- ------ ----- --<br>----- ----- ---------- --- --- ------ ------ ---- -- ------<br>------- --- ------ ----- --- ---- ------- -- ---- --- --<br>------- ------,180142.1150000001,180139.7750000001,179679.786,179685.89500000008,179696.346,180146.438,,5,crown
screen,html.Screen,1_1_1_1_6,2021-04-16T11:32:42.909Z,,,,,,,,,,,,,,,,54,,,,,,,,,,,,,,455.93699999994715,,response,,,,100,,,,,,,Space,keypress(Space),,,,,,,,-- --- ---- --- ------ ----- secured ---- -- --- ------- --<br>------- ---------- ------ -- ----- -- ----- -- ---- ------<br>--- ----- --- --- ------ -------- ----- --- ------ ----- --<br>----- ----- ---------- --- --- ------ ------ ---- -- ------<br>------- --- ------ ----- --- ---- ------- -- ---- --- --<br>------- ------,180604.69999999987,180602.37499999994,180129.792,180142.5999999997,180146.438,180613.031,,6,secured
screen,html.Screen,1_1_1_1_7,2021-04-16T11:32:43.537Z,,,,,,,,,,,,,,,,54,,,,,,,,,,,,,,617.329000000027,,response,,,,100,,,,,,,Space,keypress(Space),,,,,,,,-- --- ---- --- ------ ----- ------- much -- --- ------- --<br>------- ---------- ------ -- ----- -- ----- -- ---- ------<br>--- ----- --- --- ------ -------- ----- --- ------ ----- --<br>----- ----- ---------- --- --- ------ ------ ---- -- ------<br>------- --- ------ ----- --- ---- ------- -- ---- --- --<br>------- ------,181232.71500000008,181230.36000000002,180596.653,180605.25000000006,180613.031,181246.542,,7,much
screen,html.Screen,1_1_1_1_8,2021-04-16T11:32:43.959Z,,,,,,,,,,,,,,,,54,,,,,,,,,,,,,,405.067999999912,,response,,,,100,,,,,,,Space,keypress(Space),,,,,,,,-- --- ---- --- ------ ----- ------- ---- of --- ------- --<br>------- ---------- ------ -- ----- -- ----- -- ---- ------<br>--- ----- --- --- ------ -------- ----- --- ------ ----- --<br>----- ----- ---------- --- --- ------ ------ ---- -- ------<br>------- --- ------ ----- --- ---- ------- -- ---- --- --<br>------- ------,181654.55999999994,181651.6099999999,181230.015,181233.26499999984,181246.542,181663.1,,8,of
screen,html.Screen,1_1_1_1_9,2021-04-16T11:32:44.360Z,,,,,,,,,,,,,,,,54,,,,,,,,,,,,,,389.4999999999709,,response,,,,100,,,,,,,Space,keypress(Space),,,,,,,,-- --- ---- --- ------ ----- ------- ---- -- its ------- --<br>------- ---------- ------ -- ----- -- ----- -- ---- ------<br>--- ----- --- --- ------ -------- ----- --- ------ ----- --<br>----- ----- ---------- --- --- ------ ------ ---- -- ------<br>------- --- ------ ----- --- ---- ------- -- ---- --- --<br>------- ------,182055.21499999985,182052.59999999998,181646.679,181655.0299999999,181663.1,182063.059,,9,its
screen,html.Screen,1_1_1_1_10,2021-04-16T11:32:44.848Z,,,,,,,,,,,,,,,,54,,,,,,,,,,,,,,477.58600000003935,,response,,,,100,,,,,,,Space,keypress(Space),,,,,,,,-- --- ---- --- ------ ----- ------- ---- -- --- revenue --<br>------- ---------- ------ -- ----- -- ----- -- ---- ------<br>--- ----- --- --- ------ -------- ----- --- ------ ----- --<br>----- ----- ---------- --- --- ------ ------ ---- -- ------<br>------- --- ------ ----- --- ---- ------- -- ---- --- --<br>------- ------,182543.24499999985,182540.64500000005,182046.567,182055.73000000004,182063.059,182546.451,,10,revenue
screen,html.Screen,1_1_1_1_11,2021-04-16T11:32:45.311Z,,,,,,,,,,,,,,,,54,,,,,,,,,,,,,,457.03399999972316,,response,,,,100,,,,,,,Space,keypress(Space),,,,,,,,-- --- ---- --- ------ ----- ------- ---- -- --- ------- by<br>------- ---------- ------ -- ----- -- ----- -- ---- ------<br>--- ----- --- --- ------ -------- ----- --- ------ ----- --<br>----- ----- ---------- --- --- ------ ------ ---- -- ------<br>------- --- ------ ----- --- ---- ------- -- ---- --- --<br>------- ------,183006.19499999995,183003.48499999972,182529.949,182543.71999999968,182546.451,183013.177,,11,by
screen,html.Screen,1_1_1_1_12,2021-04-16T11:32:45.869Z,,,,,,,,,,,,,,,,54,,,,,,,,,,,,,,550.1130000000412,,response,,,,100,,,,,,,Space,keypress(Space),,,,,,,,-- --- ---- --- ------ ----- ------- ---- -- --- ------- --<br>issuing ---------- ------ -- ----- -- ----- -- ---- ------<br>--- ----- --- --- ------ -------- ----- --- ------ ----- --<br>----- ----- ---------- --- --- ------ ------ ---- -- ------<br>------- --- ------ ----- --- ---- ------- -- ---- --- --<br>------- ------,183564.67500000008,183563.29000000004,182996.628,183006.66999999975,183013.177,183580.302,,12,issuing
screen,html.Screen,1_1_1_1_13,2021-04-16T11:32:46.411Z,,,,,,,,,,,,,,,,54,,,,,,,,,,,,,,523.0629999999364,,response,,,,100,,,,,,,Space,keypress(Space),,,,,,,,-- --- ---- --- ------ ----- ------- ---- -- --- ------- --<br>------- government ------ -- ----- -- ----- -- ---- ------<br>--- ----- --- --- ------ -------- ----- --- ------ ----- --<br>----- ----- ---------- --- --- ------ ------ ---- -- ------<br>------- --- ------ ----- --- ---- ------- -- ---- --- --<br>------- ------,184105.99499999988,184103.36499999993,183563.409,183564.91000000006,183580.302,184113.179,,13,government
screen,html.Screen,1_1_1_1_14,2021-04-16T11:32:46.873Z,,,,,,,,,,,,,,,,54,,,,,,,,,,,,,,452.85599999982514,,response,,,,100,,,,,,,Space,keypress(Space),,,,,,,,-- --- ---- --- ------ ----- ------- ---- -- --- ------- --<br>------- ---------- bonds. -- ----- -- ----- -- ---- ------<br>--- ----- --- --- ------ -------- ----- --- ------ ----- --<br>----- ----- ---------- --- --- ------ ------ ---- -- ------<br>------- --- ------ ----- --- ---- ------- -- ---- --- --<br>------- ------,184568.5349999999,184566.03499999983,184096.475,184106.57499999978,184113.179,184579.785,,14,bonds.
screen,html.Screen,1_1_1_1_15,2021-04-16T11:32:47.331Z,,,,,,,,,,,,,,,,54,,,,,,,,,,,,,,444.3049999998766,,response,,,,100,,,,,,,Space,keypress(Space),,,,,,,,-- --- ---- --- ------ ----- ------- ---- -- --- ------- --<br>------- ---------- ------ In ----- -- ----- -- ---- ------<br>--- ----- --- --- ------ -------- ----- --- ------ ----- --<br>----- ----- ---------- --- --- ------ ------ ---- -- ------<br>------- --- ------ ----- --- ---- ------- -- ---- --- --<br>------- ------,185026.605,185024.08999999988,184563.407,184569.00999999972,184579.785,185029.886,,15,In
screen,html.Screen,1_1_1_1_16,2021-04-16T11:32:47.837Z,,,,,,,,,,,,,,,,54,,,,,,,,,,,,,,500.09399999980815,,response,,,,100,,,,,,,Space,keypress(Space),,,,,,,,"-- --- ---- --- ------ ----- ------- ---- -- --- ------- --<br>------- ---------- ------ -- 1727, -- ----- -- ---- ------<br>--- ----- --- --- ------ -------- ----- --- ------ ----- --<br>----- ----- ---------- --- --- ------ ------ ---- -- ------<br>------- --- ------ ----- --- ---- ------- -- ---- --- --<br>------- ------",185532.4149999997,185529.9799999998,185013.426,185027.0949999999,185029.886,185546.633,,16,"1727,"
screen,html.Screen,1_1_1_1_17,2021-04-16T11:32:50.681Z,,,,,,,,,,,,,,,,54,,,,,,,,,,,,,,2826.8119999997143,,response,,,,100,,,,,,,Space,keypress(Space),,,,,,,,-- --- ---- --- ------ ----- ------- ---- -- --- ------- --<br>------- ---------- ------ -- ----- in ----- -- ---- ------<br>--- ----- --- --- ------ -------- ----- --- ------ ----- --<br>----- ----- ---------- --- --- ------ ------ ---- -- ------<br>------- --- ------ ----- --- ---- ------- -- ---- --- --<br>------- ------,188376.24499999994,188373.44499999972,185530.33,185532.8999999997,185546.633,188379.952,,17,in
screen,html.Screen,1_1_1_1_18,2021-04-16T11:32:51.608Z,,,,,,,,,,,,,,,,54,,,,,,,,,,,,,,921.1479999996955,,response,,,,100,,,,,,,Space,keypress(Space),,,,,,,,-- --- ---- --- ------ ----- ------- ---- -- --- ------- --<br>------- ---------- ------ -- ----- -- order -- ---- ------<br>--- ----- --- --- ------ -------- ----- --- ------ ----- --<br>----- ----- ---------- --- --- ------ ------ ---- -- ------<br>------- --- ------ ----- --- ---- ------- -- ---- --- --<br>------- ------,189303.69500000007,189301.0999999997,188363.395,188376.74500000002,188379.952,189313.885,,18,order
screen,html.Screen,1_1_1_1_19,2021-04-16T11:32:52.058Z,,,,,,,,,,,,,,,,54,,,,,,,,,,,,,,437.11499999972875,,response,,,,100,,,,,,,Space,keypress(Space),,,,,,,,-- --- ---- --- ------ ----- ------- ---- -- --- ------- --<br>------- ---------- ------ -- ----- -- ----- to ---- ------<br>--- ----- --- --- ------ -------- ----- --- ------ ----- --<br>----- ----- ---------- --- --- ------ ------ ---- -- ------<br>------- --- ------ ----- --- ---- ------- -- ---- --- --<br>------- ------,189753.47000000012,189750.99999999974,189296.765,189304.18000000008,189313.885,189763.233,,19,to
screen,html.Screen,1_1_1_1_20,2021-04-16T11:32:52.848Z,,,,,,,,,,,,,,,,54,,,,,,,,,,,,,,769.8169999999809,,response,,,,100,,,,,,,Space,keypress(Space),,,,,,,,-- --- ---- --- ------ ----- ------- ---- -- --- ------- --<br>------- ---------- ------ -- ----- -- ----- -- save ------<br>--- ----- --- --- ------ -------- ----- --- ------ ----- --<br>----- ----- ---------- --- --- ------ ------ ---- -- ------<br>------- --- ------ ----- --- ---- ------- -- ---- --- --<br>------- ------,190543.83000000007,190533.05,189746.821,189754.03499999992,189763.233,190546.578,,20,save
screen,html.Screen,1_1_1_1_21,2021-04-16T11:32:53.427Z,,,,,,,,,,,,,,,,54,,,,,,,,,,,,,,573.2469999997702,,response,,,,100,,,,,,,Space,keypress(Space),,,,,,,,"-- --- ---- --- ------ ----- ------- ---- -- --- ------- --<br>------- ---------- ------ -- ----- -- ----- -- ---- money,<br>--- ----- --- --- ------ -------- ----- --- ------ ----- --<br>----- ----- ---------- --- --- ------ ------ ---- -- ------<br>------- --- ------ ----- --- ---- ------- -- ---- --- --<br>------- ------",191122.22500000006,191119.82499999978,190530.137,190544.48,190546.578,191129.963,,21,"money,"
screen,html.Screen,1_1_1_1_22,2021-04-16T11:32:53.858Z,,,,,,,,,,,,,,,,54,,,,,,,,,,,,,,421.13699999969685,,response,,,,100,,,,,,,Space,keypress(Space),,,,,,,,-- --- ---- --- ------ ----- ------- ---- -- --- ------- --<br>------- ---------- ------ -- ----- -- ----- -- ---- ------<br>the ----- --- --- ------ -------- ----- --- ------ ----- --<br>----- ----- ---------- --- --- ------ ------ ---- -- ------<br>------- --- ------ ----- --- ---- ------- -- ---- --- --<br>------- ------,191553.54499999975,191551.0999999997,191113.477,191122.71999999986,191129.963,191563.38,,22,the
screen,html.Screen,1_1_1_1_23,2021-04-16T11:32:54.411Z,,,,,,,,,,,,,,,,54,,,,,,,,,,,,,,541.2699999997567,,response,,,,100,,,,,,,Space,keypress(Space),,,,,,,,-- --- ---- --- ------ ----- ------- ---- -- --- ------- --<br>------- ---------- ------ -- ----- -- ----- -- ---- ------<br>--- state --- --- ------ -------- ----- --- ------ ----- --<br>----- ----- ---------- --- --- ------ ------ ---- -- ------<br>------- --- ------ ----- --- ---- ------- -- ---- --- --<br>------- ------,192106.11500000005,192104.64999999976,191546.888,191554.1149999999,191563.38,192113.322,,23,state
screen,html.Screen,1_1_1_1_24,2021-04-16T11:32:54.790Z,,,,,,,,,,,,,,,,54,,,,,,,,,,,,,,369.2229999998526,,response,,,,100,,,,,,,Space,keypress(Space),,,,,,,,-- --- ---- --- ------ ----- ------- ---- -- --- ------- --<br>------- ---------- ------ -- ----- -- ----- -- ---- ------<br>--- ----- cut --- ------ -------- ----- --- ------ ----- --<br>----- ----- ---------- --- --- ------ ------ ---- -- ------<br>------- --- ------ ----- --- ---- ------- -- ---- --- --<br>------- ------,192485.14999999997,192482.54499999984,192096.912,192106.32499999975,192113.322,192496.713,,24,cut
screen,html.Screen,1_1_1_1_25,2021-04-16T11:32:55.200Z,,,,,,,,,,,,,,,,54,,,,,,,,,,,,,,395.9420000001264,,response,,,,100,,,,,,,Space,keypress(Space),,,,,,,,-- --- ---- --- ------ ----- ------- ---- -- --- ------- --<br>------- ---------- ------ -- ----- -- ----- -- ---- ------<br>--- ----- --- the ------ -------- ----- --- ------ ----- --<br>----- ----- ---------- --- --- ------ ------ ---- -- ------<br>------- --- ------ ----- --- ---- ------- -- ---- --- --<br>------- ------,192895.36499999985,192892.65500000012,192480.212,192485.67000000004,192496.713,192930.463,,25,the
screen,html.Screen,1_1_1_1_26,2021-04-16T11:32:55.590Z,,,,,,,,,,,,,,,,54,,,,,,,,,,,,,,352.5769999998156,,response,,,,100,,,,,,,Space,keypress(Space),,,,,,,,-- --- ---- --- ------ ----- ------- ---- -- --- ------- --<br>------- ---------- ------ -- ----- -- ----- -- ---- ------<br>--- ----- --- --- bonds' -------- ----- --- ------ ----- --<br>----- ----- ---------- --- --- ------ ------ ---- -- ------<br>------- --- ------ ----- --- ---- ------- -- ---- --- --<br>------- ------,193285.73000000007,193283.0399999998,192913.521,192895.83999999968,192930.463,193296.644,,26,bonds'
screen,html.Screen,1_1_1_1_27,2021-04-16T11:32:56.156Z,,,,,,,,,,,,,,,,54,,,,,,,,,,,,,,552.3459999999614,,response,,,,100,,,,,,,Space,keypress(Space),,,,,,,,-- --- ---- --- ------ ----- ------- ---- -- --- ------- --<br>------- ---------- ------ -- ----- -- ----- -- ---- ------<br>--- ----- --- --- ------ interest ----- --- ------ ----- --<br>----- ----- ---------- --- --- ------ ------ ---- -- ------<br>------- --- ------ ----- --- ---- ------- -- ---- --- --<br>------- ------,193851.51499999984,193848.98999999996,193280.136,193286.20999999976,193296.644,193863.447,,27,interest
screen,html.Screen,1_1_1_1_28,2021-04-16T11:32:56.801Z,,,,,,,,,,,,,,,,54,,,,,,,,,,,,,,630.5380000000878,,response,,,,100,,,,,,,Space,keypress(Space),,,,,,,,-- --- ---- --- ------ ----- ------- ---- -- --- ------- --<br>------- ---------- ------ -- ----- -- ----- -- ---- ------<br>--- ----- --- --- ------ -------- rate. --- ------ ----- --<br>----- ----- ---------- --- --- ------ ------ ---- -- ------<br>------- --- ------ ----- --- ---- ------- -- ---- --- --<br>------- ------,194496.6049999998,194493.98500000007,193846.868,193851.98499999978,193863.447,194513.422,,28,rate.
screen,html.Screen,1_1_1_1_29,2021-04-16T11:32:57.477Z,,,,,,,,,,,,,,,,54,,,,,,,,,,,,,,656.4979999998177,,response,,,,100,,,,,,,Space,keypress(Space),,,,,,,,-- --- ---- --- ------ ----- ------- ---- -- --- ------- --<br>------- ---------- ------ -- ----- -- ----- -- ---- ------<br>--- ----- --- --- ------ -------- ----- The ------ ----- --<br>----- ----- ---------- --- --- ------ ------ ---- -- ------<br>------- --- ------ ----- --- ---- ------- -- ---- --- --<br>------- ------,195172.39500000005,195169.9199999998,194496.883,194497.10000000003,194513.422,195180.096,,29,The
screen,html.Screen,1_1_1_1_30,2021-04-16T11:32:57.909Z,,,,,,,,,,,,,,,,54,,,,,,,,,,,,,,420.4190000000817,,response,,,,100,,,,,,,Space,keypress(Space),,,,,,,,-- --- ---- --- ------ ----- ------- ---- -- --- ------- --<br>------- ---------- ------ -- ----- -- ----- -- ---- ------<br>--- ----- --- --- ------ -------- ----- --- market ----- --<br>----- ----- ---------- --- --- ------ ------ ---- -- ------<br>------- --- ------ ----- --- ---- ------- -- ---- --- --<br>------- ------,195604.6449999999,195600.51500000007,195163.566,195172.86999999988,195180.096,195613.392,,30,market
screen,html.Screen,1_1_1_1_31,2021-04-16T11:32:58.277Z,,,,,,,,,,,,,,,,54,,,,,,,,,,,,,,356.81300000008196,,response,,,,100,,,,,,,Space,keypress(Space),,,,,,,,-- --- ---- --- ------ ----- ------- ---- -- --- ------- --<br>------- ---------- ------ -- ----- -- ----- -- ---- ------<br>--- ----- --- --- ------ -------- ----- --- ------ value --<br>----- ----- ---------- --- --- ------ ------ ---- -- ------<br>------- --- ------ ----- --- ---- ------- -- ---- --- --<br>------- ------,195972.7499999999,195970.20500000007,195596.86,195605.12999999992,195613.392,195980.025,,31,value
screen,html.Screen,1_1_1_1_32,2021-04-16T11:32:58.662Z,,,,,,,,,,,,,,,,54,,,,,,,,,,,,,,374.99499999996624,,response,,,,100,,,,,,,Space,keypress(Space),,,,,,,,-- --- ---- --- ------ ----- ------- ---- -- --- ------- --<br>------- ---------- ------ -- ----- -- ----- -- ---- ------<br>--- ----- --- --- ------ -------- ----- --- ------ ----- of<br>----- ----- ---------- --- --- ------ ------ ---- -- ------<br>------- --- ------ ----- --- ---- ------- -- ---- --- --<br>------- ------,196357.41000000006,196355.01999999996,195963.583,195973.22499999974,195980.025,196363.459,,32,of
screen,html.Screen,1_1_1_1_33,2021-04-16T11:32:59.091Z,,,,,,,,,,,,,,,,54,,,,,,,,,,,,,,419.91599999996834,,response,,,,100,,,,,,,Space,keypress(Space),,,,,,,,-- --- ---- --- ------ ----- ------- ---- -- --- ------- --<br>------- ---------- ------ -- ----- -- ----- -- ---- ------<br>--- ----- --- --- ------ -------- ----- --- ------ ----- --<br>these ----- ---------- --- --- ------ ------ ---- -- ------<br>------- --- ------ ----- --- ---- ------- -- ---- --- --<br>------- ------,196786.0599999999,196783.37499999997,196347.017,196357.89999999997,196363.459,196796.804,,33,these
screen,html.Screen,1_1_1_1_34,2021-04-16T11:32:59.507Z,,,,,,,,,,,,,,,,54,,,,,,,,,,,,,,403.22100000007777,,response,,,,100,,,,,,,Space,keypress(Space),,,,,,,,-- --- ---- --- ------ ----- ------- ---- -- --- ------- --<br>------- ---------- ------ -- ----- -- ----- -- ---- ------<br>--- ----- --- --- ------ -------- ----- --- ------ ----- --<br>----- bonds ---------- --- --- ------ ------ ---- -- ------<br>------- --- ------ ----- --- ---- ------- -- ---- --- --<br>------- ------,197202.41499999975,197200.02500000008,196780.263,196786.54000000007,196796.804,197213.455,,34,bonds
screen,html.Screen,1_1_1_1_35,2021-04-16T11:33:00.027Z,,,,,,,,,,,,,,,,54,,,,,,,,,,,,,,505.47999999989406,,response,,,,100,,,,,,,Space,keypress(Space),,,,,,,,"-- --- ---- --- ------ ----- ------- ---- -- --- ------- --<br>------- ---------- ------ -- ----- -- ----- -- ---- ------<br>--- ----- --- --- ------ -------- ----- --- ------ ----- --<br>----- ----- plummeted, --- --- ------ ------ ---- -- ------<br>------- --- ------ ----- --- ---- ------- -- ---- --- --<br>------- ------",197722.23499999972,197718.93499999988,197197,197202.9050000001,197213.455,197730.092,,35,"plummeted,"
screen,html.Screen,1_1_1_1_36,2021-04-16T11:33:00.461Z,,,,,,,,,,,,,,,,54,,,,,,,,,,,,,,424.7530000000261,,response,,,,100,,,,,,,Space,keypress(Space),,,,,,,,-- --- ---- --- ------ ----- ------- ---- -- --- ------- --<br>------- ---------- ------ -- ----- -- ----- -- ---- ------<br>--- ----- --- --- ------ -------- ----- --- ------ ----- --<br>----- ----- ---------- and --- ------ ------ ---- -- ------<br>------- --- ------ ----- --- ---- ------- -- ---- --- --<br>------- ------,198156.57999999984,198154.84500000003,197713.711,197722.71499999988,197730.092,198163.38,,36,and
screen,html.Screen,1_1_1_1_37,2021-04-16T11:33:00.811Z,,,,,,,,,,,,,,,,54,,,,,,,,,,,,,,341.38499999966007,,response,,,,100,,,,,,,Space,keypress(Space),,,,,,,,-- --- ---- --- ------ ----- ------- ---- -- --- ------- --<br>------- ---------- ------ -- ----- -- ----- -- ---- ------<br>--- ----- --- --- ------ -------- ----- --- ------ ----- --<br>----- ----- ---------- --- the ------ ------ ---- -- ------<br>------- --- ------ ----- --- ---- ------- -- ---- --- --<br>------- ------,198506.13999999996,198504.76499999966,198146.763,198156.78499999968,198163.38,198513.521,,37,the
screen,html.Screen,1_1_1_1_38,2021-04-16T11:33:01.230Z,,,,,,,,,,,,,,,,54,,,,,,,,,,,,,,408.9389999997802,,response,,,,100,,,,,,,Space,keypress(Space),,,,,,,,-- --- ---- --- ------ ----- ------- ---- -- --- ------- --<br>------- ---------- ------ -- ----- -- ----- -- ---- ------<br>--- ----- --- --- ------ -------- ----- --- ------ ----- --<br>----- ----- ---------- --- --- market ------ ---- -- ------<br>------- --- ------ ----- --- ---- ------- -- ---- --- --<br>------- ------,198925.12499999977,198922.4599999998,198496.727,198506.3449999998,198513.521,198930.448,,38,market
screen,html.Screen,1_1_1_1_39,2021-04-16T11:33:01.641Z,,,,,,,,,,,,,,,,54,,,,,,,,,,,,,,404.1519999996817,,response,,,,100,,,,,,,Space,keypress(Space),,,,,,,,-- --- ---- --- ------ ----- ------- ---- -- --- ------- --<br>------- ---------- ------ -- ----- -- ----- -- ---- ------<br>--- ----- --- --- ------ -------- ----- --- ------ ----- --<br>----- ----- ---------- --- --- ------ became ---- -- ------<br>------- --- ------ ----- --- ---- ------- -- ---- --- --<br>------- ------,199336.08000000005,199334.5999999997,198913.388,198925.33000000002,198930.448,199346.749,,39,became
screen,html.Screen,1_1_1_1_40,2021-04-16T11:33:01.988Z,,,,,,,,,,,,,,,,54,,,,,,,,,,,,,,335.53599999984726,,response,,,,100,,,,,,,Space,keypress(Space),,,,,,,,-- --- ---- --- ------ ----- ------- ---- -- --- ------- --<br>------- ---------- ------ -- ----- -- ----- -- ---- ------<br>--- ----- --- --- ------ -------- ----- --- ------ ----- --<br>----- ----- ---------- --- --- ------ ------ wary -- ------<br>------- --- ------ ----- --- ---- ------- -- ---- --- --<br>------- ------,199683.74999999968,199682.28499999986,199330.085,199336.62999999977,199346.749,199696.847,,40,wary
screen,html.Screen,1_1_1_1_41,2021-04-16T11:33:02.432Z,,,,,,,,,,,,,,,,54,,,,,,,,,,,,,,428.75299999985145,,response,,,,100,,,,,,,Space,keypress(Space),,,,,,,,-- --- ---- --- ------ ----- ------- ---- -- --- ------- --<br>------- ---------- ------ -- ----- -- ----- -- ---- ------<br>--- ----- --- --- ------ -------- ----- --- ------ ----- --<br>----- ----- ---------- --- --- ------ ------ ---- of ------<br>------- --- ------ ----- --- ---- ------- -- ---- --- --<br>------- ------,200127.04499999972,200125.59999999986,199680.125,199683.9649999997,199696.847,200130.112,,41,of
screen,html.Screen,1_1_1_1_42,2021-04-16T11:33:02.923Z,,,,,,,,,,,,,,,,54,,,,,,,,,,,,,,482.8430000000517,,response,,,,100,,,,,,,Space,keypress(Space),,,,,,,,-- --- ---- --- ------ ----- ------- ---- -- --- ------- --<br>------- ---------- ------ -- ----- -- ----- -- ---- ------<br>--- ----- --- --- ------ -------- ----- --- ------ ----- --<br>----- ----- ---------- --- --- ------ ------ ---- -- French<br>------- --- ------ ----- --- ---- ------- -- ---- --- --<br>------- ------,200618.57999999984,200612.95500000005,200113.42,200127.27499999982,200130.112,200630.46,,42,French
screen,html.Screen,1_1_1_1_43,2021-04-16T11:33:03.444Z,,,,,,,,,,,,,,,,54,,,,,,,,,,,,,,507.5350000000617,,response,,,,100,,,,,,,Space,keypress(Space),,,,,,,,-- --- ---- --- ------ ----- ------- ---- -- --- ------- --<br>------- ---------- ------ -- ----- -- ----- -- ---- ------<br>--- ----- --- --- ------ -------- ----- --- ------ ----- --<br>----- ----- ---------- --- --- ------ ------ ---- -- ------<br>credit. --- ------ ----- --- ---- ------- -- ---- --- --<br>------- ------,201139.4700000001,201137.99500000005,200613.498,200619.22000000003,200630.46,201146.795,,43,credit.
screen,html.Screen,1_1_1_1_44,2021-04-16T11:33:03.934Z,,,,,,,,,,,,,,,,54,,,,,,,,,,,,,,480.7499999998254,,response,,,,100,,,,,,,Space,keypress(Space),,,,,,,,-- --- ---- --- ------ ----- ------- ---- -- --- ------- --<br>------- ---------- ------ -- ----- -- ----- -- ---- ------<br>--- ----- --- --- ------ -------- ----- --- ------ ----- --<br>----- ----- ---------- --- --- ------ ------ ---- -- ------<br>------- The ------ ----- --- ---- ------- -- ---- --- --<br>------- ------,201629.62999999992,201627.54499999984,201130.136,201139.6749999999,201146.795,201647.242,,44,The
screen,html.Screen,1_1_1_1_45,2021-04-16T11:33:04.394Z,,,,,,,,,,,,,,,,54,,,,,,,,,,,,,,439.9629999998142,,response,,,,100,,,,,,,Space,keypress(Space),,,,,,,,-- --- ---- --- ------ ----- ------- ---- -- --- ------- --<br>------- ---------- ------ -- ----- -- ----- -- ---- ------<br>--- ----- --- --- ------ -------- ----- --- ------ ----- --<br>----- ----- ---------- --- --- ------ ------ ---- -- ------<br>------- --- French ----- --- ---- ------- -- ---- --- --<br>------- ------,202089.7299999997,202087.2049999998,201630.494,201630.01499999972,201647.242,202096.831,,45,French
screen,html.Screen,1_1_1_1_46,2021-04-16T11:33:04.814Z,,,,,,,,,,,,,,,,54,,,,,,,,,,,,,,410.50900000010733,,response,,,,100,,,,,,,Space,keypress(Space),,,,,,,,-- --- ---- --- ------ ----- ------- ---- -- --- ------- --<br>------- ---------- ------ -- ----- -- ----- -- ---- ------<br>--- ----- --- --- ------ -------- ----- --- ------ ----- --<br>----- ----- ---------- --- --- ------ ------ ---- -- ------<br>------- --- ------ state --- ---- ------- -- ---- --- --<br>------- ------,202509.53499999968,202507.3400000001,202080.429,202090.02499999997,202096.831,202513.48,,46,state
screen,html.Screen,1_1_1_1_47,2021-04-16T11:33:05.201Z,,,,,,,,,,,,,,,,54,,,,,,,,,,,,,,378.8549999999814,,response,,,,100,,,,,,,Space,keypress(Space),,,,,,,,-- --- ---- --- ------ ----- ------- ---- -- --- ------- --<br>------- ---------- ------ -- ----- -- ----- -- ---- ------<br>--- ----- --- --- ------ -------- ----- --- ------ ----- --<br>----- ----- ---------- --- --- ------ ------ ---- -- ------<br>------- --- ------ ----- was ---- ------- -- ---- --- --<br>------- ------,202896.53499999986,202892.335,202496.85,202510.20500000005,202513.48,202913.558,,47,was
screen,html.Screen,1_1_1_1_48,2021-04-16T11:33:05.581Z,,,,,,,,,,,,,,,,54,,,,,,,,,,,,,,361.2569999997795,,response,,,,100,,,,,,,Space,keypress(Space),,,,,,,,-- --- ---- --- ------ ----- ------- ---- -- --- ------- --<br>------- ---------- ------ -- ----- -- ----- -- ---- ------<br>--- ----- --- --- ------ -------- ----- --- ------ ----- --<br>----- ----- ---------- --- --- ------ ------ ---- -- ------<br>------- --- ------ ----- --- left ------- -- ---- --- --<br>------- ------,203276.85999999993,203274.81499999977,202897.059,202897.1449999999,202913.558,203280.17,,48,left
screen,html.Screen,1_1_1_1_49,2021-04-16T11:33:06.025Z,,,,,,,,,,,,,,,,54,,,,,,,,,,,,,,438.084999999759,,response,,,,100,,,,,,,Space,keypress(Space),,,,,,,,-- --- ---- --- ------ ----- ------- ---- -- --- ------- --<br>------- ---------- ------ -- ----- -- ----- -- ---- ------<br>--- ----- --- --- ------ -------- ----- --- ------ ----- --<br>----- ----- ---------- --- --- ------ ------ ---- -- ------<br>------- --- ------ ----- --- ---- without -- ---- --- --<br>------- ------,203720.36499999967,203718.25499999977,203263.495,203277.08499999973,203280.17,203730.177,,49,without
screen,html.Screen,1_1_1_1_50,2021-04-16T11:33:06.411Z,,,,,,,,,,,,,,,,54,,,,,,,,,,,,,,374.0629999996745,,response,,,,100,,,,,,,Space,keypress(Space),,,,,,,,-- --- ---- --- ------ ----- ------- ---- -- --- ------- --<br>------- ---------- ------ -- ----- -- ----- -- ---- ------<br>--- ----- --- --- ------ -------- ----- --- ------ ----- --<br>----- ----- ---------- --- --- ------ ------ ---- -- ------<br>------- --- ------ ----- --- ---- ------- an ---- --- --<br>------- ------,204106.06499999994,204104.23999999967,203713.91,203720.58500000002,203730.177,204113.508,,50,an
screen,html.Screen,1_1_1_1_51,2021-04-16T11:33:06.806Z,,,,,,,,,,,,,,,,54,,,,,,,,,,,,,,386.40200000000186,,response,,,,100,,,,,,,Space,keypress(Space),,,,,,,,-- --- ---- --- ------ ----- ------- ---- -- --- ------- --<br>------- ---------- ------ -- ----- -- ----- -- ---- ------<br>--- ----- --- --- ------ -------- ----- --- ------ ----- --<br>----- ----- ---------- --- --- ------ ------ ---- -- ------<br>------- --- ------ ----- --- ---- ------- -- easy --- --<br>------- ------,204501.2499999998,204499.91,204096.902,204106.51999999981,204113.508,204513.641,,51,easy
screen,html.Screen,1_1_1_1_52,2021-04-16T11:33:07.180Z,,,,,,,,,,,,,,,,54,,,,,,,,,,,,,,360.45399999967776,,response,,,,100,,,,,,,Space,keypress(Space),,,,,,,,-- --- ---- --- ------ ----- ------- ---- -- --- ------- --<br>------- ---------- ------ -- ----- -- ----- -- ---- ------<br>--- ----- --- --- ------ -------- ----- --- ------ ----- --<br>----- ----- ---------- --- --- ------ ------ ---- -- ------<br>------- --- ------ ----- --- ---- ------- -- ---- way --<br>------- ------,204875.5699999997,204874.09499999968,204497.285,204501.45500000007,204513.641,204880.183,,52,way
screen,html.Screen,1_1_1_1_53,2021-04-16T11:33:07.612Z,,,,,,,,,,,,,,,,54,,,,,,,,,,,,,,426.1819999999134,,response,,,,100,,,,,,,Space,keypress(Space),,,,,,,,-- --- ---- --- ------ ----- ------- ---- -- --- ------- --<br>------- ---------- ------ -- ----- -- ----- -- ---- ------<br>--- ----- --- --- ------ -------- ----- --- ------ ----- --<br>----- ----- ---------- --- --- ------ ------ ---- -- ------<br>------- --- ------ ----- --- ---- ------- -- ---- --- of<br>------- ------,205307.8599999999,205306.3649999999,204863.52,204875.7700000001,204880.183,205313.531,,53,of
screen,html.Screen,1_1_1_1_54,2021-04-16T11:33:08.087Z,,,,,,,,,,,,,,,,54,,,,,,,,,,,,,,467.3989999999176,,response,,,,100,,,,,,,Space,keypress(Space),,,,,,,,-- --- ---- --- ------ ----- ------- ---- -- --- ------- --<br>------- ---------- ------ -- ----- -- ----- -- ---- ------<br>--- ----- --- --- ------ -------- ----- --- ------ ----- --<br>----- ----- ---------- --- --- ------ ------ ---- -- ------<br>------- --- ------ ----- --- ---- ------- -- ---- --- --<br>raising ------,205782.29499999998,205780.9299999999,205297.141,205308.05499999996,205313.531,205797.055,,54,raising
screen,html.Screen,1_1_1_1_55,2021-04-16T11:33:08.530Z,,,,,,,,,,,,,,,,54,,,,,,,,,,,,,,426.5900000000256,,response,,,,100,,,,,,,Space,keypress(Space),,,,,,,,-- --- ---- --- ------ ----- ------- ---- -- --- ------- --<br>------- ---------- ------ -- ----- -- ----- -- ---- ------<br>--- ----- --- --- ------ -------- ----- --- ------ ----- --<br>----- ----- ---------- --- --- ------ ------ ---- -- ------<br>------- --- ------ ----- --- ---- ------- -- ---- --- --<br>------- money.,206225.19000000012,206223.64500000002,205780.236,205782.50499999968,205797.055,206230.3,,55,money.
Item 100,flow.Loop,1_1_1_1,2021-04-16T11:33:08.530Z,,,,,,,,,,,,,,,,,,,,,,,,,,,,,,29310.608000000007,,completion,,,,,C,,,,,,,,,,,silence,,,,,206225.59499999988,206223.64500000002,176896.495,176898.60999999972,176913.037,206230.3,,,
Question 1,html.Screen,1_1_1_2,2021-04-16T11:33:14.293Z,,,,,,,,,,,,,,,,,,,,,,,,,,,true,TRUE,,5755.984999999957,,response,,,,100,C,,,,,,TRUE,click #choice-1,,,,silence,,,,,211988.17499999996,211986.28499999995,206213.709,206225.75000000006,206230.3,211997.028,,,
Question 2,html.Screen,1_1_1_3,2021-04-16T11:33:17.409Z,,,,,,,,,,,,,,,,,,,,,,,,,,,true,FALSE,,3105.4569999999076,,response,,,,100,C,,,,,,FALSE,click #choice-2,,,,silence,,,,,215104.77999999968,215102.4849999999,211980.368,211988.3850000001,211997.028,215113.783,,,
Item 100,flow.Sequence,1_1_1,2021-04-16T11:33:17.410Z,,,,,,,,,,,,,,,,,,,,,,,,,,,,,,48189.6889999999,,completion,,,,,,,,,,,,,,,,,,,,,215105.3649999999,215102.4849999999,166896.283,166907.69,166912.796,215113.783,,,
End of Practice,html.Page,1_1_2,2021-04-16T11:33:20.781Z,,,,,,,,,,,,,,,,,,,,,,,,,,,,,,3362.6219999998866,,form submission,,,,,,,,,,,,,,,,,,,,,218476.85999999975,218476.40499999988,215097.256,215105.68999999986,215113.783,218480.508,,,
Practice,flow.Sequence,1_1,2021-04-16T11:33:20.782Z,,,,,,,,,,,,,,,,,,,,,,,,,,,,,,101631.43899999988,,completion,,,,,,,,,,,,,,,,,,,,,218477.1999999998,218476.40499999988,116811.844,116826.72000000003,116844.966,218480.508,,,
Trap_instruction,html.Page,1_2_0,2021-04-16T11:33:25.592Z,,,,,,,,,,,,,,,,,,,,,,,,,,,,,,4806.361999999906,,form submission,,,,,,,,,,,,,,,,,,,,,223287.32499999978,223286.8699999999,218463.989,218477.4299999999,218480.508,223314.022,,,
trap_trial,html.Screen,1_2_1,2021-04-16T11:33:34.604Z,,,,,,,,,,,,,,,,,,,,,,,,,,,true,1,,8980.967999999877,,response,,,,,,,,,,,1,click #choice-1,,,,,,,,,232299.20999999967,232294.98999999987,223280.613,223287.55499999988,223314.022,232320.717,,,
end of trap trial,html.Page,1_2_2,2021-04-16T11:33:38.472Z,,,,,,,,,,,,,,,,,,,,,,,,,,,,,,3846.677999999927,,form submission,,,,,,,,,,,,,,,,,,,,,236167.8499999998,236167.39499999993,232281.059,232299.79999999978,232320.717,236181.501,,,
Trap 1,flow.Sequence,1_2,2021-04-16T11:33:38.472Z,,,,,,,,,,,,,,,,,,,,,,,,,,,,,,17686.88699999993,,completion,,,,,,,,,,,,,,,,,,,,,236168.16500000004,236167.39499999993,218463.989,218477.36499999973,218480.508,236181.501,,,
Standby,html.Page,1_3_0,2021-04-16T11:33:46.470Z,,,,,,,,,,,,,,,,,,,,,,,,,,,,,,7999.741000000009,,timeout,,,,,,,,,,,,,,,,,,,,,244166.5600000001,244164.634,236164.456,236168.40499999988,236181.501,244181.242,,,
Holding screen,html.Screen,1_3_1_0_0,2021-04-16T11:33:53.470Z,,,,,,,,,,,,,,,,,,,,,,,,,,,,,,7000.375999999989,,timeout,,,,,,,,,,,,,,,,,,,,,251166.47000000012,251164.886,244164.634,244167.54499999978,244181.242,251181.618,,,
screen,html.Screen,1_3_1_0_1_0,2021-04-16T11:33:54.268Z,,,,,,,,,,,,,,,,48,,,,,,,,,,,,,,779.9719999998924,,response,,,,10,C,,,,,,Space,keypress(Space),,,,instrumental,,,,As -- --- ------ ------- --------- ----------- --------<br>--------- -------- --- ------- -- ------- ---- -- ------<br>-- --- -------- -------- ---------- ---- ---- ---- ------<br>-- --------- -- ---- -- --- -- --- ------- -- - -----<br>---------- -- -- -- ---- ----- -- ------ -- --- ------<br>-------,251964.52,251961.58999999988,251164.886,251167.23,251181.618,251964.673,,0,As
screen,html.Screen,1_3_1_0_1_1,2021-04-16T11:33:54.650Z,,,,,,,,,,,,,,,,48,,,,,,,,,,,,,,378.88699999978417,,response,,,,10,C,,,,,,Space,keypress(Space),,,,instrumental,,,,-- in --- ------ ------- --------- ----------- --------<br>--------- -------- --- ------- -- ------- ---- -- ------<br>-- --- -------- -------- ---------- ---- ---- ---- ------<br>-- --------- -- ---- -- --- -- --- ------- -- - -----<br>---------- -- -- -- ---- ----- -- ------ -- --- ------<br>-------,252345.765,252343.5599999998,251948.354,251965.69999999975,251964.673,252366.22,,1,in
screen,html.Screen,1_3_1_0_1_2,2021-04-16T11:33:55.028Z,,,,,,,,,,,,,,,,48,,,,,,,,,,,,,,355.59499999988475,,response,,,,10,C,,,,,,Space,keypress(Space),,,,instrumental,,,,-- -- the ------ ------- --------- ----------- --------<br>--------- -------- --- ------- -- ------- ---- -- ------<br>-- --- -------- -------- ---------- ---- ---- ---- ------<br>-- --------- -- ---- -- --- -- --- ------- -- - -----<br>---------- -- -- -- ---- ----- -- ------ -- --- ------<br>-------,252724.04499999993,252721.8149999999,252331.487,252346.25000000006,252366.22,252731.304,,2,the
screen,html.Screen,1_3_1_0_1_3,2021-04-16T11:33:55.577Z,,,,,,,,,,,,,,,,48,,,,,,,,,,,,,,539.9459999997634,,response,,,,10,C,,,,,,Space,keypress(Space),,,,instrumental,,,,-- -- --- United ------- --------- ----------- --------<br>--------- -------- --- ------- -- ------- ---- -- ------<br>-- --- -------- -------- ---------- ---- ---- ---- ------<br>-- --------- -- ---- -- --- -- --- ------- -- - -----<br>---------- -- -- -- ---- ----- -- ------ -- --- ------<br>-------,253273.40000000002,253271.24999999977,252714.69,252724.54500000004,252731.304,253281.369,,3,United
screen,html.Screen,1_3_1_0_1_4,2021-04-16T11:33:56.083Z,,,,,,,,,,,,,,,,48,,,,,,,,,,,,,,495.45100000003004,,response,,,,10,C,,,,,,Space,keypress(Space),,,,instrumental,,,,"-- -- --- ------ States, --------- ----------- --------<br>--------- -------- --- ------- -- ------- ---- -- ------<br>-- --- -------- -------- ---------- ---- ---- ---- ------<br>-- --------- -- ---- -- --- -- --- ------- -- - -----<br>---------- -- -- -- ---- ----- -- ------ -- --- ------<br>-------",253778.8700000001,253776.82000000004,253264.677,253273.88500000007,253281.369,253806.247,,4,"States,"
screen,html.Screen,1_3_1_0_1_5,2021-04-16T11:33:56.967Z,,,,,,,,,,,,,,,,48,,,,,,,,,,,,,,854.7429999998421,,response,,,,10,C,,,,,,Space,keypress(Space),,,,instrumental,,,,-- -- --- ------ ------- Colombian ----------- --------<br>--------- -------- --- ------- -- ------- ---- -- ------<br>-- --- -------- -------- ---------- ---- ---- ---- ------<br>-- --------- -- ---- -- --- -- --- ------- -- - -----<br>---------- -- -- -- ---- ----- -- ------ -- --- ------<br>-------,254663.12999999992,254660.98999999985,253764.84,253779.41499999998,253806.247,254681.53,,5,Colombian
screen,html.Screen,1_3_1_0_1_6,2021-04-16T11:33:57.462Z,,,,,,,,,,,,,,,,48,,,,,,,,,,,,,,474,,response,,,,10,C,,,,,,Space,keypress(Space),,,,instrumental,,,,-- -- --- ------ ------- --------- legislation --------<br>--------- -------- --- ------- -- ------- ---- -- ------<br>-- --- -------- -------- ---------- ---- ---- ---- ------<br>-- --------- -- ---- -- --- -- --- ------- -- - -----<br>---------- -- -- -- ---- ----- -- ------ -- --- ------<br>-------,255158.25499999983,255155.53,254648.196,254663.61999999982,254681.53,255164.743,,6,legislation
screen,html.Screen,1_3_1_0_1_7,2021-04-16T11:33:58.047Z,,,,,,,,,,,,,,,,48,,,,,,,,,,,,,,576.1569999998028,,response,,,,10,C,,,,,,Space,keypress(Space),,,,instrumental,,,,-- -- --- ------ ------- --------- ----------- requires<br>--------- -------- --- ------- -- ------- ---- -- ------<br>-- --- -------- -------- ---------- ---- ---- ---- ------<br>-- --------- -- ---- -- --- -- --- ------- -- - -----<br>---------- -- -- -- ---- ----- -- ------ -- --- ------<br>-------,255743.25499999986,255740.8999999998,255148.236,255158.7199999999,255164.743,255748.061,,7,requires
screen,html.Screen,1_3_1_0_1_8,2021-04-16T11:33:58.535Z,,,,,,,,,,,,,,,,48,,,,,,,,,,,,,,480.53899999993155,,response,,,,10,C,,,,,,Space,keypress(Space),,,,instrumental,,,,-- -- --- ------ ------- --------- ----------- --------<br>travelers -------- --- ------- -- ------- ---- -- ------<br>-- --- -------- -------- ---------- ---- ---- ---- ------<br>-- --------- -- ---- -- --- -- --- ------- -- - -----<br>---------- -- -- -- ---- ----- -- ------ -- --- ------<br>-------,256231.09999999998,256228.59999999992,255731.615,255743.7249999998,255748.061,256248.049,,8,travelers
screen,html.Screen,1_3_1_0_1_9,2021-04-16T11:33:58.969Z,,,,,,,,,,,,,,,,48,,,,,,,,,,,,,,415.0859999997774,,response,,,,10,C,,,,,,Space,keypress(Space),,,,instrumental,,,,-- -- --- ------ ------- --------- ----------- --------<br>--------- entering --- ------- -- ------- ---- -- ------<br>-- --- -------- -------- ---------- ---- ---- ---- ------<br>-- --------- -- ---- -- --- -- --- ------- -- - -----<br>---------- -- -- -- ---- ----- -- ------ -- --- ------<br>-------,256665.53999999998,256663.13499999978,256231.571,256231.57499999978,256248.049,256681.405,,9,entering
screen,html.Screen,1_3_1_0_1_10,2021-04-16T11:33:59.401Z,,,,,,,,,,,,,,,,48,,,,,,,,,,,,,,413.05999999967753,,response,,,,10,C,,,,,,Space,keypress(Space),,,,instrumental,,,,-- -- --- ------ ------- --------- ----------- --------<br>--------- -------- the ------- -- ------- ---- -- ------<br>-- --- -------- -------- ---------- ---- ---- ---- ------<br>-- --------- -- ---- -- --- -- --- ------- -- - -----<br>---------- -- -- -- ---- ----- -- ------ -- --- ------<br>-------,257097.0950000001,257094.46499999968,256664.904,256666.08499999985,256681.405,257115.07,,10,the
screen,html.Screen,1_3_1_0_1_11,2021-04-16T11:33:59.870Z,,,,,,,,,,,,,,,,48,,,,,,,,,,,,,,448.5199999997276,,response,,,,10,C,,,,,,Space,keypress(Space),,,,instrumental,,,,-- -- --- ------ ------- --------- ----------- --------<br>--------- -------- --- country -- ------- ---- -- ------<br>-- --- -------- -------- ---------- ---- ---- ---- ------<br>-- --------- -- ---- -- --- -- --- ------- -- - -----<br>---------- -- -- -- ---- ----- -- ------ -- --- ------<br>-------,257566.04500000004,257563.58999999973,257098.056,257097.58999999985,257115.07,257581.361,,11,country
screen,html.Screen,1_3_1_0_1_12,2021-04-16T11:34:00.277Z,,,,,,,,,,,,,,,,48,,,,,,,,,,,,,,389.34900000004563,,response,,,,10,C,,,,,,Space,keypress(Space),,,,instrumental,,,,-- -- --- ------ ------- --------- ----------- --------<br>--------- -------- --- ------- to ------- ---- -- ------<br>-- --- -------- -------- ---------- ---- ---- ---- ------<br>-- --------- -- ---- -- --- -- --- ------- -- - -----<br>---------- -- -- -- ---- ----- -- ------ -- --- ------<br>-------,257973.12999999986,257970.71000000005,257564.802,257566.55999999976,257581.361,257981.493,,12,to
screen,html.Screen,1_3_1_0_1_13,2021-04-16T11:34:00.673Z,,,,,,,,,,,,,,,,48,,,,,,,,,,,,,,384.17199999981676,,response,,,,10,C,,,,,,Space,keypress(Space),,,,instrumental,,,,-- -- --- ------ ------- --------- ----------- --------<br>--------- -------- --- ------- -- declare ---- -- ------<br>-- --- -------- -------- ---------- ---- ---- ---- ------<br>-- --------- -- ---- -- --- -- --- ------- -- - -----<br>---------- -- -- -- ---- ----- -- ------ -- --- ------<br>-------,258368.77000000005,258365.6649999998,257964.959,257973.6049999997,257981.493,258381.659,,13,declare
screen,html.Screen,1_3_1_0_1_14,2021-04-16T11:34:01.070Z,,,,,,,,,,,,,,,,48,,,,,,,,,,,,,,382.08099999986007,,response,,,,10,C,,,,,,Space,keypress(Space),,,,instrumental,,,,-- -- --- ------ ------- --------- ----------- --------<br>--------- -------- --- ------- -- ------- cash -- ------<br>-- --- -------- -------- ---------- ---- ---- ---- ------<br>-- --------- -- ---- -- --- -- --- ------- -- - -----<br>---------- -- -- -- ---- ----- -- ------ -- --- ------<br>-------,258766.14999999994,258763.73999999987,258364.752,258369.2350000001,258381.659,258781.496,,14,cash
screen,html.Screen,1_3_1_0_1_15,2021-04-16T11:34:01.486Z,,,,,,,,,,,,,,,,48,,,,,,,,,,,,,,398.55899999980466,,response,,,,10,C,,,,,,Space,keypress(Space),,,,instrumental,,,,-- -- --- ------ ------- --------- ----------- --------<br>--------- -------- --- ------- -- ------- ---- in ------<br>-- --- -------- -------- ---------- ---- ---- ---- ------<br>-- --------- -- ---- -- --- -- --- ------- -- - -----<br>---------- -- -- -- ---- ----- -- ------ -- --- ------<br>-------,259182.44999999978,259180.05499999982,258765.009,258766.6549999999,258781.496,259198.535,,15,in
screen,html.Screen,1_3_1_0_1_16,2021-04-16T11:34:02.036Z,,,,,,,,,,,,,,,,48,,,,,,,,,,,,,,530.9999999999418,,response,,,,10,C,,,,,,Space,keypress(Space),,,,instrumental,,,,-- -- --- ------ ------- --------- ----------- --------<br>--------- -------- --- ------- -- ------- ---- -- excess<br>-- --- -------- -------- ---------- ---- ---- ---- ------<br>-- --------- -- ---- -- --- -- --- ------- -- - -----<br>---------- -- -- -- ---- ----- -- ------ -- --- ------<br>-------,259732.15499999968,259729.53499999995,259181.63,259182.92500000008,259198.535,259748.132,,16,excess
screen,html.Screen,1_3_1_0_1_17,2021-04-16T11:34:02.479Z,,,,,,,,,,,,,,,,48,,,,,,,,,,,,,,424.62799999990966,,response,,,,10,C,,,,,,Space,keypress(Space),,,,instrumental,,,,-- -- --- ------ ------- --------- ----------- --------<br>--------- -------- --- ------- -- ------- ---- -- ------<br>of --- -------- -------- ---------- ---- ---- ---- ------<br>-- --------- -- ---- -- --- -- --- ------- -- - -----<br>---------- -- -- -- ---- ----- -- ------ -- --- ------<br>-------,260175.27500000005,260172.75999999992,259731.664,259732.61999999976,259748.132,260181.523,,17,of
screen,html.Screen,1_3_1_0_1_18,2021-04-16T11:34:03.052Z,,,,,,,,,,,,,,,,48,,,,,,,,,,,,,,563.2769999999437,,response,,,,10,C,,,,,,Space,keypress(Space),,,,instrumental,,,,-- -- --- ------ ------- --------- ----------- --------<br>--------- -------- --- ------- -- ------- ---- -- ------<br>-- ten -------- -------- ---------- ---- ---- ---- ------<br>-- --------- -- ---- -- --- -- --- ------- -- - -----<br>---------- -- -- -- ---- ----- -- ------ -- --- ------<br>-------,260747.89499999996,260744.79999999993,260165.201,260175.80999999974,260181.523,260765.052,,18,ten
screen,html.Screen,1_3_1_0_1_19,2021-04-16T11:34:03.601Z,,,,,,,,,,,,,,,,48,,,,,,,,,,,,,,529.3029999999853,,response,,,,10,C,,,,,,Space,keypress(Space),,,,instrumental,,,,-- -- --- ------ ------- --------- ----------- --------<br>--------- -------- --- ------- -- ------- ---- -- ------<br>-- --- thousand -------- ---------- ---- ---- ---- ------<br>-- --------- -- ---- -- --- -- --- ------- -- - -----<br>---------- -- -- -- ---- ----- -- ------ -- --- ------<br>-------,261297.145,261294.35499999998,260748.331,260748.36000000004,260765.052,261314.912,,19,thousand
screen,html.Screen,1_3_1_0_1_20,2021-04-16T11:34:04.246Z,,,,,,,,,,,,,,,,48,,,,,,,,,,,,,,624.3629999997211,,response,,,,10,C,,,,,,Space,keypress(Space),,,,instrumental,,,,-- -- --- ------ ------- --------- ----------- --------<br>--------- -------- --- ------- -- ------- ---- -- ------<br>-- --- -------- dollars. ---------- ---- ---- ---- ------<br>-- --------- -- ---- -- --- -- --- ------- -- - -----<br>---------- -- -- -- ---- ----- -- ------ -- --- ------<br>-------,261941.75499999983,261939.27499999973,261298.343,261297.6349999999,261314.912,261948.154,,20,dollars.
screen,html.Screen,1_3_1_0_1_21,2021-04-16T11:34:04.833Z,,,,,,,,,,,,,,,,48,,,,,,,,,,,,,,577.7859999999928,,response,,,,10,C,,,,,,Space,keypress(Space),,,,instrumental,,,,-- -- --- ------ ------- --------- ----------- --------<br>--------- -------- --- ------- -- ------- ---- -- ------<br>-- --- -------- -------- Concealing ---- ---- ---- ------<br>-- --------- -- ---- -- --- -- --- ------- -- - -----<br>---------- -- -- -- ---- ----- -- ------ -- --- ------<br>-------,262529.1349999998,262525.94,261931.687,261942.235,261948.154,262555.976,,21,Concealing
screen,html.Screen,1_3_1_0_1_22,2021-04-16T11:34:05.348Z,,,,,,,,,,,,,,,,48,,,,,,,,,,,,,,485.85899999993853,,response,,,,10,C,,,,,,Space,keypress(Space),,,,instrumental,,,,-- -- --- ------ ------- --------- ----------- --------<br>--------- -------- --- ------- -- ------- ---- -- ------<br>-- --- -------- -------- ---------- more ---- ---- ------<br>-- --------- -- ---- -- --- -- --- ------- -- - -----<br>---------- -- -- -- ---- ----- -- ------ -- --- ------<br>-------,263044.3999999998,263041.83499999996,262515.033,262529.59999999986,262555.976,263048.256,,22,more
screen,html.Screen,1_3_1_0_1_23,2021-04-16T11:34:05.750Z,,,,,,,,,,,,,,,,48,,,,,,,,,,,,,,395.3090000000666,,response,,,,10,C,,,,,,Space,keypress(Space),,,,instrumental,,,,-- -- --- ------ ------- --------- ----------- --------<br>--------- -------- --- ------- -- ------- ---- -- ------<br>-- --- -------- -------- ---------- ---- than ---- ------<br>-- --------- -- ---- -- --- -- --- ------- -- - -----<br>---------- -- -- -- ---- ----- -- ------ -- --- ------<br>-------,263446.12499999994,263443.56500000006,263031.745,263044.87500000006,263048.256,263465.964,,23,than
screen,html.Screen,1_3_1_0_1_24,2021-04-16T11:34:06.173Z,,,,,,,,,,,,,,,,48,,,,,,,,,,,,,,399.9459999999963,,response,,,,10,C,,,,,,Space,keypress(Space),,,,instrumental,,,,-- -- --- ------ ------- --------- ----------- --------<br>--------- -------- --- ------- -- ------- ---- -- ------<br>-- --- -------- -------- ---------- ---- ---- that ------<br>-- --------- -- ---- -- --- -- --- ------- -- - -----<br>---------- -- -- -- ---- ----- -- ------ -- --- ------<br>-------,263868.86999999976,263865.91,263431.724,263446.6050000001,263465.964,263881.627,,24,that
screen,html.Screen,1_3_1_0_1_25,2021-04-16T11:34:06.608Z,,,,,,,,,,,,,,,,48,,,,,,,,,,,,,,420.31799999973737,,response,,,,10,C,,,,,,Space,keypress(Space),,,,instrumental,,,,-- -- --- ------ ------- --------- ----------- --------<br>--------- -------- --- ------- -- ------- ---- -- ------<br>-- --- -------- -------- ---------- ---- ---- ---- amount<br>-- --------- -- ---- -- --- -- --- ------- -- - -----<br>---------- -- -- -- ---- ----- -- ------ -- --- ------<br>-------,264304.45999999985,264301.9449999997,263864.94,263869.3450000001,263881.627,264314.863,,25,amount
screen,html.Screen,1_3_1_0_1_26,2021-04-16T11:34:07.073Z,,,,,,,,,,,,,,,,48,,,,,,,,,,,,,,451.51199999969685,,response,,,,10,C,,,,,,Space,keypress(Space),,,,instrumental,,,,-- -- --- ------ ------- --------- ----------- --------<br>--------- -------- --- ------- -- ------- ---- -- ------<br>-- --- -------- -------- ---------- ---- ---- ---- ------<br>to --------- -- ---- -- --- -- --- ------- -- - -----<br>---------- -- -- -- ---- ----- -- ------ -- --- ------<br>-------,264769.1449999997,264766.3749999997,264298.419,264304.94,264314.863,264781.627,,26,to
screen,html.Screen,1_3_1_0_1_27,2021-04-16T11:34:07.705Z,,,,,,,,,,,,,,,,48,,,,,,,,,,,,,,617.1330000000307,,response,,,,10,C,,,,,,Space,keypress(Space),,,,instrumental,,,,-- -- --- ------ ------- --------- ----------- --------<br>--------- -------- --- ------- -- ------- ---- -- ------<br>-- --- -------- -------- ---------- ---- ---- ---- ------<br>-- transport -- ---- -- --- -- --- ------- -- - -----<br>---------- -- -- -- ---- ----- -- ------ -- --- ------<br>-------,265401.3649999997,265398.76,264765.094,264769.6149999997,264781.627,265415.12,,27,transport
screen,html.Screen,1_3_1_0_1_28,2021-04-16T11:34:08.186Z,,,,,,,,,,,,,,,,48,,,,,,,,,,,,,,464.2399999999325,,response,,,,10,C,,,,,,Space,keypress(Space),,,,instrumental,,,,-- -- --- ------ ------- --------- ----------- --------<br>--------- -------- --- ------- -- ------- ---- -- ------<br>-- --- -------- -------- ---------- ---- ---- ---- ------<br>-- --------- it ---- -- --- -- --- ------- -- - -----<br>---------- -- -- -- ---- ----- -- ------ -- --- ------<br>-------,265881.9149999999,265879.3599999999,265398.267,265401.83999999997,265415.12,265898.315,,28,it
screen,html.Screen,1_3_1_0_1_29,2021-04-16T11:34:08.697Z,,,,,,,,,,,,,,,,48,,,,,,,,,,,,,,492.60499999980675,,response,,,,10,C,,,,,,Space,keypress(Space),,,,instrumental,,,,-- -- --- ------ ------- --------- ----------- --------<br>--------- -------- --- ------- -- ------- ---- -- ------<br>-- --- -------- -------- ---------- ---- ---- ---- ------<br>-- --------- -- into -- --- -- --- ------- -- - -----<br>---------- -- -- -- ---- ----- -- ------ -- --- ------<br>-------,266393.345,266390.9199999998,265881.643,265882.40499999985,265898.315,266398.319,,29,into
screen,html.Screen,1_3_1_0_1_30,2021-04-16T11:34:09.146Z,,,,,,,,,,,,,,,,48,,,,,,,,,,,,,,441.0209999999497,,response,,,,10,C,,,,,,Space,keypress(Space),,,,instrumental,,,,-- -- --- ------ ------- --------- ----------- --------<br>--------- -------- --- ------- -- ------- ---- -- ------<br>-- --- -------- -------- ---------- ---- ---- ---- ------<br>-- --------- -- ---- or --- -- --- ------- -- - -----<br>---------- -- -- -- ---- ----- -- ------ -- --- ------<br>-------,266841.75000000006,266839.33999999997,266381.792,266393.8250000001,266398.319,266848.359,,30,or
screen,html.Screen,1_3_1_0_1_31,2021-04-16T11:34:09.737Z,,,,,,,,,,,,,,,,48,,,,,,,,,,,,,,582.0609999996959,,response,,,,10,C,,,,,,Space,keypress(Space),,,,instrumental,,,,-- -- --- ------ ------- --------- ----------- --------<br>--------- -------- --- ------- -- ------- ---- -- ------<br>-- --- -------- -------- ---------- ---- ---- ---- ------<br>-- --------- -- ---- -- out -- --- ------- -- - -----<br>---------- -- -- -- ---- ----- -- ------ -- --- ------<br>-------,267432.8499999997,267430.4199999997,266831.797,266842.23999999993,266848.359,267448.256,,31,out
screen,html.Screen,1_3_1_0_1_32,2021-04-16T11:34:10.140Z,,,,,,,,,,,,,,,,48,,,,,,,,,,,,,,385.02399999985937,,response,,,,10,C,,,,,,Space,keypress(Space),,,,instrumental,,,,-- -- --- ------ ------- --------- ----------- --------<br>--------- -------- --- ------- -- ------- ---- -- ------<br>-- --- -------- -------- ---------- ---- ---- ---- ------<br>-- --------- -- ---- -- --- of --- ------- -- - -----<br>---------- -- -- -- ---- ----- -- ------ -- --- ------<br>-------,267835.7350000001,267833.27999999985,267431.68,267433.32000000007,267448.256,267848.362,,32,of
screen,html.Screen,1_3_1_0_1_33,2021-04-16T11:34:10.487Z,,,,,,,,,,,,,,,,48,,,,,,,,,,,,,,332.5779999996885,,response,,,,10,C,,,,,,Space,keypress(Space),,,,instrumental,,,,-- -- --- ------ ------- --------- ----------- --------<br>--------- -------- --- ------- -- ------- ---- -- ------<br>-- --- -------- -------- ---------- ---- ---- ---- ------<br>-- --------- -- ---- -- --- -- the ------- -- - -----<br>---------- -- -- -- ---- ----- -- ------ -- --- ------<br>-------,268183.3999999999,268180.9399999997,267831.838,267836.28499999986,267848.362,268198.432,,33,the
screen,html.Screen,1_3_1_0_1_34,2021-04-16T11:34:10.904Z,,,,,,,,,,,,,,,,48,,,,,,,,,,,,,,399.09299999970244,,response,,,,10,C,,,,,,Space,keypress(Space),,,,instrumental,,,,-- -- --- ------ ------- --------- ----------- --------<br>--------- -------- --- ------- -- ------- ---- -- ------<br>-- --- -------- -------- ---------- ---- ---- ---- ------<br>-- --------- -- ---- -- --- -- --- country -- - -----<br>---------- -- -- -- ---- ----- -- ------ -- --- ------<br>-------,268599.9299999999,268597.5249999997,268181.827,268183.8749999997,268198.432,268615.052,,34,country
screen,html.Screen,1_3_1_0_1_35,2021-04-16T11:34:11.274Z,,,,,,,,,,,,,,,,48,,,,,,,,,,,,,,352.5780000000959,,response,,,,10,C,,,,,,Space,keypress(Space),,,,instrumental,,,,-- -- --- ------ ------- --------- ----------- --------<br>--------- -------- --- ------- -- ------- ---- -- ------<br>-- --- -------- -------- ---------- ---- ---- ---- ------<br>-- --------- -- ---- -- --- -- --- ------- is - -----<br>---------- -- -- -- ---- ----- -- ------ -- --- ------<br>-------,268970.0800000001,268967.6300000001,268598.559,268600.41000000003,268615.052,268981.631,,35,is
screen,html.Screen,1_3_1_0_1_36,2021-04-16T11:34:11.675Z,,,,,,,,,,,,,,,,48,,,,,,,,,,,,,,387.1789999999455,,response,,,,10,C,,,,,,Space,keypress(Space),,,,instrumental,,,,-- -- --- ------ ------- --------- ----------- --------<br>--------- -------- --- ------- -- ------- ---- -- ------<br>-- --- -------- -------- ---------- ---- ---- ---- ------<br>-- --------- -- ---- -- --- -- --- ------- -- a -----<br>---------- -- -- -- ---- ----- -- ------ -- --- ------<br>-------,269371.1450000001,269368.80999999994,268965.231,268970.5549999999,268981.631,269381.642,,36,a
screen,html.Screen,1_3_1_0_1_37,2021-04-16T11:34:12.157Z,,,,,,,,,,,,,,,,48,,,,,,,,,,,,,,469.52799999993294,,response,,,,10,C,,,,,,Space,keypress(Space),,,,instrumental,,,,-- -- --- ------ ------- --------- ----------- --------<br>--------- -------- --- ------- -- ------- ---- -- ------<br>-- --- -------- -------- ---------- ---- ---- ---- ------<br>-- --------- -- ---- -- --- -- --- ------- -- - crime<br>---------- -- -- -- ---- ----- -- ------ -- --- ------<br>-------,269853.59500000003,269851.1699999999,269365.267,269371.6549999999,269381.642,269865.388,,37,crime
screen,html.Screen,1_3_1_0_1_38,2021-04-16T11:34:12.763Z,,,,,,,,,,,,,,,,48,,,,,,,,,,,,,,590.5369999997783,,response,,,,10,C,,,,,,Space,keypress(Space),,,,instrumental,,,,-- -- --- ------ ------- --------- ----------- --------<br>--------- -------- --- ------- -- ------- ---- -- ------<br>-- --- -------- -------- ---------- ---- ---- ---- ------<br>-- --------- -- ---- -- --- -- --- ------- -- - -----<br>punishable -- -- -- ---- ----- -- ------ -- --- ------<br>-------,270459.0949999997,270455.92499999976,269848.529,269854.0749999997,269865.388,270465.104,,38,punishable
screen,html.Screen,1_3_1_0_1_39,2021-04-16T11:34:13.154Z,,,,,,,,,,,,,,,,48,,,,,,,,,,,,,,383.3760000001057,,response,,,,10,C,,,,,,Space,keypress(Space),,,,instrumental,,,,-- -- --- ------ ------- --------- ----------- --------<br>--------- -------- --- ------- -- ------- ---- -- ------<br>-- --- -------- -------- ---------- ---- ---- ---- ------<br>-- --------- -- ---- -- --- -- --- ------- -- - -----<br>---------- by -- -- ---- ----- -- ------ -- --- ------<br>-------,270849.85000000003,270848.4800000001,270448.557,270459.5999999997,270465.104,270865.089,,39,by
screen,html.Screen,1_3_1_0_1_40,2021-04-16T11:34:13.605Z,,,,,,,,,,,,,,,,48,,,,,,,,,,,,,,433.5759999998263,,response,,,,10,C,,,,,,Space,keypress(Space),,,,instrumental,,,,-- -- --- ------ ------- --------- ----------- --------<br>--------- -------- --- ------- -- ------- ---- -- ------<br>-- --- -------- -------- ---------- ---- ---- ---- ------<br>-- --------- -- ---- -- --- -- --- ------- -- - -----<br>---------- -- up -- ---- ----- -- ------ -- --- ------<br>-------,271301.10999999987,271298.6649999998,270848.668,270850.06999999995,270865.089,271315.115,,40,up
screen,html.Screen,1_3_1_0_1_41,2021-04-16T11:34:13.991Z,,,,,,,,,,,,,,,,48,,,,,,,,,,,,,,369.3849999998347,,response,,,,10,C,,,,,,Space,keypress(Space),,,,instrumental,,,,-- -- --- ------ ------- --------- ----------- --------<br>--------- -------- --- ------- -- ------- ---- -- ------<br>-- --- -------- -------- ---------- ---- ---- ---- ------<br>-- --------- -- ---- -- --- -- --- ------- -- - -----<br>---------- -- -- to ---- ----- -- ------ -- --- ------<br>-------,271687.41,271684.4999999998,271298.413,271301.57999999984,271315.115,271698.363,,41,to
