sender,sender_type,sender_id,timestamp,meta,,Blues,Classical,Country,Dance,Electronic,Folk,Gospel,Hip-Hop,Jazz,Latin,Musical/Film,New-age,Pop,Provo_ID,R&B,Rap,Reggae,Religious,Rock,Soul,Swing,Traditional,age,artist_name,correct,correctResponse,distraction,duration,education,ended_on,familiarity,gender,headphone_check_performance,item,list,music_frequency,offensiveness,pleasantness,position_correct,preference,response,response_action,snippet_file,song_name,song_rating,sound,stimulus_1,stimulus_2,stimulus_3,text,time_commit,time_end,time_render,time_run,time_show,time_switch,url,word,word_ID
Introduction,html.Screen,0_0,2021-04-22T10:21:54.743Z,"{""labjs_version"":""20.2.2"",""labjs_build"":{""flavor"":""production"",""commit"":""a25486e0c714a0ae2ce03ff94b7bb6896854dcfa""},""location"":""https://run.pavlovia.org/mvasilev/music_d/"",""userAgent"":""Mozilla/5.0 (Windows NT 10.0; Win64; x64) AppleWebKit/537.36 (KHTML, like Gecko) Chrome/89.0.4389.128 Safari/537.36"",""platform"":""Win32"",""language"":""en-GB"",""locale"":""en-GB"",""timeZone"":""Europe/London"",""timezoneOffset"":-60,""screen_width"":1164,""screen_height"":655,""scroll_width"":1164,""scroll_height"":583,""window_innerWidth"":1164,""window_innerHeight"":583,""devicePixelRatio"":1.6500000953674316}",,,,,,,,,,,,,,,,,,,,,,,,,,,,,35396.55599999726,,response,,,,,,,,,,,continue,click button,,,,,,,,,42139.12999999593,42136.124999997264,6706.243,6711.844999997993,6739.569,42144.403,{},,
Volume calibration,html.Screen,0_1,2021-04-22T10:22:20.199Z,,,,,,,,,,,,,,,,,,,,,,,,,,,,,,25443.231999996227,,response,,,,,,,,,,,continue,click button,,,,,,,,,67595.67999999854,67587.63499999623,42127.678,42139.86499999737,42144.403,67602.461,,,
Task instructions,html.Screen,0_2,2021-04-22T10:22:40.380Z,,,,,,,,,,,,,,,,,,,,,,,,,,,,,,20172.21899999499,,response,,,,,,,,,,,continue,click button,,,,,,,,,87776.47499999875,87774.67999999499,67585.965,67596.18999999657,67602.461,87779.007,,,
Sounds,html.Screen,0_3_0_0,2021-04-22T10:22:44.621Z,,,,,,,,,,,,,,,,,,,,,,,,,,,,,,4248.635999999999,,timeout,,,,,,,,,3,,,,,,,,O,I,S,,92016.89499999338,92010.901,87762.421,87777.16499999951,87779.007,92027.643,,,
Judgement,html.Screen,0_3_0_1,2021-04-22T10:22:48.267Z,,,,,,,,,,,,,,,,,,,,,,,,,,,true,3,,3633.7819999984204,,response,,,,,,,,,3,,3,click #choice-3,,,,,O,I,S,,95663.5449999958,95661.42499999842,92010.901,92017.01499999763,92027.643,95676.36,,,
Trial,flow.Sequence,0_3_0,2021-04-22T10:22:48.268Z,,,,,,,,,,,,,,,,,,,,,,,,,,,,,,7882.417999998419,,completion,,,,,,,,,3,,,,,,,,O,I,S,,95664.46499999438,95661.42499999842,87762.421,87776.99500000017,87779.007,95676.36,,,
Sounds,html.Screen,0_3_1_0,2021-04-22T10:22:52.513Z,,,,,,,,,,,,,,,,,,,,,,,,,,,,,,4248.732999999993,,timeout,,,,,,,,,1,,,,,,,,S,I,O,,99909.11999999662,99908.502,95659.735,95664.90999999951,95676.36,99925.093,,,
Judgement,html.Screen,0_3_1_1,2021-04-22T10:22:53.676Z,,,,,,,,,,,,,,,,,,,,,,,,,,,true,1,,1146.2519999966607,,response,,,,,,,,,1,,1,click #choice-1,,,,,S,I,O,,101073.07999999466,101071.34499999665,99908.502,99909.2199999941,99925.093,101074.542,,,
Trial,flow.Sequence,0_3_1,2021-04-22T10:22:53.677Z,,,,,,,,,,,,,,,,,,,,,,,,,,,,,,5394.984999996654,,completion,,,,,,,,,1,,,,,,,,S,I,O,,101073.79499999661,101071.34499999665,95659.735,95664.79499999696,95676.36,101074.542,,,
Sounds,html.Screen,0_3_2_0,2021-04-22T10:22:57.911Z,,,,,,,,,,,,,,,,,,,,,,,,,,,,,,4248.428,,timeout,,,,,,,,,1,,,,,,,,S,O,I,,105307.3499999955,105306.759,101057.839,101074.23999999446,101074.542,105322.97,,,
Judgement,html.Screen,0_3_2_1,2021-04-22T10:22:59.311Z,,,,,,,,,,,,,,,,,,,,,,,,,,,false,1,,1382.9399999969464,,response,,,,,,,,,1,,2,click #choice-2,,,,,S,O,I,,106707.51000000018,106705.90999999695,105306.759,105307.45499999466,105322.97,106722.632,,,
Trial,flow.Sequence,0_3_2,2021-04-22T10:22:59.311Z,,,,,,,,,,,,,,,,,,,,,,,,,,,,,,5631.367999996946,,completion,,,,,,,,,1,,,,,,,,S,O,I,,106708.04999999382,106705.90999999695,101057.839,101074.11999999749,101074.542,106722.632,,,
Sounds,html.Screen,0_3_3_0,2021-04-22T10:23:03.560Z,,,,,,,,,,,,,,,,,,,,,,,,,,,,,,4248.665999999997,,timeout,,,,,,,,,2,,,,,,,,O,S,I,,110956.36999999988,110954.41,106706.128,106708.42999999877,106722.632,110971.298,,,
Judgement,html.Screen,0_3_3_1,2021-04-22T10:23:04.427Z,,,,,,,,,,,,,,,,,,,,,,,,,,,true,2,,850.6869999950432,,response,,,,,,,,,2,,2,click #choice-2,,,,,O,S,I,,111823.60999999946,111821.98499999504,110954.41,110956.46999999735,110971.298,111837.523,,,
Trial,flow.Sequence,0_3_3,2021-04-22T10:23:04.427Z,,,,,,,,,,,,,,,,,,,,,,,,,,,,,,5099.352999995041,,completion,,,,,,,,,2,,,,,,,,O,S,I,,111824.14499999868,111821.98499999504,106706.128,106708.30500000011,106722.632,111837.523,,,
Sounds,html.Screen,0_3_4_0,2021-04-22T10:23:08.674Z,,,,,,,,,,,,,,,,,,,,,,,,,,,,,,4248.592000000004,,timeout,,,,,,,,,3,,,,,,,,I,O,S,,116071.08499999595,116069.438,111821.086,111824.49999999517,111837.523,116086.115,,,
Judgement,html.Screen,0_3_4_1,2021-04-22T10:23:09.549Z,,,,,,,,,,,,,,,,,,,,,,,,,,,true,3,,858.3599999965954,,response,,,,,,,,,3,,3,click #choice-3,,,,,I,O,S,,116946.20500000019,116944.4749999966,116069.438,116071.40499999514,116086.115,116952.453,,,
Trial,flow.Sequence,0_3_4,2021-04-22T10:23:09.550Z,,,,,,,,,,,,,,,,,,,,,,,,,,,,,,5106.9519999966,,completion,,,,,,,,,3,,,,,,,,I,O,S,,116946.70499999484,116944.4749999966,111821.086,111824.40499999939,111837.523,116952.453,,,
Sounds,html.Screen,0_3_5_0,2021-04-22T10:23:13.789Z,,,,,,,,,,,,,,,,,,,,,,,,,,,,,,4248.912000000011,,timeout,,,,,,,,,2,,,,,,,,I,S,O,,121185.90499999846,121184.43,116935.833,116947.0599999986,116952.453,121201.365,,,
Judgement,html.Screen,0_3_5_1,2021-04-22T10:23:14.607Z,,,,,,,,,,,,,,,,,,,,,,,,,,,true,2,,800.6749999993917,,response,,,,,,,,,2,,2,click #choice-2,,,,,I,S,O,,122003.70999999723,122002.0399999994,121184.43,121186.27500000002,121201.365,122017.452,,,
Trial,flow.Sequence,0_3_5,2021-04-22T10:23:14.608Z,,,,,,,,,,,,,,,,,,,,,,,,,,,,,,5049.586999999403,,completion,,,,,,,,,2,,,,,,,,I,S,O,,122004.22999999864,122002.0399999994,116935.833,116946.96999999724,116952.453,122017.452,,,
Task,flow.Loop,0_3,2021-04-22T10:23:14.620Z,,,,,,,,,,,,,,,,,,,,,,,,,,,,,,34223.0329999994,,completion,,,0.8333333333333334,,,,,,,,,,,,,,,,,,122016.78999999422,122002.0399999994,87762.421,87776.84500000032,87779.007,122017.452,,,
Trap,html.Screen,0_4,2021-04-22T10:23:14.624Z,,,,,,,,,,,,,,,,,,,,,,,,,,,,,,NaN,,skipped,,,,,,,,,,,,,,,,,,,,,122020.30499999819,122002.0399999994,,122020.05999999528,,122017.452,,,
Thanks,html.Screen,0_5,2021-04-22T10:23:19.066Z,,,,,,,,,,,,,,,,,,,,,,,,,,,,,,4444.647999997003,,response,,,,,,,,,,,continue,click button,,,,,,,,,126462.81999999337,126462.09999999701,122001.074,122020.50999999483,122017.452,131530.765,,,
Headphone screening,flow.Sequence,0,2021-04-22T10:23:19.066Z,,,,,,,,,,,,,,,,,,,,,,,,,,,,,,119722.530999997,,completion,,,,,,,,,,,,,,,,,,,,,126463.02499999729,126462.09999999701,6706.243,6711.824999998498,6739.569,131530.765,,,
Instructions,html.Page,1_0,2021-04-22T10:24:00.337Z,,,,,,,,,,,,,,,,,,,,,,,,,,,,,,36201.8949999942,,form submission,,,,,,,,,,,,,,,,,,,,,167733.2849999948,167732.6599999942,131514.104,131528.1149999937,131530.765,167735.331,,,
Holding screen,html.Screen,1_1_0_0,2021-04-22T10:24:10.320Z,,,,,,,,,,,,,,,,,,,,,,,,,,,,,,10029.894,,timeout,,,,,,,,,,,,,,,,,,,,,177716.5049999967,177715.311,167718.83,167733.8249999957,167735.331,177765.225,,,
screen,html.Screen,1_1_0_1_0,2021-04-22T10:24:11.017Z,,,,,,,,,,,,,,,,53,,,,,,,,,,,,,,642.184999999794,,response,,,,99,,,,,,,Space,keypress(Space),,,,,,,,When -- ----- -- ------ - ------- --- ----------<br>------------- ------ ------ ---- ---- ------- ----- -- ----<br>-------- ------- -- ---------- --- - --- ----- ----- ----<br>---- --- --- ----- --- ---- ---- ------- ----- ---- -------<br>--- --- -- ----- -- --- ---- -- --- ---- -- ------ ------<br>--- ----- -- ----,178413.33999999915,178407.4099999998,177715.311,177716.97499999573,177765.225,178414.981,,0,When
screen,html.Screen,1_1_0_1_1,2021-04-22T10:24:12.025Z,,,,,,,,,,,,,,,,53,,,,,,,,,,,,,,1004.5039999985311,,response,,,,99,,,,,,,Space,keypress(Space),,,,,,,,---- it ----- -- ------ - ------- --- ----------<br>------------- ------ ------ ---- ---- ------- ----- -- ----<br>-------- ------- -- ---------- --- - --- ----- ----- ----<br>---- --- --- ----- --- ---- ---- ------- ----- ---- -------<br>--- --- -- ----- -- --- ---- -- --- ---- -- ------ ------<br>--- ----- -- ----,179420.57999999815,179419.48499999853,178398.765,178413.4649999978,178414.981,179431.524,,1,it
screen,html.Screen,1_1_0_1_2,2021-04-22T10:24:12.790Z,,,,,,,,,,,,,,,,53,,,,,,,,,,,,,,753.6109999997134,,response,,,,99,,,,,,,Space,keypress(Space),,,,,,,,---- -- comes -- ------ - ------- --- ----------<br>------------- ------ ------ ---- ---- ------- ----- -- ----<br>-------- ------- -- ---------- --- - --- ----- ----- ----<br>---- --- --- ----- --- ---- ---- ------- ----- ---- -------<br>--- --- -- ----- -- --- ---- -- --- ---- -- ------ ------<br>--- ----- -- ----,180186.28999999783,180185.13499999972,179414.563,179420.91999999684,179431.524,180197.811,,2,comes
screen,html.Screen,1_1_0_1_3,2021-04-22T10:24:13.421Z,,,,,,,,,,,,,,,,53,,,,,,,,,,,,,,615.7989999974379,,response,,,,99,,,,,,,Space,keypress(Space),,,,,,,,---- -- ----- to ------ - ------- --- ----------<br>------------- ------ ------ ---- ---- ------- ----- -- ----<br>-------- ------- -- ---------- --- - --- ----- ----- ----<br>---- --- --- ----- --- ---- ---- ------- ----- ---- -------<br>--- --- -- ----- -- --- ---- -- --- ---- -- ------ ------<br>--- ----- -- ----,180816.859999999,180813.60999999742,180181.258,180186.60499999532,180197.811,180830.932,,3,to
screen,html.Screen,1_1_0_1_4,2021-04-22T10:24:14.058Z,,,,,,,,,,,,,,,,53,,,,,,,,,,,,,,621.9079999981041,,response,,,,99,,,,,,,Space,keypress(Space),,,,,,,,---- -- ----- -- having - ------- --- ----------<br>------------- ------ ------ ---- ---- ------- ----- -- ----<br>-------- ------- -- ---------- --- - --- ----- ----- ----<br>---- --- --- ----- --- ---- ---- ------- ----- ---- -------<br>--- --- -- ----- -- --- ---- -- --- ---- -- ------ ------<br>--- ----- -- ----,181453.7799999962,181452.8399999981,180814.399,180817.26499999786,180830.932,181464.077,,4,having
screen,html.Screen,1_1_0_1_5,2021-04-22T10:24:14.551Z,,,,,,,,,,,,,,,,53,,,,,,,,,,,,,,481.9079999984824,,response,,,,99,,,,,,,Space,keypress(Space),,,,,,,,---- -- ----- -- ------ a ------- --- ----------<br>------------- ------ ------ ---- ---- ------- ----- -- ----<br>-------- ------- -- ---------- --- - --- ----- ----- ----<br>---- --- --- ----- --- ---- ---- ------- ----- ---- -------<br>--- --- -- ----- -- --- ---- -- --- ---- -- ------ ------<br>--- ----- -- ----,181947.15499999438,181945.98499999847,181447.57,181454.06999999977,181464.077,181964.273,,5,a
screen,html.Screen,1_1_0_1_6,2021-04-22T10:24:15.269Z,,,,,,,,,,,,,,,,53,,,,,,,,,,,,,,700.2119999938877,,response,,,,99,,,,,,,Space,keypress(Space),,,,,,,,---- -- ----- -- ------ - lasting --- ----------<br>------------- ------ ------ ---- ---- ------- ----- -- ----<br>-------- ------- -- ---------- --- - --- ----- ----- ----<br>---- --- --- ----- --- ---- ---- ------- ----- ---- -------<br>--- --- -- ----- -- --- ---- -- --- ---- -- ------ ------<br>--- ----- -- ----,182665.51499999332,182664.48499999387,181947.151,181947.48499999696,181964.273,182680.623,,6,lasting
screen,html.Screen,1_1_0_1_7,2021-04-22T10:24:15.784Z,,,,,,,,,,,,,,,,53,,,,,,,,,,,,,,498.01199999658274,,response,,,,99,,,,,,,Space,keypress(Space),,,,,,,,---- -- ----- -- ------ - ------- and ----------<br>------------- ------ ------ ---- ---- ------- ----- -- ----<br>-------- ------- -- ---------- --- - --- ----- ----- ----<br>---- --- --- ----- --- ---- ---- ------- ----- ---- -------<br>--- --- -- ----- -- --- ---- -- --- ---- -- ------ ------<br>--- ----- -- ----,183179.56499999855,183178.63499999658,182663.925,182665.8599999937,182680.623,183197.092,,7,and
screen,html.Screen,1_1_0_1_8,2021-04-22T10:24:16.590Z,,,,,,,,,,,,,,,,53,,,,,,,,,,,,,,788.0580000004265,,response,,,,99,,,,,,,Space,keypress(Space),,,,,,,,---- -- ----- -- ------ - ------- --- fulfilling<br>------------- ------ ------ ---- ---- ------- ----- -- ----<br>-------- ------- -- ---------- --- - --- ----- ----- ----<br>---- --- --- ----- --- ---- ---- ------- ----- ---- -------<br>--- --- -- ----- -- --- ---- -- --- ---- -- ------ ------<br>--- ----- -- ----,183986.1449999953,183985.15000000043,183180.32,183179.85000000044,183197.092,183996.859,,8,fulfilling
screen,html.Screen,1_1_0_1_9,2021-04-22T10:24:17.440Z,,,,,,,,,,,,,,,,53,,,,,,,,,,,,,,838.1309999957448,,response,,,,99,,,,,,,Space,keypress(Space),,,,,,,,"---- -- ----- -- ------ - ------- --- ----------<br>relationship, ------ ------ ---- ---- ------- ----- -- ----<br>-------- ------- -- ---------- --- - --- ----- ----- ----<br>---- --- --- ----- --- ---- ---- ------- ----- ---- -------<br>--- --- -- ----- -- --- ---- -- --- ---- -- ------ ------<br>--- ----- -- ----",184835.9849999979,184834.98999999574,183979.878,183986.4299999972,183996.859,184846.262,,9,"relationship,"
screen,html.Screen,1_1_0_1_10,2021-04-22T10:24:18.194Z,,,,,,,,,,,,,,,,53,,,,,,,,,,,,,,742.9229999970994,,response,,,,99,,,,,,,Space,keypress(Space),,,,,,,,---- -- ----- -- ------ - ------- --- ----------<br>------------- common ------ ---- ---- ------- ----- -- ----<br>-------- ------- -- ---------- --- - --- ----- ----- ----<br>---- --- --- ----- --- ---- ---- ------- ----- ---- -------<br>--- --- -- ----- -- --- ---- -- --- ---- -- ------ ------<br>--- ----- -- ----,185590.14000000025,185589.1849999971,184829.815,184836.2749999942,184846.262,185595.949,,10,common
screen,html.Screen,1_1_0_1_11,2021-04-22T10:24:18.814Z,,,,,,,,,,,,,,,,53,,,,,,,,,,,,,,614.0059999984514,,response,,,,99,,,,,,,Space,keypress(Space),,,,,,,,---- -- ----- -- ------ - ------- --- ----------<br>------------- ------ wisdom ---- ---- ------- ----- -- ----<br>-------- ------- -- ---------- --- - --- ----- ----- ----<br>---- --- --- ----- --- ---- ---- ------- ----- ---- -------<br>--- --- -- ----- -- --- ---- -- --- ---- -- ------ ------<br>--- ----- -- ----,186210.49499999936,186209.95499999844,185579.264,185590.42499999487,185595.949,186212.301,,11,wisdom
screen,html.Screen,1_1_0_1_12,2021-04-22T10:24:19.480Z,,,,,,,,,,,,,,,,53,,,,,,,,,,,,,,663.5339999989083,,response,,,,99,,,,,,,Space,keypress(Space),,,,,,,,---- -- ----- -- ------ - ------- --- ----------<br>------------- ------ ------ says ---- ------- ----- -- ----<br>-------- ------- -- ---------- --- - --- ----- ----- ----<br>---- --- --- ----- --- ---- ---- ------- ----- ---- -------<br>--- --- -- ----- -- --- ---- -- --- ---- -- ------ ------<br>--- ----- -- ----,186876.32499999745,186875.83499999892,186195.731,186210.60999999463,186212.301,186878.728,,12,says
screen,html.Screen,1_1_0_1_13,2021-04-22T10:24:20.115Z,,,,,,,,,,,,,,,,53,,,,,,,,,,,,,,631.8169999973616,,response,,,,99,,,,,,,Space,keypress(Space),,,,,,,,---- -- ----- -- ------ - ------- --- ----------<br>------------- ------ ------ ---- that ------- ----- -- ----<br>-------- ------- -- ---------- --- - --- ----- ----- ----<br>---- --- --- ----- --- ---- ---- ------- ----- ---- -------<br>--- --- -- ----- -- --- ---- -- --- ---- -- ------ ------<br>--- ----- -- ----,187511.04499999929,187510.54499999736,186862.193,186876.40999999712,186878.728,187532.555,,13,that
screen,html.Screen,1_1_0_1_14,2021-04-22T10:24:20.532Z,,,,,,,,,,,,,,,,53,,,,,,,,,,,,,,395.1299999951152,,response,,,,99,,,,,,,Space,keypress(Space),,,,,,,,---- -- ----- -- ------ - ------- --- ----------<br>------------- ------ ------ ---- ---- feeling ----- -- ----<br>-------- ------- -- ---------- --- - --- ----- ----- ----<br>---- --- --- ----- --- ---- ---- ------- ----- ---- -------<br>--- --- -- ----- -- --- ---- -- --- ---- -- ------ ------<br>--- ----- -- ----,187928.03999999887,187927.6849999951,187495.23,187511.12999999896,187532.555,187945.037,,14,feeling
screen,html.Screen,1_1_0_1_15,2021-04-22T10:24:21.125Z,,,,,,,,,,,,,,,,53,,,,,,,,,,,,,,575.7279999938328,,response,,,,99,,,,,,,Space,keypress(Space),,,,,,,,---- -- ----- -- ------ - ------- --- ----------<br>------------- ------ ------ ---- ---- ------- close -- ----<br>-------- ------- -- ---------- --- - --- ----- ----- ----<br>---- --- --- ----- --- ---- ---- ------- ----- ---- -------<br>--- --- -- ----- -- --- ---- -- --- ---- -- ------ ------<br>--- ----- -- ----,188521.20999999897,188520.76499999384,187928.322,187928.11499999516,187945.037,188528.208,,15,close
screen,html.Screen,1_1_0_1_16,2021-04-22T10:24:21.572Z,,,,,,,,,,,,,,,,53,,,,,,,,,,,,,,438.8869999999588,,response,,,,99,,,,,,,Space,keypress(Space),,,,,,,,---- -- ----- -- ------ - ------- --- ----------<br>------------- ------ ------ ---- ---- ------- ----- to ----<br>-------- ------- -- ---------- --- - --- ----- ----- ----<br>---- --- --- ----- --- ---- ---- ------- ----- ---- -------<br>--- --- -- ----- -- --- ---- -- --- ---- -- ------ ------<br>--- ----- -- ----,188968.06499999366,188967.09499999997,188511.5,188521.30000000034,188528.208,188978.107,,16,to
screen,html.Screen,1_1_0_1_17,2021-04-22T10:24:22.093Z,,,,,,,,,,,,,,,,53,,,,,,,,,,,,,,510.27299999524257,,response,,,,99,,,,,,,Space,keypress(Space),,,,,,,,---- -- ----- -- ------ - ------- --- ----------<br>------------- ------ ------ ---- ---- ------- ----- -- your<br>-------- ------- -- ---------- --- - --- ----- ----- ----<br>---- --- --- ----- --- ---- ---- ------- ----- ---- -------<br>--- --- -- ----- -- --- ---- -- --- ---- -- ------ ------<br>--- ----- -- ----,189488.7549999985,189488.37999999523,188961.353,188968.35499999725,188978.107,189495.001,,17,your
screen,html.Screen,1_1_0_1_18,2021-04-22T10:24:22.770Z,,,,,,,,,,,,,,,,53,,,,,,,,,,,,,,669.6689999983064,,response,,,,99,,,,,,,Space,keypress(Space),,,,,,,,---- -- ----- -- ------ - ------- --- ----------<br>------------- ------ ------ ---- ---- ------- ----- -- ----<br>romantic ------- -- ---------- --- - --- ----- ----- ----<br>---- --- --- ----- --- ---- ---- ------- ----- ---- -------<br>--- --- -- ----- -- --- ---- -- --- ---- -- ------ ------<br>--- ----- -- ----,190165.77999999572,190164.6699999983,189478.173,189488.82999999478,189495.001,190178.095,,18,romantic
screen,html.Screen,1_1_0_1_19,2021-04-22T10:24:23.188Z,,,,,,,,,,,,,,,,53,,,,,,,,,,,,,,404.6249999985157,,response,,,,99,,,,,,,Space,keypress(Space),,,,,,,,---- -- ----- -- ------ - ------- --- ----------<br>------------- ------ ------ ---- ---- ------- ----- -- ----<br>-------- partner -- ---------- --- - --- ----- ----- ----<br>---- --- --- ----- --- ---- ---- ------- ----- ---- -------<br>--- --- -- ----- -- --- ---- -- --- ---- -- ------ ------<br>--- ----- -- ----,190583.72999999847,190582.71999999852,190161.06,190166.0950000005,190178.095,190594.332,,19,partner
screen,html.Screen,1_1_0_1_20,2021-04-22T10:24:23.673Z,,,,,,,,,,,,,,,,53,,,,,,,,,,,,,,473.3529999945313,,response,,,,99,,,,,,,Space,keypress(Space),,,,,,,,---- -- ----- -- ------ - ------- --- ----------<br>------------- ------ ------ ---- ---- ------- ----- -- ----<br>-------- ------- is ---------- --- - --- ----- ----- ----<br>---- --- --- ----- --- ---- ---- ------- ----- ---- -------<br>--- --- -- ----- -- --- ---- -- --- ---- -- ------ ------<br>--- ----- -- ----,191068.71999999566,191067.68499999453,190577.891,190584.01500000036,190594.332,191077.928,,20,is
screen,html.Screen,1_1_0_1_21,2021-04-22T10:24:24.554Z,,,,,,,,,,,,,,,,53,,,,,,,,,,,,,,870.9369999984629,,response,,,,99,,,,,,,Space,keypress(Space),,,,,,,,---- -- ----- -- ------ - ------- --- ----------<br>------------- ------ ------ ---- ---- ------- ----- -- ----<br>-------- ------- -- paramount. --- - --- ----- ----- ----<br>---- --- --- ----- --- ---- ---- ------- ----- ---- -------<br>--- --- -- ----- -- --- ---- -- --- ---- -- ------ ------<br>--- ----- -- ----,191950.01999999658,191948.86499999848,191060.767,191069.04999999824,191077.928,191960.932,,21,paramount.
screen,html.Screen,1_1_0_1_22,2021-04-22T10:24:25.099Z,,,,,,,,,,,,,,,,53,,,,,,,,,,,,,,532.3029999944556,,response,,,,99,,,,,,,Space,keypress(Space),,,,,,,,---- -- ----- -- ------ - ------- --- ----------<br>------------- ------ ------ ---- ---- ------- ----- -- ----<br>-------- ------- -- ---------- But - --- ----- ----- ----<br>---- --- --- ----- --- ---- ---- ------- ----- ---- -------<br>--- --- -- ----- -- --- ---- -- --- ---- -- ------ ------<br>--- ----- -- ----,192494.5899999948,192493.23499999446,191944.101,191950.35999999527,191960.932,192510.342,,22,But
screen,html.Screen,1_1_0_1_23,2021-04-22T10:24:26.034Z,,,,,,,,,,,,,,,,53,,,,,,,,,,,,,,919.1179999993765,,response,,,,99,,,,,,,Space,keypress(Space),,,,,,,,---- -- ----- -- ------ - ------- --- ----------<br>------------- ------ ------ ---- ---- ------- ----- -- ----<br>-------- ------- -- ---------- --- a --- ----- ----- ----<br>---- --- --- ----- --- ---- ---- ------- ----- ---- -------<br>--- --- -- ----- -- --- ---- -- --- ---- -- ------ ------<br>--- ----- -- ----,193429.92999999842,193429.45999999938,192493.948,192494.90999999398,192510.342,193443.472,,23,a
screen,html.Screen,1_1_0_1_24,2021-04-22T10:24:26.560Z,,,,,,,,,,,,,,,,53,,,,,,,,,,,,,,512.2429999964079,,response,,,,99,,,,,,,Space,keypress(Space),,,,,,,,---- -- ----- -- ------ - ------- --- ----------<br>------------- ------ ------ ---- ---- ------- ----- -- ----<br>-------- ------- -- ---------- --- - new ----- ----- ----<br>---- --- --- ----- --- ---- ---- ------- ----- ---- -------<br>--- --- -- ----- -- --- ---- -- --- ---- -- ------ ------<br>--- ----- -- ----,193956.22999999614,193955.71499999642,193426.923,193430.0299999959,193443.472,193959.714,,24,new
screen,html.Screen,1_1_0_1_25,2021-04-22T10:24:27.065Z,,,,,,,,,,,,,,,,53,,,,,,,,,,,,,,500.35599999371334,,response,,,,99,,,,,,,Space,keypress(Space),,,,,,,,---- -- ----- -- ------ - ------- --- ----------<br>------------- ------ ------ ---- ---- ------- ----- -- ----<br>-------- ------- -- ---------- --- - --- study ----- ----<br>---- --- --- ----- --- ---- ---- ------- ----- ---- -------<br>--- --- -- ----- -- --- ---- -- --- ---- -- ------ ------<br>--- ----- -- ----,194460.60999999463,194460.06999999372,193943.252,193956.3449999987,193959.714,194476.587,,25,study
screen,html.Screen,1_1_0_1_26,2021-04-22T10:24:27.529Z,,,,,,,,,,,,,,,,53,,,,,,,,,,,,,,446.80299999628915,,response,,,,99,,,,,,,Space,keypress(Space),,,,,,,,---- -- ----- -- ------ - ------- --- ----------<br>------------- ------ ------ ---- ---- ------- ----- -- ----<br>-------- ------- -- ---------- --- - --- ----- finds ----<br>---- --- --- ----- --- ---- ---- ------- ----- ---- -------<br>--- --- -- ----- -- --- ---- -- --- ---- -- ------ ------<br>--- ----- -- ----,194924.65499999525,194923.3899999963,194459.495,194460.78499999567,194476.587,194959.539,,26,finds
screen,html.Screen,1_1_0_1_27,2021-04-22T10:24:28.048Z,,,,,,,,,,,,,,,,53,,,,,,,,,,,,,,483.8409999969881,,response,,,,99,,,,,,,Space,keypress(Space),,,,,,,,---- -- ----- -- ------ - ------- --- ----------<br>------------- ------ ------ ---- ---- ------- ----- -- ----<br>-------- ------- -- ---------- --- - --- ----- ----- that<br>---- --- --- ----- --- ---- ---- ------- ----- ---- -------<br>--- --- -- ----- -- --- ---- -- --- ---- -- ------ ------<br>--- ----- -- ----,195444.40999999642,195443.37999999698,194943.139,194925.20499999955,194959.539,195459.76,,27,that
screen,html.Screen,1_1_0_1_28,2021-04-22T10:24:28.465Z,,,,,,,,,,,,,,,,53,,,,,,,,,,,,,,400.3199999985518,,response,,,,99,,,,,,,Space,keypress(Space),,,,,,,,---- -- ----- -- ------ - ------- --- ----------<br>------------- ------ ------ ---- ---- ------- ----- -- ----<br>-------- ------- -- ---------- --- - --- ----- ----- ----<br>it's --- --- ----- --- ---- ---- ------- ----- ---- -------<br>--- --- -- ----- -- --- ---- -- --- ---- -- ------ ------<br>--- ----- -- ----,195861.03499999444,195860.07999999856,195442.659,195444.68999999663,195459.76,195876.275,,28,it's
screen,html.Screen,1_1_0_1_29,2021-04-22T10:24:29.121Z,,,,,,,,,,,,,,,,53,,,,,,,,,,,,,,639.764999994979,,response,,,,99,,,,,,,Space,keypress(Space),,,,,,,,---- -- ----- -- ------ - ------- --- ----------<br>------------- ------ ------ ---- ---- ------- ----- -- ----<br>-------- ------- -- ---------- --- - --- ----- ----- ----<br>---- not --- ----- --- ---- ---- ------- ----- ---- -------<br>--- --- -- ----- -- --- ---- -- --- ---- -- ------ ------<br>--- ----- -- ----,196516.96499999525,196516.03999999497,195859.497,195861.31000000023,195876.275,196525.648,,29,not
screen,html.Screen,1_1_0_1_30,2021-04-22T10:24:29.474Z,,,,,,,,,,,,,,,,53,,,,,,,,,,,,,,343.57200000050943,,response,,,,99,,,,,,,Space,keypress(Space),,,,,,,,---- -- ----- -- ------ - ------- --- ----------<br>------------- ------ ------ ---- ---- ------- ----- -- ----<br>-------- ------- -- ---------- --- - --- ----- ----- ----<br>---- --- how ----- --- ---- ---- ------- ----- ---- -------<br>--- --- -- ----- -- --- ---- -- --- ---- -- ------ ------<br>--- ----- -- ----,196870.17999999807,196869.2200000005,196509.199,196517.22999999765,196525.648,196875.461,,30,how
screen,html.Screen,1_1_0_1_31,2021-04-22T10:24:30.096Z,,,,,,,,,,,,,,,,53,,,,,,,,,,,,,,615.62399999419,,response,,,,99,,,,,,,Space,keypress(Space),,,,,,,,---- -- ----- -- ------ - ------- --- ----------<br>------------- ------ ------ ---- ---- ------- ----- -- ----<br>-------- ------- -- ---------- --- - --- ----- ----- ----<br>---- --- --- close --- ---- ---- ------- ----- ---- -------<br>--- --- -- ----- -- --- ---- -- --- ---- -- ------ ------<br>--- ----- -- ----,197492.12999999872,197491.0849999942,196859.302,196870.35999999352,196875.461,197508.913,,31,close
screen,html.Screen,1_1_0_1_32,2021-04-22T10:24:30.530Z,,,,,,,,,,,,,,,,53,,,,,,,,,,,,,,415.9969999942696,,response,,,,99,,,,,,,Space,keypress(Space),,,,,,,,---- -- ----- -- ------ - ------- --- ----------<br>------------- ------ ------ ---- ---- ------- ----- -- ----<br>-------- ------- -- ---------- --- - --- ----- ----- ----<br>---- --- --- ----- you ---- ---- ------- ----- ---- -------<br>--- --- -- ----- -- --- ---- -- --- ---- -- ------ ------<br>--- ----- -- ----,197926.11999999644,197924.90999999427,197491.923,197492.40999999893,197508.913,197941.814,,32,you
screen,html.Screen,1_1_0_1_33,2021-04-22T10:24:31.021Z,,,,,,,,,,,,,,,,53,,,,,,,,,,,,,,475.1709999961895,,response,,,,99,,,,,,,Space,keypress(Space),,,,,,,,---- -- ----- -- ------ - ------- --- ----------<br>------------- ------ ------ ---- ---- ------- ----- -- ----<br>-------- ------- -- ---------- --- - --- ----- ----- ----<br>---- --- --- ----- --- feel ---- ------- ----- ---- -------<br>--- --- -- ----- -- --- ---- -- --- ---- -- ------ ------<br>--- ----- -- ----,198417.41999999795,198416.9849999962,197925.364,197926.40499999834,197941.814,198425.239,,33,feel
screen,html.Screen,1_1_0_1_34,2021-04-22T10:24:31.463Z,,,,,,,,,,,,,,,,53,,,,,,,,,,,,,,433.06599999428727,,response,,,,99,,,,,,,Space,keypress(Space),,,,,,,,---- -- ----- -- ------ - ------- --- ----------<br>------------- ------ ------ ---- ---- ------- ----- -- ----<br>-------- ------- -- ---------- --- - --- ----- ----- ----<br>---- --- --- ----- --- ---- that ------- ----- ---- -------<br>--- --- -- ----- -- --- ---- -- --- ---- -- ------ ------<br>--- ----- -- ----,198859.34499999712,198858.3049999943,198408.202,198417.50499999762,198425.239,198874.807,,34,that
screen,html.Screen,1_1_0_1_35,2021-04-22T10:24:31.903Z,,,,,,,,,,,,,,,,53,,,,,,,,,,,,,,423.2080000003043,,response,,,,99,,,,,,,Space,keypress(Space),,,,,,,,---- -- ----- -- ------ - ------- --- ----------<br>------------- ------ ------ ---- ---- ------- ----- -- ----<br>-------- ------- -- ---------- --- - --- ----- ----- ----<br>---- --- --- ----- --- ---- ---- matters ----- ---- -------<br>--- --- -- ----- -- --- ---- -- --- ---- -- ------ ------<br>--- ----- -- ----,199298.9399999933,199298.0150000003,198858.338,198859.6649999963,198874.807,199307.98,,35,matters
screen,html.Screen,1_1_0_1_36,2021-04-22T10:24:32.333Z,,,,,,,,,,,,,,,,53,,,,,,,,,,,,,,419.92999999414315,,response,,,,99,,,,,,,Space,keypress(Space),,,,,,,,"---- -- ----- -- ------ - ------- --- ----------<br>------------- ------ ------ ---- ---- ------- ----- -- ----<br>-------- ------- -- ---------- --- - --- ----- ----- ----<br>---- --- --- ----- --- ---- ---- ------- most, ---- -------<br>--- --- -- ----- -- --- ---- -- --- ---- -- ------ ------<br>--- ----- -- ----",199728.909999998,199727.90999999415,199291.52,199299.28999999538,199307.98,199741.225,,36,"most,"
screen,html.Screen,1_1_0_1_37,2021-04-22T10:24:32.747Z,,,,,,,,,,,,,,,,53,,,,,,,,,,,,,,401.5899999992398,,response,,,,99,,,,,,,Space,keypress(Space),,,,,,,,---- -- ----- -- ------ - ------- --- ----------<br>------------- ------ ------ ---- ---- ------- ----- -- ----<br>-------- ------- -- ---------- --- - --- ----- ----- ----<br>---- --- --- ----- --- ---- ---- ------- ----- it's -------<br>--- --- -- ----- -- --- ---- -- --- ---- -- ------ ------<br>--- ----- -- ----,200143.2549999954,200142.81499999925,199724.697,199729.1799999948,199741.225,200158.116,,37,it's
screen,html.Screen,1_1_0_1_38,2021-04-22T10:24:33.213Z,,,,,,,,,,,,,,,,53,,,,,,,,,,,,,,449.48899999741116,,response,,,,99,,,,,,,Space,keypress(Space),,,,,,,,---- -- ----- -- ------ - ------- --- ----------<br>------------- ------ ------ ---- ---- ------- ----- -- ----<br>-------- ------- -- ---------- --- - --- ----- ----- ----<br>---- --- --- ----- --- ---- ---- ------- ----- ---- whether<br>--- --- -- ----- -- --- ---- -- --- ---- -- ------ ------<br>--- ----- -- ----,200608.90499999368,200607.60499999742,200141.059,200143.33499999339,200158.116,200624.243,,38,whether
screen,html.Screen,1_1_0_1_39,2021-04-22T10:24:33.599Z,,,,,,,,,,,,,,,,53,,,,,,,,,,,,,,369.87199999406585,,response,,,,99,,,,,,,Space,keypress(Space),,,,,,,,---- -- ----- -- ------ - ------- --- ----------<br>------------- ------ ------ ---- ---- ------- ----- -- ----<br>-------- ------- -- ---------- --- - --- ----- ----- ----<br>---- --- --- ----- --- ---- ---- ------- ----- ---- -------<br>you --- -- ----- -- --- ---- -- --- ---- -- ------ ------<br>--- ----- -- ----,200995.1449999935,200994.11499999405,200607.621,200609.37999999442,200624.243,201007.431,,39,you
screen,html.Screen,1_1_0_1_40,2021-04-22T10:24:33.998Z,,,,,,,,,,,,,,,,53,,,,,,,,,,,,,,385.5439999951923,,response,,,,99,,,,,,,Space,keypress(Space),,,,,,,,---- -- ----- -- ------ - ------- --- ----------<br>------------- ------ ------ ---- ---- ------- ----- -- ----<br>-------- ------- -- ---------- --- - --- ----- ----- ----<br>---- --- --- ----- --- ---- ---- ------- ----- ---- -------<br>--- are -- ----- -- --- ---- -- --- ---- -- ------ ------<br>--- ----- -- ----,201393.91999999498,201392.9749999952,200990.71,200995.4049999942,201007.431,201407.323,,40,are
screen,html.Screen,1_1_0_1_41,2021-04-22T10:24:34.407Z,,,,,,,,,,,,,,,,53,,,,,,,,,,,,,,395.2169999969483,,response,,,,99,,,,,,,Space,keypress(Space),,,,,,,,---- -- ----- -- ------ - ------- --- ----------<br>------------- ------ ------ ---- ---- ------- ----- -- ----<br>-------- ------- -- ---------- --- - --- ----- ----- ----<br>---- --- --- ----- --- ---- ---- ------- ----- ---- -------<br>--- --- as ----- -- --- ---- -- --- ---- -- ------ ------<br>--- ----- -- ----,201803.48499999673,201802.53999999695,201390.781,201394.1949999935,201407.323,201824.085,,41,as
screen,html.Screen,1_1_0_1_42,2021-04-22T10:24:34.822Z,,,,,,,,,,,,,,,,53,,,,,,,,,,,,,,392.65499999621534,,response,,,,99,,,,,,,Space,keypress(Space),,,,,,,,---- -- ----- -- ------ - ------- --- ----------<br>------------- ------ ------ ---- ---- ------- ----- -- ----<br>-------- ------- -- ---------- --- - --- ----- ----- ----<br>---- --- --- ----- --- ---- ---- ------- ----- ---- -------<br>--- --- -- close -- --- ---- -- --- ---- -- ------ ------<br>--- ----- -- ----,202217.6399999953,202216.7399999962,201807.122,201807.21499999345,201824.085,202223.67,,42,close
screen,html.Screen,1_1_0_1_43,2021-04-22T10:24:35.417Z,,,,,,,,,,,,,,,,53,,,,,,,,,,,,,,589.2049999959709,,response,,,,99,,,,,,,Space,keypress(Space),,,,,,,,---- -- ----- -- ------ - ------- --- ----------<br>------------- ------ ------ ---- ---- ------- ----- -- ----<br>-------- ------- -- ---------- --- - --- ----- ----- ----<br>---- --- --- ----- --- ---- ---- ------- ----- ---- -------<br>--- --- -- ----- as --- ---- -- --- ---- -- ------ ------<br>--- ----- -- ----,202813.31999999384,202812.87499999598,202207.23,202217.9049999977,202223.67,202823.432,,43,as
screen,html.Screen,1_1_0_1_44,2021-04-22T10:24:35.980Z,,,,,,,,,,,,,,,,53,,,,,,,,,,,,,,551.6729999991658,,response,,,,99,,,,,,,Space,keypress(Space),,,,,,,,---- -- ----- -- ------ - ------- --- ----------<br>------------- ------ ------ ---- ---- ------- ----- -- ----<br>-------- ------- -- ---------- --- - --- ----- ----- ----<br>---- --- --- ----- --- ---- ---- ------- ----- ---- -------<br>--- --- -- ----- -- you ---- -- --- ---- -- ------ ------<br>--- ----- -- ----,203376.1849999937,203375.10499999917,202806.756,202813.3949999974,202823.432,203390,,44,you
screen,html.Screen,1_1_0_1_45,2021-04-22T10:24:36.580Z,,,,,,,,,,,,,,,,53,,,,,,,,,,,,,,585.1499999983935,,response,,,,99,,,,,,,Space,keypress(Space),,,,,,,,---- -- ----- -- ------ - ------- --- ----------<br>------------- ------ ------ ---- ---- ------- ----- -- ----<br>-------- ------- -- ---------- --- - --- ----- ----- ----<br>---- --- --- ----- --- ---- ---- ------- ----- ---- -------<br>--- --- -- ----- -- --- want -- --- ---- -- ------ ------<br>--- ----- -- ----,203976.21499999514,203975.1499999984,203373.186,203376.4849999934,203390,203989.809,,45,want
screen,html.Screen,1_1_0_1_46,2021-04-22T10:24:37.044Z,,,,,,,,,,,,,,,,53,,,,,,,,,,,,,,448.7660000001197,,response,,,,99,,,,,,,Space,keypress(Space),,,,,,,,---- -- ----- -- ------ - ------- --- ----------<br>------------- ------ ------ ---- ---- ------- ----- -- ----<br>-------- ------- -- ---------- --- - --- ----- ----- ----<br>---- --- --- ----- --- ---- ---- ------- ----- ---- -------<br>--- --- -- ----- -- --- ---- to --- ---- -- ------ ------<br>--- ----- -- ----,204439.74999999773,204438.57500000013,203973.104,203976.51499999483,203989.809,204456.682,,46,to
screen,html.Screen,1_1_0_1_47,2021-04-22T10:24:37.491Z,,,,,,,,,,,,,,,,53,,,,,,,,,,,,,,429.0279999950144,,response,,,,99,,,,,,,Space,keypress(Space),,,,,,,,"---- -- ----- -- ------ - ------- --- ----------<br>------------- ------ ------ ---- ---- ------- ----- -- ----<br>-------- ------- -- ---------- --- - --- ----- ----- ----<br>---- --- --- ----- --- ---- ---- ------- ----- ---- -------<br>--- --- -- ----- -- --- ---- -- be, ---- -- ------ ------<br>--- ----- -- ----",204886.6349999953,204885.70999999502,204439.583,204440.1399999988,204456.682,204889.42,,47,"be,"
screen,html.Screen,1_1_0_1_48,2021-04-22T10:24:38.052Z,,,,,,,,,,,,,,,,53,,,,,,,,,,,,,,557.1649999978545,,response,,,,99,,,,,,,Space,keypress(Space),,,,,,,,---- -- ----- -- ------ - ------- --- ----------<br>------------- ------ ------ ---- ---- ------- ----- -- ----<br>-------- ------- -- ---------- --- - --- ----- ----- ----<br>---- --- --- ----- --- ---- ---- ------- ----- ---- -------<br>--- --- -- ----- -- --- ---- -- --- even -- ------ ------<br>--- ----- -- ----,205447.6450000002,205446.58499999787,204873.016,204886.8849999999,204889.42,205455.906,,48,even
screen,html.Screen,1_1_0_1_49,2021-04-22T10:24:38.593Z,,,,,,,,,,,,,,,,53,,,,,,,,,,,,,,532.0189999940048,,response,,,,99,,,,,,,Space,keypress(Space),,,,,,,,---- -- ----- -- ------ - ------- --- ----------<br>------------- ------ ------ ---- ---- ------- ----- -- ----<br>-------- ------- -- ---------- --- - --- ----- ----- ----<br>---- --- --- ----- --- ---- ---- ------- ----- ---- -------<br>--- --- -- ----- -- --- ---- -- --- ---- if ------ ------<br>--- ----- -- ----,205988.93999999564,205987.924999994,205439.211,205447.914999997,205455.906,206005.971,,49,if
screen,html.Screen,1_1_0_1_50,2021-04-22T10:24:39.022Z,,,,,,,,,,,,,,,,53,,,,,,,,,,,,,,411.19399999894085,,response,,,,99,,,,,,,Space,keypress(Space),,,,,,,,---- -- ----- -- ------ - ------- --- ----------<br>------------- ------ ------ ---- ---- ------- ----- -- ----<br>-------- ------- -- ---------- --- - --- ----- ----- ----<br>---- --- --- ----- --- ---- ---- ------- ----- ---- -------<br>--- --- -- ----- -- --- ---- -- --- ---- -- that's ------<br>--- ----- -- ----,206418.08499999752,206417.16499999893,205989.263,205989.20499999804,206005.971,206422.206,,50,that's
screen,html.Screen,1_1_0_1_51,2021-04-22T10:24:39.590Z,,,,,,,,,,,,,,,,53,,,,,,,,,,,,,,562.7489999998943,,response,,,,99,,,,,,,Space,keypress(Space),,,,,,,,---- -- ----- -- ------ - ------- --- ----------<br>------------- ------ ------ ---- ---- ------- ----- -- ----<br>-------- ------- -- ---------- --- - --- ----- ----- ----<br>---- --- --- ----- --- ---- ---- ------- ----- ---- -------<br>--- --- -- ----- -- --- ---- -- --- ---- -- ------ really<br>--- ----- -- ----,206985.9249999936,206984.9549999999,206405.676,206418.33000000042,206422.206,206988.698,,51,really
screen,html.Screen,1_1_0_1_52,2021-04-22T10:24:40.093Z,,,,,,,,,,,,,,,,53,,,,,,,,,,,,,,500.2269999978307,,response,,,,99,,,,,,,Space,keypress(Space),,,,,,,,---- -- ----- -- ------ - ------- --- ----------<br>------------- ------ ------ ---- ---- ------- ----- -- ----<br>-------- ------- -- ---------- --- - --- ----- ----- ----<br>---- --- --- ----- --- ---- ---- ------- ----- ---- -------<br>--- --- -- ----- -- --- ---- -- --- ---- -- ------ ------<br>not ----- -- ----,207489.38999999518,207488.92499999783,206972.225,206986.1849999943,206988.698,207505.505,,52,not
screen,html.Screen,1_1_0_1_53,2021-04-22T10:24:40.681Z,,,,,,,,,,,,,,,,53,,,,,,,,,,,,,,570.5499999977183,,response,,,,99,,,,,,,Space,keypress(Space),,,,,,,,---- -- ----- -- ------ - ------- --- ----------<br>------------- ------ ------ ---- ---- ------- ----- -- ----<br>-------- ------- -- ---------- --- - --- ----- ----- ----<br>---- --- --- ----- --- ---- ---- ------- ----- ---- -------<br>--- --- -- ----- -- --- ---- -- --- ---- -- ------ ------<br>--- close -- ----,208077.0099999936,208076.05499999772,207488.802,207489.47499999485,207505.505,208088.72,,53,close
screen,html.Screen,1_1_0_1_54,2021-04-22T10:24:41.134Z,,,,,,,,,,,,,,,,53,,,,,,,,,,,,,,440.32499999567517,,response,,,,99,,,,,,,Space,keypress(Space),,,,,,,,---- -- ----- -- ------ - ------- --- ----------<br>------------- ------ ------ ---- ---- ------- ----- -- ----<br>-------- ------- -- ---------- --- - --- ----- ----- ----<br>---- --- --- ----- --- ---- ---- ------- ----- ---- -------<br>--- --- -- ----- -- --- ---- -- --- ---- -- ------ ------<br>--- ----- at ----,208529.96499999426,208529.04499999568,208071.926,208077.2599999982,208088.72,208538.283,,54,at
screen,html.Screen,1_1_0_1_55,2021-04-22T10:24:41.667Z,,,,,,,,,,,,,,,,53,,,,,,,,,,,,,,524.236999999499,,response,,,,99,,,,,,,Space,keypress(Space),,,,,,,,---- -- ----- -- ------ - ------- --- ----------<br>------------- ------ ------ ---- ---- ------- ----- -- ----<br>-------- ------- -- ---------- --- - --- ----- ----- ----<br>---- --- --- ----- --- ---- ---- ------- ----- ---- -------<br>--- --- -- ----- -- --- ---- -- --- ---- -- ------ ------<br>--- ----- -- all.,209063.43999999808,209062.5199999995,208521.832,208530.22999999666,208538.283,209071.266,,55,all.
Item 99,flow.Loop,1_1_0_1,2021-04-22T10:24:41.668Z,,,,,,,,,,,,,,,,,,,,,,,,,,,,,,31297.29499999949,,completion,,,,,D,,,,,,,,,,,silence,,,,,209063.9549999978,209062.5199999995,177715.311,177716.83999999368,177765.225,209071.266,,,
Question 1,html.Screen,1_1_0_2,2021-04-22T10:24:50.353Z,,,,,,,,,,,,,,,,,,,,,,,,,,,true,FALSE,,8675.74899999355,,response,,,,99,D,,,,,,FALSE,click #choice-2,,,,silence,,,,,217748.76999999833,217747.01499999355,209054.792,209064.19999999343,209071.266,217751.756,,,
Question 2,html.Screen,1_1_0_3,2021-04-22T10:24:54.899Z,,,,,,,,,,,,,,,,,,,,,,,,,,,true,TRUE,,4541.773999995377,,response,,,,99,D,,,,,,TRUE,click #choice-1,,,,silence,,,,,222295.11999999522,222293.52999999537,217735.522,217749.09999999363,217751.756,222300.155,,,
Item 99,flow.Sequence,1_1_0,2021-04-22T10:24:54.900Z,,,,,,,,,,,,,,,,,,,,,,,,,,,,,,54558.198999995366,,completion,,,,,,,,,,,,,,,,,,,,,222295.57999999815,222293.52999999537,167718.83,167733.73499999434,167735.331,222300.155,,,
Holding screen,html.Screen,1_1_1_0,2021-04-22T10:25:04.885Z,,,,,,,,,,,,,,,,,,,,,,,,,,,,,,9997.057,,timeout,,,,,,,,,,,,,,,,,,,,,232281.2449999983,232280.154,222283.589,222295.88999999396,222300.155,232297.212,,,
screen,html.Screen,1_1_1_1_0,2021-04-22T10:25:06.546Z,,,,,,,,,,,,,,,,54,,,,,,,,,,,,,,1644.0930000002845,,response,,,,100,,,,,,,Space,keypress(Space),,,,,,,,At --- ---- --- ------ ----- ------- ---- -- --- ------- --<br>------- ---------- ------ -- ----- -- ----- -- ---- ------<br>--- ----- --- --- ------ -------- ----- --- ------ ----- --<br>----- ----- ---------- --- --- ------ ------ ---- -- ------<br>------- --- ------ ----- --- ---- ------- -- ---- --- --<br>------- ------,233942.38999999652,233941.30500000028,232280.154,232281.5799999953,232297.212,233946.237,,0,At
screen,html.Screen,1_1_1_1_1,2021-04-22T10:25:07.016Z,,,,,,,,,,,,,,,,54,,,,,,,,,,,,,,464.53299999496085,,response,,,,100,,,,,,,Space,keypress(Space),,,,,,,,-- the ---- --- ------ ----- ------- ---- -- --- ------- --<br>------- ---------- ------ -- ----- -- ----- -- ---- ------<br>--- ----- --- --- ------ -------- ----- --- ------ ----- --<br>----- ----- ---------- --- --- ------ ------ ---- -- ------<br>------- --- ------ ----- --- ---- ------- -- ---- --- --<br>------- ------,234411.69499999523,234410.76999999495,233929.613,233942.67499999842,233946.237,234429.426,,1,the
screen,html.Screen,1_1_1_1_2,2021-04-22T10:25:07.497Z,,,,,,,,,,,,,,,,54,,,,,,,,,,,,,,462.29399999961606,,response,,,,100,,,,,,,Space,keypress(Space),,,,,,,,-- --- time --- ------ ----- ------- ---- -- --- ------- --<br>------- ---------- ------ -- ----- -- ----- -- ---- ------<br>--- ----- --- --- ------ -------- ----- --- ------ ----- --<br>----- ----- ---------- --- --- ------ ------ ---- -- ------<br>------- --- ------ ----- --- ---- ------- -- ---- --- --<br>------- ------,234892.6399999982,234891.71999999962,234396.489,234411.94499999983,234429.426,234895.879,,2,time
screen,html.Screen,1_1_1_1_3,2021-04-22T10:25:07.994Z,,,,,,,,,,,,,,,,54,,,,,,,,,,,,,,493.39599999409984,,response,,,,100,,,,,,,Space,keypress(Space),,,,,,,,-- --- ---- the ------ ----- ------- ---- -- --- ------- --<br>------- ---------- ------ -- ----- -- ----- -- ---- ------<br>--- ----- --- --- ------ -------- ----- --- ------ ----- --<br>----- ----- ---------- --- --- ------ ------ ---- -- ------<br>------- --- ------ ----- --- ---- ------- -- ---- --- --<br>------- ------,235390.21999999386,235389.2749999941,234879.528,234892.89999999892,234895.879,235395.741,,3,the
screen,html.Screen,1_1_1_1_4,2021-04-22T10:25:08.530Z,,,,,,,,,,,,,,,,54,,,,,,,,,,,,,,529.3239999958023,,response,,,,100,,,,,,,Space,keypress(Space),,,,,,,,-- --- ---- --- French ----- ------- ---- -- --- ------- --<br>------- ---------- ------ -- ----- -- ----- -- ---- ------<br>--- ----- --- --- ------ -------- ----- --- ------ ----- --<br>----- ----- ---------- --- --- ------ ------ ---- -- ------<br>------- --- ------ ----- --- ---- ------- -- ---- --- --<br>------- ------,235925.47999999806,235925.0649999958,235379.164,235390.46499999677,235395.741,235928.9,,4,French
screen,html.Screen,1_1_1_1_5,2021-04-22T10:25:08.968Z,,,,,,,,,,,,,,,,54,,,,,,,,,,,,,,434.0999999975611,,response,,,,100,,,,,,,Space,keypress(Space),,,,,,,,-- --- ---- --- ------ crown ------- ---- -- --- ------- --<br>------- ---------- ------ -- ----- -- ----- -- ---- ------<br>--- ----- --- --- ------ -------- ----- --- ------ ----- --<br>----- ----- ---------- --- --- ------ ------ ---- -- ------<br>------- --- ------ ----- --- ---- ------- -- ---- --- --<br>------- ------,236363.91499999445,236362.99999999756,235912.459,235925.55999999604,235928.9,236378.991,,5,crown
screen,html.Screen,1_1_1_1_6,2021-04-22T10:25:09.655Z,,,,,,,,,,,,,,,,54,,,,,,,,,,,,,,671.0489999946149,,response,,,,100,,,,,,,Space,keypress(Space),,,,,,,,-- --- ---- --- ------ ----- secured ---- -- --- ------- --<br>------- ---------- ------ -- ----- -- ----- -- ---- ------<br>--- ----- --- --- ------ -------- ----- --- ------ ----- --<br>----- ----- ---------- --- --- ------ ------ ---- -- ------<br>------- --- ------ ----- --- ---- ------- -- ---- --- --<br>------- ------,237050.9549999988,237050.03999999462,236362.279,236364.17499999516,236378.991,237062.26,,6,secured
screen,html.Screen,1_1_1_1_7,2021-04-22T10:25:10.709Z,,,,,,,,,,,,,,,,54,,,,,,,,,,,,,,1041.8999999953085,,response,,,,100,,,,,,,Space,keypress(Space),,,,,,,,-- --- ---- --- ------ ----- ------- much -- --- ------- --<br>------- ---------- ------ -- ----- -- ----- -- ---- ------<br>--- ----- --- --- ------ -------- ----- --- ------ ----- --<br>----- ----- ---------- --- --- ------ ------ ---- -- ------<br>------- --- ------ ----- --- ---- ------- -- ---- --- --<br>------- ------,238105.0799999939,238104.15999999532,237045.22,237051.20499999612,237062.26,238111.536,,7,much
screen,html.Screen,1_1_1_1_8,2021-04-22T10:25:11.207Z,,,,,,,,,,,,,,,,54,,,,,,,,,,,,,,490.24899999893387,,response,,,,100,,,,,,,Space,keypress(Space),,,,,,,,-- --- ---- --- ------ ----- ------- ---- of --- ------- --<br>------- ---------- ------ -- ----- -- ----- -- ---- ------<br>--- ----- --- --- ------ -------- ----- --- ------ ----- --<br>----- ----- ---------- --- --- ------ ------ ---- -- ------<br>------- --- ------ ----- --- ---- ------- -- ---- --- --<br>------- ------,238602.7849999955,238601.78499999893,238094.958,238105.3299999985,238111.536,238611.486,,8,of
screen,html.Screen,1_1_1_1_9,2021-04-22T10:25:11.619Z,,,,,,,,,,,,,,,,54,,,,,,,,,,,,,,402.48399999996764,,response,,,,100,,,,,,,Space,keypress(Space),,,,,,,,-- --- ---- --- ------ ----- ------- ---- -- its ------- --<br>------- ---------- ------ -- ----- -- ----- -- ---- ------<br>--- ----- --- --- ------ -------- ----- --- ------ ----- --<br>----- ----- ---------- --- --- ------ ------ ---- -- ------<br>------- --- ------ ----- --- ---- ------- -- ---- --- --<br>------- ------,239014.90999999805,239013.96999999997,238594.926,238603.0849999952,238611.486,239028.242,,9,its
screen,html.Screen,1_1_1_1_10,2021-04-22T10:25:12.052Z,,,,,,,,,,,,,,,,54,,,,,,,,,,,,,,418.27299999599927,,response,,,,100,,,,,,,Space,keypress(Space),,,,,,,,-- --- ---- --- ------ ----- ------- ---- -- --- revenue --<br>------- ---------- ------ -- ----- -- ----- -- ---- ------<br>--- ----- --- --- ------ -------- ----- --- ------ ----- --<br>----- ----- ---------- --- --- ------ ------ ---- -- ------<br>------- --- ------ ----- --- ---- ------- -- ---- --- --<br>------- ------,239447.58499999443,239446.514999996,239011.527,239015.15999999538,239028.242,239461.192,,10,revenue
screen,html.Screen,1_1_1_1_11,2021-04-22T10:25:12.450Z,,,,,,,,,,,,,,,,54,,,,,,,,,,,,,,383.537999997061,,response,,,,100,,,,,,,Space,keypress(Space),,,,,,,,-- --- ---- --- ------ ----- ------- ---- -- --- ------- by<br>------- ---------- ------ -- ----- -- ----- -- ---- ------<br>--- ----- --- --- ------ -------- ----- --- ------ ----- --<br>----- ----- ---------- --- --- ------ ------ ---- -- ------<br>------- --- ------ ----- --- ---- ------- -- ---- --- --<br>------- ------,239845.70999999414,239844.72999999707,239444.377,239447.84499999514,239461.192,239861.372,,11,by
screen,html.Screen,1_1_1_1_12,2021-04-22T10:25:12.952Z,,,,,,,,,,,,,,,,54,,,,,,,,,,,,,,485.7329999934591,,response,,,,100,,,,,,,Space,keypress(Space),,,,,,,,-- --- ---- --- ------ ----- ------- ---- -- --- ------- --<br>issuing ---------- ------ -- ----- -- ----- -- ---- ------<br>--- ----- --- --- ------ -------- ----- --- ------ ----- --<br>----- ----- ---------- --- --- ------ ------ ---- -- ------<br>------- --- ------ ----- --- ---- ------- -- ---- --- --<br>------- ------,240348.05999999662,240347.10499999346,239844.612,239846.24499999336,239861.372,240360.838,,12,issuing
screen,html.Screen,1_1_1_1_13,2021-04-22T10:25:13.399Z,,,,,,,,,,,,,,,,54,,,,,,,,,,,,,,433.3169999959646,,response,,,,100,,,,,,,Space,keypress(Space),,,,,,,,-- --- ---- --- ------ ----- ------- ---- -- --- ------- --<br>------- government ------ -- ----- -- ----- -- ---- ------<br>--- ----- --- --- ------ -------- ----- --- ------ ----- --<br>----- ----- ---------- --- --- ------ ------ ---- -- ------<br>------- --- ------ ----- --- ---- ------- -- ---- --- --<br>------- ------,240795.1549999998,240794.15499999595,240344.297,240348.30999999394,240360.838,240810.739,,13,government
screen,html.Screen,1_1_1_1_14,2021-04-22T10:25:14.295Z,,,,,,,,,,,,,,,,54,,,,,,,,,,,,,,879.7309999940917,,response,,,,100,,,,,,,Space,keypress(Space),,,,,,,,-- --- ---- --- ------ ----- ------- ---- -- --- ------- --<br>------- ---------- bonds. -- ----- -- ----- -- ---- ------<br>--- ----- --- --- ------ -------- ----- --- ------ ----- --<br>----- ----- ---------- --- --- ------ ------ ---- -- ------<br>------- --- ------ ----- --- ---- ------- -- ---- --- --<br>------- ------,241691.36499999877,241690.4699999941,240793.925,240795.4099999988,240810.739,241693.62,,14,bonds.
screen,html.Screen,1_1_1_1_15,2021-04-22T10:25:14.832Z,,,,,,,,,,,,,,,,54,,,,,,,,,,,,,,533.0799999992596,,response,,,,100,,,,,,,Space,keypress(Space),,,,,,,,-- --- ---- --- ------ ----- ------- ---- -- --- ------- --<br>------- ---------- ------ In ----- -- ----- -- ---- ------<br>--- ----- --- --- ------ -------- ----- --- ------ ----- --<br>----- ----- ---------- --- --- ------ ------ ---- -- ------<br>------- --- ------ ----- --- ---- ------- -- ---- --- --<br>------- ------,242227.7599999943,242226.69999999925,241676.965,241691.6499999934,241693.62,242243.5,,15,In
screen,html.Screen,1_1_1_1_16,2021-04-22T10:25:15.888Z,,,,,,,,,,,,,,,,54,,,,,,,,,,,,,,1039.1999999961117,,response,,,,100,,,,,,,Space,keypress(Space),,,,,,,,"-- --- ---- --- ------ ----- ------- ---- -- --- ------- --<br>------- ---------- ------ -- 1727, -- ----- -- ---- ------<br>--- ----- --- --- ------ -------- ----- --- ------ ----- --<br>----- ----- ---------- --- --- ------ ------ ---- -- ------<br>------- --- ------ ----- --- ---- ------- -- ---- --- --<br>------- ------",243283.62999999808,243282.6999999961,242227.173,242228.019999995,242243.5,243293.177,,16,"1727,"
screen,html.Screen,1_1_1_1_17,2021-04-22T10:25:16.734Z,,,,,,,,,,,,,,,,54,,,,,,,,,,,,,,835.7029999965744,,response,,,,100,,,,,,,Space,keypress(Space),,,,,,,,-- --- ---- --- ------ ----- ------- ---- -- --- ------- --<br>------- ---------- ------ -- ----- in ----- -- ---- ------<br>--- ----- --- --- ------ -------- ----- --- ------ ----- --<br>----- ----- ---------- --- --- ------ ------ ---- -- ------<br>------- --- ------ ----- --- ---- ------- -- ---- --- --<br>------- ------,244129.83499999973,244128.87999999657,243276.637,243283.8849999971,243293.177,244143.18,,17,in
screen,html.Screen,1_1_1_1_18,2021-04-22T10:25:17.463Z,,,,,,,,,,,,,,,,54,,,,,,,,,,,,,,714.670000000333,,response,,,,100,,,,,,,Space,keypress(Space),,,,,,,,-- --- ---- --- ------ ----- ------- ---- -- --- ------- --<br>------- ---------- ------ -- ----- -- order -- ---- ------<br>--- ----- --- --- ------ -------- ----- --- ------ ----- --<br>----- ----- ---------- --- --- ------ ------ ---- -- ------<br>------- --- ------ ----- --- ---- ------- -- ---- --- --<br>------- ------,244858.8349999991,244857.85000000033,244126.101,244130.09999999485,244143.18,244875.977,,18,order
screen,html.Screen,1_1_1_1_19,2021-04-22T10:25:18.071Z,,,,,,,,,,,,,,,,54,,,,,,,,,,,,,,589.7079999955604,,response,,,,100,,,,,,,Space,keypress(Space),,,,,,,,-- --- ---- --- ------ ----- ------- ---- -- --- ------- --<br>------- ---------- ------ -- ----- -- ----- to ---- ------<br>--- ----- --- --- ------ -------- ----- --- ------ ----- --<br>----- ----- ---------- --- --- ------ ------ ---- -- ------<br>------- --- ------ ----- --- ---- ------- -- ---- --- --<br>------- ------,245466.63499999704,245465.68499999557,244859.457,244859.1049999959,244875.977,245475.74,,19,to
screen,html.Screen,1_1_1_1_20,2021-04-22T10:25:18.499Z,,,,,,,,,,,,,,,,54,,,,,,,,,,,,,,418.7749999999651,,response,,,,100,,,,,,,Space,keypress(Space),,,,,,,,-- --- ---- --- ------ ----- ------- ---- -- --- ------- --<br>------- ---------- ------ -- ----- -- ----- -- save ------<br>--- ----- --- --- ------ -------- ----- --- ------ ----- --<br>----- ----- ---------- --- --- ------ ------ ---- -- ------<br>------- --- ------ ----- --- ---- ------- -- ---- --- --<br>------- ------,245895.42499999516,245894.51499999996,245459.182,245466.88999999606,245475.74,245908.917,,20,save
screen,html.Screen,1_1_1_1_21,2021-04-22T10:25:18.958Z,,,,,,,,,,,,,,,,54,,,,,,,,,,,,,,444.3729999991192,,response,,,,100,,,,,,,Space,keypress(Space),,,,,,,,"-- --- ---- --- ------ ----- ------- ---- -- --- ------- --<br>------- ---------- ------ -- ----- -- ----- -- ---- money,<br>--- ----- --- --- ------ -------- ----- --- ------ ----- --<br>----- ----- ---------- --- --- ------ ------ ---- -- ------<br>------- --- ------ ----- --- ---- ------- -- ---- --- --<br>------- ------",246354.2199999938,246353.2899999991,245892.51,245895.69999999367,245908.917,246358.711,,21,"money,"
screen,html.Screen,1_1_1_1_22,2021-04-22T10:25:19.428Z,,,,,,,,,,,,,,,,54,,,,,,,,,,,,,,464.2589999937918,,response,,,,100,,,,,,,Space,keypress(Space),,,,,,,,-- --- ---- --- ------ ----- ------- ---- -- --- ------- --<br>------- ---------- ------ -- ----- -- ----- -- ---- ------<br>the ----- --- --- ------ -------- ----- --- ------ ----- --<br>----- ----- ---------- --- --- ------ ------ ---- -- ------<br>------- --- ------ ----- --- ---- ------- -- ---- --- --<br>------- ------,246823.89499999408,246822.9699999938,246341.981,246354.4750000001,246358.711,246843.44,,22,the
screen,html.Screen,1_1_1_1_23,2021-04-22T10:25:19.931Z,,,,,,,,,,,,,,,,54,,,,,,,,,,,,,,482.094999996305,,response,,,,100,,,,,,,Space,keypress(Space),,,,,,,,-- --- ---- --- ------ ----- ------- ---- -- --- ------- --<br>------- ---------- ------ -- ----- -- ----- -- ---- ------<br>--- state --- --- ------ -------- ----- --- ------ ----- --<br>----- ----- ---------- --- --- ------ ------ ---- -- ------<br>------- --- ------ ----- --- ---- ------- -- ---- --- --<br>------- ------,247326.46499999828,247325.5349999963,246808.768,246824.15999999648,246843.44,247341.806,,23,state
screen,html.Screen,1_1_1_1_24,2021-04-22T10:25:20.437Z,,,,,,,,,,,,,,,,54,,,,,,,,,,,,,,490.1089999951946,,response,,,,100,,,,,,,Space,keypress(Space),,,,,,,,-- --- ---- --- ------ ----- ------- ---- -- --- ------- --<br>------- ---------- ------ -- ----- -- ----- -- ---- ------<br>--- ----- cut --- ------ -------- ----- --- ------ ----- --<br>----- ----- ---------- --- --- ------ ------ ---- -- ------<br>------- --- ------ ----- --- ---- ------- -- ---- --- --<br>------- ------,247832.88999999786,247831.9149999952,247325.067,247326.7299999934,247341.806,247841.548,,24,cut
screen,html.Screen,1_1_1_1_25,2021-04-22T10:25:20.796Z,,,,,,,,,,,,,,,,54,,,,,,,,,,,,,,349.5619999997434,,response,,,,100,,,,,,,Space,keypress(Space),,,,,,,,-- --- ---- --- ------ ----- ------- ---- -- --- ------- --<br>------- ---------- ------ -- ----- -- ----- -- ---- ------<br>--- ----- --- the ------ -------- ----- --- ------ ----- --<br>----- ----- ---------- --- --- ------ ------ ---- -- ------<br>------- --- ------ ----- --- ---- ------- -- ---- --- --<br>------- ------,248192.18499999988,248191.10999999975,247824.951,247833.15500000026,247841.548,248208.359,,25,the
screen,html.Screen,1_1_1_1_26,2021-04-22T10:25:21.153Z,,,,,,,,,,,,,,,,54,,,,,,,,,,,,,,339.77099999558413,,response,,,,100,,,,,,,Space,keypress(Space),,,,,,,,-- --- ---- --- ------ ----- ------- ---- -- --- ------- --<br>------- ---------- ------ -- ----- -- ----- -- ---- ------<br>--- ----- --- --- bonds' -------- ----- --- ------ ----- --<br>----- ----- ---------- --- --- ------ ------ ---- -- ------<br>------- --- ------ ----- --- ---- ------- -- ---- --- --<br>------- ------,248549.05999999755,248548.12999999558,248191.483,248192.4949999957,248208.359,248557.944,,26,bonds'
screen,html.Screen,1_1_1_1_27,2021-04-22T10:25:21.619Z,,,,,,,,,,,,,,,,54,,,,,,,,,,,,,,455.59099999823957,,response,,,,100,,,,,,,Space,keypress(Space),,,,,,,,-- --- ---- --- ------ ----- ------- ---- -- --- ------- --<br>------- ---------- ------ -- ----- -- ----- -- ---- ------<br>--- ----- --- --- ------ interest ----- --- ------ ----- --<br>----- ----- ---------- --- --- ------ ------ ---- -- ------<br>------- --- ------ ----- --- ---- ------- -- ---- --- --<br>------- ------,249014.5099999936,249013.53499999823,248541.505,248549.32499999995,248557.944,249024.808,,27,interest
screen,html.Screen,1_1_1_1_28,2021-04-22T10:25:22.021Z,,,,,,,,,,,,,,,,54,,,,,,,,,,,,,,391.46699999595876,,response,,,,100,,,,,,,Space,keypress(Space),,,,,,,,-- --- ---- --- ------ ----- ------- ---- -- --- ------- --<br>------- ---------- ------ -- ----- -- ----- -- ---- ------<br>--- ----- --- --- ------ -------- rate. --- ------ ----- --<br>----- ----- ---------- --- --- ------ ------ ---- -- ------<br>------- --- ------ ----- --- ---- ------- -- ---- --- --<br>------- ------,249417.34499999438,249416.27499999595,249007.939,249014.7999999972,249024.808,249424.401,,28,rate.
screen,html.Screen,1_1_1_1_29,2021-04-22T10:25:22.448Z,,,,,,,,,,,,,,,,54,,,,,,,,,,,,,,418.11899999831803,,response,,,,100,,,,,,,Space,keypress(Space),,,,,,,,-- --- ---- --- ------ ----- ------- ---- -- --- ------- --<br>------- ---------- ------ -- ----- -- ----- -- ---- ------<br>--- ----- --- --- ------ -------- ----- The ------ ----- --<br>----- ----- ---------- --- --- ------ ------ ---- -- ------<br>------- --- ------ ----- --- ---- ------- -- ---- --- --<br>------- ------,249843.64499999356,249842.51999999833,249407.711,249417.63999999966,249424.401,249857.538,,29,The
screen,html.Screen,1_1_1_1_30,2021-04-22T10:25:23.008Z,,,,,,,,,,,,,,,,54,,,,,,,,,,,,,,545.1519999953452,,response,,,,100,,,,,,,Space,keypress(Space),,,,,,,,-- --- ---- --- ------ ----- ------- ---- -- --- ------- --<br>------- ---------- ------ -- ----- -- ----- -- ---- ------<br>--- ----- --- --- ------ -------- ----- --- market ----- --<br>----- ----- ---------- --- --- ------ ------ ---- -- ------<br>------- --- ------ ----- --- ---- ------- -- ---- --- --<br>------- ------,250403.61999999732,250402.68999999535,249840.933,249843.93499999715,249857.538,250407.369,,30,market
screen,html.Screen,1_1_1_1_31,2021-04-22T10:25:23.438Z,,,,,,,,,,,,,,,,54,,,,,,,,,,,,,,425.1509999962873,,response,,,,100,,,,,,,Space,keypress(Space),,,,,,,,-- --- ---- --- ------ ----- ------- ---- -- --- ------- --<br>------- ---------- ------ -- ----- -- ----- -- ---- ------<br>--- ----- --- --- ------ -------- ----- --- ------ value --<br>----- ----- ---------- --- --- ------ ------ ---- -- ------<br>------- --- ------ ----- --- ---- ------- -- ---- --- --<br>------- ------,250833.70499999728,250832.5199999963,250390.706,250403.9049999992,250407.369,250840.542,,31,value
screen,html.Screen,1_1_1_1_32,2021-04-22T10:25:23.827Z,,,,,,,,,,,,,,,,54,,,,,,,,,,,,,,381.552999997366,,response,,,,100,,,,,,,Space,keypress(Space),,,,,,,,-- --- ---- --- ------ ----- ------- ---- -- --- ------- --<br>------- ---------- ------ -- ----- -- ----- -- ---- ------<br>--- ----- --- --- ------ -------- ----- --- ------ ----- of<br>----- ----- ---------- --- --- ------ ------ ---- -- ------<br>------- --- ------ ----- --- ---- ------- -- ---- --- --<br>------- ------,251223.1449999963,251222.09499999735,250823.853,250834.00499999698,250840.542,251240.748,,32,of
screen,html.Screen,1_1_1_1_33,2021-04-22T10:25:24.242Z,,,,,,,,,,,,,,,,54,,,,,,,,,,,,,,396.4969999980822,,response,,,,100,,,,,,,Space,keypress(Space),,,,,,,,-- --- ---- --- ------ ----- ------- ---- -- --- ------- --<br>------- ---------- ------ -- ----- -- ----- -- ---- ------<br>--- ----- --- --- ------ -------- ----- --- ------ ----- --<br>these ----- ---------- --- --- ------ ------ ---- -- ------<br>------- --- ------ ----- --- ---- ------- -- ---- --- --<br>------- ------,251638.30999999482,251637.24499999807,251223.83,251223.43499999988,251240.748,251640.32,,33,these
screen,html.Screen,1_1_1_1_34,2021-04-22T10:25:24.663Z,,,,,,,,,,,,,,,,54,,,,,,,,,,,,,,417.7499999991269,,response,,,,100,,,,,,,Space,keypress(Space),,,,,,,,-- --- ---- --- ------ ----- ------- ---- -- --- ------- --<br>------- ---------- ------ -- ----- -- ----- -- ---- ------<br>--- ----- --- --- ------ -------- ----- --- ------ ----- --<br>----- bonds ---------- --- --- ------ ------ ---- -- ------<br>------- --- ------ ----- --- ---- ------- -- ---- --- --<br>------- ------,252059.14499999926,252058.06999999913,251623.812,251638.5949999967,251640.32,252073.551,,34,bonds
screen,html.Screen,1_1_1_1_35,2021-04-22T10:25:25.072Z,,,,,,,,,,,,,,,,54,,,,,,,,,,,,,,393.7589999999909,,response,,,,100,,,,,,,Space,keypress(Space),,,,,,,,"-- --- ---- --- ------ ----- ------- ---- -- --- ------- --<br>------- ---------- ------ -- ----- -- ----- -- ---- ------<br>--- ----- --- --- ------ -------- ----- --- ------ ----- --<br>----- ----- plummeted, --- --- ------ ------ ---- -- ------<br>------- --- ------ ----- --- ---- ------- -- ---- --- --<br>------- ------",252468.34499999386,252467.31,252056.753,252059.43499999557,252073.551,252490.374,,35,"plummeted,"
screen,html.Screen,1_1_1_1_36,2021-04-22T10:25:25.468Z,,,,,,,,,,,,,,,,54,,,,,,,,,,,,,,372.3159999944619,,response,,,,100,,,,,,,Space,keypress(Space),,,,,,,,-- --- ---- --- ------ ----- ------- ---- -- --- ------- --<br>------- ---------- ------ -- ----- -- ----- -- ---- ------<br>--- ----- --- --- ------ -------- ----- --- ------ ----- --<br>----- ----- ---------- and --- ------ ------ ---- -- ------<br>------- --- ------ ----- --- ---- ------- -- ---- --- --<br>------- ------,252863.7449999951,252862.68999999447,252456.695,252468.63999999914,252490.374,252873.358,,36,and
screen,html.Screen,1_1_1_1_37,2021-04-22T10:25:25.996Z,,,,,,,,,,,,,,,,54,,,,,,,,,,,,,,517.6569999937783,,response,,,,100,,,,,,,Space,keypress(Space),,,,,,,,-- --- ---- --- ------ ----- ------- ---- -- --- ------- --<br>------- ---------- ------ -- ----- -- ----- -- ---- ------<br>--- ----- --- --- ------ -------- ----- --- ------ ----- --<br>----- ----- ---------- --- the ------ ------ ---- -- ------<br>------- --- ------ ----- --- ---- ------- -- ---- --- --<br>------- ------,253392.0450000005,253391.0149999938,252856.901,252864.029999997,252873.358,253406.591,,37,the
screen,html.Screen,1_1_1_1_38,2021-04-22T10:25:26.397Z,,,,,,,,,,,,,,,,54,,,,,,,,,,,,,,385.65399999692454,,response,,,,100,,,,,,,Space,keypress(Space),,,,,,,,-- --- ---- --- ------ ----- ------- ---- -- --- ------- --<br>------- ---------- ------ -- ----- -- ----- -- ---- ------<br>--- ----- --- --- ------ -------- ----- --- ------ ----- --<br>----- ----- ---------- --- --- market ------ ---- -- ------<br>------- --- ------ ----- --- ---- ------- -- ---- --- --<br>------- ------,253793.30999999365,253792.2449999969,253389.788,253392.32999999513,253406.591,253806.462,,38,market
screen,html.Screen,1_1_1_1_39,2021-04-22T10:25:26.772Z,,,,,,,,,,,,,,,,54,,,,,,,,,,,,,,359.89299999392824,,response,,,,100,,,,,,,Space,keypress(Space),,,,,,,,-- --- ---- --- ------ ----- ------- ---- -- --- ------- --<br>------- ---------- ------ -- ----- -- ----- -- ---- ------<br>--- ----- --- --- ------ -------- ----- --- ------ ----- --<br>----- ----- ---------- --- --- ------ became ---- -- ------<br>------- --- ------ ----- --- ---- ------- -- ---- --- --<br>------- ------,254167.47499999474,254166.35499999393,253789.886,253793.59499999555,253806.462,254172.755,,39,became
screen,html.Screen,1_1_1_1_40,2021-04-22T10:25:27.129Z,,,,,,,,,,,,,,,,54,,,,,,,,,,,,,,350.83999999874504,,response,,,,100,,,,,,,Space,keypress(Space),,,,,,,,-- --- ---- --- ------ ----- ------- ---- -- --- ------- --<br>------- ---------- ------ -- ----- -- ----- -- ---- ------<br>--- ----- --- --- ------ -------- ----- --- ------ ----- --<br>----- ----- ---------- --- --- ------ ------ wary -- ------<br>------- --- ------ ----- --- ---- ------- -- ---- --- --<br>------- ------,254524.80499999365,254523.59499999875,254156.275,254167.76499999833,254172.755,254539.778,,40,wary
screen,html.Screen,1_1_1_1_41,2021-04-22T10:25:27.462Z,,,,,,,,,,,,,,,,54,,,,,,,,,,,,,,317.9169999987935,,response,,,,100,,,,,,,Space,keypress(Space),,,,,,,,-- --- ---- --- ------ ----- ------- ---- -- --- ------- --<br>------- ---------- ------ -- ----- -- ----- -- ---- ------<br>--- ----- --- --- ------ -------- ----- --- ------ ----- --<br>----- ----- ---------- --- --- ------ ------ ---- of ------<br>------- --- ------ ----- --- ---- ------- -- ---- --- --<br>------- ------,254858.15000000002,254857.69499999878,254522.784,254525.08499999385,254539.778,254872.707,,41,of
screen,html.Screen,1_1_1_1_42,2021-04-22T10:25:27.776Z,,,,,,,,,,,,,,,,54,,,,,,,,,,,,,,297.83299999916926,,response,,,,100,,,,,,,Space,keypress(Space),,,,,,,,-- --- ---- --- ------ ----- ------- ---- -- --- ------- --<br>------- ---------- ------ -- ----- -- ----- -- ---- ------<br>--- ----- --- --- ------ -------- ----- --- ------ ----- --<br>----- ----- ---------- --- --- ------ ------ ---- -- French<br>------- --- ------ ----- --- ---- ------- -- ---- --- --<br>------- ------,255171.6249999954,255170.53999999916,254856.008,254858.2599999936,254872.707,255189.178,,42,French
screen,html.Screen,1_1_1_1_43,2021-04-22T10:25:28.830Z,,,,,,,,,,,,,,,,54,,,,,,,,,,,,,,1035.7369999988587,,response,,,,100,,,,,,,Space,keypress(Space),,,,,,,,-- --- ---- --- ------ ----- ------- ---- -- --- ------- --<br>------- ---------- ------ -- ----- -- ----- -- ---- ------<br>--- ----- --- --- ------ -------- ----- --- ------ ----- --<br>----- ----- ---------- --- --- ------ ------ ---- -- ------<br>credit. --- ------ ----- --- ---- ------- -- ---- --- --<br>------- ------,256225.93499999493,256224.91499999887,255172.435,255171.914999999,255189.178,256238.836,,43,credit.
screen,html.Screen,1_1_1_1_44,2021-04-22T10:25:29.301Z,,,,,,,,,,,,,,,,54,,,,,,,,,,,,,,457.3789999962901,,response,,,,100,,,,,,,Space,keypress(Space),,,,,,,,-- --- ---- --- ------ ----- ------- ---- -- --- ------- --<br>------- ---------- ------ -- ----- -- ----- -- ---- ------<br>--- ----- --- --- ------ -------- ----- --- ------ ----- --<br>----- ----- ---------- --- --- ------ ------ ---- -- ------<br>------- The ------ ----- --- ---- ------- -- ---- --- --<br>------- ------,256697.13000000047,256696.2149999963,256222.019,256226.22499999852,256238.836,256705.391,,44,The
screen,html.Screen,1_1_1_1_45,2021-04-22T10:25:29.768Z,,,,,,,,,,,,,,,,54,,,,,,,,,,,,,,457.6689999989467,,response,,,,100,,,,,,,Space,keypress(Space),,,,,,,,-- --- ---- --- ------ ----- ------- ---- -- --- ------- --<br>------- ---------- ------ -- ----- -- ----- -- ---- ------<br>--- ----- --- --- ------ -------- ----- --- ------ ----- --<br>----- ----- ---------- --- --- ------ ------ ---- -- ------<br>------- --- French ----- --- ---- ------- -- ---- --- --<br>------- ------,257163.4849999973,257163.05999999895,256688.753,256697.3899999939,256705.391,257171.774,,45,French
screen,html.Screen,1_1_1_1_46,2021-04-22T10:25:30.117Z,,,,,,,,,,,,,,,,54,,,,,,,,,,,,,,339.87099999867496,,response,,,,100,,,,,,,Space,keypress(Space),,,,,,,,-- --- ---- --- ------ ----- ------- ---- -- --- ------- --<br>------- ---------- ------ -- ----- -- ----- -- ---- ------<br>--- ----- --- --- ------ -------- ----- --- ------ ----- --<br>----- ----- ---------- --- --- ------ ------ ---- -- ------<br>------- --- ------ state --- ---- ------- -- ---- --- --<br>------- ------,257512.58999999845,257511.64499999868,257155.402,257163.5599999936,257171.774,257521.727,,46,state
screen,html.Screen,1_1_1_1_47,2021-04-22T10:25:30.485Z,,,,,,,,,,,,,,,,54,,,,,,,,,,,,,,357.8129999944358,,response,,,,100,,,,,,,Space,keypress(Space),,,,,,,,-- --- ---- --- ------ ----- ------- ---- -- --- ------- --<br>------- ---------- ------ -- ----- -- ----- -- ---- ------<br>--- ----- --- --- ------ -------- ----- --- ------ ----- --<br>----- ----- ---------- --- --- ------ ------ ---- -- ------<br>------- --- ------ ----- was ---- ------- -- ---- --- --<br>------- ------,257880.4999999993,257879.53999999445,257505.121,257512.83999999578,257521.727,257888.249,,47,was
screen,html.Screen,1_1_1_1_48,2021-04-22T10:25:30.841Z,,,,,,,,,,,,,,,,54,,,,,,,,,,,,,,347.69099999865284,,response,,,,100,,,,,,,Space,keypress(Space),,,,,,,,-- --- ---- --- ------ ----- ------- ---- -- --- ------- --<br>------- ---------- ------ -- ----- -- ----- -- ---- ------<br>--- ----- --- --- ------ -------- ----- --- ------ ----- --<br>----- ----- ---------- --- --- ------ ------ ---- -- ------<br>------- --- ------ ----- --- left ------- -- ---- --- --<br>------- ------,258236.95999999472,258235.93999999866,257871.532,257880.7799999995,257888.249,258271.534,,48,left
screen,html.Screen,1_1_1_1_49,2021-04-22T10:25:31.175Z,,,,,,,,,,,,,,,,54,,,,,,,,,,,,,,298.03599999964354,,response,,,,100,,,,,,,Space,keypress(Space),,,,,,,,-- --- ---- --- ------ ----- ------- ---- -- --- ------- --<br>------- ---------- ------ -- ----- -- ----- -- ---- ------<br>--- ----- --- --- ------ -------- ----- --- ------ ----- --<br>----- ----- ---------- --- --- ------ ------ ---- -- ------<br>------- --- ------ ----- --- ---- without -- ---- --- --<br>------- ------,258571.2549999953,258569.56999999966,258254.912,258237.24499999662,258271.534,258587.992,,49,without
screen,html.Screen,1_1_1_1_50,2021-04-22T10:25:31.558Z,,,,,,,,,,,,,,,,54,,,,,,,,,,,,,,364.60299999520066,,response,,,,100,,,,,,,Space,keypress(Space),,,,,,,,-- --- ---- --- ------ ----- ------- ---- -- --- ------- --<br>------- ---------- ------ -- ----- -- ----- -- ---- ------<br>--- ----- --- --- ------ -------- ----- --- ------ ----- --<br>----- ----- ---------- --- --- ------ ------ ---- -- ------<br>------- --- ------ ----- --- ---- ------- an ---- --- --<br>------- ------,258953.58499999566,258952.5949999952,258571.289,258571.4949999965,258587.992,258971.473,,50,an
screen,html.Screen,1_1_1_1_51,2021-04-22T10:25:31.827Z,,,,,,,,,,,,,,,,54,,,,,,,,,,,,,,250.12199999543373,,response,,,,100,,,,,,,Space,keypress(Space),,,,,,,,-- --- ---- --- ------ ----- ------- ---- -- --- ------- --<br>------- ---------- ------ -- ----- -- ----- -- ---- ------<br>--- ----- --- --- ------ -------- ----- --- ------ ----- --<br>----- ----- ---------- --- --- ------ ------ ---- -- ------<br>------- --- ------ ----- --- ---- ------- -- easy --- --<br>------- ------,259222.5199999957,259221.59499999543,258954.442,258953.84999999806,258971.473,259237.837,,51,easy
screen,html.Screen,1_1_1_1_52,2021-04-22T10:25:32.407Z,,,,,,,,,,,,,,,,54,,,,,,,,,,,,,,564.4379999945522,,response,,,,100,,,,,,,Space,keypress(Space),,,,,,,,-- --- ---- --- ------ ----- ------- ---- -- --- ------- --<br>------- ---------- ------ -- ----- -- ----- -- ---- ------<br>--- ----- --- --- ------ -------- ----- --- ------ ----- --<br>----- ----- ---------- --- --- ------ ------ ---- -- ------<br>------- --- ------ ----- --- ---- ------- -- ---- way --<br>------- ------,259803.2349999994,259802.27499999455,259221.119,259222.77499999473,259237.837,259821.084,,52,way
screen,html.Screen,1_1_1_1_53,2021-04-22T10:25:32.729Z,,,,,,,,,,,,,,,,54,,,,,,,,,,,,,,303.29099999941536,,response,,,,100,,,,,,,Space,keypress(Space),,,,,,,,-- --- ---- --- ------ ----- ------- ---- -- --- ------- --<br>------- ---------- ------ -- ----- -- ----- -- ---- ------<br>--- ----- --- --- ------ -------- ----- --- ------ ----- --<br>----- ----- ---------- --- --- ------ ------ ---- -- ------<br>------- --- ------ ----- --- ---- ------- -- ---- --- of<br>------- ------,260125.3099999958,260124.37499999942,259804.074,259803.5099999979,259821.084,260137.88,,53,of
screen,html.Screen,1_1_1_1_54,2021-04-22T10:25:33.137Z,,,,,,,,,,,,,,,,54,,,,,,,,,,,,,,394.55999999539927,,response,,,,100,,,,,,,Space,keypress(Space),,,,,,,,-- --- ---- --- ------ ----- ------- ---- -- --- ------- --<br>------- ---------- ------ -- ----- -- ----- -- ---- ------<br>--- ----- --- --- ------ -------- ----- --- ------ ----- --<br>----- ----- ---------- --- --- ------ ------ ---- -- ------<br>------- --- ------ ----- --- ---- ------- -- ---- --- --<br>raising ------,260533.41999999975,260532.4399999954,260120.802,260125.5600000004,260137.88,260537.255,,54,raising
screen,html.Screen,1_1_1_1_55,2021-04-22T10:25:33.551Z,,,,,,,,,,,,,,,,54,,,,,,,,,,,,,,408.52499999455176,,response,,,,100,,,,,,,Space,keypress(Space),,,,,,,,-- --- ---- --- ------ ----- ------- ---- -- --- ------- --<br>------- ---------- ------ -- ----- -- ----- -- ---- ------<br>--- ----- --- --- ------ -------- ----- --- ------ ----- --<br>----- ----- ---------- --- --- ------ ------ ---- -- ------<br>------- --- ------ ----- --- ---- ------- -- ---- --- --<br>------- money.,260946.74499999383,260945.77999999456,260520.798,260533.67499999877,260537.255,260953.732,,55,money.
Item 100,flow.Loop,1_1_1_1,2021-04-22T10:25:33.551Z,,,,,,,,,,,,,,,,,,,,,,,,,,,,,,28648.567999994557,,completion,,,,,D,,,,,,,,,,,silence,,,,,260947.16999999946,260945.77999999456,232280.154,232281.48999999394,232297.212,260953.732,,,
Question 1,html.Screen,1_1_1_2,2021-04-22T10:25:36.235Z,,,,,,,,,,,,,,,,,,,,,,,,,,,true,TRUE,,2675.872999994637,,response,,,,100,D,,,,,,TRUE,click #choice-1,,,,silence,,,,,263631.0349999985,263629.6049999946,260937.436,260947.3699999944,260953.732,263636.259,,,
Question 2,html.Screen,1_1_1_3,2021-04-22T10:25:38.269Z,,,,,,,,,,,,,,,,,,,,,,,,,,,true,FALSE,,2026.960999994888,,response,,,,100,D,,,,,,FALSE,click #choice-2,,,,silence,,,,,265664.75999999966,265663.2199999949,263619.543,263631.2949999992,263636.259,265685.621,,,
Item 100,flow.Sequence,1_1_1,2021-04-22T10:25:38.269Z,,,,,,,,,,,,,,,,,,,,,,,,,,,,,,43363.06499999491,,completion,,,,,,,,,,,,,,,,,,,,,265665.2449999965,265663.2199999949,222283.589,222295.8049999943,222300.155,265685.621,,,
End of Practice,html.Page,1_1_2,2021-04-22T10:25:40.156Z,,,,,,,,,,,,,,,,,,,,,,,,,,,,,,1865.7439999993658,,form submission,,,,,,,,,,,,,,,,,,,,,267551.7699999982,267551.36499999935,265668.874,265665.4899999994,265685.621,267581.696,,,
Practice,flow.Sequence,1_1,2021-04-22T10:25:40.156Z,,,,,,,,,,,,,,,,,,,,,,,,,,,,,,99816.03399999934,,completion,,,,,,,,,,,,,,,,,,,,,267552.19999999827,267551.36499999935,167718.83,167733.62499999348,167735.331,267581.696,,,
Trap_instruction,html.Page,1_2_0,2021-04-22T10:25:44.928Z,,,,,,,,,,,,,,,,,,,,,,,,,,,,,,4741.97399999795,,form submission,,,,,,,,,,,,,,,,,,,,,272324.1449999987,272323.66999999795,267534.907,267552.55499999475,267581.696,272350.382,,,
trap_trial,html.Screen,1_2_1,2021-04-22T10:25:47.996Z,,,,,,,,,,,,,,,,,,,,,,,,,,,true,1,,3039.997999997111,,response,,,,,,,,,,,1,click #choice-1,,,,,,,,,275392.0599999983,275390.3799999971,272316.7,272324.4149999955,272350.382,275398.961,,,
end of trap trial,html.Page,1_2_2,2021-04-22T10:25:49.468Z,,,,,,,,,,,,,,,,,,,,,,,,,,,,,,1464.4039999974193,,form submission,,,,,,,,,,,,,,,,,,,,,276863.6799999949,276863.36499999743,275382.311,275392.3799999975,275398.961,276865.029,,,
Trap 1,flow.Sequence,1_2,2021-04-22T10:25:49.468Z,,,,,,,,,,,,,,,,,,,,,,,,,,,,,,9281.668999997433,,completion,,,,,,,,,,,,,,,,,,,,,276863.95499999344,276863.36499999743,267534.907,267552.4499999956,267581.696,276865.029,,,
Standby,html.Page,1_3_0,2021-04-22T10:25:57.451Z,,,,,,,,,,,,,,,,,,,,,,,,,,,,,,7997.426000000036,,timeout,,,,,,,,,,,,,,,,,,,,,284847.36999999586,284845.967,276848.655,276864.15999999736,276865.029,284862.455,,,
Holding screen,html.Screen,1_3_1_0_0,2021-04-22T10:26:04.448Z,,,,,,,,,,,,,,,,,,,,,,,,,,,,,,6997.603999999992,,timeout,,,,,,,,,,,,,,,,,,,,,291844.81499999674,291843.682,284845.967,284847.8249999971,284862.455,291860.059,,,
screen,html.Screen,1_3_1_0_1_0,2021-04-22T10:26:06.134Z,,,,,,,,,,,,,,,,15,,,,,,,,,,,,,,1669.145999998902,,response,,,,7,D,,,,,,Space,keypress(Space),,,,silence,,,,Greg --------- ---------- - --- ------- -- --- ------------<br>----- -- -------- ------- ---- ------ - -------- ---- -----<br>--- ------- ---- -- --- -------- --- - ----- ------ ---- --<br>-------- --- -------- -------- --- -------- ---- -- ----- -<br>-------- ---- --- ---------- --------- -- ------- ------ -<br>--------- ----- -----,293530.3899999999,293529.2049999989,291843.682,291845.19,291860.059,293543.192,,0,Greg
screen,html.Screen,1_3_1_0_1_1,2021-04-22T10:26:06.947Z,,,,,,,,,,,,,,,,15,,,,,,,,,,,,,,799.5679999995627,,response,,,,7,D,,,,,,Space,keypress(Space),,,,silence,,,,"---- Anderson, ---------- - --- ------- -- --- ------------<br>----- -- -------- ------- ---- ------ - -------- ---- -----<br>--- ------- ---- -- --- -------- --- - ----- ------ ---- --<br>-------- --- -------- -------- --- -------- ---- -- ----- -<br>-------- ---- --- ---------- --------- -- ------- ------ -<br>--------- ----- -----",294343.7849999973,294342.75999999954,293526.025,293530.6849999979,293543.192,294359.478,,1,"Anderson,"
screen,html.Screen,1_3_1_0_1_2,2021-04-22T10:26:07.596Z,,,,,,,,,,,,,,,,15,,,,,,,,,,,,,,631.741999996244,,response,,,,7,D,,,,,,Space,keypress(Space),,,,silence,,,,---- --------- considered - --- ------- -- --- ------------<br>----- -- -------- ------- ---- ------ - -------- ---- -----<br>--- ------- ---- -- --- -------- --- - ----- ------ ---- --<br>-------- --- -------- -------- --- -------- ---- -- ----- -<br>-------- ---- --- ---------- --------- -- ------- ------ -<br>--------- ----- -----,294992.2649999935,294991.21999999625,294342.75,294344.0399999963,294359.478,295009.355,,2,considered
screen,html.Screen,1_3_1_0_1_3,2021-04-22T10:26:08.115Z,,,,,,,,,,,,,,,,15,,,,,,,,,,,,,,501.30999999435153,,response,,,,7,D,,,,,,Space,keypress(Space),,,,silence,,,,---- --------- ---------- a --- ------- -- --- ------------<br>----- -- -------- ------- ---- ------ - -------- ---- -----<br>--- ------- ---- -- --- -------- --- - ----- ------ ---- --<br>-------- --- -------- -------- --- -------- ---- -- ----- -<br>-------- ---- --- ---------- --------- -- ------- ------ -<br>--------- ----- -----,295511.6149999958,295510.66499999433,294992.237,294992.58499999996,295009.355,295525.701,,3,a
screen,html.Screen,1_3_1_0_1_4,2021-04-22T10:26:08.698Z,,,,,,,,,,,,,,,,15,,,,,,,,,,,,,,567.4439999989117,,response,,,,7,D,,,,,,Space,keypress(Space),,,,silence,,,,---- --------- ---------- - key ------- -- --- ------------<br>----- -- -------- ------- ---- ------ - -------- ---- -----<br>--- ------- ---- -- --- -------- --- - ----- ------ ---- --<br>-------- --- -------- -------- --- -------- ---- -- ----- -<br>-------- ---- --- ---------- --------- -- ------- ------ -<br>--------- ----- -----,296094.0950000004,296093.1449999989,295508.865,295511.8749999965,295525.701,296108.651,,4,key
screen,html.Screen,1_3_1_0_1_5,2021-04-22T10:26:09.343Z,,,,,,,,,,,,,,,,15,,,,,,,,,,,,,,630.3439999996917,,response,,,,7,D,,,,,,Space,keypress(Space),,,,silence,,,,---- --------- ---------- - --- witness -- --- ------------<br>----- -- -------- ------- ---- ------ - -------- ---- -----<br>--- ------- ---- -- --- -------- --- - ----- ------ ---- --<br>-------- --- -------- -------- --- -------- ---- -- ----- -<br>-------- ---- --- ---------- --------- -- ------- ------ -<br>--------- ----- -----,296739.9449999939,296738.9949999997,296092.355,296094.3449999977,296108.651,296767.185,,5,witness
screen,html.Screen,1_3_1_0_1_6,2021-04-22T10:26:10.207Z,,,,,,,,,,,,,,,,15,,,,,,,,,,,,,,834.7849999960745,,response,,,,7,D,,,,,,Space,keypress(Space),,,,silence,,,,---- --------- ---------- - --- ------- by --- ------------<br>----- -- -------- ------- ---- ------ - -------- ---- -----<br>--- ------- ---- -- --- -------- --- - ----- ------ ---- --<br>-------- --- -------- -------- --- -------- ---- -- ----- -<br>-------- ---- --- ---------- --------- -- ------- ------ -<br>--------- ----- -----,297603.0399999945,297601.9699999961,296725.06,296740.2000000002,296767.185,297608.124,,6,by
screen,html.Screen,1_3_1_0_1_7,2021-04-22T10:26:10.779Z,,,,,,,,,,,,,,,,15,,,,,,,,,,,,,,566.7859999942593,,response,,,,7,D,,,,,,Space,keypress(Space),,,,silence,,,,---- --------- ---------- - --- ------- -- the ------------<br>----- -- -------- ------- ---- ------ - -------- ---- -----<br>--- ------- ---- -- --- -------- --- - ----- ------ ---- --<br>-------- --- -------- -------- --- -------- ---- -- ----- -<br>-------- ---- --- ---------- --------- -- ------- ------ -<br>--------- ----- -----,298175.8699999991,298174.90999999427,297591.372,297603.2849999974,297608.124,298191.283,,7,the
screen,html.Screen,1_3_1_0_1_8,2021-04-22T10:26:13.532Z,,,,,,,,,,,,,,,,15,,,,,,,,,,,,,,2736.2569999969564,,response,,,,7,D,,,,,,Space,keypress(Space),,,,silence,,,,"---- --------- ---------- - --- ------- -- --- prosecution,<br>----- -- -------- ------- ---- ------ - -------- ---- -----<br>--- ------- ---- -- --- -------- --- - ----- ------ ---- --<br>-------- --- -------- -------- --- -------- ---- -- ----- -<br>-------- ---- --- ---------- --------- -- ------- ------ -<br>--------- ----- -----",300928.4999999945,300927.53999999695,298174.486,298176.12999999983,298191.283,300940.554,,8,"prosecution,"
screen,html.Screen,1_3_1_0_1_9,2021-04-22T10:26:14.012Z,,,,,,,,,,,,,,,,15,,,,,,,,,,,,,,466.7459999989369,,response,,,,7,D,,,,,,Space,keypress(Space),,,,silence,,,,---- --------- ---------- - --- ------- -- --- ------------<br>vowed -- -------- ------- ---- ------ - -------- ---- -----<br>--- ------- ---- -- --- -------- --- - ----- ------ ---- --<br>-------- --- -------- -------- --- -------- ---- -- ----- -<br>-------- ---- --- ---------- --------- -- ------- ------ -<br>--------- ----- -----,301408.3299999984,301407.29999999894,300923.694,300928.7499999991,300940.554,301423.441,,9,vowed
screen,html.Screen,1_3_1_0_1_10,2021-04-22T10:26:14.682Z,,,,,,,,,,,,,,,,15,,,,,,,,,,,,,,653.758999999729,,response,,,,7,D,,,,,,Space,keypress(Space),,,,silence,,,,---- --------- ---------- - --- ------- -- --- ------------<br>----- he -------- ------- ---- ------ - -------- ---- -----<br>--- ------- ---- -- --- -------- --- - ----- ------ ---- --<br>-------- --- -------- -------- --- -------- ---- -- ----- -<br>-------- ---- --- ---------- --------- -- ------- ------ -<br>--------- ----- -----,302078.0899999954,302077.1999999997,301407.112,301408.6249999964,301423.441,302090.31,,10,he
screen,html.Screen,1_3_1_0_1_11,2021-04-22T10:26:15.200Z,,,,,,,,,,,,,,,,15,,,,,,,,,,,,,,504.80499999644235,,response,,,,7,D,,,,,,Space,keypress(Space),,,,silence,,,,---- --------- ---------- - --- ------- -- --- ------------<br>----- -- wouldn't ------- ---- ------ - -------- ---- -----<br>--- ------- ---- -- --- -------- --- - ----- ------ ---- --<br>-------- --- -------- -------- --- -------- ---- -- ----- -<br>-------- ---- --- ---------- --------- -- ------- ------ -<br>--------- ----- -----,302596.0500000001,302595.11499999644,302073.628,302078.34,302090.31,302606.435,,11,wouldn't
screen,html.Screen,1_3_1_0_1_12,2021-04-22T10:26:15.745Z,,,,,,,,,,,,,,,,15,,,,,,,,,,,,,,533.7649999943678,,response,,,,7,D,,,,,,Space,keypress(Space),,,,silence,,,,---- --------- ---------- - --- ------- -- --- ------------<br>----- -- -------- testify ---- ------ - -------- ---- -----<br>--- ------- ---- -- --- -------- --- - ----- ------ ---- --<br>-------- --- -------- -------- --- -------- ---- -- ----- -<br>-------- ---- --- ---------- --------- -- ------- ------ -<br>--------- ----- -----,303141.12999999634,303140.19999999437,302589.731,302596.30999999354,302606.435,303156.249,,12,testify
screen,html.Screen,1_3_1_0_1_13,2021-04-22T10:26:16.209Z,,,,,,,,,,,,,,,,15,,,,,,,,,,,,,,449.10099999798695,,response,,,,7,D,,,,,,Space,keypress(Space),,,,silence,,,,---- --------- ---------- - --- ------- -- --- ------------<br>----- -- -------- ------- when ------ - -------- ---- -----<br>--- ------- ---- -- --- -------- --- - ----- ------ ---- --<br>-------- --- -------- -------- --- -------- ---- -- ----- -<br>-------- ---- --- ---------- --------- -- ------- ------ -<br>--------- ----- -----,303605.81999999704,303605.349999998,303139.476,303141.37999999366,303156.249,303623.057,,13,when
screen,html.Screen,1_3_1_0_1_14,2021-04-22T10:26:16.617Z,,,,,,,,,,,,,,,,15,,,,,,,,,,,,,,389.73799999512266,,response,,,,7,D,,,,,,Space,keypress(Space),,,,silence,,,,---- --------- ---------- - --- ------- -- --- ------------<br>----- -- -------- ------- ---- served - -------- ---- -----<br>--- ------- ---- -- --- -------- --- - ----- ------ ---- --<br>-------- --- -------- -------- --- -------- ---- -- ----- -<br>-------- ---- --- ---------- --------- -- ------- ------ -<br>--------- ----- -----,304013.73500000045,304012.7949999951,303606.062,303605.9099999984,303623.057,304022.917,,14,served
screen,html.Screen,1_3_1_0_1_15,2021-04-22T10:26:16.994Z,,,,,,,,,,,,,,,,15,,,,,,,,,,,,,,366.7029999944498,,response,,,,7,D,,,,,,Space,keypress(Space),,,,silence,,,,---- --------- ---------- - --- ------- -- --- ------------<br>----- -- -------- ------- ---- ------ a -------- ---- -----<br>--- ------- ---- -- --- -------- --- - ----- ------ ---- --<br>-------- --- -------- -------- --- -------- ---- -- ----- -<br>-------- ---- --- ---------- --------- -- ------- ------ -<br>--------- ----- -----,304390.53499999864,304389.61999999447,304005.916,304014.00499999727,304022.917,304406.161,,15,a
screen,html.Screen,1_3_1_0_1_16,2021-04-22T10:26:17.322Z,,,,,,,,,,,,,,,,15,,,,,,,,,,,,,,311.69899999699555,,response,,,,7,D,,,,,,Space,keypress(Space),,,,silence,,,,---- --------- ---------- - --- ------- -- --- ------------<br>----- -- -------- ------- ---- ------ - subpoena ---- -----<br>--- ------- ---- -- --- -------- --- - ----- ------ ---- --<br>-------- --- -------- -------- --- -------- ---- -- ----- -<br>-------- ---- --- ---------- --------- -- ------- ------ -<br>--------- ----- -----,304718.7949999934,304717.859999997,304389.428,304390.79999999376,304406.161,304722.349,,16,subpoena
screen,html.Screen,1_3_1_0_1_17,2021-04-22T10:26:17.786Z,,,,,,,,,,,,,,,,15,,,,,,,,,,,,,,458.7759999955306,,response,,,,7,D,,,,,,Space,keypress(Space),,,,silence,,,,---- --------- ---------- - --- ------- -- --- ------------<br>----- -- -------- ------- ---- ------ - -------- last -----<br>--- ------- ---- -- --- -------- --- - ----- ------ ---- --<br>-------- --- -------- -------- --- -------- ---- -- ----- -<br>-------- ---- --- ---------- --------- -- ------- ------ -<br>--------- ----- -----,305182.074999997,305181.1249999955,304705.672,304719.0549999941,304722.349,305188.863,,17,last
screen,html.Screen,1_3_1_0_1_18,2021-04-22T10:26:18.218Z,,,,,,,,,,,,,,,,15,,,,,,,,,,,,,,424.9719999964582,,response,,,,7,D,,,,,,Space,keypress(Space),,,,silence,,,,---- --------- ---------- - --- ------- -- --- ------------<br>----- -- -------- ------- ---- ------ - -------- ---- week.<br>--- ------- ---- -- --- -------- --- - ----- ------ ---- --<br>-------- --- -------- -------- --- -------- ---- -- ----- -<br>-------- ---- --- ---------- --------- -- ------- ------ -<br>--------- ----- -----,305614.77499999455,305613.83499999647,305172.384,305182.3249999943,305188.863,305622.051,,18,week.
screen,html.Screen,1_3_1_0_1_19,2021-04-22T10:26:18.766Z,,,,,,,,,,,,,,,,15,,,,,,,,,,,,,,539.9889999956358,,response,,,,7,D,,,,,,Space,keypress(Space),,,,silence,,,,---- --------- ---------- - --- ------- -- --- ------------<br>----- -- -------- ------- ---- ------ - -------- ---- -----<br>His ------- ---- -- --- -------- --- - ----- ------ ---- --<br>-------- --- -------- -------- --- -------- ---- -- ----- -<br>-------- ---- --- ---------- --------- -- ------- ------ -<br>--------- ----- -----,306162.47499999736,306162.0399999956,305605.598,305615.04499999864,305622.051,306171.866,,19,His
screen,html.Screen,1_3_1_0_1_20,2021-04-22T10:26:19.299Z,,,,,,,,,,,,,,,,15,,,,,,,,,,,,,,522.5039999974542,,response,,,,7,D,,,,,,Space,keypress(Space),,,,silence,,,,---- --------- ---------- - --- ------- -- --- ------------<br>----- -- -------- ------- ---- ------ - -------- ---- -----<br>--- lawyers ---- -- --- -------- --- - ----- ------ ---- --<br>-------- --- -------- -------- --- -------- ---- -- ----- -<br>-------- ---- --- ---------- --------- -- ------- ------ -<br>--------- ----- -----,306695.2600000004,306694.36999999743,306155.426,306162.5449999992,306171.866,306705.041,,20,lawyers
screen,html.Screen,1_3_1_0_1_21,2021-04-22T10:26:19.660Z,,,,,,,,,,,,,,,,15,,,,,,,,,,,,,,350.4189999959199,,response,,,,7,D,,,,,,Space,keypress(Space),,,,silence,,,,---- --------- ---------- - --- ------- -- --- ------------<br>----- -- -------- ------- ---- ------ - -------- ---- -----<br>--- ------- said -- --- -------- --- - ----- ------ ---- --<br>-------- --- -------- -------- --- -------- ---- -- ----- -<br>-------- ---- --- ---------- --------- -- ------- ------ -<br>--------- ----- -----,307056.37999999453,307055.45999999595,306688.536,306695.47999999486,306705.041,307071.791,,21,said
screen,html.Screen,1_3_1_0_1_22,2021-04-22T10:26:20.279Z,,,,,,,,,,,,,,,,15,,,,,,,,,,,,,,602.9789999977802,,response,,,,7,D,,,,,,Space,keypress(Space),,,,silence,,,,---- --------- ---------- - --- ------- -- --- ------------<br>----- -- -------- ------- ---- ------ - -------- ---- -----<br>--- ------- ---- he --- -------- --- - ----- ------ ---- --<br>-------- --- -------- -------- --- -------- ---- -- ----- -<br>-------- ---- --- ---------- --------- -- ------- ------ -<br>--------- ----- -----,307675.7299999954,307674.7699999978,307054.838,307056.62999999913,307071.791,307688.18,,22,he
screen,html.Screen,1_3_1_0_1_23,2021-04-22T10:26:20.593Z,,,,,,,,,,,,,,,,15,,,,,,,,,,,,,,300.00000000029104,,response,,,,7,D,,,,,,Space,keypress(Space),,,,silence,,,,---- --------- ---------- - --- ------- -- --- ------------<br>----- -- -------- ------- ---- ------ - -------- ---- -----<br>--- ------- ---- -- was -------- --- - ----- ------ ---- --<br>-------- --- -------- -------- --- -------- ---- -- ----- -<br>-------- ---- --- ---------- --------- -- ------- ------ -<br>--------- ----- -----,307989.0499999965,307988.1800000003,307671.334,307675.9949999978,307688.18,308004.837,,23,was
screen,html.Screen,1_3_1_0_1_24,2021-04-22T10:26:20.952Z,,,,,,,,,,,,,,,,15,,,,,,,,,,,,,,342.4229999950039,,response,,,,7,D,,,,,,Space,keypress(Space),,,,silence,,,,---- --------- ---------- - --- ------- -- --- ------------<br>----- -- -------- ------- ---- ------ - -------- ---- -----<br>--- ------- ---- -- --- prepared --- - ----- ------ ---- --<br>-------- --- -------- -------- --- -------- ---- -- ----- -<br>-------- ---- --- ---------- --------- -- ------- ------ -<br>--------- ----- -----,308348.1799999936,308347.259999995,307987.903,307989.2999999938,308004.837,308354.464,,24,prepared
screen,html.Screen,1_3_1_0_1_25,2021-04-22T10:26:21.261Z,,,,,,,,,,,,,,,,15,,,,,,,,,,,,,,302.1109999936307,,response,,,,7,D,,,,,,Space,keypress(Space),,,,silence,,,,---- --------- ---------- - --- ------- -- --- ------------<br>----- -- -------- ------- ---- ------ - -------- ---- -----<br>--- ------- ---- -- --- -------- for - ----- ------ ---- --<br>-------- --- -------- -------- --- -------- ---- -- ----- -<br>-------- ---- --- ---------- --------- -- ------- ------ -<br>--------- ----- -----,308657.5249999951,308656.5749999936,308337.81,308348.4349999999,308354.464,308671.373,,25,for
screen,html.Screen,1_3_1_0_1_26,2021-04-22T10:26:21.550Z,,,,,,,,,,,,,,,,15,,,,,,,,,,,,,,273.9319999938016,,response,,,,7,D,,,,,,Space,keypress(Space),,,,silence,,,,---- --------- ---------- - --- ------- -- --- ------------<br>----- -- -------- ------- ---- ------ - -------- ---- -----<br>--- ------- ---- -- --- -------- --- a ----- ------ ---- --<br>-------- --- -------- -------- --- -------- ---- -- ----- -<br>-------- ---- --- ---------- --------- -- ------- ------ -<br>--------- ----- -----,308946.2149999963,308945.3049999938,308654.759,308657.7799999941,308671.373,308954.388,,26,a
screen,html.Screen,1_3_1_0_1_27,2021-04-22T10:26:21.883Z,,,,,,,,,,,,,,,,15,,,,,,,,,,,,,,323.8919999986538,,response,,,,7,D,,,,,,Space,keypress(Space),,,,silence,,,,---- --------- ---------- - --- ------- -- --- ------------<br>----- -- -------- ------- ---- ------ - -------- ---- -----<br>--- ------- ---- -- --- -------- --- - third ------ ---- --<br>-------- --- -------- -------- --- -------- ---- -- ----- -<br>-------- ---- --- ---------- --------- -- ------- ------ -<br>--------- ----- -----,309279.1999999972,309278.27999999863,308937.628,308946.4649999936,308954.388,309287.593,,27,third
screen,html.Screen,1_3_1_0_1_28,2021-04-22T10:26:22.587Z,,,,,,,,,,,,,,,,15,,,,,,,,,,,,,,694.7419999933336,,response,,,,7,D,,,,,,Space,keypress(Space),,,,silence,,,,---- --------- ---------- - --- ------- -- --- ------------<br>----- -- -------- ------- ---- ------ - -------- ---- -----<br>--- ------- ---- -- --- -------- --- - ----- prison ---- --<br>-------- --- -------- -------- --- -------- ---- -- ----- -<br>-------- ---- --- ---------- --------- -- ------- ------ -<br>--------- ----- -----,309983.3049999943,309982.3349999933,309270.935,309279.45499999623,309287.593,309987.246,,28,prison
screen,html.Screen,1_3_1_0_1_29,2021-04-22T10:26:22.972Z,,,,,,,,,,,,,,,,15,,,,,,,,,,,,,,380.01399999909336,,response,,,,7,D,,,,,,Space,keypress(Space),,,,silence,,,,---- --------- ---------- - --- ------- -- --- ------------<br>----- -- -------- ------- ---- ------ - -------- ---- -----<br>--- ------- ---- -- --- -------- --- - ----- ------ stay --<br>-------- --- -------- -------- --- -------- ---- -- ----- -<br>-------- ---- --- ---------- --------- -- ------- ------ -<br>--------- ----- -----,310368.24999999953,310367.2599999991,309970.853,309983.5549999989,309987.246,310370.425,,29,stay
screen,html.Screen,1_3_1_0_1_30,2021-04-22T10:26:23.328Z,,,,,,,,,,,,,,,,15,,,,,,,,,,,,,,352.8849999939557,,response,,,,7,D,,,,,,Space,keypress(Space),,,,silence,,,,---- --------- ---------- - --- ------- -- --- ------------<br>----- -- -------- ------- ---- ------ - -------- ---- -----<br>--- ------- ---- -- --- -------- --- - ----- ------ ---- to<br>-------- --- -------- -------- --- -------- ---- -- ----- -<br>-------- ---- --- ---------- --------- -- ------- ------ -<br>--------- ----- -----,310724.2750000005,310723.30999999394,310354.17,310368.49999999686,310370.425,310737.014,,30,to
screen,html.Screen,1_3_1_0_1_31,2021-04-22T10:26:23.751Z,,,,,,,,,,,,,,,,15,,,,,,,,,,,,,,409.36599999829195,,response,,,,7,D,,,,,,Space,keypress(Space),,,,silence,,,,---- --------- ---------- - --- ------- -- --- ------------<br>----- -- -------- ------- ---- ------ - -------- ---- -----<br>--- ------- ---- -- --- -------- --- - ----- ------ ---- --<br>maintain --- -------- -------- --- -------- ---- -- ----- -<br>-------- ---- --- ---------- --------- -- ------- ------ -<br>--------- ----- -----,311147.3399999959,311146.3799999983,310720.432,310724.5299999995,310737.014,311153.502,,31,maintain
screen,html.Screen,1_3_1_0_1_32,2021-04-22T10:26:24.336Z,,,,,,,,,,,,,,,,15,,,,,,,,,,,,,,578.3029999958235,,response,,,,7,D,,,,,,Space,keypress(Space),,,,silence,,,,---- --------- ---------- - --- ------- -- --- ------------<br>----- -- -------- ------- ---- ------ - -------- ---- -----<br>--- ------- ---- -- --- -------- --- - ----- ------ ---- --<br>-------- his -------- -------- --- -------- ---- -- ----- -<br>-------- ---- --- ---------- --------- -- ------- ------ -<br>--------- ----- -----,311732.78999999457,311731.8049999958,311136.883,311147.5999999966,311153.502,311736.626,,32,his
screen,html.Screen,1_3_1_0_1_33,2021-04-22T10:26:24.737Z,,,,,,,,,,,,,,,,15,,,,,,,,,,,,,,395.53899999544956,,response,,,,7,D,,,,,,Space,keypress(Space),,,,silence,,,,---- --------- ---------- - --- ------- -- --- ------------<br>----- -- -------- ------- ---- ------ - -------- ---- -----<br>--- ------- ---- -- --- -------- --- - ----- ------ ---- --<br>-------- --- silence. -------- --- -------- ---- -- ----- -<br>-------- ---- --- ---------- --------- -- ------- ------ -<br>--------- ----- -----,312133.1250000003,312132.16499999544,311719.906,311733.05499999697,311736.626,312136.483,,33,silence.
screen,html.Screen,1_3_1_0_1_34,2021-04-22T10:26:25.327Z,,,,,,,,,,,,,,,,15,,,,,,,,,,,,,,586.386999997776,,response,,,,7,D,,,,,,Space,keypress(Space),,,,silence,,,,---- --------- ---------- - --- ------- -- --- ------------<br>----- -- -------- ------- ---- ------ - -------- ---- -----<br>--- ------- ---- -- --- -------- --- - ----- ------ ---- --<br>-------- --- -------- Anderson --- -------- ---- -- ----- -<br>-------- ---- --- ---------- --------- -- ------- ------ -<br>--------- ----- -----,312723.80999999586,312722.8699999978,312120.182,312133.3799999993,312136.483,312736.518,,34,Anderson
screen,html.Screen,1_3_1_0_1_35,2021-04-22T10:26:25.727Z,,,,,,,,,,,,,,,,15,,,,,,,,,,,,,,385.7119999935967,,response,,,,7,D,,,,,,Space,keypress(Space),,,,silence,,,,---- --------- ---------- - --- ------- -- --- ------------<br>----- -- -------- ------- ---- ------ - -------- ---- -----<br>--- ------- ---- -- --- -------- --- - ----- ------ ---- --<br>-------- --- -------- -------- was -------- ---- -- ----- -<br>-------- ---- --- ---------- --------- -- ------- ------ -<br>--------- ----- -----,313123.14999999944,313122.2299999936,312719.939,312724.0699999966,312736.518,313136.414,,35,was
screen,html.Screen,1_3_1_0_1_36,2021-04-22T10:26:26.149Z,,,,,,,,,,,,,,,,15,,,,,,,,,,,,,,408.1410000004107,,response,,,,7,D,,,,,,Space,keypress(Space),,,,silence,,,,---- --------- ---------- - --- ------- -- --- ------------<br>----- -- -------- ------- ---- ------ - -------- ---- -----<br>--- ------- ---- -- --- -------- --- - ----- ------ ---- --<br>-------- --- -------- -------- --- released ---- -- ----- -<br>-------- ---- --- ---------- --------- -- ------- ------ -<br>--------- ----- -----,313545.51999999967,313544.5550000004,313119.618,313123.39999999676,313136.414,313552.684,,36,released
screen,html.Screen,1_3_1_0_1_37,2021-04-22T10:26:26.661Z,,,,,,,,,,,,,,,,15,,,,,,,,,,,,,,503.86099999945145,,response,,,,7,D,,,,,,Space,keypress(Space),,,,silence,,,,---- --------- ---------- - --- ------- -- --- ------------<br>----- -- -------- ------- ---- ------ - -------- ---- -----<br>--- ------- ---- -- --- -------- --- - ----- ------ ---- --<br>-------- --- -------- -------- --- -------- July -- ----- -<br>-------- ---- --- ---------- --------- -- ------- ------ -<br>--------- ----- -----,314057.48999999923,314056.54499999946,313536.231,313545.7800000004,313552.684,314069.409,,37,July
screen,html.Screen,1_3_1_0_1_38,2021-04-22T10:26:27.168Z,,,,,,,,,,,,,,,,15,,,,,,,,,,,,,,494.5059999988298,,response,,,,7,D,,,,,,Space,keypress(Space),,,,silence,,,,---- --------- ---------- - --- ------- -- --- ------------<br>----- -- -------- ------- ---- ------ - -------- ---- -----<br>--- ------- ---- -- --- -------- --- - ----- ------ ---- --<br>-------- --- -------- -------- --- -------- ---- 20 ----- -<br>-------- ---- --- ---------- --------- -- ------- ------ -<br>--------- ----- -----,314564.8449999935,314563.9149999988,314052.663,314057.74999999994,314069.409,314569.019,,38,20
screen,html.Screen,1_3_1_0_1_39,2021-04-22T10:26:27.690Z,,,,,,,,,,,,,,,,15,,,,,,,,,,,,,,516.7109999989043,,response,,,,7,D,,,,,,Space,keypress(Space),,,,silence,,,,---- --------- ---------- - --- ------- -- --- ------------<br>----- -- -------- ------- ---- ------ - -------- ---- -----<br>--- ------- ---- -- --- -------- --- - ----- ------ ---- --<br>-------- --- -------- -------- --- -------- ---- -- after -<br>-------- ---- --- ---------- --------- -- ------- ------ -<br>--------- ----- -----,315086.1949999962,315085.7299999989,314552.541,314565.1099999959,314569.019,315102.386,,39,after
