sender,sender_type,sender_id,timestamp,meta,,Blues,Classical,Country,Dance,Electronic,Folk,Gospel,Hip-Hop,Jazz,Latin,Musical/Film,New-age,Pop,Provo_ID,R&B,Rap,Reggae,Religious,Rock,Soul,Swing,Traditional,age,artist_name,correct,correctResponse,distraction,duration,education,ended_on,familiarity,gender,headphone_check_performance,item,list,music_frequency,offensiveness,pleasantness,position_correct,preference,response,response_action,snippet_file,song_name,song_rating,sound,stimulus_1,stimulus_2,stimulus_3,text,time_commit,time_end,time_render,time_run,time_show,time_switch,url,word,word_ID
Introduction,html.Screen,0_0,2021-04-23T16:23:10.273Z,"{""labjs_version"":""20.2.2"",""labjs_build"":{""flavor"":""production"",""commit"":""a25486e0c714a0ae2ce03ff94b7bb6896854dcfa""},""location"":""https://run.pavlovia.org/mvasilev/music_e/"",""userAgent"":""Mozilla/5.0 (Windows NT 10.0; Win64; x64) AppleWebKit/537.36 (KHTML, like Gecko) Chrome/90.0.4430.85 Safari/537.36"",""platform"":""Win32"",""language"":""en-GB"",""locale"":""en-GB"",""timeZone"":""Europe/London"",""timezoneOffset"":-60,""screen_width"":1536,""screen_height"":864,""scroll_width"":1536,""scroll_height"":706,""window_innerWidth"":1536,""window_innerHeight"":754,""devicePixelRatio"":1.25}",,,,,,,,,,,,,,,,,,,,,,,,,,,,,1395652.8759999946,,response,,,,,,,,,,,continue,click button,,,,,,,,,1602731.4049999986,1602729.1149999946,207042.895,15839.46499999729,207076.239,1602743.504,{},,
Volume calibration,html.Screen,0_1,2021-04-23T16:24:22.412Z,,,,,,,,,,,,,,,,,,,,,,,,,,,,,,72124.10099997767,,response,,,,,,,,,,,continue,click button,,,,,,,,,1674870.2150000026,1674867.6049999776,1602726.88,1602731.684999977,1602743.504,1674876.836,,,
Task instructions,html.Screen,0_2,2021-04-23T16:24:44.935Z,,,,,,,,,,,,,,,,,,,,,,,,,,,,,,22516.438999980455,,response,,,,,,,,,,,continue,click button,,,,,,,,,1697394.1199999826,1697393.2749999803,1674860.247,1674870.3149999783,1674876.836,1697410.22,,,
Sounds,html.Screen,0_3_0_0,2021-04-23T16:24:49.187Z,,,,,,,,,,,,,,,,,,,,,,,,,,,,,,4249.954000000143,,timeout,,,,,,,,,1,,,,,,,,S,O,I,,1701645.679999987,1701643.642,1697393.563,1697394.254999992,1697410.22,1701660.174,,,
Judgement,html.Screen,0_3_0_1,2021-04-23T16:24:54.903Z,,,,,,,,,,,,,,,,,,,,,,,,,,,true,1,,5700.660999999382,,response,,,,,,,,,1,,1,click #choice-1,,,,,S,O,I,,1707361.5599999903,1707360.8349999995,1701643.642,1701645.7749999827,1701660.174,1707376.898,,,
Trial,flow.Sequence,0_3_0,2021-04-23T16:24:54.904Z,,,,,,,,,,,,,,,,,,,,,,,,,,,,,,9950.614999999525,,completion,,,,,,,,,1,,,,,,,,S,O,I,,1707362.4949999794,1707360.8349999995,1697393.563,1697394.2349999852,1697410.22,1707376.898,,,
Sounds,html.Screen,0_3_1_0,2021-04-23T16:24:59.152Z,,,,,,,,,,,,,,,,,,,,,,,,,,,,,,4250.010000000009,,timeout,,,,,,,,,2,,,,,,,,O,S,I,,1711610.8449999883,1711610.257,1707360.203,1707362.5799999863,1707376.898,1711626.908,,,
Judgement,html.Screen,0_3_1_1,2021-04-23T16:25:00.230Z,,,,,,,,,,,,,,,,,,,,,,,,,,,true,2,,1060.7269999801647,,response,,,,,,,,,2,,2,click #choice-2,,,,,O,S,I,,1712688.36499998,1712687.6349999802,1711610.257,1711610.9799999977,1711626.908,1712693.566,,,
Trial,flow.Sequence,0_3_1,2021-04-23T16:25:00.230Z,,,,,,,,,,,,,,,,,,,,,,,,,,,,,,5310.736999980174,,completion,,,,,,,,,2,,,,,,,,O,S,I,,1712688.594999985,1712687.6349999802,1707360.203,1707362.5549999997,1707376.898,1712693.566,,,
Sounds,html.Screen,0_3_2_0,2021-04-23T16:25:04.469Z,,,,,,,,,,,,,,,,,,,,,,,,,,,,,,4249.99599999981,,timeout,,,,,,,,,3,,,,,,,,I,O,S,,1716927.5699999998,1716926.882,1712676.87,1712688.7500000012,1712693.566,1716943.562,,,
Judgement,html.Screen,0_3_2_1,2021-04-23T16:25:07.509Z,,,,,,,,,,,,,,,,,,,,,,,,,,,true,3,,3023.7679999850225,,response,,,,,,,,,3,,3,click #choice-3,,,,,I,O,S,,1719967.9349999933,1719967.329999985,1716926.882,1716927.714999998,1716943.562,1719976.892,,,
Trial,flow.Sequence,0_3_2,2021-04-23T16:25:07.509Z,,,,,,,,,,,,,,,,,,,,,,,,,,,,,,7273.7639999848325,,completion,,,,,,,,,3,,,,,,,,I,O,S,,1719968.0549999757,1719967.329999985,1712676.87,1712688.7049999787,1712693.566,1719976.892,,,
Sounds,html.Screen,0_3_3_0,2021-04-23T16:25:11.752Z,,,,,,,,,,,,,,,,,,,,,,,,,,,,,,4250.003999999957,,timeout,,,,,,,,,3,,,,,,,,O,I,S,,1724211.0399999947,1724210.517,1719960.212,1719968.1249999849,1719976.892,1724226.896,,,
Judgement,html.Screen,0_3_3_1,2021-04-23T16:25:12.397Z,,,,,,,,,,,,,,,,,,,,,,,,,,,true,3,,627.5539999844041,,response,,,,,,,,,3,,3,click #choice-3,,,,,O,I,S,,1724855.2299999865,1724854.4499999844,1724210.517,1724211.175000004,1724226.896,1724860.178,,,
Trial,flow.Sequence,0_3_3,2021-04-23T16:25:12.397Z,,,,,,,,,,,,,,,,,,,,,,,,,,,,,,4877.557999984361,,completion,,,,,,,,,3,,,,,,,,O,I,S,,1724855.4349999758,1724854.4499999844,1719960.212,1719968.0999999982,1719976.892,1724860.178,,,
Sounds,html.Screen,0_3_4_0,2021-04-23T16:25:16.635Z,,,,,,,,,,,,,,,,,,,,,,,,,,,,,,4250.086999999825,,timeout,,,,,,,,,2,,,,,,,,I,S,O,,1729094.1599999787,1729093.541,1724843.557,1724855.5649999762,1724860.178,1729110.265,,,
Judgement,html.Screen,0_3_4_1,2021-04-23T16:25:17.240Z,,,,,,,,,,,,,,,,,,,,,,,,,,,true,2,,587.7350000040606,,response,,,,,,,,,2,,2,click #choice-2,,,,,I,S,O,,1729698.6150000012,1729698.000000004,1729093.541,1729094.2399999767,1729110.265,1729726.894,,,
Trial,flow.Sequence,0_3_4,2021-04-23T16:25:17.240Z,,,,,,,,,,,,,,,,,,,,,,,,,,,,,,4837.8220000038855,,completion,,,,,,,,,2,,,,,,,,I,S,O,,1729698.7199999858,1729698.000000004,1724843.557,1724855.5249999918,1724860.178,1729726.894,,,
Sounds,html.Screen,0_3_5_0,2021-04-23T16:25:21.502Z,,,,,,,,,,,,,,,,,,,,,,,,,,,,,,4250.074000000022,,timeout,,,,,,,,,1,,,,,,,,S,I,O,,1733961.1399999994,1733960.314,1729710.202,1729698.784999986,1729726.894,1733976.968,,,
Judgement,html.Screen,0_3_5_1,2021-04-23T16:25:22.026Z,,,,,,,,,,,,,,,,,,,,,,,,,,,true,1,,506.7969999825582,,response,,,,,,,,,1,,1,click #choice-1,,,,,S,I,O,,1734484.3249999976,1734483.7649999827,1733960.314,1733961.3099999842,1733976.968,1734493.511,,,
Trial,flow.Sequence,0_3_5,2021-04-23T16:25:22.026Z,,,,,,,,,,,,,,,,,,,,,,,,,,,,,,4756.8709999825805,,completion,,,,,,,,,1,,,,,,,,S,I,O,,1734484.4199999934,1734483.7649999827,1729710.202,1729698.7649999792,1729726.894,1734493.511,,,
Task,flow.Loop,0_3,2021-04-23T16:25:22.028Z,,,,,,,,,,,,,,,,,,,,,,,,,,,,,,37073.544999982696,,completion,,,1,,,,,,,,,,,,,,,,,,1734486.739999993,1734483.7649999827,1697393.563,1697394.2049999896,1697410.22,1734493.511,,,
Trap,html.Screen,0_4,2021-04-23T16:25:22.029Z,,,,,,,,,,,,,,,,,,,,,,,,,,,,,,NaN,,skipped,,,,,,,,,,,,,,,,,,,,,1734487.8949999984,1734483.7649999827,,1734487.8000000026,,1734493.511,,,
Thanks,html.Screen,0_5,2021-04-23T16:25:31.599Z,,,,,,,,,,,,,,,,,,,,,,,,,,,,,,9562.67900000303,,response,,,,,,,,,,,continue,click button,,,,,,,,,1744056.9200000027,1744056.190000003,1734476.854,1734487.9599999986,1734493.511,1749793.562,,,
Headphone screening,flow.Sequence,0,2021-04-23T16:25:31.599Z,,,,,,,,,,,,,,,,,,,,,,,,,,,,,,1536979.951000003,,completion,,,,,,,,,,,,,,,,,,,,,1744057.0999999763,1744056.190000003,207042.895,15839.435000001686,207076.239,1749793.562,,,
Instructions,html.Page,1_0,2021-04-23T16:26:49.552Z,,,,,,,,,,,,,,,,,,,,,,,,,,,,,,72217.15299998224,,form submission,,,,,,,,,,,,,,,,,,,,,1822010.874999978,1822010.7149999822,1749776.905,1749786.6499999946,1749793.562,1822010.21,,,
Holding screen,html.Screen,1_1_0_0,2021-04-23T16:26:59.536Z,,,,,,,,,,,,,,,,,,,,,,,,,,,,,,10000.02099999995,,timeout,,,,,,,,,,,,,,,,,,,,,1831994.3499999936,1831993.611,1821993.588,1822010.9949999896,1822010.21,1832010.231,,,
screen,html.Screen,1_1_0_1_0,2021-04-23T16:27:00.801Z,,,,,,,,,,,,,,,,53,,,,,,,,,,,,,,1248.0739999958314,,response,,,,99,,,,,,,Space,keypress(Space),,,,,,,,When -- ----- -- ------ - ------- --- ----------<br>------------- ------ ------ ---- ---- ------- ----- -- ----<br>-------- ------- -- ---------- --- - --- ----- ----- ----<br>---- --- --- ----- --- ---- ---- ------- ----- ---- -------<br>--- --- -- ----- -- --- ---- -- --- ---- -- ------ ------<br>--- ----- -- ----,1833259.5750000037,1833258.3049999957,1831993.611,1831994.5799999987,1832010.231,1833289.353,,0,When
screen,html.Screen,1_1_0_1_1,2021-04-23T16:27:01.678Z,,,,,,,,,,,,,,,,53,,,,,,,,,,,,,,847.171999979997,,response,,,,99,,,,,,,Space,keypress(Space),,,,,,,,---- it ----- -- ------ - ------- --- ----------<br>------------- ------ ------ ---- ---- ------- ----- -- ----<br>-------- ------- -- ---------- --- - --- ----- ----- ----<br>---- --- --- ----- --- ---- ---- ------- ----- ---- -------<br>--- --- -- ----- -- --- ---- -- --- ---- -- ------ ------<br>--- ----- -- ----,1834136.9549999945,1834136.5249999799,1833243.518,1833259.6499999927,1833289.353,1834143.515,,1,it
screen,html.Screen,1_1_0_1_2,2021-04-23T16:27:02.433Z,,,,,,,,,,,,,,,,53,,,,,,,,,,,,,,747.3249999783002,,response,,,,99,,,,,,,Space,keypress(Space),,,,,,,,---- -- comes -- ------ - ------- --- ----------<br>------------- ------ ------ ---- ---- ------- ----- -- ----<br>-------- ------- -- ---------- --- - --- ----- ----- ----<br>---- --- --- ----- --- ---- ---- ------- ----- ---- -------<br>--- --- -- ----- -- --- ---- -- --- ---- -- ------ ------<br>--- ----- -- ----,1834891.340000002,1834890.8399999782,1834126.856,1834137.069999997,1834143.515,1834893.534,,2,comes
screen,html.Screen,1_1_0_1_3,2021-04-23T16:27:03.431Z,,,,,,,,,,,,,,,,53,,,,,,,,,,,,,,995.5459999935701,,response,,,,99,,,,,,,Space,keypress(Space),,,,,,,,---- -- ----- to ------ - ------- --- ----------<br>------------- ------ ------ ---- ---- ------- ----- -- ----<br>-------- ------- -- ---------- --- - --- ----- ----- ----<br>---- --- --- ----- --- ---- ---- ------- ----- ---- -------<br>--- --- -- ----- -- --- ---- -- --- ---- -- ------ ------<br>--- ----- -- ----,1835889.4649999856,1835889.0799999936,1834876.868,1834891.409999982,1834893.534,1835893.539,,3,to
screen,html.Screen,1_1_0_1_4,2021-04-23T16:27:05.092Z,,,,,,,,,,,,,,,,53,,,,,,,,,,,,,,1656.8109999757726,,response,,,,99,,,,,,,Space,keypress(Space),,,,,,,,---- -- ----- -- having - ------- --- ----------<br>------------- ------ ------ ---- ---- ------- ----- -- ----<br>-------- ------- -- ---------- --- - --- ----- ----- ----<br>---- --- --- ----- --- ---- ---- ------- ----- ---- -------<br>--- --- -- ----- -- --- ---- -- --- ---- -- ------ ------<br>--- ----- -- ----,1837550.8049999771,1837550.3499999759,1835876.852,1835889.5400000038,1835893.539,1837560.192,,4,having
screen,html.Screen,1_1_0_1_5,2021-04-23T16:27:05.974Z,,,,,,,,,,,,,,,,53,,,,,,,,,,,,,,871.4879999796394,,response,,,,99,,,,,,,Space,keypress(Space),,,,,,,,---- -- ----- -- ------ a ------- --- ----------<br>------------- ------ ------ ---- ---- ------- ----- -- ----<br>-------- ------- -- ---------- --- - --- ----- ----- ----<br>---- --- --- ----- --- ---- ---- ------- ----- ---- -------<br>--- --- -- ----- -- --- ---- -- --- ---- -- ------ ------<br>--- ----- -- ----,1838432.0899999875,1838431.6799999797,1837543.527,1837550.9349999775,1837560.192,1838443.519,,5,a
screen,html.Screen,1_1_0_1_6,2021-04-23T16:27:07.033Z,,,,,,,,,,,,,,,,53,,,,,,,,,,,,,,1047.1210000035353,,response,,,,99,,,,,,,Space,keypress(Space),,,,,,,,---- -- ----- -- ------ - lasting --- ----------<br>------------- ------ ------ ---- ---- ------- ----- -- ----<br>-------- ------- -- ---------- --- - --- ----- ----- ----<br>---- --- --- ----- --- ---- ---- ------- ----- ---- -------<br>--- --- -- ----- -- --- ---- -- --- ---- -- ------ ------<br>--- ----- -- ----,1839491.089999996,1839490.6400000036,1838426.851,1838432.1649999765,1838443.519,1839493.533,,6,lasting
screen,html.Screen,1_1_0_1_7,2021-04-23T16:27:08.028Z,,,,,,,,,,,,,,,,53,,,,,,,,,,,,,,992.4519999774639,,response,,,,99,,,,,,,Space,keypress(Space),,,,,,,,---- -- ----- -- ------ - ------- and ----------<br>------------- ------ ------ ---- ---- ------- ----- -- ----<br>-------- ------- -- ---------- --- - --- ----- ----- ----<br>---- --- --- ----- --- ---- ---- ------- ----- ---- -------<br>--- --- -- ----- -- --- ---- -- --- ---- -- ------ ------<br>--- ----- -- ----,1840486.3349999941,1840485.9849999775,1839476.864,1839491.2199999962,1839493.533,1840493.5,,7,and
screen,html.Screen,1_1_0_1_8,2021-04-23T16:27:08.962Z,,,,,,,,,,,,,,,,53,,,,,,,,,,,,,,926.2649999987334,,response,,,,99,,,,,,,Space,keypress(Space),,,,,,,,---- -- ----- -- ------ - ------- --- fulfilling<br>------------- ------ ------ ---- ---- ------- ----- -- ----<br>-------- ------- -- ---------- --- - --- ----- ----- ----<br>---- --- --- ----- --- ---- ---- ------- ----- ---- -------<br>--- --- -- ----- -- --- ---- -- --- ---- -- ------ ------<br>--- ----- -- ----,1841420.134999993,1841419.7649999987,1840476.885,1840486.3999999943,1840493.5,1841426.899,,8,fulfilling
screen,html.Screen,1_1_0_1_9,2021-04-23T16:27:10.408Z,,,,,,,,,,,,,,,,53,,,,,,,,,,,,,,1439.7259999951348,,response,,,,99,,,,,,,Space,keypress(Space),,,,,,,,"---- -- ----- -- ------ - ------- --- ----------<br>relationship, ------ ------ ---- ---- ------- ----- -- ----<br>-------- ------- -- ---------- --- - --- ----- ----- ----<br>---- --- --- ----- --- ---- ---- ------- ----- ---- -------<br>--- --- -- ----- -- --- ---- -- --- ---- -- ------ ------<br>--- ----- -- ----",1842866.9700000028,1842866.624999995,1841410.554,1841420.214999991,1841426.899,1842876.911,,9,"relationship,"
screen,html.Screen,1_1_0_1_10,2021-04-23T16:27:11.216Z,,,,,,,,,,,,,,,,53,,,,,,,,,,,,,,796.9089999962598,,response,,,,99,,,,,,,Space,keypress(Space),,,,,,,,---- -- ----- -- ------ - ------- --- ----------<br>------------- common ------ ---- ---- ------- ----- -- ----<br>-------- ------- -- ---------- --- - --- ----- ----- ----<br>---- --- --- ----- --- ---- ---- ------- ----- ---- -------<br>--- --- -- ----- -- --- ---- -- --- ---- -- ------ ------<br>--- ----- -- ----,1843674.3349999888,1843673.8199999963,1842860.154,1842867.0449999918,1842876.911,1843676.865,,10,common
screen,html.Screen,1_1_0_1_11,2021-04-23T16:27:12.936Z,,,,,,,,,,,,,,,,53,,,,,,,,,,,,,,1716.8549999927636,,response,,,,99,,,,,,,Space,keypress(Space),,,,,,,,---- -- ----- -- ------ - ------- --- ----------<br>------------- ------ wisdom ---- ---- ------- ----- -- ----<br>-------- ------- -- ---------- --- - --- ----- ----- ----<br>---- --- --- ----- --- ---- ---- ------- ----- ---- -------<br>--- --- -- ----- -- --- ---- -- --- ---- -- ------ ------<br>--- ----- -- ----,1845394.260000001,1845393.7199999928,1843660.204,1843674.4599999802,1843676.865,1845410.239,,11,wisdom
screen,html.Screen,1_1_0_1_12,2021-04-23T16:27:14.245Z,,,,,,,,,,,,,,,,53,,,,,,,,,,,,,,1292.8159999907948,,response,,,,99,,,,,,,Space,keypress(Space),,,,,,,,---- -- ----- -- ------ - ------- --- ----------<br>------------- ------ ------ says ---- ------- ----- -- ----<br>-------- ------- -- ---------- --- - --- ----- ----- ----<br>---- --- --- ----- --- ---- ---- ------- ----- ---- -------<br>--- --- -- ----- -- --- ---- -- --- ---- -- ------ ------<br>--- ----- -- ----,1846703.6999999837,1846703.0549999909,1845393.519,1845394.33499999,1845410.239,1846710.22,,12,says
screen,html.Screen,1_1_0_1_13,2021-04-23T16:27:17.012Z,,,,,,,,,,,,,,,,53,,,,,,,,,,,,,,2760.0499999907333,,response,,,,99,,,,,,,Space,keypress(Space),,,,,,,,---- -- ----- -- ------ - ------- --- ----------<br>------------- ------ ------ ---- that ------- ----- -- ----<br>-------- ------- -- ---------- --- - --- ----- ----- ----<br>---- --- --- ----- --- ---- ---- ------- ----- ---- -------<br>--- --- -- ----- -- --- ---- -- --- ---- -- ------ ------<br>--- ----- -- ----,1849470.7599999965,1849470.2699999907,1846693.503,1846703.8149999862,1846710.22,1849476.839,,13,that
screen,html.Screen,1_1_0_1_14,2021-04-23T16:27:18.251Z,,,,,,,,,,,,,,,,53,,,,,,,,,,,,,,1232.3959999876097,,response,,,,99,,,,,,,Space,keypress(Space),,,,,,,,---- -- ----- -- ------ - ------- --- ----------<br>------------- ------ ------ ---- ---- feeling ----- -- ----<br>-------- ------- -- ---------- --- - --- ----- ----- ----<br>---- --- --- ----- --- ---- ---- ------- ----- ---- -------<br>--- --- -- ----- -- --- ---- -- --- ---- -- ------ ------<br>--- ----- -- ----,1850709.6199999796,1850709.2349999875,1849460.118,1849470.8899999969,1849476.839,1850739.81,,14,feeling
screen,html.Screen,1_1_0_1_15,2021-04-23T16:27:19.143Z,,,,,,,,,,,,,,,,53,,,,,,,,,,,,,,861.5149999959394,,response,,,,99,,,,,,,Space,keypress(Space),,,,,,,,---- -- ----- -- ------ - ------- --- ----------<br>------------- ------ ------ ---- ---- ------- close -- ----<br>-------- ------- -- ---------- --- - --- ----- ----- ----<br>---- --- --- ----- --- ---- ---- ------- ----- ---- -------<br>--- --- -- ----- -- --- ---- -- --- ---- -- ------ ------<br>--- ----- -- ----,1851601.6549999767,1851601.324999996,1850693.483,1850709.6949999977,1850739.81,1851610.174,,15,close
screen,html.Screen,1_1_0_1_16,2021-04-23T16:27:19.914Z,,,,,,,,,,,,,,,,53,,,,,,,,,,,,,,762.4910000024829,,response,,,,99,,,,,,,Space,keypress(Space),,,,,,,,---- -- ----- -- ------ - ------- --- ----------<br>------------- ------ ------ ---- ---- ------- ----- to ----<br>-------- ------- -- ---------- --- - --- ----- ----- ----<br>---- --- --- ----- --- ---- ---- ------- ----- ---- -------<br>--- --- -- ----- -- --- ---- -- --- ---- -- ------ ------<br>--- ----- -- ----,1852373.0099999812,1852372.6650000026,1851593.505,1851601.724999986,1851610.174,1852376.846,,16,to
screen,html.Screen,1_1_0_1_17,2021-04-23T16:27:20.918Z,,,,,,,,,,,,,,,,53,,,,,,,,,,,,,,999.6239999884274,,response,,,,99,,,,,,,Space,keypress(Space),,,,,,,,---- -- ----- -- ------ - ------- --- ----------<br>------------- ------ ------ ---- ---- ------- ----- -- your<br>-------- ------- -- ---------- --- - --- ----- ----- ----<br>---- --- --- ----- --- ---- ---- ------- ----- ---- -------<br>--- --- -- ----- -- --- ---- -- --- ---- -- ------ ------<br>--- ----- -- ----,1853376.8399999826,1853376.4699999883,1852360.21,1852373.0799999903,1852376.846,1853393.532,,17,your
screen,html.Screen,1_1_0_1_18,2021-04-23T16:27:21.648Z,,,,,,,,,,,,,,,,53,,,,,,,,,,,,,,712.1479999788571,,response,,,,99,,,,,,,Space,keypress(Space),,,,,,,,---- -- ----- -- ------ - ------- --- ----------<br>------------- ------ ------ ---- ---- ------- ----- -- ----<br>romantic ------- -- ---------- --- - --- ----- ----- ----<br>---- --- --- ----- --- ---- ---- ------- ----- ---- -------<br>--- --- -- ----- -- --- ---- -- --- ---- -- ------ ------<br>--- ----- -- ----,1854106.1249999912,1854105.6799999787,1853376.858,1853377.05499999,1853393.532,1854110.233,,18,romantic
screen,html.Screen,1_1_0_1_19,2021-04-23T16:27:22.508Z,,,,,,,,,,,,,,,,53,,,,,,,,,,,,,,855.571999985259,,response,,,,99,,,,,,,Space,keypress(Space),,,,,,,,---- -- ----- -- ------ - ------- --- ----------<br>------------- ------ ------ ---- ---- ------- ----- -- ----<br>-------- partner -- ---------- --- - --- ----- ----- ----<br>---- --- --- ----- --- ---- ---- ------- ----- ---- -------<br>--- --- -- ----- -- --- ---- -- --- ---- -- ------ ------<br>--- ----- -- ----,1854966.214999993,1854965.8049999853,1854093.708,1854106.1950000003,1854110.233,1854976.873,,19,partner
screen,html.Screen,1_1_0_1_20,2021-04-23T16:27:23.128Z,,,,,,,,,,,,,,,,53,,,,,,,,,,,,,,609.2569999815896,,response,,,,99,,,,,,,Space,keypress(Space),,,,,,,,---- -- ----- -- ------ - ------- --- ----------<br>------------- ------ ------ ---- ---- ------- ----- -- ----<br>-------- ------- is ---------- --- - --- ----- ----- ----<br>---- --- --- ----- --- ---- ---- ------- ----- ---- -------<br>--- --- -- ----- -- --- ---- -- --- ---- -- ------ ------<br>--- ----- -- ----,1855586.725000001,1855586.1299999815,1854960.215,1854966.2850000022,1854976.873,1855593.567,,20,is
screen,html.Screen,1_1_0_1_21,2021-04-23T16:27:26.308Z,,,,,,,,,,,,,,,,53,,,,,,,,,,,,,,3172.812999986345,,response,,,,99,,,,,,,Space,keypress(Space),,,,,,,,---- -- ----- -- ------ - ------- --- ----------<br>------------- ------ ------ ---- ---- ------- ----- -- ----<br>-------- ------- -- paramount. --- - --- ----- ----- ----<br>---- --- --- ----- --- ---- ---- ------- ----- ---- -------<br>--- --- -- ----- -- --- ---- -- --- ---- -- ------ ------<br>--- ----- -- ----,1858766.9400000013,1858766.3799999864,1855576.903,1855586.8499999924,1855593.567,1858776.884,,21,paramount.
screen,html.Screen,1_1_0_1_22,2021-04-23T16:27:27.438Z,,,,,,,,,,,,,,,,53,,,,,,,,,,,,,,1118.9209999782033,,response,,,,99,,,,,,,Space,keypress(Space),,,,,,,,---- -- ----- -- ------ - ------- --- ----------<br>------------- ------ ------ ---- ---- ------- ----- -- ----<br>-------- ------- -- ---------- But - --- ----- ----- ----<br>---- --- --- ----- --- ---- ---- ------- ----- ---- -------<br>--- --- -- ----- -- --- ---- -- --- ---- -- ------ ------<br>--- ----- -- ----,1859896.144999977,1859895.8049999783,1858760.109,1858767.0749999816,1858776.884,1859910.183,,22,But
screen,html.Screen,1_1_0_1_23,2021-04-23T16:27:28.199Z,,,,,,,,,,,,,,,,53,,,,,,,,,,,,,,746.856999990996,,response,,,,99,,,,,,,Space,keypress(Space),,,,,,,,---- -- ----- -- ------ - ------- --- ----------<br>------------- ------ ------ ---- ---- ------- ----- -- ----<br>-------- ------- -- ---------- --- a --- ----- ----- ----<br>---- --- --- ----- --- ---- ---- ------- ----- ---- -------<br>--- --- -- ----- -- --- ---- -- --- ---- -- ------ ------<br>--- ----- -- ----,1860657.5749999902,1860657.039999991,1859893.528,1859896.214999986,1859910.183,1860660.183,,23,a
screen,html.Screen,1_1_0_1_24,2021-04-23T16:27:29.182Z,,,,,,,,,,,,,,,,53,,,,,,,,,,,,,,980.347000004258,,response,,,,99,,,,,,,Space,keypress(Space),,,,,,,,---- -- ----- -- ------ - ------- --- ----------<br>------------- ------ ------ ---- ---- ------- ----- -- ----<br>-------- ------- -- ---------- --- - new ----- ----- ----<br>---- --- --- ----- --- ---- ---- ------- ----- ---- -------<br>--- --- -- ----- -- --- ---- -- --- ---- -- ------ ------<br>--- ----- -- ----,1861640.8949999895,1861640.5300000042,1860643.507,1860657.6399999904,1860660.183,1861643.516,,24,new
screen,html.Screen,1_1_0_1_25,2021-04-23T16:27:30.235Z,,,,,,,,,,,,,,,,53,,,,,,,,,,,,,,1049.259000003105,,response,,,,99,,,,,,,Space,keypress(Space),,,,,,,,---- -- ----- -- ------ - ------- --- ----------<br>------------- ------ ------ ---- ---- ------- ----- -- ----<br>-------- ------- -- ---------- --- - --- study ----- ----<br>---- --- --- ----- --- ---- ---- ------- ----- ---- -------<br>--- --- -- ----- -- --- ---- -- --- ---- -- ------ ------<br>--- ----- -- ----,1862693.3549999958,1862692.7750000032,1861626.869,1861640.9699999786,1861643.516,1862710.216,,25,study
screen,html.Screen,1_1_0_1_26,2021-04-23T16:27:31.029Z,,,,,,,,,,,,,,,,53,,,,,,,,,,,,,,776.9389999806881,,response,,,,99,,,,,,,Space,keypress(Space),,,,,,,,---- -- ----- -- ------ - ------- --- ----------<br>------------- ------ ------ ---- ---- ------- ----- -- ----<br>-------- ------- -- ---------- --- - --- ----- finds ----<br>---- --- --- ----- --- ---- ---- ------- ----- ---- -------<br>--- --- -- ----- -- --- ---- -- --- ---- -- ------ ------<br>--- ----- -- ----,1863487.5899999752,1863487.1549999807,1862693.525,1862693.4649999894,1862710.216,1863493.562,,26,finds
screen,html.Screen,1_1_0_1_27,2021-04-23T16:27:31.630Z,,,,,,,,,,,,,,,,53,,,,,,,,,,,,,,594.342999993125,,response,,,,99,,,,,,,Space,keypress(Space),,,,,,,,---- -- ----- -- ------ - ------- --- ----------<br>------------- ------ ------ ---- ---- ------- ----- -- ----<br>-------- ------- -- ---------- --- - --- ----- ----- that<br>---- --- --- ----- --- ---- ---- ------- ----- ---- -------<br>--- --- -- ----- -- --- ---- -- --- ---- -- ------ ------<br>--- ----- -- ----,1864088.300000003,1864087.904999993,1863476.851,1863487.7249999845,1863493.562,1864093.505,,27,that
screen,html.Screen,1_1_0_1_28,2021-04-23T16:27:32.247Z,,,,,,,,,,,,,,,,53,,,,,,,,,,,,,,611.3849999937229,,response,,,,99,,,,,,,Space,keypress(Space),,,,,,,,---- -- ----- -- ------ - ------- --- ----------<br>------------- ------ ------ ---- ---- ------- ----- -- ----<br>-------- ------- -- ---------- --- - --- ----- ----- ----<br>it's --- --- ----- --- ---- ---- ------- ----- ---- -------<br>--- --- -- ----- -- --- ---- -- --- ---- -- ------ ------<br>--- ----- -- ----,1864705.3449999948,1864704.8899999936,1864076.838,1864088.374999992,1864093.505,1864710.217,,28,it's
screen,html.Screen,1_1_0_1_29,2021-04-23T16:27:32.997Z,,,,,,,,,,,,,,,,53,,,,,,,,,,,,,,744.8629999852274,,response,,,,99,,,,,,,Space,keypress(Space),,,,,,,,---- -- ----- -- ------ - ------- --- ----------<br>------------- ------ ------ ---- ---- ------- ----- -- ----<br>-------- ------- -- ---------- --- - --- ----- ----- ----<br>---- not --- ----- --- ---- ---- ------- ----- ---- -------<br>--- --- -- ----- -- --- ---- -- --- ---- -- ------ ------<br>--- ----- -- ----,1865455.6649999868,1865455.0799999852,1864693.557,1864705.4699999862,1864710.217,1865460.17,,29,not
screen,html.Screen,1_1_0_1_30,2021-04-23T16:27:33.947Z,,,,,,,,,,,,,,,,53,,,,,,,,,,,,,,945.0049999926705,,response,,,,99,,,,,,,Space,keypress(Space),,,,,,,,---- -- ----- -- ------ - ------- --- ----------<br>------------- ------ ------ ---- ---- ------- ----- -- ----<br>-------- ------- -- ---------- --- - --- ----- ----- ----<br>---- --- how ----- --- ---- ---- ------- ----- ---- -------<br>--- --- -- ----- -- --- ---- -- --- ---- -- ------ ------<br>--- ----- -- ----,1866405.544999987,1866405.1749999926,1865443.564,1865455.809999985,1865460.17,1866410.17,,30,how
screen,html.Screen,1_1_0_1_31,2021-04-23T16:27:34.518Z,,,,,,,,,,,,,,,,53,,,,,,,,,,,,,,566.3200000009965,,response,,,,99,,,,,,,Space,keypress(Space),,,,,,,,---- -- ----- -- ------ - ------- --- ----------<br>------------- ------ ------ ---- ---- ------- ----- -- ----<br>-------- ------- -- ---------- --- - --- ----- ----- ----<br>---- --- --- close --- ---- ---- ------- ----- ---- -------<br>--- --- -- ----- -- --- ---- -- --- ---- -- ------ ------<br>--- ----- -- ----,1866977.0649999846,1866976.490000001,1866393.543,1866405.6699999783,1866410.17,1866993.555,,31,close
screen,html.Screen,1_1_0_1_32,2021-04-23T16:27:35.065Z,,,,,,,,,,,,,,,,53,,,,,,,,,,,,,,529.6449999960605,,response,,,,99,,,,,,,Space,keypress(Space),,,,,,,,---- -- ----- -- ------ - ------- --- ----------<br>------------- ------ ------ ---- ---- ------- ----- -- ----<br>-------- ------- -- ---------- --- - --- ----- ----- ----<br>---- --- --- ----- you ---- ---- ------- ----- ---- -------<br>--- --- -- ----- -- --- ---- -- --- ---- -- ------ ------<br>--- ----- -- ----,1867523.659999977,1867523.199999996,1866976.89,1866977.2200000007,1866993.555,1867526.86,,32,you
screen,html.Screen,1_1_0_1_33,2021-04-23T16:27:35.841Z,,,,,,,,,,,,,,,,53,,,,,,,,,,,,,,771.9699999850709,,response,,,,99,,,,,,,Space,keypress(Space),,,,,,,,---- -- ----- -- ------ - ------- --- ----------<br>------------- ------ ------ ---- ---- ------- ----- -- ----<br>-------- ------- -- ---------- --- - --- ----- ----- ----<br>---- --- --- ----- --- feel ---- ------- ----- ---- -------<br>--- --- -- ----- -- --- ---- -- --- ---- -- ------ ------<br>--- ----- -- ----,1868299.2699999886,1868298.8299999852,1867510.399,1867523.7899999775,1867526.86,1868310.211,,33,feel
screen,html.Screen,1_1_0_1_34,2021-04-23T16:27:36.870Z,,,,,,,,,,,,,,,,53,,,,,,,,,,,,,,1017.5139999811072,,response,,,,99,,,,,,,Space,keypress(Space),,,,,,,,---- -- ----- -- ------ - ------- --- ----------<br>------------- ------ ------ ---- ---- ------- ----- -- ----<br>-------- ------- -- ---------- --- - --- ----- ----- ----<br>---- --- --- ----- --- ---- that ------- ----- ---- -------<br>--- --- -- ----- -- --- ---- -- --- ---- -- ------ ------<br>--- ----- -- ----,1869328.354999976,1869327.724999981,1868293.535,1868299.399999989,1868310.211,1869343.587,,34,that
screen,html.Screen,1_1_0_1_35,2021-04-23T16:27:37.790Z,,,,,,,,,,,,,,,,53,,,,,,,,,,,,,,904.522999985842,,response,,,,99,,,,,,,Space,keypress(Space),,,,,,,,---- -- ----- -- ------ - ------- --- ----------<br>------------- ------ ------ ---- ---- ------- ----- -- ----<br>-------- ------- -- ---------- --- - --- ----- ----- ----<br>---- --- --- ----- --- ---- ---- matters ----- ---- -------<br>--- --- -- ----- -- --- ---- -- --- ---- -- ------ ------<br>--- ----- -- ----,1870248.5349999915,1870248.109999986,1869326.867,1869328.4849999764,1869343.587,1870260.176,,35,matters
screen,html.Screen,1_1_0_1_36,2021-04-23T16:27:39.190Z,,,,,,,,,,,,,,,,53,,,,,,,,,,,,,,1388.3989999992773,,response,,,,99,,,,,,,Space,keypress(Space),,,,,,,,"---- -- ----- -- ------ - ------- --- ----------<br>------------- ------ ------ ---- ---- ------- ----- -- ----<br>-------- ------- -- ---------- --- - --- ----- ----- ----<br>---- --- --- ----- --- ---- ---- ------- most, ---- -------<br>--- --- -- ----- -- --- ---- -- --- ---- -- ------ ------<br>--- ----- -- ----",1871648.984999978,1871648.5749999993,1870243.505,1870248.655000003,1870260.176,1871660.186,,36,"most,"
screen,html.Screen,1_1_0_1_37,2021-04-23T16:27:39.826Z,,,,,,,,,,,,,,,,53,,,,,,,,,,,,,,623.5039999820292,,response,,,,99,,,,,,,Space,keypress(Space),,,,,,,,---- -- ----- -- ------ - ------- --- ----------<br>------------- ------ ------ ---- ---- ------- ----- -- ----<br>-------- ------- -- ---------- --- - --- ----- ----- ----<br>---- --- --- ----- --- ---- ---- ------- ----- it's -------<br>--- --- -- ----- -- --- ---- -- --- ---- -- ------ ------<br>--- ----- -- ----,1872284.1899999767,1872283.689999982,1871643.497,1871649.0549999871,1871660.186,1872293.539,,37,it's
screen,html.Screen,1_1_0_1_38,2021-04-23T16:27:40.405Z,,,,,,,,,,,,,,,,53,,,,,,,,,,,,,,570.1909999826457,,response,,,,99,,,,,,,Space,keypress(Space),,,,,,,,---- -- ----- -- ------ - ------- --- ----------<br>------------- ------ ------ ---- ---- ------- ----- -- ----<br>-------- ------- -- ---------- --- - --- ----- ----- ----<br>---- --- --- ----- --- ---- ---- ------- ----- ---- whether<br>--- --- -- ----- -- --- ---- -- --- ---- -- ------ ------<br>--- ----- -- ----,1872864.0949999972,1872863.7299999828,1872276.883,1872284.3049999792,1872293.539,1872876.903,,38,whether
screen,html.Screen,1_1_0_1_39,2021-04-23T16:27:41.200Z,,,,,,,,,,,,,,,,53,,,,,,,,,,,,,,781.1719999848865,,response,,,,99,,,,,,,Space,keypress(Space),,,,,,,,---- -- ----- -- ------ - ------- --- ----------<br>------------- ------ ------ ---- ---- ------- ----- -- ----<br>-------- ------- -- ---------- --- - --- ----- ----- ----<br>---- --- --- ----- --- ---- ---- ------- ----- ---- -------<br>you --- -- ----- -- --- ---- -- --- ---- -- ------ ------<br>--- ----- -- ----,1873658.4900000016,1873658.0749999848,1872860.225,1872864.1649999772,1872876.903,1873660.201,,39,you
screen,html.Screen,1_1_0_1_40,2021-04-23T16:27:41.975Z,,,,,,,,,,,,,,,,53,,,,,,,,,,,,,,772.923999981489,,response,,,,99,,,,,,,Space,keypress(Space),,,,,,,,---- -- ----- -- ------ - ------- --- ----------<br>------------- ------ ------ ---- ---- ------- ----- -- ----<br>-------- ------- -- ---------- --- - --- ----- ----- ----<br>---- --- --- ----- --- ---- ---- ------- ----- ---- -------<br>--- are -- ----- -- --- ---- -- --- ---- -- ------ ------<br>--- ----- -- ----,1874433.709999983,1874433.1249999814,1873643.562,1873658.5599999817,1873660.201,1874443.564,,40,are
screen,html.Screen,1_1_0_1_41,2021-04-23T16:27:42.790Z,,,,,,,,,,,,,,,,53,,,,,,,,,,,,,,804.9309999779798,,response,,,,99,,,,,,,Space,keypress(Space),,,,,,,,---- -- ----- -- ------ - ------- --- ----------<br>------------- ------ ------ ---- ---- ------- ----- -- ----<br>-------- ------- -- ---------- --- - --- ----- ----- ----<br>---- --- --- ----- --- ---- ---- ------- ----- ---- -------<br>--- --- as ----- -- --- ---- -- --- ---- -- ------ ------<br>--- ----- -- ----,1875248.9249999926,1875248.494999978,1874426.86,1874433.85999999,1874443.564,1875260.236,,41,as
screen,html.Screen,1_1_0_1_42,2021-04-23T16:27:43.899Z,,,,,,,,,,,,,,,,53,,,,,,,,,,,,,,1097.363999988418,,response,,,,99,,,,,,,Space,keypress(Space),,,,,,,,---- -- ----- -- ------ - ------- --- ----------<br>------------- ------ ------ ---- ---- ------- ----- -- ----<br>-------- ------- -- ---------- --- - --- ----- ----- ----<br>---- --- --- ----- --- ---- ---- ------- ----- ---- -------<br>--- --- -- close -- --- ---- -- --- ---- -- ------ ------<br>--- ----- -- ----,1876357.944999996,1876357.5999999885,1875243.54,1875249.0399999951,1875260.236,1876360.187,,42,close
screen,html.Screen,1_1_0_1_43,2021-04-23T16:27:44.712Z,,,,,,,,,,,,,,,,53,,,,,,,,,,,,,,809.6829999834299,,response,,,,99,,,,,,,Space,keypress(Space),,,,,,,,---- -- ----- -- ------ - ------- --- ----------<br>------------- ------ ------ ---- ---- ------- ----- -- ----<br>-------- ------- -- ---------- --- - --- ----- ----- ----<br>---- --- --- ----- --- ---- ---- ------- ----- ---- -------<br>--- --- -- ----- as --- ---- -- --- ---- -- ------ ------<br>--- ----- -- ----,1877170.379999996,1877169.8699999833,1876343.485,1876358.0099999963,1876360.187,1877176.9,,43,as
screen,html.Screen,1_1_0_1_44,2021-04-23T16:27:45.784Z,,,,,,,,,,,,,,,,53,,,,,,,,,,,,,,1065.330000003567,,response,,,,99,,,,,,,Space,keypress(Space),,,,,,,,---- -- ----- -- ------ - ------- --- ----------<br>------------- ------ ------ ---- ---- ------- ----- -- ----<br>-------- ------- -- ---------- --- - --- ----- ----- ----<br>---- --- --- ----- --- ---- ---- ------- ----- ---- -------<br>--- --- -- ----- -- you ---- -- --- ---- -- ------ ------<br>--- ----- -- ----,1878242.6699999778,1878242.2300000035,1877160.162,1877170.4949999985,1877176.9,1878264.987,,44,you
screen,html.Screen,1_1_0_1_45,2021-04-23T16:27:47.146Z,,,,,,,,,,,,,,,,53,,,,,,,,,,,,,,1338.7479999824427,,response,,,,99,,,,,,,Space,keypress(Space),,,,,,,,---- -- ----- -- ------ - ------- --- ----------<br>------------- ------ ------ ---- ---- ------- ----- -- ----<br>-------- ------- -- ---------- --- - --- ----- ----- ----<br>---- --- --- ----- --- ---- ---- ------- ----- ---- -------<br>--- --- -- ----- -- --- want -- --- ---- -- ------ ------<br>--- ----- -- ----,1879604.7499999986,1879603.7349999824,1878226.844,1878242.7899999893,1878264.987,1879610.201,,45,want
screen,html.Screen,1_1_0_1_46,2021-04-23T16:27:48.082Z,,,,,,,,,,,,,,,,53,,,,,,,,,,,,,,930.0540000000037,,response,,,,99,,,,,,,Space,keypress(Space),,,,,,,,---- -- ----- -- ------ - ------- --- ----------<br>------------- ------ ------ ---- ---- ------- ----- -- ----<br>-------- ------- -- ---------- --- - --- ----- ----- ----<br>---- --- --- ----- --- ---- ---- ------- ----- ---- -------<br>--- --- -- ----- -- --- ---- to --- ---- -- ------ ------<br>--- ----- -- ----,1880540.6899999944,1880540.255,1879593.5,1879604.8249999876,1879610.201,1880543.514,,46,to
screen,html.Screen,1_1_0_1_47,2021-04-23T16:27:50.111Z,,,,,,,,,,,,,,,,53,,,,,,,,,,,,,,2025.3359999815002,,response,,,,99,,,,,,,Space,keypress(Space),,,,,,,,"---- -- ----- -- ------ - ------- --- ----------<br>------------- ------ ------ ---- ---- ------- ----- -- ----<br>-------- ------- -- ---------- --- - --- ----- ----- ----<br>---- --- --- ----- --- ---- ---- ------- ----- ---- -------<br>--- --- -- ----- -- --- ---- -- be, ---- -- ------ ------<br>--- ----- -- ----",1882569.4300000032,1882568.8499999815,1880526.878,1880540.7600000035,1880543.514,1882577.09,,47,"be,"
screen,html.Screen,1_1_0_1_48,2021-04-23T16:27:51.649Z,,,,,,,,,,,,,,,,53,,,,,,,,,,,,,,1529.879999993369,,response,,,,99,,,,,,,Space,keypress(Space),,,,,,,,---- -- ----- -- ------ - ------- --- ----------<br>------------- ------ ------ ---- ---- ------- ----- -- ----<br>-------- ------- -- ---------- --- - --- ----- ----- ----<br>---- --- --- ----- --- ---- ---- ------- ----- ---- -------<br>--- --- -- ----- -- --- ---- -- --- even -- ------ ------<br>--- ----- -- ----,1884107.5249999994,1884106.9699999935,1882560.138,1882569.524999999,1882577.09,1884110.219,,48,even
screen,html.Screen,1_1_0_1_49,2021-04-23T16:27:52.382Z,,,,,,,,,,,,,,,,53,,,,,,,,,,,,,,729.645999987144,,response,,,,99,,,,,,,Space,keypress(Space),,,,,,,,---- -- ----- -- ------ - ------- --- ----------<br>------------- ------ ------ ---- ---- ------- ----- -- ----<br>-------- ------- -- ---------- --- - --- ----- ----- ----<br>---- --- --- ----- --- ---- ---- ------- ----- ---- -------<br>--- --- -- ----- -- --- ---- -- --- ---- if ------ ------<br>--- ----- -- ----,1884840.2499999793,1884839.8649999872,1884093.532,1884107.634999993,1884110.219,1884843.509,,49,if
screen,html.Screen,1_1_0_1_50,2021-04-23T16:27:53.724Z,,,,,,,,,,,,,,,,53,,,,,,,,,,,,,,1338.9709999884944,,response,,,,99,,,,,,,Space,keypress(Space),,,,,,,,---- -- ----- -- ------ - ------- --- ----------<br>------------- ------ ------ ---- ---- ------- ----- -- ----<br>-------- ------- -- ---------- --- - --- ----- ----- ----<br>---- --- --- ----- --- ---- ---- ------- ----- ---- -------<br>--- --- -- ----- -- --- ---- -- --- ---- -- that's ------<br>--- ----- -- ----,1886182.919999992,1886182.4799999886,1884826.854,1884840.3199999884,1884843.509,1886193.534,,50,that's
screen,html.Screen,1_1_0_1_51,2021-04-23T16:27:54.345Z,,,,,,,,,,,,,,,,53,,,,,,,,,,,,,,609.7859999772627,,response,,,,99,,,,,,,Space,keypress(Space),,,,,,,,---- -- ----- -- ------ - ------- --- ----------<br>------------- ------ ------ ---- ---- ------- ----- -- ----<br>-------- ------- -- ---------- --- - --- ----- ----- ----<br>---- --- --- ----- --- ---- ---- ------- ----- ---- -------<br>--- --- -- ----- -- --- ---- -- --- ---- -- ------ really<br>--- ----- -- ----,1886803.7749999785,1886803.3199999772,1886176.866,1886183.0349999946,1886193.534,1886810.233,,51,really
screen,html.Screen,1_1_0_1_52,2021-04-23T16:27:54.937Z,,,,,,,,,,,,,,,,53,,,,,,,,,,,,,,585.186999986181,,response,,,,99,,,,,,,Space,keypress(Space),,,,,,,,---- -- ----- -- ------ - ------- --- ----------<br>------------- ------ ------ ---- ---- ------- ----- -- ----<br>-------- ------- -- ---------- --- - --- ----- ----- ----<br>---- --- --- ----- --- ---- ---- ------- ----- ---- -------<br>--- --- -- ----- -- --- ---- -- --- ---- -- ------ ------<br>not ----- -- ----,1887395.8099999873,1887395.4199999862,1886793.57,1886803.8449999876,1886810.233,1887410.246,,52,not
screen,html.Screen,1_1_0_1_53,2021-04-23T16:27:55.543Z,,,,,,,,,,,,,,,,53,,,,,,,,,,,,,,590.8239999983925,,response,,,,99,,,,,,,Space,keypress(Space),,,,,,,,---- -- ----- -- ------ - ------- --- ----------<br>------------- ------ ------ ---- ---- ------- ----- -- ----<br>-------- ------- -- ---------- --- - --- ----- ----- ----<br>---- --- --- ----- --- ---- ---- ------- ----- ---- -------<br>--- --- -- ----- -- --- ---- -- --- ---- -- ------ ------<br>--- close -- ----,1888001.5349999885,1888001.0699999984,1887393.534,1887395.8799999964,1887410.246,1888010.201,,53,close
screen,html.Screen,1_1_0_1_54,2021-04-23T16:27:55.985Z,,,,,,,,,,,,,,,,53,,,,,,,,,,,,,,433.0789999777917,,response,,,,99,,,,,,,Space,keypress(Space),,,,,,,,---- -- ----- -- ------ - ------- --- ----------<br>------------- ------ ------ ---- ---- ------- ----- -- ----<br>-------- ------- -- ---------- --- - --- ----- ----- ----<br>---- --- --- ----- --- ---- ---- ------- ----- ---- -------<br>--- --- -- ----- -- --- ---- -- --- ---- -- ------ ------<br>--- ----- at ----,1888443.969999993,1888443.2799999777,1887993.527,1888001.649999991,1888010.201,1888460.245,,54,at
screen,html.Screen,1_1_0_1_55,2021-04-23T16:27:57.095Z,,,,,,,,,,,,,,,,53,,,,,,,,,,,,,,1093.105000001844,,response,,,,99,,,,,,,Space,keypress(Space),,,,,,,,---- -- ----- -- ------ - ------- --- ----------<br>------------- ------ ------ ---- ---- ------- ----- -- ----<br>-------- ------- -- ---------- --- - --- ----- ----- ----<br>---- --- --- ----- --- ---- ---- ------- ----- ---- -------<br>--- --- -- ----- -- --- ---- -- --- ---- -- ------ ------<br>--- ----- -- all.,1889553.734999994,1889553.350000002,1888443.56,1888444.0349999932,1888460.245,1889560.192,,55,all.
Item 99,flow.Loop,1_1_0_1,2021-04-23T16:27:57.095Z,,,,,,,,,,,,,,,,,,,,,,,,,,,,,,57543.11900000204,,completion,,,,,E,,,,,,,,,,,silence,,,,,1889553.8799999922,1889553.350000002,1831993.611,1831994.5199999784,1832010.231,1889560.192,,,
Question 1,html.Screen,1_1_0_2,2021-04-23T16:28:11.278Z,,,,,,,,,,,,,,,,,,,,,,,,,,,true,FALSE,,14175.752999993041,,response,,,,99,E,,,,,,FALSE,click #choice-2,,,,silence,,,,,1903736.6449999972,1903735.944999993,1889543.491,1889553.9249999856,1889560.192,1903743.497,,,
Question 2,html.Screen,1_1_0_3,2021-04-23T16:28:21.607Z,,,,,,,,,,,,,,,,,,,,,,,,,,,true,TRUE,,10321.763000003062,,response,,,,99,E,,,,,,TRUE,click #choice-1,,,,silence,,,,,1914065.9499999892,1914065.260000003,1903727.163,1903736.7099999974,1903743.497,1914076.935,,,
Item 99,flow.Sequence,1_1_0,2021-04-23T16:28:21.607Z,,,,,,,,,,,,,,,,,,,,,,,,,,,,,,92055.05000000307,,completion,,,,,,,,,,,,,,,,,,,,,1914066.039999976,1914065.260000003,1821993.588,1822010.9799999918,1822010.21,1914076.935,,,
Holding screen,html.Screen,1_1_1_0,2021-04-23T16:28:31.602Z,,,,,,,,,,,,,,,,,,,,,,,,,,,,,,9999.993000000017,,timeout,,,,,,,,,,,,,,,,,,,,,1924060.7999999775,1924060.249,1914060.293,1914066.0949999874,1914076.935,1924076.928,,,
screen,html.Screen,1_1_1_1_0,2021-04-23T16:28:32.924Z,,,,,,,,,,,,,,,,54,,,,,,,,,,,,,,1304.7669999890495,,response,,,,100,,,,,,,Space,keypress(Space),,,,,,,,At --- ---- --- ------ ----- ------- ---- -- --- ------- --<br>------- ---------- ------ -- ----- -- ----- -- ---- ------<br>--- ----- --- --- ------ -------- ----- --- ------ ----- --<br>----- ----- ---------- --- --- ------ ------ ---- -- ------<br>------- --- ------ ----- --- ---- ------- -- ---- --- --<br>------- ------,1925382.1649999882,1925381.6949999891,1924060.249,1924060.9849999892,1924076.928,1925393.528,,0,At
screen,html.Screen,1_1_1_1_1,2021-04-23T16:28:33.674Z,,,,,,,,,,,,,,,,54,,,,,,,,,,,,,,739.13200000301,,response,,,,100,,,,,,,Space,keypress(Space),,,,,,,,-- the ---- --- ------ ----- ------- ---- -- --- ------- --<br>------- ---------- ------ -- ----- -- ----- -- ---- ------<br>--- ----- --- --- ------ -------- ----- --- ------ ----- --<br>----- ----- ---------- --- --- ------ ------ ---- -- ------<br>------- --- ------ ----- --- ---- ------- -- ---- --- --<br>------- ------,1926133.0549999839,1926132.660000003,1925376.831,1925382.2799999907,1925393.528,1926143.556,,1,the
screen,html.Screen,1_1_1_1_2,2021-04-23T16:28:34.560Z,,,,,,,,,,,,,,,,54,,,,,,,,,,,,,,874.6039999776985,,response,,,,100,,,,,,,Space,keypress(Space),,,,,,,,-- --- time --- ------ ----- ------- ---- -- --- ------- --<br>------- ---------- ------ -- ----- -- ----- -- ---- ------<br>--- ----- --- --- ------ -------- ----- --- ------ ----- --<br>----- ----- ---------- --- --- ------ ------ ---- -- ------<br>------- --- ------ ----- --- ---- ------- -- ---- --- --<br>------- ------,1927018.6899999972,1927018.1599999778,1926126.859,1926133.119999984,1926143.556,1927026.87,,2,time
screen,html.Screen,1_1_1_1_3,2021-04-23T16:28:36.373Z,,,,,,,,,,,,,,,,54,,,,,,,,,,,,,,1804.550000002142,,response,,,,100,,,,,,,Space,keypress(Space),,,,,,,,-- --- ---- the ------ ----- ------- ---- -- --- ------- --<br>------- ---------- ------ -- ----- -- ----- -- ---- ------<br>--- ----- --- --- ------ -------- ----- --- ------ ----- --<br>----- ----- ---------- --- --- ------ ------ ---- -- ------<br>------- --- ------ ----- --- ---- ------- -- ---- --- --<br>------- ------,1928832.0349999995,1928831.4200000023,1927010.22,1927018.7549999973,1927026.87,1928843.485,,3,the
screen,html.Screen,1_1_1_1_4,2021-04-23T16:28:37.620Z,,,,,,,,,,,,,,,,54,,,,,,,,,,,,,,1234.3000000012107,,response,,,,100,,,,,,,Space,keypress(Space),,,,,,,,-- --- ---- --- French ----- ------- ---- -- --- ------- --<br>------- ---------- ------ -- ----- -- ----- -- ---- ------<br>--- ----- --- --- ------ -------- ----- --- ------ ----- --<br>----- ----- ---------- --- --- ------ ------ ---- -- ------<br>------- --- ------ ----- --- ---- ------- -- ---- --- --<br>------- ------,1930078.1499999866,1930077.7850000013,1928826.79,1928832.1199999773,1928843.485,1930093.527,,4,French
screen,html.Screen,1_1_1_1_5,2021-04-23T16:28:38.785Z,,,,,,,,,,,,,,,,54,,,,,,,,,,,,,,1148.8279999948572,,response,,,,100,,,,,,,Space,keypress(Space),,,,,,,,-- --- ---- --- ------ crown ------- ---- -- --- ------- --<br>------- ---------- ------ -- ----- -- ----- -- ---- ------<br>--- ----- --- --- ------ -------- ----- --- ------ ----- --<br>----- ----- ---------- --- --- ------ ------ ---- -- ------<br>------- --- ------ ----- --- ---- ------- -- ---- --- --<br>------- ------,1931242.899999983,1931242.3549999949,1930076.875,1930078.2149999868,1930093.527,1931265.098,,5,crown
screen,html.Screen,1_1_1_1_6,2021-04-23T16:28:39.879Z,,,,,,,,,,,,,,,,54,,,,,,,,,,,,,,1071.4970000006724,,response,,,,100,,,,,,,Space,keypress(Space),,,,,,,,-- --- ---- --- ------ ----- secured ---- -- --- ------- --<br>------- ---------- ------ -- ----- -- ----- -- ---- ------<br>--- ----- --- --- ------ -------- ----- --- ------ ----- --<br>----- ----- ---------- --- --- ------ ------ ---- -- ------<br>------- --- ------ ----- --- ---- ------- -- ---- --- --<br>------- ------,1932337.050000002,1932336.5950000007,1931226.812,1931243.0099999765,1931265.098,1932343.54,,6,secured
screen,html.Screen,1_1_1_1_7,2021-04-23T16:28:40.812Z,,,,,,,,,,,,,,,,54,,,,,,,,,,,,,,925.8199999765493,,response,,,,100,,,,,,,Space,keypress(Space),,,,,,,,-- --- ---- --- ------ ----- ------- much -- --- ------- --<br>------- ---------- ------ -- ----- -- ----- -- ---- ------<br>--- ----- --- --- ------ -------- ----- --- ------ ----- --<br>----- ----- ---------- --- --- ------ ------ ---- -- ------<br>------- --- ------ ----- --- ---- ------- -- ---- --- --<br>------- ------,1933269.8600000003,1933269.3599999766,1932326.874,1932337.1599999955,1932343.54,1933276.874,,7,much
screen,html.Screen,1_1_1_1_8,2021-04-23T16:28:41.632Z,,,,,,,,,,,,,,,,54,,,,,,,,,,,,,,812.8509999979287,,response,,,,100,,,,,,,Space,keypress(Space),,,,,,,,-- --- ---- --- ------ ----- ------- ---- of --- ------- --<br>------- ---------- ------ -- ----- -- ----- -- ---- ------<br>--- ----- --- --- ------ -------- ----- --- ------ ----- --<br>----- ----- ---------- --- --- ------ ------ ---- -- ------<br>------- --- ------ ----- --- ---- ------- -- ---- --- --<br>------- ------,1934090.1549999835,1934089.724999998,1933260.198,1933269.969999994,1933276.874,1934093.511,,8,of
screen,html.Screen,1_1_1_1_9,2021-04-23T16:28:43.365Z,,,,,,,,,,,,,,,,54,,,,,,,,,,,,,,1729.213999976404,,response,,,,100,,,,,,,Space,keypress(Space),,,,,,,,-- --- ---- --- ------ ----- ------- ---- -- its ------- --<br>------- ---------- ------ -- ----- -- ----- -- ---- ------<br>--- ----- --- --- ------ -------- ----- --- ------ ----- --<br>----- ----- ---------- --- --- ------ ------ ---- -- ------<br>------- --- ------ ----- --- ---- ------- -- ---- --- --<br>------- ------,1935823.2149999822,1935822.7249999763,1934076.869,1934090.2249999926,1934093.511,1935826.903,,9,its
screen,html.Screen,1_1_1_1_10,2021-04-23T16:28:45.339Z,,,,,,,,,,,,,,,,54,,,,,,,,,,,,,,1969.5319999966305,,response,,,,100,,,,,,,Space,keypress(Space),,,,,,,,-- --- ---- --- ------ ----- ------- ---- -- --- revenue --<br>------- ---------- ------ -- ----- -- ----- -- ---- ------<br>--- ----- --- --- ------ -------- ----- --- ------ ----- --<br>----- ----- ---------- --- --- ------ ------ ---- -- ------<br>------- --- ------ ----- --- ---- ------- -- ---- --- --<br>------- ------,1937796.8999999866,1937796.4349999966,1935810.191,1935823.3649999893,1935826.903,1937810.181,,10,revenue
screen,html.Screen,1_1_1_1_11,2021-04-23T16:28:46.095Z,,,,,,,,,,,,,,,,54,,,,,,,,,,,,,,742.2189999858383,,response,,,,100,,,,,,,Space,keypress(Space),,,,,,,,-- --- ---- --- ------ ----- ------- ---- -- --- ------- by<br>------- ---------- ------ -- ----- -- ----- -- ---- ------<br>--- ----- --- --- ------ -------- ----- --- ------ ----- --<br>----- ----- ---------- --- --- ------ ------ ---- -- ------<br>------- --- ------ ----- --- ---- ------- -- ---- --- --<br>------- ------,1938552.7999999758,1938552.399999986,1937793.489,1937797.0099999802,1937810.181,1938560.203,,11,by
screen,html.Screen,1_1_1_1_12,2021-04-23T16:28:48.090Z,,,,,,,,,,,,,,,,54,,,,,,,,,,,,,,1987.131999981124,,response,,,,100,,,,,,,Space,keypress(Space),,,,,,,,-- --- ---- --- ------ ----- ------- ---- -- --- ------- --<br>issuing ---------- ------ -- ----- -- ----- -- ---- ------<br>--- ----- --- --- ------ -------- ----- --- ------ ----- --<br>----- ----- ---------- --- --- ------ ------ ---- -- ------<br>------- --- ------ ----- --- ---- ------- -- ---- --- --<br>------- ------,1940547.7649999957,1940547.334999981,1938543.547,1938552.8599999961,1938560.203,1940560.231,,12,issuing
screen,html.Screen,1_1_1_1_13,2021-04-23T16:28:49.521Z,,,,,,,,,,,,,,,,54,,,,,,,,,,,,,,1418.579000000609,,response,,,,100,,,,,,,Space,keypress(Space),,,,,,,,-- --- ---- --- ------ ----- ------- ---- -- --- ------- --<br>------- government ------ -- ----- -- ----- -- ---- ------<br>--- ----- --- --- ------ -------- ----- --- ------ ----- --<br>----- ----- ---------- --- --- ------ ------ ---- -- ------<br>------- --- ------ ----- --- ---- ------- -- ---- --- --<br>------- ------,1941979.2249999882,1941978.8100000005,1940543.526,1940547.8799999983,1940560.231,1941993.566,,13,government
screen,html.Screen,1_1_1_1_14,2021-04-23T16:28:51.976Z,,,,,,,,,,,,,,,,54,,,,,,,,,,,,,,2440.0240000004414,,response,,,,100,,,,,,,Space,keypress(Space),,,,,,,,-- --- ---- --- ------ ----- ------- ---- -- --- ------- --<br>------- ---------- bonds. -- ----- -- ----- -- ---- ------<br>--- ----- --- --- ------ -------- ----- --- ------ ----- --<br>----- ----- ---------- --- --- ------ ------ ---- -- ------<br>------- --- ------ ----- --- ---- ------- -- ---- --- --<br>------- ------,1944434.1149999818,1944433.5900000005,1941976.827,1941979.3150000041,1941993.566,1944443.533,,14,bonds.
screen,html.Screen,1_1_1_1_15,2021-04-23T16:28:53.046Z,,,,,,,,,,,,,,,,54,,,,,,,,,,,,,,1060.5669999909587,,response,,,,100,,,,,,,Space,keypress(Space),,,,,,,,-- --- ---- --- ------ ----- ------- ---- -- --- ------- --<br>------- ---------- ------ In ----- -- ----- -- ---- ------<br>--- ----- --- --- ------ -------- ----- --- ------ ----- --<br>----- ----- ---------- --- --- ------ ------ ---- -- ------<br>------- --- ------ ----- --- ---- ------- -- ---- --- --<br>------- ------,1945504.5349999855,1945504.099999991,1944426.82,1944434.2299999844,1944443.533,1945510.2,,15,In
screen,html.Screen,1_1_1_1_16,2021-04-23T16:28:55.633Z,,,,,,,,,,,,,,,,54,,,,,,,,,,,,,,2580.329999986803,,response,,,,100,,,,,,,Space,keypress(Space),,,,,,,,"-- --- ---- --- ------ ----- ------- ---- -- --- ------- --<br>------- ---------- ------ -- 1727, -- ----- -- ---- ------<br>--- ----- --- --- ------ -------- ----- --- ------ ----- --<br>----- ----- ---------- --- --- ------ ------ ---- -- ------<br>------- --- ------ ----- --- ---- ------- -- ---- --- --<br>------- ------",1948090.8800000034,1948090.5299999868,1945493.499,1945504.644999979,1945510.2,1948093.583,,16,"1727,"
screen,html.Screen,1_1_1_1_17,2021-04-23T16:28:57.568Z,,,,,,,,,,,,,,,,54,,,,,,,,,,,,,,1932.2569999874104,,response,,,,100,,,,,,,Space,keypress(Space),,,,,,,,-- --- ---- --- ------ ----- ------- ---- -- --- ------- --<br>------- ---------- ------ -- ----- in ----- -- ---- ------<br>--- ----- --- --- ------ -------- ----- --- ------ ----- --<br>----- ----- ---------- --- --- ------ ------ ---- -- ------<br>------- --- ------ ----- --- ---- ------- -- ---- --- --<br>------- ------,1950026.2899999798,1950025.8399999875,1948076.756,1948090.9450000036,1948093.583,1950052.236,,17,in
screen,html.Screen,1_1_1_1_18,2021-04-23T16:28:58.497Z,,,,,,,,,,,,,,,,54,,,,,,,,,,,,,,902.2289999879431,,response,,,,100,,,,,,,Space,keypress(Space),,,,,,,,-- --- ---- --- ------ ----- ------- ---- -- --- ------- --<br>------- ---------- ------ -- ----- -- order -- ---- ------<br>--- ----- --- --- ------ -------- ----- --- ------ ----- --<br>----- ----- ---------- --- --- ------ ------ ---- -- ------<br>------- --- ------ ----- --- ---- ------- -- ---- --- --<br>------- ------,1950955.0449999806,1950954.464999988,1950010.112,1950026.4049999823,1950052.236,1950960.168,,18,order
screen,html.Screen,1_1_1_1_19,2021-04-23T16:29:00.064Z,,,,,,,,,,,,,,,,54,,,,,,,,,,,,,,1561.8469999949448,,response,,,,100,,,,,,,Space,keypress(Space),,,,,,,,-- --- ---- --- ------ ----- ------- ---- -- --- ------- --<br>------- ---------- ------ -- ----- -- ----- to ---- ------<br>--- ----- --- --- ------ -------- ----- --- ------ ----- --<br>----- ----- ---------- --- --- ------ ------ ---- -- ------<br>------- --- ------ ----- --- ---- ------- -- ---- --- --<br>------- ------,1952522.4349999917,1952522.014999995,1950943.714,1950955.1899999788,1950960.168,1952526.86,,19,to
screen,html.Screen,1_1_1_1_20,2021-04-23T16:29:01.038Z,,,,,,,,,,,,,,,,54,,,,,,,,,,,,,,968.9249999772292,,response,,,,100,,,,,,,Space,keypress(Space),,,,,,,,-- --- ---- --- ------ ----- ------- ---- -- --- ------- --<br>------- ---------- ------ -- ----- -- ----- -- save ------<br>--- ----- --- --- ------ -------- ----- --- ------ ----- --<br>----- ----- ---------- --- --- ------ ------ ---- -- ------<br>------- --- ------ ----- --- ---- ------- -- ---- --- --<br>------- ------,1953496.1550000007,1953495.7849999773,1952510.177,1952522.5050000008,1952526.86,1953510.233,,20,save
screen,html.Screen,1_1_1_1_21,2021-04-23T16:29:01.820Z,,,,,,,,,,,,,,,,54,,,,,,,,,,,,,,767.2569999785628,,response,,,,100,,,,,,,Space,keypress(Space),,,,,,,,"-- --- ---- --- ------ ----- ------- ---- -- --- ------- --<br>------- ---------- ------ -- ----- -- ----- -- ---- money,<br>--- ----- --- --- ------ -------- ----- --- ------ ----- --<br>----- ----- ---------- --- --- ------ ------ ---- -- ------<br>------- --- ------ ----- --- ---- ------- -- ---- --- --<br>------- ------",1954277.9799999844,1954277.4899999786,1953493.548,1953496.220000001,1953510.233,1954293.548,,21,"money,"
screen,html.Screen,1_1_1_1_22,2021-04-23T16:29:02.754Z,,,,,,,,,,,,,,,,54,,,,,,,,,,,,,,917.7319999886677,,response,,,,100,,,,,,,Space,keypress(Space),,,,,,,,-- --- ---- --- ------ ----- ------- ---- -- --- ------- --<br>------- ---------- ------ -- ----- -- ----- -- ---- ------<br>the ----- --- --- ------ -------- ----- --- ------ ----- --<br>----- ----- ---------- --- --- ------ ------ ---- -- ------<br>------- --- ------ ----- --- ---- ------- -- ---- --- --<br>------- ------,1955211.6149999783,1955211.2799999886,1954276.818,1954278.089999978,1954293.548,1955226.868,,22,the
screen,html.Screen,1_1_1_1_23,2021-04-23T16:29:05.670Z,,,,,,,,,,,,,,,,54,,,,,,,,,,,,,,2901.251999979373,,response,,,,100,,,,,,,Space,keypress(Space),,,,,,,,-- --- ---- --- ------ ----- ------- ---- -- --- ------- --<br>------- ---------- ------ -- ----- -- ----- -- ---- ------<br>--- state --- --- ------ -------- ----- --- ------ ----- --<br>----- ----- ---------- --- --- ------ ------ ---- -- ------<br>------- --- ------ ----- --- ---- ------- -- ---- --- --<br>------- ------,1958128.4799999848,1958128.1199999794,1955210.193,1955211.6799999785,1955226.868,1958143.548,,23,state
screen,html.Screen,1_1_1_1_24,2021-04-23T16:29:06.448Z,,,,,,,,,,,,,,,,54,,,,,,,,,,,,,,762.3269999967888,,response,,,,100,,,,,,,Space,keypress(Space),,,,,,,,-- --- ---- --- ------ ----- ------- ---- -- --- ------- --<br>------- ---------- ------ -- ----- -- ----- -- ---- ------<br>--- ----- cut --- ------ -------- ----- --- ------ ----- --<br>----- ----- ---------- --- --- ------ ------ ---- -- ------<br>------- --- ------ ----- --- ---- ------- -- ---- --- --<br>------- ------,1958906.25,1958905.8749999967,1958126.783,1958128.544999985,1958143.548,1958910.182,,24,cut
screen,html.Screen,1_1_1_1_25,2021-04-23T16:29:07.096Z,,,,,,,,,,,,,,,,54,,,,,,,,,,,,,,643.4430000004359,,response,,,,100,,,,,,,Space,keypress(Space),,,,,,,,-- --- ---- --- ------ ----- ------- ---- -- --- ------- --<br>------- ---------- ------ -- ----- -- ----- -- ---- ------<br>--- ----- --- the ------ -------- ----- --- ------ ----- --<br>----- ----- ---------- --- --- ------ ------ ---- -- ------<br>------- --- ------ ----- --- ---- ------- -- ---- --- --<br>------- ------,1959554.139999993,1959553.6250000005,1958893.544,1958906.31999998,1958910.182,1959560.203,,25,the
screen,html.Screen,1_1_1_1_26,2021-04-23T16:29:07.933Z,,,,,,,,,,,,,,,,54,,,,,,,,,,,,,,830.2719999928959,,response,,,,100,,,,,,,Space,keypress(Space),,,,,,,,-- --- ---- --- ------ ----- ------- ---- -- --- ------- --<br>------- ---------- ------ -- ----- -- ----- -- ---- ------<br>--- ----- --- --- bonds' -------- ----- --- ------ ----- --<br>----- ----- ---------- --- --- ------ ------ ---- -- ------<br>------- --- ------ ----- --- ---- ------- -- ---- --- --<br>------- ------,1960390.8799999917,1960390.4749999929,1959543.557,1959554.2549999955,1959560.203,1960393.517,,26,bonds'
screen,html.Screen,1_1_1_1_27,2021-04-23T16:29:09.256Z,,,,,,,,,,,,,,,,54,,,,,,,,,,,,,,1319.9679999856744,,response,,,,100,,,,,,,Space,keypress(Space),,,,,,,,-- --- ---- --- ------ ----- ------- ---- -- --- ------- --<br>------- ---------- ------ -- ----- -- ----- -- ---- ------<br>--- ----- --- --- ------ interest ----- --- ------ ----- --<br>----- ----- ---------- --- --- ------ ------ ---- -- ------<br>------- --- ------ ----- --- ---- ------- -- ---- --- --<br>------- ------,1961713.85,1961713.4849999857,1960376.849,1960390.944999992,1960393.517,1961726.873,,27,interest
screen,html.Screen,1_1_1_1_28,2021-04-23T16:29:10.356Z,,,,,,,,,,,,,,,,54,,,,,,,,,,,,,,1086.2019999837503,,response,,,,100,,,,,,,Space,keypress(Space),,,,,,,,-- --- ---- --- ------ ----- ------- ---- -- --- ------- --<br>------- ---------- ------ -- ----- -- ----- -- ---- ------<br>--- ----- --- --- ------ -------- rate. --- ------ ----- --<br>----- ----- ---------- --- --- ------ ------ ---- -- ------<br>------- --- ------ ----- --- ---- ------- -- ---- --- --<br>------- ------,1962813.6200000008,1962813.0749999837,1961710.357,1961713.9199999801,1961726.873,1962827.081,,28,rate.
screen,html.Screen,1_1_1_1_29,2021-04-23T16:29:11.066Z,,,,,,,,,,,,,,,,54,,,,,,,,,,,,,,696.4339999789372,,response,,,,100,,,,,,,Space,keypress(Space),,,,,,,,-- --- ---- --- ------ ----- ------- ---- -- --- ------- --<br>------- ---------- ------ -- ----- -- ----- -- ---- ------<br>--- ----- --- --- ------ -------- ----- The ------ ----- --<br>----- ----- ---------- --- --- ------ ------ ---- -- ------<br>------- --- ------ ----- --- ---- ------- -- ---- --- --<br>------- ------,1963523.9699999802,1963523.514999979,1962810.173,1962813.75999999,1962827.081,1963526.852,,29,The
screen,html.Screen,1_1_1_1_30,2021-04-23T16:29:12.512Z,,,,,,,,,,,,,,,,54,,,,,,,,,,,,,,1442.9929999851156,,response,,,,100,,,,,,,Space,keypress(Space),,,,,,,,-- --- ---- --- ------ ----- ------- ---- -- --- ------- --<br>------- ---------- ------ -- ----- -- ----- -- ---- ------<br>--- ----- --- --- ------ -------- ----- --- market ----- --<br>----- ----- ---------- --- --- ------ ------ ---- -- ------<br>------- --- ------ ----- --- ---- ------- -- ---- --- --<br>------- ------,1964970.3849999933,1964969.844999985,1963510.191,1963524.0849999827,1963526.852,1964976.896,,30,market
screen,html.Screen,1_1_1_1_31,2021-04-23T16:29:13.440Z,,,,,,,,,,,,,,,,54,,,,,,,,,,,,,,921.1339999821503,,response,,,,100,,,,,,,Space,keypress(Space),,,,,,,,-- --- ---- --- ------ ----- ------- ---- -- --- ------- --<br>------- ---------- ------ -- ----- -- ----- -- ---- ------<br>--- ----- --- --- ------ -------- ----- --- ------ value --<br>----- ----- ---------- --- --- ------ ------ ---- -- ------<br>------- --- ------ ----- --- ---- ------- -- ---- --- --<br>------- ------,1965898.4849999833,1965898.029999982,1964960.194,1964970.4899999779,1964976.896,1965910.219,,31,value
screen,html.Screen,1_1_1_1_32,2021-04-23T16:29:14.056Z,,,,,,,,,,,,,,,,54,,,,,,,,,,,,,,603.3059999875259,,response,,,,100,,,,,,,Space,keypress(Space),,,,,,,,-- --- ---- --- ------ ----- ------- ---- -- --- ------- --<br>------- ---------- ------ -- ----- -- ----- -- ---- ------<br>--- ----- --- --- ------ -------- ----- --- ------ ----- of<br>----- ----- ---------- --- --- ------ ------ ---- -- ------<br>------- --- ------ ----- --- ---- ------- -- ---- --- --<br>------- ------,1966513.959999982,1966513.5249999876,1965893.539,1965898.599999986,1965910.219,1966526.878,,32,of
screen,html.Screen,1_1_1_1_33,2021-04-23T16:29:15.019Z,,,,,,,,,,,,,,,,54,,,,,,,,,,,,,,949.2769999820739,,response,,,,100,,,,,,,Space,keypress(Space),,,,,,,,-- --- ---- --- ------ ----- ------- ---- -- --- ------- --<br>------- ---------- ------ -- ----- -- ----- -- ---- ------<br>--- ----- --- --- ------ -------- ----- --- ------ ----- --<br>these ----- ---------- --- --- ------ ------ ---- -- ------<br>------- --- ------ ----- --- ---- ------- -- ---- --- --<br>------- ------,1967476.7649999994,1967476.154999982,1966510.206,1966514.0699999756,1966526.878,1967493.657,,33,these
screen,html.Screen,1_1_1_1_34,2021-04-23T16:29:15.766Z,,,,,,,,,,,,,,,,54,,,,,,,,,,,,,,729.5929999810178,,response,,,,100,,,,,,,Space,keypress(Space),,,,,,,,-- --- ---- --- ------ ----- ------- ---- -- --- ------- --<br>------- ---------- ------ -- ----- -- ----- -- ---- ------<br>--- ----- --- --- ------ -------- ----- --- ------ ----- --<br>----- bonds ---------- --- --- ------ ------ ---- -- ------<br>------- --- ------ ----- --- ---- ------- -- ---- --- --<br>------- ------,1968223.639999982,1968223.249999981,1967476.873,1967477.114999987,1967493.657,1968226.852,,34,bonds
screen,html.Screen,1_1_1_1_35,2021-04-23T16:29:17.321Z,,,,,,,,,,,,,,,,54,,,,,,,,,,,,,,1551.5079999966547,,response,,,,100,,,,,,,Space,keypress(Space),,,,,,,,"-- --- ---- --- ------ ----- ------- ---- -- --- ------- --<br>------- ---------- ------ -- ----- -- ----- -- ---- ------<br>--- ----- --- --- ------ -------- ----- --- ------ ----- --<br>----- ----- plummeted, --- --- ------ ------ ---- -- ------<br>------- --- ------ ----- --- ---- ------- -- ---- --- --<br>------- ------",1969778.6899999774,1969778.3599999966,1968210.216,1968223.709999991,1968226.852,1969793.54,,35,"plummeted,"
screen,html.Screen,1_1_1_1_36,2021-04-23T16:29:17.840Z,,,,,,,,,,,,,,,,54,,,,,,,,,,,,,,504.344999978086,,response,,,,100,,,,,,,Space,keypress(Space),,,,,,,,-- --- ---- --- ------ ----- ------- ---- -- --- ------- --<br>------- ---------- ------ -- ----- -- ----- -- ---- ------<br>--- ----- --- --- ------ -------- ----- --- ------ ----- --<br>----- ----- ---------- and --- ------ ------ ---- -- ------<br>------- --- ------ ----- --- ---- ------- -- ---- --- --<br>------- ------,1970298.4849999775,1970297.8849999781,1969776.792,1969778.7549999775,1969793.54,1970310.232,,36,and
screen,html.Screen,1_1_1_1_37,2021-04-23T16:29:19.623Z,,,,,,,,,,,,,,,,54,,,,,,,,,,,,,,1770.2729999907315,,response,,,,100,,,,,,,Space,keypress(Space),,,,,,,,-- --- ---- --- ------ ----- ------- ---- -- --- ------- --<br>------- ---------- ------ -- ----- -- ----- -- ---- ------<br>--- ----- --- --- ------ -------- ----- --- ------ ----- --<br>----- ----- ---------- --- the ------ ------ ---- -- ------<br>------- --- ------ ----- --- ---- ------- -- ---- --- --<br>------- ------,1972080.9199999785,1972080.5049999908,1970293.514,1970298.5950000002,1970310.232,1972093.521,,37,the
screen,html.Screen,1_1_1_1_38,2021-04-23T16:29:20.662Z,,,,,,,,,,,,,,,,54,,,,,,,,,,,,,,1025.9389999872074,,response,,,,100,,,,,,,Space,keypress(Space),,,,,,,,-- --- ---- --- ------ ----- ------- ---- -- --- ------- --<br>------- ---------- ------ -- ----- -- ----- -- ---- ------<br>--- ----- --- --- ------ -------- ----- --- ------ ----- --<br>----- ----- ---------- --- --- market ------ ---- -- ------<br>------- --- ------ ----- --- ---- ------- -- ---- --- --<br>------- ------,1973119.7949999769,1973119.4599999872,1972076.828,1972080.9849999787,1972093.521,1973126.867,,38,market
screen,html.Screen,1_1_1_1_39,2021-04-23T16:29:21.509Z,,,,,,,,,,,,,,,,54,,,,,,,,,,,,,,839.7979999852832,,response,,,,100,,,,,,,Space,keypress(Space),,,,,,,,-- --- ---- --- ------ ----- ------- ---- -- --- ------- --<br>------- ---------- ------ -- ----- -- ----- -- ---- ------<br>--- ----- --- --- ------ -------- ----- --- ------ ----- --<br>----- ----- ---------- --- --- ------ became ---- -- ------<br>------- --- ------ ----- --- ---- ------- -- ---- --- --<br>------- ------,1973967.2299999802,1973966.6649999854,1973110.547,1973119.875000004,1973126.867,1973976.873,,39,became
screen,html.Screen,1_1_1_1_40,2021-04-23T16:29:22.354Z,,,,,,,,,,,,,,,,54,,,,,,,,,,,,,,834.9919999961276,,response,,,,100,,,,,,,Space,keypress(Space),,,,,,,,-- --- ---- --- ------ ----- ------- ---- -- --- ------- --<br>------- ---------- ------ -- ----- -- ----- -- ---- ------<br>--- ----- --- --- ------ -------- ----- --- ------ ----- --<br>----- ----- ---------- --- --- ------ ------ wary -- ------<br>------- --- ------ ----- --- ---- ------- -- ---- --- --<br>------- ------,1974812.2349999903,1974811.864999996,1973960.198,1973967.3699999985,1973976.873,1974826.901,,40,wary
screen,html.Screen,1_1_1_1_41,2021-04-23T16:29:22.961Z,,,,,,,,,,,,,,,,54,,,,,,,,,,,,,,591.5339999995194,,response,,,,100,,,,,,,Space,keypress(Space),,,,,,,,-- --- ---- --- ------ ----- ------- ---- -- --- ------- --<br>------- ---------- ------ -- ----- -- ----- -- ---- ------<br>--- ----- --- --- ------ -------- ----- --- ------ ----- --<br>----- ----- ---------- --- --- ------ ------ ---- of ------<br>------- --- ------ ----- --- ---- ------- -- ---- --- --<br>------- ------,1975419.0200000012,1975418.4349999996,1974810.208,1974812.2999999905,1974826.901,1975426.898,,41,of
screen,html.Screen,1_1_1_1_42,2021-04-23T16:29:23.618Z,,,,,,,,,,,,,,,,54,,,,,,,,,,,,,,648.951999993762,,response,,,,100,,,,,,,Space,keypress(Space),,,,,,,,-- --- ---- --- ------ ----- ------- ---- -- --- ------- --<br>------- ---------- ------ -- ----- -- ----- -- ---- ------<br>--- ----- --- --- ------ -------- ----- --- ------ ----- --<br>----- ----- ---------- --- --- ------ ------ ---- -- French<br>------- --- ------ ----- --- ---- ------- -- ---- --- --<br>------- ------,1976076.3949999819,1976075.8499999938,1975410.185,1975419.1649999993,1975426.898,1976110.204,,42,French
screen,html.Screen,1_1_1_1_43,2021-04-23T16:29:25.127Z,,,,,,,,,,,,,,,,54,,,,,,,,,,,,,,1473.8409999960568,,response,,,,100,,,,,,,Space,keypress(Space),,,,,,,,-- --- ---- --- ------ ----- ------- ---- -- --- ------- --<br>------- ---------- ------ -- ----- -- ----- -- ---- ------<br>--- ----- --- --- ------ -------- ----- --- ------ ----- --<br>----- ----- ---------- --- --- ------ ------ ---- -- ------<br>credit. --- ------ ----- --- ---- ------- -- ---- --- --<br>------- ------,1977584.600000002,1977584.044999996,1976100.357,1976076.53999998,1976110.204,1977593.549,,43,credit.
screen,html.Screen,1_1_1_1_44,2021-04-23T16:29:26.150Z,,,,,,,,,,,,,,,,54,,,,,,,,,,,,,,1014.245999988867,,response,,,,100,,,,,,,Space,keypress(Space),,,,,,,,-- --- ---- --- ------ ----- ------- ---- -- --- ------- --<br>------- ---------- ------ -- ----- -- ----- -- ---- ------<br>--- ----- --- --- ------ -------- ----- --- ------ ----- --<br>----- ----- ---------- --- --- ------ ------ ---- -- ------<br>------- The ------ ----- --- ---- ------- -- ---- --- --<br>------- ------,1978608.3649999928,1978607.794999989,1977576.843,1977584.7049999866,1977593.549,1978610.195,,44,The
screen,html.Screen,1_1_1_1_45,2021-04-23T16:29:27.285Z,,,,,,,,,,,,,,,,54,,,,,,,,,,,,,,1132.899999983376,,response,,,,100,,,,,,,Space,keypress(Space),,,,,,,,-- --- ---- --- ------ ----- ------- ---- -- --- ------- --<br>------- ---------- ------ -- ----- -- ----- -- ---- ------<br>--- ----- --- --- ------ -------- ----- --- ------ ----- --<br>----- ----- ---------- --- --- ------ ------ ---- -- ------<br>------- --- French ----- --- ---- ------- -- ---- --- --<br>------- ------,1979743.519999989,1979743.0949999834,1978593.533,1978608.4449999908,1978610.195,1979760.252,,45,French
screen,html.Screen,1_1_1_1_46,2021-04-23T16:29:28.193Z,,,,,,,,,,,,,,,,54,,,,,,,,,,,,,,890.0579999971669,,response,,,,100,,,,,,,Space,keypress(Space),,,,,,,,-- --- ---- --- ------ ----- ------- ---- -- --- ------- --<br>------- ---------- ------ -- ----- -- ----- -- ---- ------<br>--- ----- --- --- ------ -------- ----- --- ------ ----- --<br>----- ----- ---------- --- --- ------ ------ ---- -- ------<br>------- --- ------ state --- ---- ------- -- ---- --- --<br>------- ------,1980650.639999978,1980650.3099999973,1979743.695,1979743.7199999986,1979760.252,1980660.163,,46,state
screen,html.Screen,1_1_1_1_47,2021-04-23T16:29:29.151Z,,,,,,,,,,,,,,,,54,,,,,,,,,,,,,,948.2319999884348,,response,,,,100,,,,,,,Space,keypress(Space),,,,,,,,-- --- ---- --- ------ ----- ------- ---- -- --- ------- --<br>------- ---------- ------ -- ----- -- ----- -- ---- ------<br>--- ----- --- --- ------ -------- ----- --- ------ ----- --<br>----- ----- ---------- --- --- ------ ------ ---- -- ------<br>------- --- ------ ----- was ---- ------- -- ---- --- --<br>------- ------,1981608.8400000008,1981608.3949999884,1980643.529,1980650.7099999872,1980660.163,1981642.209,,47,was
screen,html.Screen,1_1_1_1_48,2021-04-23T16:29:29.774Z,,,,,,,,,,,,,,,,54,,,,,,,,,,,,,,589.2809999764431,,response,,,,100,,,,,,,Space,keypress(Space),,,,,,,,-- --- ---- --- ------ ----- ------- ---- -- --- ------- --<br>------- ---------- ------ -- ----- -- ----- -- ---- ------<br>--- ----- --- --- ------ -------- ----- --- ------ ----- --<br>----- ----- ---------- --- --- ------ ------ ---- -- ------<br>------- --- ------ ----- --- left ------- -- ---- --- --<br>------- ------,1982232.3399999877,1982231.4899999765,1981593.513,1981608.9499999944,1981642.209,1982243.52,,48,left
screen,html.Screen,1_1_1_1_49,2021-04-23T16:29:30.313Z,,,,,,,,,,,,,,,,54,,,,,,,,,,,,,,527.5349999901373,,response,,,,100,,,,,,,Space,keypress(Space),,,,,,,,-- --- ---- --- ------ ----- ------- ---- -- --- ------- --<br>------- ---------- ------ -- ----- -- ----- -- ---- ------<br>--- ----- --- --- ------ -------- ----- --- ------ ----- --<br>----- ----- ---------- --- --- ------ ------ ---- -- ------<br>------- --- ------ ----- --- ---- without -- ---- --- --<br>------- ------,1982771.4500000002,1982771.0549999902,1982226.84,1982232.4300000037,1982243.52,1982776.908,,49,without
screen,html.Screen,1_1_1_1_50,2021-04-23T16:29:30.761Z,,,,,,,,,,,,,,,,54,,,,,,,,,,,,,,441.54199998569675,,response,,,,100,,,,,,,Space,keypress(Space),,,,,,,,-- --- ---- --- ------ ----- ------- ---- -- --- ------- --<br>------- ---------- ------ -- ----- -- ----- -- ---- ------<br>--- ----- --- --- ------ -------- ----- --- ------ ----- --<br>----- ----- ---------- --- --- ------ ------ ---- -- ------<br>------- --- ------ ----- --- ---- ------- an ---- --- --<br>------- ------,1983218.8650000026,1983218.4499999858,1982760.175,1982771.5150000004,1982776.908,1983226.883,,50,an
screen,html.Screen,1_1_1_1_51,2021-04-23T16:29:31.315Z,,,,,,,,,,,,,,,,54,,,,,,,,,,,,,,545.9619999995921,,response,,,,100,,,,,,,Space,keypress(Space),,,,,,,,-- --- ---- --- ------ ----- ------- ---- -- --- ------- --<br>------- ---------- ------ -- ----- -- ----- -- ---- ------<br>--- ----- --- --- ------ -------- ----- --- ------ ----- --<br>----- ----- ---------- --- --- ------ ------ ---- -- ------<br>------- --- ------ ----- --- ---- ------- -- easy --- --<br>------- ------,1983773.3849999786,1983772.8449999995,1983210.212,1983218.9749999961,1983226.883,1983776.843,,51,easy
screen,html.Screen,1_1_1_1_52,2021-04-23T16:29:31.845Z,,,,,,,,,,,,,,,,54,,,,,,,,,,,,,,525.3969999898691,,response,,,,100,,,,,,,Space,keypress(Space),,,,,,,,-- --- ---- --- ------ ----- ------- ---- -- --- ------- --<br>------- ---------- ------ -- ----- -- ----- -- ---- ------<br>--- ----- --- --- ------ -------- ----- --- ------ ----- --<br>----- ----- ---------- --- --- ------ ------ ---- -- ------<br>------- --- ------ ----- --- ---- ------- -- ---- way --<br>------- ------,1984302.714999998,1984302.23999999,1983760.527,1983773.4999999811,1983776.843,1984310.2,,52,way
screen,html.Screen,1_1_1_1_53,2021-04-23T16:29:32.372Z,,,,,,,,,,,,,,,,54,,,,,,,,,,,,,,519.9349999965634,,response,,,,100,,,,,,,Space,keypress(Space),,,,,,,,-- --- ---- --- ------ ----- ------- ---- -- --- ------- --<br>------- ---------- ------ -- ----- -- ----- -- ---- ------<br>--- ----- --- --- ------ -------- ----- --- ------ ----- --<br>----- ----- ---------- --- --- ------ ------ ---- -- ------<br>------- --- ------ ----- --- ---- ------- -- ---- --- of<br>------- ------,1984830.5049999908,1984830.1349999965,1984293.544,1984302.8249999916,1984310.2,1984843.794,,53,of
screen,html.Screen,1_1_1_1_54,2021-04-23T16:29:32.877Z,,,,,,,,,,,,,,,,54,,,,,,,,,,,,,,491.1109999960754,,response,,,,100,,,,,,,Space,keypress(Space),,,,,,,,-- --- ---- --- ------ ----- ------- ---- -- --- ------- --<br>------- ---------- ------ -- ----- -- ----- -- ---- ------<br>--- ----- --- --- ------ -------- ----- --- ------ ----- --<br>----- ----- ---------- --- --- ------ ------ ---- -- ------<br>------- --- ------ ----- --- ---- ------- -- ---- --- --<br>raising ------,1985335.4249999975,1985334.904999996,1984826.905,1984830.569999991,1984843.794,1985343.528,,54,raising
screen,html.Screen,1_1_1_1_55,2021-04-23T16:29:33.426Z,,,,,,,,,,,,,,,,54,,,,,,,,,,,,,,539.9819999851752,,response,,,,100,,,,,,,Space,keypress(Space),,,,,,,,-- --- ---- --- ------ ----- ------- ---- -- --- ------- --<br>------- ---------- ------ -- ----- -- ----- -- ---- ------<br>--- ----- --- --- ------ -------- ----- --- ------ ----- --<br>----- ----- ---------- --- --- ------ ------ ---- -- ------<br>------- --- ------ ----- --- ---- ------- -- ---- --- --<br>------- money.,1985883.8549999928,1985883.509999985,1985326.889,1985335.534999991,1985343.528,1985893.503,,55,money.
Item 100,flow.Loop,1_1_1_1,2021-04-23T16:29:33.426Z,,,,,,,,,,,,,,,,,,,,,,,,,,,,,,61806.581999985036,,completion,,,,,E,,,,,,,,,,,silence,,,,,1985883.9699999953,1985883.509999985,1924060.249,1924060.9449999756,1924076.928,1985893.503,,,
Question 1,html.Screen,1_1_1_2,2021-04-23T16:29:39.029Z,,,,,,,,,,,,,,,,,,,,,,,,,,,true,TRUE,,5592.606999997981,,response,,,,100,E,,,,,,TRUE,click #choice-1,,,,silence,,,,,1991486.8699999934,1991486.109999998,1985876.862,1985884.0149999887,1985893.503,1991493.506,,,
Question 2,html.Screen,1_1_1_3,2021-04-23T16:29:42.265Z,,,,,,,,,,,,,,,,,,,,,,,,,,,true,FALSE,,3228.9139999763574,,response,,,,100,E,,,,,,FALSE,click #choice-2,,,,silence,,,,,1994723.2699999877,1994722.4199999764,1991476.896,1991486.9949999847,1991493.506,1994726.906,,,
Item 100,flow.Sequence,1_1_1,2021-04-23T16:29:42.265Z,,,,,,,,,,,,,,,,,,,,,,,,,,,,,,80645.48499997635,,completion,,,,,,,,,,,,,,,,,,,,,1994723.3849999902,1994722.4199999764,1914060.293,1914066.0799999896,1914076.935,1994726.906,,,
End of Practice,html.Page,1_1_2,2021-04-23T16:29:47.606Z,,,,,,,,,,,,,,,,,,,,,,,,,,,,,,5337.003999997163,,form submission,,,,,,,,,,,,,,,,,,,,,2000064.0949999797,2000063.9099999971,1994710.19,1994723.4299999836,1994726.906,2000076.869,,,
Practice,flow.Sequence,1_1,2021-04-23T16:29:47.606Z,,,,,,,,,,,,,,,,,,,,,,,,,,,,,,178053.69999999716,,completion,,,,,,,,,,,,,,,,,,,,,2000064.2649999936,2000063.9099999971,1821993.588,1822010.954999976,1822010.21,2000076.869,,,
Trap_instruction,html.Page,1_2_0,2021-04-23T16:30:07.076Z,,,,,,,,,,,,,,,,,,,,,,,,,,,,,,19457.085999991745,,form submission,,,,,,,,,,,,,,,,,,,,,2019534.1400000034,2019533.9549999917,2000060.626,2000064.3799999962,2000076.869,2019543.536,,,
trap_trial,html.Screen,1_2_1,2021-04-23T16:30:11.754Z,,,,,,,,,,,,,,,,,,,,,,,,,,,true,1,,4667.598999990383,,response,,,,,,,,,,,1,click #choice-1,,,,,,,,,2024211.6949999763,2024211.1349999905,2019526.862,2019534.244999988,2019543.536,2024226.859,,,
end of trap trial,html.Page,1_2_2,2021-04-23T16:30:14.205Z,,,,,,,,,,,,,,,,,,,,,,,,,,,,,,2435.8909999886528,,form submission,,,,,,,,,,,,,,,,,,,,,2026662.87,2026662.7499999886,2024210.21,2024211.7699999944,2024226.859,2026676.867,,,
Trap 1,flow.Sequence,1_2,2021-04-23T16:30:14.205Z,,,,,,,,,,,,,,,,,,,,,,,,,,,,,,26585.880999988643,,completion,,,,,,,,,,,,,,,,,,,,,2026662.954999978,2026662.7499999886,2000060.626,2000064.3449999916,2000076.869,2026676.867,,,
Standby,html.Page,1_3_0,2021-04-23T16:30:22.203Z,,,,,,,,,,,,,,,,,,,,,,,,,,,,,,7999.979999999981,,timeout,,,,,,,,,,,,,,,,,,,,,2034660.7049999875,2034660.216,2026660.552,2026663.0049999803,2026676.867,2034676.847,,,
Holding screen,html.Screen,1_3_1_0_0,2021-04-23T16:30:29.203Z,,,,,,,,,,,,,,,,,,,,,,,,,,,,,,7000.038999999873,,timeout,,,,,,,,,,,,,,,,,,,,,2041661.0149999906,2041660.239,2034660.216,2034660.7950000034,2034676.847,2041676.886,,,
screen,html.Screen,1_3_1_0_1_0,2021-04-23T16:30:30.518Z,,,,,,,,,,,,,,,,2,,,,,,,,,,,,,,1298.3489999908488,,response,,,,1,E,,,,,,Space,keypress(Space),,,,lyrical,,,,Two ---- ------ --- ------- ---------- ------- ----------<br>--- --------- --- ----------- ------- ----- ------- ---<br>--------- ---- -- --- ---- -- --------- -- ---- -------<br>-- --------- ------ --- ----- ------ ---- --- --------- --<br>------ - ---- -- --- ----------- ------- ---- ----- -----<br>--- -------- - ------ ---- -- ----- ---- --- --- -----------<br>-- -------,2042975.8299999812,2042975.2349999908,2041660.239,2041661.209999991,2041676.886,2042993.953,,0,Two
screen,html.Screen,1_3_1_0_1_1,2021-04-23T16:30:31.810Z,,,,,,,,,,,,,,,,2,,,,,,,,,,,,,,1273.2320000042673,,response,,,,1,E,,,,,,Space,keypress(Space),,,,lyrical,,,,--- days ------ --- ------- ---------- ------- ----------<br>--- --------- --- ----------- ------- ----- ------- ---<br>--------- ---- -- --- ---- -- --------- -- ---- -------<br>-- --------- ------ --- ----- ------ ---- --- --------- --<br>------ - ---- -- --- ----------- ------- ---- ----- -----<br>--- -------- - ------ ---- -- ----- ---- --- --- -----------<br>-- -------,2044267.7149999945,2044267.1850000042,2042960.294,2042975.8999999904,2042993.953,2044276.892,,1,days
screen,html.Screen,1_3_1_0_1_2,2021-04-23T16:30:33.231Z,,,,,,,,,,,,,,,,2,,,,,,,,,,,,,,1411.1930000016,,response,,,,1,E,,,,,,Space,keypress(Space),,,,lyrical,,,,"--- ---- later, --- ------- ---------- ------- ----------<br>--- --------- --- ----------- ------- ----- ------- ---<br>--------- ---- -- --- ---- -- --------- -- ---- -------<br>-- --------- ------ --- ----- ------ ---- --- --------- --<br>------ - ---- -- --- ----------- ------- ---- ----- -----<br>--- -------- - ------ ---- -- ----- ---- --- --- -----------<br>-- -------",2045688.5649999895,2045688.0850000016,2044260.174,2044267.824999988,2044276.892,2045693.487,,2,"later,"
screen,html.Screen,1_3_1_0_1_3,2021-04-23T16:30:33.841Z,,,,,,,,,,,,,,,,2,,,,,,,,,,,,,,604.8879999839701,,response,,,,1,E,,,,,,Space,keypress(Space),,,,lyrical,,,,--- ---- ------ the ------- ---------- ------- ----------<br>--- --------- --- ----------- ------- ----- ------- ---<br>--------- ---- -- --- ---- -- --------- -- ---- -------<br>-- --------- ------ --- ----- ------ ---- --- --------- --<br>------ - ---- -- --- ----------- ------- ---- ----- -----<br>--- -------- - ------ ---- -- ----- ---- --- --- -----------<br>-- -------,2046298.9649999945,2046298.374999984,2045677.049,2045688.674999983,2045693.487,2046310.216,,3,the
screen,html.Screen,1_3_1_0_1_4,2021-04-23T16:30:34.946Z,,,,,,,,,,,,,,,,2,,,,,,,,,,,,,,1093.0239999850746,,response,,,,1,E,,,,,,Space,keypress(Space),,,,lyrical,,,,--- ---- ------ --- British ---------- ------- ----------<br>--- --------- --- ----------- ------- ----- ------- ---<br>--------- ---- -- --- ---- -- --------- -- ---- -------<br>-- --------- ------ --- ----- ------ ---- --- --------- --<br>------ - ---- -- --- ----------- ------- ---- ----- -----<br>--- -------- - ------ ---- -- ----- ---- --- --- -----------<br>-- -------,2047403.5999999905,2047403.239999985,2046293.525,2046299.0449999925,2046310.216,2047410.178,,4,British
screen,html.Screen,1_3_1_0_1_5,2021-04-23T16:30:36.719Z,,,,,,,,,,,,,,,,2,,,,,,,,,,,,,,1765.9469999980647,,response,,,,1,E,,,,,,Space,keypress(Space),,,,lyrical,,,,--- ---- ------ --- ------- astronomer ------- ----------<br>--- --------- --- ----------- ------- ----- ------- ---<br>--------- ---- -- --- ---- -- --------- -- ---- -------<br>-- --------- ------ --- ----- ------ ---- --- --------- --<br>------ - ---- -- --- ----------- ------- ---- ----- -----<br>--- -------- - ------ ---- -- ----- ---- --- --- -----------<br>-- -------,2049176.4899999835,2049176.1249999981,2047393.516,2047403.6649999907,2047410.178,2049210.166,,5,astronomer
screen,html.Screen,1_3_1_0_1_6,2021-04-23T16:30:38.655Z,,,,,,,,,,,,,,,,2,,,,,,,,,,,,,,1902.5989999980666,,response,,,,1,E,,,,,,Space,keypress(Space),,,,lyrical,,,,--- ---- ------ --- ------- ---------- Richard ----------<br>--- --------- --- ----------- ------- ----- ------- ---<br>--------- ---- -- --- ---- -- --------- -- ---- -------<br>-- --------- ------ --- ----- ------ ---- --- --------- --<br>------ - ---- -- --- ----------- ------- ---- ----- -----<br>--- -------- - ------ ---- -- ----- ---- --- --- -----------<br>-- -------,2051113.234999997,2051112.764999998,2049200.458,2049176.604999986,2049210.166,2051126.906,,6,Richard
screen,html.Screen,1_3_1_0_1_7,2021-04-23T16:30:39.903Z,,,,,,,,,,,,,,,,2,,,,,,,,,,,,,,1233.4939999759663,,response,,,,1,E,,,,,,Space,keypress(Space),,,,lyrical,,,,--- ---- ------ --- ------- ---------- ------- Carrington<br>--- --------- --- ----------- ------- ----- ------- ---<br>--------- ---- -- --- ---- -- --------- -- ---- -------<br>-- --------- ------ --- ----- ------ ---- --- --------- --<br>------ - ---- -- --- ----------- ------- ---- ----- -----<br>--- -------- - ------ ---- -- ----- ---- --- --- -----------<br>-- -------,2052360.950000002,2052360.399999976,2051110.161,2051113.3049999771,2051126.906,2052377.024,,7,Carrington
screen,html.Screen,1_3_1_0_1_8,2021-04-23T16:30:40.906Z,,,,,,,,,,,,,,,,2,,,,,,,,,,,,,,986.8409999920987,,response,,,,1,E,,,,,,Space,keypress(Space),,,,lyrical,,,,--- ---- ------ --- ------- ---------- ------- ----------<br>was --------- --- ----------- ------- ----- ------- ---<br>--------- ---- -- --- ---- -- --------- -- ---- -------<br>-- --------- ------ --- ----- ------ ---- --- --------- --<br>------ - ---- -- --- ----------- ------- ---- ----- -----<br>--- -------- - ------ ---- -- ----- ---- --- --- -----------<br>-- -------,2053364.414999989,2053363.864999992,2052360.165,2052361.0549999867,2052377.024,2053376.854,,8,was
screen,html.Screen,1_3_1_0_1_9,2021-04-23T16:30:42.330Z,,,,,,,,,,,,,,,,2,,,,,,,,,,,,,,1410.7059999969788,,response,,,,1,E,,,,,,Space,keypress(Space),,,,lyrical,,,,--- ---- ------ --- ------- ---------- ------- ----------<br>--- observing --- ----------- ------- ----- ------- ---<br>--------- ---- -- --- ---- -- --------- -- ---- -------<br>-- --------- ------ --- ----- ------ ---- --- --------- --<br>------ - ---- -- --- ----------- ------- ---- ----- -----<br>--- -------- - ------ ---- -- ----- ---- --- --- -----------<br>-- -------,2054788.1549999875,2054787.559999997,2053360.163,2053364.5599999873,2053376.854,2054793.5,,9,observing
screen,html.Screen,1_3_1_0_1_10,2021-04-23T16:30:43.386Z,,,,,,,,,,,,,,,,2,,,,,,,,,,,,,,1050.779999990249,,response,,,,1,E,,,,,,Space,keypress(Space),,,,lyrical,,,,--- ---- ------ --- ------- ---------- ------- ----------<br>--- --------- the ----------- ------- ----- ------- ---<br>--------- ---- -- --- ---- -- --------- -- ---- -------<br>-- --------- ------ --- ----- ------ ---- --- --------- --<br>------ - ---- -- --- ----------- ------- ---- ----- -----<br>--- -------- - ------ ---- -- ----- ---- --- --- -----------<br>-- -------,2055844.6299999778,2055844.2799999902,2054776.843,2054788.2949999766,2054793.5,2055860.184,,10,the
screen,html.Screen,1_3_1_0_1_11,2021-04-23T16:30:45.005Z,,,,,,,,,,,,,,,,2,,,,,,,,,,,,,,1603.1859999832232,,response,,,,1,E,,,,,,Space,keypress(Space),,,,lyrical,,,,--- ---- ------ --- ------- ---------- ------- ----------<br>--- --------- --- interesting ------- ----- ------- ---<br>--------- ---- -- --- ---- -- --------- -- ---- -------<br>-- --------- ------ --- ----- ------ ---- --- --------- --<br>------ - ---- -- --- ----------- ------- ---- ----- -----<br>--- -------- - ------ ---- -- ----- ---- --- --- -----------<br>-- -------,2057463.8099999866,2057463.369999983,2055843.527,2055844.689999998,2055860.184,2057476.873,,11,interesting
screen,html.Screen,1_3_1_0_1_12,2021-04-23T16:30:46.124Z,,,,,,,,,,,,,,,,2,,,,,,,,,,,,,,1104.9669999990147,,response,,,,1,E,,,,,,Space,keypress(Space),,,,lyrical,,,,--- ---- ------ --- ------- ---------- ------- ----------<br>--- --------- --- ----------- sunspot ----- ------- ---<br>--------- ---- -- --- ---- -- --------- -- ---- -------<br>-- --------- ------ --- ----- ------ ---- --- --------- --<br>------ - ---- -- --- ----------- ------- ---- ----- -----<br>--- -------- - ------ ---- -- ----- ---- --- --- -----------<br>-- -------,2058582.29999998,2058581.839999999,2057460.172,2057463.9199999801,2057476.873,2058593.561,,12,sunspot
screen,html.Screen,1_3_1_0_1_13,2021-04-23T16:30:47.816Z,,,,,,,,,,,,,,,,2,,,,,,,,,,,,,,1680.6490000032354,,response,,,,1,E,,,,,,Space,keypress(Space),,,,lyrical,,,,--- ---- ------ --- ------- ---------- ------- ----------<br>--- --------- --- ----------- ------- group ------- ---<br>--------- ---- -- --- ---- -- --------- -- ---- -------<br>-- --------- ------ --- ----- ------ ---- --- --------- --<br>------ - ---- -- --- ----------- ------- ---- ----- -----<br>--- -------- - ------ ---- -- ----- ---- --- --- -----------<br>-- -------,2060274.5899999863,2060274.2100000032,2058576.816,2058582.4100000027,2058593.561,2060276.841,,13,group
screen,html.Screen,1_3_1_0_1_14,2021-04-23T16:30:48.510Z,,,,,,,,,,,,,,,,2,,,,,,,,,,,,,,690.898999992758,,response,,,,1,E,,,,,,Space,keypress(Space),,,,lyrical,,,,--- ---- ------ --- ------- ---------- ------- ----------<br>--- --------- --- ----------- ------- ----- through ---<br>--------- ---- -- --- ---- -- --------- -- ---- -------<br>-- --------- ------ --- ----- ------ ---- --- --------- --<br>------ - ---- -- --- ----------- ------- ---- ----- -----<br>--- -------- - ------ ---- -- ----- ---- --- --- -----------<br>-- -------,2060968.280000001,2060967.7399999928,2060260.153,2060274.6599999955,2060276.841,2060976.887,,14,through
screen,html.Screen,1_3_1_0_1_15,2021-04-23T16:30:49.153Z,,,,,,,,,,,,,,,,2,,,,,,,,,,,,,,633.6329999873415,,response,,,,1,E,,,,,,Space,keypress(Space),,,,lyrical,,,,--- ---- ------ --- ------- ---------- ------- ----------<br>--- --------- --- ----------- ------- ----- ------- his<br>--------- ---- -- --- ---- -- --------- -- ---- -------<br>-- --------- ------ --- ----- ------ ---- --- --------- --<br>------ - ---- -- --- ----------- ------- ---- ----- -----<br>--- -------- - ------ ---- -- ----- ---- --- --- -----------<br>-- -------,2061610.9599999909,2061610.5199999874,2060960.404,2060968.3899999945,2060976.887,2061626.861,,15,his
screen,html.Screen,1_3_1_0_1_16,2021-04-23T16:30:50.937Z,,,,,,,,,,,,,,,,2,,,,,,,,,,,,,,1768.6089999885298,,response,,,,1,E,,,,,,Space,keypress(Space),,,,lyrical,,,,--- ---- ------ --- ------- ---------- ------- ----------<br>--- --------- --- ----------- ------- ----- ------- ---<br>telescope ---- -- --- ---- -- --------- -- ---- -------<br>-- --------- ------ --- ----- ------ ---- --- --------- --<br>------ - ---- -- --- ----------- ------- ---- ----- -----<br>--- -------- - ------ ---- -- ----- ---- --- --- -----------<br>-- -------,2063395.8599999896,2063395.4699999886,2061610.188,2061611.0699999845,2061626.861,2063410.196,,16,telescope
screen,html.Screen,1_3_1_0_1_17,2021-04-23T16:30:51.705Z,,,,,,,,,,,,,,,,2,,,,,,,,,,,,,,752.9489999986254,,response,,,,1,E,,,,,,Space,keypress(Space),,,,lyrical,,,,--- ---- ------ --- ------- ---------- ------- ----------<br>--- --------- --- ----------- ------- ----- ------- ---<br>--------- when -- --- ---- -- --------- -- ---- -------<br>-- --------- ------ --- ----- ------ ---- --- --------- --<br>------ - ---- -- --- ----------- ------- ---- ----- -----<br>--- -------- - ------ ---- -- ----- ---- --- --- -----------<br>-- -------,2064163.579999993,2064163.1449999986,2063393.499,2063395.9199999808,2063410.196,2064176.874,,17,when
screen,html.Screen,1_3_1_0_1_18,2021-04-23T16:30:52.349Z,,,,,,,,,,,,,,,,2,,,,,,,,,,,,,,629.6509999926202,,response,,,,1,E,,,,,,Space,keypress(Space),,,,lyrical,,,,--- ---- ------ --- ------- ---------- ------- ----------<br>--- --------- --- ----------- ------- ----- ------- ---<br>--------- ---- he --- ---- -- --------- -- ---- -------<br>-- --------- ------ --- ----- ------ ---- --- --------- --<br>------ - ---- -- --- ----------- ------- ---- ----- -----<br>--- -------- - ------ ---- -- ----- ---- --- --- -----------<br>-- -------,2064806.9049999758,2064806.5249999927,2064160.181,2064163.6949999956,2064176.874,2064810.16,,18,he
screen,html.Screen,1_3_1_0_1_19,2021-04-23T16:30:53.014Z,,,,,,,,,,,,,,,,2,,,,,,,,,,,,,,661.7499999930151,,response,,,,1,E,,,,,,Space,keypress(Space),,,,lyrical,,,,--- ---- ------ --- ------- ---------- ------- ----------<br>--- --------- --- ----------- ------- ----- ------- ---<br>--------- ---- -- saw ---- -- --------- -- ---- -------<br>-- --------- ------ --- ----- ------ ---- --- --------- --<br>------ - ---- -- --- ----------- ------- ---- ----- -----<br>--- -------- - ------ ---- -- ----- ---- --- --- -----------<br>-- -------,2065472.2749999783,2065471.909999993,2064793.494,2064806.9899999828,2064810.16,2065476.84,,19,saw
screen,html.Screen,1_3_1_0_1_20,2021-04-23T16:30:53.854Z,,,,,,,,,,,,,,,,2,,,,,,,,,,,,,,835.3349999990314,,response,,,,1,E,,,,,,Space,keypress(Space),,,,lyrical,,,,--- ---- ------ --- ------- ---------- ------- ----------<br>--- --------- --- ----------- ------- ----- ------- ---<br>--------- ---- -- --- what -- --------- -- ---- -------<br>-- --------- ------ --- ----- ------ ---- --- --------- --<br>------ - ---- -- --- ----------- ------- ---- ----- -----<br>--- -------- - ------ ---- -- ----- ---- --- --- -----------<br>-- -------,2066312.5849999778,2066312.174999999,2065460.167,2065472.3399999784,2065476.84,2066326.905,,20,what
screen,html.Screen,1_3_1_0_1_21,2021-04-23T16:30:54.492Z,,,,,,,,,,,,,,,,2,,,,,,,,,,,,,,622.6599999880418,,response,,,,1,E,,,,,,Space,keypress(Space),,,,lyrical,,,,--- ---- ------ --- ------- ---------- ------- ----------<br>--- --------- --- ----------- ------- ----- ------- ---<br>--------- ---- -- --- ---- he --------- -- ---- -------<br>-- --------- ------ --- ----- ------ ---- --- --------- --<br>------ - ---- -- --- ----------- ------- ---- ----- -----<br>--- -------- - ------ ---- -- ----- ---- --- --- -----------<br>-- -------,2066949.9450000003,2066949.564999988,2066310.191,2066312.649999978,2066326.905,2066960.205,,21,he
screen,html.Screen,1_3_1_0_1_22,2021-04-23T16:30:55.282Z,,,,,,,,,,,,,,,,2,,,,,,,,,,,,,,780.0899999958929,,response,,,,1,E,,,,,,Space,keypress(Space),,,,lyrical,,,,--- ---- ------ --- ------- ---------- ------- ----------<br>--- --------- --- ----------- ------- ----- ------- ---<br>--------- ---- -- --- ---- -- described -- ---- -------<br>-- --------- ------ --- ----- ------ ---- --- --------- --<br>------ - ---- -- --- ----------- ------- ---- ----- -----<br>--- -------- - ------ ---- -- ----- ---- --- --- -----------<br>-- -------,2067740.8849999774,2067740.294999996,2066943.49,2066950.0549999939,2066960.205,2067743.509,,22,described
screen,html.Screen,1_3_1_0_1_23,2021-04-23T16:30:56.099Z,,,,,,,,,,,,,,,,2,,,,,,,,,,,,,,812.8359999898821,,response,,,,1,E,,,,,,Space,keypress(Space),,,,lyrical,,,,--- ---- ------ --- ------- ---------- ------- ----------<br>--- --------- --- ----------- ------- ----- ------- ---<br>--------- ---- -- --- ---- -- --------- as ---- -------<br>-- --------- ------ --- ----- ------ ---- --- --------- --<br>------ - ---- -- --- ----------- ------- ---- ----- -----<br>--- -------- - ------ ---- -- ----- ---- --- --- -----------<br>-- -------,2068556.9499999983,2068556.34499999,2067726.841,2067741.0249999957,2067743.509,2068560.183,,23,as
screen,html.Screen,1_3_1_0_1_24,2021-04-23T16:30:56.721Z,,,,,,,,,,,,,,,,2,,,,,,,,,,,,,,618.921999988379,,response,,,,1,E,,,,,,Space,keypress(Space),,,,lyrical,,,,"--- ---- ------ --- ------- ---------- ------- ----------<br>--- --------- --- ----------- ------- ----- ------- ---<br>--------- ---- -- --- ---- -- --------- -- ""two -------<br>-- --------- ------ --- ----- ------ ---- --- --------- --<br>------ - ---- -- --- ----------- ------- ---- ----- -----<br>--- -------- - ------ ---- -- ----- ---- --- --- -----------<br>-- -------",2069179.4749999826,2069179.1049999883,2068543.557,2068557.059999992,2068560.183,2069193.562,,24,"""two"
screen,html.Screen,1_3_1_0_1_25,2021-04-23T16:30:57.534Z,,,,,,,,,,,,,,,,2,,,,,,,,,,,,,,797.9729999792762,,response,,,,1,E,,,,,,Space,keypress(Space),,,,lyrical,,,,--- ---- ------ --- ------- ---------- ------- ----------<br>--- --------- --- ----------- ------- ----- ------- ---<br>--------- ---- -- --- ---- -- --------- -- ---- patches<br>-- --------- ------ --- ----- ------ ---- --- --------- --<br>------ - ---- -- --- ----------- ------- ---- ----- -----<br>--- -------- - ------ ---- -- ----- ---- --- --- -----------<br>-- -------,2069992.1399999876,2069991.5349999792,2069176.887,2069179.5449999918,2069193.562,2069993.53,,25,patches
screen,html.Screen,1_3_1_0_1_26,2021-04-23T16:30:58.825Z,,,,,,,,,,,,,,,,2,,,,,,,,,,,,,,1288.9199999987613,,response,,,,1,E,,,,,,Space,keypress(Space),,,,lyrical,,,,--- ---- ------ --- ------- ---------- ------- ----------<br>--- --------- --- ----------- ------- ----- ------- ---<br>--------- ---- -- --- ---- -- --------- -- ---- -------<br>of --------- ------ --- ----- ------ ---- --- --------- --<br>------ - ---- -- --- ----------- ------- ---- ----- -----<br>--- -------- - ------ ---- -- ----- ---- --- --- -----------<br>-- -------,2071282.905,2071282.4499999988,2069976.851,2069992.2849999857,2069993.53,2071293.538,,26,of
screen,html.Screen,1_3_1_0_1_27,2021-04-23T16:30:59.811Z,,,,,,,,,,,,,,,,2,,,,,,,,,,,,,,975.5770000028424,,response,,,,1,E,,,,,,Space,keypress(Space),,,,lyrical,,,,--- ---- ------ --- ------- ---------- ------- ----------<br>--- --------- --- ----------- ------- ----- ------- ---<br>--------- ---- -- --- ---- -- --------- -- ---- -------<br>-- intensely ------ --- ----- ------ ---- --- --------- --<br>------ - ---- -- --- ----------- ------- ---- ----- -----<br>--- -------- - ------ ---- -- ----- ---- --- --- -----------<br>-- -------,2072269.7349999798,2072269.1150000028,2071276.855,2071283.0149999936,2071293.538,2072276.861,,27,intensely
screen,html.Screen,1_3_1_0_1_28,2021-04-23T16:31:00.687Z,,,,,,,,,,,,,,,,2,,,,,,,,,,,,,,868.6339999751654,,response,,,,1,E,,,,,,Space,keypress(Space),,,,lyrical,,,,--- ---- ------ --- ------- ---------- ------- ----------<br>--- --------- --- ----------- ------- ----- ------- ---<br>--------- ---- -- --- ---- -- --------- -- ---- -------<br>-- --------- bright --- ----- ------ ---- --- --------- --<br>------ - ---- -- --- ----------- ------- ---- ----- -----<br>--- -------- - ------ ---- -- ----- ---- --- --- -----------<br>-- -------,2073145.8849999763,2073145.4949999752,2072260.175,2072269.804999989,2072276.861,2073160.178,,28,bright
screen,html.Screen,1_3_1_0_1_29,2021-04-23T16:31:01.661Z,,,,,,,,,,,,,,,,2,,,,,,,,,,,,,,959.03199997521,,response,,,,1,E,,,,,,Space,keypress(Space),,,,lyrical,,,,--- ---- ------ --- ------- ---------- ------- ----------<br>--- --------- --- ----------- ------- ----- ------- ---<br>--------- ---- -- --- ---- -- --------- -- ---- -------<br>-- --------- ------ and ----- ------ ---- --- --------- --<br>------ - ---- -- --- ----------- ------- ---- ----- -----<br>--- -------- - ------ ---- -- ----- ---- --- --- -----------<br>-- -------,2074119.6749999945,2074119.2099999753,2073143.53,2073145.984999981,2073160.178,2074126.892,,29,and
screen,html.Screen,1_3_1_0_1_30,2021-04-23T16:31:02.677Z,,,,,,,,,,,,,,,,2,,,,,,,,,,,,,,1008.5129999790806,,response,,,,1,E,,,,,,Space,keypress(Space),,,,lyrical,,,,--- ---- ------ --- ------- ---------- ------- ----------<br>--- --------- --- ----------- ------- ----- ------- ---<br>--------- ---- -- --- ---- -- --------- -- ---- -------<br>-- --------- ------ --- white ------ ---- --- --------- --<br>------ - ---- -- --- ----------- ------- ---- ----- -----<br>--- -------- - ------ ---- -- ----- ---- --- --- -----------<br>-- -------,2075135.7649999845,2075135.404999979,2074110.185,2074119.784999988,2074126.892,2075143.558,,30,white
screen,html.Screen,1_3_1_0_1_31,2021-04-23T16:31:03.741Z,,,,,,,,,,,,,,,,2,,,,,,,,,,,,,,1055.6069999982137,,response,,,,1,E,,,,,,Space,keypress(Space),,,,lyrical,,,,"--- ---- ------ --- ------- ---------- ------- ----------<br>--- --------- --- ----------- ------- ----- ------- ---<br>--------- ---- -- --- ---- -- --------- -- ---- -------<br>-- --------- ------ --- ----- light"" ---- --- --------- --<br>------ - ---- -- --- ----------- ------- ---- ----- -----<br>--- -------- - ------ ---- -- ----- ---- --- --- -----------<br>-- -------",2076199.569999997,2076199.1649999982,2075126.808,2075135.8349999937,2075143.558,2076210.174,,31,"light"""
screen,html.Screen,1_3_1_0_1_32,2021-04-23T16:31:04.619Z,,,,,,,,,,,,,,,,2,,,,,,,,,,,,,,866.1909999861382,,response,,,,1,E,,,,,,Space,keypress(Space),,,,lyrical,,,,--- ---- ------ --- ------- ---------- ------- ----------<br>--- --------- --- ----------- ------- ----- ------- ---<br>--------- ---- -- --- ---- -- --------- -- ---- -------<br>-- --------- ------ --- ----- ------ over --- --------- --<br>------ - ---- -- --- ----------- ------- ---- ----- -----<br>--- -------- - ------ ---- -- ----- ---- --- --- -----------<br>-- -------,2077077.019999997,2077076.3649999863,2076193.524,2076199.6349999972,2076210.174,2077093.52,,32,over
screen,html.Screen,1_3_1_0_1_33,2021-04-23T16:31:05.368Z,,,,,,,,,,,,,,,,2,,,,,,,,,,,,,,732.4049999827985,,response,,,,1,E,,,,,,Space,keypress(Space),,,,lyrical,,,,--- ---- ------ --- ------- ---------- ------- ----------<br>--- --------- --- ----------- ------- ----- ------- ---<br>--------- ---- -- --- ---- -- --------- -- ---- -------<br>-- --------- ------ --- ----- ------ ---- the --------- --<br>------ - ---- -- --- ----------- ------- ---- ----- -----<br>--- -------- - ------ ---- -- ----- ---- --- --- -----------<br>-- -------,2077826.304999995,2077825.9249999828,2077076.871,2077077.1449999884,2077093.52,2077844.967,,33,the
screen,html.Screen,1_3_1_0_1_34,2021-04-23T16:31:08.556Z,,,,,,,,,,,,,,,,2,,,,,,,,,,,,,,3168.927999981912,,response,,,,1,E,,,,,,Space,keypress(Space),,,,lyrical,,,,--- ---- ------ --- ------- ---------- ------- ----------<br>--- --------- --- ----------- ------- ----- ------- ---<br>--------- ---- -- --- ---- -- --------- -- ---- -------<br>-- --------- ------ --- ----- ------ ---- --- sunspots. --<br>------ - ---- -- --- ----------- ------- ---- ----- -----<br>--- -------- - ------ ---- -- ----- ---- --- --- -----------<br>-- -------,2081014.4949999813,2081013.8949999819,2077810.187,2077826.390000002,2077844.967,2081026.864,,34,sunspots.
screen,html.Screen,1_3_1_0_1_35,2021-04-23T16:31:09.121Z,,,,,,,,,,,,,,,,2,,,,,,,,,,,,,,552.1060000022408,,response,,,,1,E,,,,,,Space,keypress(Space),,,,lyrical,,,,--- ---- ------ --- ------- ---------- ------- ----------<br>--- --------- --- ----------- ------- ----- ------- ---<br>--------- ---- -- --- ---- -- --------- -- ---- -------<br>-- --------- ------ --- ----- ------ ---- --- --------- He<br>------ - ---- -- --- ----------- ------- ---- ----- -----<br>--- -------- - ------ ---- -- ----- ---- --- --- -----------<br>-- -------,2081579.3449999765,2081578.9700000023,2081010.077,2081014.6149999928,2081026.864,2081593.545,,35,He
