sender,sender_type,sender_id,timestamp,meta,,Blues,Classical,Country,Dance,Electronic,Folk,Gospel,Hip-Hop,Jazz,Latin,Musical/Film,New-age,Pop,Provo_ID,R&B,Rap,Reggae,Religious,Rock,Soul,Swing,Traditional,age,artist_name,correct,correctResponse,distraction,duration,education,ended_on,familiarity,gender,headphone_check_performance,item,list,music_frequency,offensiveness,pleasantness,position_correct,preference,response,response_action,snippet_file,song_name,song_rating,sound,stimulus_1,stimulus_2,stimulus_3,text,time_commit,time_end,time_render,time_run,time_show,time_switch,url,word,word_ID
Introduction,html.Screen,0_0,2021-04-19T09:24:00.099Z,"{""labjs_version"":""20.2.2"",""labjs_build"":{""flavor"":""production"",""commit"":""a25486e0c714a0ae2ce03ff94b7bb6896854dcfa""},""location"":""https://run.pavlovia.org/mvasilev/music_e/"",""userAgent"":""Mozilla/5.0 (Windows NT 10.0; Win64; x64) AppleWebKit/537.36 (KHTML, like Gecko) Chrome/89.0.4389.128 Safari/537.36"",""platform"":""Win32"",""language"":""en-US"",""locale"":""en-US"",""timeZone"":""Europe/London"",""timezoneOffset"":-60,""screen_width"":1280,""screen_height"":720,""scroll_width"":1280,""scroll_height"":562,""window_innerWidth"":1280,""window_innerHeight"":610,""devicePixelRatio"":1.5}",,,,,,,,,,,,,,,,,,,,,,,,,,,,,5813.917000016149,,response,,,,,,,,,,,continue,click button,,,,,,,,,11787.440000014612,11784.71500001615,5937.635,5945.0700000161305,5970.798,11802.394,{},,
Volume calibration,html.Screen,0_1,2021-04-19T09:26:16.570Z,,,,,,,,,,,,,,,,,,,,,,,,,,,,,,136445.35600000955,,response,,,,,,,,,,,continue,click button,,,,,,,,,148253.04000001051,148247.75000000955,11785.797,11787.835000024643,11802.394,148262.944,,,
Task instructions,html.Screen,0_2,2021-04-19T09:26:23.790Z,,,,,,,,,,,,,,,,,,,,,,,,,,,,,,7208.4060000070895,,response,,,,,,,,,,,continue,click button,,,,,,,,,155472.6050000172,155471.35000000708,148246.556,148253.60000002547,148262.944,155477.491,,,
Sounds,html.Screen,0_3_0_0,2021-04-19T09:26:28.031Z,,,,,,,,,,,,,,,,,,,,,,,,,,,,,,4248.769,,timeout,,,,,,,,,2,,,,,,,,I,S,O,,159714.10000001197,159709.979,155460.882,155473.0050000071,155477.491,159726.26,,,
Judgement,html.Screen,0_3_0_1,2021-04-19T09:26:30.098Z,,,,,,,,,,,,,,,,,,,,,,,,,,,true,2,,2052.9500000078697,,response,,,,,,,,,2,,2,click #choice-2,,,,,I,S,O,,161780.92499999912,161779.21000000788,159709.979,159714.40000002622,159726.26,161792.397,,,
Trial,flow.Sequence,0_3_0,2021-04-19T09:26:30.098Z,,,,,,,,,,,,,,,,,,,,,,,,,,,,,,6301.71900000787,,completion,,,,,,,,,2,,,,,,,,I,S,O,,161781.42500002286,161779.21000000788,155460.882,155472.9150000203,155477.491,161792.397,,,
Sounds,html.Screen,0_3_1_0,2021-04-19T09:26:34.342Z,,,,,,,,,,,,,,,,,,,,,,,,,,,,,,4248.739999999991,,timeout,,,,,,,,,1,,,,,,,,S,I,O,,166025.5200000247,166024.626,161775.944,161781.64000000106,161792.397,166041.137,,,
Judgement,html.Screen,0_3_1_1,2021-04-19T09:26:35.692Z,,,,,,,,,,,,,,,,,,,,,,,,,,,true,1,,1332.1830000133486,,response,,,,,,,,,1,,1,click #choice-1,,,,,S,I,O,,167374.75000001723,167373.32000001334,166024.626,166025.72500001406,166041.137,167407.793,,,
Trial,flow.Sequence,0_3_1,2021-04-19T09:26:35.692Z,,,,,,,,,,,,,,,,,,,,,,,,,,,,,,5580.923000013339,,completion,,,,,,,,,1,,,,,,,,S,I,O,,167375.0600000203,167373.32000001334,161775.944,161781.58500001882,161792.397,167407.793,,,
Sounds,html.Screen,0_3_2_0,2021-04-19T09:26:39.958Z,,,,,,,,,,,,,,,,,,,,,,,,,,,,,,4248.570999999996,,timeout,,,,,,,,,1,,,,,,,,S,O,I,,171640.7650000183,171639.86,167391.166,167375.27000001865,167407.793,171656.364,,,
Judgement,html.Screen,0_3_2_1,2021-04-19T09:26:41.643Z,,,,,,,,,,,,,,,,,,,,,,,,,,,true,1,,1668.5660000024945,,response,,,,,,,,,1,,1,click #choice-1,,,,,S,O,I,,173326.30500002415,173324.9300000025,171639.86,171640.97500001662,171656.364,173339.022,,,
Trial,flow.Sequence,0_3_2,2021-04-19T09:26:41.644Z,,,,,,,,,,,,,,,,,,,,,,,,,,,,,,5917.137000002491,,completion,,,,,,,,,1,,,,,,,,S,O,I,,173326.58000002266,173324.9300000025,167391.166,167375.20999999833,167407.793,173339.022,,,
Sounds,html.Screen,0_3_3_0,2021-04-19T09:26:45.890Z,,,,,,,,,,,,,,,,,,,,,,,,,,,,,,4248.781000000017,,timeout,,,,,,,,,3,,,,,,,,I,O,S,,177572.88000002154,177571.282,173322.379,173326.76500000525,173339.022,177587.803,,,
Judgement,html.Screen,0_3_3_1,2021-04-19T09:26:46.517Z,,,,,,,,,,,,,,,,,,,,,,,,,,,true,3,,610.5420000115992,,response,,,,,,,,,3,,3,click #choice-3,,,,,I,O,S,,178199.64000000618,178198.3450000116,177571.282,177573.0700000131,177587.803,178204.255,,,
Trial,flow.Sequence,0_3_3,2021-04-19T09:26:46.517Z,,,,,,,,,,,,,,,,,,,,,,,,,,,,,,4859.323000011616,,completion,,,,,,,,,3,,,,,,,,I,O,S,,178199.9000000069,178198.3450000116,173322.379,173326.70000000508,173339.022,178204.255,,,
Sounds,html.Screen,0_3_4_0,2021-04-19T09:26:50.755Z,,,,,,,,,,,,,,,,,,,,,,,,,,,,,,4248.823999999993,,timeout,,,,,,,,,3,,,,,,,,O,I,S,,182437.6700000139,182436.596,178187.553,178200.0700000208,178204.255,182453.079,,,
Judgement,html.Screen,0_3_4_1,2021-04-19T09:26:51.440Z,,,,,,,,,,,,,,,,,,,,,,,,,,,true,3,,668.7710000250081,,response,,,,,,,,,3,,3,click #choice-3,,,,,O,I,S,,183123.18000002415,183121.850000025,182436.596,182437.8550000256,182453.079,183136.281,,,
Trial,flow.Sequence,0_3_4,2021-04-19T09:26:51.440Z,,,,,,,,,,,,,,,,,,,,,,,,,,,,,,4917.595000025001,,completion,,,,,,,,,3,,,,,,,,O,I,S,,183123.4350000159,183121.850000025,178187.553,178200.0200000184,178204.255,183136.281,,,
Sounds,html.Screen,0_3_5_0,2021-04-19T09:26:55.687Z,,,,,,,,,,,,,,,,,,,,,,,,,,,,,,4248.88400000002,,timeout,,,,,,,,,2,,,,,,,,O,S,I,,187369.6250000212,187368.518,183119.548,183123.60500000068,183136.281,187385.165,,,
Judgement,html.Screen,0_3_5_1,2021-04-19T09:26:56.947Z,,,,,,,,,,,,,,,,,,,,,,,,,,,true,2,,1243.445000014297,,response,,,,,,,,,2,,2,click #choice-2,,,,,O,S,I,,188629.92500001565,188628.6100000143,187368.518,187369.80000001495,187385.165,188634.496,,,
Trial,flow.Sequence,0_3_5,2021-04-19T09:26:56.947Z,,,,,,,,,,,,,,,,,,,,,,,,,,,,,,5492.329000014317,,completion,,,,,,,,,2,,,,,,,,O,S,I,,188630.17499999842,188628.6100000143,183119.548,183123.56000000727,183136.281,188634.496,,,
Task,flow.Loop,0_3,2021-04-19T09:26:56.954Z,,,,,,,,,,,,,,,,,,,,,,,,,,,,,,33151.119000014296,,completion,,,1,,,,,,,,,,,,,,,,,,188636.63500000257,188628.6100000143,155460.882,155472.84000000218,155477.491,188634.496,,,
Trap,html.Screen,0_4,2021-04-19T09:26:56.956Z,,,,,,,,,,,,,,,,,,,,,,,,,,,,,,NaN,,skipped,,,,,,,,,,,,,,,,,,,,,188638.42500001192,188628.6100000143,,188638.18999999785,,188634.496,,,
Thanks,html.Screen,0_5,2021-04-19T09:26:59.920Z,,,,,,,,,,,,,,,,,,,,,,,,,,,,,,2966.919000011898,,response,,,,,,,,,,,continue,click button,,,,,,,,,191602.7850000246,191601.4150000119,188617.918,188638.810000004,188634.496,196948.733,,,
Headphone screening,flow.Sequence,0,2021-04-19T09:26:59.920Z,,,,,,,,,,,,,,,,,,,,,,,,,,,,,,185630.6170000119,,completion,,,,,,,,,,,,,,,,,,,,,191603.10000000754,191601.4150000119,5937.635,5945.045000000391,5970.798,196948.733,,,
Instructions,html.Page,1_0,2021-04-19T09:27:23.300Z,,,,,,,,,,,,,,,,,,,,,,,,,,,,,,18033.03200000408,,form submission,,,,,,,,,,,,,,,,,,,,,214982.60500002652,214981.7650000041,196932.168,196934.80500002624,196948.733,214993.527,,,
Holding screen,html.Screen,1_1_0_0,2021-04-19T09:27:33.292Z,,,,,,,,,,,,,,,,,,,,,,,,,,,,,,9997.119999999995,,timeout,,,,,,,,,,,,,,,,,,,,,224975.33500002464,224974.359,214977.158,214982.89000001387,214993.527,224990.647,,,
screen,html.Screen,1_1_0_1_0,2021-04-19T09:27:34.965Z,,,,,,,,,,,,,,,,53,,,,,,,,,,,,,,1653.1730000266107,,response,,,,99,,,,,,,Space,keypress(Space),,,,,,,,When -- ----- -- ------ - ------- --- ----------<br>------------- ------ ------ ---- ---- ------- ----- -- ----<br>-------- ------- -- ---------- --- - --- ----- ----- ----<br>---- --- --- ----- --- ---- ---- ------- ----- ---- -------<br>--- --- -- ----- -- --- ---- -- --- ---- -- ------ ------<br>--- ----- -- ----,226647.57500000997,226643.8200000266,224974.359,224975.61000002315,224990.647,226657.038,,0,When
screen,html.Screen,1_1_0_1_1,2021-04-19T09:27:35.766Z,,,,,,,,,,,,,,,,53,,,,,,,,,,,,,,790.5520000252291,,response,,,,99,,,,,,,Space,keypress(Space),,,,,,,,---- it ----- -- ------ - ------- --- ----------<br>------------- ------ ------ ---- ---- ------- ----- -- ----<br>-------- ------- -- ---------- --- - --- ----- ----- ----<br>---- --- --- ----- --- ---- ---- ------- ----- ---- -------<br>--- --- -- ----- -- --- ---- -- --- ---- -- ------ ------<br>--- ----- -- ----,227448.6250000191,227447.59000002523,226640.329,226647.7850000083,226657.038,227456.765,,1,it
screen,html.Screen,1_1_0_1_2,2021-04-19T09:27:36.323Z,,,,,,,,,,,,,,,,53,,,,,,,,,,,,,,548.5950000101002,,response,,,,99,,,,,,,Space,keypress(Space),,,,,,,,---- -- comes -- ------ - ------- --- ----------<br>------------- ------ ------ ---- ---- ------- ----- -- ----<br>-------- ------- -- ---------- --- - --- ----- ----- ----<br>---- --- --- ----- --- ---- ---- ------- ----- ---- -------<br>--- --- -- ----- -- --- ---- -- --- ---- -- ------ ------<br>--- ----- -- ----,228006.21500000125,228005.3600000101,227440.337,227448.79500000388,227456.765,228040.191,,2,comes
screen,html.Screen,1_1_0_1_3,2021-04-19T09:27:36.754Z,,,,,,,,,,,,,,,,53,,,,,,,,,,,,,,395.419000015012,,response,,,,99,,,,,,,Space,keypress(Space),,,,,,,,---- -- ----- to ------ - ------- --- ----------<br>------------- ------ ------ ---- ---- ------- ----- -- ----<br>-------- ------- -- ---------- --- - --- ----- ----- ----<br>---- --- --- ----- --- ---- ---- ------- ----- ---- -------<br>--- --- -- ----- -- --- ---- -- --- ---- -- ------ ------<br>--- ----- -- ----,228436.56000000192,228435.610000015,228023.529,228006.38500001514,228040.191,228439.666,,3,to
screen,html.Screen,1_1_0_1_4,2021-04-19T09:27:37.174Z,,,,,,,,,,,,,,,,53,,,,,,,,,,,,,,416.1389999992389,,response,,,,99,,,,,,,Space,keypress(Space),,,,,,,,---- -- ----- -- having - ------- --- ----------<br>------------- ------ ------ ---- ---- ------- ----- -- ----<br>-------- ------- -- ---------- --- - --- ----- ----- ----<br>---- --- --- ----- --- ---- ---- ------- ----- ---- -------<br>--- --- -- ----- -- --- ---- -- --- ---- -- ------ ------<br>--- ----- -- ----,228857.06000000937,228855.80499999924,228423.469,228436.73500002478,228439.666,228873.083,,4,having
screen,html.Screen,1_1_0_1_5,2021-04-19T09:27:37.572Z,,,,,,,,,,,,,,,,53,,,,,,,,,,,,,,380.88200001078076,,response,,,,99,,,,,,,Space,keypress(Space),,,,,,,,---- -- ----- -- ------ a ------- --- ----------<br>------------- ------ ------ ---- ---- ------- ----- -- ----<br>-------- ------- -- ---------- --- - --- ----- ----- ----<br>---- --- --- ----- --- ---- ---- ------- ----- ---- -------<br>--- --- -- ----- -- --- ---- -- --- ---- -- ------ ------<br>--- ----- -- ----,229254.8999999999,229253.9650000108,228856.502,228857.23000002326,228873.083,229274.352,,5,a
screen,html.Screen,1_1_0_1_6,2021-04-19T09:27:38.109Z,,,,,,,,,,,,,,,,53,,,,,,,,,,,,,,516.6780000221333,,response,,,,99,,,,,,,Space,keypress(Space),,,,,,,,---- -- ----- -- ------ - lasting --- ----------<br>------------- ------ ------ ---- ---- ------- ----- -- ----<br>-------- ------- -- ---------- --- - --- ----- ----- ----<br>---- --- --- ----- --- ---- ---- ------- ----- ---- -------<br>--- --- -- ----- -- --- ---- -- --- ---- -- ------ ------<br>--- ----- -- ----,229792.15000002296,229791.03000002215,229239.912,229255.0700000138,229274.352,229806.381,,6,lasting
screen,html.Screen,1_1_0_1_7,2021-04-19T09:27:38.559Z,,,,,,,,,,,,,,,,53,,,,,,,,,,,,,,434.56399999774294,,response,,,,99,,,,,,,Space,keypress(Space),,,,,,,,---- -- ----- -- ------ - ------- and ----------<br>------------- ------ ------ ---- ---- ------- ----- -- ----<br>-------- ------- -- ---------- --- - --- ----- ----- ----<br>---- --- --- ----- --- ---- ---- ------- ----- ---- -------<br>--- --- -- ----- -- --- ---- -- --- ---- -- ------ ------<br>--- ----- -- ----,230241.83000001358,230240.94499999774,229789.627,229792.31499999878,229806.381,230256.212,,7,and
screen,html.Screen,1_1_0_1_8,2021-04-19T09:27:39.083Z,,,,,,,,,,,,,,,,53,,,,,,,,,,,,,,509.1080000058864,,response,,,,99,,,,,,,Space,keypress(Space),,,,,,,,---- -- ----- -- ------ - ------- --- fulfilling<br>------------- ------ ------ ---- ---- ------- ----- -- ----<br>-------- ------- -- ---------- --- - --- ----- ----- ----<br>---- --- --- ----- --- ---- ---- ------- ----- ---- -------<br>--- --- -- ----- -- --- ---- -- --- ---- -- ------ ------<br>--- ----- -- ----,230766.1650000082,230765.3200000059,230239.625,230241.9950000185,230256.212,230772.345,,8,fulfilling
screen,html.Screen,1_1_0_1_9,2021-04-19T09:27:41.055Z,,,,,,,,,,,,,,,,53,,,,,,,,,,,,,,1965.1000000061176,,response,,,,99,,,,,,,Space,keypress(Space),,,,,,,,"---- -- ----- -- ------ - ------- --- ----------<br>relationship, ------ ------ ---- ---- ------- ----- -- ----<br>-------- ------- -- ---------- --- - --- ----- ----- ----<br>---- --- --- ----- --- ---- ---- ------- ----- ---- -------<br>--- --- -- ----- -- --- ---- -- --- ---- -- ------ ------<br>--- ----- -- ----",232738.3400000108,232737.44500000612,230756.159,230766.3300000131,230772.345,232772.213,,9,"relationship,"
screen,html.Screen,1_1_0_1_10,2021-04-19T09:27:41.635Z,,,,,,,,,,,,,,,,53,,,,,,,,,,,,,,544.6669999985024,,response,,,,99,,,,,,,Space,keypress(Space),,,,,,,,---- -- ----- -- ------ - ------- --- ----------<br>------------- common ------ ---- ---- ------- ----- -- ----<br>-------- ------- -- ---------- --- - --- ----- ----- ----<br>---- --- --- ----- --- ---- ---- ------- ----- ---- -------<br>--- --- -- ----- -- --- ---- -- --- ---- -- ------ ------<br>--- ----- -- ----,233317.9700000037,233316.8799999985,232755.477,232738.54500000016,232772.213,233322.189,,10,common
screen,html.Screen,1_1_0_1_11,2021-04-19T09:27:42.086Z,,,,,,,,,,,,,,,,53,,,,,,,,,,,,,,445.93100002245046,,response,,,,99,,,,,,,Space,keypress(Space),,,,,,,,---- -- ----- -- ------ - ------- --- ----------<br>------------- ------ wisdom ---- ---- ------- ----- -- ----<br>-------- ------- -- ---------- --- - --- ----- ----- ----<br>---- --- --- ----- --- ---- ---- ------- ----- ---- -------<br>--- --- -- ----- -- --- ---- -- --- ---- -- ------ ------<br>--- ----- -- ----,233769.07500001835,233768.12000002246,233305.385,233318.14500002656,233322.189,233771.468,,11,wisdom
screen,html.Screen,1_1_0_1_12,2021-04-19T09:27:42.465Z,,,,,,,,,,,,,,,,53,,,,,,,,,,,,,,375.282000014442,,response,,,,99,,,,,,,Space,keypress(Space),,,,,,,,---- -- ----- -- ------ - ------- --- ----------<br>------------- ------ ------ says ---- ------- ----- -- ----<br>-------- ------- -- ---------- --- - --- ----- ----- ----<br>---- --- --- ----- --- ---- ---- ------- ----- ---- -------<br>--- --- -- ----- -- --- ---- -- --- ---- -- ------ ------<br>--- ----- -- ----,234148.0750000046,234146.75000001444,233755.109,233769.2800000077,233771.468,234154.856,,12,says
screen,html.Screen,1_1_0_1_13,2021-04-19T09:27:42.803Z,,,,,,,,,,,,,,,,53,,,,,,,,,,,,,,330.2489999997488,,response,,,,99,,,,,,,Space,keypress(Space),,,,,,,,---- -- ----- -- ------ - ------- --- ----------<br>------------- ------ ------ ---- that ------- ----- -- ----<br>-------- ------- -- ---------- --- - --- ----- ----- ----<br>---- --- --- ----- --- ---- ---- ------- ----- ---- -------<br>--- --- -- ----- -- --- ---- -- --- ---- -- ------ ------<br>--- ----- -- ----,234486.07000001357,234485.10499999975,234138.286,234148.39000001666,234154.856,234487.923,,13,that
screen,html.Screen,1_1_0_1_14,2021-04-19T09:27:43.198Z,,,,,,,,,,,,,,,,53,,,,,,,,,,,,,,391.6970000215224,,response,,,,99,,,,,,,Space,keypress(Space),,,,,,,,---- -- ----- -- ------ - ------- --- ----------<br>------------- ------ ------ ---- ---- feeling ----- -- ----<br>-------- ------- -- ---------- --- - --- ----- ----- ----<br>---- --- --- ----- --- ---- ---- ------- ----- ---- -------<br>--- --- -- ----- -- --- ---- -- --- ---- -- ------ ------<br>--- ----- -- ----,234880.6250000198,234879.62000002153,234471.58,234486.25500002527,234487.923,234887.887,,14,feeling
screen,html.Screen,1_1_0_1_15,2021-04-19T09:27:48.221Z,,,,,,,,,,,,,,,,53,,,,,,,,,,,,,,5015.093000013498,,response,,,,99,,,,,,,Space,keypress(Space),,,,,,,,---- -- ----- -- ------ - ------- --- ----------<br>------------- ------ ------ ---- ---- ------- close -- ----<br>-------- ------- -- ---------- --- - --- ----- ----- ----<br>---- --- --- ----- --- ---- ---- ------- ----- ---- -------<br>--- --- -- ----- -- --- ---- -- --- ---- -- ------ ------<br>--- ----- -- ----,239903.66500001983,239902.9800000135,234871.475,234880.81500001135,234887.887,239920.126,,15,close
screen,html.Screen,1_1_0_1_16,2021-04-19T09:27:48.655Z,,,,,,,,,,,,,,,,53,,,,,,,,,,,,,,417.1740000137943,,response,,,,99,,,,,,,Space,keypress(Space),,,,,,,,---- -- ----- -- ------ - ------- --- ----------<br>------------- ------ ------ ---- ---- ------- ----- to ----<br>-------- ------- -- ---------- --- - --- ----- ----- ----<br>---- --- --- ----- --- ---- ---- ------- ----- ---- -------<br>--- --- -- ----- -- --- ---- -- --- ---- -- ------ ------<br>--- ----- -- ----,240338.3250000188,240337.30000001378,239904.013,239903.87500001816,239920.126,240353.303,,16,to
screen,html.Screen,1_1_0_1_17,2021-04-19T09:27:49.027Z,,,,,,,,,,,,,,,,53,,,,,,,,,,,,,,355.9420000054524,,response,,,,99,,,,,,,Space,keypress(Space),,,,,,,,---- -- ----- -- ------ - ------- --- ----------<br>------------- ------ ------ ---- ---- ------- ----- -- your<br>-------- ------- -- ---------- --- - --- ----- ----- ----<br>---- --- --- ----- --- ---- ---- ------- ----- ---- -------<br>--- --- -- ----- -- --- ---- -- --- ---- -- ------ ------<br>--- ----- -- ----,240710.2850000083,240709.24500000547,240336.655,240338.50500002154,240353.303,240719.637,,17,your
screen,html.Screen,1_1_0_1_18,2021-04-19T09:27:49.417Z,,,,,,,,,,,,,,,,53,,,,,,,,,,,,,,379.0780000000959,,response,,,,99,,,,,,,Space,keypress(Space),,,,,,,,---- -- ----- -- ------ - ------- --- ----------<br>------------- ------ ------ ---- ---- ------- ----- -- ----<br>romantic ------- -- ---------- --- - --- ----- ----- ----<br>---- --- --- ----- --- ---- ---- ------- ----- ---- -------<br>--- --- -- ----- -- --- ---- -- --- ---- -- ------ ------<br>--- ----- -- ----,241099.73500002525,241098.71500000008,240703.231,240710.45000001322,240719.637,241102.668,,18,romantic
screen,html.Screen,1_1_0_1_19,2021-04-19T09:27:49.922Z,,,,,,,,,,,,,,,,53,,,,,,,,,,,,,,501.4120000191615,,response,,,,99,,,,,,,Space,keypress(Space),,,,,,,,---- -- ----- -- ------ - ------- --- ----------<br>------------- ------ ------ ---- ---- ------- ----- -- ----<br>-------- partner -- ---------- --- - --- ----- ----- ----<br>---- --- --- ----- --- ---- ---- ------- ----- ---- -------<br>--- --- -- ----- -- --- ---- -- --- ---- -- ------ ------<br>--- ----- -- ----,241605.10000001523,241604.08000001917,241086.102,241099.90000000107,241102.668,241619.571,,19,partner
screen,html.Screen,1_1_0_1_20,2021-04-19T09:27:50.283Z,,,,,,,,,,,,,,,,53,,,,,,,,,,,,,,345.5439999990631,,response,,,,99,,,,,,,Space,keypress(Space),,,,,,,,---- -- ----- -- ------ - ------- --- ----------<br>------------- ------ ------ ---- ---- ------- ----- -- ----<br>-------- ------- is ---------- --- - --- ----- ----- ----<br>---- --- --- ----- --- ---- ---- ------- ----- ---- -------<br>--- --- -- ----- -- --- ---- -- --- ---- -- ------ ------<br>--- ----- -- ----,241966.09500001068,241965.11499999906,241602.559,241605.26000001119,241619.571,241969.155,,20,is
screen,html.Screen,1_1_0_1_21,2021-04-19T09:27:52.952Z,,,,,,,,,,,,,,,,53,,,,,,,,,,,,,,2664.3949999986507,,response,,,,99,,,,,,,Space,keypress(Space),,,,,,,,---- -- ----- -- ------ - ------- --- ----------<br>------------- ------ ------ ---- ---- ------- ----- -- ----<br>-------- ------- -- paramount. --- - --- ----- ----- ----<br>---- --- --- ----- --- ---- ---- ------- ----- ---- -------<br>--- --- -- ----- -- --- ---- -- --- ---- -- ------ ------<br>--- ----- -- ----,244634.6800000174,244633.54999999865,241952.745,241966.2750000134,241969.155,244651.715,,21,paramount.
screen,html.Screen,1_1_0_1_22,2021-04-19T09:27:53.366Z,,,,,,,,,,,,,,,,53,,,,,,,,,,,,,,396.52000002385466,,response,,,,99,,,,,,,Space,keypress(Space),,,,,,,,---- -- ----- -- ------ - ------- --- ----------<br>------------- ------ ------ ---- ---- ------- ----- -- ----<br>-------- ------- -- ---------- But - --- ----- ----- ----<br>---- --- --- ----- --- ---- ---- ------- ----- ---- -------<br>--- --- -- ----- -- --- ---- -- --- ---- -- ------ ------<br>--- ----- -- ----,245049.19000001973,245048.23500002385,244619.013,244634.9250000203,244651.715,245051.522,,22,But
screen,html.Screen,1_1_0_1_23,2021-04-19T09:27:53.779Z,,,,,,,,,,,,,,,,53,,,,,,,,,,,,,,414.8579999980284,,response,,,,99,,,,,,,Space,keypress(Space),,,,,,,,---- -- ----- -- ------ - ------- --- ----------<br>------------- ------ ------ ---- ---- ------- ----- -- ----<br>-------- ------- -- ---------- --- a --- ----- ----- ----<br>---- --- --- ----- --- ---- ---- ------- ----- ---- -------<br>--- --- -- ----- -- --- ---- -- --- ---- -- ------ ------<br>--- ----- -- ----,245467.3200000252,245466.37999999803,245035.042,245049.43500002264,245051.522,245485.383,,23,a
screen,html.Screen,1_1_0_1_24,2021-04-19T09:27:54.398Z,,,,,,,,,,,,,,,,53,,,,,,,,,,,,,,600.4319999985455,,response,,,,99,,,,,,,Space,keypress(Space),,,,,,,,---- -- ----- -- ------ - ------- --- ----------<br>------------- ------ ------ ---- ---- ------- ----- -- ----<br>-------- ------- -- ---------- --- - new ----- ----- ----<br>---- --- --- ----- --- ---- ---- ------- ----- ---- -------<br>--- --- -- ----- -- --- ---- -- --- ---- -- ------ ------<br>--- ----- -- ----,246086.64500000305,246085.81499999855,245451.845,245467.51000001677,245485.383,246101.662,,24,new
screen,html.Screen,1_1_0_1_25,2021-04-19T09:27:54.754Z,,,,,,,,,,,,,,,,53,,,,,,,,,,,,,,339.7180000038352,,response,,,,99,,,,,,,Space,keypress(Space),,,,,,,,---- -- ----- -- ------ - ------- --- ----------<br>------------- ------ ------ ---- ---- ------- ----- -- ----<br>-------- ------- -- ---------- --- - --- study ----- ----<br>---- --- --- ----- --- ---- ---- ------- ----- ---- -------<br>--- --- -- ----- -- --- ---- -- --- ---- -- ------ ------<br>--- ----- -- ----,246442.1850000217,246441.38000000385,246084.968,246086.81000000797,246101.662,246451.571,,25,study
screen,html.Screen,1_1_0_1_26,2021-04-19T09:27:55.125Z,,,,,,,,,,,,,,,,53,,,,,,,,,,,,,,361.2140000164509,,response,,,,99,,,,,,,Space,keypress(Space),,,,,,,,---- -- ----- -- ------ - ------- --- ----------<br>------------- ------ ------ ---- ---- ------- ----- -- ----<br>-------- ------- -- ---------- --- - --- ----- finds ----<br>---- --- --- ----- --- ---- ---- ------- ----- ---- -------<br>--- --- -- ----- -- --- ---- -- --- ---- -- ------ ------<br>--- ----- -- ----,246813.7900000147,246812.78500001645,246434.86,246442.3700000043,246451.571,246817.718,,26,finds
screen,html.Screen,1_1_0_1_27,2021-04-19T09:27:55.591Z,,,,,,,,,,,,,,,,53,,,,,,,,,,,,,,461.1120000247611,,response,,,,99,,,,,,,Space,keypress(Space),,,,,,,,---- -- ----- -- ------ - ------- --- ----------<br>------------- ------ ------ ---- ---- ------- ----- -- ----<br>-------- ------- -- ---------- --- - --- ----- ----- that<br>---- --- --- ----- --- ---- ---- ------- ----- ---- -------<br>--- --- -- ----- -- --- ---- -- --- ---- -- ------ ------<br>--- ----- -- ----,247279.8850000254,247278.83000002475,246801.452,246813.9750000264,246817.718,247284.253,,27,that
screen,html.Screen,1_1_0_1_28,2021-04-19T09:27:56.024Z,,,,,,,,,,,,,,,,53,,,,,,,,,,,,,,427.15200000911136,,response,,,,99,,,,,,,Space,keypress(Space),,,,,,,,---- -- ----- -- ------ - ------- --- ----------<br>------------- ------ ------ ---- ---- ------- ----- -- ----<br>-------- ------- -- ---------- --- - --- ----- ----- ----<br>it's --- --- ----- --- ---- ---- ------- ----- ---- -------<br>--- --- -- ----- -- --- ---- -- --- ---- -- ------ ------<br>--- ----- -- ----,247712.3300000094,247711.4050000091,247267.906,247280.06000001915,247284.253,247717.435,,28,it's
screen,html.Screen,1_1_0_1_29,2021-04-19T09:27:56.411Z,,,,,,,,,,,,,,,,53,,,,,,,,,,,,,,380.9500000193366,,response,,,,99,,,,,,,Space,keypress(Space),,,,,,,,---- -- ----- -- ------ - ------- --- ----------<br>------------- ------ ------ ---- ---- ------- ----- -- ----<br>-------- ------- -- ---------- --- - --- ----- ----- ----<br>---- not --- ----- --- ---- ---- ------- ----- ---- -------<br>--- --- -- ----- -- --- ---- -- --- ---- -- ------ ------<br>--- ----- -- ----,248099.47000001557,248098.38500001933,247701.039,247713.41500000563,247717.435,248117.798,,29,not
screen,html.Screen,1_1_0_1_30,2021-04-19T09:27:56.743Z,,,,,,,,,,,,,,,,53,,,,,,,,,,,,,,312.52200001402525,,response,,,,99,,,,,,,Space,keypress(Space),,,,,,,,---- -- ----- -- ------ - ------- --- ----------<br>------------- ------ ------ ---- ---- ------- ----- -- ----<br>-------- ------- -- ---------- --- - --- ----- ----- ----<br>---- --- how ----- --- ---- ---- ------- ----- ---- -------<br>--- --- -- ----- -- --- ---- -- --- ---- -- ------ ------<br>--- ----- -- ----,248431.2300000165,248430.32000001404,248100.721,248101.3700000185,248117.798,248433.841,,30,how
screen,html.Screen,1_1_0_1_31,2021-04-19T09:27:57.030Z,,,,,,,,,,,,,,,,53,,,,,,,,,,,,,,283.9290000174951,,response,,,,99,,,,,,,Space,keypress(Space),,,,,,,,---- -- ----- -- ------ - ------- --- ----------<br>------------- ------ ------ ---- ---- ------- ----- -- ----<br>-------- ------- -- ---------- --- - --- ----- ----- ----<br>---- --- --- close --- ---- ---- ------- ----- ---- -------<br>--- --- -- ----- -- --- ---- -- --- ---- -- ------ ------<br>--- ----- -- ----,248718.71500002453,248717.77000001748,248417.694,248431.39500002144,248433.841,248734.19,,31,close
screen,html.Screen,1_1_0_1_32,2021-04-19T09:27:57.327Z,,,,,,,,,,,,,,,,53,,,,,,,,,,,,,,280.240000010177,,response,,,,99,,,,,,,Space,keypress(Space),,,,,,,,---- -- ----- -- ------ - ------- --- ----------<br>------------- ------ ------ ---- ---- ------- ----- -- ----<br>-------- ------- -- ---------- --- - --- ----- ----- ----<br>---- --- --- ----- you ---- ---- ------- ----- ---- -------<br>--- --- -- ----- -- --- ---- -- --- ---- -- ------ ------<br>--- ----- -- ----,249015.44500002638,249014.43000001018,248717.405,248718.9050000161,248734.19,249037.635,,32,you
screen,html.Screen,1_1_0_1_33,2021-04-19T09:27:57.617Z,,,,,,,,,,,,,,,,53,,,,,,,,,,,,,,267.00500001665205,,response,,,,99,,,,,,,Space,keypress(Space),,,,,,,,---- -- ----- -- ------ - ------- --- ----------<br>------------- ------ ------ ---- ---- ------- ----- -- ----<br>-------- ------- -- ---------- --- - --- ----- ----- ----<br>---- --- --- ----- --- feel ---- ------- ----- ---- -------<br>--- --- -- ----- -- --- ---- -- --- ---- -- ------ ------<br>--- ----- -- ----,249305.59000000358,249304.64000001666,249000.788,249015.64500000677,249037.635,249317.39,,33,feel
screen,html.Screen,1_1_0_1_34,2021-04-19T09:27:57.836Z,,,,,,,,,,,,,,,,53,,,,,,,,,,,,,,206.63500002061483,,response,,,,99,,,,,,,Space,keypress(Space),,,,,,,,---- -- ----- -- ------ - ------- --- ----------<br>------------- ------ ------ ---- ---- ------- ----- -- ----<br>-------- ------- -- ---------- --- - --- ----- ----- ----<br>---- --- --- ----- --- ---- that ------- ----- ---- -------<br>--- --- -- ----- -- --- ---- -- --- ---- -- ------ ------<br>--- ----- -- ----,249524.86500001396,249524.02500002063,249300.292,249305.74999999953,249317.39,249533.974,,34,that
screen,html.Screen,1_1_0_1_35,2021-04-19T09:27:58.063Z,,,,,,,,,,,,,,,,53,,,,,,,,,,,,,,216.45100000564707,,response,,,,99,,,,,,,Space,keypress(Space),,,,,,,,---- -- ----- -- ------ - ------- --- ----------<br>------------- ------ ------ ---- ---- ------- ----- -- ----<br>-------- ------- -- ---------- --- - --- ----- ----- ----<br>---- --- --- ----- --- ---- ---- matters ----- ---- -------<br>--- --- -- ----- -- --- ---- -- --- ---- -- ------ ------<br>--- ----- -- ----,249751.3200000103,249750.42500000563,249517.326,249525.0300000189,249533.974,249767.261,,35,matters
screen,html.Screen,1_1_0_1_36,2021-04-19T09:27:58.695Z,,,,,,,,,,,,,,,,53,,,,,,,,,,,,,,614.8240000192891,,response,,,,99,,,,,,,Space,keypress(Space),,,,,,,,"---- -- ----- -- ------ - ------- --- ----------<br>------------- ------ ------ ---- ---- ------- ----- -- ----<br>-------- ------- -- ---------- --- - --- ----- ----- ----<br>---- --- --- ----- --- ---- ---- ------- most, ---- -------<br>--- --- -- ----- -- --- ---- -- --- ---- -- ------ ------<br>--- ----- -- ----",250383.07500001974,250382.0850000193,249750.614,249751.51500001084,249767.261,250417.119,,36,"most,"
screen,html.Screen,1_1_0_1_37,2021-04-19T09:27:59.018Z,,,,,,,,,,,,,,,,53,,,,,,,,,,,,,,288.6760000162176,,response,,,,99,,,,,,,Space,keypress(Space),,,,,,,,---- -- ----- -- ------ - ------- --- ----------<br>------------- ------ ------ ---- ---- ------- ----- -- ----<br>-------- ------- -- ---------- --- - --- ----- ----- ----<br>---- --- --- ----- --- ---- ---- ------- ----- it's -------<br>--- --- -- ----- -- --- ---- -- --- ---- -- ------ ------<br>--- ----- -- ----,250706.82500000112,250705.79500001622,250400.382,250383.34500000929,250417.119,250716.979,,37,it's
screen,html.Screen,1_1_0_1_38,2021-04-19T09:27:59.390Z,,,,,,,,,,,,,,,,53,,,,,,,,,,,,,,360.646000005363,,response,,,,99,,,,,,,Space,keypress(Space),,,,,,,,---- -- ----- -- ------ - ------- --- ----------<br>------------- ------ ------ ---- ---- ------- ----- -- ----<br>-------- ------- -- ---------- --- - --- ----- ----- ----<br>---- --- --- ----- --- ---- ---- ------- ----- ---- whether<br>--- --- -- ----- -- --- ---- -- --- ---- -- ------ ------<br>--- ----- -- ----,251078.50500001223,251077.62500000536,250700.295,250706.98500002618,250716.979,251083.18,,38,whether
screen,html.Screen,1_1_0_1_39,2021-04-19T09:27:59.747Z,,,,,,,,,,,,,,,,53,,,,,,,,,,,,,,351.250000022992,,response,,,,99,,,,,,,Space,keypress(Space),,,,,,,,---- -- ----- -- ------ - ------- --- ----------<br>------------- ------ ------ ---- ---- ------- ----- -- ----<br>-------- ------- -- ---------- --- - --- ----- ----- ----<br>---- --- --- ----- --- ---- ---- ------- ----- ---- -------<br>you --- -- ----- -- --- ---- -- --- ---- -- ------ ------<br>--- ----- -- ----,251435.43500002124,251434.43000002299,251066.875,251078.67000001715,251083.18,251449.851,,39,you
screen,html.Screen,1_1_0_1_40,2021-04-19T09:28:00.094Z,,,,,,,,,,,,,,,,53,,,,,,,,,,,,,,331.50400001372327,,response,,,,99,,,,,,,Space,keypress(Space),,,,,,,,---- -- ----- -- ------ - ------- --- ----------<br>------------- ------ ------ ---- ---- ------- ----- -- ----<br>-------- ------- -- ---------- --- - --- ----- ----- ----<br>---- --- --- ----- --- ---- ---- ------- ----- ---- -------<br>--- are -- ----- -- --- ---- -- --- ---- -- ------ ------<br>--- ----- -- ----,251782.3250000074,251781.35500001372,251433.392,251435.610000015,251449.851,251816.675,,40,are
screen,html.Screen,1_1_0_1_41,2021-04-19T09:28:00.427Z,,,,,,,,,,,,,,,,53,,,,,,,,,,,,,,297.6450000224286,,response,,,,99,,,,,,,Space,keypress(Space),,,,,,,,---- -- ----- -- ------ - ------- --- ----------<br>------------- ------ ------ ---- ---- ------- ----- -- ----<br>-------- ------- -- ---------- --- - --- ----- ----- ----<br>---- --- --- ----- --- ---- ---- ------- ----- ---- -------<br>--- --- as ----- -- --- ---- -- --- ---- -- ------ ------<br>--- ----- -- ----,252115.59500001022,252114.32000002242,251799.845,251782.48500000336,251816.675,252132.859,,41,as
screen,html.Screen,1_1_0_1_42,2021-04-19T09:28:00.769Z,,,,,,,,,,,,,,,,53,,,,,,,,,,,,,,323.42600002203835,,response,,,,99,,,,,,,Space,keypress(Space),,,,,,,,---- -- ----- -- ------ - ------- --- ----------<br>------------- ------ ------ ---- ---- ------- ----- -- ----<br>-------- ------- -- ---------- --- - --- ----- ----- ----<br>---- --- --- ----- --- ---- ---- ------- ----- ---- -------<br>--- --- -- close -- --- ---- -- --- ---- -- ------ ------<br>--- ----- -- ----,252457.1200000064,252456.28500002204,252099.918,252115.7500000263,252132.859,252466.497,,42,close
screen,html.Screen,1_1_0_1_43,2021-04-19T09:28:01.053Z,,,,,,,,,,,,,,,,53,,,,,,,,,,,,,,274.1330000147864,,response,,,,99,,,,,,,Space,keypress(Space),,,,,,,,---- -- ----- -- ------ - ------- --- ----------<br>------------- ------ ------ ---- ---- ------- ----- -- ----<br>-------- ------- -- ---------- --- - --- ----- ----- ----<br>---- --- --- ----- --- ---- ---- ------- ----- ---- -------<br>--- --- -- ----- as --- ---- -- --- ---- -- ------ ------<br>--- ----- -- ----,252741.5949999995,252740.6300000148,252449.652,252457.2900000203,252466.497,252749.434,,43,as
screen,html.Screen,1_1_0_1_44,2021-04-19T09:28:01.290Z,,,,,,,,,,,,,,,,53,,,,,,,,,,,,,,228.53600000718143,,response,,,,99,,,,,,,Space,keypress(Space),,,,,,,,---- -- ----- -- ------ - ------- --- ----------<br>------------- ------ ------ ---- ---- ------- ----- -- ----<br>-------- ------- -- ---------- --- - --- ----- ----- ----<br>---- --- --- ----- --- ---- ---- ------- ----- ---- -------<br>--- --- -- ----- -- you ---- -- --- ---- -- ------ ------<br>--- ----- -- ----,252978.77000001608,252977.9700000072,252733.124,252741.7500000156,252749.434,252982.557,,44,you
screen,html.Screen,1_1_0_1_45,2021-04-19T09:28:01.506Z,,,,,,,,,,,,,,,,53,,,,,,,,,,,,,,210.9030000095081,,response,,,,99,,,,,,,Space,keypress(Space),,,,,,,,---- -- ----- -- ------ - ------- --- ----------<br>------------- ------ ------ ---- ---- ------- ----- -- ----<br>-------- ------- -- ---------- --- - --- ----- ----- ----<br>---- --- --- ----- --- ---- ---- ------- ----- ---- -------<br>--- --- -- ----- -- --- want -- --- ---- -- ------ ------<br>--- ----- -- ----,253194.50000001234,253193.4600000095,252966.187,252978.93000001204,252982.557,253199.151,,45,want
screen,html.Screen,1_1_0_1_46,2021-04-19T09:28:01.712Z,,,,,,,,,,,,,,,,53,,,,,,,,,,,,,,199.95899999846006,,response,,,,99,,,,,,,Space,keypress(Space),,,,,,,,---- -- ----- -- ------ - ------- --- ----------<br>------------- ------ ------ ---- ---- ------- ----- -- ----<br>-------- ------- -- ---------- --- - --- ----- ----- ----<br>---- --- --- ----- --- ---- ---- ------- ----- ---- -------<br>--- --- -- ----- -- --- ---- to --- ---- -- ------ ------<br>--- ----- -- ----,253400.03499999875,253399.10999999847,253182.762,253194.6750000061,253199.151,253416.195,,46,to
screen,html.Screen,1_1_0_1_47,2021-04-19T09:28:01.925Z,,,,,,,,,,,,,,,,53,,,,,,,,,,,,,,196.22000001050765,,response,,,,99,,,,,,,Space,keypress(Space),,,,,,,,"---- -- ----- -- ------ - ------- --- ----------<br>------------- ------ ------ ---- ---- ------- ----- -- ----<br>-------- ------- -- ---------- --- - --- ----- ----- ----<br>---- --- --- ----- --- ---- ---- ------- ----- ---- -------<br>--- --- -- ----- -- --- ---- -- be, ---- -- ------ ------<br>--- ----- -- ----",253613.40500001097,253612.41500001051,253399.346,253400.1950000238,253416.195,253615.674,,47,"be,"
screen,html.Screen,1_1_0_1_48,2021-04-19T09:28:02.155Z,,,,,,,,,,,,,,,,53,,,,,,,,,,,,,,226.8810000101803,,response,,,,99,,,,,,,Space,keypress(Space),,,,,,,,---- -- ----- -- ------ - ------- --- ----------<br>------------- ------ ------ ---- ---- ------- ----- -- ----<br>-------- ------- -- ---------- --- - --- ----- ----- ----<br>---- --- --- ----- --- ---- ---- ------- ----- ---- -------<br>--- --- -- ----- -- --- ---- -- --- even -- ------ ------<br>--- ----- -- ----,253843.44000002602,253842.55500001018,253599.453,253613.59500000253,253615.674,253848.98,,48,even
screen,html.Screen,1_1_0_1_49,2021-04-19T09:28:02.378Z,,,,,,,,,,,,,,,,53,,,,,,,,,,,,,,216.5699999993376,,response,,,,99,,,,,,,Space,keypress(Space),,,,,,,,---- -- ----- -- ------ - ------- --- ----------<br>------------- ------ ------ ---- ---- ------- ----- -- ----<br>-------- ------- -- ---------- --- - --- ----- ----- ----<br>---- --- --- ----- --- ---- ---- ------- ----- ---- -------<br>--- --- -- ----- -- --- ---- -- --- ---- if ------ ------<br>--- ----- -- ----,254066.30500001484,254065.54999999935,253832.625,253843.6100000108,253848.98,254082.73,,49,if
screen,html.Screen,1_1_0_1_50,2021-04-19T09:28:02.578Z,,,,,,,,,,,,,,,,53,,,,,,,,,,,,,,182.61500002161483,,response,,,,99,,,,,,,Space,keypress(Space),,,,,,,,---- -- ----- -- ------ - ------- --- ----------<br>------------- ------ ------ ---- ---- ------- ----- -- ----<br>-------- ------- -- ---------- --- - --- ----- ----- ----<br>---- --- --- ----- --- ---- ---- ------- ----- ---- -------<br>--- --- -- ----- -- --- ---- -- --- ---- -- that's ------<br>--- ----- -- ----,254266.39000000432,254265.34500002163,254065.969,254066.450000013,254082.73,254282.615,,50,that's
screen,html.Screen,1_1_0_1_51,2021-04-19T09:28:02.959Z,,,,,,,,,,,,,,,,53,,,,,,,,,,,,,,364.28500002156943,,response,,,,99,,,,,,,Space,keypress(Space),,,,,,,,---- -- ----- -- ------ - ------- --- ----------<br>------------- ------ ------ ---- ---- ------- ----- -- ----<br>-------- ------- -- ---------- --- - --- ----- ----- ----<br>---- --- --- ----- --- ---- ---- ------- ----- ---- -------<br>--- --- -- ----- -- --- ---- -- --- ---- -- ------ really<br>--- ----- -- ----,254647.7850000083,254646.90000002156,254266.005,254266.55000000028,254282.615,254674.888,,51,really
screen,html.Screen,1_1_0_1_52,2021-04-19T09:28:03.306Z,,,,,,,,,,,,,,,,53,,,,,,,,,,,,,,318.3070000172884,,response,,,,99,,,,,,,Space,keypress(Space),,,,,,,,---- -- ----- -- ------ - ------- --- ----------<br>------------- ------ ------ ---- ---- ------- ----- -- ----<br>-------- ------- -- ---------- --- - --- ----- ----- ----<br>---- --- --- ----- --- ---- ---- ------- ----- ---- -------<br>--- --- -- ----- -- --- ---- -- --- ---- -- ------ ------<br>not ----- -- ----,254994.05000000843,254993.1950000173,254632.329,254647.94500000426,254674.888,254998.647,,52,not
screen,html.Screen,1_1_0_1_53,2021-04-19T09:28:03.512Z,,,,,,,,,,,,,,,,53,,,,,,,,,,,,,,200.52300000714604,,response,,,,99,,,,,,,Space,keypress(Space),,,,,,,,---- -- ----- -- ------ - ------- --- ----------<br>------------- ------ ------ ---- ---- ------- ----- -- ----<br>-------- ------- -- ---------- --- - --- ----- ----- ----<br>---- --- --- ----- --- ---- ---- ------- ----- ---- -------<br>--- --- -- ----- -- --- ---- -- --- ---- -- ------ ------<br>--- close -- ----,255200.11000000522,255199.17000000714,254982.343,254994.23500002013,254998.647,255215.672,,53,close
screen,html.Screen,1_1_0_1_54,2021-04-19T09:28:03.848Z,,,,,,,,,,,,,,,,53,,,,,,,,,,,,,,319.5580000086047,,response,,,,99,,,,,,,Space,keypress(Space),,,,,,,,---- -- ----- -- ------ - ------- --- ----------<br>------------- ------ ------ ---- ---- ------- ----- -- ----<br>-------- ------- -- ---------- --- - --- ----- ----- ----<br>---- --- --- ----- --- ---- ---- ------- ----- ---- -------<br>--- --- -- ----- -- --- ---- -- --- ---- -- ------ ------<br>--- ----- at ----,255536.10000002664,255535.2300000086,255198.889,255200.27500001015,255215.672,255548.807,,54,at
screen,html.Screen,1_1_0_1_55,2021-04-19T09:28:04.233Z,,,,,,,,,,,,,,,,53,,,,,,,,,,,,,,371.1980000217736,,response,,,,99,,,,,,,Space,keypress(Space),,,,,,,,---- -- ----- -- ------ - ------- --- ----------<br>------------- ------ ------ ---- ---- ------- ----- -- ----<br>-------- ------- -- ---------- --- - --- ----- ----- ----<br>---- --- --- ----- --- ---- ---- ------- ----- ---- -------<br>--- --- -- ----- -- --- ---- -- --- ---- -- ------ ------<br>--- ----- -- all.,255920.9550000087,255920.00500002177,255532.333,255536.26500000246,255548.807,255931.718,,55,all.
Item 99,flow.Loop,1_1_0_1,2021-04-19T09:28:04.233Z,,,,,,,,,,,,,,,,,,,,,,,,,,,,,,30929.358000021777,,completion,,,,,E,,,,,,,,,,,silence,,,,,255921.32500000298,255920.00500002177,224974.359,224975.53500000504,224990.647,255931.718,,,
Question 1,html.Screen,1_1_0_2,2021-04-19T09:28:08.284Z,,,,,,,,,,,,,,,,,,,,,,,,,,,true,FALSE,,4039.4570000133244,,response,,,,99,E,,,,,,FALSE,click #choice-2,,,,silence,,,,,259972.47500001686,259971.17500001332,255915.477,255921.4600000123,255931.718,259997.659,,,
Question 2,html.Screen,1_1_0_3,2021-04-19T09:28:11.877Z,,,,,,,,,,,,,,,,,,,,,,,,,,,true,TRUE,,3566.2260000104725,,response,,,,99,E,,,,,,TRUE,click #choice-1,,,,silence,,,,,263565.15000000945,263563.8850000105,259980.549,259972.64500000165,259997.659,263596.589,,,
Item 99,flow.Sequence,1_1_0,2021-04-19T09:28:11.877Z,,,,,,,,,,,,,,,,,,,,,,,,,,,,,,48570.358000010485,,completion,,,,,,,,,,,,,,,,,,,,,263565.41000001016,263563.8850000105,214977.158,214982.84500002046,214993.527,263596.589,,,
Holding screen,html.Screen,1_1_1_0,2021-04-19T09:28:21.895Z,,,,,,,,,,,,,,,,,,,,,,,,,,,,,,9996.868000000017,,timeout,,,,,,,,,,,,,,,,,,,,,273583.31000001635,273576.576,263579.468,263565.5600000173,263596.589,273593.457,,,
screen,html.Screen,1_1_1_1_0,2021-04-19T09:28:22.823Z,,,,,,,,,,,,,,,,54,,,,,,,,,,,,,,917.4080000183894,,response,,,,100,,,,,,,Space,keypress(Space),,,,,,,,At --- ---- --- ------ ----- ------- ---- -- --- ------- --<br>------- ---------- ------ -- ----- -- ----- -- ---- ------<br>--- ----- --- --- ------ -------- ----- --- ------ ----- --<br>----- ----- ---------- --- --- ------ ------ ---- -- ------<br>------- --- ------ ----- --- ---- ------- -- ---- --- --<br>------- ------,274511.7650000029,274510.8650000184,273576.576,273584.5950000221,273593.457,274526.373,,0,At
screen,html.Screen,1_1_1_1_1,2021-04-19T09:28:23.088Z,,,,,,,,,,,,,,,,54,,,,,,,,,,,,,,248.6920000234386,,response,,,,100,,,,,,,Space,keypress(Space),,,,,,,,-- the ---- --- ------ ----- ------- ---- -- --- ------- --<br>------- ---------- ------ -- ----- -- ----- -- ---- ------<br>--- ----- --- --- ------ -------- ----- --- ------ ----- --<br>----- ----- ---------- --- --- ------ ------ ---- -- ------<br>------- --- ------ ----- --- ---- ------- -- ---- --- --<br>------- ------,274776.0000000126,274775.06500002346,274510.008,274511.9400000258,274526.373,274809.704,,1,the
screen,html.Screen,1_1_1_1_2,2021-04-19T09:28:23.272Z,,,,,,,,,,,,,,,,54,,,,,,,,,,,,,,149.6410000101896,,response,,,,100,,,,,,,Space,keypress(Space),,,,,,,,-- --- time --- ------ ----- ------- ---- -- --- ------- --<br>------- ---------- ------ -- ----- -- ----- -- ---- ------<br>--- ----- --- --- ------ -------- ----- --- ------ ----- --<br>----- ----- ---------- --- --- ------ ------ ---- -- ------<br>------- --- ------ ----- --- ---- ------- -- ---- --- --<br>------- ------,274960.1650000259,274959.3450000102,274793.059,274776.1800000153,274809.704,274976.325,,2,time
screen,html.Screen,1_1_1_1_3,2021-04-19T09:28:23.643Z,,,,,,,,,,,,,,,,54,,,,,,,,,,,,,,353.88500001461944,,response,,,,100,,,,,,,Space,keypress(Space),,,,,,,,-- --- ---- the ------ ----- ------- ---- -- --- ------- --<br>------- ---------- ------ -- ----- -- ----- -- ---- ------<br>--- ----- --- --- ------ -------- ----- --- ------ ----- --<br>----- ----- ---------- --- --- ------ ------ ---- -- ------<br>------- --- ------ ----- --- ---- ------- -- ---- --- --<br>------- ------,275331.1850000173,275330.21000001463,274959.565,274960.32500002184,274976.325,275342.783,,3,the
screen,html.Screen,1_1_1_1_4,2021-04-19T09:28:24.026Z,,,,,,,,,,,,,,,,54,,,,,,,,,,,,,,370.7070000237436,,response,,,,100,,,,,,,Space,keypress(Space),,,,,,,,-- --- ---- --- French ----- ------- ---- -- --- ------- --<br>------- ---------- ------ -- ----- -- ----- -- ---- ------<br>--- ----- --- --- ------ -------- ----- --- ------ ----- --<br>----- ----- ---------- --- --- ------ ------ ---- -- ------<br>------- --- ------ ----- --- ---- ------- -- ---- --- --<br>------- ------,275714.3900000083,275713.49000002374,275326.534,275331.3500000222,275342.783,275726.339,,4,French
screen,html.Screen,1_1_1_1_5,2021-04-19T09:28:24.376Z,,,,,,,,,,,,,,,,54,,,,,,,,,,,,,,336.8259999995935,,response,,,,100,,,,,,,Space,keypress(Space),,,,,,,,-- --- ---- --- ------ crown ------- ---- -- --- ------- --<br>------- ---------- ------ -- ----- -- ----- -- ---- ------<br>--- ----- --- --- ------ -------- ----- --- ------ ----- --<br>----- ----- ---------- --- --- ------ ------ ---- -- ------<br>------- --- ------ ----- --- ---- ------- -- ---- --- --<br>------- ------,276064.1750000068,276063.1649999996,275709.584,275714.5600000222,275726.339,276076.297,,5,crown
screen,html.Screen,1_1_1_1_6,2021-04-19T09:28:24.722Z,,,,,,,,,,,,,,,,54,,,,,,,,,,,,,,333.52800000971183,,response,,,,100,,,,,,,Space,keypress(Space),,,,,,,,-- --- ---- --- ------ ----- secured ---- -- --- ------- --<br>------- ---------- ------ -- ----- -- ----- -- ---- ------<br>--- ----- --- --- ------ -------- ----- --- ------ ----- --<br>----- ----- ---------- --- --- ------ ------ ---- -- ------<br>------- --- ------ ----- --- ---- ------- -- ---- --- --<br>------- ------,276410.9200000239,276409.82500000973,276059.739,276064.3300000229,276076.297,276426.22,,6,secured
screen,html.Screen,1_1_1_1_7,2021-04-19T09:28:25.128Z,,,,,,,,,,,,,,,,54,,,,,,,,,,,,,,389.44000002206303,,response,,,,100,,,,,,,Space,keypress(Space),,,,,,,,-- --- ---- --- ------ ----- ------- much -- --- ------- --<br>------- ---------- ------ -- ----- -- ----- -- ---- ------<br>--- ----- --- --- ------ -------- ----- --- ------ ----- --<br>----- ----- ---------- --- --- ------ ------ ---- -- ------<br>------- --- ------ ----- --- ---- ------- -- ---- --- --<br>------- ------,276816.6150000179,276815.66000002204,276409.519,276411.08000001987,276426.22,276825.64,,7,much
screen,html.Screen,1_1_1_1_8,2021-04-19T09:28:25.436Z,,,,,,,,,,,,,,,,54,,,,,,,,,,,,,,298.18000000796746,,response,,,,100,,,,,,,Space,keypress(Space),,,,,,,,-- --- ---- --- ------ ----- ------- ---- of --- ------- --<br>------- ---------- ------ -- ----- -- ----- -- ---- ------<br>--- ----- --- --- ------ -------- ----- --- ------ ----- --<br>----- ----- ---------- --- --- ------ ------ ---- -- ------<br>------- --- ------ ----- --- ---- ------- -- ---- --- --<br>------- ------,277124.8800000176,277123.820000008,276809.405,276816.8050000095,276825.64,277142.596,,8,of
screen,html.Screen,1_1_1_1_9,2021-04-19T09:28:25.702Z,,,,,,,,,,,,,,,,54,,,,,,,,,,,,,,246.46900002483744,,response,,,,100,,,,,,,Space,keypress(Space),,,,,,,,-- --- ---- --- ------ ----- ------- ---- -- its ------- --<br>------- ---------- ------ -- ----- -- ----- -- ---- ------<br>--- ----- --- --- ------ -------- ----- --- ------ ----- --<br>----- ----- ---------- --- --- ------ ------ ---- -- ------<br>------- --- ------ ----- --- ---- ------- -- ---- --- --<br>------- ------,277389.98500001617,277389.06500002486,277109.322,277125.1050000137,277142.596,277392.161,,9,its
screen,html.Screen,1_1_1_1_10,2021-04-19T09:28:25.976Z,,,,,,,,,,,,,,,,54,,,,,,,,,,,,,,271.84900000767084,,response,,,,100,,,,,,,Space,keypress(Space),,,,,,,,-- --- ---- --- ------ ----- ------- ---- -- --- revenue --<br>------- ---------- ------ -- ----- -- ----- -- ---- ------<br>--- ----- --- --- ------ -------- ----- --- ------ ----- --<br>----- ----- ---------- --- --- ------ ------ ---- -- ------<br>------- --- ------ ----- --- ---- ------- -- ---- --- --<br>------- ------,277664.92000001017,277664.0100000077,277375.798,277390.1500000211,277392.161,277675.796,,10,revenue
screen,html.Screen,1_1_1_1_11,2021-04-19T09:28:26.366Z,,,,,,,,,,,,,,,,54,,,,,,,,,,,,,,377.6240000111284,,response,,,,100,,,,,,,Space,keypress(Space),,,,,,,,-- --- ---- --- ------ ----- ------- ---- -- --- ------- by<br>------- ---------- ------ -- ----- -- ----- -- ---- ------<br>--- ----- --- --- ------ -------- ----- --- ------ ----- --<br>----- ----- ---------- --- --- ------ ------ ---- -- ------<br>------- --- ------ ----- --- ---- ------- -- ---- --- --<br>------- ------,278054.23999999766,278053.4200000111,277659.001,277665.0800000061,277675.796,278058.618,,11,by
screen,html.Screen,1_1_1_1_12,2021-04-19T09:28:26.700Z,,,,,,,,,,,,,,,,54,,,,,,,,,,,,,,328.91700001619756,,response,,,,100,,,,,,,Space,keypress(Space),,,,,,,,-- --- ---- --- ------ ----- ------- ---- -- --- ------- --<br>issuing ---------- ------ -- ----- -- ----- -- ---- ------<br>--- ----- --- --- ------ -------- ----- --- ------ ----- --<br>----- ----- ---------- --- --- ------ ------ ---- -- ------<br>------- --- ------ ----- --- ---- ------- -- ---- --- --<br>------- ------,278388.46500002546,278387.5350000162,278042.124,278054.3900000048,278058.618,278391.888,,12,issuing
screen,html.Screen,1_1_1_1_13,2021-04-19T09:28:27.098Z,,,,,,,,,,,,,,,,54,,,,,,,,,,,,,,393.9970000193571,,response,,,,100,,,,,,,Space,keypress(Space),,,,,,,,-- --- ---- --- ------ ----- ------- ---- -- --- ------- --<br>------- government ------ -- ----- -- ----- -- ---- ------<br>--- ----- --- --- ------ -------- ----- --- ------ ----- --<br>----- ----- ---------- --- --- ------ ------ ---- -- ------<br>------- --- ------ ----- --- ---- ------- -- ---- --- --<br>------- ------,278786.8100000196,278785.88500001933,278375.488,278388.6449999991,278391.888,278791.762,,13,government
screen,html.Screen,1_1_1_1_14,2021-04-19T09:28:28.501Z,,,,,,,,,,,,,,,,54,,,,,,,,,,,,,,1396.7130000026664,,response,,,,100,,,,,,,Space,keypress(Space),,,,,,,,-- --- ---- --- ------ ----- ------- ---- -- --- ------- --<br>------- ---------- bonds. -- ----- -- ----- -- ---- ------<br>--- ----- --- --- ------ -------- ----- --- ------ ----- --<br>----- ----- ---------- --- --- ------ ------ ---- -- ------<br>------- --- ------ ----- --- ---- ------- -- ---- --- --<br>------- ------,280189.40000000293,280188.47500000265,278775.354,278786.95999999763,278791.762,280191.331,,14,bonds.
screen,html.Screen,1_1_1_1_15,2021-04-19T09:28:28.839Z,,,,,,,,,,,,,,,,54,,,,,,,,,,,,,,335.0290000180248,,response,,,,100,,,,,,,Space,keypress(Space),,,,,,,,-- --- ---- --- ------ ----- ------- ---- -- --- ------- --<br>------- ---------- ------ In ----- -- ----- -- ---- ------<br>--- ----- --- --- ------ -------- ----- --- ------ ----- --<br>----- ----- ---------- --- --- ------ ------ ---- -- ------<br>------- --- ------ ----- --- ---- ------- -- ---- --- --<br>------- ------,280527.3450000095,280526.36000001803,280175.112,280189.58000000566,280191.331,280541.695,,15,In
screen,html.Screen,1_1_1_1_16,2021-04-19T09:28:29.031Z,,,,,,,,,,,,,,,,54,,,,,,,,,,,,,,177.22500001388835,,response,,,,100,,,,,,,Space,keypress(Space),,,,,,,,"-- --- ---- --- ------ ----- ------- ---- -- --- ------- --<br>------- ---------- ------ -- 1727, -- ----- -- ---- ------<br>--- ----- --- --- ------ -------- ----- --- ------ ----- --<br>----- ----- ---------- --- --- ------ ------ ---- -- ------<br>------- --- ------ ----- --- ---- ------- -- ---- --- --<br>------- ------",280719.780000014,280718.9200000139,280524.972,280527.5050000055,280541.695,280724.516,,16,"1727,"
screen,html.Screen,1_1_1_1_17,2021-04-19T09:28:29.464Z,,,,,,,,,,,,,,,,54,,,,,,,,,,,,,,427.3140000170679,,response,,,,100,,,,,,,Space,keypress(Space),,,,,,,,-- --- ---- --- ------ ----- ------- ---- -- --- ------- --<br>------- ---------- ------ -- ----- in ----- -- ---- ------<br>--- ----- --- --- ------ -------- ----- --- ------ ----- --<br>----- ----- ---------- --- --- ------ ------ ---- -- ------<br>------- --- ------ ----- --- ---- ------- -- ---- --- --<br>------- ------,281152.7500000084,281151.8300000171,280708.393,280719.9300000211,280724.516,281157.761,,17,in
screen,html.Screen,1_1_1_1_18,2021-04-19T09:28:29.888Z,,,,,,,,,,,,,,,,54,,,,,,,,,,,,,,417.8290000222041,,response,,,,100,,,,,,,Space,keypress(Space),,,,,,,,-- --- ---- --- ------ ----- ------- ---- -- --- ------- --<br>------- ---------- ------ -- ----- -- order -- ---- ------<br>--- ----- --- --- ------ -------- ----- --- ------ ----- --<br>----- ----- ---------- --- --- ------ ------ ---- -- ------<br>------- --- ------ ----- --- ---- ------- -- ---- --- --<br>------- ------,281576.5700000047,281575.5900000222,281141.084,281152.93999999994,281157.761,281591.382,,18,order
screen,html.Screen,1_1_1_1_19,2021-04-19T09:28:30.270Z,,,,,,,,,,,,,,,,54,,,,,,,,,,,,,,365.97800000035204,,response,,,,100,,,,,,,Space,keypress(Space),,,,,,,,-- --- ---- --- ------ ----- ------- ---- -- --- ------- --<br>------- ---------- ------ -- ----- -- ----- to ---- ------<br>--- ----- --- --- ------ -------- ----- --- ------ ----- --<br>----- ----- ---------- --- --- ------ ------ ---- -- ------<br>------- --- ------ ----- --- ---- ------- -- ---- --- --<br>------- ------,281958.255000005,281957.36000000034,281574.597,281576.72000001185,281591.382,281974.575,,19,to
screen,html.Screen,1_1_1_1_20,2021-04-19T09:28:30.651Z,,,,,,,,,,,,,,,,54,,,,,,,,,,,,,,363.67500000068685,,response,,,,100,,,,,,,Space,keypress(Space),,,,,,,,-- --- ---- --- ------ ----- ------- ---- -- --- ------- --<br>------- ---------- ------ -- ----- -- ----- -- save ------<br>--- ----- --- --- ------ -------- ----- --- ------ ----- --<br>----- ----- ---------- --- --- ------ ------ ---- -- ------<br>------- --- ------ ----- --- ---- ------- -- ---- --- --<br>------- ------,282339.0350000118,282338.2500000007,281957.618,281958.42999999877,281974.575,282340.715,,20,save
screen,html.Screen,1_1_1_1_21,2021-04-19T09:28:31.081Z,,,,,,,,,,,,,,,,54,,,,,,,,,,,,,,427.9100000260514,,response,,,,100,,,,,,,Space,keypress(Space),,,,,,,,"-- --- ---- --- ------ ----- ------- ---- -- --- ------- --<br>------- ---------- ------ -- ----- -- ----- -- ---- money,<br>--- ----- --- --- ------ -------- ----- --- ------ ----- --<br>----- ----- ---------- --- --- ------ ------ ---- -- ------<br>------- --- ------ ----- --- ---- ------- -- ---- --- --<br>------- ------",282769.50500000385,282768.6250000261,282324.241,282339.1850000189,282340.715,282773.958,,21,"money,"
screen,html.Screen,1_1_1_1_22,2021-04-19T09:28:31.448Z,,,,,,,,,,,,,,,,54,,,,,,,,,,,,,,361.39200002595317,,response,,,,100,,,,,,,Space,keypress(Space),,,,,,,,-- --- ---- --- ------ ----- ------- ---- -- --- ------- --<br>------- ---------- ------ -- ----- -- ----- -- ---- ------<br>the ----- --- --- ------ -------- ----- --- ------ ----- --<br>----- ----- ---------- --- --- ------ ------ ---- -- ------<br>------- --- ------ ----- --- ---- ------- -- ---- --- --<br>------- ------,283136.2750000262,283135.35000002594,282757.61,282769.66000001994,282773.958,283140.511,,22,the
screen,html.Screen,1_1_1_1_23,2021-04-19T09:28:31.627Z,,,,,,,,,,,,,,,,54,,,,,,,,,,,,,,174.33900002430892,,response,,,,100,,,,,,,Space,keypress(Space),,,,,,,,-- --- ---- --- ------ ----- ------- ---- -- --- ------- --<br>------- ---------- ------ -- ----- -- ----- -- ---- ------<br>--- state --- --- ------ -------- ----- --- ------ ----- --<br>----- ----- ---------- --- --- ------ ------ ---- -- ------<br>------- --- ------ ----- --- ---- ------- -- ---- --- --<br>------- ------,283315.7250000222,283314.8500000243,283124.121,283136.4200000244,283140.511,283323.822,,23,state
screen,html.Screen,1_1_1_1_24,2021-04-19T09:28:32.043Z,,,,,,,,,,,,,,,,54,,,,,,,,,,,,,,406.79300000768853,,response,,,,100,,,,,,,Space,keypress(Space),,,,,,,,-- --- ---- --- ------ ----- ------- ---- -- --- ------- --<br>------- ---------- ------ -- ----- -- ----- -- ---- ------<br>--- ----- cut --- ------ -------- ----- --- ------ ----- --<br>----- ----- ---------- --- --- ------ ------ ---- -- ------<br>------- --- ------ ----- --- ---- ------- -- ---- --- --<br>------- ------,283731.5450000169,283730.6150000077,283307.338,283315.8800000092,283323.822,283740.654,,24,cut
screen,html.Screen,1_1_1_1_25,2021-04-19T09:28:32.311Z,,,,,,,,,,,,,,,,54,,,,,,,,,,,,,,258.02600001881365,,response,,,,100,,,,,,,Space,keypress(Space),,,,,,,,-- --- ---- --- ------ ----- ------- ---- -- --- ------- --<br>------- ---------- ------ -- ----- -- ----- -- ---- ------<br>--- ----- --- the ------ -------- ----- --- ------ ----- --<br>----- ----- ---------- --- --- ------ ------ ---- -- ------<br>------- --- ------ ----- --- ---- ------- -- ---- --- --<br>------- ------,283999.6000000101,283998.6800000188,283723.999,283731.71000002185,283740.654,284007.158,,25,the
screen,html.Screen,1_1_1_1_26,2021-04-19T09:28:32.618Z,,,,,,,,,,,,,,,,54,,,,,,,,,,,,,,297.96200000453973,,response,,,,100,,,,,,,Space,keypress(Space),,,,,,,,-- --- ---- --- ------ ----- ------- ---- -- --- ------- --<br>------- ---------- ------ -- ----- -- ----- -- ---- ------<br>--- ----- --- --- bonds' -------- ----- --- ------ ----- --<br>----- ----- ---------- --- --- ------ ------ ---- -- ------<br>------- --- ------ ----- --- ---- ------- -- ---- --- --<br>------- ------,284306.030000007,284305.12000000454,283990.47,283999.770000024,284007.158,284328.983,,26,bonds'
screen,html.Screen,1_1_1_1_27,2021-04-19T09:28:32.981Z,,,,,,,,,,,,,,,,54,,,,,,,,,,,,,,339.8270000028424,,response,,,,100,,,,,,,Space,keypress(Space),,,,,,,,-- --- ---- --- ------ ----- ------- ---- -- --- ------- --<br>------- ---------- ------ -- ----- -- ----- -- ---- ------<br>--- ----- --- --- ------ interest ----- --- ------ ----- --<br>----- ----- ---------- --- --- ------ ------ ---- -- ------<br>------- --- ------ ----- --- ---- ------- -- ---- --- --<br>------- ------,284669.71500002546,284668.81000000285,284290.48,284306.21000000974,284328.983,284673.923,,27,interest
screen,html.Screen,1_1_1_1_28,2021-04-19T09:28:33.312Z,,,,,,,,,,,,,,,,54,,,,,,,,,,,,,,325.7020000258344,,response,,,,100,,,,,,,Space,keypress(Space),,,,,,,,-- --- ---- --- ------ ----- ------- ---- -- --- ------- --<br>------- ---------- ------ -- ----- -- ----- -- ---- ------<br>--- ----- --- --- ------ -------- rate. --- ------ ----- --<br>----- ----- ---------- --- --- ------ ------ ---- -- ------<br>------- --- ------ ----- --- ---- ------- -- ---- --- --<br>------- ------,285000.6300000241,284999.62500002584,284657.047,284669.8800000013,284673.923,285006.617,,28,rate.
screen,html.Screen,1_1_1_1_29,2021-04-19T09:28:33.692Z,,,,,,,,,,,,,,,,54,,,,,,,,,,,,,,372.51300001569325,,response,,,,100,,,,,,,Space,keypress(Space),,,,,,,,-- --- ---- --- ------ ----- ------- ---- -- --- ------- --<br>------- ---------- ------ -- ----- -- ----- -- ---- ------<br>--- ----- --- --- ------ -------- ----- The ------ ----- --<br>----- ----- ---------- --- --- ------ ------ ---- -- ------<br>------- --- ------ ----- --- ---- ------- -- ---- --- --<br>------- ------,285380.01500000246,285379.1300000157,284990.305,285000.79000002006,285006.617,285390.29,,29,The
screen,html.Screen,1_1_1_1_30,2021-04-19T09:28:33.986Z,,,,,,,,,,,,,,,,54,,,,,,,,,,,,,,283.69000002142275,,response,,,,100,,,,,,,Space,keypress(Space),,,,,,,,-- --- ---- --- ------ ----- ------- ---- -- --- ------- --<br>------- ---------- ------ -- ----- -- ----- -- ---- ------<br>--- ----- --- --- ------ -------- ----- --- market ----- --<br>----- ----- ---------- --- --- ------ ------ ---- -- ------<br>------- --- ------ ----- --- ---- ------- -- ---- --- --<br>------- ------,285674.9050000217,285673.9800000214,285373.444,285380.17000001855,285390.29,285689.774,,30,market
screen,html.Screen,1_1_1_1_31,2021-04-19T09:28:34.317Z,,,,,,,,,,,,,,,,54,,,,,,,,,,,,,,314.2560000109952,,response,,,,100,,,,,,,Space,keypress(Space),,,,,,,,-- --- ---- --- ------ ----- ------- ---- -- --- ------- --<br>------- ---------- ------ -- ----- -- ----- -- ---- ------<br>--- ----- --- --- ------ -------- ----- --- ------ value --<br>----- ----- ---------- --- --- ------ ------ ---- -- ------<br>------- --- ------ ----- --- ---- ------- -- ---- --- --<br>------- ------,286004.95500001125,286004.030000011,285673.515,285675.1050000021,285689.774,286038.499,,31,value
screen,html.Screen,1_1_1_1_32,2021-04-19T09:28:34.619Z,,,,,,,,,,,,,,,,54,,,,,,,,,,,,,,267.7110000097309,,response,,,,100,,,,,,,Space,keypress(Space),,,,,,,,-- --- ---- --- ------ ----- ------- ---- -- --- ------- --<br>------- ---------- ------ -- ----- -- ----- -- ---- ------<br>--- ----- --- --- ------ -------- ----- --- ------ ----- of<br>----- ----- ---------- --- --- ------ ------ ---- -- ------<br>------- --- ------ ----- --- ---- ------- -- ---- --- --<br>------- ------,286307.0650000009,286306.21000000974,285990.088,286005.10999999824,286038.499,286323.405,,32,of
screen,html.Screen,1_1_1_1_33,2021-04-19T09:28:34.907Z,,,,,,,,,,,,,,,,54,,,,,,,,,,,,,,271.2250000068452,,response,,,,100,,,,,,,Space,keypress(Space),,,,,,,,-- --- ---- --- ------ ----- ------- ---- -- --- ------- --<br>------- ---------- ------ -- ----- -- ----- -- ---- ------<br>--- ----- --- --- ------ -------- ----- --- ------ ----- --<br>these ----- ---------- --- --- ------ ------ ---- -- ------<br>------- --- ------ ----- --- ---- ------- -- ---- --- --<br>------- ------,286595.4750000092,286594.6300000069,286306.495,286307.22500002594,286323.405,286606.594,,33,these
screen,html.Screen,1_1_1_1_34,2021-04-19T09:28:35.147Z,,,,,,,,,,,,,,,,54,,,,,,,,,,,,,,227.93600002193125,,response,,,,100,,,,,,,Space,keypress(Space),,,,,,,,-- --- ---- --- ------ ----- ------- ---- -- --- ------- --<br>------- ---------- ------ -- ----- -- ----- -- ---- ------<br>--- ----- --- --- ------ -------- ----- --- ------ ----- --<br>----- bonds ---------- --- --- ------ ------ ---- -- ------<br>------- --- ------ ----- --- ---- ------- -- ---- --- --<br>------- ------,286835.4250000266,286834.5300000219,286589.941,286595.66500000074,286606.594,286839.433,,34,bonds
screen,html.Screen,1_1_1_1_35,2021-04-19T09:28:35.407Z,,,,,,,,,,,,,,,,54,,,,,,,,,,,,,,255.18700001802063,,response,,,,100,,,,,,,Space,keypress(Space),,,,,,,,"-- --- ---- --- ------ ----- ------- ---- -- --- ------- --<br>------- ---------- ------ -- ----- -- ----- -- ---- ------<br>--- ----- --- --- ------ -------- ----- --- ------ ----- --<br>----- ----- plummeted, --- --- ------ ------ ---- -- ------<br>------- --- ------ ----- --- ---- ------- -- ---- --- --<br>------- ------",287095.43500002474,287094.62000001804,286823.166,286835.5900000024,286839.433,287106.411,,35,"plummeted,"
screen,html.Screen,1_1_1_1_36,2021-04-19T09:28:35.830Z,,,,,,,,,,,,,,,,54,,,,,,,,,,,,,,411.14399999851594,,response,,,,100,,,,,,,Space,keypress(Space),,,,,,,,-- --- ---- --- ------ ----- ------- ---- -- --- ------- --<br>------- ---------- ------ -- ----- -- ----- -- ---- ------<br>--- ----- --- --- ------ -------- ----- --- ------ ----- --<br>----- ----- ---------- and --- ------ ------ ---- -- ------<br>------- --- ------ ----- --- ---- ------- -- ---- --- --<br>------- ------,287518.40000000084,287517.55499999854,287089.659,287095.58500000276,287106.411,287522.622,,36,and
screen,html.Screen,1_1_1_1_37,2021-04-19T09:28:36.133Z,,,,,,,,,,,,,,,,54,,,,,,,,,,,,,,297.7880000148434,,response,,,,100,,,,,,,Space,keypress(Space),,,,,,,,-- --- ---- --- ------ ----- ------- ---- -- --- ------- --<br>------- ---------- ------ -- ----- -- ----- -- ---- ------<br>--- ----- --- --- ------ -------- ----- --- ------ ----- --<br>----- ----- ---------- --- the ------ ------ ---- -- ------<br>------- --- ------ ----- --- ---- ------- -- ---- --- --<br>------- ------,287821.2850000127,287820.4100000148,287506.148,287518.59500000137,287522.622,287843.24,,37,the
screen,html.Screen,1_1_1_1_38,2021-04-19T09:28:36.399Z,,,,,,,,,,,,,,,,54,,,,,,,,,,,,,,243.7250000240747,,response,,,,100,,,,,,,Space,keypress(Space),,,,,,,,-- --- ---- --- ------ ----- ------- ---- -- --- ------- --<br>------- ---------- ------ -- ----- -- ----- -- ---- ------<br>--- ----- --- --- ------ -------- ----- --- ------ ----- --<br>----- ----- ---------- --- --- market ------ ---- -- ------<br>------- --- ------ ----- --- ---- ------- -- ---- --- --<br>------- ------,288087.8850000154,288086.96500002407,287805.925,287821.45000001765,287843.24,288105.792,,38,market
screen,html.Screen,1_1_1_1_39,2021-04-19T09:28:36.697Z,,,,,,,,,,,,,,,,54,,,,,,,,,,,,,,278.9480000085896,,response,,,,100,,,,,,,Space,keypress(Space),,,,,,,,-- --- ---- --- ------ ----- ------- ---- -- --- ------- --<br>------- ---------- ------ -- ----- -- ----- -- ---- ------<br>--- ----- --- --- ------ -------- ----- --- ------ ----- --<br>----- ----- ---------- --- --- ------ became ---- -- ------<br>------- --- ------ ----- --- ---- ------- -- ---- --- --<br>------- ------,288385.54500002647,288384.7400000086,288072.692,288088.3250000188,288105.792,288389.013,,39,became
screen,html.Screen,1_1_1_1_40,2021-04-19T09:28:37.025Z,,,,,,,,,,,,,,,,54,,,,,,,,,,,,,,322.92700000834884,,response,,,,100,,,,,,,Space,keypress(Space),,,,,,,,-- --- ---- --- ------ ----- ------- ---- -- --- ------- --<br>------- ---------- ------ -- ----- -- ----- -- ---- ------<br>--- ----- --- --- ------ -------- ----- --- ------ ----- --<br>----- ----- ---------- --- --- ------ ------ wary -- ------<br>------- --- ------ ----- --- ---- ------- -- ---- --- --<br>------- ------,288713.01000000676,288711.9400000083,288372.567,288385.6950000045,288389.013,288722.641,,40,wary
screen,html.Screen,1_1_1_1_41,2021-04-19T09:28:37.334Z,,,,,,,,,,,,,,,,54,,,,,,,,,,,,,,298.5290000218083,,response,,,,100,,,,,,,Space,keypress(Space),,,,,,,,-- --- ---- --- ------ ----- ------- ---- -- --- ------- --<br>------- ---------- ------ -- ----- -- ----- -- ---- ------<br>--- ----- --- --- ------ -------- ----- --- ------ ----- --<br>----- ----- ---------- --- --- ------ ------ ---- of ------<br>------- --- ------ ----- --- ---- ------- -- ---- --- --<br>------- ------,289021.99500001734,289021.1700000218,288705.826,288713.2800000254,288722.641,289039.201,,41,of
screen,html.Screen,1_1_1_1_42,2021-04-19T09:28:37.619Z,,,,,,,,,,,,,,,,54,,,,,,,,,,,,,,266.9340000207303,,response,,,,100,,,,,,,Space,keypress(Space),,,,,,,,-- --- ---- --- ------ ----- ------- ---- -- --- ------- --<br>------- ---------- ------ -- ----- -- ----- -- ---- ------<br>--- ----- --- --- ------ -------- ----- --- ------ ----- --<br>----- ----- ---------- --- --- ------ ------ ---- -- French<br>------- --- ------ ----- --- ---- ------- -- ---- --- --<br>------- ------,289307.0300000254,289306.13500002073,289022.613,289022.2450000001,289039.201,289322.092,,42,French
screen,html.Screen,1_1_1_1_43,2021-04-19T09:28:37.921Z,,,,,,,,,,,,,,,,54,,,,,,,,,,,,,,286.2230000194977,,response,,,,100,,,,,,,Space,keypress(Space),,,,,,,,-- --- ---- --- ------ ----- ------- ---- -- --- ------- --<br>------- ---------- ------ -- ----- -- ----- -- ---- ------<br>--- ----- --- --- ------ -------- ----- --- ------ ----- --<br>----- ----- ---------- --- --- ------ ------ ---- -- ------<br>credit. --- ------ ----- --- ---- ------- -- ---- --- --<br>------- ------,289609.220000013,289608.3150000195,289305.397,289307.19500000123,289322.092,289622.317,,43,credit.
screen,html.Screen,1_1_1_1_44,2021-04-19T09:28:38.400Z,,,,,,,,,,,,,,,,54,,,,,,,,,,,,,,465.5429999996559,,response,,,,100,,,,,,,Space,keypress(Space),,,,,,,,-- --- ---- --- ------ ----- ------- ---- -- --- ------- --<br>------- ---------- ------ -- ----- -- ----- -- ---- ------<br>--- ----- --- --- ------ -------- ----- --- ------ ----- --<br>----- ----- ---------- --- --- ------ ------ ---- -- ------<br>------- The ------ ----- --- ---- ------- -- ---- --- --<br>------- ------,290088.91500000027,290087.85999999964,289605.773,289609.375,289622.317,290105.613,,44,The
screen,html.Screen,1_1_1_1_45,2021-04-19T09:28:38.685Z,,,,,,,,,,,,,,,,54,,,,,,,,,,,,,,267.1820000029402,,response,,,,100,,,,,,,Space,keypress(Space),,,,,,,,-- --- ---- --- ------ ----- ------- ---- -- --- ------- --<br>------- ---------- ------ -- ----- -- ----- -- ---- ------<br>--- ----- --- --- ------ -------- ----- --- ------ ----- --<br>----- ----- ---------- --- --- ------ ------ ---- -- ------<br>------- --- French ----- --- ---- ------- -- ---- --- --<br>------- ------,290373.73500000103,290372.79500000295,290088.925,290089.2350000213,290105.613,290388.441,,45,French
screen,html.Screen,1_1_1_1_46,2021-04-19T09:28:39.046Z,,,,,,,,,,,,,,,,54,,,,,,,,,,,,,,344.77900002372917,,response,,,,100,,,,,,,Space,keypress(Space),,,,,,,,-- --- ---- --- ------ ----- ------- ---- -- --- ------- --<br>------- ---------- ------ -- ----- -- ----- -- ---- ------<br>--- ----- --- --- ------ -------- ----- --- ------ ----- --<br>----- ----- ---------- --- --- ------ ------ ---- -- ------<br>------- --- ------ state --- ---- ------- -- ---- --- --<br>------- ------,290734.1149999993,290733.2200000237,290372.144,290373.88500000816,290388.441,290738.309,,46,state
screen,html.Screen,1_1_1_1_47,2021-04-19T09:28:39.300Z,,,,,,,,,,,,,,,,54,,,,,,,,,,,,,,249.2660000064643,,response,,,,100,,,,,,,Space,keypress(Space),,,,,,,,-- --- ---- --- ------ ----- ------- ---- -- --- ------- --<br>------- ---------- ------ -- ----- -- ----- -- ---- ------<br>--- ----- --- --- ------ -------- ----- --- ------ ----- --<br>----- ----- ---------- --- --- ------ ------ ---- -- ------<br>------- --- ------ ----- was ---- ------- -- ---- --- --<br>------- ------,290988.38000002434,290987.5750000065,290721.689,290734.2850000132,290738.309,291005.354,,47,was
screen,html.Screen,1_1_1_1_48,2021-04-19T09:28:39.541Z,,,,,,,,,,,,,,,,54,,,,,,,,,,,,,,223.2910000247066,,response,,,,100,,,,,,,Space,keypress(Space),,,,,,,,-- --- ---- --- ------ ----- ------- ---- -- --- ------- --<br>------- ---------- ------ -- ----- -- ----- -- ---- ------<br>--- ----- --- --- ------ -------- ----- --- ------ ----- --<br>----- ----- ---------- --- --- ------ ------ ---- -- ------<br>------- --- ------ ----- --- left ------- -- ---- --- --<br>------- ------,291229.52500000247,291228.6450000247,290988.582,290988.58000000473,291005.354,291238.2,,48,left
screen,html.Screen,1_1_1_1_49,2021-04-19T09:28:39.769Z,,,,,,,,,,,,,,,,54,,,,,,,,,,,,,,218.14000000426313,,response,,,,100,,,,,,,Space,keypress(Space),,,,,,,,-- --- ---- --- ------ ----- ------- ---- -- --- ------- --<br>------- ---------- ------ -- ----- -- ----- -- ---- ------<br>--- ----- --- --- ------ -------- ----- --- ------ ----- --<br>----- ----- ---------- --- --- ------ ------ ---- -- ------<br>------- --- ------ ----- --- ---- without -- ---- --- --<br>------- ------,291457.0400000084,291456.3400000043,291221.884,291229.7650000255,291238.2,291471.826,,49,without
screen,html.Screen,1_1_1_1_50,2021-04-19T09:28:40.109Z,,,,,,,,,,,,,,,,54,,,,,,,,,,,,,,324.4240000139689,,response,,,,100,,,,,,,Space,keypress(Space),,,,,,,,-- --- ---- --- ------ ----- ------- ---- -- --- ------- --<br>------- ---------- ------ -- ----- -- ----- -- ---- ------<br>--- ----- --- --- ------ -------- ----- --- ------ ----- --<br>----- ----- ---------- --- --- ------ ------ ---- -- ------<br>------- --- ------ ----- --- ---- ------- an ---- --- --<br>------- ------,291797.27999999886,291796.25000001397,291455.147,291457.20500001335,291471.826,291804.806,,50,an
screen,html.Screen,1_1_1_1_51,2021-04-19T09:28:40.356Z,,,,,,,,,,,,,,,,54,,,,,,,,,,,,,,238.74900001112837,,response,,,,100,,,,,,,Space,keypress(Space),,,,,,,,-- --- ---- --- ------ ----- ------- ---- -- --- ------- --<br>------- ---------- ------ -- ----- -- ----- -- ---- ------<br>--- ----- --- --- ------ -------- ----- --- ------ ----- --<br>----- ----- ---------- --- --- ------ ------ ---- -- ------<br>------- --- ------ ----- --- ---- ------- -- easy --- --<br>------- ------,292044.41000000224,292043.5550000111,291788.471,291797.430000006,291804.806,292055.008,,51,easy
screen,html.Screen,1_1_1_1_52,2021-04-19T09:28:40.665Z,,,,,,,,,,,,,,,,54,,,,,,,,,,,,,,297.76700000668643,,response,,,,100,,,,,,,Space,keypress(Space),,,,,,,,-- --- ---- --- ------ ----- ------- ---- -- --- ------- --<br>------- ---------- ------ -- ----- -- ----- -- ---- ------<br>--- ----- --- --- ------ -------- ----- --- ------ ----- --<br>----- ----- ---------- --- --- ------ ------ ---- -- ------<br>------- --- ------ ----- --- ---- ------- -- ---- way --<br>------- ------,292353.5950000223,292352.77500000666,292038.178,292044.5699999982,292055.008,292374.662,,52,way
screen,html.Screen,1_1_1_1_53,2021-04-19T09:28:40.945Z,,,,,,,,,,,,,,,,54,,,,,,,,,,,,,,257.8280000181403,,response,,,,100,,,,,,,Space,keypress(Space),,,,,,,,-- --- ---- --- ------ ----- ------- ---- -- --- ------- --<br>------- ---------- ------ -- ----- -- ----- -- ---- ------<br>--- ----- --- --- ------ -------- ----- --- ------ ----- --<br>----- ----- ---------- --- --- ------ ------ ---- -- ------<br>------- --- ------ ----- --- ---- ------- -- ---- --- of<br>------- ------,292633.4000000206,292632.49000001815,292337.92,292353.7500000093,292374.662,292637.737,,53,of
screen,html.Screen,1_1_1_1_54,2021-04-19T09:28:41.241Z,,,,,,,,,,,,,,,,54,,,,,,,,,,,,,,290.6880000200472,,response,,,,100,,,,,,,Space,keypress(Space),,,,,,,,-- --- ---- --- ------ ----- ------- ---- -- --- ------- --<br>------- ---------- ------ -- ----- -- ----- -- ---- ------<br>--- ----- --- --- ------ -------- ----- --- ------ ----- --<br>----- ----- ---------- --- --- ------ ------ ---- -- ------<br>------- --- ------ ----- --- ---- ------- -- ---- --- --<br>raising ------,292929.32000002475,292928.42500002007,292621.389,292633.5900000122,292637.737,292938.081,,54,raising
screen,html.Screen,1_1_1_1_55,2021-04-19T09:28:41.585Z,,,,,,,,,,,,,,,,54,,,,,,,,,,,,,,334.2990000094287,,response,,,,100,,,,,,,Space,keypress(Space),,,,,,,,-- --- ---- --- ------ ----- ------- ---- -- --- ------- --<br>------- ---------- ------ -- ----- -- ----- -- ---- ------<br>--- ----- --- --- ------ -------- ----- --- ------ ----- --<br>----- ----- ---------- --- --- ------ ------ ---- -- ------<br>------- --- ------ ----- --- ---- ------- -- ---- --- --<br>------- money.,293273.48500001244,293272.38000000943,292921.242,292929.47500001173,292938.081,293287.673,,55,money.
Item 100,flow.Loop,1_1_1_1,2021-04-19T09:28:41.585Z,,,,,,,,,,,,,,,,,,,,,,,,,,,,,,19678.92300000944,,completion,,,,,E,,,,,,,,,,,silence,,,,,293273.77500000875,293272.38000000943,273576.576,273584.5000000263,273593.457,293287.673,,,
Question 1,html.Screen,1_1_1_2,2021-04-19T09:28:44.861Z,,,,,,,,,,,,,,,,,,,,,,,,,,,true,TRUE,,3260.122000020405,,response,,,,100,E,,,,,,TRUE,click #choice-1,,,,silence,,,,,296549.0250000148,296547.7950000204,293271.299,293273.9050000091,293287.673,296553.788,,,
Question 2,html.Screen,1_1_1_3,2021-04-19T09:28:46.959Z,,,,,,,,,,,,,,,,,,,,,,,,,,,true,FALSE,,2092.397000019613,,response,,,,100,E,,,,,,FALSE,click #choice-2,,,,silence,,,,,298647.4800000142,298646.1850000196,296536.682,296549.2250000243,296553.788,298652.694,,,
Item 100,flow.Sequence,1_1_1,2021-04-19T09:28:46.959Z,,,,,,,,,,,,,,,,,,,,,,,,,,,,,,35049.596000019636,,completion,,,,,,,,,,,,,,,,,,,,,298647.79000001727,298646.1850000196,263579.468,263565.5150000239,263596.589,298652.694,,,
End of Practice,html.Page,1_1_2,2021-04-19T09:28:48.996Z,,,,,,,,,,,,,,,,,,,,,,,,,,,,,,2031.326000015135,,form submission,,,,,,,,,,,,,,,,,,,,,300684.4900000142,300684.02000001515,298636.255,298647.98999999766,298652.694,300685.476,,,
Practice,flow.Sequence,1_1,2021-04-19T09:28:48.996Z,,,,,,,,,,,,,,,,,,,,,,,,,,,,,,85690.49300001515,,completion,,,,,,,,,,,,,,,,,,,,,300684.72499999916,300684.02000001515,214977.158,214982.79999999795,214993.527,300685.476,,,
Trap_instruction,html.Page,1_2_0,2021-04-19T09:28:53.597Z,,,,,,,,,,,,,,,,,,,,,,,,,,,,,,4599.854000013322,,form submission,,,,,,,,,,,,,,,,,,,,,305285.8400000259,305285.33000001335,300668.977,300684.8750000063,300685.476,305300.805,,,
trap_trial,html.Screen,1_2_1,2021-04-19T09:28:56.581Z,,,,,,,,,,,,,,,,,,,,,,,,,,,true,1,,2969.6750000065076,,response,,,,,,,,,,,1,click #choice-1,,,,,,,,,308271.88500002376,308270.4800000065,305284.483,305286.00500000175,305300.805,308283.375,,,
end of trap trial,html.Page,1_2_2,2021-04-19T09:28:58.588Z,,,,,,,,,,,,,,,,,,,,,,,,,,,,,,1995.175000017276,,form submission,,,,,,,,,,,,,,,,,,,,,310279.0200000163,310278.5500000173,308266.607,308272.07000000635,308283.375,310282.654,,,
Trap 1,flow.Sequence,1_2,2021-04-19T09:28:58.589Z,,,,,,,,,,,,,,,,,,,,,,,,,,,,,,9593.074000017252,,completion,,,,,,,,,,,,,,,,,,,,,310279.2350000236,310278.5500000173,300668.977,300684.8250000039,300685.476,310282.654,,,
Standby,html.Page,1_3_0,2021-04-19T09:29:06.575Z,,,,,,,,,,,,,,,,,,,,,,,,,,,,,,7997.864000000001,,timeout,,,,,,,,,,,,,,,,,,,,,318265.26500002365,318264.037,310266.069,310279.3800000218,310282.654,318280.518,,,
Holding screen,html.Screen,1_3_1_0_0,2021-04-19T09:29:13.572Z,,,,,,,,,,,,,,,,,,,,,,,,,,,,,,6997.786000000022,,timeout,,,,,,,,,,,,,,,,,,,,,325263.09500000207,325262.064,318264.037,318265.5150000064,318280.518,325278.304,,,
screen,html.Screen,1_3_1_0_1_0,2021-04-19T09:29:14.252Z,,,,,,,,,,,,,,,,2,,,,,,,,,,,,,,663.3210000067484,,response,,,,1,E,,,,,,Space,keypress(Space),,,,lyrical,,,,Two ---- ------ --- ------- ---------- ------- ----------<br>--- --------- --- ----------- ------- ----- ------- ---<br>--------- ---- -- --- ---- -- --------- -- ---- -------<br>-- --------- ------ --- ----- ------ ---- --- --------- --<br>------ - ---- -- --- ----------- ------- ---- ----- -----<br>--- -------- - ------ ---- -- ----- ---- --- --- -----------<br>-- -------,325942.8000000189,325941.62500000675,325262.064,325263.3800000185,325278.304,325944.749,,0,Two
screen,html.Screen,1_3_1_0_1_1,2021-04-19T09:29:14.552Z,,,,,,,,,,,,,,,,2,,,,,,,,,,,,,,296.61600002349587,,response,,,,1,E,,,,,,Space,keypress(Space),,,,lyrical,,,,--- days ------ --- ------- ---------- ------- ----------<br>--- --------- --- ----------- ------- ----- ------- ---<br>--------- ---- -- --- ---- -- --------- -- ---- -------<br>-- --------- ------ --- ----- ------ ---- --- --------- --<br>------ - ---- -- --- ----------- ------- ---- ----- -----<br>--- -------- - ------ ---- -- ----- ---- --- --- -----------<br>-- -------,326242.3150000104,326241.3650000235,325928.406,325943.0800000264,325944.749,326244.633,,1,days
screen,html.Screen,1_3_1_0_1_2,2021-04-19T09:29:14.948Z,,,,,,,,,,,,,,,,2,,,,,,,,,,,,,,393.4020000108867,,response,,,,1,E,,,,,,Space,keypress(Space),,,,lyrical,,,,"--- ---- later, --- ------- ---------- ------- ----------<br>--- --------- --- ----------- ------- ----- ------- ---<br>--------- ---- -- --- ---- -- --------- -- ---- -------<br>-- --------- ------ --- ----- ------ ---- --- --------- --<br>------ - ---- -- --- ----------- ------- ---- ----- -----<br>--- -------- - ------ ---- -- ----- ---- --- --- -----------<br>-- -------",326638.91500001773,326638.03500001086,326228.081,326242.48000001535,326244.633,326644.572,,2,"later,"
screen,html.Screen,1_3_1_0_1_3,2021-04-19T09:29:15.312Z,,,,,,,,,,,,,,,,2,,,,,,,,,,,,,,357.0179999998654,,response,,,,1,E,,,,,,Space,keypress(Space),,,,lyrical,,,,--- ---- ------ the ------- ---------- ------- ----------<br>--- --------- --- ----------- ------- ----- ------- ---<br>--------- ---- -- --- ---- -- --------- -- ---- -------<br>-- --------- ------ --- ----- ------ ---- --- --------- --<br>------ - ---- -- --- ----------- ------- ---- ----- -----<br>--- -------- - ------ ---- -- ----- ---- --- --- -----------<br>-- -------,327002.4700000067,327001.58999999985,326628.14,326639.0900000115,326644.572,327011.127,,3,the
screen,html.Screen,1_3_1_0_1_4,2021-04-19T09:29:15.664Z,,,,,,,,,,,,,,,,2,,,,,,,,,,,,,,342.1530000102939,,response,,,,1,E,,,,,,Space,keypress(Space),,,,lyrical,,,,--- ---- ------ --- British ---------- ------- ----------<br>--- --------- --- ----------- ------- ----- ------- ---<br>--------- ---- -- --- ---- -- --------- -- ---- -------<br>-- --------- ------ --- ----- ------ ---- --- --------- --<br>------ - ---- -- --- ----------- ------- ---- ----- -----<br>--- -------- - ------ ---- -- ----- ---- --- --- -----------<br>-- -------,327354.2450000241,327353.2800000103,326994.75,327002.63500001165,327011.127,327361.071,,4,British
screen,html.Screen,1_3_1_0_1_5,2021-04-19T09:29:16.080Z,,,,,,,,,,,,,,,,2,,,,,,,,,,,,,,408.36400002380833,,response,,,,1,E,,,,,,Space,keypress(Space),,,,lyrical,,,,--- ---- ------ --- ------- astronomer ------- ----------<br>--- --------- --- ----------- ------- ----- ------- ---<br>--------- ---- -- --- ---- -- --------- -- ---- -------<br>-- --------- ------ --- ----- ------ ---- --- --------- --<br>------ - ---- -- --- ----------- ------- ---- ----- -----<br>--- -------- - ------ ---- -- ----- ---- --- --- -----------<br>-- -------,327770.3750000219,327769.4350000238,327344.526,327354.43500001566,327361.071,327777.633,,5,astronomer
screen,html.Screen,1_3_1_0_1_6,2021-04-19T09:29:16.508Z,,,,,,,,,,,,,,,,2,,,,,,,,,,,,,,419.85700002050726,,response,,,,1,E,,,,,,Space,keypress(Space),,,,lyrical,,,,--- ---- ------ --- ------- ---------- Richard ----------<br>--- --------- --- ----------- ------- ----- ------- ---<br>--------- ---- -- --- ---- -- --------- -- ---- -------<br>-- --------- ------ --- ----- ------ ---- --- --------- --<br>------ - ---- -- --- ----------- ------- ---- ----- -----<br>--- -------- - ------ ---- -- ----- ---- --- --- -----------<br>-- -------,328198.3450000116,328197.4900000205,327760.988,327770.5450000067,327777.633,328211.187,,6,Richard
screen,html.Screen,1_3_1_0_1_7,2021-04-19T09:29:17.244Z,,,,,,,,,,,,,,,,2,,,,,,,,,,,,,,722.6129999989062,,response,,,,1,E,,,,,,Space,keypress(Space),,,,lyrical,,,,--- ---- ------ --- ------- ---------- ------- Carrington<br>--- --------- --- ----------- ------- ----- ------- ---<br>--------- ---- -- --- ---- -- --------- -- ---- -------<br>-- --------- ------ --- ----- ------ ---- --- --------- --<br>------ - ---- -- --- ----------- ------- ---- ----- -----<br>--- -------- - ------ ---- -- ----- ---- --- --- -----------<br>-- -------,328934.93000001763,328933.7999999989,328194.433,328198.5350000032,328211.187,328944.249,,7,Carrington
screen,html.Screen,1_3_1_0_1_8,2021-04-19T09:29:17.648Z,,,,,,,,,,,,,,,,2,,,,,,,,,,,,,,393.58600001299055,,response,,,,1,E,,,,,,Space,keypress(Space),,,,lyrical,,,,--- ---- ------ --- ------- ---------- ------- ----------<br>was --------- --- ----------- ------- ----- ------- ---<br>--------- ---- -- --- ---- -- --------- -- ---- -------<br>-- --------- ------ --- ----- ------ ---- --- --------- --<br>------ - ---- -- --- ----------- ------- ---- ----- -----<br>--- -------- - ------ ---- -- ----- ---- --- --- -----------<br>-- -------,329338.6950000131,329337.835000013,328927.587,328935.1500000048,328944.249,329343.772,,8,was
screen,html.Screen,1_3_1_0_1_9,2021-04-19T09:29:17.918Z,,,,,,,,,,,,,,,,2,,,,,,,,,,,,,,264.458000012557,,response,,,,1,E,,,,,,Space,keypress(Space),,,,lyrical,,,,--- ---- ------ --- ------- ---------- ------- ----------<br>--- observing --- ----------- ------- ----- ------- ---<br>--------- ---- -- --- ---- -- --------- -- ---- -------<br>-- --------- ------ --- ----- ------ ---- --- --------- --<br>------ - ---- -- --- ----------- ------- ---- ----- -----<br>--- -------- - ------ ---- -- ----- ---- --- --- -----------<br>-- -------,329609.17000001064,329608.23000001255,329327.437,329338.88500000467,329343.772,329633.632,,9,observing
screen,html.Screen,1_3_1_0_1_10,2021-04-19T09:29:18.240Z,,,,,,,,,,,,,,,,2,,,,,,,,,,,,,,295.81300001614727,,response,,,,1,E,,,,,,Space,keypress(Space),,,,lyrical,,,,--- ---- ------ --- ------- ---------- ------- ----------<br>--- --------- the ----------- ------- ----- ------- ---<br>--------- ---- -- --- ---- -- --------- -- ---- -------<br>-- --------- ------ --- ----- ------ ---- --- --------- --<br>------ - ---- -- --- ----------- ------- ---- ----- -----<br>--- -------- - ------ ---- -- ----- ---- --- --- -----------<br>-- -------,329930.4500000144,329929.44500001613,329593.965,329609.33500001556,329633.632,329943.98,,10,the
screen,html.Screen,1_3_1_0_1_11,2021-04-19T09:29:18.544Z,,,,,,,,,,,,,,,,2,,,,,,,,,,,,,,289.67999999807216,,response,,,,1,E,,,,,,Space,keypress(Space),,,,lyrical,,,,--- ---- ------ --- ------- ---------- ------- ----------<br>--- --------- --- interesting ------- ----- ------- ---<br>--------- ---- -- --- ---- -- --------- -- ---- -------<br>-- --------- ------ --- ----- ------ ---- --- --------- --<br>------ - ---- -- --- ----------- ------- ---- ----- -----<br>--- -------- - ------ ---- -- ----- ---- --- --- -----------<br>-- -------,330234.69000001205,330233.65999999805,329927.259,329930.6199999992,329943.98,330243.497,,11,interesting
screen,html.Screen,1_3_1_0_1_12,2021-04-19T09:29:18.871Z,,,,,,,,,,,,,,,,2,,,,,,,,,,,,,,317.0080000013113,,response,,,,1,E,,,,,,Space,keypress(Space),,,,lyrical,,,,--- ---- ------ --- ------- ---------- ------- ----------<br>--- --------- --- ----------- sunspot ----- ------- ---<br>--------- ---- -- --- ---- -- --------- -- ---- -------<br>-- --------- ------ --- ----- ------ ---- --- --------- --<br>------ - ---- -- --- ----------- ------- ---- ----- -----<br>--- -------- - ------ ---- -- ----- ---- --- --- -----------<br>-- -------,330561.5900000266,330560.5050000013,330226.949,330234.96500001056,330243.497,330576.904,,12,sunspot
screen,html.Screen,1_3_1_0_1_13,2021-04-19T09:29:19.459Z,,,,,,,,,,,,,,,,2,,,,,,,,,,,,,,571.581000012462,,response,,,,1,E,,,,,,Space,keypress(Space),,,,lyrical,,,,--- ---- ------ --- ------- ---------- ------- ----------<br>--- --------- --- ----------- ------- group ------- ---<br>--------- ---- -- --- ---- -- --------- -- ---- -------<br>-- --------- ------ --- ----- ------ ---- --- --------- --<br>------ - ---- -- --- ----------- ------- ---- ----- -----<br>--- -------- - ------ ---- -- ----- ---- --- --- -----------<br>-- -------,331149.4100000127,331148.48500001244,330560.394,330561.7650000204,330576.904,331160.274,,13,group
screen,html.Screen,1_3_1_0_1_14,2021-04-19T09:29:19.793Z,,,,,,,,,,,,,,,,2,,,,,,,,,,,,,,322.3159999996424,,response,,,,1,E,,,,,,Space,keypress(Space),,,,lyrical,,,,--- ---- ------ --- ------- ---------- ------- ----------<br>--- --------- --- ----------- ------- ----- through ---<br>--------- ---- -- --- ---- -- --------- -- ---- -------<br>-- --------- ------ --- ----- ------ ---- --- --------- --<br>------ - ---- -- --- ----------- ------- ---- ----- -----<br>--- -------- - ------ ---- -- ----- ---- --- --- -----------<br>-- -------,331483.74000002514,331482.5899999996,331143.306,331149.57500001765,331160.274,331493.504,,14,through
screen,html.Screen,1_3_1_0_1_15,2021-04-19T09:29:20.094Z,,,,,,,,,,,,,,,,2,,,,,,,,,,,,,,290.4210000251769,,response,,,,1,E,,,,,,Space,keypress(Space),,,,lyrical,,,,--- ---- ------ --- ------- ---------- ------- ----------<br>--- --------- --- ----------- ------- ----- ------- his<br>--------- ---- -- --- ---- -- --------- -- ---- -------<br>-- --------- ------ --- ----- ------ ---- --- --------- --<br>------ - ---- -- --- ----------- ------- ---- ----- -----<br>--- -------- - ------ ---- -- ----- ---- --- --- -----------<br>-- -------,331784.9649999989,331783.9250000252,331476.777,331483.8950000121,331493.504,331793.24,,15,his
screen,html.Screen,1_3_1_0_1_16,2021-04-19T09:29:20.475Z,,,,,,,,,,,,,,,,2,,,,,,,,,,,,,,371.36499999812804,,response,,,,1,E,,,,,,Space,keypress(Space),,,,lyrical,,,,--- ---- ------ --- ------- ---------- ------- ----------<br>--- --------- --- ----------- ------- ----- ------- ---<br>telescope ---- -- --- ---- -- --------- -- ---- -------<br>-- --------- ------ --- ----- ------ ---- --- --------- --<br>------ - ---- -- --- ----------- ------- ---- ----- -----<br>--- -------- - ------ ---- -- ----- ---- --- --- -----------<br>-- -------,332165.52000000956,332164.6049999981,331776.612,331785.13000000385,331793.24,332176.376,,16,telescope
screen,html.Screen,1_3_1_0_1_17,2021-04-19T09:29:20.829Z,,,,,,,,,,,,,,,,2,,,,,,,,,,,,,,342.60900000244146,,response,,,,1,E,,,,,,Space,keypress(Space),,,,lyrical,,,,--- ---- ------ --- ------- ---------- ------- ----------<br>--- --------- --- ----------- ------- ----- ------- ---<br>--------- when -- --- ---- -- --------- -- ---- -------<br>-- --------- ------ --- ----- ------ ---- --- --------- --<br>------ - ---- -- --- ----------- ------- ---- ----- -----<br>--- -------- - ------ ---- -- ----- ---- --- --- -----------<br>-- -------,332519.92000002065,332518.98500000243,332159.716,332165.76500001247,332176.376,332526.188,,17,when
screen,html.Screen,1_3_1_0_1_18,2021-04-19T09:29:21.135Z,,,,,,,,,,,,,,,,2,,,,,,,,,,,,,,298.13700002321275,,response,,,,1,E,,,,,,Space,keypress(Space),,,,lyrical,,,,--- ---- ------ --- ------- ---------- ------- ----------<br>--- --------- --- ----------- ------- ----- ------- ---<br>--------- ---- he --- ---- -- --------- -- ---- -------<br>-- --------- ------ --- ----- ------ ---- --- --------- --<br>------ - ---- -- --- ----------- ------- ---- ----- -----<br>--- -------- - ------ ---- -- ----- ---- --- --- -----------<br>-- -------,332825.2350000257,332824.32500002324,332509.79,332520.1100000122,332526.188,332859.693,,18,he
screen,html.Screen,1_3_1_0_1_19,2021-04-19T09:29:21.400Z,,,,,,,,,,,,,,,,2,,,,,,,,,,,,,,229.70700002618833,,response,,,,1,E,,,,,,Space,keypress(Space),,,,lyrical,,,,--- ---- ------ --- ------- ---------- ------- ----------<br>--- --------- --- ----------- ------- ----- ------- ---<br>--------- ---- -- saw ---- -- --------- -- ---- -------<br>-- --------- ------ --- ----- ------ ---- --- --------- --<br>------ - ---- -- --- ----------- ------- ---- ----- -----<br>--- -------- - ------ ---- -- ----- ---- --- --- -----------<br>-- -------,333090.3400000243,333089.4000000262,332844.494,332825.43000002624,332859.693,333092.675,,19,saw
screen,html.Screen,1_3_1_0_1_20,2021-04-19T09:29:21.677Z,,,,,,,,,,,,,,,,2,,,,,,,,,,,,,,274.27000001614215,,response,,,,1,E,,,,,,Space,keypress(Space),,,,lyrical,,,,--- ---- ------ --- ------- ---------- ------- ----------<br>--- --------- --- ----------- ------- ----- ------- ---<br>--------- ---- -- --- what -- --------- -- ---- -------<br>-- --------- ------ --- ----- ------ ---- --- --------- --<br>------ - ---- -- --- ----------- ------- ---- ----- -----<br>--- -------- - ------ ---- -- ----- ---- --- --- -----------<br>-- -------,333367.8550000186,333366.94500001613,333076.434,333090.5400000047,333092.675,333375.999,,20,what
screen,html.Screen,1_3_1_0_1_21,2021-04-19T09:29:21.973Z,,,,,,,,,,,,,,,,2,,,,,,,,,,,,,,287.33100001030834,,response,,,,1,E,,,,,,Space,keypress(Space),,,,lyrical,,,,--- ---- ------ --- ------- ---------- ------- ----------<br>--- --------- --- ----------- ------- ----- ------- ---<br>--------- ---- -- --- ---- he --------- -- ---- -------<br>-- --------- ------ --- ----- ------ ---- --- --------- --<br>------ - ---- -- --- ----------- ------- ---- ----- -----<br>--- -------- - ------ ---- -- ----- ---- --- --- -----------<br>-- -------,333664.15500000585,333663.3300000103,333359.58,333368.0250000034,333375.999,333676.086,,21,he
screen,html.Screen,1_3_1_0_1_22,2021-04-19T09:29:22.237Z,,,,,,,,,,,,,,,,2,,,,,,,,,,,,,,251.07900000095833,,response,,,,1,E,,,,,,Space,keypress(Space),,,,lyrical,,,,--- ---- ------ --- ------- ---------- ------- ----------<br>--- --------- --- ----------- ------- ----- ------- ---<br>--------- ---- -- --- ---- -- described -- ---- -------<br>-- --------- ------ --- ----- ------ ---- --- --------- --<br>------ - ---- -- --- ----------- ------- ---- ----- -----<br>--- -------- - ------ ---- -- ----- ---- --- --- -----------<br>-- -------,333927.95500002103,333927.16500000097,333659.294,333664.31000002194,333676.086,333942.574,,22,described
screen,html.Screen,1_3_1_0_1_23,2021-04-19T09:29:22.581Z,,,,,,,,,,,,,,,,2,,,,,,,,,,,,,,327.79100000392646,,response,,,,1,E,,,,,,Space,keypress(Space),,,,lyrical,,,,--- ---- ------ --- ------- ---------- ------- ----------<br>--- --------- --- ----------- ------- ----- ------- ---<br>--------- ---- -- --- ---- -- --------- as ---- -------<br>-- --------- ------ --- ----- ------ ---- --- --------- --<br>------ - ---- -- --- ----------- ------- ---- ----- -----<br>--- -------- - ------ ---- -- ----- ---- --- --- -----------<br>-- -------,334271.36500002234,334270.36500000395,333926.143,333928.110000008,333942.574,334275.733,,23,as
screen,html.Screen,1_3_1_0_1_24,2021-04-19T09:29:22.811Z,,,,,,,,,,,,,,,,2,,,,,,,,,,,,,,224.64700001222081,,response,,,,1,E,,,,,,Space,keypress(Space),,,,lyrical,,,,"--- ---- ------ --- ------- ---------- ------- ----------<br>--- --------- --- ----------- ------- ----- ------- ---<br>--------- ---- -- --- ---- -- --------- -- ""two -------<br>-- --------- ------ --- ----- ------ ---- --- --------- --<br>------ - ---- -- --- ----------- ------- ---- ----- -----<br>--- -------- - ------ ---- -- ----- ---- --- --- -----------<br>-- -------",334501.3100000215,334500.3800000122,334259.322,334271.5250000183,334275.733,334509.206,,24,"""two"
screen,html.Screen,1_3_1_0_1_25,2021-04-19T09:29:23.286Z,,,,,,,,,,,,,,,,2,,,,,,,,,,,,,,466.83900001761504,,response,,,,1,E,,,,,,Space,keypress(Space),,,,lyrical,,,,--- ---- ------ --- ------- ---------- ------- ----------<br>--- --------- --- ----------- ------- ----- ------- ---<br>--------- ---- -- --- ---- -- --------- -- ---- patches<br>-- --------- ------ --- ----- ------ ---- --- --------- --<br>------ - ---- -- --- ----------- ------- ---- ----- -----<br>--- -------- - ------ ---- -- ----- ---- --- --- -----------<br>-- -------,334976.9050000177,334976.0450000176,334492.566,334501.48000000627,334509.206,334992.448,,25,patches
screen,html.Screen,1_3_1_0_1_26,2021-04-19T09:29:23.597Z,,,,,,,,,,,,,,,,2,,,,,,,,,,,,,,294.5470000022324,,response,,,,1,E,,,,,,Space,keypress(Space),,,,lyrical,,,,--- ---- ------ --- ------- ---------- ------- ----------<br>--- --------- --- ----------- ------- ----- ------- ---<br>--------- ---- -- --- ---- -- --------- -- ---- -------<br>of --------- ------ --- ----- ------ ---- --- --------- --<br>------ - ---- -- --- ----------- ------- ---- ----- -----<br>--- -------- - ------ ---- -- ----- ---- --- --- -----------<br>-- -------,335287.8849999979,335286.9950000022,334975.769,334977.1049999981,334992.448,335309.122,,26,of
screen,html.Screen,1_3_1_0_1_27,2021-04-19T09:29:23.899Z,,,,,,,,,,,,,,,,2,,,,,,,,,,,,,,280.0730000077747,,response,,,,1,E,,,,,,Space,keypress(Space),,,,lyrical,,,,--- ---- ------ --- ------- ---------- ------- ----------<br>--- --------- --- ----------- ------- ----- ------- ---<br>--------- ---- -- --- ---- -- --------- -- ---- -------<br>-- intensely ------ --- ----- ------ ---- --- --------- --<br>------ - ---- -- --- ----------- ------- ---- ----- -----<br>--- -------- - ------ ---- -- ----- ---- --- --- -----------<br>-- -------,335590.11499999906,335589.19500000775,335275.485,335288.0600000208,335309.122,335591.953,,27,intensely
screen,html.Screen,1_3_1_0_1_28,2021-04-19T09:29:24.292Z,,,,,,,,,,,,,,,,2,,,,,,,,,,,,,,389.93200001562946,,response,,,,1,E,,,,,,Space,keypress(Space),,,,lyrical,,,,--- ---- ------ --- ------- ---------- ------- ----------<br>--- --------- --- ----------- ------- ----- ------- ---<br>--------- ---- -- --- ---- -- --------- -- ---- -------<br>-- --------- bright --- ----- ------ ---- --- --------- --<br>------ - ---- -- --- ----------- ------- ---- ----- -----<br>--- -------- - ------ ---- -- ----- ---- --- --- -----------<br>-- -------,335982.8550000093,335981.8850000156,335575.667,335590.2900000219,335591.953,335992.26,,28,bright
screen,html.Screen,1_3_1_0_1_29,2021-04-19T09:29:24.716Z,,,,,,,,,,,,,,,,2,,,,,,,,,,,,,,413.3800000117626,,response,,,,1,E,,,,,,Space,keypress(Space),,,,lyrical,,,,--- ---- ------ --- ------- ---------- ------- ----------<br>--- --------- --- ----------- ------- ----- ------- ---<br>--------- ---- -- --- ---- -- --------- -- ---- -------<br>-- --------- ------ and ----- ------ ---- --- --------- --<br>------ - ---- -- --- ----------- ------- ---- ----- -----<br>--- -------- - ------ ---- -- ----- ---- --- --- -----------<br>-- -------,336406.6650000168,336405.6400000118,335975.243,335983.0200000142,335992.26,336408.373,,29,and
screen,html.Screen,1_3_1_0_1_30,2021-04-19T09:29:25.113Z,,,,,,,,,,,,,,,,2,,,,,,,,,,,,,,395.0020000176737,,response,,,,1,E,,,,,,Space,keypress(Space),,,,lyrical,,,,--- ---- ------ --- ------- ---------- ------- ----------<br>--- --------- --- ----------- ------- ----- ------- ---<br>--------- ---- -- --- ---- -- --------- -- ---- -------<br>-- --------- ------ --- white ------ ---- --- --------- --<br>------ - ---- -- --- ----------- ------- ---- ----- -----<br>--- -------- - ------ ---- -- ----- ---- --- --- -----------<br>-- -------,336804.1300000041,336803.3750000177,336391.741,336406.8350000016,336408.373,336808.302,,30,white
screen,html.Screen,1_3_1_0_1_31,2021-04-19T09:29:25.404Z,,,,,,,,,,,,,,,,2,,,,,,,,,,,,,,285.5430000248598,,response,,,,1,E,,,,,,Space,keypress(Space),,,,lyrical,,,,"--- ---- ------ --- ------- ---------- ------- ----------<br>--- --------- --- ----------- ------- ----- ------- ---<br>--------- ---- -- --- ---- -- --------- -- ---- -------<br>-- --------- ------ --- ----- light"" ---- --- --------- --<br>------ - ---- -- --- ----------- ------- ---- ----- -----<br>--- -------- - ------ ---- -- ----- ---- --- --- -----------<br>-- -------",337095.07999999914,337093.8450000249,336791.962,336804.32000002475,336808.302,337108.213,,31,"light"""
screen,html.Screen,1_3_1_0_1_32,2021-04-19T09:29:25.737Z,,,,,,,,,,,,,,,,2,,,,,,,,,,,,,,318.47200001310557,,response,,,,1,E,,,,,,Space,keypress(Space),,,,lyrical,,,,--- ---- ------ --- ------- ---------- ------- ----------<br>--- --------- --- ----------- ------- ----- ------- ---<br>--------- ---- -- --- ---- -- --------- -- ---- -------<br>-- --------- ------ --- ----- ------ over --- --------- --<br>------ - ---- -- --- ----------- ------- ---- ----- -----<br>--- -------- - ------ ---- -- ----- ---- --- --- -----------<br>-- -------,337427.5100000086,337426.6850000131,337091.71,337095.23500001524,337108.213,337441.737,,32,over
screen,html.Screen,1_3_1_0_1_33,2021-04-19T09:29:25.937Z,,,,,,,,,,,,,,,,2,,,,,,,,,,,,,,185.3530000235769,,response,,,,1,E,,,,,,Space,keypress(Space),,,,lyrical,,,,--- ---- ------ --- ------- ---------- ------- ----------<br>--- --------- --- ----------- ------- ----- ------- ---<br>--------- ---- -- --- ---- -- --------- -- ---- -------<br>-- --------- ------ --- ----- ------ ---- the --------- --<br>------ - ---- -- --- ----------- ------- ---- ----- -----<br>--- -------- - ------ ---- -- ----- ---- --- --- -----------<br>-- -------,337627.9950000171,337627.0900000236,337425.056,337427.72000000696,337441.737,337641.686,,33,the
screen,html.Screen,1_3_1_0_1_34,2021-04-19T09:29:26.117Z,,,,,,,,,,,,,,,,2,,,,,,,,,,,,,,164.61900000553578,,response,,,,1,E,,,,,,Space,keypress(Space),,,,lyrical,,,,--- ---- ------ --- ------- ---------- ------- ----------<br>--- --------- --- ----------- ------- ----- ------- ---<br>--------- ---- -- --- ---- -- --------- -- ---- -------<br>-- --------- ------ --- ----- ------ ---- --- sunspots. --<br>------ - ---- -- --- ----------- ------- ---- ----- -----<br>--- -------- - ------ ---- -- ----- ---- --- --- -----------<br>-- -------,337807.23500001477,337806.3050000055,337624.815,337628.14500002423,337641.686,337834.235,,34,sunspots.
screen,html.Screen,1_3_1_0_1_35,2021-04-19T09:29:26.610Z,,,,,,,,,,,,,,,,2,,,,,,,,,,,,,,465.44500002556015,,response,,,,1,E,,,,,,Space,keypress(Space),,,,lyrical,,,,--- ---- ------ --- ------- ---------- ------- ----------<br>--- --------- --- ----------- ------- ----- ------- ---<br>--------- ---- -- --- ---- -- --------- -- ---- -------<br>-- --------- ------ --- ----- ------ ---- --- --------- He<br>------ - ---- -- --- ----------- ------- ---- ----- -----<br>--- -------- - ------ ---- -- ----- ---- --- --- -----------<br>-- -------,338300.66000000807,338299.68000002555,337791.519,337807.42000002647,337834.235,338308.29,,35,He
screen,html.Screen,1_3_1_0_1_36,2021-04-19T09:29:27.605Z,,,,,,,,,,,,,,,,2,,,,,,,,,,,,,,986.0550000020885,,response,,,,1,E,,,,,,Space,keypress(Space),,,,lyrical,,,,--- ---- ------ --- ------- ---------- ------- ----------<br>--- --------- --- ----------- ------- ----- ------- ---<br>--------- ---- -- --- ---- -- --------- -- ---- -------<br>-- --------- ------ --- ----- ------ ---- --- --------- --<br>jotted - ---- -- --- ----------- ------- ---- ----- -----<br>--- -------- - ------ ---- -- ----- ---- --- --- -----------<br>-- -------,339295.3400000115,339294.34500000207,338291.48,338300.83000002196,338308.29,339307.863,,36,jotted
