sender,sender_type,sender_id,timestamp,meta,,Blues,Classical,Country,Dance,Electronic,Folk,Gospel,Hip-Hop,Jazz,Latin,Musical/Film,New-age,Pop,Provo_ID,R&B,Rap,Reggae,Religious,Rock,Soul,Swing,Traditional,age,artist_name,correct,correctResponse,distraction,duration,education,ended_on,familiarity,gender,headphone_check_performance,item,list,music_frequency,offensiveness,pleasantness,position_correct,preference,response,response_action,snippet_file,song_name,song_rating,sound,stimulus_1,stimulus_2,stimulus_3,text,time_commit,time_end,time_render,time_run,time_show,time_switch,url,word,word_ID
Introduction,html.Screen,0_0,2021-04-12T13:09:28.640Z,"{""labjs_version"":""20.2.2"",""labjs_build"":{""flavor"":""production"",""commit"":""a25486e0c714a0ae2ce03ff94b7bb6896854dcfa""},""location"":""https://run.pavlovia.org/mvasilev/music_b/"",""userAgent"":""Mozilla/5.0 (Windows NT 10.0; Win64; x64) AppleWebKit/537.36 (KHTML, like Gecko) Chrome/89.0.4389.90 Safari/537.36"",""platform"":""Win32"",""language"":""en-GB"",""locale"":""en-GB"",""timeZone"":""Europe/London"",""timezoneOffset"":-60,""screen_width"":1280,""screen_height"":854,""scroll_width"":1280,""scroll_height"":663,""window_innerWidth"":1280,""window_innerHeight"":711,""devicePixelRatio"":1.5}",,,,,,,,,,,,,,,,,,,,,,,,,,,,,6652.506000050216,,response,,,,,,,,,,,continue,click button,,,,,,,,,37064.17999998666,37057.92000005022,30322.098,30323.120000073686,30405.414,37092.116,{},,
Volume calibration,html.Screen,0_1,2021-04-12T13:10:22.966Z,,,,,,,,,,,,,,,,,,,,,,,,,,,,,,54287.534000017135,,response,,,,,,,,,,,continue,click button,,,,,,,,,91388.80000007339,91379.65000001714,37043.42,37064.78000013158,37092.116,91397.23,,,
Task instructions,html.Screen,0_2,2021-04-12T13:10:35.595Z,,,,,,,,,,,,,,,,,,,,,,,,,,,,,,12619.470000036512,,response,,,,,,,,,,,continue,click button,,,,,,,,,104018.05999991484,104016.70000003651,91366.711,91389.28500004113,91397.23,104033.952,,,
Sounds,html.Screen,0_3_0_0,2021-04-12T13:10:39.843Z,,,,,,,,,,,,,,,,,,,,,,,,,,,,,,4245.21699999999,,timeout,,,,,,,,,2,,,,,,,,I,S,O,,108266.47499995306,108262.441,104005.454,104018.41000001878,104033.952,108279.169,,,
Judgement,html.Screen,0_3_0_1,2021-04-12T13:10:41.782Z,,,,,,,,,,,,,,,,,,,,,,,,,,,true,2,,1924.435999929672,,response,,,,,,,,,2,,2,click #choice-2,,,,,I,S,O,,110205.53999999538,110203.60499992967,108262.441,108266.70500007458,108279.169,110220.807,,,
Trial,flow.Sequence,0_3_0,2021-04-12T13:10:41.783Z,,,,,,,,,,,,,,,,,,,,,,,,,,,,,,6169.652999929662,,completion,,,,,,,,,2,,,,,,,,I,S,O,,110206.44500013441,110203.60499992967,104005.454,104018.33499991335,104033.952,110220.807,,,
Sounds,html.Screen,0_3_1_0,2021-04-12T13:10:46.028Z,,,,,,,,,,,,,,,,,,,,,,,,,,,,,,4246.645999999993,,timeout,,,,,,,,,1,,,,,,,,S,I,O,,114451.524999924,114450.787,110196.169,110206.87999995425,110220.807,114467.453,,,
Judgement,html.Screen,0_3_1_1,2021-04-12T13:10:47.337Z,,,,,,,,,,,,,,,,,,,,,,,,,,,true,1,,1291.3620000665396,,response,,,,,,,,,1,,1,click #choice-1,,,,,S,I,O,,115760.26999996975,115758.81500006653,114450.787,114451.70500013046,114467.453,115775.976,,,
Trial,flow.Sequence,0_3_1,2021-04-12T13:10:47.337Z,,,,,,,,,,,,,,,,,,,,,,,,,,,,,,5538.008000066533,,completion,,,,,,,,,1,,,,,,,,S,I,O,,115760.629999917,115758.81500006653,110196.169,110206.75000012852,110220.807,115775.976,,,
Sounds,html.Screen,0_3_2_0,2021-04-12T13:10:51.585Z,,,,,,,,,,,,,,,,,,,,,,,,,,,,,,4248.184999999998,,timeout,,,,,,,,,2,,,,,,,,O,S,I,,120008.21499992162,120007.512,115747.543,115760.83500008099,115775.976,120024.161,,,
Judgement,html.Screen,0_3_2_1,2021-04-12T13:10:52.782Z,,,,,,,,,,,,,,,,,,,,,,,,,,,true,2,,1179.1290000922454,,response,,,,,,,,,2,,2,click #choice-2,,,,,O,S,I,,121205.21500008181,121203.29000009224,120007.512,120008.38500005193,120024.161,121220.871,,,
Trial,flow.Sequence,0_3_2,2021-04-12T13:10:52.782Z,,,,,,,,,,,,,,,,,,,,,,,,,,,,,,5427.314000092243,,completion,,,,,,,,,2,,,,,,,,O,S,I,,121205.64500009641,121203.29000009224,115747.543,115760.78000012785,115775.976,121220.871,,,
Sounds,html.Screen,0_3_3_0,2021-04-12T13:10:57.031Z,,,,,,,,,,,,,,,,,,,,,,,,,,,,,,4249.222999999998,,timeout,,,,,,,,,1,,,,,,,,S,O,I,,125454.31499998085,125453.479,121189.236,121205.99499996752,121220.871,125470.094,,,
Judgement,html.Screen,0_3_3_1,2021-04-12T13:10:58.242Z,,,,,,,,,,,,,,,,,,,,,,,,,,,true,1,,1193.596000073987,,response,,,,,,,,,1,,1,click #choice-1,,,,,S,O,I,,126665.43500008993,126663.69000007398,125453.479,125454.58499994129,125470.094,126680.912,,,
Trial,flow.Sequence,0_3_3,2021-04-12T13:10:58.243Z,,,,,,,,,,,,,,,,,,,,,,,,,,,,,,5442.819000073985,,completion,,,,,,,,,1,,,,,,,,S,O,I,,126665.81499995664,126663.69000007398,121189.236,121205.88500006124,121220.871,126680.912,,,
Sounds,html.Screen,0_3_4_0,2021-04-12T13:11:02.495Z,,,,,,,,,,,,,,,,,,,,,,,,,,,,,,4252.990000000005,,timeout,,,,,,,,,3,,,,,,,,O,I,S,,130917.95999999158,130917.233,126662.879,126666.08999995515,126680.912,130933.902,,,
Judgement,html.Screen,0_3_4_1,2021-04-12T13:11:04.056Z,,,,,,,,,,,,,,,,,,,,,,,,,,,true,3,,1544.27300005476,,response,,,,,,,,,3,,3,click #choice-3,,,,,O,I,S,,132479.5500000473,132478.17500005476,130917.233,130918.12500008382,130933.902,132497.648,,,
Trial,flow.Sequence,0_3_4,2021-04-12T13:11:04.057Z,,,,,,,,,,,,,,,,,,,,,,,,,,,,,,5797.263000054765,,completion,,,,,,,,,3,,,,,,,,O,I,S,,132479.91500003263,132478.17500005476,126662.879,126666.01500008255,126680.912,132497.648,,,
Sounds,html.Screen,0_3_5_0,2021-04-12T13:11:08.308Z,,,,,,,,,,,,,,,,,,,,,,,,,,,,,,4249.405000000028,,timeout,,,,,,,,,3,,,,,,,,I,O,S,,136731.27499991097,136730.386,132463.879,132480.09500000626,132497.648,136747.053,,,
Judgement,html.Screen,0_3_5_1,2021-04-12T13:11:10.838Z,,,,,,,,,,,,,,,,,,,,,,,,,,,true,3,,2513.142000097141,,response,,,,,,,,,3,,3,click #choice-3,,,,,I,O,S,,139261.21999998577,139260.19500009716,136730.386,136731.44500004128,136747.053,139271.768,,,
Trial,flow.Sequence,0_3_5,2021-04-12T13:11:10.838Z,,,,,,,,,,,,,,,,,,,,,,,,,,,,,,6762.547000097169,,completion,,,,,,,,,3,,,,,,,,I,O,S,,139261.46499998868,139260.19500009716,132463.879,132480.0450000912,132497.648,139271.768,,,
Task,flow.Loop,0_3,2021-04-12T13:11:10.845Z,,,,,,,,,,,,,,,,,,,,,,,,,,,,,,35226.24300009715,,completion,,,1,,,,,,,,,,,,,,,,,,139268.30999995582,139260.19500009716,104005.454,104018.26000004075,104033.952,139271.768,,,
Trap,html.Screen,0_4,2021-04-12T13:11:10.847Z,,,,,,,,,,,,,,,,,,,,,,,,,,,,,,NaN,,skipped,,,,,,,,,,,,,,,,,,,,,139270.19500010647,139260.19500009716,,139269.9150000699,,139271.768,,,
Thanks,html.Screen,0_5,2021-04-12T13:12:11.278Z,,,,,,,,,,,,,,,,,,,,,,,,,,,,,,60428.217000072036,,response,,,,,,,,,,,continue,click button,,,,,,,,,199701.2350000441,199699.98500007205,139255.132,139270.3750000801,139271.768,208338.034,,,
Headphone screening,flow.Sequence,0,2021-04-12T13:12:11.278Z,,,,,,,,,,,,,,,,,,,,,,,,,,,,,,169294.57100007206,,completion,,,,,,,,,,,,,,,,,,,,,199701.65499998257,199699.98500007205,30322.098,30322.995000053197,30405.414,208338.034,,,
Instructions,html.Page,1_0,2021-04-12T13:12:52.324Z,,,,,,,,,,,,,,,,,,,,,,,,,,,,,,32409.01100008373,,form submission,,,,,,,,,,,,,,,,,,,,,240747.36499995925,240747.04500008374,208304.7,208340.02500004135,208338.034,240757.757,,,
Holding screen,html.Screen,1_1_0_0,2021-04-12T13:13:02.326Z,,,,,,,,,,,,,,,,,,,,,,,,,,,,,,10024.042999999976,,timeout,,,,,,,,,,,,,,,,,,,,,250749.02500002645,250748.421,240726.682,240747.63000011444,240757.757,250781.8,,,
screen,html.Screen,1_1_0_1_0,2021-04-12T13:13:03.224Z,,,,,,,,,,,,,,,,53,,,,,,,,,,,,,,862.0049999997136,,response,,,,99,,,,,,,Space,keypress(Space),,,,,,,,When -- ----- -- ------ - ------- --- ----------<br>------------- ------ ------ ---- ---- ------- ----- -- ----<br>-------- ------- -- ---------- --- - --- ----- ----- ----<br>---- --- --- ----- --- ---- ---- ------- ----- ---- -------<br>--- --- -- ----- -- --- ---- -- --- ---- -- ------ ------<br>--- ----- -- ----,251647.07499998622,251643.8049999997,250748.421,250749.36500005424,250781.8,251648.747,,0,When
screen,html.Screen,1_1_0_1_1,2021-04-12T13:13:03.701Z,,,,,,,,,,,,,,,,53,,,,,,,,,,,,,,474.73300006749923,,response,,,,99,,,,,,,Space,keypress(Space),,,,,,,,---- it ----- -- ------ - ------- --- ----------<br>------------- ------ ------ ---- ---- ------- ----- -- ----<br>-------- ------- -- ---------- --- - --- ----- ----- ----<br>---- --- --- ----- --- ---- ---- ------- ----- ---- -------<br>--- --- -- ----- -- --- ---- -- --- ---- -- ------ ------<br>--- ----- -- ----,252124.30500006303,252123.4800000675,251631.718,251647.265000036,251648.747,252126.107,,1,it
screen,html.Screen,1_1_0_1_2,2021-04-12T13:13:04.165Z,,,,,,,,,,,,,,,,53,,,,,,,,,,,,,,461.34800002988777,,response,,,,99,,,,,,,Space,keypress(Space),,,,,,,,---- -- comes -- ------ - ------- --- ----------<br>------------- ------ ------ ---- ---- ------- ----- -- ----<br>-------- ------- -- ---------- --- - --- ----- ----- ----<br>---- --- --- ----- --- ---- ---- ------- ----- ---- -------<br>--- --- -- ----- -- --- ---- -- --- ---- -- ------ ------<br>--- ----- -- ----,252588.22500007227,252587.45500002988,252115.413,252124.56000014208,252126.107,252589.916,,2,comes
screen,html.Screen,1_1_0_1_3,2021-04-12T13:13:04.621Z,,,,,,,,,,,,,,,,53,,,,,,,,,,,,,,453.7040001277055,,response,,,,99,,,,,,,Space,keypress(Space),,,,,,,,---- -- ----- to ------ - ------- --- ----------<br>------------- ------ ------ ---- ---- ------- ----- -- ----<br>-------- ------- -- ---------- --- - --- ----- ----- ----<br>---- --- --- ----- --- ---- ---- ------- ----- ---- -------<br>--- --- -- ----- -- --- ---- -- --- ---- -- ------ ------<br>--- ----- -- ----,253044.5399999153,253043.6200001277,252576.036,252588.38500012644,252589.916,253046.435,,3,to
screen,html.Screen,1_1_0_1_4,2021-04-12T13:13:05.109Z,,,,,,,,,,,,,,,,53,,,,,,,,,,,,,,484.9949999736273,,response,,,,99,,,,,,,Space,keypress(Space),,,,,,,,---- -- ----- -- having - ------- --- ----------<br>------------- ------ ------ ---- ---- ------- ----- -- ----<br>-------- ------- -- ---------- --- - --- ----- ----- ----<br>---- --- --- ----- --- ---- ---- ------- ----- ---- -------<br>--- --- -- ----- -- --- ---- -- --- ---- -- ------ ------<br>--- ----- -- ----,253532.22499997355,253531.42999997362,253039.881,253044.87500013784,253046.435,253543.165,,4,having
screen,html.Screen,1_1_0_1_5,2021-04-12T13:13:05.557Z,,,,,,,,,,,,,,,,53,,,,,,,,,,,,,,436.27500014103134,,response,,,,99,,,,,,,Space,keypress(Space),,,,,,,,---- -- ----- -- ------ a ------- --- ----------<br>------------- ------ ------ ---- ---- ------- ----- -- ----<br>-------- ------- -- ---------- --- - --- ----- ----- ----<br>---- --- --- ----- --- ---- ---- ------- ----- ---- -------<br>--- --- -- ----- -- --- ---- -- --- ---- -- ------ ------<br>--- ----- -- ----,253980.1650000736,253979.44000014104,253529.73,253534.56500009634,253543.165,253982.02,,5,a
screen,html.Screen,1_1_0_1_6,2021-04-12T13:13:06.029Z,,,,,,,,,,,,,,,,53,,,,,,,,,,,,,,469.41999997527455,,response,,,,99,,,,,,,Space,keypress(Space),,,,,,,,---- -- ----- -- ------ - lasting --- ----------<br>------------- ------ ------ ---- ---- ------- ----- -- ----<br>-------- ------- -- ---------- --- - --- ----- ----- ----<br>---- --- --- ----- --- ---- ---- ------- ----- ---- -------<br>--- --- -- ----- -- --- ---- -- --- ---- -- ------ ------<br>--- ----- -- ----,254452.1600001026,254451.43999997526,253976.448,253980.4150001146,253982.02,254459.615,,6,lasting
screen,html.Screen,1_1_0_1_7,2021-04-12T13:13:06.557Z,,,,,,,,,,,,,,,,53,,,,,,,,,,,,,,519.855000136653,,response,,,,99,,,,,,,Space,keypress(Space),,,,,,,,---- -- ----- -- ------ - ------- and ----------<br>------------- ------ ------ ---- ---- ------- ----- -- ----<br>-------- ------- -- ---------- --- - --- ----- ----- ----<br>---- --- --- ----- --- ---- ---- ------- ----- ---- -------<br>--- --- -- ----- -- --- ---- -- --- ---- -- ------ ------<br>--- ----- -- ----,254980.1199999638,254979.47000013664,254448.625,254452.3150001187,254459.615,254981.795,,7,and
screen,html.Screen,1_1_0_1_8,2021-04-12T13:13:07.085Z,,,,,,,,,,,,,,,,53,,,,,,,,,,,,,,525.6549999172857,,response,,,,99,,,,,,,Space,keypress(Space),,,,,,,,---- -- ----- -- ------ - ------- --- fulfilling<br>------------- ------ ------ ---- ---- ------- ----- -- ----<br>-------- ------- -- ---------- --- - --- ----- ----- ----<br>---- --- --- ----- --- ---- ---- ------- ----- ---- -------<br>--- --- -- ----- -- --- ---- -- --- ---- -- ------ ------<br>--- ----- -- ----,255508.1450000871,255507.4499999173,254976.223,254980.27499997988,254981.795,255526.38,,8,fulfilling
screen,html.Screen,1_1_0_1_9,2021-04-12T13:13:07.637Z,,,,,,,,,,,,,,,,53,,,,,,,,,,,,,,533.0650000207825,,response,,,,99,,,,,,,Space,keypress(Space),,,,,,,,"---- -- ----- -- ------ - ------- --- ----------<br>relationship, ------ ------ ---- ---- ------- ----- -- ----<br>-------- ------- -- ---------- --- - --- ----- ----- ----<br>---- --- --- ----- --- ---- ---- ------- ----- ---- -------<br>--- --- -- ----- -- --- ---- -- --- ---- -- ------ ------<br>--- ----- -- ----",256060.18500006758,256059.4450000208,255498.424,255508.32500006072,255526.38,256061.834,,9,"relationship,"
screen,html.Screen,1_1_0_1_10,2021-04-12T13:13:08.229Z,,,,,,,,,,,,,,,,53,,,,,,,,,,,,,,589.7210001058702,,response,,,,99,,,,,,,Space,keypress(Space),,,,,,,,---- -- ----- -- ------ - ------- --- ----------<br>------------- common ------ ---- ---- ------- ----- -- ----<br>-------- ------- -- ---------- --- - --- ----- ----- ----<br>---- --- --- ----- --- ---- ---- ------- ----- ---- -------<br>--- --- -- ----- -- --- ---- -- --- ---- -- ------ ------<br>--- ----- -- ----,256652.26499992423,256651.55500010587,256059.266,256060.34500012174,256061.834,256660.29,,10,common
screen,html.Screen,1_1_0_1_11,2021-04-12T13:13:09.029Z,,,,,,,,,,,,,,,,53,,,,,,,,,,,,,,791.1550000133284,,response,,,,99,,,,,,,Space,keypress(Space),,,,,,,,---- -- ----- -- ------ - ------- --- ----------<br>------------- ------ wisdom ---- ---- ------- ----- -- ----<br>-------- ------- -- ---------- --- - --- ----- ----- ----<br>---- --- --- ----- --- ---- ---- ------- ----- ---- -------<br>--- --- -- ----- -- --- ---- -- --- ---- -- ------ ------<br>--- ----- -- ----,257452.1900000982,257451.44500001334,256645.105,256652.5149999652,256660.29,257453.906,,11,wisdom
screen,html.Screen,1_1_0_1_12,2021-04-12T13:13:09.469Z,,,,,,,,,,,,,,,,53,,,,,,,,,,,,,,437.57900002921815,,response,,,,99,,,,,,,Space,keypress(Space),,,,,,,,---- -- ----- -- ------ - ------- --- ----------<br>------------- ------ ------ says ---- ------- ----- -- ----<br>-------- ------- -- ---------- --- - --- ----- ----- ----<br>---- --- --- ----- --- ---- ---- ------- ----- ---- -------<br>--- --- -- ----- -- --- ---- -- --- ---- -- ------ ------<br>--- ----- -- ----,257892.2349999193,257891.4850000292,257443.58,257452.3549999576,257453.906,257893.94,,12,says
screen,html.Screen,1_1_0_1_13,2021-04-12T13:13:10.118Z,,,,,,,,,,,,,,,,53,,,,,,,,,,,,,,646.0600000372506,,response,,,,99,,,,,,,Space,keypress(Space),,,,,,,,---- -- ----- -- ------ - ------- --- ----------<br>------------- ------ ------ ---- that ------- ----- -- ----<br>-------- ------- -- ---------- --- - --- ----- ----- ----<br>---- --- --- ----- --- ---- ---- ------- ----- ---- -------<br>--- --- -- ----- -- --- ---- -- --- ---- -- ------ ------<br>--- ----- -- ----,258541.10500006936,258540.00000003725,257887.161,257892.40500004962,257893.94,258556.299,,13,that
screen,html.Screen,1_1_0_1_14,2021-04-12T13:13:10.655Z,,,,,,,,,,,,,,,,53,,,,,,,,,,,,,,520.1359999371925,,response,,,,99,,,,,,,Space,keypress(Space),,,,,,,,---- -- ----- -- ------ - ------- --- ----------<br>------------- ------ ------ ---- ---- feeling ----- -- ----<br>-------- ------- -- ---------- --- - --- ----- ----- ----<br>---- --- --- ----- --- ---- ---- ------- ----- ---- -------<br>--- --- -- ----- -- --- ---- -- --- ---- -- ------ ------<br>--- ----- -- ----,259077.59499992244,259076.4349999372,258527.223,258541.38500010595,258556.299,259079.963,,14,feeling
screen,html.Screen,1_1_0_1_15,2021-04-12T13:13:11.175Z,,,,,,,,,,,,,,,,53,,,,,,,,,,,,,,516.3970000832342,,response,,,,99,,,,,,,Space,keypress(Space),,,,,,,,---- -- ----- -- ------ - ------- --- ----------<br>------------- ------ ------ ---- ---- ------- close -- ----<br>-------- ------- -- ---------- --- - --- ----- ----- ----<br>---- --- --- ----- --- ---- ---- ------- ----- ---- -------<br>--- --- -- ----- -- --- ---- -- --- ---- -- ------ ------<br>--- ----- -- ----,259597.65999997035,259596.36000008322,259071.3,259077.90499995463,259079.963,259605.387,,15,close
screen,html.Screen,1_1_0_1_16,2021-04-12T13:13:11.663Z,,,,,,,,,,,,,,,,53,,,,,,,,,,,,,,478.97299997892696,,response,,,,99,,,,,,,Space,keypress(Space),,,,,,,,---- -- ----- -- ------ - ------- --- ----------<br>------------- ------ ------ ---- ---- ------- ----- to ----<br>-------- ------- -- ---------- --- - --- ----- ----- ----<br>---- --- --- ----- --- ---- ---- ------- ----- ---- -------<br>--- --- -- ----- -- --- ---- -- --- ---- -- ------ ------<br>--- ----- -- ----,260085.62000002712,260084.35999997891,259596.671,259597.95000008307,259605.387,260087.996,,16,to
screen,html.Screen,1_1_0_1_17,2021-04-12T13:13:12.205Z,,,,,,,,,,,,,,,,53,,,,,,,,,,,,,,539.6090000451368,,response,,,,99,,,,,,,Space,keypress(Space),,,,,,,,---- -- ----- -- ------ - ------- --- ----------<br>------------- ------ ------ ---- ---- ------- ----- -- your<br>-------- ------- -- ---------- --- - --- ----- ----- ----<br>---- --- --- ----- --- ---- ---- ------- ----- ---- -------<br>--- --- -- ----- -- --- ---- -- --- ---- -- ------ ------<br>--- ----- -- ----,260628.3200001344,260627.60500004515,260072.036,260085.91999998316,260087.996,260639.262,,17,your
screen,html.Screen,1_1_0_1_18,2021-04-12T13:13:12.719Z,,,,,,,,,,,,,,,,53,,,,,,,,,,,,,,501.18800006445963,,response,,,,99,,,,,,,Space,keypress(Space),,,,,,,,---- -- ----- -- ------ - ------- --- ----------<br>------------- ------ ------ ---- ---- ------- ----- -- ----<br>romantic ------- -- ---------- --- - --- ----- ----- ----<br>---- --- --- ----- --- ---- ---- ------- ----- ---- -------<br>--- --- -- ----- -- --- ---- -- --- ---- -- ------ ------<br>--- ----- -- ----,261141.59499993548,261140.45000006445,260621.458,260628.48499999382,260639.262,261143.925,,18,romantic
screen,html.Screen,1_1_0_1_19,2021-04-12T13:13:13.206Z,,,,,,,,,,,,,,,,53,,,,,,,,,,,,,,484.0099999968079,,response,,,,99,,,,,,,Space,keypress(Space),,,,,,,,---- -- ----- -- ------ - ------- --- ----------<br>------------- ------ ------ ---- ---- ------- ----- -- ----<br>-------- partner -- ---------- --- - --- ----- ----- ----<br>---- --- --- ----- --- ---- ---- ------- ----- ---- -------<br>--- --- -- ----- -- --- ---- -- --- ---- -- ------ ------<br>--- ----- -- ----,261628.98500007577,261627.9349999968,261139.287,261141.90499996766,261143.925,261639.87,,19,partner
screen,html.Screen,1_1_0_1_20,2021-04-12T13:13:13.671Z,,,,,,,,,,,,,,,,53,,,,,,,,,,,,,,453.1800000249641,,response,,,,99,,,,,,,Space,keypress(Space),,,,,,,,---- -- ----- -- ------ - ------- --- ----------<br>------------- ------ ------ ---- ---- ------- ----- -- ----<br>-------- ------- is ---------- --- - --- ----- ----- ----<br>---- --- --- ----- --- ---- ---- ------- ----- ---- -------<br>--- --- -- ----- -- --- ---- -- --- ---- -- ------ ------<br>--- ----- -- ----,262094.3050000351,262093.05000002496,261627.355,261629.2250000406,261639.87,262096.837,,20,is
screen,html.Screen,1_1_0_1_21,2021-04-12T13:13:14.238Z,,,,,,,,,,,,,,,,53,,,,,,,,,,,,,,563.0330000904505,,response,,,,99,,,,,,,Space,keypress(Space),,,,,,,,---- -- ----- -- ------ - ------- --- ----------<br>------------- ------ ------ ---- ---- ------- ----- -- ----<br>-------- ------- -- paramount. --- - --- ----- ----- ----<br>---- --- --- ----- --- ---- ---- ------- ----- ---- -------<br>--- --- -- ----- -- --- ---- -- --- ---- -- ------ ------<br>--- ----- -- ----,262660.82000010647,262659.87000009045,262089.973,262094.6249999106,262096.837,262674.632,,21,paramount.
screen,html.Screen,1_1_0_1_22,2021-04-12T13:13:14.815Z,,,,,,,,,,,,,,,,53,,,,,,,,,,,,,,561.8179999676067,,response,,,,99,,,,,,,Space,keypress(Space),,,,,,,,---- -- ----- -- ------ - ------- --- ----------<br>------------- ------ ------ ---- ---- ------- ----- -- ----<br>-------- ------- -- ---------- But - --- ----- ----- ----<br>---- --- --- ----- --- ---- ---- ------- ----- ---- -------<br>--- --- -- ----- -- --- ---- -- --- ---- -- ------ ------<br>--- ----- -- ----,263237.68500005826,263236.4499999676,262646.847,262661.07999999076,262674.632,263240.175,,22,But
screen,html.Screen,1_1_0_1_23,2021-04-12T13:13:15.383Z,,,,,,,,,,,,,,,,53,,,,,,,,,,,,,,564.350000043225,,response,,,,99,,,,,,,Space,keypress(Space),,,,,,,,---- -- ----- -- ------ - ------- --- ----------<br>------------- ------ ------ ---- ---- ------- ----- -- ----<br>-------- ------- -- ---------- --- a --- ----- ----- ----<br>---- --- --- ----- --- ---- ---- ------- ----- ---- -------<br>--- --- -- ----- -- --- ---- -- --- ---- -- ------ ------<br>--- ----- -- ----,263805.8050000109,263804.5250000432,263224.847,263237.99500009045,263240.175,263825.621,,23,a
screen,html.Screen,1_1_0_1_24,2021-04-12T13:13:15.911Z,,,,,,,,,,,,,,,,53,,,,,,,,,,,,,,507.01400011527585,,response,,,,99,,,,,,,Space,keypress(Space),,,,,,,,---- -- ----- -- ------ - ------- --- ----------<br>------------- ------ ------ ---- ---- ------- ----- -- ----<br>-------- ------- -- ---------- --- - new ----- ----- ----<br>---- --- --- ----- --- ---- ---- ------- ----- ---- -------<br>--- --- -- ----- -- --- ---- -- --- ---- -- ------ ------<br>--- ----- -- ----,264333.8999999687,264332.63500011526,263808.868,263806.2450001016,263825.621,264336.391,,24,new
screen,html.Screen,1_1_0_1_25,2021-04-12T13:13:16.423Z,,,,,,,,,,,,,,,,53,,,,,,,,,,,,,,508.12900004239054,,response,,,,99,,,,,,,Space,keypress(Space),,,,,,,,---- -- ----- -- ------ - ------- --- ----------<br>------------- ------ ------ ---- ---- ------- ----- -- ----<br>-------- ------- -- ---------- --- - --- study ----- ----<br>---- --- --- ----- --- ---- ---- ------- ----- ---- -------<br>--- --- -- ----- -- --- ---- -- --- ---- -- ------ ------<br>--- ----- -- ----,264845.7899999339,264844.5200000424,264325.455,264334.2250001151,264336.391,264861.077,,25,study
screen,html.Screen,1_1_0_1_26,2021-04-12T13:13:16.967Z,,,,,,,,,,,,,,,,53,,,,,,,,,,,,,,527.543000099773,,response,,,,99,,,,,,,Space,keypress(Space),,,,,,,,---- -- ----- -- ------ - ------- --- ----------<br>------------- ------ ------ ---- ---- ------- ----- -- ----<br>-------- ------- -- ---------- --- - --- ----- finds ----<br>---- --- --- ----- --- ---- ---- ------- ----- ---- -------<br>--- --- -- ----- -- --- ---- -- --- ---- -- ------ ------<br>--- ----- -- ----,265389.8750001099,265388.62000009976,264836.331,264846.1349999998,264861.077,265392.268,,26,finds
screen,html.Screen,1_1_0_1_27,2021-04-12T13:13:17.758Z,,,,,,,,,,,,,,,,53,,,,,,,,,,,,,,787.9070001032087,,response,,,,99,,,,,,,Space,keypress(Space),,,,,,,,---- -- ----- -- ------ - ------- --- ----------<br>------------- ------ ------ ---- ---- ------- ----- -- ----<br>-------- ------- -- ---------- --- - --- ----- ----- that<br>---- --- --- ----- --- ---- ---- ------- ----- ---- -------<br>--- --- -- ----- -- --- ---- -- --- ---- -- ------ ------<br>--- ----- -- ----,266181.30000005476,266180.1750001032,265377.78,265390.1899999473,265392.268,266183.575,,27,that
screen,html.Screen,1_1_0_1_28,2021-04-12T13:13:18.447Z,,,,,,,,,,,,,,,,53,,,,,,,,,,,,,,685.0050000093761,,response,,,,99,,,,,,,Space,keypress(Space),,,,,,,,---- -- ----- -- ------ - ------- --- ----------<br>------------- ------ ------ ---- ---- ------- ----- -- ----<br>-------- ------- -- ---------- --- - --- ----- ----- ----<br>it's --- --- ----- --- ---- ---- ------- ----- ---- -------<br>--- --- -- ----- -- --- ---- -- --- ---- -- ------ ------<br>--- ----- -- ----,266869.9650000781,266868.5800000094,266175.637,266181.5850001294,266183.575,266880.767,,28,it's
screen,html.Screen,1_1_0_1_29,2021-04-12T13:13:18.911Z,,,,,,,,,,,,,,,,53,,,,,,,,,,,,,,451.60299996007234,,response,,,,99,,,,,,,Space,keypress(Space),,,,,,,,---- -- ----- -- ------ - ------- --- ----------<br>------------- ------ ------ ---- ---- ------- ----- -- ----<br>-------- ------- -- ---------- --- - --- ----- ----- ----<br>---- not --- ----- --- ---- ---- ------- ----- ---- -------<br>--- --- -- ----- -- --- ---- -- --- ---- -- ------ ------<br>--- ----- -- ----,267334.0900000185,267332.36999996006,266866.998,266870.3149999492,266880.767,267336.546,,29,not
screen,html.Screen,1_1_0_1_30,2021-04-12T13:13:19.551Z,,,,,,,,,,,,,,,,53,,,,,,,,,,,,,,635.8440000099363,,response,,,,99,,,,,,,Space,keypress(Space),,,,,,,,---- -- ----- -- ------ - ------- --- ----------<br>------------- ------ ------ ---- ---- ------- ----- -- ----<br>-------- ------- -- ---------- --- - --- ----- ----- ----<br>---- --- how ----- --- ---- ---- ------- ----- ---- -------<br>--- --- -- ----- -- --- ---- -- --- ---- -- ------ ------<br>--- ----- -- ----,267973.8149999175,267972.3900000099,267330.892,267334.40000005066,267336.546,267981.571,,30,how
screen,html.Screen,1_1_0_1_31,2021-04-12T13:13:20.111Z,,,,,,,,,,,,,,,,53,,,,,,,,,,,,,,550.9140000906773,,response,,,,99,,,,,,,Space,keypress(Space),,,,,,,,---- -- ----- -- ------ - ------- --- ----------<br>------------- ------ ------ ---- ---- ------- ----- -- ----<br>-------- ------- -- ---------- --- - --- ----- ----- ----<br>---- --- --- close --- ---- ---- ------- ----- ---- -------<br>--- --- -- ----- -- --- ---- -- --- ---- -- ------ ------<br>--- ----- -- ----,268534.14499992505,268532.4850000907,267969.944,267974.1299999878,267981.571,268536.739,,31,close
screen,html.Screen,1_1_0_1_32,2021-04-12T13:13:20.606Z,,,,,,,,,,,,,,,,53,,,,,,,,,,,,,,491.4960000925348,,response,,,,99,,,,,,,Space,keypress(Space),,,,,,,,---- -- ----- -- ------ - ------- --- ----------<br>------------- ------ ------ ---- ---- ------- ----- -- ----<br>-------- ------- -- ---------- --- - --- ----- ----- ----<br>---- --- --- ----- you ---- ---- ------- ----- ---- -------<br>--- --- -- ----- -- --- ---- -- --- ---- -- ------ ------<br>--- ----- -- ----,269029.37000012025,269028.23500009254,268531.545,268534.44000007585,268536.739,269032.546,,32,you
screen,html.Screen,1_1_0_1_33,2021-04-12T13:13:21.343Z,,,,,,,,,,,,,,,,53,,,,,,,,,,,,,,731.9940001202049,,response,,,,99,,,,,,,Space,keypress(Space),,,,,,,,---- -- ----- -- ------ - ------- --- ----------<br>------------- ------ ------ ---- ---- ------- ----- -- ----<br>-------- ------- -- ---------- --- - --- ----- ----- ----<br>---- --- --- ----- --- feel ---- ------- ----- ---- -------<br>--- --- -- ----- -- --- ---- -- --- ---- -- ------ ------<br>--- ----- -- ----,269766.0600000527,269764.5400001202,269020.09,269029.64500011876,269032.546,269768.371,,33,feel
screen,html.Screen,1_1_0_1_34,2021-04-12T13:13:22.023Z,,,,,,,,,,,,,,,,53,,,,,,,,,,,,,,676.0440000345116,,response,,,,99,,,,,,,Space,keypress(Space),,,,,,,,---- -- ----- -- ------ - ------- --- ----------<br>------------- ------ ------ ---- ---- ------- ----- -- ----<br>-------- ------- -- ---------- --- - --- ----- ----- ----<br>---- --- --- ----- --- ---- that ------- ----- ---- -------<br>--- --- -- ----- -- --- ---- -- --- ---- -- ------ ------<br>--- ----- -- ----,270445.8149999846,270444.4150000345,269765.897,269766.3900000043,269768.371,270448.295,,34,that
screen,html.Screen,1_1_0_1_35,2021-04-12T13:13:22.839Z,,,,,,,,,,,,,,,,53,,,,,,,,,,,,,,812.3399999550893,,response,,,,99,,,,,,,Space,keypress(Space),,,,,,,,---- -- ----- -- ------ - ------- --- ----------<br>------------- ------ ------ ---- ---- ------- ----- -- ----<br>-------- ------- -- ---------- --- - --- ----- ----- ----<br>---- --- --- ----- --- ---- ---- matters ----- ---- -------<br>--- --- -- ----- -- --- ---- -- --- ---- -- ------ ------<br>--- ----- -- ----,271261.9050000794,271260.6349999551,270435.218,270446.1149999406,270448.295,271264.332,,35,matters
screen,html.Screen,1_1_0_1_36,2021-04-12T13:13:23.471Z,,,,,,,,,,,,,,,,53,,,,,,,,,,,,,,628.3029999383143,,response,,,,99,,,,,,,Space,keypress(Space),,,,,,,,"---- -- ----- -- ------ - ------- --- ----------<br>------------- ------ ------ ---- ---- ------- ----- -- ----<br>-------- ------- -- ---------- --- - --- ----- ----- ----<br>---- --- --- ----- --- ---- ---- ------- most, ---- -------<br>--- --- -- ----- -- --- ---- -- --- ---- -- ------ ------<br>--- ----- -- ----",271893.9000000246,271892.6349999383,271248.317,271262.21999991685,271264.332,271896.304,,36,"most,"
screen,html.Screen,1_1_0_1_37,2021-04-12T13:13:23.919Z,,,,,,,,,,,,,,,,53,,,,,,,,,,,,,,444.5359999607317,,response,,,,99,,,,,,,Space,keypress(Space),,,,,,,,---- -- ----- -- ------ - ------- --- ----------<br>------------- ------ ------ ---- ---- ------- ----- -- ----<br>-------- ------- -- ---------- --- - --- ----- ----- ----<br>---- --- --- ----- --- ---- ---- ------- ----- it's -------<br>--- --- -- ----- -- --- ---- -- --- ---- -- ------ ------<br>--- ----- -- ----,272342.0500000939,272340.83999996074,271881.091,271894.1999999806,271896.304,272344.375,,37,it's
screen,html.Screen,1_1_0_1_38,2021-04-12T13:13:24.463Z,,,,,,,,,,,,,,,,53,,,,,,,,,,,,,,540.4250001162291,,response,,,,99,,,,,,,Space,keypress(Space),,,,,,,,---- -- ----- -- ------ - ------- --- ----------<br>------------- ------ ------ ---- ---- ------- ----- -- ----<br>-------- ------- -- ---------- --- - --- ----- ----- ----<br>---- --- --- ----- --- ---- ---- ------- ----- ---- whether<br>--- --- -- ----- -- --- ---- -- --- ---- -- ------ ------<br>--- ----- -- ----,272886.1450001132,272884.8000001162,272329.657,272342.30999997817,272344.375,272888.462,,38,whether
screen,html.Screen,1_1_0_1_39,2021-04-12T13:13:25.023Z,,,,,,,,,,,,,,,,53,,,,,,,,,,,,,,555.9930001062457,,response,,,,99,,,,,,,Space,keypress(Space),,,,,,,,---- -- ----- -- ------ - ------- --- ----------<br>------------- ------ ------ ---- ---- ------- ----- -- ----<br>-------- ------- -- ---------- --- - --- ----- ----- ----<br>---- --- --- ----- --- ---- ---- ------- ----- ---- -------<br>you --- -- ----- -- --- ---- -- --- ---- -- ------ ------<br>--- ----- -- ----,273445.5850000959,273444.45500010625,272877.764,272886.4450000692,272888.462,273447.996,,39,you
screen,html.Screen,1_1_0_1_40,2021-04-12T13:13:25.583Z,,,,,,,,,,,,,,,,53,,,,,,,,,,,,,,556.4339999717777,,response,,,,99,,,,,,,Space,keypress(Space),,,,,,,,---- -- ----- -- ------ - ------- --- ----------<br>------------- ------ ------ ---- ---- ------- ----- -- ----<br>-------- ------- -- ---------- --- - --- ----- ----- ----<br>---- --- --- ----- --- ---- ---- ------- ----- ---- -------<br>--- are -- ----- -- --- ---- -- --- ---- -- ------ ------<br>--- ----- -- ----,274006.12500007264,274004.42999997176,273438.487,273445.85000001825,273447.996,274021.689,,40,are
screen,html.Screen,1_1_0_1_41,2021-04-12T13:13:26.263Z,,,,,,,,,,,,,,,,53,,,,,,,,,,,,,,662.5009999417234,,response,,,,99,,,,,,,Space,keypress(Space),,,,,,,,---- -- ----- -- ------ - ------- --- ----------<br>------------- ------ ------ ---- ---- ------- ----- -- ----<br>-------- ------- -- ---------- --- - --- ----- ----- ----<br>---- --- --- ----- --- ---- ---- ------- ----- ---- -------<br>--- --- as ----- -- --- ---- -- --- ---- -- ------ ------<br>--- ----- -- ----,274685.4600000661,274684.18999994174,273998.142,274006.43500010483,274021.689,274687.748,,41,as
screen,html.Screen,1_1_0_1_42,2021-04-12T13:13:26.819Z,,,,,,,,,,,,,,,,53,,,,,,,,,,,,,,548.7770000729943,,response,,,,99,,,,,,,Space,keypress(Space),,,,,,,,---- -- ----- -- ------ - ------- --- ----------<br>------------- ------ ------ ---- ---- ------- ----- -- ----<br>-------- ------- -- ---------- --- - --- ----- ----- ----<br>---- --- --- ----- --- ---- ---- ------- ----- ---- -------<br>--- --- -- close -- --- ---- -- --- ---- -- ------ ------<br>--- ----- -- ----,275241.565000033,275236.525000073,274671.597,274685.7350000646,274687.748,275255.953,,42,close
screen,html.Screen,1_1_0_1_43,2021-04-12T13:13:27.623Z,,,,,,,,,,,,,,,,53,,,,,,,,,,,,,,788.5520001144614,,response,,,,99,,,,,,,Space,keypress(Space),,,,,,,,---- -- ----- -- ------ - ------- --- ----------<br>------------- ------ ------ ---- ---- ------- ----- -- ----<br>-------- ------- -- ---------- --- - --- ----- ----- ----<br>---- --- --- ----- --- ---- ---- ------- ----- ---- -------<br>--- --- -- ----- as --- ---- -- --- ---- -- ------ ------<br>--- ----- -- ----,276045.8299999591,276044.50500011444,275237.892,275241.89499998465,275255.953,276048.056,,43,as
screen,html.Screen,1_1_0_1_44,2021-04-12T13:13:28.197Z,,,,,,,,,,,,,,,,53,,,,,,,,,,,,,,571.3940001147566,,response,,,,99,,,,,,,Space,keypress(Space),,,,,,,,---- -- ----- -- ------ - ------- --- ----------<br>------------- ------ ------ ---- ---- ------- ----- -- ----<br>-------- ------- -- ---------- --- - --- ----- ----- ----<br>---- --- --- ----- --- ---- ---- ------- ----- ---- -------<br>--- --- -- ----- -- you ---- -- --- ---- -- ------ ------<br>--- ----- -- ----,276620.3300000634,276619.45000011474,276039.334,276046.0800000001,276048.056,276622.131,,44,you
screen,html.Screen,1_1_0_1_45,2021-04-12T13:13:28.847Z,,,,,,,,,,,,,,,,53,,,,,,,,,,,,,,646.2890000949265,,response,,,,99,,,,,,,Space,keypress(Space),,,,,,,,---- -- ----- -- ------ - ------- --- ----------<br>------------- ------ ------ ---- ---- ------- ----- -- ----<br>-------- ------- -- ---------- --- - --- ----- ----- ----<br>---- --- --- ----- --- ---- ---- ------- ----- ---- -------<br>--- --- -- ----- -- --- want -- --- ---- -- ------ ------<br>--- ----- -- ----,277269.6799999103,277268.4200000949,276614.853,276620.54000003263,276622.131,277282.539,,45,want
screen,html.Screen,1_1_0_1_46,2021-04-12T13:13:29.471Z,,,,,,,,,,,,,,,,53,,,,,,,,,,,,,,609.7009999573929,,response,,,,99,,,,,,,Space,keypress(Space),,,,,,,,---- -- ----- -- ------ - ------- --- ----------<br>------------- ------ ------ ---- ---- ------- ----- -- ----<br>-------- ------- -- ---------- --- - --- ----- ----- ----<br>---- --- --- ----- --- ---- ---- ------- ----- ---- -------<br>--- --- -- ----- -- --- ---- to --- ---- -- ------ ------<br>--- ----- -- ----,277893.4500000905,277892.2399999574,277255.459,277269.9599999469,277282.539,277895.788,,46,to
screen,html.Screen,1_1_0_1_47,2021-04-12T13:13:30.399Z,,,,,,,,,,,,,,,,53,,,,,,,,,,,,,,924.5170000593062,,response,,,,99,,,,,,,Space,keypress(Space),,,,,,,,"---- -- ----- -- ------ - ------- --- ----------<br>------------- ------ ------ ---- ---- ------- ----- -- ----<br>-------- ------- -- ---------- --- - --- ----- ----- ----<br>---- --- --- ----- --- ---- ---- ------- ----- ---- -------<br>--- --- -- ----- -- --- ---- -- be, ---- -- ------ ------<br>--- ----- -- ----",278821.4249999728,278820.3050000593,277882.3,277893.75500008464,277895.788,278823.717,,47,"be,"
screen,html.Screen,1_1_0_1_48,2021-04-12T13:13:30.903Z,,,,,,,,,,,,,,,,53,,,,,,,,,,,,,,500.773000028159,,response,,,,99,,,,,,,Space,keypress(Space),,,,,,,,---- -- ----- -- ------ - ------- --- ----------<br>------------- ------ ------ ---- ---- ------- ----- -- ----<br>-------- ------- -- ---------- --- - --- ----- ----- ----<br>---- --- --- ----- --- ---- ---- ------- ----- ---- -------<br>--- --- -- ----- -- --- ---- -- --- even -- ------ ------<br>--- ----- -- ----,279325.97999996506,279324.49000002816,278812.53,278821.69499993324,278823.717,279333.892,,48,even
screen,html.Screen,1_1_0_1_49,2021-04-12T13:13:31.391Z,,,,,,,,,,,,,,,,53,,,,,,,,,,,,,,478.45800002198666,,response,,,,99,,,,,,,Space,keypress(Space),,,,,,,,---- -- ----- -- ------ - ------- --- ----------<br>------------- ------ ------ ---- ---- ------- ----- -- ----<br>-------- ------- -- ---------- --- - --- ----- ----- ----<br>---- --- --- ----- --- ---- ---- ------- ----- ---- -------<br>--- --- -- ----- -- --- ---- -- --- ---- if ------ ------<br>--- ----- -- ----,279813.46000009216,279812.350000022,279323.675,279326.28499995917,279333.892,279815.797,,49,if
screen,html.Screen,1_1_0_1_50,2021-04-12T13:13:31.911Z,,,,,,,,,,,,,,,,53,,,,,,,,,,,,,,516.8080001196358,,response,,,,99,,,,,,,Space,keypress(Space),,,,,,,,---- -- ----- -- ------ - ------- --- ----------<br>------------- ------ ------ ---- ---- ------- ----- -- ----<br>-------- ------- -- ---------- --- - --- ----- ----- ----<br>---- --- --- ----- --- ---- ---- ------- ----- ---- -------<br>--- --- -- ----- -- --- ---- -- --- ---- -- that's ------<br>--- ----- -- ----,280333.8450000156,280332.60500011966,279800.622,279813.7250000145,279815.797,280351.951,,50,that's
screen,html.Screen,1_1_0_1_51,2021-04-12T13:13:32.463Z,,,,,,,,,,,,,,,,53,,,,,,,,,,,,,,532.8140000825515,,response,,,,99,,,,,,,Space,keypress(Space),,,,,,,,---- -- ----- -- ------ - ------- --- ----------<br>------------- ------ ------ ---- ---- ------- ----- -- ----<br>-------- ------- -- ---------- --- - --- ----- ----- ----<br>---- --- --- ----- --- ---- ---- ------- ----- ---- -------<br>--- --- -- ----- -- --- ---- -- --- ---- -- ------ really<br>--- ----- -- ----,280886.15999999456,280884.76500008255,280332.495,280334.16000008583,280351.951,280888.657,,51,really
screen,html.Screen,1_1_0_1_52,2021-04-12T13:13:32.846Z,,,,,,,,,,,,,,,,53,,,,,,,,,,,,,,379.5579999309266,,response,,,,99,,,,,,,Space,keypress(Space),,,,,,,,---- -- ----- -- ------ - ------- --- ----------<br>------------- ------ ------ ---- ---- ------- ----- -- ----<br>-------- ------- -- ---------- --- - --- ----- ----- ----<br>---- --- --- ----- --- ---- ---- ------- ----- ---- -------<br>--- --- -- ----- -- --- ---- -- --- ---- -- ------ ------<br>not ----- -- ----,281269.33500007726,281268.21499993093,280885.362,280886.45499991253,280888.657,281287.766,,52,not
screen,html.Screen,1_1_0_1_53,2021-04-12T13:13:33.223Z,,,,,,,,,,,,,,,,53,,,,,,,,,,,,,,356.6089999161777,,response,,,,99,,,,,,,Space,keypress(Space),,,,,,,,---- -- ----- -- ------ - ------- --- ----------<br>------------- ------ ------ ---- ---- ------- ----- -- ----<br>-------- ------- -- ---------- --- - --- ----- ----- ----<br>---- --- --- ----- --- ---- ---- ------- ----- ---- -------<br>--- --- -- ----- -- --- ---- -- --- ---- -- ------ ------<br>--- close -- ----,281645.6049999688,281644.3749999162,281255.222,281269.58000008017,281287.766,281647.856,,53,close
screen,html.Screen,1_1_0_1_54,2021-04-12T13:13:33.614Z,,,,,,,,,,,,,,,,53,,,,,,,,,,,,,,387.67399999371264,,response,,,,99,,,,,,,Space,keypress(Space),,,,,,,,---- -- ----- -- ------ - ------- --- ----------<br>------------- ------ ------ ---- ---- ------- ----- -- ----<br>-------- ------- -- ---------- --- - --- ----- ----- ----<br>---- --- --- ----- --- ---- ---- ------- ----- ---- -------<br>--- --- -- ----- -- --- ---- -- --- ---- -- ------ ------<br>--- ----- at ----,282036.4749999717,282035.52999999374,281637.495,281645.870000124,281647.856,282038.231,,54,at
screen,html.Screen,1_1_0_1_55,2021-04-12T13:13:34.150Z,,,,,,,,,,,,,,,,53,,,,,,,,,,,,,,534.0940000737319,,response,,,,99,,,,,,,Space,keypress(Space),,,,,,,,---- -- ----- -- ------ - ------- --- ----------<br>------------- ------ ------ ---- ---- ------- ----- -- ----<br>-------- ------- -- ---------- --- - --- ----- ----- ----<br>---- --- --- ----- --- ---- ---- ------- ----- ---- -------<br>--- --- -- ----- -- --- ---- -- --- ---- -- ------ ------<br>--- ----- -- all.,282573.1949999463,282572.32500007376,282031.29,282036.7050000932,282038.231,282575.686,,55,all.
Item 99,flow.Loop,1_1_0_1,2021-04-12T13:13:34.151Z,,,,,,,,,,,,,,,,,,,,,,,,,,,,,,31790.525000073772,,completion,,,,,B,,,,,,,,,,,silence,,,,,282573.5899999272,282572.32500007376,250748.421,250749.26499999128,250781.8,282575.686,,,
Question 1,html.Screen,1_1_0_2,2021-04-12T13:13:38.116Z,,,,,,,,,,,,,,,,,,,,,,,,,,,true,FALSE,,3960.2540000888985,,response,,,,99,B,,,,,,FALSE,click #choice-2,,,,silence,,,,,286538.6099999305,286535.9400000889,282571.546,282573.7650000956,282575.686,286553.519,,,
Question 2,html.Screen,1_1_0_3,2021-04-12T13:13:42.459Z,,,,,,,,,,,,,,,,,,,,,,,,,,,true,TRUE,,4325.635999973281,,response,,,,99,B,,,,,,TRUE,click #choice-1,,,,silence,,,,,290881.8500000052,290879.15499997325,286522.033,286538.9499999583,286553.519,290896.337,,,
Item 99,flow.Sequence,1_1_0,2021-04-12T13:13:42.459Z,,,,,,,,,,,,,,,,,,,,,,,,,,,,,,50121.39799997324,,completion,,,,,,,,,,,,,,,,,,,,,290882.3100000154,290879.15499997325,240726.682,240747.5900000427,240757.757,290896.337,,,
Holding screen,html.Screen,1_1_1_0,2021-04-12T13:13:52.450Z,,,,,,,,,,,,,,,,,,,,,,,,,,,,,,9991.629000000015,,timeout,,,,,,,,,,,,,,,,,,,,,300872.6150000002,300871.453,290874.695,290882.6200000476,290896.337,300887.966,,,
screen,html.Screen,1_1_1_1_0,2021-04-12T13:13:53.047Z,,,,,,,,,,,,,,,,54,,,,,,,,,,,,,,580.3040000703186,,response,,,,100,,,,,,,Space,keypress(Space),,,,,,,,At --- ---- --- ------ ----- ------- ---- -- --- ------- --<br>------- ---------- ------ -- ----- -- ----- -- ---- ------<br>--- ----- --- --- ------ -------- ----- --- ------ ----- --<br>----- ----- ---------- --- --- ------ ------ ---- -- ------<br>------- --- ------ ----- --- ---- ------- -- ---- --- --<br>------- ------,301469.62000010535,301468.27000007033,300871.453,300872.97999998555,300887.966,301475.209,,0,At
screen,html.Screen,1_1_1_1_1,2021-04-12T13:13:53.453Z,,,,,,,,,,,,,,,,54,,,,,,,,,,,,,,400.4410000600037,,response,,,,100,,,,,,,Space,keypress(Space),,,,,,,,-- the ---- --- ------ ----- ------- ---- -- --- ------- --<br>------- ---------- ------ -- ----- -- ----- -- ---- ------<br>--- ----- --- --- ------ -------- ----- --- ------ ----- --<br>----- ----- ---------- --- --- ------ ------ ---- -- ------<br>------- --- ------ ----- --- ---- ------- -- ---- --- --<br>------- ------,301876.36000011116,301875.65000006,301454.632,301469.95500009507,301475.209,301878.061,,1,the
screen,html.Screen,1_1_1_1_2,2021-04-12T13:13:53.759Z,,,,,,,,,,,,,,,,54,,,,,,,,,,,,,,302.38900010171346,,response,,,,100,,,,,,,Space,keypress(Space),,,,,,,,-- --- time --- ------ ----- ------- ---- -- --- ------- --<br>------- ---------- ------ -- ----- -- ----- -- ---- ------<br>--- ----- --- --- ------ -------- ----- --- ------ ----- --<br>----- ----- ---------- --- --- ------ ------ ---- -- ------<br>------- --- ------ ----- --- ---- ------- -- ---- --- --<br>------- ------,302181.62499996834,302180.4500001017,301875.303,301876.51500012726,301878.061,302184.083,,2,time
screen,html.Screen,1_1_1_1_3,2021-04-12T13:13:54.119Z,,,,,,,,,,,,,,,,54,,,,,,,,,,,,,,356.641999969841,,response,,,,100,,,,,,,Space,keypress(Space),,,,,,,,-- --- ---- the ------ ----- ------- ---- -- --- ------- --<br>------- ---------- ------ -- ----- -- ----- -- ---- ------<br>--- ----- --- --- ------ -------- ----- --- ------ ----- --<br>----- ----- ---------- --- --- ------ ------ ---- -- ------<br>------- --- ------ ----- --- ---- ------- -- ---- --- --<br>------- ------,302541.9300000649,302540.7249999698,302178.117,302181.9350000005,302184.083,302544.32,,3,the
screen,html.Screen,1_1_1_1_4,2021-04-12T13:13:54.438Z,,,,,,,,,,,,,,,,54,,,,,,,,,,,,,,315.5550000819494,,response,,,,100,,,,,,,Space,keypress(Space),,,,,,,,-- --- ---- --- French ----- ------- ---- -- --- ------- --<br>------- ---------- ------ -- ----- -- ----- -- ---- ------<br>--- ----- --- --- ------ -------- ----- --- ------ ----- --<br>----- ----- ---------- --- --- ------ ------ ---- -- ------<br>------- --- ------ ----- --- ---- ------- -- ---- --- --<br>------- ------,302860.6050000526,302859.87500008196,302534.202,302542.2199999448,302544.32,302879.004,,4,French
screen,html.Screen,1_1_1_1_5,2021-04-12T13:13:54.806Z,,,,,,,,,,,,,,,,54,,,,,,,,,,,,,,349.2110001264955,,response,,,,100,,,,,,,Space,keypress(Space),,,,,,,,-- --- ---- --- ------ crown ------- ---- -- --- ------- --<br>------- ---------- ------ -- ----- -- ----- -- ---- ------<br>--- ----- --- --- ------ -------- ----- --- ------ ----- --<br>----- ----- ---------- --- --- ------ ------ ---- -- ------<br>------- --- ------ ----- --- ---- ------- -- ---- --- --<br>------- ------,303229.2750000488,303228.2150001265,302862.256,302860.7449999545,302879.004,303231.534,,5,crown
screen,html.Screen,1_1_1_1_6,2021-04-12T13:13:55.383Z,,,,,,,,,,,,,,,,54,,,,,,,,,,,,,,573.0409999582916,,response,,,,100,,,,,,,Space,keypress(Space),,,,,,,,-- --- ---- --- ------ ----- secured ---- -- --- ------- --<br>------- ---------- ------ -- ----- -- ----- -- ---- ------<br>--- ----- --- --- ------ -------- ----- --- ------ ----- --<br>----- ----- ---------- --- --- ------ ------ ---- -- ------<br>------- --- ------ ----- --- ---- ------- -- ---- --- --<br>------- ------,303805.815000087,303804.5749999583,303228.965,303229.53000012785,303231.534,303808.515,,6,secured
screen,html.Screen,1_1_1_1_7,2021-04-12T13:13:55.759Z,,,,,,,,,,,,,,,,54,,,,,,,,,,,,,,371.9099999113241,,response,,,,100,,,,,,,Space,keypress(Space),,,,,,,,-- --- ---- --- ------ ----- ------- much -- --- ------- --<br>------- ---------- ------ -- ----- -- ----- -- ---- ------<br>--- ----- --- --- ------ -------- ----- --- ------ ----- --<br>----- ----- ---------- --- --- ------ ------ ---- -- ------<br>------- --- ------ ----- --- ---- ------- -- ---- --- --<br>------- ------,304181.6300000064,304180.42499991134,303798.343,303806.28499994054,303808.515,304183.349,,7,much
screen,html.Screen,1_1_1_1_8,2021-04-12T13:13:56.199Z,,,,,,,,,,,,,,,,54,,,,,,,,,,,,,,437.60100012779003,,response,,,,100,,,,,,,Space,keypress(Space),,,,,,,,-- --- ---- --- ------ ----- ------- ---- of --- ------- --<br>------- ---------- ------ -- ----- -- ----- -- ---- ------<br>--- ----- --- --- ------ -------- ----- --- ------ ----- --<br>----- ----- ---------- --- --- ------ ------ ---- -- ------<br>------- --- ------ ----- --- ---- ------- -- ---- --- --<br>------- ------,304622.20000009984,304620.9500001278,304175.13,304181.7850000225,304183.349,304624.63,,8,of
screen,html.Screen,1_1_1_1_9,2021-04-12T13:13:56.709Z,,,,,,,,,,,,,,,,54,,,,,,,,,,,,,,506.8950000916375,,response,,,,100,,,,,,,Space,keypress(Space),,,,,,,,-- --- ---- --- ------ ----- ------- ---- -- its ------- --<br>------- ---------- ------ -- ----- -- ----- -- ---- ------<br>--- ----- --- --- ------ -------- ----- --- ------ ----- --<br>----- ----- ---------- --- --- ------ ------ ---- -- ------<br>------- --- ------ ----- --- ---- ------- -- ---- --- --<br>------- ------,305132.30499997735,305131.52500009164,304616.807,304622.48499994166,304624.63,305142.625,,9,its
screen,html.Screen,1_1_1_1_10,2021-04-12T13:13:57.175Z,,,,,,,,,,,,,,,,54,,,,,,,,,,,,,,453.9200000949204,,response,,,,100,,,,,,,Space,keypress(Space),,,,,,,,-- --- ---- --- ------ ----- ------- ---- -- --- revenue --<br>------- ---------- ------ -- ----- -- ----- -- ---- ------<br>--- ----- --- --- ------ -------- ----- --- ------ ----- --<br>----- ----- ---------- --- --- ------ ------ ---- -- ------<br>------- --- ------ ----- --- ---- ------- -- ---- --- --<br>------- ------,305597.6849999279,305596.5450000949,305124.766,305132.51000014134,305142.625,305600.075,,10,revenue
screen,html.Screen,1_1_1_1_11,2021-04-12T13:13:57.725Z,,,,,,,,,,,,,,,,54,,,,,,,,,,,,,,547.4100000813487,,response,,,,100,,,,,,,Space,keypress(Space),,,,,,,,-- --- ---- --- ------ ----- ------- ---- -- --- ------- by<br>------- ---------- ------ -- ----- -- ----- -- ---- ------<br>--- ----- --- --- ------ -------- ----- --- ------ ----- --<br>----- ----- ---------- --- --- ------ ------ ---- -- ------<br>------- --- ------ ----- --- ---- ------- -- ---- --- --<br>------- ------,306148.20499997586,306147.48500008136,305592.722,305597.989999922,305600.075,306159.791,,11,by
screen,html.Screen,1_1_1_1_12,2021-04-12T13:13:58.237Z,,,,,,,,,,,,,,,,54,,,,,,,,,,,,,,499.6939999528113,,response,,,,100,,,,,,,Space,keypress(Space),,,,,,,,-- --- ---- --- ------ ----- ------- ---- -- --- ------- --<br>issuing ---------- ------ -- ----- -- ----- -- ---- ------<br>--- ----- --- --- ------ -------- ----- --- ------ ----- --<br>----- ----- ---------- --- --- ------ ------ ---- -- ------<br>------- --- ------ ----- --- ---- ------- -- ---- --- --<br>------- ------,306660.21999996156,306659.48499995284,306133.504,306148.42500002123,306159.791,306661.985,,12,issuing
screen,html.Screen,1_1_1_1_13,2021-04-12T13:13:58.829Z,,,,,,,,,,,,,,,,54,,,,,,,,,,,,,,589.5399999705842,,response,,,,100,,,,,,,Space,keypress(Space),,,,,,,,-- --- ---- --- ------ ----- ------- ---- -- --- ------- --<br>------- government ------ -- ----- -- ----- -- ---- ------<br>--- ----- --- --- ------ -------- ----- --- ------ ----- --<br>----- ----- ---------- --- --- ------ ------ ---- -- ------<br>------- --- ------ ----- --- ---- ------- -- ---- --- --<br>------- ------,307252.2400000598,307251.52499997057,306659.725,306660.4150000494,306661.985,307260.682,,13,government
screen,html.Screen,1_1_1_1_14,2021-04-12T13:14:00.095Z,,,,,,,,,,,,,,,,54,,,,,,,,,,,,,,1255.8130001053796,,response,,,,100,,,,,,,Space,keypress(Space),,,,,,,,-- --- ---- --- ------ ----- ------- ---- -- --- ------- --<br>------- ---------- bonds. -- ----- -- ----- -- ---- ------<br>--- ----- --- --- ------ -------- ----- --- ------ ----- --<br>----- ----- ---------- --- --- ------ ------ ---- -- ------<br>------- --- ------ ----- --- ---- ------- -- ---- --- --<br>------- ------,308517.7450000774,308516.49500010535,307245.251,307252.444999991,307260.682,308519.967,,14,bonds.
screen,html.Screen,1_1_1_1_15,2021-04-12T13:14:00.647Z,,,,,,,,,,,,,,,,54,,,,,,,,,,,,,,548.6129999628174,,response,,,,100,,,,,,,Space,keypress(Space),,,,,,,,-- --- ---- --- ------ ----- ------- ---- -- --- ------- --<br>------- ---------- ------ In ----- -- ----- -- ---- ------<br>--- ----- --- --- ------ -------- ----- --- ------ ----- --<br>----- ----- ---------- --- --- ------ ------ ---- -- ------<br>------- --- ------ ----- --- ---- ------- -- ---- --- --<br>------- ------,309069.9700000696,309068.5799999628,308510.674,308517.99999992363,308519.967,309072.457,,15,In
screen,html.Screen,1_1_1_1_16,2021-04-12T13:14:01.727Z,,,,,,,,,,,,,,,,54,,,,,,,,,,,,,,1076.0479999319068,,response,,,,100,,,,,,,Space,keypress(Space),,,,,,,,"-- --- ---- --- ------ ----- ------- ---- -- --- ------- --<br>------- ---------- ------ -- 1727, -- ----- -- ---- ------<br>--- ----- --- --- ------ -------- ----- --- ------ ----- --<br>----- ----- ---------- --- --- ------ ------ ---- -- ------<br>------- --- ------ ----- --- ---- ------- -- ---- --- --<br>------- ------",310149.6150000021,310148.5049999319,309069.955,309070.30000002123,309072.457,310152.068,,16,"1727,"
screen,html.Screen,1_1_1_1_17,2021-04-12T13:14:02.158Z,,,,,,,,,,,,,,,,54,,,,,,,,,,,,,,428.27700014034053,,response,,,,100,,,,,,,Space,keypress(Space),,,,,,,,-- --- ---- --- ------ ----- ------- ---- -- --- ------- --<br>------- ---------- ------ -- ----- in ----- -- ---- ------<br>--- ----- --- --- ------ -------- ----- --- ------ ----- --<br>----- ----- ---------- --- --- ------ ------ ---- -- ------<br>------- --- ------ ----- --- ---- ------- -- ---- --- --<br>------- ------,310581.3400000334,310580.34500014037,310139.162,310149.860000005,310152.068,310583.073,,17,in
screen,html.Screen,1_1_1_1_18,2021-04-12T13:14:02.638Z,,,,,,,,,,,,,,,,54,,,,,,,,,,,,,,477.186999940197,,response,,,,100,,,,,,,Space,keypress(Space),,,,,,,,-- --- ---- --- ------ ----- ------- ---- -- --- ------- --<br>------- ---------- ------ -- ----- -- order -- ---- ------<br>--- ----- --- --- ------ -------- ----- --- ------ ----- --<br>----- ----- ---------- --- --- ------ ------ ---- -- ------<br>------- --- ------ ----- --- ---- ------- -- ---- --- --<br>------- ------,311061.3750000484,311060.2599999402,310568.765,310581.4849999733,310583.073,311063.641,,18,order
screen,html.Screen,1_1_1_1_19,2021-04-12T13:14:03.311Z,,,,,,,,,,,,,,,,54,,,,,,,,,,,,,,668.6940000660834,,response,,,,100,,,,,,,Space,keypress(Space),,,,,,,,-- --- ---- --- ------ ----- ------- ---- -- --- ------- --<br>------- ---------- ------ -- ----- -- ----- to ---- ------<br>--- ----- --- --- ------ -------- ----- --- ------ ----- --<br>----- ----- ---------- --- --- ------ ------ ---- -- ------<br>------- --- ------ ----- --- ---- ------- -- ---- --- --<br>------- ------,311733.72499994,311732.3350000661,311049.84,311061.6250000894,311063.641,311736.184,,19,to
screen,html.Screen,1_1_1_1_20,2021-04-12T13:14:03.805Z,,,,,,,,,,,,,,,,54,,,,,,,,,,,,,,491.2560000460362,,response,,,,100,,,,,,,Space,keypress(Space),,,,,,,,-- --- ---- --- ------ ----- ------- ---- -- --- ------- --<br>------- ---------- ------ -- ----- -- ----- -- save ------<br>--- ----- --- --- ------ -------- ----- --- ------ ----- --<br>----- ----- ---------- --- --- ------ ------ ---- -- ------<br>------- --- ------ ----- --- ---- ------- -- ---- --- --<br>------- ------,312228.21999993175,312227.44000004604,311730.386,311734.0100000147,311736.184,312229.861,,20,save
screen,html.Screen,1_1_1_1_21,2021-04-12T13:14:04.247Z,,,,,,,,,,,,,,,,54,,,,,,,,,,,,,,438.5640000398853,,response,,,,100,,,,,,,Space,keypress(Space),,,,,,,,"-- --- ---- --- ------ ----- ------- ---- -- --- ------- --<br>------- ---------- ------ -- ----- -- ----- -- ---- money,<br>--- ----- --- --- ------ -------- ----- --- ------ ----- --<br>----- ----- ---------- --- --- ------ ------ ---- -- ------<br>------- --- ------ ----- --- ---- ------- -- ---- --- --<br>------- ------",312669.66000013053,312668.42500003986,312219.596,312228.36000006646,312229.861,312672.392,,21,"money,"
screen,html.Screen,1_1_1_1_22,2021-04-12T13:14:04.695Z,,,,,,,,,,,,,,,,54,,,,,,,,,,,,,,444.432999917306,,response,,,,100,,,,,,,Space,keypress(Space),,,,,,,,-- --- ---- --- ------ ----- ------- ---- -- --- ------- --<br>------- ---------- ------ -- ----- -- ----- -- ---- ------<br>the ----- --- --- ------ -------- ----- --- ------ ----- --<br>----- ----- ---------- --- --- ------ ------ ---- -- ------<br>------- --- ------ ----- --- ---- ------- -- ---- --- --<br>------- ------,313118.07999992743,313116.8249999173,312663.184,312670.0750000309,312672.392,313120.563,,22,the
screen,html.Screen,1_1_1_1_23,2021-04-12T13:14:05.143Z,,,,,,,,,,,,,,,,54,,,,,,,,,,,,,,443.89700002322206,,response,,,,100,,,,,,,Space,keypress(Space),,,,,,,,-- --- ---- --- ------ ----- ------- ---- -- --- ------- --<br>------- ---------- ------ -- ----- -- ----- -- ---- ------<br>--- state --- --- ------ -------- ----- --- ------ ----- --<br>----- ----- ---------- --- --- ------ ------ ---- -- ------<br>------- --- ------ ----- --- ---- ------- -- ---- --- --<br>------- ------,313565.84500009194,313564.46000002325,313105.756,313118.3949999977,313120.563,313568.247,,23,state
screen,html.Screen,1_1_1_1_24,2021-04-12T13:14:05.623Z,,,,,,,,,,,,,,,,54,,,,,,,,,,,,,,476.0330000310205,,response,,,,100,,,,,,,Space,keypress(Space),,,,,,,,-- --- ---- --- ------ ----- ------- ---- -- --- ------- --<br>------- ---------- ------ -- ----- -- ----- -- ---- ------<br>--- ----- cut --- ------ -------- ----- --- ------ ----- --<br>----- ----- ---------- --- --- ------ ------ ---- -- ------<br>------- --- ------ ----- --- ---- ------- -- ---- --- --<br>------- ------,314045.5199999269,314044.280000031,313553.829,313566.13499997184,313568.247,314048.16,,24,cut
screen,html.Screen,1_1_1_1_25,2021-04-12T13:14:06.351Z,,,,,,,,,,,,,,,,54,,,,,,,,,,,,,,724.9300000315416,,response,,,,100,,,,,,,Space,keypress(Space),,,,,,,,-- --- ---- --- ------ ----- ------- ---- -- --- ------- --<br>------- ---------- ------ -- ----- -- ----- -- ---- ------<br>--- ----- --- the ------ -------- ----- --- ------ ----- --<br>----- ----- ---------- --- --- ------ ------ ---- -- ------<br>------- --- ------ ----- --- ---- ------- -- ---- --- --<br>------- ------,314774.32999992743,314773.0900000315,314034.968,314045.96000001766,314048.16,314776.767,,25,the
screen,html.Screen,1_1_1_1_26,2021-04-12T13:14:06.847Z,,,,,,,,,,,,,,,,54,,,,,,,,,,,,,,491.8429999118671,,response,,,,100,,,,,,,Space,keypress(Space),,,,,,,,-- --- ---- --- ------ ----- ------- ---- -- --- ------- --<br>------- ---------- ------ -- ----- -- ----- -- ---- ------<br>--- ----- --- --- bonds' -------- ----- --- ------ ----- --<br>----- ----- ---------- --- --- ------ ------ ---- -- ------<br>------- --- ------ ----- --- ---- ------- -- ---- --- --<br>------- ------,315269.8550000787,315268.60999991186,314764.829,314774.609999964,314776.767,315272.313,,26,bonds'
screen,html.Screen,1_1_1_1_27,2021-04-12T13:14:07.671Z,,,,,,,,,,,,,,,,54,,,,,,,,,,,,,,820.312000048405,,response,,,,100,,,,,,,Space,keypress(Space),,,,,,,,-- --- ---- --- ------ ----- ------- ---- -- --- ------- --<br>------- ---------- ------ -- ----- -- ----- -- ---- ------<br>--- ----- --- --- ------ interest ----- --- ------ ----- --<br>----- ----- ---------- --- --- ------ ------ ---- -- ------<br>------- --- ------ ----- --- ---- ------- -- ---- --- --<br>------- ------,316093.8699999824,316092.6250000484,315260.213,315270.1600000728,315272.313,316096.303,,27,interest
screen,html.Screen,1_1_1_1_28,2021-04-12T13:14:08.247Z,,,,,,,,,,,,,,,,54,,,,,,,,,,,,,,572.2220001028036,,response,,,,100,,,,,,,Space,keypress(Space),,,,,,,,-- --- ---- --- ------ ----- ------- ---- -- --- ------- --<br>------- ---------- ------ -- ----- -- ----- -- ---- ------<br>--- ----- --- --- ------ -------- rate. --- ------ ----- --<br>----- ----- ---------- --- --- ------ ------ ---- -- ------<br>------- --- ------ ----- --- ---- ------- -- ---- --- --<br>------- ------,316669.6649999358,316668.5250001028,316089.018,316094.16999993846,316096.303,316671.954,,28,rate.
screen,html.Screen,1_1_1_1_29,2021-04-12T13:14:08.791Z,,,,,,,,,,,,,,,,54,,,,,,,,,,,,,,540.5610000210581,,response,,,,100,,,,,,,Space,keypress(Space),,,,,,,,-- --- ---- --- ------ ----- ------- ---- -- --- ------- --<br>------- ---------- ------ -- ----- -- ----- -- ---- ------<br>--- ----- --- --- ------ -------- ----- The ------ ----- --<br>----- ----- ---------- --- --- ------ ------ ---- -- ------<br>------- --- ------ ----- --- ---- ------- -- ---- --- --<br>------- ------,317213.7750000693,317212.5150000211,316662.985,316669.9200000148,316671.954,317216.26,,29,The
screen,html.Screen,1_1_1_1_30,2021-04-12T13:14:09.375Z,,,,,,,,,,,,,,,,54,,,,,,,,,,,,,,580.3150000439491,,response,,,,100,,,,,,,Space,keypress(Space),,,,,,,,-- --- ---- --- ------ ----- ------- ---- -- --- ------- --<br>------- ---------- ------ -- ----- -- ----- -- ---- ------<br>--- ----- --- --- ------ -------- ----- --- market ----- --<br>----- ----- ---------- --- --- ------ ------ ---- -- ------<br>------- --- ------ ----- --- ---- ------- -- ---- --- --<br>------- ------,317797.80500009656,317796.57500004396,317205.277,317214.12999997847,317216.26,317800.218,,30,market
screen,html.Screen,1_1_1_1_31,2021-04-12T13:14:10.071Z,,,,,,,,,,,,,,,,54,,,,,,,,,,,,,,692.5269999377197,,response,,,,100,,,,,,,Space,keypress(Space),,,,,,,,-- --- ---- --- ------ ----- ------- ---- -- --- ------- --<br>------- ---------- ------ -- ----- -- ----- -- ---- ------<br>--- ----- --- --- ------ -------- ----- --- ------ value --<br>----- ----- ---------- --- --- ------ ------ ---- -- ------<br>------- --- ------ ----- --- ---- ------- -- ---- --- --<br>------- ------,318494.09499997273,318492.7449999377,317783.017,317798.09499997646,317800.218,318501.667,,31,value
screen,html.Screen,1_1_1_1_32,2021-04-12T13:14:10.591Z,,,,,,,,,,,,,,,,54,,,,,,,,,,,,,,510.89299994462635,,response,,,,100,,,,,,,Space,keypress(Space),,,,,,,,-- --- ---- --- ------ ----- ------- ---- -- --- ------- --<br>------- ---------- ------ -- ----- -- ----- -- ---- ------<br>--- ----- --- --- ------ -------- ----- --- ------ ----- of<br>----- ----- ---------- --- --- ------ ------ ---- -- ------<br>------- --- ------ ----- --- ---- ------- -- ---- --- --<br>------- ------,319014.024999924,319012.55999994464,318483.68,318494.3600001279,318501.667,319016.531,,32,of
screen,html.Screen,1_1_1_1_33,2021-04-12T13:14:11.103Z,,,,,,,,,,,,,,,,54,,,,,,,,,,,,,,507.84900007530814,,response,,,,100,,,,,,,Space,keypress(Space),,,,,,,,-- --- ---- --- ------ ----- ------- ---- -- --- ------- --<br>------- ---------- ------ -- ----- -- ----- -- ---- ------<br>--- ----- --- --- ------ -------- ----- --- ------ ----- --<br>these ----- ---------- --- --- ------ ------ ---- -- ------<br>------- --- ------ ----- --- ---- ------- -- ---- --- --<br>------- ------,319525.73999995366,319524.3800000753,319000.467,319014.31500003673,319016.531,319535.815,,33,these
screen,html.Screen,1_1_1_1_34,2021-04-12T13:14:11.751Z,,,,,,,,,,,,,,,,54,,,,,,,,,,,,,,636.7100000599748,,response,,,,100,,,,,,,Space,keypress(Space),,,,,,,,-- --- ---- --- ------ ----- ------- ---- -- --- ------- --<br>------- ---------- ------ -- ----- -- ----- -- ---- ------<br>--- ----- --- --- ------ -------- ----- --- ------ ----- --<br>----- bonds ---------- --- --- ------ ------ ---- -- ------<br>------- --- ------ ----- --- ---- ------- -- ---- --- --<br>------- ------,320173.5650000628,320172.52500006,319516.566,319526.0550000239,319535.815,320175.263,,34,bonds
screen,html.Screen,1_1_1_1_35,2021-04-12T13:14:12.567Z,,,,,,,,,,,,,,,,54,,,,,,,,,,,,,,813.3720000743051,,response,,,,100,,,,,,,Space,keypress(Space),,,,,,,,"-- --- ---- --- ------ ----- ------- ---- -- --- ------- --<br>------- ---------- ------ -- ----- -- ----- -- ---- ------<br>--- ----- --- --- ------ -------- ----- --- ------ ----- --<br>----- ----- plummeted, --- --- ------ ------ ---- -- ------<br>------- --- ------ ----- --- ---- ------- -- ---- --- --<br>------- ------",320989.88000000827,320988.6350000743,320169.234,320173.71000000276,320175.263,320992.263,,35,"plummeted,"
screen,html.Screen,1_1_1_1_36,2021-04-12T13:14:13.110Z,,,,,,,,,,,,,,,,54,,,,,,,,,,,,,,539.5269999208977,,response,,,,100,,,,,,,Space,keypress(Space),,,,,,,,-- --- ---- --- ------ ----- ------- ---- -- --- ------- --<br>------- ---------- ------ -- ----- -- ----- -- ---- ------<br>--- ----- --- --- ------ -------- ----- --- ------ ----- --<br>----- ----- ---------- and --- ------ ------ ---- -- ------<br>------- --- ------ ----- --- ---- ------- -- ---- --- --<br>------- ------,321532.5700000394,321531.7899999209,320975.221,320990.17499992624,320992.263,321534.407,,36,and
screen,html.Screen,1_1_1_1_37,2021-04-12T13:14:13.655Z,,,,,,,,,,,,,,,,54,,,,,,,,,,,,,,542.2729999400908,,response,,,,100,,,,,,,Space,keypress(Space),,,,,,,,-- --- ---- --- ------ ----- ------- ---- -- --- ------- --<br>------- ---------- ------ -- ----- -- ----- -- ---- ------<br>--- ----- --- --- ------ -------- ----- --- ------ ----- --<br>----- ----- ---------- --- the ------ ------ ---- -- ------<br>------- --- ------ ----- --- ---- ------- -- ---- --- --<br>------- ------,322077.9150000308,322076.6799999401,321525.681,321532.74499997497,321534.407,322080.385,,37,the
screen,html.Screen,1_1_1_1_38,2021-04-12T13:14:14.375Z,,,,,,,,,,,,,,,,54,,,,,,,,,,,,,,716.0950000190642,,response,,,,100,,,,,,,Space,keypress(Space),,,,,,,,-- --- ---- --- ------ ----- ------- ---- -- --- ------- --<br>------- ---------- ------ -- ----- -- ----- -- ---- ------<br>--- ----- --- --- ------ -------- ----- --- ------ ----- --<br>----- ----- ---------- --- --- market ------ ---- -- ------<br>------- --- ------ ----- --- ---- ------- -- ---- --- --<br>------- ------,322797.719999915,322796.4800000191,322067.898,322078.20499991067,322080.385,322802.114,,38,market
screen,html.Screen,1_1_1_1_39,2021-04-12T13:14:15.031Z,,,,,,,,,,,,,,,,54,,,,,,,,,,,,,,650.5060001128004,,response,,,,100,,,,,,,Space,keypress(Space),,,,,,,,-- --- ---- --- ------ ----- ------- ---- -- --- ------- --<br>------- ---------- ------ -- ----- -- ----- -- ---- ------<br>--- ----- --- --- ------ -------- ----- --- ------ ----- --<br>----- ----- ---------- --- --- ------ became ---- -- ------<br>------- --- ------ ----- --- ---- ------- -- ---- --- --<br>------- ------,323454.075000016,323452.6200001128,322797.019,322798.00499998964,322802.114,323456.527,,39,became
screen,html.Screen,1_1_1_1_40,2021-04-12T13:14:15.807Z,,,,,,,,,,,,,,,,54,,,,,,,,,,,,,,771.9180000151973,,response,,,,100,,,,,,,Space,keypress(Space),,,,,,,,-- --- ---- --- ------ ----- ------- ---- -- --- ------- --<br>------- ---------- ------ -- ----- -- ----- -- ---- ------<br>--- ----- --- --- ------ -------- ----- --- ------ ----- --<br>----- ----- ---------- --- --- ------ ------ wary -- ------<br>------- --- ------ ----- --- ---- ------- -- ---- --- --<br>------- ------,324229.7650000546,324228.4450000152,323452.136,323454.38000001013,323456.527,324232.251,,40,wary
screen,html.Screen,1_1_1_1_41,2021-04-12T13:14:16.303Z,,,,,,,,,,,,,,,,54,,,,,,,,,,,,,,492.349000074144,,response,,,,100,,,,,,,Space,keypress(Space),,,,,,,,-- --- ---- --- ------ ----- ------- ---- -- --- ------- --<br>------- ---------- ------ -- ----- -- ----- -- ---- ------<br>--- ----- --- --- ------ -------- ----- --- ------ ----- --<br>----- ----- ---------- --- --- ------ ------ ---- of ------<br>------- --- ------ ----- --- ---- ------- -- ---- --- --<br>------- ------,324726.05499997735,324724.60000007413,324223.239,324230.0750000868,324232.251,324740.826,,41,of
screen,html.Screen,1_1_1_1_42,2021-04-12T13:14:16.928Z,,,,,,,,,,,,,,,,54,,,,,,,,,,,,,,608.4390000844141,,response,,,,100,,,,,,,Space,keypress(Space),,,,,,,,-- --- ---- --- ------ ----- ------- ---- -- --- ------- --<br>------- ---------- ------ -- ----- -- ----- -- ---- ------<br>--- ----- --- --- ------ -------- ----- --- ------ ----- --<br>----- ----- ---------- --- --- ------ ------ ---- -- French<br>------- --- ------ ----- --- ---- ------- -- ---- --- --<br>------- ------,325350.46000010334,325349.2650000844,324715.603,324726.58000001684,324740.826,325352.928,,42,French
screen,html.Screen,1_1_1_1_43,2021-04-12T13:14:17.783Z,,,,,,,,,,,,,,,,54,,,,,,,,,,,,,,851.351999947161,,response,,,,100,,,,,,,Space,keypress(Space),,,,,,,,-- --- ---- --- ------ ----- ------- ---- -- --- ------- --<br>------- ---------- ------ -- ----- -- ----- -- ---- ------<br>--- ----- --- --- ------ -------- ----- --- ------ ----- --<br>----- ----- ---------- --- --- ------ ------ ---- -- ------<br>credit. --- ------ ----- --- ---- ------- -- ---- --- --<br>------- ------,326205.8099999558,326204.2799999472,325340.807,325350.7600000594,325352.928,326208.246,,43,credit.
screen,html.Screen,1_1_1_1_44,2021-04-12T13:14:18.318Z,,,,,,,,,,,,,,,,54,,,,,,,,,,,,,,531.8940001254086,,response,,,,100,,,,,,,Space,keypress(Space),,,,,,,,-- --- ---- --- ------ ----- ------- ---- -- --- ------- --<br>------- ---------- ------ -- ----- -- ----- -- ---- ------<br>--- ----- --- --- ------ -------- ----- --- ------ ----- --<br>----- ----- ---------- --- --- ------ ------ ---- -- ------<br>------- The ------ ----- --- ---- ------- -- ---- --- --<br>------- ------,326741.0699999891,326740.1400001254,326203.019,326206.1799999792,326208.246,326760.155,,44,The
screen,html.Screen,1_1_1_1_45,2021-04-12T13:14:18.847Z,,,,,,,,,,,,,,,,54,,,,,,,,,,,,,,508.480000102194,,response,,,,100,,,,,,,Space,keypress(Space),,,,,,,,-- --- ---- --- ------ ----- ------- ---- -- --- ------- --<br>------- ---------- ------ -- ----- -- ----- -- ---- ------<br>--- ----- --- --- ------ -------- ----- --- ------ ----- --<br>----- ----- ---------- --- --- ------ ------ ---- -- ------<br>------- --- French ----- --- ---- ------- -- ---- --- --<br>------- ------,327269.86999996006,327268.6350001022,326741.727,326741.27999995835,326760.155,327272.277,,45,French
screen,html.Screen,1_1_1_1_46,2021-04-12T13:14:19.445Z,,,,,,,,,,,,,,,,54,,,,,,,,,,,,,,595.2680000446271,,response,,,,100,,,,,,,Space,keypress(Space),,,,,,,,-- --- ---- --- ------ ----- ------- ---- -- --- ------- --<br>------- ---------- ------ -- ----- -- ----- -- ---- ------<br>--- ----- --- --- ------ -------- ----- --- ------ ----- --<br>----- ----- ---------- --- --- ------ ------ ---- -- ------<br>------- --- ------ state --- ---- ------- -- ---- --- --<br>------- ------,327868.3050000109,327867.5450000446,327259.465,327270.1850000303,327272.277,327876.467,,46,state
screen,html.Screen,1_1_1_1_47,2021-04-12T13:14:19.975Z,,,,,,,,,,,,,,,,54,,,,,,,,,,,,,,519.7829999906826,,response,,,,100,,,,,,,Space,keypress(Space),,,,,,,,-- --- ---- --- ------ ----- ------- ---- -- --- ------- --<br>------- ---------- ------ -- ----- -- ----- -- ---- ------<br>--- ----- --- --- ------ -------- ----- --- ------ ----- --<br>----- ----- ---------- --- --- ------ ------ ---- -- ------<br>------- --- ------ ----- was ---- ------- -- ---- --- --<br>------- ------,328397.4600001238,328396.2499999907,327855.53,327868.47999994643,327876.467,328399.885,,47,was
screen,html.Screen,1_1_1_1_48,2021-04-12T13:14:20.567Z,,,,,,,,,,,,,,,,54,,,,,,,,,,,,,,588.4150000845548,,response,,,,100,,,,,,,Space,keypress(Space),,,,,,,,-- --- ---- --- ------ ----- ------- ---- -- --- ------- --<br>------- ---------- ------ -- ----- -- ----- -- ---- ------<br>--- ----- --- --- ------ -------- ----- --- ------ ----- --<br>----- ----- ---------- --- --- ------ ------ ---- -- ------<br>------- --- ------ ----- --- left ------- -- ---- --- --<br>------- ------,328989.4099999219,328988.30000008456,328393.076,328397.74499996565,328399.885,328994.857,,48,left
screen,html.Screen,1_1_1_1_49,2021-04-12T13:14:21.231Z,,,,,,,,,,,,,,,,54,,,,,,,,,,,,,,657.5629999403027,,response,,,,100,,,,,,,Space,keypress(Space),,,,,,,,-- --- ---- --- ------ ----- ------- ---- -- --- ------- --<br>------- ---------- ------ -- ----- -- ----- -- ---- ------<br>--- ----- --- --- ------ -------- ----- --- ------ ----- --<br>----- ----- ---------- --- --- ------ ------ ---- -- ------<br>------- --- ------ ----- --- ---- without -- ---- --- --<br>------- ------,329653.655000031,329652.4199999403,328983.208,328989.6750000771,328994.857,329655.45,,49,without
screen,html.Screen,1_1_1_1_50,2021-04-12T13:14:21.829Z,,,,,,,,,,,,,,,,54,,,,,,,,,,,,,,596.0399999368819,,response,,,,100,,,,,,,Space,keypress(Space),,,,,,,,-- --- ---- --- ------ ----- ------- ---- -- --- ------- --<br>------- ---------- ------ -- ----- -- ----- -- ---- ------<br>--- ----- --- --- ------ -------- ----- --- ------ ----- --<br>----- ----- ---------- --- --- ------ ------ ---- -- ------<br>------- --- ------ ----- --- ---- ------- an ---- --- --<br>------- ------,330252.250000136,330251.4899999369,329644.827,329653.84500008076,329655.45,330253.943,,50,an
screen,html.Screen,1_1_1_1_51,2021-04-12T13:14:22.487Z,,,,,,,,,,,,,,,,54,,,,,,,,,,,,,,654.2770000993623,,response,,,,100,,,,,,,Space,keypress(Space),,,,,,,,-- --- ---- --- ------ ----- ------- ---- -- --- ------- --<br>------- ---------- ------ -- ----- -- ----- -- ---- ------<br>--- ----- --- --- ------ -------- ----- --- ------ ----- --<br>----- ----- ---------- --- --- ------ ------ ---- -- ------<br>------- --- ------ ----- --- ---- ------- -- easy --- --<br>------- ------,330909.44999991916,330908.2200000994,330238.872,330252.400000114,330253.943,330922.721,,51,easy
screen,html.Screen,1_1_1_1_52,2021-04-12T13:14:23.031Z,,,,,,,,,,,,,,,,54,,,,,,,,,,,,,,529.9240000703139,,response,,,,100,,,,,,,Space,keypress(Space),,,,,,,,-- --- ---- --- ------ ----- ------- ---- -- --- ------- --<br>------- ---------- ------ -- ----- -- ----- -- ---- ------<br>--- ----- --- --- ------ -------- ----- --- ------ ----- --<br>----- ----- ---------- --- --- ------ ------ ---- -- ------<br>------- --- ------ ----- --- ---- ------- -- ---- way --<br>------- ------,331454.05500009656,331452.64500007033,330904.023,330909.74500006996,330922.721,331456.479,,52,way
screen,html.Screen,1_1_1_1_53,2021-04-12T13:14:23.607Z,,,,,,,,,,,,,,,,54,,,,,,,,,,,,,,572.0510000105132,,response,,,,100,,,,,,,Space,keypress(Space),,,,,,,,-- --- ---- --- ------ ----- ------- ---- -- --- ------- --<br>------- ---------- ------ -- ----- -- ----- -- ---- ------<br>--- ----- --- --- ------ -------- ----- --- ------ ----- --<br>----- ----- ---------- --- --- ------ ------ ---- -- ------<br>------- --- ------ ----- --- ---- ------- -- ---- --- of<br>------- ------,332029.7600000631,332028.5300000105,331439.426,331454.3600000907,331456.479,332040.162,,53,of
screen,html.Screen,1_1_1_1_54,2021-04-12T13:14:24.175Z,,,,,,,,,,,,,,,,54,,,,,,,,,,,,,,556.5030000773259,,response,,,,100,,,,,,,Space,keypress(Space),,,,,,,,-- --- ---- --- ------ ----- ------- ---- -- --- ------- --<br>------- ---------- ------ -- ----- -- ----- -- ---- ------<br>--- ----- --- --- ------ -------- ----- --- ------ ----- --<br>----- ----- ---------- --- --- ------ ------ ---- -- ------<br>------- --- ------ ----- --- ---- ------- -- ---- --- --<br>raising ------,332597.9100000113,332596.66500007734,332023.069,332030.06000001915,332040.162,332600.36,,54,raising
screen,html.Screen,1_1_1_1_55,2021-04-12T13:14:24.719Z,,,,,,,,,,,,,,,,54,,,,,,,,,,,,,,540.0799999883166,,response,,,,100,,,,,,,Space,keypress(Space),,,,,,,,-- --- ---- --- ------ ----- ------- ---- -- --- ------- --<br>------- ---------- ------ -- ----- -- ----- -- ---- ------<br>--- ----- --- --- ------ -------- ----- --- ------ ----- --<br>----- ----- ---------- --- --- ------ ------ ---- -- ------<br>------- --- ------ ----- --- ---- ------- -- ---- --- --<br>------- money.,333141.71000011265,333140.4399999883,332590.226,332598.195000086,332600.36,333144.903,,55,money.
Item 100,flow.Loop,1_1_1_1,2021-04-12T13:14:24.719Z,,,,,,,,,,,,,,,,,,,,,,,,,,,,,,32252.473999988288,,completion,,,,,B,,,,,,,,,,,silence,,,,,333142.2349999193,333140.4399999883,300871.453,300872.88999999873,300887.966,333144.903,,,
Question 1,html.Screen,1_1_1_2,2021-04-12T13:14:27.865Z,,,,,,,,,,,,,,,,,,,,,,,,,,,true,TRUE,,3140.221999936679,,response,,,,100,B,,,,,,TRUE,click #choice-1,,,,silence,,,,,336288.02000009455,336285.12499993667,333133.732,333142.46500004083,333144.903,336303.013,,,
Question 2,html.Screen,1_1_1_3,2021-04-12T13:14:30.521Z,,,,,,,,,,,,,,,,,,,,,,,,,,,true,FALSE,,2638.802000027441,,response,,,,100,B,,,,,,FALSE,click #choice-2,,,,silence,,,,,338943.5850000009,338941.8150000274,336284.105,336288.32500008866,336303.013,338960.624,,,
Item 100,flow.Sequence,1_1_1,2021-04-12T13:14:30.521Z,,,,,,,,,,,,,,,,,,,,,,,,,,,,,,48045.47800002742,,completion,,,,,,,,,,,,,,,,,,,,,338944.1949999891,338941.8150000274,290874.695,290882.5250000227,290896.337,338960.624,,,
End of Practice,html.Page,1_1_2,2021-04-12T13:14:50.520Z,,,,,,,,,,,,,,,,,,,,,,,,,,,,,,19997.675999999978,,timeout,,,,,,,,,,,,,,,,,,,,,358943.1549999863,358941.9,338926.915,338944.52999997884,338960.624,358958.3,,,
Practice,flow.Sequence,1_1,2021-04-12T13:14:50.521Z,,,,,,,,,,,,,,,,,,,,,,,,,,,,,,118184.14300000001,,completion,,,,,,,,,,,,,,,,,,,,,358943.59000003897,358941.9,240726.682,240747.54000012763,240757.757,358958.3,,,
Trap_instruction,html.Page,1_2_0,2021-04-12T13:15:10.528Z,,,,,,,,,,,,,,,,,,,,,,,,,,,,,,20008.158999999985,,timeout,,,,,,,,,,,,,,,,,,,,,378951.1299999431,378949.872,358941.9,358943.96000006236,358958.3,378966.459,,,
trap_trial,html.Screen,1_2_1,2021-04-12T13:15:19.896Z,,,,,,,,,,,,,,,,,,,,,,,,,,,true,1,,9349.975999927905,,response,,,,,,,,,,,1,click #choice-1,,,,,,,,,388318.7700000126,388316.4349999279,378949.872,378951.47500000894,378966.459,388320.947,,,
end of trap trial,html.Page,1_2_2,2021-04-12T13:15:29.876Z,,,,,,,,,,,,,,,,,,,,,,,,,,,,,,9993.462999999989,,timeout,,,,,,,,,,,,,,,,,,,,,398298.6149999779,398297.873,388304.428,388319.1200001165,388320.947,398314.41,,,
Trap 1,flow.Sequence,1_2,2021-04-12T13:15:29.876Z,,,,,,,,,,,,,,,,,,,,,,,,,,,,,,39339.57300000003,,completion,,,,,,,,,,,,,,,,,,,,,398298.88000013307,398297.873,358941.9,358943.80500004627,358958.3,398314.41,,,
Standby,html.Page,1_3_0,2021-04-12T13:15:37.871Z,,,,,,,,,,,,,,,,,,,,,,,,,,,,,,7994.911000000022,,timeout,,,,,,,,,,,,,,,,,,,,,406294.23999995925,406292.882,398297.873,398299.0900001023,398314.41,406309.321,,,
Holding screen,html.Screen,1_3_1_0_0,2021-04-12T13:15:44.875Z,,,,,,,,,,,,,,,,,,,,,,,,,,,,,,7003.517999999982,,timeout,,,,,,,,,,,,,,,,,,,,,413297.4749999121,413296.228,406292.882,406294.71500008367,406309.321,413312.839,,,
screen,html.Screen,1_3_1_0_1_0,2021-04-12T13:15:46.176Z,,,,,,,,,,,,,,,,15,,,,,,,,,,,,,,1284.0909999997239,,response,,,,7,B,,,,,,Space,keypress(Space),,,,lyrical,,,,Greg --------- ---------- - --- ------- -- --- ------------<br>----- -- -------- ------- ---- ------ - -------- ---- -----<br>--- ------- ---- -- --- -------- --- - ----- ------ ---- --<br>-------- --- -------- -------- --- -------- ---- -- ----- -<br>-------- ---- --- ---------- --------- -- ------- ------ -<br>--------- ----- -----,414598.98500004783,414596.9299999997,413296.228,413297.86500008777,413312.839,414608.696,,0,Greg
screen,html.Screen,1_3_1_0_1_1,2021-04-12T13:15:46.703Z,,,,,,,,,,,,,,,,15,,,,,,,,,,,,,,515.8590001040138,,response,,,,7,B,,,,,,Space,keypress(Space),,,,lyrical,,,,"---- Anderson, ---------- - --- ------- -- --- ------------<br>----- -- -------- ------- ---- ------ - -------- ---- -----<br>--- ------- ---- -- --- -------- --- - ----- ------ ---- --<br>-------- --- -------- -------- --- -------- ---- -- ----- -<br>-------- ---- --- ---------- --------- -- ------- ------ -<br>--------- ----- -----",415125.84000010975,415124.555000104,414596.261,414599.3149999995,414608.696,415128.377,,1,"Anderson,"
screen,html.Screen,1_3_1_0_1_2,2021-04-12T13:15:47.223Z,,,,,,,,,,,,,,,,15,,,,,,,,,,,,,,516.0029999542749,,response,,,,7,B,,,,,,Space,keypress(Space),,,,lyrical,,,,---- --------- considered - --- ------- -- --- ------------<br>----- -- -------- ------- ---- ------ - -------- ---- -----<br>--- ------- ---- -- --- -------- --- - ----- ------ ---- --<br>-------- --- -------- -------- --- -------- ---- -- ----- -<br>-------- ---- --- ---------- --------- -- ------- ------ -<br>--------- ----- -----,415645.7599999849,415644.37999995425,415125.482,415126.1199999135,415128.377,415661.929,,2,considered
screen,html.Screen,1_3_1_0_1_3,2021-04-12T13:15:47.719Z,,,,,,,,,,,,,,,,15,,,,,,,,,,,,,,478.45099999709055,,response,,,,7,B,,,,,,Space,keypress(Space),,,,lyrical,,,,---- --------- ---------- a --- ------- -- --- ------------<br>----- -- -------- ------- ---- ------ - -------- ---- -----<br>--- ------- ---- -- --- -------- --- - ----- ------ ---- --<br>-------- --- -------- -------- --- -------- ---- -- ----- -<br>-------- ---- --- ---------- --------- -- ------- ------ -<br>--------- ----- -----,416141.7000000365,416140.3799999971,415645.081,415646.04500005953,415661.929,416144.229,,3,a
screen,html.Screen,1_3_1_0_1_4,2021-04-12T13:15:48.183Z,,,,,,,,,,,,,,,,15,,,,,,,,,,,,,,460.4860001395573,,response,,,,7,B,,,,,,Space,keypress(Space),,,,lyrical,,,,---- --------- ---------- - key ------- -- --- ------------<br>----- -- -------- ------- ---- ------ - -------- ---- -----<br>--- ------- ---- -- --- -------- --- - ----- ------ ---- --<br>-------- --- -------- -------- --- -------- ---- -- ----- -<br>-------- ---- --- ---------- --------- -- ------- ------ -<br>--------- ----- -----,416606.08000005595,416604.71500013955,416128.59,416142.0700000599,416144.229,416608.608,,4,key
screen,html.Screen,1_3_1_0_1_5,2021-04-12T13:15:48.693Z,,,,,,,,,,,,,,,,15,,,,,,,,,,,,,,506.8970001107082,,response,,,,7,B,,,,,,Space,keypress(Space),,,,lyrical,,,,---- --------- ---------- - --- witness -- --- ------------<br>----- -- -------- ------- ---- ------ - -------- ---- -----<br>--- ------- ---- -- --- -------- --- - ----- ------ ---- --<br>-------- --- -------- -------- --- -------- ---- -- ----- -<br>-------- ---- --- ---------- --------- -- ------- ------ -<br>--------- ----- -----,417116.2749999203,417115.5050001107,416594.23,416606.4450000413,416608.608,417118.006,,5,witness
screen,html.Screen,1_3_1_0_1_6,2021-04-12T13:15:49.245Z,,,,,,,,,,,,,,,,15,,,,,,,,,,,,,,549.5690000868053,,response,,,,7,B,,,,,,Space,keypress(Space),,,,lyrical,,,,---- --------- ---------- - --- ------- by --- ------------<br>----- -- -------- ------- ---- ------ - -------- ---- -----<br>--- ------- ---- -- --- -------- --- - ----- ------ ---- --<br>-------- --- -------- -------- --- -------- ---- -- ----- -<br>-------- ---- --- ---------- --------- -- ------- ------ -<br>--------- ----- -----,417668.3600000106,417667.5750000868,417108.616,417116.43499997444,417118.006,417681.083,,6,by
screen,html.Screen,1_3_1_0_1_7,2021-04-12T13:15:49.773Z,,,,,,,,,,,,,,,,15,,,,,,,,,,,,,,514.3919999568025,,response,,,,7,B,,,,,,Space,keypress(Space),,,,lyrical,,,,---- --------- ---------- - --- ------- -- the ------------<br>----- -- -------- ------- ---- ------ - -------- ---- -----<br>--- ------- ---- -- --- -------- --- - ----- ------ ---- --<br>-------- --- -------- -------- --- -------- ---- -- ----- -<br>-------- ---- --- ---------- --------- -- ------- ------ -<br>--------- ----- -----,418196.1799999699,418195.4749999568,417667.984,417668.56499994174,417681.083,418198.035,,7,the
screen,html.Screen,1_3_1_0_1_8,2021-04-12T13:15:50.399Z,,,,,,,,,,,,,,,,15,,,,,,,,,,,,,,622.189999915834,,response,,,,7,B,,,,,,Space,keypress(Space),,,,lyrical,,,,"---- --------- ---------- - --- ------- -- --- prosecution,<br>----- -- -------- ------- ---- ------ - -------- ---- -----<br>--- ------- ---- -- --- -------- --- - ----- ------ ---- --<br>-------- --- -------- -------- --- -------- ---- -- ----- -<br>-------- ---- --- ---------- --------- -- ------- ------ -<br>--------- ----- -----",418821.5950001031,418820.2249999158,418181.054,418196.3850001339,418198.035,418828.147,,8,"prosecution,"
screen,html.Screen,1_3_1_0_1_9,2021-04-12T13:15:51.046Z,,,,,,,,,,,,,,,,15,,,,,,,,,,,,,,640.0129999312339,,response,,,,7,B,,,,,,Space,keypress(Space),,,,lyrical,,,,---- --------- ---------- - --- ------- -- --- ------------<br>vowed -- -------- ------- ---- ------ - -------- ---- -----<br>--- ------- ---- -- --- -------- --- - ----- ------ ---- --<br>-------- --- -------- -------- --- -------- ---- -- ----- -<br>-------- ---- --- ---------- --------- -- ------- ------ -<br>--------- ----- -----,419468.9350000117,419468.15999993123,418814.655,418821.99000008404,418828.147,419470.717,,9,vowed
screen,html.Screen,1_3_1_0_1_10,2021-04-12T13:15:51.654Z,,,,,,,,,,,,,,,,15,,,,,,,,,,,,,,605.5029999298858,,response,,,,7,B,,,,,,Space,keypress(Space),,,,lyrical,,,,---- --------- ---------- - --- ------- -- --- ------------<br>----- he -------- ------- ---- ------ - -------- ---- -----<br>--- ------- ---- -- --- -------- --- - ----- ------ ---- --<br>-------- --- -------- -------- --- -------- ---- -- ----- -<br>-------- ---- --- ---------- --------- -- ------- ------ -<br>--------- ----- -----,420077.4050001055,420076.2199999299,419461.65,419469.07999995165,419470.717,420079.651,,10,he
screen,html.Screen,1_3_1_0_1_11,2021-04-12T13:15:52.255Z,,,,,,,,,,,,,,,,15,,,,,,,,,,,,,,596.8140000259154,,response,,,,7,B,,,,,,Space,keypress(Space),,,,lyrical,,,,---- --------- ---------- - --- ------- -- --- ------------<br>----- -- wouldn't ------- ---- ------ - -------- ---- -----<br>--- ------- ---- -- --- -------- --- - ----- ------ ---- --<br>-------- --- -------- -------- --- -------- ---- -- ----- -<br>-------- ---- --- ---------- --------- -- ------- ------ -<br>--------- ----- -----,420677.5599999819,420676.4650000259,420070.858,420077.680000104,420079.651,420679.871,,11,wouldn't
screen,html.Screen,1_3_1_0_1_12,2021-04-12T13:15:52.798Z,,,,,,,,,,,,,,,,15,,,,,,,,,,,,,,540.273999912024,,response,,,,7,B,,,,,,Space,keypress(Space),,,,lyrical,,,,---- --------- ---------- - --- ------- -- --- ------------<br>----- -- -------- testify ---- ------ - -------- ---- -----<br>--- ------- ---- -- --- -------- --- - ----- ------ ---- --<br>-------- --- -------- -------- --- -------- ---- -- ----- -<br>-------- ---- --- ---------- --------- -- ------- ------ -<br>--------- ----- -----,421221.2799999397,421220.144999912,420663.078,420677.8049999848,420679.871,421223.566,,12,testify
screen,html.Screen,1_3_1_0_1_13,2021-04-12T13:15:53.327Z,,,,,,,,,,,,,,,,15,,,,,,,,,,,,,,525.0340000499273,,response,,,,7,B,,,,,,Space,keypress(Space),,,,lyrical,,,,---- --------- ---------- - --- ------- -- --- ------------<br>----- -- -------- ------- when ------ - -------- ---- -----<br>--- ------- ---- -- --- -------- --- - ----- ------ ---- --<br>-------- --- -------- -------- --- -------- ---- -- ----- -<br>-------- ---- --- ---------- --------- -- ------- ------ -<br>--------- ----- -----,421749.88500005566,421748.6000000499,421213.289,421221.5450000949,421223.566,421752.293,,13,when
screen,html.Screen,1_3_1_0_1_14,2021-04-12T13:15:53.990Z,,,,,,,,,,,,,,,,15,,,,,,,,,,,,,,659.72699993063,,response,,,,7,B,,,,,,Space,keypress(Space),,,,lyrical,,,,---- --------- ---------- - --- ------- -- --- ------------<br>----- -- -------- ------- ---- served - -------- ---- -----<br>--- ------- ---- -- --- -------- --- - ----- ------ ---- --<br>-------- --- -------- -------- --- -------- ---- -- ----- -<br>-------- ---- --- ---------- --------- -- ------- ------ -<br>--------- ----- -----,422412.9850000609,422412.01999993064,421740.346,421750.17499993555,421752.293,422415.079,,14,served
screen,html.Screen,1_3_1_0_1_15,2021-04-12T13:15:54.494Z,,,,,,,,,,,,,,,,15,,,,,,,,,,,,,,500.80600002396386,,response,,,,7,B,,,,,,Space,keypress(Space),,,,lyrical,,,,---- --------- ---------- - --- ------- -- --- ------------<br>----- -- -------- ------- ---- ------ a -------- ---- -----<br>--- ------- ---- -- --- -------- --- - ----- ------ ---- --<br>-------- --- -------- -------- --- -------- ---- -- ----- -<br>-------- ---- --- ---------- --------- -- ------- ------ -<br>--------- ----- -----,422916.67499998584,422915.885000024,422402.415,422413.20500010625,422415.079,422925.267,,15,a
screen,html.Screen,1_3_1_0_1_16,2021-04-12T13:15:55.367Z,,,,,,,,,,,,,,,,15,,,,,,,,,,,,,,863.263000019826,,response,,,,7,B,,,,,,Space,keypress(Space),,,,lyrical,,,,---- --------- ---------- - --- ------- -- --- ------------<br>----- -- -------- ------- ---- ------ - subpoena ---- -----<br>--- ------- ---- -- --- -------- --- - ----- ------ ---- --<br>-------- --- -------- -------- --- -------- ---- -- ----- -<br>-------- ---- --- ---------- --------- -- ------- ------ -<br>--------- ----- -----,423789.79999991134,423788.5300000198,422915.087,422916.8199999258,422925.267,423792.258,,16,subpoena
screen,html.Screen,1_3_1_0_1_17,2021-04-12T13:15:55.951Z,,,,,,,,,,,,,,,,15,,,,,,,,,,,,,,580.1220000734902,,response,,,,7,B,,,,,,Space,keypress(Space),,,,lyrical,,,,---- --------- ---------- - --- ------- -- --- ------------<br>----- -- -------- ------- ---- ------ - -------- last -----<br>--- ------- ---- -- --- -------- --- - ----- ------ ---- --<br>-------- --- -------- -------- --- -------- ---- -- ----- -<br>-------- ---- --- ---------- --------- -- ------- ------ -<br>--------- ----- -----,424373.61000012606,424372.38000007346,423775.131,423790.09000002407,423792.258,424376.136,,17,last
screen,html.Screen,1_3_1_0_1_18,2021-04-12T13:15:57.248Z,,,,,,,,,,,,,,,,15,,,,,,,,,,,,,,1293.163999950455,,response,,,,7,B,,,,,,Space,keypress(Space),,,,lyrical,,,,---- --------- ---------- - --- ------- -- --- ------------<br>----- -- -------- ------- ---- ------ - -------- ---- week.<br>--- ------- ---- -- --- -------- --- - ----- ------ ---- --<br>-------- --- -------- -------- --- -------- ---- -- ----- -<br>-------- ---- --- ---------- --------- -- ------- ------ -<br>--------- ----- -----,425670.630000066,425669.29999995045,424359.076,424373.8949999679,424376.136,425672.997,,18,week.
screen,html.Screen,1_3_1_0_1_19,2021-04-12T13:15:58.167Z,,,,,,,,,,,,,,,,15,,,,,,,,,,,,,,915.7230001161806,,response,,,,7,B,,,,,,Space,keypress(Space),,,,lyrical,,,,---- --------- ---------- - --- ------- -- --- ------------<br>----- -- -------- ------- ---- ------ - -------- ---- -----<br>His ------- ---- -- --- -------- --- - ----- ------ ---- --<br>-------- --- -------- -------- --- -------- ---- -- ----- -<br>-------- ---- --- ---------- --------- -- ------- ------ -<br>--------- ----- -----,426589.9450001307,426588.72000011615,425659.518,425670.9100001026,425672.997,426592.37,,19,His
screen,html.Screen,1_3_1_0_1_20,2021-04-12T13:15:58.855Z,,,,,,,,,,,,,,,,15,,,,,,,,,,,,,,684.0300000897842,,response,,,,7,B,,,,,,Space,keypress(Space),,,,lyrical,,,,---- --------- ---------- - --- ------- -- --- ------------<br>----- -- -------- ------- ---- ------ - -------- ---- -----<br>--- lawyers ---- -- --- -------- --- - ----- ------ ---- --<br>-------- --- -------- -------- --- -------- ---- -- ----- -<br>-------- ---- --- ---------- --------- -- ------- ------ -<br>--------- ----- -----,427277.9000001028,427276.4000000898,426589.648,426590.22499993443,426592.37,427280.4,,20,lawyers
screen,html.Screen,1_3_1_0_1_21,2021-04-12T13:15:59.631Z,,,,,,,,,,,,,,,,15,,,,,,,,,,,,,,772.010000003851,,response,,,,7,B,,,,,,Space,keypress(Space),,,,lyrical,,,,---- --------- ---------- - --- ------- -- --- ------------<br>----- -- -------- ------- ---- ------ - -------- ---- -----<br>--- ------- said -- --- -------- --- - ----- ------ ---- --<br>-------- --- -------- -------- --- -------- ---- -- ----- -<br>-------- ---- --- ---------- --------- -- ------- ------ -<br>--------- ----- -----,428053.62499994226,428052.4100000039,427275.876,427278.20000005886,427280.4,428087.157,,21,said
screen,html.Screen,1_3_1_0_1_22,2021-04-12T13:16:00.151Z,,,,,,,,,,,,,,,,15,,,,,,,,,,,,,,485.2230000268901,,response,,,,7,B,,,,,,Space,keypress(Space),,,,lyrical,,,,---- --------- ---------- - --- ------- -- --- ------------<br>----- -- -------- ------- ---- ------ - -------- ---- -----<br>--- ------- ---- he --- -------- --- - ----- ------ ---- --<br>-------- --- -------- -------- --- -------- ---- -- ----- -<br>-------- ---- --- ---------- --------- -- ------- ------ -<br>--------- ----- -----,428573.71999998577,428572.3800000269,428047.127,428053.9100000169,428087.157,428576.133,,22,he
screen,html.Screen,1_3_1_0_1_23,2021-04-12T13:16:00.679Z,,,,,,,,,,,,,,,,15,,,,,,,,,,,,,,524.1470001297421,,response,,,,7,B,,,,,,Space,keypress(Space),,,,lyrical,,,,---- --------- ---------- - --- ------- -- --- ------------<br>----- -- -------- ------- ---- ------ - -------- ---- -----<br>--- ------- ---- -- was -------- --- - ----- ------ ---- --<br>-------- --- -------- -------- --- -------- ---- -- ----- -<br>-------- ---- --- ---------- --------- -- ------- ------ -<br>--------- ----- -----,429101.5099999495,429100.2800001297,428572.014,428574.0050000604,428576.133,429108.808,,23,was
screen,html.Screen,1_3_1_0_1_24,2021-04-12T13:16:01.351Z,,,,,,,,,,,,,,,,15,,,,,,,,,,,,,,663.922000084247,,response,,,,7,B,,,,,,Space,keypress(Space),,,,lyrical,,,,---- --------- ---------- - --- ------- -- --- ------------<br>----- -- -------- ------- ---- ------ - -------- ---- -----<br>--- ------- ---- -- --- prepared --- - ----- ------ ---- --<br>-------- --- -------- -------- --- -------- ---- -- ----- -<br>-------- ---- --- ---------- --------- -- ------- ------ -<br>--------- ----- -----,429773.9699999802,429772.73000008427,429092.91,429101.79500002414,429108.808,429776.467,,24,prepared
screen,html.Screen,1_3_1_0_1_25,2021-04-12T13:16:01.991Z,,,,,,,,,,,,,,,,15,,,,,,,,,,,,,,636.077999970119,,response,,,,7,B,,,,,,Space,keypress(Space),,,,lyrical,,,,---- --------- ---------- - --- ------- -- --- ------------<br>----- -- -------- ------- ---- ------ - -------- ---- -----<br>--- ------- ---- -- --- -------- for - ----- ------ ---- --<br>-------- --- -------- -------- --- -------- ---- -- ----- -<br>-------- ---- --- ---------- --------- -- ------- ------ -<br>--------- ----- -----,430413.7750000227,430412.5449999701,429758.982,429774.25500005484,429776.467,430416.232,,25,for
screen,html.Screen,1_3_1_0_1_26,2021-04-12T13:16:02.648Z,,,,,,,,,,,,,,,,15,,,,,,,,,,,,,,653.0179999422398,,response,,,,7,B,,,,,,Space,keypress(Space),,,,lyrical,,,,---- --------- ---------- - --- ------- -- --- ------------<br>----- -- -------- ------- ---- ------ - -------- ---- -----<br>--- ------- ---- -- --- -------- --- a ----- ------ ---- --<br>-------- --- -------- -------- --- -------- ---- -- ----- -<br>-------- ---- --- ---------- --------- -- ------- ------ -<br>--------- ----- -----,431070.62000012957,431069.24999994226,430409.862,430414.0600000974,430416.232,431085.591,,26,a
screen,html.Screen,1_3_1_0_1_27,2021-04-12T13:16:03.367Z,,,,,,,,,,,,,,,,15,,,,,,,,,,,,,,702.988999934867,,response,,,,7,B,,,,,,Space,keypress(Space),,,,lyrical,,,,---- --------- ---------- - --- ------- -- --- ------------<br>----- -- -------- ------- ---- ------ - -------- ---- -----<br>--- ------- ---- -- --- -------- --- - third ------ ---- --<br>-------- --- -------- -------- --- -------- ---- -- ----- -<br>-------- ---- --- ---------- --------- -- ------- ------ -<br>--------- ----- -----,431789.8200000636,431788.5799999349,431066.219,431070.9049999714,431085.591,431792.208,,27,third
screen,html.Screen,1_3_1_0_1_28,2021-04-12T13:16:04.047Z,,,,,,,,,,,,,,,,15,,,,,,,,,,,,,,676.2919999590376,,response,,,,7,B,,,,,,Space,keypress(Space),,,,lyrical,,,,---- --------- ---------- - --- ------- -- --- ------------<br>----- -- -------- ------- ---- ------ - -------- ---- -----<br>--- ------- ---- -- --- -------- --- - ----- prison ---- --<br>-------- --- -------- -------- --- -------- ---- -- ----- -<br>-------- ---- --- ---------- --------- -- ------- ------ -<br>--------- ----- -----,432469.74500012584,432468.499999959,431785.579,431790.1099999435,431792.208,432472.25,,28,prison
screen,html.Screen,1_3_1_0_1_29,2021-04-12T13:16:04.631Z,,,,,,,,,,,,,,,,15,,,,,,,,,,,,,,580.2950001005083,,response,,,,7,B,,,,,,Space,keypress(Space),,,,lyrical,,,,---- --------- ---------- - --- ------- -- --- ------------<br>----- -- -------- ------- ---- ------ - -------- ---- -----<br>--- ------- ---- -- --- -------- --- - ----- ------ stay --<br>-------- --- -------- -------- --- -------- ---- -- ----- -<br>-------- ---- --- ---------- --------- -- ------- ------ -<br>--------- ----- -----,433053.77999995835,433052.5450001005,432459.022,432470.03500000574,432472.25,433056.219,,29,stay
screen,html.Screen,1_3_1_0_1_30,2021-04-12T13:16:05.408Z,,,,,,,,,,,,,,,,15,,,,,,,,,,,,,,772.2109999941313,,response,,,,7,B,,,,,,Space,keypress(Space),,,,lyrical,,,,---- --------- ---------- - --- ------- -- --- ------------<br>----- -- -------- ------- ---- ------ - -------- ---- -----<br>--- ------- ---- -- --- -------- --- - ----- ------ ---- to<br>-------- --- -------- -------- --- -------- ---- -- ----- -<br>-------- ---- --- ---------- --------- -- ------- ------ -<br>--------- ----- -----,433830.4900000803,433828.4299999941,433038.889,433054.05999999493,433056.219,433832.877,,30,to
screen,html.Screen,1_3_1_0_1_31,2021-04-12T13:16:06.095Z,,,,,,,,,,,,,,,,15,,,,,,,,,,,,,,683.7179999354994,,response,,,,7,B,,,,,,Space,keypress(Space),,,,lyrical,,,,---- --------- ---------- - --- ------- -- --- ------------<br>----- -- -------- ------- ---- ------ - -------- ---- -----<br>--- ------- ---- -- --- -------- --- - ----- ------ ---- --<br>maintain --- -------- -------- --- -------- ---- -- ----- -<br>-------- ---- --- ---------- --------- -- ------- ------ -<br>--------- ----- -----,434518.08000006713,434516.5949999355,433822.971,433830.9200000949,433832.877,434520.602,,31,maintain
screen,html.Screen,1_3_1_0_1_32,2021-04-12T13:16:06.791Z,,,,,,,,,,,,,,,,15,,,,,,,,,,,,,,691.7829999625101,,response,,,,7,B,,,,,,Space,keypress(Space),,,,lyrical,,,,---- --------- ---------- - --- ------- -- --- ------------<br>----- -- -------- ------- ---- ------ - -------- ---- -----<br>--- ------- ---- -- --- -------- --- - ----- ------ ---- --<br>-------- his -------- -------- --- -------- ---- -- ----- -<br>-------- ---- --- ---------- --------- -- ------- ------ -<br>--------- ----- -----,435213.6349999346,435212.3849999625,434516.32,434518.38500006124,434520.602,435225.213,,32,his
screen,html.Screen,1_3_1_0_1_33,2021-04-12T13:16:07.527Z,,,,,,,,,,,,,,,,15,,,,,,,,,,,,,,723.9770000721328,,response,,,,7,B,,,,,,Space,keypress(Space),,,,lyrical,,,,---- --------- ---------- - --- ------- -- --- ------------<br>----- -- -------- ------- ---- ------ - -------- ---- -----<br>--- ------- ---- -- --- -------- --- - ----- ------ ---- --<br>-------- --- silence. -------- --- -------- ---- -- ----- -<br>-------- ---- --- ---------- --------- -- ------- ------ -<br>--------- ----- -----,435950.4100000486,435949.1900000721,435203.955,435213.92000000924,435225.213,435952.815,,33,silence.
screen,html.Screen,1_3_1_0_1_34,2021-04-12T13:16:08.247Z,,,,,,,,,,,,,,,,15,,,,,,,,,,,,,,716.0100000588573,,response,,,,7,B,,,,,,Space,keypress(Space),,,,lyrical,,,,---- --------- ---------- - --- ------- -- --- ------------<br>----- -- -------- ------- ---- ------ - -------- ---- -----<br>--- ------- ---- -- --- -------- --- - ----- ------ ---- --<br>-------- --- -------- Anderson --- -------- ---- -- ----- -<br>-------- ---- --- ---------- --------- -- ------- ------ -<br>--------- ----- -----,436670.06999999285,436668.82500005886,435941.701,435950.69500012323,435952.815,436672.566,,34,Anderson
screen,html.Screen,1_3_1_0_1_35,2021-04-12T13:16:08.703Z,,,,,,,,,,,,,,,,15,,,,,,,,,,,,,,452.0090000234777,,response,,,,7,B,,,,,,Space,keypress(Space),,,,lyrical,,,,---- --------- ---------- - --- ------- -- --- ------------<br>----- -- -------- ------- ---- ------ - -------- ---- -----<br>--- ------- ---- -- --- -------- --- - ----- ------ ---- --<br>-------- --- -------- -------- was -------- ---- -- ----- -<br>-------- ---- --- ---------- --------- -- ------- ------ -<br>--------- ----- -----,437125.844999915,437124.57500002347,436669.588,436670.3550000675,436672.566,437128.329,,35,was
screen,html.Screen,1_3_1_0_1_36,2021-04-12T13:16:09.405Z,,,,,,,,,,,,,,,,15,,,,,,,,,,,,,,699.1010000630049,,response,,,,7,B,,,,,,Space,keypress(Space),,,,lyrical,,,,---- --------- ---------- - --- ------- -- --- ------------<br>----- -- -------- ------- ---- ------ - -------- ---- -----<br>--- ------- ---- -- --- -------- --- - ----- ------ ---- --<br>-------- --- -------- -------- --- released ---- -- ----- -<br>-------- ---- --- ---------- --------- -- ------- ------ -<br>--------- ----- -----,437828.32999993116,437827.43000006303,437122.581,437126.1249999516,437128.329,437833.271,,36,released
screen,html.Screen,1_3_1_0_1_37,2021-04-12T13:16:10.329Z,,,,,,,,,,,,,,,,15,,,,,,,,,,,,,,922.2239999321173,,response,,,,7,B,,,,,,Space,keypress(Space),,,,lyrical,,,,---- --------- ---------- - --- ------- -- --- ------------<br>----- -- -------- ------- ---- ------ - -------- ---- -----<br>--- ------- ---- -- --- -------- --- - ----- ------ ---- --<br>-------- --- -------- -------- --- -------- July -- ----- -<br>-------- ---- --- ---------- --------- -- ------- ------ -<br>--------- ----- -----,438756.345000118,438755.4949999321,437828.386,437828.54499993846,437833.271,438758.207,,37,July
screen,html.Screen,1_3_1_0_1_38,2021-04-12T13:16:10.730Z,,,,,,,,,,,,,,,,15,,,,,,,,,,,,,,398.00299992825603,,response,,,,7,B,,,,,,Space,keypress(Space),,,,lyrical,,,,---- --------- ---------- - --- ------- -- --- ------------<br>----- -- -------- ------- ---- ------ - -------- ---- -----<br>--- ------- ---- -- --- -------- --- - ----- ------ ---- --<br>-------- --- -------- -------- --- -------- ---- 20 ----- -<br>-------- ---- --- ---------- --------- -- ------- ------ -<br>--------- ----- -----,439157.18500013463,439156.20999992825,438749.903,438756.59499992616,438758.207,439176.086,,38,20
screen,html.Screen,1_3_1_0_1_39,2021-04-12T13:16:11.145Z,,,,,,,,,,,,,,,,15,,,,,,,,,,,,,,395.444000073825,,response,,,,7,B,,,,,,Space,keypress(Space),,,,lyrical,,,,---- --------- ---------- - --- ------- -- --- ------------<br>----- -- -------- ------- ---- ------ - -------- ---- -----<br>--- ------- ---- -- --- -------- --- - ----- ------ ---- --<br>-------- --- -------- -------- --- -------- ---- -- after -<br>-------- ---- --- ---------- --------- -- ------- ------ -<br>--------- ----- -----,439572.3950001411,439571.53000007384,439159.314,439157.40999998525,439176.086,439574.397,,39,after
