sender,sender_type,sender_id,timestamp,meta,,Blues,Classical,Country,Dance,Electronic,Folk,Gospel,Hip-Hop,Jazz,Latin,Musical/Film,New-age,Pop,Provo_ID,R&B,Rap,Reggae,Religious,Rock,Soul,Swing,Traditional,age,artist_name,correct,correctResponse,distraction,duration,education,ended_on,familiarity,gender,headphone_check_performance,item,list,music_frequency,offensiveness,pleasantness,position_correct,preference,response,response_action,snippet_file,song_name,song_rating,sound,stimulus_1,stimulus_2,stimulus_3,text,time_commit,time_end,time_render,time_run,time_show,time_switch,url,word,word_ID
Introduction,html.Screen,0_0,2021-04-11T13:04:21.752Z,"{""labjs_version"":""20.2.2"",""labjs_build"":{""flavor"":""production"",""commit"":""a25486e0c714a0ae2ce03ff94b7bb6896854dcfa""},""location"":""https://run.pavlovia.org/mvasilev/music_a/"",""userAgent"":""Mozilla/5.0 (Windows NT 10.0; Win64; x64) AppleWebKit/537.36 (KHTML, like Gecko) Chrome/89.0.4389.114 Safari/537.36"",""platform"":""Win32"",""language"":""en-GB"",""locale"":""en-GB"",""timeZone"":""Europe/London"",""timezoneOffset"":-60,""screen_width"":1280,""screen_height"":720,""scroll_width"":1280,""scroll_height"":578,""window_innerWidth"":1280,""window_innerHeight"":578,""devicePixelRatio"":1.5}",,,,,,,,,,,,,,,,,,,,,,,,,,,,,8003.411999969416,,response,,,,,,,,,,,continue,click button,,,,,,,,,21135.739999997895,21131.034999969415,12844.449,12850.55500001181,13127.623,21154.297,{},,
Volume calibration,html.Screen,0_1,2021-04-11T13:04:42.318Z,,,,,,,,,,,,,,,,,,,,,,,,,,,,,,20538.938000013375,,response,,,,,,,,,,,continue,click button,,,,,,,,,41701.789999962784,41693.235000013374,21120.968,21136.499999964144,21154.297,41837.618,,,
Task instructions,html.Screen,0_2,2021-04-11T13:05:01.203Z,,,,,,,,,,,,,,,,,,,,,,,,,,,,,,18746.58699996282,,response,,,,,,,,,,,continue,click button,,,,,,,,,60586.95999998599,60584.20499996282,41687.519,41708.010000002105,41837.618,60605.274,,,
Sounds,html.Screen,0_3_0_0,2021-04-11T13:05:05.579Z,,,,,,,,,,,,,,,,,,,,,,,,,,,,,,4363.098000000005,,timeout,,,,,,,,,1,,,,,,,,S,O,I,,64963.764999993145,64835.362,60572.193,60587.6350000035,60605.274,64968.372,,,
Judgement,html.Screen,0_3_0_1,2021-04-11T13:05:07.896Z,,,,,,,,,,,,,,,,,,,,,,,,,,,true,1,,2308.973000009515,,response,,,,,,,,,1,,1,click #choice-1,,,,,S,O,I,,67280.28999996604,67277.34500000952,64835.362,64964.274999976624,64968.372,67283.14,,,
Trial,flow.Sequence,0_3_0,2021-04-11T13:05:07.897Z,,,,,,,,,,,,,,,,,,,,,,,,,,,,,,6672.0710000095205,,completion,,,,,,,,,1,,,,,,,,S,O,I,,67281.2350000022,67277.34500000952,60572.193,60587.47999998741,60605.274,67283.14,,,
Sounds,html.Screen,0_3_1_0,2021-04-11T13:05:12.130Z,,,,,,,,,,,,,,,,,,,,,,,,,,,,,,4246.547999999995,,timeout,,,,,,,,,2,,,,,,,,O,S,I,,71514.8099999642,71513.299,67266.574,67281.6800000146,67283.14,71529.688,,,
Judgement,html.Screen,0_3_1_1,2021-04-11T13:05:13.324Z,,,,,,,,,,,,,,,,,,,,,,,,,,,true,2,,1175.6170000104175,,response,,,,,,,,,2,,2,click #choice-2,,,,,O,S,I,,72708.08999997098,72705.30500001041,71513.299,71515.19999996526,71529.688,72711.969,,,
Trial,flow.Sequence,0_3_1,2021-04-11T13:05:13.324Z,,,,,,,,,,,,,,,,,,,,,,,,,,,,,,5422.165000010413,,completion,,,,,,,,,2,,,,,,,,O,S,I,,72708.639999968,72705.30500001041,67266.574,67281.55000001425,67283.14,72711.969,,,
Sounds,html.Screen,0_3_2_0,2021-04-11T13:05:17.559Z,,,,,,,,,,,,,,,,,,,,,,,,,,,,,,4246.478000000003,,timeout,,,,,,,,,2,,,,,,,,I,S,O,,76943.44999996247,76942.074,72695.389,72709.02999996906,72711.969,76958.447,,,
Judgement,html.Screen,0_3_2_1,2021-04-11T13:05:18.985Z,,,,,,,,,,,,,,,,,,,,,,,,,,,true,2,,1408.8429999655782,,response,,,,,,,,,2,,2,click #choice-2,,,,,I,S,O,,78369.68000000343,78367.28999996558,76942.074,76943.76499997452,76958.447,78373.958,,,
Trial,flow.Sequence,0_3_2,2021-04-11T13:05:18.986Z,,,,,,,,,,,,,,,,,,,,,,,,,,,,,,5655.320999965581,,completion,,,,,,,,,2,,,,,,,,I,S,O,,78370.17000000924,78367.28999996558,72695.389,72708.92000000458,72711.969,78373.958,,,
Sounds,html.Screen,0_3_3_0,2021-04-11T13:05:23.221Z,,,,,,,,,,,,,,,,,,,,,,,,,,,,,,4246.532999999996,,timeout,,,,,,,,,3,,,,,,,,O,I,S,,82605.76000000583,82604.318,78357.601,78370.51999999676,78373.958,82620.491,,,
Judgement,html.Screen,0_3_3_1,2021-04-11T13:05:24.426Z,,,,,,,,,,,,,,,,,,,,,,,,,,,true,3,,1187.2289999825152,,response,,,,,,,,,3,,3,click #choice-3,,,,,O,I,S,,83810.00499997754,83807.71999998251,82604.318,82606.12999997102,82620.491,83819.549,,,
Trial,flow.Sequence,0_3_3,2021-04-11T13:05:24.426Z,,,,,,,,,,,,,,,,,,,,,,,,,,,,,,5433.761999982511,,completion,,,,,,,,,3,,,,,,,,O,I,S,,83810.54999999469,83807.71999998251,78357.601,78370.40000001434,78373.958,83819.549,,,
Sounds,html.Screen,0_3_4_0,2021-04-11T13:05:28.667Z,,,,,,,,,,,,,,,,,,,,,,,,,,,,,,4246.448000000004,,timeout,,,,,,,,,1,,,,,,,,S,I,O,,88051.03500001132,88049.518,83802.924,83810.91999995988,83819.549,88065.997,,,
Judgement,html.Screen,0_3_4_1,2021-04-11T13:05:29.846Z,,,,,,,,,,,,,,,,,,,,,,,,,,,true,1,,1162.0129999625206,,response,,,,,,,,,1,,1,click #choice-1,,,,,S,I,O,,89230.26499996195,89228.00999996252,88049.518,88051.37000000104,88065.997,89231.641,,,
Trial,flow.Sequence,0_3_4,2021-04-11T13:05:29.846Z,,,,,,,,,,,,,,,,,,,,,,,,,,,,,,5408.4609999625245,,completion,,,,,,,,,1,,,,,,,,S,I,O,,89230.45500001172,89228.00999996252,83802.924,83810.81499997526,83819.549,89231.641,,,
Sounds,html.Screen,0_3_5_0,2021-04-11T13:05:34.079Z,,,,,,,,,,,,,,,,,,,,,,,,,,,,,,4246.638999999996,,timeout,,,,,,,,,3,,,,,,,,I,O,S,,93463.14999996684,93461.834,89215.364,89230.57499999413,89231.641,93478.28,,,
Judgement,html.Screen,0_3_5_1,2021-04-11T13:05:35.425Z,,,,,,,,,,,,,,,,,,,,,,,,,,,true,3,,1329.0300000037823,,response,,,,,,,,,3,,3,click #choice-3,,,,,I,O,S,,94809.35499997577,94807.31000000378,93461.834,93463.42499996535,93478.28,94827.085,,,
Trial,flow.Sequence,0_3_5,2021-04-11T13:05:35.425Z,,,,,,,,,,,,,,,,,,,,,,,,,,,,,,5575.669000003778,,completion,,,,,,,,,3,,,,,,,,I,O,S,,94809.79500000831,94807.31000000378,89215.364,89230.53999996046,89231.641,94827.085,,,
Task,flow.Loop,0_3,2021-04-11T13:05:35.436Z,,,,,,,,,,,,,,,,,,,,,,,,,,,,,,34202.03600000378,,completion,,,1,,,,,,,,,,,,,,,,,,94820.63500001095,94807.31000000378,60572.193,60587.33000000939,60605.274,94827.085,,,
Trap,html.Screen,0_4,2021-04-11T13:05:35.442Z,,,,,,,,,,,,,,,,,,,,,,,,,,,,,,NaN,,skipped,,,,,,,,,,,,,,,,,,,,,94826.54499995988,94807.31000000378,,94826.23000000603,,94827.085,,,
Thanks,html.Screen,0_5,2021-04-11T13:05:39.786Z,,,,,,,,,,,,,,,,,,,,,,,,,,,,,,4340.419999961232,,response,,,,,,,,,,,continue,click button,,,,,,,,,99169.94499997236,99167.50499996124,94794.118,94826.91499998327,94827.085,104302.584,,,
Headphone screening,flow.Sequence,0,2021-04-11T13:05:39.786Z,,,,,,,,,,,,,,,,,,,,,,,,,,,,,,86039.88199996125,,completion,,,,,,,,,,,,,,,,,,,,,99170.43499997817,99167.50499996124,12844.449,12850.470000004862,13127.623,104302.584,,,
Instructions,html.Page,1_0,2021-04-11T13:06:16.940Z,,,,,,,,,,,,,,,,,,,,,,,,,,,,,,32019.95099998478,,form submission,,,,,,,,,,,,,,,,,,,,,136323.6550000147,136322.53499998478,104269.353,104292.16000001179,104302.584,136326.343,,,
Holding screen,html.Screen,1_1_0_0,2021-04-11T13:06:26.919Z,,,,,,,,,,,,,,,,,,,,,,,,,,,,,,10041.796000000002,,timeout,,,,,,,,,,,,,,,,,,,,,146303.11999999685,146301.781,136309.999,136324.12499998463,136326.343,146368.139,,,
screen,html.Screen,1_1_0_1_0,2021-04-11T13:06:28.476Z,,,,,,,,,,,,,,,,53,,,,,,,,,,,,,,1484.7909999936528,,response,,,,99,,,,,,,Space,keypress(Space),,,,,,,,When -- ----- -- ------ - ------- --- ----------<br>------------- ------ ------ ---- ---- ------- ----- -- ----<br>-------- ------- -- ---------- --- - --- ----- ----- ----<br>---- --- --- ----- --- ---- ---- ------- ----- ---- -------<br>--- --- -- ----- -- --- ---- -- --- ---- -- ------ ------<br>--- ----- -- ----,147859.7749999608,147852.92999999365,146301.781,146303.59500000486,146368.139,147866.955,,0,When
screen,html.Screen,1_1_0_1_1,2021-04-11T13:06:29.735Z,,,,,,,,,,,,,,,,53,,,,,,,,,,,,,,1250.544999993028,,response,,,,99,,,,,,,Space,keypress(Space),,,,,,,,---- it ----- -- ------ - ------- --- ----------<br>------------- ------ ------ ---- ---- ------- ----- -- ----<br>-------- ------- -- ---------- --- - --- ----- ----- ----<br>---- --- --- ----- --- ---- ---- ------- ----- ---- -------<br>--- --- -- ----- -- --- ---- -- --- ---- -- ------ ------<br>--- ----- -- ----,149118.71000000974,149117.49999999302,147850.345,147859.90499996115,147866.955,149132.716,,1,it
screen,html.Screen,1_1_0_1_2,2021-04-11T13:06:30.624Z,,,,,,,,,,,,,,,,53,,,,,,,,,,,,,,874.098999971553,,response,,,,99,,,,,,,Space,keypress(Space),,,,,,,,---- -- comes -- ------ - ------- --- ----------<br>------------- ------ ------ ---- ---- ------- ----- -- ----<br>-------- ------- -- ---------- --- - --- ----- ----- ----<br>---- --- --- ----- --- ---- ---- ------- ----- ---- -------<br>--- --- -- ----- -- --- ---- -- --- ---- -- ------ ------<br>--- ----- -- ----,150008.0350000062,150006.81499997154,149116.028,149119.04999997932,149132.716,150015.045,,2,comes
screen,html.Screen,1_1_0_1_3,2021-04-11T13:06:31.384Z,,,,,,,,,,,,,,,,53,,,,,,,,,,,,,,751.579999989277,,response,,,,99,,,,,,,Space,keypress(Space),,,,,,,,---- -- ----- to ------ - ------- --- ----------<br>------------- ------ ------ ---- ---- ------- ----- -- ----<br>-------- ------- -- ---------- --- - --- ----- ----- ----<br>---- --- --- ----- --- ---- ---- ------- ----- ---- -------<br>--- --- -- ----- -- --- ---- -- --- ---- -- ------ ------<br>--- ----- -- ----,150767.74999999907,150766.6249999893,149998.632,150008.35999997798,150015.045,150781.286,,3,to
screen,html.Screen,1_1_0_1_4,2021-04-11T13:06:32.116Z,,,,,,,,,,,,,,,,53,,,,,,,,,,,,,,717.4889999854786,,response,,,,99,,,,,,,Space,keypress(Space),,,,,,,,---- -- ----- -- having - ------- --- ----------<br>------------- ------ ------ ---- ---- ------- ----- -- ----<br>-------- ------- -- ---------- --- - --- ----- ----- ----<br>---- --- --- ----- --- ---- ---- ------- ----- ---- -------<br>--- --- -- ----- -- --- ---- -- --- ---- -- ------ ------<br>--- ----- -- ----,151499.93499997072,151498.77499998547,150764.69,150768.0849999888,150781.286,151514.104,,4,having
screen,html.Screen,1_1_0_1_5,2021-04-11T13:06:32.622Z,,,,,,,,,,,,,,,,53,,,,,,,,,,,,,,490.6609999614884,,response,,,,99,,,,,,,Space,keypress(Space),,,,,,,,---- -- ----- -- ------ a ------- --- ----------<br>------------- ------ ------ ---- ---- ------- ----- -- ----<br>-------- ------- -- ---------- --- - --- ----- ----- ----<br>---- --- --- ----- --- ---- ---- ------- ----- ---- -------<br>--- --- -- ----- -- --- ---- -- --- ---- -- ------ ------<br>--- ----- -- ----,152005.85000001593,152004.76499996148,151497.396,151500.23999996483,151514.104,152013.542,,5,a
screen,html.Screen,1_1_0_1_6,2021-04-11T13:06:33.281Z,,,,,,,,,,,,,,,,53,,,,,,,,,,,,,,650.8529999706952,,response,,,,99,,,,,,,Space,keypress(Space),,,,,,,,---- -- ----- -- ------ - lasting --- ----------<br>------------- ------ ------ ---- ---- ------- ----- -- ----<br>-------- ------- -- ---------- --- - --- ----- ----- ----<br>---- --- --- ----- --- ---- ---- ------- ----- ---- -------<br>--- --- -- ----- -- --- ---- -- --- ---- -- ------ ------<br>--- ----- -- ----,152665.49499996472,152664.39499997068,151996.994,152006.15500001004,152013.542,152679.771,,6,lasting
screen,html.Screen,1_1_0_1_7,2021-04-11T13:06:33.873Z,,,,,,,,,,,,,,,,53,,,,,,,,,,,,,,575.7889999613981,,response,,,,99,,,,,,,Space,keypress(Space),,,,,,,,---- -- ----- -- ------ - ------- and ----------<br>------------- ------ ------ ---- ---- ------- ----- -- ----<br>-------- ------- -- ---------- --- - --- ----- ----- ----<br>---- --- --- ----- --- ---- ---- ------- ----- ---- -------<br>--- --- -- ----- -- --- ---- -- --- ---- -- ------ ------<br>--- ----- -- ----,153256.66999997338,153255.5599999614,152663.115,152665.7750000013,152679.771,153262.44,,7,and
screen,html.Screen,1_1_0_1_8,2021-04-11T13:06:34.458Z,,,,,,,,,,,,,,,,53,,,,,,,,,,,,,,578.8200000156066,,response,,,,99,,,,,,,Space,keypress(Space),,,,,,,,---- -- ----- -- ------ - ------- --- fulfilling<br>------------- ------ ------ ---- ---- ------- ----- -- ----<br>-------- ------- -- ---------- --- - --- ----- ----- ----<br>---- --- --- ----- --- ---- ---- ------- ----- ---- -------<br>--- --- -- ----- -- --- ---- -- --- ---- -- ------ ------<br>--- ----- -- ----,153842.36999996938,153841.2600000156,153246.052,153256.95499998983,153262.44,153845.289,,8,fulfilling
screen,html.Screen,1_1_0_1_9,2021-04-11T13:06:35.467Z,,,,,,,,,,,,,,,,53,,,,,,,,,,,,,,1005.1259999935282,,response,,,,99,,,,,,,Space,keypress(Space),,,,,,,,"---- -- ----- -- ------ - ------- --- ----------<br>relationship, ------ ------ ---- ---- ------- ----- -- ----<br>-------- ------- -- ---------- --- - --- ----- ----- ----<br>---- --- --- ----- --- ---- ---- ------- ----- ---- -------<br>--- --- -- ----- -- --- ---- -- --- ---- -- ------ ------<br>--- ----- -- ----",154851.45499999635,154850.41499999352,153828.909,153842.68499998143,153845.289,154861.166,,9,"relationship,"
screen,html.Screen,1_1_0_1_10,2021-04-11T13:06:36.303Z,,,,,,,,,,,,,,,,53,,,,,,,,,,,,,,824.5240000129852,,response,,,,99,,,,,,,Space,keypress(Space),,,,,,,,---- -- ----- -- ------ - ------- --- ----------<br>------------- common ------ ---- ---- ------- ----- -- ----<br>-------- ------- -- ---------- --- - --- ----- ----- ----<br>---- --- --- ----- --- ---- ---- ------- ----- ---- -------<br>--- --- -- ----- -- --- ---- -- --- ---- -- ------ ------<br>--- ----- -- ----,155686.6549999686,155685.69000001298,154844.666,154851.7550000106,154861.166,155693.731,,10,common
screen,html.Screen,1_1_0_1_11,2021-04-11T13:06:37.140Z,,,,,,,,,,,,,,,,53,,,,,,,,,,,,,,829.2889999641629,,response,,,,99,,,,,,,Space,keypress(Space),,,,,,,,---- -- ----- -- ------ - ------- --- ----------<br>------------- ------ wisdom ---- ---- ------- ----- -- ----<br>-------- ------- -- ---------- --- - --- ----- ----- ----<br>---- --- --- ----- --- ---- ---- ------- ----- ---- -------<br>--- --- -- ----- -- --- ---- -- --- ---- -- ------ ------<br>--- ----- -- ----,156524.15999997174,156523.01999996416,155677.183,155686.95499998285,155693.731,156526.409,,11,wisdom
screen,html.Screen,1_1_0_1_12,2021-04-11T13:06:37.906Z,,,,,,,,,,,,,,,,53,,,,,,,,,,,,,,762.4759999871894,,response,,,,99,,,,,,,Space,keypress(Space),,,,,,,,---- -- ----- -- ------ - ------- --- ----------<br>------------- ------ ------ says ---- ------- ----- -- ----<br>-------- ------- -- ---------- --- - --- ----- ----- ----<br>---- --- --- ----- --- ---- ---- ------- ----- ---- -------<br>--- --- -- ----- -- --- ---- -- --- ---- -- ------ ------<br>--- ----- -- ----,157289.89000001457,157288.8849999872,156509.957,156524.459999986,156526.409,157292.412,,12,says
screen,html.Screen,1_1_0_1_13,2021-04-11T13:06:38.377Z,,,,,,,,,,,,,,,,53,,,,,,,,,,,,,,467.2479999815114,,response,,,,99,,,,,,,Space,keypress(Space),,,,,,,,---- -- ----- -- ------ - ------- --- ----------<br>------------- ------ ------ ---- that ------- ----- -- ----<br>-------- ------- -- ---------- --- - --- ----- ----- ----<br>---- --- --- ----- --- ---- ---- ------- ----- ---- -------<br>--- --- -- ----- -- --- ---- -- --- ---- -- ------ ------<br>--- ----- -- ----,157760.7849999913,157759.65999998152,157276.024,157290.18499999074,157292.412,157775.695,,13,that
screen,html.Screen,1_1_0_1_14,2021-04-11T13:06:39.163Z,,,,,,,,,,,,,,,,53,,,,,,,,,,,,,,770.0950000037556,,response,,,,99,,,,,,,Space,keypress(Space),,,,,,,,---- -- ----- -- ------ - ------- --- ----------<br>------------- ------ ------ ---- ---- feeling ----- -- ----<br>-------- ------- -- ---------- --- - --- ----- ----- ----<br>---- --- --- ----- --- ---- ---- ------- ----- ---- -------<br>--- --- -- ----- -- --- ---- -- --- ---- -- ------ ------<br>--- ----- -- ----,158546.83499998646,158545.79000000376,157758.968,157761.10999996308,157775.695,158558.312,,14,feeling
screen,html.Screen,1_1_0_1_15,2021-04-11T13:06:39.916Z,,,,,,,,,,,,,,,,53,,,,,,,,,,,,,,740.5830000144488,,response,,,,99,,,,,,,Space,keypress(Space),,,,,,,,---- -- ----- -- ------ - ------- --- ----------<br>------------- ------ ------ ---- ---- ------- close -- ----<br>-------- ------- -- ---------- --- - --- ----- ----- ----<br>---- --- --- ----- --- ---- ---- ------- ----- ---- -------<br>--- --- -- ----- -- --- ---- -- --- ---- -- ------ ------<br>--- ----- -- ----,159299.95499999495,159298.89500001445,158541.637,158547.1350000007,158558.312,159307.471,,15,close
screen,html.Screen,1_1_0_1_16,2021-04-11T13:06:40.456Z,,,,,,,,,,,,,,,,53,,,,,,,,,,,,,,531.1139999613224,,response,,,,99,,,,,,,Space,keypress(Space),,,,,,,,---- -- ----- -- ------ - ------- --- ----------<br>------------- ------ ------ ---- ---- ------- ----- to ----<br>-------- ------- -- ---------- --- - --- ----- ----- ----<br>---- --- --- ----- --- ---- ---- ------- ----- ---- -------<br>--- --- -- ----- -- --- ---- -- --- ---- -- ------ ------<br>--- ----- -- ----,159839.74500000477,159838.5849999613,159290.953,159300.27499998687,159307.471,159857.337,,16,to
screen,html.Screen,1_1_0_1_17,2021-04-11T13:06:41.201Z,,,,,,,,,,,,,,,,53,,,,,,,,,,,,,,726.5179999753018,,response,,,,99,,,,,,,Space,keypress(Space),,,,,,,,---- -- ----- -- ------ - ------- --- ----------<br>------------- ------ ------ ---- ---- ------- ----- -- your<br>-------- ------- -- ---------- --- - --- ----- ----- ----<br>---- --- --- ----- --- ---- ---- ------- ----- ---- -------<br>--- --- -- ----- -- --- ---- -- --- ---- -- ------ ------<br>--- ----- -- ----,160584.96999996714,160583.8549999753,159840.575,159840.06999997655,159857.337,160589.711,,17,your
screen,html.Screen,1_1_0_1_18,2021-04-11T13:06:41.868Z,,,,,,,,,,,,,,,,53,,,,,,,,,,,,,,661.0139999907697,,response,,,,99,,,,,,,Space,keypress(Space),,,,,,,,---- -- ----- -- ------ - ------- --- ----------<br>------------- ------ ------ ---- ---- ------- ----- -- ----<br>romantic ------- -- ---------- --- - --- ----- ----- ----<br>---- --- --- ----- --- ---- ---- ------- ----- ---- -------<br>--- --- -- ----- -- --- ---- -- --- ---- -- ------ ------<br>--- ----- -- ----,161251.69999996433,161250.72499999078,160573.35,160585.27999999933,160589.711,161255.767,,18,romantic
screen,html.Screen,1_1_0_1_19,2021-04-11T13:06:42.398Z,,,,,,,,,,,,,,,,53,,,,,,,,,,,,,,525.5629999688827,,response,,,,99,,,,,,,Space,keypress(Space),,,,,,,,---- -- ----- -- ------ - ------- --- ----------<br>------------- ------ ------ ---- ---- ------- ----- -- ----<br>-------- partner -- ---------- --- - --- ----- ----- ----<br>---- --- --- ----- --- ---- ---- ------- ----- ---- -------<br>--- --- -- ----- -- --- ---- -- --- ---- -- ------ ------<br>--- ----- -- ----,161782.2199999937,161781.32999996888,161239.364,161251.9800000009,161255.767,161788.712,,19,partner
screen,html.Screen,1_1_0_1_20,2021-04-11T13:06:42.903Z,,,,,,,,,,,,,,,,53,,,,,,,,,,,,,,497.09799997211667,,response,,,,99,,,,,,,Space,keypress(Space),,,,,,,,---- -- ----- -- ------ - ------- --- ----------<br>------------- ------ ------ ---- ---- ------- ----- -- ----<br>-------- ------- is ---------- --- - --- ----- ----- ----<br>---- --- --- ----- --- ---- ---- ------- ----- ---- -------<br>--- --- -- ----- -- --- ---- -- --- ---- -- ------ ------<br>--- ----- -- ----,162286.93000000203,162285.80999997212,161772.335,161782.47500001453,161788.712,162305.226,,20,is
screen,html.Screen,1_1_0_1_21,2021-04-11T13:06:43.565Z,,,,,,,,,,,,,,,,53,,,,,,,,,,,,,,642.5589999675576,,response,,,,99,,,,,,,Space,keypress(Space),,,,,,,,---- -- ----- -- ------ - ------- --- ----------<br>------------- ------ ------ ---- ---- ------- ----- -- ----<br>-------- ------- -- paramount. --- - --- ----- ----- ----<br>---- --- --- ----- --- ---- ---- ------- ----- ---- -------<br>--- --- -- ----- -- --- ---- -- --- ---- -- ------ ------<br>--- ----- -- ----,162948.81500001065,162947.78499996755,162288.605,162293.11999998754,162305.226,162954.436,,21,paramount.
screen,html.Screen,1_1_0_1_22,2021-04-11T13:06:44.215Z,,,,,,,,,,,,,,,,53,,,,,,,,,,,,,,643.4839999710675,,response,,,,99,,,,,,,Space,keypress(Space),,,,,,,,---- -- ----- -- ------ - ------- --- ----------<br>------------- ------ ------ ---- ---- ------- ----- -- ----<br>-------- ------- -- ---------- But - --- ----- ----- ----<br>---- --- --- ----- --- ---- ---- ------- ----- ---- -------<br>--- --- -- ----- -- --- ---- -- --- ---- -- ------ ------<br>--- ----- -- ----,163598.9599999739,163597.91999997105,162937.89,162949.10999998683,162954.436,163603.857,,22,But
screen,html.Screen,1_1_0_1_23,2021-04-11T13:06:44.821Z,,,,,,,,,,,,,,,,53,,,,,,,,,,,,,,600.6579999903624,,response,,,,99,,,,,,,Space,keypress(Space),,,,,,,,---- -- ----- -- ------ - ------- --- ----------<br>------------- ------ ------ ---- ---- ------- ----- -- ----<br>-------- ------- -- ---------- --- a --- ----- ----- ----<br>---- --- --- ----- --- ---- ---- ------- ----- ---- -------<br>--- --- -- ----- -- --- ---- -- --- ---- -- ------ ------<br>--- ----- -- ----,164205.54499997525,164204.51499999035,163587.559,163599.25500000827,163603.857,164220.407,,23,a
screen,html.Screen,1_1_0_1_24,2021-04-11T13:06:45.234Z,,,,,,,,,,,,,,,,53,,,,,,,,,,,,,,397.1279999684775,,response,,,,99,,,,,,,Space,keypress(Space),,,,,,,,---- -- ----- -- ------ - ------- --- ----------<br>------------- ------ ------ ---- ---- ------- ----- -- ----<br>-------- ------- -- ---------- --- - new ----- ----- ----<br>---- --- --- ----- --- ---- ---- ------- ----- ---- -------<br>--- --- -- ----- -- --- ---- -- --- ---- -- ------ ------<br>--- ----- -- ----,164618.38499997975,164617.53499996848,164203.651,164205.82500001183,164220.407,164643.291,,24,new
screen,html.Screen,1_1_0_1_25,2021-04-11T13:06:45.634Z,,,,,,,,,,,,,,,,53,,,,,,,,,,,,,,373.53899997865665,,response,,,,99,,,,,,,Space,keypress(Space),,,,,,,,---- -- ----- -- ------ - ------- --- ----------<br>------------- ------ ------ ---- ---- ------- ----- -- ----<br>-------- ------- -- ---------- --- - --- study ----- ----<br>---- --- --- ----- --- ---- ---- ------- ----- ---- -------<br>--- --- -- ----- -- --- ---- -- --- ---- -- ------ ------<br>--- ----- -- ----,165017.8200000082,165016.82999997865,164603.403,164618.61499998486,164643.291,165044.659,,25,study
screen,html.Screen,1_1_0_1_26,2021-04-11T13:06:46.063Z,,,,,,,,,,,,,,,,53,,,,,,,,,,,,,,401.6110000149056,,response,,,,99,,,,,,,Space,keypress(Space),,,,,,,,---- -- ----- -- ------ - ------- --- ----------<br>------------- ------ ------ ---- ---- ------- ----- -- ----<br>-------- ------- -- ---------- --- - --- ----- finds ----<br>---- --- --- ----- --- ---- ---- ------- ----- ---- -------<br>--- --- -- ----- -- --- ---- -- --- ---- -- ------ ------<br>--- ----- -- ----,165447.40499998443,165446.27000001492,165003.045,165018.11000000453,165044.659,165452.38,,26,finds
screen,html.Screen,1_1_0_1_27,2021-04-11T13:06:46.447Z,,,,,,,,,,,,,,,,53,,,,,,,,,,,,,,378.05500001076143,,response,,,,99,,,,,,,Space,keypress(Space),,,,,,,,---- -- ----- -- ------ - ------- --- ----------<br>------------- ------ ------ ---- ---- ------- ----- -- ----<br>-------- ------- -- ---------- --- - --- ----- ----- that<br>---- --- --- ----- --- ---- ---- ------- ----- ---- -------<br>--- --- -- ----- -- --- ---- -- --- ---- -- ------ ------<br>--- ----- -- ----,165831.44999999786,165830.43500001077,165436.007,165447.72499997634,165452.38,165835.429,,27,that
screen,html.Screen,1_1_0_1_28,2021-04-11T13:06:46.913Z,,,,,,,,,,,,,,,,53,,,,,,,,,,,,,,460.59599998872727,,response,,,,99,,,,,,,Space,keypress(Space),,,,,,,,---- -- ----- -- ------ - ------- --- ----------<br>------------- ------ ------ ---- ---- ------- ----- -- ----<br>-------- ------- -- ---------- --- - --- ----- ----- ----<br>it's --- --- ----- --- ---- ---- ------- ----- ---- -------<br>--- --- -- ----- -- --- ---- -- --- ---- -- ------ ------<br>--- ----- -- ----,166297.03499999596,166296.02499998873,165819.028,165831.72999997623,165835.429,166301.666,,28,it's
screen,html.Screen,1_1_0_1_29,2021-04-11T13:06:47.326Z,,,,,,,,,,,,,,,,53,,,,,,,,,,,,,,407.1339999639604,,response,,,,99,,,,,,,Space,keypress(Space),,,,,,,,---- -- ----- -- ------ - ------- --- ----------<br>------------- ------ ------ ---- ---- ------- ----- -- ----<br>-------- ------- -- ---------- --- - --- ----- ----- ----<br>---- not --- ----- --- ---- ---- ------- ----- ---- -------<br>--- --- -- ----- -- --- ---- -- --- ---- -- ------ ------<br>--- ----- -- ----,166709.79499997338,166708.79999996396,166285.287,166297.3200000124,166301.666,166718.07,,29,not
screen,html.Screen,1_1_0_1_30,2021-04-11T13:06:47.728Z,,,,,,,,,,,,,,,,53,,,,,,,,,,,,,,392.12500001565786,,response,,,,99,,,,,,,Space,keypress(Space),,,,,,,,---- -- ----- -- ------ - ------- --- ----------<br>------------- ------ ------ ---- ---- ------- ----- -- ----<br>-------- ------- -- ---------- --- - --- ----- ----- ----<br>---- --- how ----- --- ---- ---- ------- ----- ---- -------<br>--- --- -- ----- -- --- ---- -- --- ---- -- ------ ------<br>--- ----- -- ----,167111.61999998149,167110.19500001566,166701.613,166710.07500000997,166718.07,167117.725,,30,how
screen,html.Screen,1_1_0_1_31,2021-04-11T13:06:48.169Z,,,,,,,,,,,,,,,,53,,,,,,,,,,,,,,434.0399999819638,,response,,,,99,,,,,,,Space,keypress(Space),,,,,,,,---- -- ----- -- ------ - ------- --- ----------<br>------------- ------ ------ ---- ---- ------- ----- -- ----<br>-------- ------- -- ---------- --- - --- ----- ----- ----<br>---- --- --- close --- ---- ---- ------- ----- ---- -------<br>--- --- -- ----- -- --- ---- -- --- ---- -- ------ ------<br>--- ----- -- ----,167552.8499999782,167551.76499998197,167101.068,167111.89999995986,167117.725,167567.642,,31,close
screen,html.Screen,1_1_0_1_32,2021-04-11T13:06:48.859Z,,,,,,,,,,,,,,,,53,,,,,,,,,,,,,,674.8779999706894,,response,,,,99,,,,,,,Space,keypress(Space),,,,,,,,---- -- ----- -- ------ - ------- --- ----------<br>------------- ------ ------ ---- ---- ------- ----- -- ----<br>-------- ------- -- ---------- --- - --- ----- ----- ----<br>---- --- --- ----- you ---- ---- ------- ----- ---- -------<br>--- --- -- ----- -- --- ---- -- --- ---- -- ------ ------<br>--- ----- -- ----,168243.5950000072,168242.51999997068,167550.984,167553.1450000126,167567.642,168250.371,,32,you
screen,html.Screen,1_1_0_1_33,2021-04-11T13:06:49.456Z,,,,,,,,,,,,,,,,53,,,,,,,,,,,,,,588.8039999718603,,response,,,,99,,,,,,,Space,keypress(Space),,,,,,,,---- -- ----- -- ------ - ------- --- ----------<br>------------- ------ ------ ---- ---- ------- ----- -- ----<br>-------- ------- -- ---------- --- - --- ----- ----- ----<br>---- --- --- ----- --- feel ---- ------- ----- ---- -------<br>--- --- -- ----- -- --- ---- -- --- ---- -- ------ ------<br>--- ----- -- ----,168840.15999996336,168839.17499997187,168233.677,168243.9149999991,168250.371,168849.744,,33,feel
screen,html.Screen,1_1_0_1_34,2021-04-11T13:06:50.297Z,,,,,,,,,,,,,,,,53,,,,,,,,,,,,,,830.2009999816655,,response,,,,99,,,,,,,Space,keypress(Space),,,,,,,,---- -- ----- -- ------ - ------- --- ----------<br>------------- ------ ------ ---- ---- ------- ----- -- ----<br>-------- ------- -- ---------- --- - --- ----- ----- ----<br>---- --- --- ----- --- ---- that ------- ----- ---- -------<br>--- --- -- ----- -- --- ---- -- --- ---- -- ------ ------<br>--- ----- -- ----,169680.92000001343,169679.94499998167,168833.194,168840.42500000214,168849.744,169699.156,,34,that
screen,html.Screen,1_1_0_1_35,2021-04-11T13:06:51.345Z,,,,,,,,,,,,,,,,53,,,,,,,,,,,,,,1028.908999973879,,response,,,,99,,,,,,,Space,keypress(Space),,,,,,,,---- -- ----- -- ------ - ------- --- ----------<br>------------- ------ ------ ---- ---- ------- ----- -- ----<br>-------- ------- -- ---------- --- - --- ----- ----- ----<br>---- --- --- ----- --- ---- ---- matters ----- ---- -------<br>--- --- -- ----- -- --- ---- -- --- ---- -- ------ ------<br>--- ----- -- ----,170729.2099999613,170728.06499997387,169665.805,169681.21000000974,169699.156,170731.397,,35,matters
screen,html.Screen,1_1_0_1_36,2021-04-11T13:06:51.935Z,,,,,,,,,,,,,,,,53,,,,,,,,,,,,,,587.0079999690643,,response,,,,99,,,,,,,Space,keypress(Space),,,,,,,,"---- -- ----- -- ------ - ------- --- ----------<br>------------- ------ ------ ---- ---- ------- ----- -- ----<br>-------- ------- -- ---------- --- - --- ----- ----- ----<br>---- --- --- ----- --- ---- ---- ------- most, ---- -------<br>--- --- -- ----- -- --- ---- -- --- ---- -- ------ ------<br>--- ----- -- ----",171319.36999998288,171318.40499996906,170714.951,170729.54500000924,170731.397,171331.159,,36,"most,"
screen,html.Screen,1_1_0_1_37,2021-04-11T13:06:52.451Z,,,,,,,,,,,,,,,,53,,,,,,,,,,,,,,502.54599999726634,,response,,,,99,,,,,,,Space,keypress(Space),,,,,,,,---- -- ----- -- ------ - ------- --- ----------<br>------------- ------ ------ ---- ---- ------- ----- -- ----<br>-------- ------- -- ---------- --- - --- ----- ----- ----<br>---- --- --- ----- --- ---- ---- ------- ----- it's -------<br>--- --- -- ----- -- --- ---- -- --- ---- -- ------ ------<br>--- ----- -- ----,171834.96999996714,171833.70499999728,171314.16,171319.63499996345,171331.159,171847.409,,37,it's
screen,html.Screen,1_1_0_1_38,2021-04-11T13:06:52.962Z,,,,,,,,,,,,,,,,53,,,,,,,,,,,,,,496.9910000017553,,response,,,,99,,,,,,,Space,keypress(Space),,,,,,,,---- -- ----- -- ------ - ------- --- ----------<br>------------- ------ ------ ---- ---- ------- ----- -- ----<br>-------- ------- -- ---------- --- - --- ----- ----- ----<br>---- --- --- ----- --- ---- ---- ------- ----- ---- whether<br>--- --- -- ----- -- --- ---- -- --- ---- -- ------ ------<br>--- ----- -- ----,172345.68999998737,172344.40000000177,171830.489,171835.32499999274,171847.409,172380.389,,38,whether
screen,html.Screen,1_1_0_1_39,2021-04-11T13:06:53.497Z,,,,,,,,,,,,,,,,53,,,,,,,,,,,,,,499.3109999904118,,response,,,,99,,,,,,,Space,keypress(Space),,,,,,,,---- -- ----- -- ------ - ------- --- ----------<br>------------- ------ ------ ---- ---- ------- ----- -- ----<br>-------- ------- -- ---------- --- - --- ----- ----- ----<br>---- --- --- ----- --- ---- ---- ------- ----- ---- -------<br>you --- -- ----- -- --- ---- -- --- ---- -- ------ ------<br>--- ----- -- ----,172880.83499995992,172879.6999999904,172363.583,172346.03000001516,172380.389,172896.6,,39,you
screen,html.Screen,1_1_0_1_40,2021-04-11T13:06:54.052Z,,,,,,,,,,,,,,,,53,,,,,,,,,,,,,,538.6649999782385,,response,,,,99,,,,,,,Space,keypress(Space),,,,,,,,---- -- ----- -- ------ - ------- --- ----------<br>------------- ------ ------ ---- ---- ------- ----- -- ----<br>-------- ------- -- ---------- --- - --- ----- ----- ----<br>---- --- --- ----- --- ---- ---- ------- ----- ---- -------<br>--- are -- ----- -- --- ---- -- --- ---- -- ------ ------<br>--- ----- -- ----,173436.54500000412,173435.26499997824,172879.895,172881.16499996977,172896.6,173445.937,,40,are
screen,html.Screen,1_1_0_1_41,2021-04-11T13:06:54.646Z,,,,,,,,,,,,,,,,53,,,,,,,,,,,,,,582.947999977885,,response,,,,99,,,,,,,Space,keypress(Space),,,,,,,,---- -- ----- -- ------ - ------- --- ----------<br>------------- ------ ------ ---- ---- ------- ----- -- ----<br>-------- ------- -- ---------- --- - --- ----- ----- ----<br>---- --- --- ----- --- ---- ---- ------- ----- ---- -------<br>--- --- as ----- -- --- ---- -- --- ---- -- ------ ------<br>--- ----- -- ----,174029.93499999866,174028.8849999779,173429.409,173436.83500000043,173445.937,174045.608,,41,as
screen,html.Screen,1_1_0_1_42,2021-04-11T13:06:55.443Z,,,,,,,,,,,,,,,,53,,,,,,,,,,,,,,780.1819999734871,,response,,,,99,,,,,,,Space,keypress(Space),,,,,,,,---- -- ----- -- ------ - ------- --- ----------<br>------------- ------ ------ ---- ---- ------- ----- -- ----<br>-------- ------- -- ---------- --- - --- ----- ----- ----<br>---- --- --- ----- --- ---- ---- ------- ----- ---- -------<br>--- --- -- close -- --- ---- -- --- ---- -- ------ ------<br>--- ----- -- ----,174826.87499996973,174825.7899999735,174028.868,174033.43999997014,174045.608,174844.877,,42,close
screen,html.Screen,1_1_0_1_43,2021-04-11T13:06:56.128Z,,,,,,,,,,,,,,,,53,,,,,,,,,,,,,,666.4879999839177,,response,,,,99,,,,,,,Space,keypress(Space),,,,,,,,---- -- ----- -- ------ - ------- --- ----------<br>------------- ------ ------ ---- ---- ------- ----- -- ----<br>-------- ------- -- ---------- --- - --- ----- ----- ----<br>---- --- --- ----- --- ---- ---- ------- ----- ---- -------<br>--- --- -- ----- as --- ---- -- --- ---- -- ------ ------<br>--- ----- -- ----,175512.3499999754,175511.36499998393,174811.49,174827.20499997959,174844.877,175527.751,,43,as
screen,html.Screen,1_1_0_1_44,2021-04-11T13:06:56.553Z,,,,,,,,,,,,,,,,53,,,,,,,,,,,,,,408.3039999983157,,response,,,,99,,,,,,,Space,keypress(Space),,,,,,,,---- -- ----- -- ------ - ------- --- ----------<br>------------- ------ ------ ---- ---- ------- ----- -- ----<br>-------- ------- -- ---------- --- - --- ----- ----- ----<br>---- --- --- ----- --- ---- ---- ------- ----- ---- -------<br>--- --- -- ----- -- you ---- -- --- ---- -- ------ ------<br>--- ----- -- ----,175937.0399999898,175936.0549999983,175511.04,175512.60999997612,175527.751,175943.76,,44,you
screen,html.Screen,1_1_0_1_45,2021-04-11T13:06:57.018Z,,,,,,,,,,,,,,,,53,,,,,,,,,,,,,,457.04999996279366,,response,,,,99,,,,,,,Space,keypress(Space),,,,,,,,---- -- ----- -- ------ - ------- --- ----------<br>------------- ------ ------ ---- ---- ------- ----- -- ----<br>-------- ------- -- ---------- --- - --- ----- ----- ----<br>---- --- --- ----- --- ---- ---- ------- ----- ---- -------<br>--- --- -- ----- -- --- want -- --- ---- -- ------ ------<br>--- ----- -- ----,176401.70499996748,176400.8099999628,175927.379,175937.28999997256,175943.76,176410.172,,45,want
screen,html.Screen,1_1_0_1_46,2021-04-11T13:06:57.457Z,,,,,,,,,,,,,,,,53,,,,,,,,,,,,,,429.3079999659967,,response,,,,99,,,,,,,Space,keypress(Space),,,,,,,,---- -- ----- -- ------ - ------- --- ----------<br>------------- ------ ------ ---- ---- ------- ----- -- ----<br>-------- ------- -- ---------- --- - --- ----- ----- ----<br>---- --- --- ----- --- ---- ---- ------- ----- ---- -------<br>--- --- -- ----- -- --- ---- to --- ---- -- ------ ------<br>--- ----- -- ----,176840.6299999915,176839.479999966,176393.52,176401.95999998832,176410.172,176843.05,,46,to
screen,html.Screen,1_1_0_1_47,2021-04-11T13:06:57.911Z,,,,,,,,,,,,,,,,53,,,,,,,,,,,,,,451.51499998924555,,response,,,,99,,,,,,,Space,keypress(Space),,,,,,,,"---- -- ----- -- ------ - ------- --- ----------<br>------------- ------ ------ ---- ---- ------- ----- -- ----<br>-------- ------- -- ---------- --- - --- ----- ----- ----<br>---- --- --- ----- --- ---- ---- ------- ----- ---- -------<br>--- --- -- ----- -- --- ---- -- be, ---- -- ------ ------<br>--- ----- -- ----",177295.55999999866,177294.56499998923,176826.624,176840.93499998562,176843.05,177309.62,,47,"be,"
screen,html.Screen,1_1_0_1_48,2021-04-11T13:06:58.382Z,,,,,,,,,,,,,,,,53,,,,,,,,,,,,,,453.7900000141235,,response,,,,99,,,,,,,Space,keypress(Space),,,,,,,,---- -- ----- -- ------ - ------- --- ----------<br>------------- ------ ------ ---- ---- ------- ----- -- ----<br>-------- ------- -- ---------- --- - --- ----- ----- ----<br>---- --- --- ----- --- ---- ---- ------- ----- ---- -------<br>--- --- -- ----- -- --- ---- -- --- even -- ------ ------<br>--- ----- -- ----,177766.34999999078,177763.41000001412,177292.947,177295.8149999613,177309.62,177775.641,,48,even
screen,html.Screen,1_1_0_1_49,2021-04-11T13:06:58.785Z,,,,,,,,,,,,,,,,53,,,,,,,,,,,,,,392.58900001022266,,response,,,,99,,,,,,,Space,keypress(Space),,,,,,,,---- -- ----- -- ------ - ------- --- ----------<br>------------- ------ ------ ---- ---- ------- ----- -- ----<br>-------- ------- -- ---------- --- - --- ----- ----- ----<br>---- --- --- ----- --- ---- ---- ------- ----- ---- -------<br>--- --- -- ----- -- --- ---- -- --- ---- if ------ ------<br>--- ----- -- ----,178169.34500000207,178168.23000001023,177759.204,177766.7899999651,177775.641,178175.26,,49,if
screen,html.Screen,1_1_0_1_50,2021-04-11T13:06:59.777Z,,,,,,,,,,,,,,,,53,,,,,,,,,,,,,,985.0749999640975,,response,,,,99,,,,,,,Space,keypress(Space),,,,,,,,---- -- ----- -- ------ - ------- --- ----------<br>------------- ------ ------ ---- ---- ------- ----- -- ----<br>-------- ------- -- ---------- --- - --- ----- ----- ----<br>---- --- --- ----- --- ---- ---- ------- ----- ---- -------<br>--- --- -- ----- -- --- ---- -- --- ---- -- that's ------<br>--- ----- -- ----,179161.3200000138,179160.3349999641,178158.841,178169.65499997605,178175.26,179174.47,,50,that's
screen,html.Screen,1_1_0_1_51,2021-04-11T13:07:00.213Z,,,,,,,,,,,,,,,,53,,,,,,,,,,,,,,421.30499999431777,,response,,,,99,,,,,,,Space,keypress(Space),,,,,,,,---- -- ----- -- ------ - ------- --- ----------<br>------------- ------ ------ ---- ---- ------- ----- -- ----<br>-------- ------- -- ---------- --- - --- ----- ----- ----<br>---- --- --- ----- --- ---- ---- ------- ----- ---- -------<br>--- --- -- ----- -- --- ---- -- --- ---- -- ------ really<br>--- ----- -- ----,179596.8850000063,179595.77499999432,179157.808,179161.57499997644,179174.47,179607.61,,51,really
screen,html.Screen,1_1_0_1_52,2021-04-11T13:07:00.701Z,,,,,,,,,,,,,,,,53,,,,,,,,,,,,,,476.4250000071479,,response,,,,99,,,,,,,Space,keypress(Space),,,,,,,,---- -- ----- -- ------ - ------- --- ----------<br>------------- ------ ------ ---- ---- ------- ----- -- ----<br>-------- ------- -- ---------- --- - --- ----- ----- ----<br>---- --- --- ----- --- ---- ---- ------- ----- ---- -------<br>--- --- -- ----- -- --- ---- -- --- ---- -- ------ ------<br>not ----- -- ----,180084.9300000118,180084.03500000713,179591.023,179597.14999998687,179607.61,180090.392,,52,not
screen,html.Screen,1_1_0_1_53,2021-04-11T13:07:01.234Z,,,,,,,,,,,,,,,,53,,,,,,,,,,,,,,527.0979999750853,,response,,,,99,,,,,,,Space,keypress(Space),,,,,,,,---- -- ----- -- ------ - ------- --- ----------<br>------------- ------ ------ ---- ---- ------- ----- -- ----<br>-------- ------- -- ---------- --- - --- ----- ----- ----<br>---- --- --- ----- --- ---- ---- ------- ----- ---- -------<br>--- --- -- ----- -- --- ---- -- --- ---- -- ------ ------<br>--- close -- ----,180618.610000005,180617.48999997508,180073.963,180085.19000001252,180090.392,180623.196,,53,close
screen,html.Screen,1_1_0_1_54,2021-04-11T13:07:01.775Z,,,,,,,,,,,,,,,,53,,,,,,,,,,,,,,535.0639999965206,,response,,,,99,,,,,,,Space,keypress(Space),,,,,,,,---- -- ----- -- ------ - ------- --- ----------<br>------------- ------ ------ ---- ---- ------- ----- -- ----<br>-------- ------- -- ---------- --- - --- ----- ----- ----<br>---- --- --- ----- --- ---- ---- ------- ----- ---- -------<br>--- --- -- ----- -- --- ---- -- --- ---- -- ------ ------<br>--- ----- at ----,181159.18999997666,181158.25999999652,180606.837,180618.87999996543,180623.196,181173.119,,54,at
screen,html.Screen,1_1_0_1_55,2021-04-11T13:07:03.430Z,,,,,,,,,,,,,,,,53,,,,,,,,,,,,,,1640.3209999980754,,response,,,,99,,,,,,,Space,keypress(Space),,,,,,,,---- -- ----- -- ------ - ------- --- ----------<br>------------- ------ ------ ---- ---- ------- ----- -- ----<br>-------- ------- -- ---------- --- - --- ----- ----- ----<br>---- --- --- ----- --- ---- ---- ------- ----- ---- -------<br>--- --- -- ----- -- --- ---- -- --- ---- -- ------ ------<br>--- ----- -- all.,182814.56500000786,182813.43999999808,181156.404,181159.43999995943,181173.119,182821.372,,55,all.
Item 99,flow.Loop,1_1_0_1,2021-04-11T13:07:03.431Z,,,,,,,,,,,,,,,,,,,,,,,,,,,,,,36445.300999998086,,completion,,,,,A,,,,,,,,,,,silence,,,,,182815.094999969,182813.43999999808,146301.781,146303.4500000067,146368.139,182821.372,,,
Question 1,html.Screen,1_1_0_2,2021-04-11T13:07:17.700Z,,,,,,,,,,,,,,,,,,,,,,,,,,,false,FALSE,,14260.687999986083,,response,,,,99,A,,,,,,TRUE,click #choice-1,,,,silence,,,,,197084.2849999899,197082.0599999861,182804.911,182815.3549999697,182821.372,197092.986,,,
Question 2,html.Screen,1_1_0_3,2021-04-11T13:07:25.911Z,,,,,,,,,,,,,,,,,,,,,,,,,,,true,TRUE,,8199.873999986827,,response,,,,99,A,,,,,,TRUE,click #choice-1,,,,silence,,,,,205295.27999996208,205292.85999998683,197076.644,197084.57999996608,197092.986,205303.029,,,
Item 99,flow.Sequence,1_1_0,2021-04-11T13:07:25.912Z,,,,,,,,,,,,,,,,,,,,,,,,,,,,,,68966.51699998684,,completion,,,,,,,,,,,,,,,,,,,,,205295.80999998143,205292.85999998683,136309.999,136324.04999999562,136326.343,205303.029,,,
Holding screen,html.Screen,1_1_1_0,2021-04-11T13:07:35.895Z,,,,,,,,,,,,,,,,,,,,,,,,,,,,,,9991.779999999999,,timeout,,,,,,,,,,,,,,,,,,,,,215279.42500001518,215278.331,205286.614,205296.10999999568,205303.029,215294.809,,,
screen,html.Screen,1_1_1_1_0,2021-04-11T13:07:37.339Z,,,,,,,,,,,,,,,,54,,,,,,,,,,,,,,1427.4559999894118,,response,,,,100,,,,,,,Space,keypress(Space),,,,,,,,At --- ---- --- ------ ----- ------- ---- -- --- ------- --<br>------- ---------- ------ -- ----- -- ----- -- ---- ------<br>--- ----- --- --- ------ -------- ----- --- ------ ----- --<br>----- ----- ---------- --- --- ------ ------ ---- -- ------<br>------- --- ------ ----- --- ---- ------- -- ---- --- --<br>------- ------,216723.47500000615,216722.26499998942,215278.331,215279.7750000027,215294.809,216726.953,,0,At
screen,html.Screen,1_1_1_1_1,2021-04-11T13:07:37.872Z,,,,,,,,,,,,,,,,54,,,,,,,,,,,,,,527.9119999662216,,response,,,,100,,,,,,,Space,keypress(Space),,,,,,,,-- the ---- --- ------ ----- ------- ---- -- --- ------- --<br>------- ---------- ------ -- ----- -- ----- -- ---- ------<br>--- ----- --- --- ------ -------- ----- --- ------ ----- --<br>----- ----- ---------- --- --- ------ ------ ---- -- ------<br>------- --- ------ ----- --- ---- ------- -- ---- --- --<br>------- ------,217255.86500001373,217254.86499996623,216710.424,216723.7749999622,216726.953,217259.86,,1,the
screen,html.Screen,1_1_1_1_2,2021-04-11T13:07:38.413Z,,,,,,,,,,,,,,,,54,,,,,,,,,,,,,,536.3649999982445,,response,,,,100,,,,,,,Space,keypress(Space),,,,,,,,-- --- time --- ------ ----- ------- ---- -- --- ------- --<br>------- ---------- ------ -- ----- -- ----- -- ---- ------<br>--- ----- --- --- ------ -------- ----- --- ------ ----- --<br>----- ----- ---------- --- --- ------ ------ ---- -- ------<br>------- --- ------ ----- --- ---- ------- -- ---- --- --<br>------- ------,217797.15499997837,217796.22499999823,217243.382,217256.14999997197,217259.86,217809.632,,2,time
screen,html.Screen,1_1_1_1_3,2021-04-11T13:07:38.895Z,,,,,,,,,,,,,,,,54,,,,,,,,,,,,,,468.92299996802467,,response,,,,100,,,,,,,Space,keypress(Space),,,,,,,,-- --- ---- the ------ ----- ------- ---- -- --- ------- --<br>------- ---------- ------ -- ----- -- ----- -- ---- ------<br>--- ----- --- --- ------ -------- ----- --- ------ ----- --<br>----- ----- ---------- --- --- ------ ------ ---- -- ------<br>------- --- ------ ----- --- ---- ------- -- ---- --- --<br>------- ------,218279.55500001553,218278.55499996804,217792.955,217797.4449999747,217809.632,218292.575,,3,the
screen,html.Screen,1_1_1_1_4,2021-04-11T13:07:39.714Z,,,,,,,,,,,,,,,,54,,,,,,,,,,,,,,804.3449999817531,,response,,,,100,,,,,,,Space,keypress(Space),,,,,,,,-- --- ---- --- French ----- ------- ---- -- --- ------- --<br>------- ---------- ------ -- ----- -- ----- -- ---- ------<br>--- ----- --- --- ------ -------- ----- --- ------ ----- --<br>----- ----- ---------- --- --- ------ ------ ---- -- ------<br>------- --- ------ ----- --- ---- ------- -- ---- --- --<br>------- ------,219097.99499996006,219096.91999998176,218275.904,218279.81500001624,218292.575,219108.522,,4,French
screen,html.Screen,1_1_1_1_5,2021-04-11T13:07:40.434Z,,,,,,,,,,,,,,,,54,,,,,,,,,,,,,,708.8979999775765,,response,,,,100,,,,,,,Space,keypress(Space),,,,,,,,-- --- ---- --- ------ crown ------- ---- -- --- ------- --<br>------- ---------- ------ -- ----- -- ----- -- ---- ------<br>--- ----- --- --- ------ -------- ----- --- ------ ----- --<br>----- ----- ---------- --- --- ------ ------ ---- -- ------<br>------- --- ------ ----- --- ---- ------- -- ---- --- --<br>------- ------,219818.4449999826,219817.41999997757,219091.826,219098.27499999665,219108.522,219824.37,,5,crown
screen,html.Screen,1_1_1_1_6,2021-04-11T13:07:41.161Z,,,,,,,,,,,,,,,,54,,,,,,,,,,,,,,720.0549999709474,,response,,,,100,,,,,,,Space,keypress(Space),,,,,,,,-- --- ---- --- ------ ----- secured ---- -- --- ------- --<br>------- ---------- ------ -- ----- -- ----- -- ---- ------<br>--- ----- --- --- ------ -------- ----- --- ------ ----- --<br>----- ----- ---------- --- --- ------ ------ ---- -- ------<br>------- --- ------ ----- --- ---- ------- -- ---- --- --<br>------- ------,220545.3700000071,220544.42499997094,219807.952,219818.69499996537,219824.37,220557.372,,6,secured
screen,html.Screen,1_1_1_1_7,2021-04-11T13:07:41.868Z,,,,,,,,,,,,,,,,54,,,,,,,,,,,,,,693.5930000138178,,response,,,,100,,,,,,,Space,keypress(Space),,,,,,,,-- --- ---- --- ------ ----- ------- much -- --- ------- --<br>------- ---------- ------ -- ----- -- ----- -- ---- ------<br>--- ----- --- --- ------ -------- ----- --- ------ ----- --<br>----- ----- ---------- --- --- ------ ------ ---- -- ------<br>------- --- ------ ----- --- ---- ------- -- ---- --- --<br>------- ------,221251.95499998517,221250.96500001382,220540.684,220545.6300000078,220557.372,221256.522,,7,much
screen,html.Screen,1_1_1_1_8,2021-04-11T13:07:42.398Z,,,,,,,,,,,,,,,,54,,,,,,,,,,,,,,524.37299997441,,response,,,,100,,,,,,,Space,keypress(Space),,,,,,,,-- --- ---- --- ------ ----- ------- ---- of --- ------- --<br>------- ---------- ------ -- ----- -- ----- -- ---- ------<br>--- ----- --- --- ------ -------- ----- --- ------ ----- --<br>----- ----- ---------- --- --- ------ ------ ---- -- ------<br>------- --- ------ ----- --- ---- ------- -- ---- --- --<br>------- ------,221781.85999998823,221780.8949999744,221240.136,221252.19999998808,221256.522,221789.7,,8,of
screen,html.Screen,1_1_1_1_9,2021-04-11T13:07:42.832Z,,,,,,,,,,,,,,,,54,,,,,,,,,,,,,,425.55000000837026,,response,,,,100,,,,,,,Space,keypress(Space),,,,,,,,-- --- ---- --- ------ ----- ------- ---- -- its ------- --<br>------- ---------- ------ -- ----- -- ----- -- ---- ------<br>--- ----- --- --- ------ -------- ----- --- ------ ----- --<br>----- ----- ---------- --- --- ------ ------ ---- -- ------<br>------- --- ------ ----- --- ---- ------- -- ---- --- --<br>------- ------,222216.22499998193,222215.25000000838,221773.06,221782.13499998674,221789.7,222222.458,,9,its
screen,html.Screen,1_1_1_1_10,2021-04-11T13:07:43.261Z,,,,,,,,,,,,,,,,54,,,,,,,,,,,,,,421.6119999802613,,response,,,,100,,,,,,,Space,keypress(Space),,,,,,,,-- --- ---- --- ------ ----- ------- ---- -- --- revenue --<br>------- ---------- ------ -- ----- -- ----- -- ---- ------<br>--- ----- --- --- ------ -------- ----- --- ------ ----- --<br>----- ----- ---------- --- --- ------ ------ ---- -- ------<br>------- --- ------ ----- --- ---- ------- -- ---- --- --<br>------- ------,222645.20999998786,222644.06999998027,222206.01,222216.51499997824,222222.458,222655.583,,10,revenue
screen,html.Screen,1_1_1_1_11,2021-04-11T13:07:43.751Z,,,,,,,,,,,,,,,,54,,,,,,,,,,,,,,478.6719999826455,,response,,,,100,,,,,,,Space,keypress(Space),,,,,,,,-- --- ---- --- ------ ----- ------- ---- -- --- ------- by<br>------- ---------- ------ -- ----- -- ----- -- ---- ------<br>--- ----- --- --- ------ -------- ----- --- ------ ----- --<br>----- ----- ---------- --- --- ------ ------ ---- -- ------<br>------- --- ------ ----- --- ---- ------- -- ---- --- --<br>------- ------,223135.26000001002,223134.25499998266,222638.968,222645.57499997318,222655.583,223138.324,,11,by
screen,html.Screen,1_1_1_1_12,2021-04-11T13:07:44.261Z,,,,,,,,,,,,,,,,54,,,,,,,,,,,,,,505.9560000077181,,response,,,,100,,,,,,,Space,keypress(Space),,,,,,,,-- --- ---- --- ------ ----- ------- ---- -- --- ------- --<br>issuing ---------- ------ -- ----- -- ----- -- ---- ------<br>--- ----- --- --- ------ -------- ----- --- ------ ----- --<br>----- ----- ---------- --- --- ------ ------ ---- -- ------<br>------- --- ------ ----- --- ---- ------- -- ---- --- --<br>------- ------,223645.45499999076,223644.2800000077,223121.892,223135.52000001073,223138.324,223654.608,,12,issuing
screen,html.Screen,1_1_1_1_13,2021-04-11T13:07:44.931Z,,,,,,,,,,,,,,,,54,,,,,,,,,,,,,,659.861999982968,,response,,,,100,,,,,,,Space,keypress(Space),,,,,,,,-- --- ---- --- ------ ----- ------- ---- -- --- ------- --<br>------- government ------ -- ----- -- ----- -- ---- ------<br>--- ----- --- --- ------ -------- ----- --- ------ ----- --<br>----- ----- ---------- --- --- ------ ------ ---- -- ------<br>------- --- ------ ----- --- ---- ------- -- ---- --- --<br>------- ------,224315.46999997227,224314.46999998298,223638.155,223645.81000001635,223654.608,224320.622,,13,government
screen,html.Screen,1_1_1_1_14,2021-04-11T13:07:45.420Z,,,,,,,,,,,,,,,,54,,,,,,,,,,,,,,482.4329999675683,,response,,,,100,,,,,,,Space,keypress(Space),,,,,,,,-- --- ---- --- ------ ----- ------- ---- -- --- ------- --<br>------- ---------- bonds. -- ----- -- ----- -- ---- ------<br>--- ----- --- --- ------ -------- ----- --- ------ ----- --<br>----- ----- ---------- --- --- ------ ------ ---- -- ------<br>------- --- ------ ----- --- ---- ------- -- ---- --- --<br>------- ------,224804.049999977,224803.05499996757,224304.27,224315.72999997297,224320.622,224820.608,,14,bonds.
screen,html.Screen,1_1_1_1_15,2021-04-11T13:07:45.911Z,,,,,,,,,,,,,,,,54,,,,,,,,,,,,,,473.577000006102,,response,,,,100,,,,,,,Space,keypress(Space),,,,,,,,-- --- ---- --- ------ ----- ------- ---- -- --- ------- --<br>------- ---------- ------ In ----- -- ----- -- ---- ------<br>--- ----- --- --- ------ -------- ----- --- ------ ----- --<br>----- ----- ---------- --- --- ------ ------ ---- -- ------<br>------- --- ------ ----- --- ---- ------- -- ---- --- --<br>------- ------,225295.20499997307,225294.1850000061,224803.801,224804.30499999784,224820.608,225303.348,,15,In
screen,html.Screen,1_1_1_1_16,2021-04-11T13:07:48.068Z,,,,,,,,,,,,,,,,54,,,,,,,,,,,,,,2147.6719999786,,response,,,,100,,,,,,,Space,keypress(Space),,,,,,,,"-- --- ---- --- ------ ----- ------- ---- -- --- ------- --<br>------- ---------- ------ -- 1727, -- ----- -- ---- ------<br>--- ----- --- --- ------ -------- ----- --- ------ ----- --<br>----- ----- ---------- --- --- ------ ------ ---- -- ------<br>------- --- ------ ----- --- ---- ------- -- ---- --- --<br>------- ------",227451.939999999,227451.0199999786,225286.578,225295.45500001404,225303.348,227468.355,,16,"1727,"
screen,html.Screen,1_1_1_1_17,2021-04-11T13:07:48.754Z,,,,,,,,,,,,,,,,54,,,,,,,,,,,,,,669.0000000134751,,response,,,,100,,,,,,,Space,keypress(Space),,,,,,,,-- --- ---- --- ------ ----- ------- ---- -- --- ------- --<br>------- ---------- ------ -- ----- in ----- -- ---- ------<br>--- ----- --- --- ------ -------- ----- --- ------ ----- --<br>----- ----- ---------- --- --- ------ ------ ---- -- ------<br>------- --- ------ ----- --- ---- ------- -- ---- --- --<br>------- ------,228138.3349999669,228137.3550000135,227451.561,227452.18999998178,227468.355,228151.138,,17,in
screen,html.Screen,1_1_1_1_18,2021-04-11T13:07:49.334Z,,,,,,,,,,,,,,,,54,,,,,,,,,,,,,,565.776999997237,,response,,,,100,,,,,,,Space,keypress(Space),,,,,,,,-- --- ---- --- ------ ----- ------- ---- -- --- ------- --<br>------- ---------- ------ -- ----- -- order -- ---- ------<br>--- ----- --- --- ------ -------- ----- --- ------ ----- --<br>----- ----- ---------- --- --- ------ ------ ---- -- ------<br>------- --- ------ ----- --- ---- ------- -- ---- --- --<br>------- ------,228718.01000001142,228716.91499999724,228134.448,228138.61500000348,228151.138,228734.052,,18,order
screen,html.Screen,1_1_1_1_19,2021-04-11T13:07:50.045Z,,,,,,,,,,,,,,,,54,,,,,,,,,,,,,,693.7780000005441,,response,,,,100,,,,,,,Space,keypress(Space),,,,,,,,-- --- ---- --- ------ ----- ------- ---- -- --- ------- --<br>------- ---------- ------ -- ----- -- ----- to ---- ------<br>--- ----- --- --- ------ -------- ----- --- ------ ----- --<br>----- ----- ---------- --- --- ------ ------ ---- -- ------<br>------- --- ------ ----- --- ---- ------- -- ---- --- --<br>------- ------,229428.94499999238,229427.83000000054,228717.292,228718.28500000993,228734.052,229433.078,,19,to
screen,html.Screen,1_1_1_1_20,2021-04-11T13:07:50.742Z,,,,,,,,,,,,,,,,54,,,,,,,,,,,,,,692.3369999585848,,response,,,,100,,,,,,,Space,keypress(Space),,,,,,,,-- --- ---- --- ------ ----- ------- ---- -- --- ------- --<br>------- ---------- ------ -- ----- -- ----- -- save ------<br>--- ----- --- --- ------ -------- ----- --- ------ ----- --<br>----- ----- ---------- --- --- ------ ------ ---- -- ------<br>------- --- ------ ----- --- ---- ------- -- ---- --- --<br>------- ------,230126.5499999863,230125.4149999586,229416.506,229429.2049999931,229433.078,230132.568,,20,save
screen,html.Screen,1_1_1_1_21,2021-04-11T13:07:51.701Z,,,,,,,,,,,,,,,,54,,,,,,,,,,,,,,951.1869999705523,,response,,,,100,,,,,,,Space,keypress(Space),,,,,,,,"-- --- ---- --- ------ ----- ------- ---- -- --- ------- --<br>------- ---------- ------ -- ----- -- ----- -- ---- money,<br>--- ----- --- --- ------ -------- ----- --- ------ ----- --<br>----- ----- ---------- --- --- ------ ------ ---- -- ------<br>------- --- ------ ----- --- ---- ------- -- ---- --- --<br>------- ------",231084.84500000486,231083.75499997055,230116.141,230126.82000000495,230132.568,231098.753,,21,"money,"
screen,html.Screen,1_1_1_1_22,2021-04-11T13:07:52.145Z,,,,,,,,,,,,,,,,54,,,,,,,,,,,,,,428.9520000149787,,response,,,,100,,,,,,,Space,keypress(Space),,,,,,,,-- --- ---- --- ------ ----- ------- ---- -- --- ------- --<br>------- ---------- ------ -- ----- -- ----- -- ---- ------<br>the ----- --- --- ------ -------- ----- --- ------ ----- --<br>----- ----- ---------- --- --- ------ ------ ---- -- ------<br>------- --- ------ ----- --- ---- ------- -- ---- --- --<br>------- ------,231528.70999998413,231527.70500001498,231081.981,231085.10500000557,231098.753,231531.439,,22,the
screen,html.Screen,1_1_1_1_23,2021-04-11T13:07:52.699Z,,,,,,,,,,,,,,,,54,,,,,,,,,,,,,,550.5909999904688,,response,,,,100,,,,,,,Space,keypress(Space),,,,,,,,-- --- ---- --- ------ ----- ------- ---- -- --- ------- --<br>------- ---------- ------ -- ----- -- ----- -- ---- ------<br>--- state --- --- ------ -------- ----- --- ------ ----- --<br>----- ----- ---------- --- --- ------ ------ ---- -- ------<br>------- --- ------ ----- --- ---- ------- -- ---- --- --<br>------- ------,232082.854999986,232082.02999999048,231515.015,231528.96500000497,231531.439,232097.644,,23,state
screen,html.Screen,1_1_1_1_24,2021-04-11T13:07:53.127Z,,,,,,,,,,,,,,,,54,,,,,,,,,,,,,,412.45600001406274,,response,,,,100,,,,,,,Space,keypress(Space),,,,,,,,-- --- ---- --- ------ ----- ------- ---- -- --- ------- --<br>------- ---------- ------ -- ----- -- ----- -- ---- ------<br>--- ----- cut --- ------ -------- ----- --- ------ ----- --<br>----- ----- ---------- --- --- ------ ------ ---- -- ------<br>------- --- ------ ----- --- ---- ------- -- ---- --- --<br>------- ------,232511.04999997187,232510.10000001406,232081.228,232083.11000000685,232097.644,232513.978,,24,cut
screen,html.Screen,1_1_1_1_25,2021-04-11T13:07:53.895Z,,,,,,,,,,,,,,,,54,,,,,,,,,,,,,,763.9619999999413,,response,,,,100,,,,,,,Space,keypress(Space),,,,,,,,-- --- ---- --- ------ ----- ------- ---- -- --- ------- --<br>------- ---------- ------ -- ----- -- ----- -- ---- ------<br>--- ----- --- the ------ -------- ----- --- ------ ----- --<br>----- ----- ---------- --- --- ------ ------ ---- -- ------<br>------- --- ------ ----- --- ---- ------- -- ---- --- --<br>------- ------,233278.9449999691,233277.93999999994,232497.291,232511.30999997258,232513.978,233296.937,,25,the
screen,html.Screen,1_1_1_1_26,2021-04-11T13:07:54.783Z,,,,,,,,,,,,,,,,54,,,,,,,,,,,,,,868.9530000038503,,response,,,,100,,,,,,,Space,keypress(Space),,,,,,,,-- --- ---- --- ------ ----- ------- ---- -- --- ------- --<br>------- ---------- ------ -- ----- -- ----- -- ---- ------<br>--- ----- --- --- bonds' -------- ----- --- ------ ----- --<br>----- ----- ---------- --- --- ------ ------ ---- -- ------<br>------- --- ------ ----- --- ---- ------- -- ---- --- --<br>------- ------,234166.83999996167,234165.89000000386,233263.579,233279.189999972,233296.937,234179.545,,26,bonds'
screen,html.Screen,1_1_1_1_27,2021-04-11T13:07:55.675Z,,,,,,,,,,,,,,,,54,,,,,,,,,,,,,,878.6049999971001,,response,,,,100,,,,,,,Space,keypress(Space),,,,,,,,-- --- ---- --- ------ ----- ------- ---- -- --- ------- --<br>------- ---------- ------ -- ----- -- ----- -- ---- ------<br>--- ----- --- --- ------ interest ----- --- ------ ----- --<br>----- ----- ---------- --- --- ------ ------ ---- -- ------<br>------- --- ------ ----- --- ---- ------- -- ---- --- --<br>------- ------,235059.16000000434,235058.1499999971,234162.819,234167.0949999825,234179.545,235061.871,,27,interest
screen,html.Screen,1_1_1_1_28,2021-04-11T13:07:56.069Z,,,,,,,,,,,,,,,,54,,,,,,,,,,,,,,389.9739999741141,,response,,,,100,,,,,,,Space,keypress(Space),,,,,,,,-- --- ---- --- ------ ----- ------- ---- -- --- ------- --<br>------- ---------- ------ -- ----- -- ----- -- ---- ------<br>--- ----- --- --- ------ -------- rate. --- ------ ----- --<br>----- ----- ---------- --- --- ------ ------ ---- -- ------<br>------- --- ------ ----- --- ---- ------- -- ---- --- --<br>------- ------,235452.79000001028,235451.84499997413,235045.378,235059.41499996698,235061.871,235461.751,,28,rate.
screen,html.Screen,1_1_1_1_29,2021-04-11T13:07:56.774Z,,,,,,,,,,,,,,,,54,,,,,,,,,,,,,,695.554000000644,,response,,,,100,,,,,,,Space,keypress(Space),,,,,,,,-- --- ---- --- ------ ----- ------- ---- -- --- ------- --<br>------- ---------- ------ -- ----- -- ----- -- ---- ------<br>--- ----- --- --- ------ -------- ----- The ------ ----- --<br>----- ----- ---------- --- --- ------ ------ ---- -- ------<br>------- --- ------ ----- --- ---- ------- -- ---- --- --<br>------- ------,236158.4300000104,236157.30500000063,235445.134,235453.05499999085,235461.751,236160.965,,29,The
screen,html.Screen,1_1_1_1_30,2021-04-11T13:07:57.638Z,,,,,,,,,,,,,,,,54,,,,,,,,,,,,,,860.0549999855866,,response,,,,100,,,,,,,Space,keypress(Space),,,,,,,,-- --- ---- --- ------ ----- ------- ---- -- --- ------- --<br>------- ---------- ------ -- ----- -- ----- -- ---- ------<br>--- ----- --- --- ------ -------- ----- --- market ----- --<br>----- ----- ---------- --- --- ------ ------ ---- -- ------<br>------- --- ------ ----- --- ---- ------- -- ---- --- --<br>------- ------,237022.11499999976,237021.01999998558,236144.513,236158.76500000013,236160.965,237026.834,,30,market
screen,html.Screen,1_1_1_1_31,2021-04-11T13:07:58.505Z,,,,,,,,,,,,,,,,54,,,,,,,,,,,,,,861.0010000013572,,response,,,,100,,,,,,,Space,keypress(Space),,,,,,,,-- --- ---- --- ------ ----- ------- ---- -- --- ------- --<br>------- ---------- ------ -- ----- -- ----- -- ---- ------<br>--- ----- --- --- ------ -------- ----- --- ------ value --<br>----- ----- ---------- --- --- ------ ------ ---- -- ------<br>------- --- ------ ----- --- ---- ------- -- ---- --- --<br>------- ------,237888.77499999944,237887.83500000136,237010.527,237022.37500000047,237026.834,237892.855,,31,value
screen,html.Screen,1_1_1_1_32,2021-04-11T13:07:58.923Z,,,,,,,,,,,,,,,,54,,,,,,,,,,,,,,413.0500000156171,,response,,,,100,,,,,,,Space,keypress(Space),,,,,,,,-- --- ---- --- ------ ----- ------- ---- -- --- ------- --<br>------- ---------- ------ -- ----- -- ----- -- ---- ------<br>--- ----- --- --- ------ -------- ----- --- ------ ----- of<br>----- ----- ---------- --- --- ------ ------ ---- -- ------<br>------- --- ------ ----- --- ---- ------- -- ---- --- --<br>------- ------,238306.91499996465,238305.90500001563,237876.438,237889.02999996208,237892.855,238309.218,,32,of
screen,html.Screen,1_1_1_1_33,2021-04-11T13:07:59.328Z,,,,,,,,,,,,,,,,54,,,,,,,,,,,,,,401.46699999819975,,response,,,,100,,,,,,,Space,keypress(Space),,,,,,,,-- --- ---- --- ------ ----- ------- ---- -- --- ------- --<br>------- ---------- ------ -- ----- -- ----- -- ---- ------<br>--- ----- --- --- ------ -------- ----- --- ------ ----- --<br>these ----- ---------- --- --- ------ ------ ---- -- ------<br>------- --- ------ ----- --- ---- ------- -- ---- --- --<br>------- ------,238711.62999997614,238710.6849999982,238292.787,238307.1699999855,238309.218,238725.825,,33,these
screen,html.Screen,1_1_1_1_34,2021-04-11T13:07:59.711Z,,,,,,,,,,,,,,,,54,,,,,,,,,,,,,,368.73499999771593,,response,,,,100,,,,,,,Space,keypress(Space),,,,,,,,-- --- ---- --- ------ ----- ------- ---- -- --- ------- --<br>------- ---------- ------ -- ----- -- ----- -- ---- ------<br>--- ----- --- --- ------ -------- ----- --- ------ ----- --<br>----- bonds ---------- --- --- ------ ------ ---- -- ------<br>------- --- ------ ----- --- ---- ------- -- ---- --- --<br>------- ------,239095.60000000056,239094.55999999773,238709.076,238711.88999997685,238725.825,239108.863,,34,bonds
screen,html.Screen,1_1_1_1_35,2021-04-11T13:08:00.653Z,,,,,,,,,,,,,,,,54,,,,,,,,,,,,,,927.2420000064885,,response,,,,100,,,,,,,Space,keypress(Space),,,,,,,,"-- --- ---- --- ------ ----- ------- ---- -- --- ------- --<br>------- ---------- ------ -- ----- -- ----- -- ---- ------<br>--- ----- --- --- ------ -------- ----- --- ------ ----- --<br>----- ----- plummeted, --- --- ------ ------ ---- -- ------<br>------- --- ------ ----- --- ---- ------- -- ---- --- --<br>------- ------",240037.1949999826,240036.1050000065,239092.15,239095.86499998113,239108.863,240041.124,,35,"plummeted,"
screen,html.Screen,1_1_1_1_36,2021-04-11T13:08:01.138Z,,,,,,,,,,,,,,,,54,,,,,,,,,,,,,,479.8509999921662,,response,,,,100,,,,,,,Space,keypress(Space),,,,,,,,-- --- ---- --- ------ ----- ------- ---- -- --- ------- --<br>------- ---------- ------ -- ----- -- ----- -- ---- ------<br>--- ----- --- --- ------ -------- ----- --- ------ ----- --<br>----- ----- ---------- and --- ------ ------ ---- -- ------<br>------- --- ------ ----- --- ---- ------- -- ---- --- --<br>------- ------,240521.97999996133,240520.97499999218,240024.668,240037.48499997891,240041.124,240545.63,,36,and
screen,html.Screen,1_1_1_1_37,2021-04-11T13:08:01.576Z,,,,,,,,,,,,,,,,54,,,,,,,,,,,,,,413.17999998189043,,response,,,,100,,,,,,,Space,keypress(Space),,,,,,,,-- --- ---- --- ------ ----- ------- ---- -- --- ------- --<br>------- ---------- ------ -- ----- -- ----- -- ---- ------<br>--- ----- --- --- ------ -------- ----- --- ------ ----- --<br>----- ----- ---------- --- the ------ ------ ---- -- ------<br>------- --- ------ ----- --- ---- ------- -- ---- --- --<br>------- ------,240960.01499996055,240958.8099999819,240507.627,240522.23999996204,240545.63,240974.016,,37,the
screen,html.Screen,1_1_1_1_38,2021-04-11T13:08:02.007Z,,,,,,,,,,,,,,,,54,,,,,,,,,,,,,,415.74899997079046,,response,,,,100,,,,,,,Space,keypress(Space),,,,,,,,-- --- ---- --- ------ ----- ------- ---- -- --- ------- --<br>------- ---------- ------ -- ----- -- ----- -- ---- ------<br>--- ----- --- --- ------ -------- ----- --- ------ ----- --<br>----- ----- ---------- --- --- market ------ ---- -- ------<br>------- --- ------ ----- --- ---- ------- -- ---- --- --<br>------- ------,241390.699999989,241389.7649999708,240957.231,240960.32499999274,240974.016,241406.972,,38,market
screen,html.Screen,1_1_1_1_39,2021-04-11T13:08:02.600Z,,,,,,,,,,,,,,,,54,,,,,,,,,,,,,,576.4429999660351,,response,,,,100,,,,,,,Space,keypress(Space),,,,,,,,-- --- ---- --- ------ ----- ------- ---- -- --- ------- --<br>------- ---------- ------ -- ----- -- ----- -- ---- ------<br>--- ----- --- --- ------ -------- ----- --- ------ ----- --<br>----- ----- ---------- --- --- ------ became ---- -- ------<br>------- --- ------ ----- --- ---- ------- -- ---- --- --<br>------- ------,241984.3600000022,241983.41499996604,241390.251,241390.95500000985,241406.972,241989.485,,39,became
screen,html.Screen,1_1_1_1_40,2021-04-11T13:08:02.965Z,,,,,,,,,,,,,,,,54,,,,,,,,,,,,,,359.02000000176486,,response,,,,100,,,,,,,Space,keypress(Space),,,,,,,,-- --- ---- --- ------ ----- ------- ---- -- --- ------- --<br>------- ---------- ------ -- ----- -- ----- -- ---- ------<br>--- ----- --- --- ------ -------- ----- --- ------ ----- --<br>----- ----- ---------- --- --- ------ ------ wary -- ------<br>------- --- ------ ----- --- ---- ------- -- ---- --- --<br>------- ------,242349.50000001118,242348.50500000175,241973.089,241984.60999998497,241989.485,242355.897,,40,wary
screen,html.Screen,1_1_1_1_41,2021-04-11T13:08:03.585Z,,,,,,,,,,,,,,,,54,,,,,,,,,,,,,,612.4779999967432,,response,,,,100,,,,,,,Space,keypress(Space),,,,,,,,-- --- ---- --- ------ ----- ------- ---- -- --- ------- --<br>------- ---------- ------ -- ----- -- ----- -- ---- ------<br>--- ----- --- --- ------ -------- ----- --- ------ ----- --<br>----- ----- ---------- --- --- ------ ------ ---- of ------<br>------- --- ------ ----- --- ---- ------- -- ---- --- --<br>------- ------,242969.38500000397,242968.37499999674,242339.441,242349.74500001408,242355.897,242972.009,,41,of
screen,html.Screen,1_1_1_1_42,2021-04-11T13:08:04.346Z,,,,,,,,,,,,,,,,54,,,,,,,,,,,,,,757.2259999770613,,response,,,,100,,,,,,,Space,keypress(Space),,,,,,,,-- --- ---- --- ------ ----- ------- ---- -- --- ------- --<br>------- ---------- ------ -- ----- -- ----- -- ---- ------<br>--- ----- --- --- ------ -------- ----- --- ------ ----- --<br>----- ----- ---------- --- --- ------ ------ ---- -- French<br>------- --- ------ ----- --- ---- ------- -- ---- --- --<br>------- ------,243730.20499997074,243729.23499997705,242955.635,242969.63499998674,242972.009,243738.218,,42,French
screen,html.Screen,1_1_1_1_43,2021-04-11T13:08:05.324Z,,,,,,,,,,,,,,,,54,,,,,,,,,,,,,,969.3919999831123,,response,,,,100,,,,,,,Space,keypress(Space),,,,,,,,-- --- ---- --- ------ ----- ------- ---- -- --- ------- --<br>------- ---------- ------ -- ----- -- ----- -- ---- ------<br>--- ----- --- --- ------ -------- ----- --- ------ ----- --<br>----- ----- ---------- --- --- ------ ------ ---- -- ------<br>credit. --- ------ ----- --- ---- ------- -- ---- --- --<br>------- ------,244708.48999998998,244707.6099999831,243721.653,243730.45999999158,243738.218,244720.888,,43,credit.
screen,html.Screen,1_1_1_1_44,2021-04-11T13:08:05.860Z,,,,,,,,,,,,,,,,54,,,,,,,,,,,,,,522.6269999801007,,response,,,,100,,,,,,,Space,keypress(Space),,,,,,,,-- --- ---- --- ------ ----- ------- ---- -- --- ------- --<br>------- ---------- ------ -- ----- -- ----- -- ---- ------<br>--- ----- --- --- ------ -------- ----- --- ------ ----- --<br>----- ----- ---------- --- --- ------ ------ ---- -- ------<br>------- The ------ ----- --- ---- ------- -- ---- --- --<br>------- ------,245244.49000001187,245243.5149999801,244704.092,244708.7649999885,244720.888,245253.606,,44,The
screen,html.Screen,1_1_1_1_45,2021-04-11T13:08:06.218Z,,,,,,,,,,,,,,,,54,,,,,,,,,,,,,,347.614000011381,,response,,,,100,,,,,,,Space,keypress(Space),,,,,,,,-- --- ---- --- ------ ----- ------- ---- -- --- ------- --<br>------- ---------- ------ -- ----- -- ----- -- ---- ------<br>--- ----- --- --- ------ -------- ----- --- ------ ----- --<br>----- ----- ---------- --- --- ------ ------ ---- -- ------<br>------- --- French ----- --- ---- ------- -- ---- --- --<br>------- ------,245602.30500000762,245601.22000001138,245237.066,245244.75499999244,245253.606,245636.855,,45,French
screen,html.Screen,1_1_1_1_46,2021-04-11T13:08:06.889Z,,,,,,,,,,,,,,,,54,,,,,,,,,,,,,,634.7399999983318,,response,,,,100,,,,,,,Space,keypress(Space),,,,,,,,-- --- ---- --- ------ ----- ------- ---- -- --- ------- --<br>------- ---------- ------ -- ----- -- ----- -- ---- ------<br>--- ----- --- --- ------ -------- ----- --- ------ ----- --<br>----- ----- ---------- --- --- ------ ------ ---- -- ------<br>------- --- ------ state --- ---- ------- -- ---- --- --<br>------- ------,246272.63500000117,246271.59499999834,245620.145,245602.65000001527,245636.855,246286.32,,46,state
screen,html.Screen,1_1_1_1_47,2021-04-11T13:08:07.314Z,,,,,,,,,,,,,,,,54,,,,,,,,,,,,,,410.5549999650684,,response,,,,100,,,,,,,Space,keypress(Space),,,,,,,,-- --- ---- --- ------ ----- ------- ---- -- --- ------- --<br>------- ---------- ------ -- ----- -- ----- -- ---- ------<br>--- ----- --- --- ------ -------- ----- --- ------ ----- --<br>----- ----- ---------- --- --- ------ ------ ---- -- ------<br>------- --- ------ ----- was ---- ------- -- ---- --- --<br>------- ------,246697.9449999635,246696.87499996508,246269.328,246272.8899999638,246286.32,246702.273,,47,was
screen,html.Screen,1_1_1_1_48,2021-04-11T13:08:08.174Z,,,,,,,,,,,,,,,,54,,,,,,,,,,,,,,854.3819999639527,,response,,,,100,,,,,,,Space,keypress(Space),,,,,,,,-- --- ---- --- ------ ----- ------- ---- -- --- ------- --<br>------- ---------- ------ -- ----- -- ----- -- ---- ------<br>--- ----- --- --- ------ -------- ----- --- ------ ----- --<br>----- ----- ---------- --- --- ------ ------ ---- -- ------<br>------- --- ------ ----- --- left ------- -- ---- --- --<br>------- ------,247557.6749999891,247556.65499996394,246685.756,246698.21999996202,246702.273,247568.474,,48,left
screen,html.Screen,1_1_1_1_49,2021-04-11T13:08:08.864Z,,,,,,,,,,,,,,,,54,,,,,,,,,,,,,,679.0510000134236,,response,,,,100,,,,,,,Space,keypress(Space),,,,,,,,-- --- ---- --- ------ ----- ------- ---- -- --- ------- --<br>------- ---------- ------ -- ----- -- ----- -- ---- ------<br>--- ----- --- --- ------ -------- ----- --- ------ ----- --<br>----- ----- ---------- --- --- ------ ------ ---- -- ------<br>------- --- ------ ----- --- ---- without -- ---- --- --<br>------- ------,248248.46999999136,248247.5250000134,247551.792,247557.93000000995,247568.474,248250.99,,49,without
screen,html.Screen,1_1_1_1_50,2021-04-11T13:08:09.323Z,,,,,,,,,,,,,,,,54,,,,,,,,,,,,,,455.0950000125449,,response,,,,100,,,,,,,Space,keypress(Space),,,,,,,,-- --- ---- --- ------ ----- ------- ---- -- --- ------- --<br>------- ---------- ------ -- ----- -- ----- -- ---- ------<br>--- ----- --- --- ------ -------- ----- --- ------ ----- --<br>----- ----- ---------- --- --- ------ ------ ---- -- ------<br>------- --- ------ ----- --- ---- ------- an ---- --- --<br>------- ------,248707.01999997254,248706.08500001254,248234.642,248248.72999999207,248250.99,248717.523,,50,an
screen,html.Screen,1_1_1_1_51,2021-04-11T13:08:09.867Z,,,,,,,,,,,,,,,,54,,,,,,,,,,,,,,532.9520000080229,,response,,,,100,,,,,,,Space,keypress(Space),,,,,,,,-- --- ---- --- ------ ----- ------- ---- -- --- ------- --<br>------- ---------- ------ -- ----- -- ----- -- ---- ------<br>--- ----- --- --- ------ -------- ----- --- ------ ----- --<br>----- ----- ---------- --- --- ------ ------ ---- -- ------<br>------- --- ------ ----- --- ---- ------- -- easy --- --<br>------- ------,249251.53000000864,249250.475000008,248700.917,248707.27999997325,248717.523,249266.872,,51,easy
screen,html.Screen,1_1_1_1_52,2021-04-11T13:08:10.347Z,,,,,,,,,,,,,,,,54,,,,,,,,,,,,,,462.65299997336115,,response,,,,100,,,,,,,Space,keypress(Space),,,,,,,,-- --- ---- --- ------ ----- ------- ---- -- --- ------- --<br>------- ---------- ------ -- ----- -- ----- -- ---- ------<br>--- ----- --- --- ------ -------- ----- --- ------ ----- --<br>----- ----- ---------- --- --- ------ ------ ---- -- ------<br>------- --- ------ ----- --- ---- ------- -- ---- way --<br>------- ------,249730.72499997215,249729.52499997336,249250.434,249251.80999998702,249266.872,249733.08,,52,way
screen,html.Screen,1_1_1_1_53,2021-04-11T13:08:11.136Z,,,,,,,,,,,,,,,,54,,,,,,,,,,,,,,786.3099999722035,,response,,,,100,,,,,,,Space,keypress(Space),,,,,,,,-- --- ---- --- ------ ----- ------- ---- -- --- ------- --<br>------- ---------- ------ -- ----- -- ----- -- ---- ------<br>--- ----- --- --- ------ -------- ----- --- ------ ----- --<br>----- ----- ---------- --- --- ------ ------ ---- -- ------<br>------- --- ------ ----- --- ---- ------- -- ---- --- of<br>------- ------,250520.35000000615,250519.3899999722,249716.722,249731.02000000654,249733.08,250532.558,,53,of
screen,html.Screen,1_1_1_1_54,2021-04-11T13:08:11.969Z,,,,,,,,,,,,,,,,54,,,,,,,,,,,,,,819.336999970692,,response,,,,100,,,,,,,Space,keypress(Space),,,,,,,,-- --- ---- --- ------ ----- ------- ---- -- --- ------- --<br>------- ---------- ------ -- ----- -- ----- -- ---- ------<br>--- ----- --- --- ------ -------- ----- --- ------ ----- --<br>----- ----- ---------- --- --- ------ ------ ---- -- ------<br>------- --- ------ ----- --- ---- ------- -- ---- --- --<br>raising ------,251353.10999996727,251351.89499997068,250516.059,250520.60499996878,250532.558,251365.186,,54,raising
screen,html.Screen,1_1_1_1_55,2021-04-11T13:08:13.174Z,,,,,,,,,,,,,,,,54,,,,,,,,,,,,,,1191.4889999998268,,response,,,,100,,,,,,,Space,keypress(Space),,,,,,,,-- --- ---- --- ------ ----- ------- ---- -- --- ------- --<br>------- ---------- ------ -- ----- -- ----- -- ---- ------<br>--- ----- --- --- ------ -------- ----- --- ------ ----- --<br>----- ----- ---------- --- --- ------ ------ ---- -- ------<br>------- --- ------ ----- --- ---- ------- -- ---- --- --<br>------- money.,252557.919999992,252556.6749999998,251348.655,251353.4450000152,251365.186,252564.098,,55,money.
Item 100,flow.Loop,1_1_1_1,2021-04-11T13:08:13.174Z,,,,,,,,,,,,,,,,,,,,,,,,,,,,,,37261.865999999805,,completion,,,,,A,,,,,,,,,,,silence,,,,,252558.5049999645,252556.6749999998,215278.331,215279.6850000159,215294.809,252564.098,,,
Question 1,html.Screen,1_1_1_2,2021-04-11T13:08:19.412Z,,,,,,,,,,,,,,,,,,,,,,,,,,,true,TRUE,,6230.106999983778,,response,,,,100,A,,,,,,TRUE,click #choice-1,,,,silence,,,,,258796.399999992,258794.20499998378,252547.668,252560.43499999214,252564.098,258809.461,,,
Question 2,html.Screen,1_1_1_3,2021-04-11T13:08:22.939Z,,,,,,,,,,,,,,,,,,,,,,,,,,,true,FALSE,,3511.7939999589,,response,,,,100,A,,,,,,FALSE,click #choice-2,,,,silence,,,,,262323.5599999898,262321.2549999589,258792.57,258796.68500000844,258809.461,262339.716,,,
Item 100,flow.Sequence,1_1_1,2021-04-11T13:08:22.939Z,,,,,,,,,,,,,,,,,,,,,,,,,,,,,,57018.2259999589,,completion,,,,,,,,,,,,,,,,,,,,,262324.02999995975,262321.2549999589,205286.614,205296.02000000887,205303.029,262339.716,,,
End of Practice,html.Page,1_1_2,2021-04-11T13:08:25.288Z,,,,,,,,,,,,,,,,,,,,,,,,,,,,,,2331.9139999970794,,form submission,,,,,,,,,,,,,,,,,,,,,264672.78999998234,264671.6299999971,262306.412,262324.2399999872,262339.716,264697.845,,,
Practice,flow.Sequence,1_1,2021-04-11T13:08:25.288Z,,,,,,,,,,,,,,,,,,,,,,,,,,,,,,128345.2869999971,,completion,,,,,,,,,,,,,,,,,,,,,264673.00499998964,264671.6299999971,136309.999,136323.95499997074,136326.343,264697.845,,,
Trap_instruction,html.Page,1_2_0,2021-04-11T13:08:29.747Z,,,,,,,,,,,,,,,,,,,,,,,,,,,,,,4432.920000009006,,form submission,,,,,,,,,,,,,,,,,,,,,269131.6949999891,269130.765000009,264654.464,264673.1049999944,264697.845,269183.801,,,
trap_trial,html.Screen,1_2_1,2021-04-11T13:08:34.500Z,,,,,,,,,,,,,,,,,,,,,,,,,,,true,1,,4698.318999965675,,response,,,,,,,,,,,1,click #choice-1,,,,,,,,,273884.26999998046,273882.11999996565,269117.429,269131.939999992,269183.801,273896.602,,,
end of trap trial,html.Page,1_2_2,2021-04-11T13:08:36.721Z,,,,,,,,,,,,,,,,,,,,,,,,,,,,,,2208.107999985048,,form submission,,,,,,,,,,,,,,,,,,,,,276105.7199999923,276104.70999998506,273880.18,273884.5399999991,273896.602,276111.373,,,
Trap 1,flow.Sequence,1_2,2021-04-11T13:08:36.722Z,,,,,,,,,,,,,,,,,,,,,,,,,,,,,,11406.86499998509,,completion,,,,,,,,,,,,,,,,,,,,,276106.1650000047,276104.70999998506,264654.464,264673.0749999988,264697.845,276111.373,,,
Standby,html.Page,1_3_0,2021-04-11T13:08:44.705Z,,,,,,,,,,,,,,,,,,,,,,,,,,,,,,7993.621999999974,,timeout,,,,,,,,,,,,,,,,,,,,,284089.6949999733,284088.523,276095.057,276106.46499996074,276111.373,284104.995,,,
Holding screen,html.Screen,1_3_1_0_0,2021-04-11T13:08:51.699Z,,,,,,,,,,,,,,,,,,,,,,,,,,,,,,6994.4529999999795,,timeout,,,,,,,,,,,,,,,,,,,,,291083.8699999731,291082.703,284088.523,284090.1099999901,284104.995,291099.448,,,
screen,html.Screen,1_3_1_0_1_0,2021-04-11T13:08:53.396Z,,,,,,,,,,,,,,,,51,,,,,,,,,,,,,,1680.3970000118716,,response,,,,13,A,,,,,,Space,keypress(Space),,,,silence,,,,American -------- --- --- ---- --- --- ------ -- --------<br>---- --------- --- ------- ------------ ---------- ---------<br>--- ---------- ------- ---------- ------- -- -------- ----<br>---- --- ------ ----- ------ -- ---- --- ----- -- - -------<br>-------- -- --- --- -- ----- ----------- ----- -----------<br>---- --- ---------- --- ---- --- -- ----------,292781.06999996817,292779.84500001185,291082.703,291084.3049999676,291099.448,292806.372,,0,American
screen,html.Screen,1_3_1_0_1_1,2021-04-11T13:08:54.506Z,,,,,,,,,,,,,,,,51,,,,,,,,,,,,,,1083.513000011444,,response,,,,13,A,,,,,,Space,keypress(Space),,,,silence,,,,-------- industry --- --- ---- --- --- ------ -- --------<br>---- --------- --- ------- ------------ ---------- ---------<br>--- ---------- ------- ---------- ------- -- -------- ----<br>---- --- ------ ----- ------ -- ---- --- ----- -- - -------<br>-------- -- --- --- -- ----- ----------- ----- -----------<br>---- --- ---------- --- ---- --- -- ----------,293890.86499996483,293889.8850000114,292764.606,292781.3749999623,292806.372,293896.829,,1,industry
screen,html.Screen,1_3_1_0_1_2,2021-04-11T13:08:55.395Z,,,,,,,,,,,,,,,,51,,,,,,,,,,,,,,881.6609999969369,,response,,,,13,A,,,,,,Space,keypress(Space),,,,silence,,,,-------- -------- may --- ---- --- --- ------ -- --------<br>---- --------- --- ------- ------------ ---------- ---------<br>--- ---------- ------- ---------- ------- -- -------- ----<br>---- --- ------ ----- ------ -- ---- --- ----- -- - -------<br>-------- -- --- --- -- ----- ----------- ----- -----------<br>---- --- ---------- --- ---- --- -- ----------,294779.4649999705,294778.48999999696,293880.383,293891.1150000058,293896.829,294796.429,,2,may
screen,html.Screen,1_3_1_0_1_3,2021-04-11T13:08:56.097Z,,,,,,,,,,,,,,,,51,,,,,,,,,,,,,,684.1410000142641,,response,,,,13,A,,,,,,Space,keypress(Space),,,,silence,,,,-------- -------- --- not ---- --- --- ------ -- --------<br>---- --------- --- ------- ------------ ---------- ---------<br>--- ---------- ------- ---------- ------- -- -------- ----<br>---- --- ------ ----- ------ -- ---- --- ----- -- - -------<br>-------- -- --- --- -- ----- ----------- ----- -----------<br>---- --- ---------- --- ---- --- -- ----------,295481.5599999856,295480.57000001427,294779.545,294779.7450000071,294796.429,295495.804,,3,not
screen,html.Screen,1_3_1_0_1_4,2021-04-11T13:08:56.887Z,,,,,,,,,,,,,,,,51,,,,,,,,,,,,,,775.3059999723919,,response,,,,13,A,,,,,,Space,keypress(Space),,,,silence,,,,-------- -------- --- --- know --- --- ------ -- --------<br>---- --------- --- ------- ------------ ---------- ---------<br>--- ---------- ------- ---------- ------- -- -------- ----<br>---- --- ------ ----- ------ -- ---- --- ----- -- - -------<br>-------- -- --- --- -- ----- ----------- ----- -----------<br>---- --- ---------- --- ---- --- -- ----------,296271.68499998515,296271.1099999724,295479.102,295481.80000000866,295495.804,296278.131,,4,know
screen,html.Screen,1_3_1_0_1_5,2021-04-11T13:08:57.634Z,,,,,,,,,,,,,,,,51,,,,,,,,,,,,,,739.5489999899291,,response,,,,13,A,,,,,,Space,keypress(Space),,,,silence,,,,"-------- -------- --- --- ---- it, --- ------ -- --------<br>---- --------- --- ------- ------------ ---------- ---------<br>--- ---------- ------- ---------- ------- -- -------- ----<br>---- --- ------ ----- ------ -- ---- --- ----- -- - -------<br>-------- -- --- --- -- ----- ----------- ----- -----------<br>---- --- ---------- --- ---- --- -- ----------",297018.7000000151,297017.6799999899,296261.761,296271.78000001004,296278.131,297027.937,,5,"it,"
screen,html.Screen,1_3_1_0_1_6,2021-04-11T13:08:58.367Z,,,,,,,,,,,,,,,,51,,,,,,,,,,,,,,723.0229999757721,,response,,,,13,A,,,,,,Space,keypress(Space),,,,silence,,,,-------- -------- --- --- ---- --- but ------ -- --------<br>---- --------- --- ------- ------------ ---------- ---------<br>--- ---------- ------- ---------- ------- -- -------- ----<br>---- --- ------ ----- ------ -- ---- --- ----- -- - -------<br>-------- -- --- --- -- ----- ----------- ----- -----------<br>---- --- ---------- --- ---- --- -- ----------,297752.0699999877,297750.95999997575,297011.171,297018.9699999755,297027.937,297760.399,,6,but
screen,html.Screen,1_3_1_0_1_7,2021-04-11T13:08:59.738Z,,,,,,,,,,,,,,,,51,,,,,,,,,,,,,,1360.7560000007506,,response,,,,13,A,,,,,,Space,keypress(Space),,,,silence,,,,-------- -------- --- --- ---- --- --- debate -- --------<br>---- --------- --- ------- ------------ ---------- ---------<br>--- ---------- ------- ---------- ------- -- -------- ----<br>---- --- ------ ----- ------ -- ---- --- ----- -- - -------<br>-------- -- --- --- -- ----- ----------- ----- -----------<br>---- --- ---------- --- ---- --- -- ----------,299122.15499999,299121.1550000007,297743.777,297752.3499999661,297760.399,299125.896,,7,debate
screen,html.Screen,1_3_1_0_1_8,2021-04-11T13:09:00.460Z,,,,,,,,,,,,,,,,51,,,,,,,,,,,,,,718.1639999739709,,response,,,,13,A,,,,,,Space,keypress(Space),,,,silence,,,,-------- -------- --- --- ---- --- --- ------ in --------<br>---- --------- --- ------- ------------ ---------- ---------<br>--- ---------- ------- ---------- ------- -- -------- ----<br>---- --- ------ ----- ------ -- ---- --- ----- -- - -------<br>-------- -- --- --- -- ----- ----------- ----- -----------<br>---- --- ---------- --- ---- --- -- ----------,299845.05000000354,299844.059999974,299109.423,299122.4299999885,299125.896,299858.889,,8,in
screen,html.Screen,1_3_1_0_1_9,2021-04-11T13:09:01.252Z,,,,,,,,,,,,,,,,51,,,,,,,,,,,,,,776.3909999876632,,response,,,,13,A,,,,,,Space,keypress(Space),,,,silence,,,,-------- -------- --- --- ---- --- --- ------ -- Congress<br>---- --------- --- ------- ------------ ---------- ---------<br>--- ---------- ------- ---------- ------- -- -------- ----<br>---- --- ------ ----- ------ -- ---- --- ----- -- - -------<br>-------- -- --- --- -- ----- ----------- ----- -----------<br>---- --- ---------- --- ---- --- -- ----------,300636.25499996124,300635.2799999877,299842.166,299845.2999999863,299858.889,300641.28,,9,Congress
screen,html.Screen,1_3_1_0_1_10,2021-04-11T13:09:01.919Z,,,,,,,,,,,,,,,,51,,,,,,,,,,,,,,661.0899999903049,,response,,,,13,A,,,,,,Space,keypress(Space),,,,silence,,,,-------- -------- --- --- ---- --- --- ------ -- --------<br>over --------- --- ------- ------------ ---------- ---------<br>--- ---------- ------- ---------- ------- -- -------- ----<br>---- --- ------ ----- ------ -- ---- --- ----- -- - -------<br>-------- -- --- --- -- ----- ----------- ----- -----------<br>---- --- ---------- --- ---- --- -- ----------,301303.45999996644,301302.36999999033,300624.863,300636.51499996195,300641.28,301307.385,,10,over
screen,html.Screen,1_3_1_0_1_11,2021-04-11T13:09:02.716Z,,,,,,,,,,,,,,,,51,,,,,,,,,,,,,,792.3399999781977,,response,,,,13,A,,,,,,Space,keypress(Space),,,,silence,,,,-------- -------- --- --- ---- --- --- ------ -- --------<br>---- reforming --- ------- ------------ ---------- ---------<br>--- ---------- ------- ---------- ------- -- -------- ----<br>---- --- ------ ----- ------ -- ---- --- ----- -- - -------<br>-------- -- --- --- -- ----- ----------- ----- -----------<br>---- --- ---------- --- ---- --- -- ----------,302100.7849999587,302099.7249999782,301290.988,301303.740000003,301307.385,302106.787,,11,reforming
screen,html.Screen,1_3_1_0_1_12,2021-04-11T13:09:03.196Z,,,,,,,,,,,,,,,,51,,,,,,,,,,,,,,472.3579999669455,,response,,,,13,A,,,,,,Space,keypress(Space),,,,silence,,,,-------- -------- --- --- ---- --- --- ------ -- --------<br>---- --------- the ------- ------------ ---------- ---------<br>--- ---------- ------- ---------- ------- -- -------- ----<br>---- --- ------ ----- ------ -- ---- --- ----- -- - -------<br>-------- -- --- --- -- ----- ----------- ----- -----------<br>---- --- ---------- --- ---- --- -- ----------,302580.23500000127,302579.14499996696,302090.357,302101.0349999997,302106.787,302589.769,,12,the
screen,html.Screen,1_3_1_0_1_13,2021-04-11T13:09:03.987Z,,,,,,,,,,,,,,,,51,,,,,,,,,,,,,,781.230999984662,,response,,,,13,A,,,,,,Space,keypress(Space),,,,silence,,,,-------- -------- --- --- ---- --- --- ------ -- --------<br>---- --------- --- federal ------------ ---------- ---------<br>--- ---------- ------- ---------- ------- -- -------- ----<br>---- --- ------ ----- ------ -- ---- --- ----- -- - -------<br>-------- -- --- --- -- ----- ----------- ----- -----------<br>---- --- ---------- --- ---- --- -- ----------,303372.02499998966,303370.99999998463,302573.259,302580.49999998184,302589.769,303389.387,,13,federal
screen,html.Screen,1_3_1_0_1_14,2021-04-11T13:09:04.703Z,,,,,,,,,,,,,,,,51,,,,,,,,,,,,,,697.3879999743076,,response,,,,13,A,,,,,,Space,keypress(Space),,,,silence,,,,-------- -------- --- --- ---- --- --- ------ -- --------<br>---- --------- --- ------- government's ---------- ---------<br>--- ---------- ------- ---------- ------- -- -------- ----<br>---- --- ------ ----- ------ -- ---- --- ----- -- - -------<br>-------- -- --- --- -- ----- ----------- ----- -----------<br>---- --- ---------- --- ---- --- -- ----------,304087.8200000152,304086.7749999743,303372.586,303372.28999997023,303389.387,304105.449,,14,government's
screen,html.Screen,1_3_1_0_1_15,2021-04-11T13:09:05.579Z,,,,,,,,,,,,,,,,51,,,,,,,,,,,,,,857.3559999591671,,response,,,,13,A,,,,,,Space,keypress(Space),,,,silence,,,,-------- -------- --- --- ---- --- --- ------ -- --------<br>---- --------- --- ------- ------------ regulatory ---------<br>--- ---------- ------- ---------- ------- -- -------- ----<br>---- --- ------ ----- ------ -- ---- --- ----- -- - -------<br>-------- -- --- --- -- ----- ----------- ----- -----------<br>---- --- ---------- --- ---- --- -- ----------,304964.00999999605,304962.8049999592,304088.756,304088.1100000115,304105.449,304971.024,,15,regulatory
screen,html.Screen,1_3_1_0_1_16,2021-04-11T13:09:06.895Z,,,,,,,,,,,,,,,,51,,,,,,,,,,,,,,1307.1059999915306,,response,,,,13,A,,,,,,Space,keypress(Space),,,,silence,,,,-------- -------- --- --- ---- --- --- ------ -- --------<br>---- --------- --- ------- ------------ ---------- apparatus<br>--- ---------- ------- ---------- ------- -- -------- ----<br>---- --- ------ ----- ------ -- ---- --- ----- -- - -------<br>-------- -- --- --- -- ----- ----------- ----- -----------<br>---- --- ---------- --- ---- --- -- ----------,306279.21499998774,306278.1299999915,304954.6,304964.2950000125,304971.024,306286.591,,16,apparatus
screen,html.Screen,1_3_1_0_1_17,2021-04-11T13:09:07.821Z,,,,,,,,,,,,,,,,51,,,,,,,,,,,,,,917.5389999691397,,response,,,,13,A,,,,,,Space,keypress(Space),,,,silence,,,,-------- -------- --- --- ---- --- --- ------ -- --------<br>---- --------- --- ------- ------------ ---------- ---------<br>may ---------- ------- ---------- ------- -- -------- ----<br>---- --- ------ ----- ------ -- ---- --- ----- -- - -------<br>-------- -- --- --- -- ----- ----------- ----- -----------<br>---- --- ---------- --- ---- --- -- ----------,307205.22499998333,307204.12999996915,306270.202,306279.4799999683,306286.591,307219.526,,17,may
screen,html.Screen,1_3_1_0_1_18,2021-04-11T13:09:08.564Z,,,,,,,,,,,,,,,,51,,,,,,,,,,,,,,727.584000008239,,response,,,,13,A,,,,,,Space,keypress(Space),,,,silence,,,,-------- -------- --- --- ---- --- --- ------ -- --------<br>---- --------- --- ------- ------------ ---------- ---------<br>--- profoundly ------- ---------- ------- -- -------- ----<br>---- --- ------ ----- ------ -- ---- --- ----- -- - -------<br>-------- -- --- --- -- ----- ----------- ----- -----------<br>---- --- ---------- --- ---- --- -- ----------,307948.219999962,307947.11000000825,307202.798,307205.4599999683,307219.526,307951.932,,18,profoundly
screen,html.Screen,1_3_1_0_1_19,2021-04-11T13:09:09.420Z,,,,,,,,,,,,,,,,51,,,,,,,,,,,,,,851.167999961006,,response,,,,13,A,,,,,,Space,keypress(Space),,,,silence,,,,-------- -------- --- --- ---- --- --- ------ -- --------<br>---- --------- --- ------- ------------ ---------- ---------<br>--- ---------- improve ---------- ------- -- -------- ----<br>---- --- ------ ----- ------ -- ---- --- ----- -- - -------<br>-------- -- --- --- -- ----- ----------- ----- -----------<br>---- --- ---------- --- ---- --- -- ----------,308804.1699999594,308803.099999961,307935.513,307948.49499996053,307951.932,308818.18,,19,improve
screen,html.Screen,1_3_1_0_1_20,2021-04-11T13:09:10.289Z,,,,,,,,,,,,,,,,51,,,,,,,,,,,,,,854.5349999933387,,response,,,,13,A,,,,,,Space,keypress(Space),,,,silence,,,,-------- -------- --- --- ---- --- --- ------ -- --------<br>---- --------- --- ------- ------------ ---------- ---------<br>--- ---------- ------- companies' ------- -- -------- ----<br>---- --- ------ ----- ------ -- ---- --- ----- -- - -------<br>-------- -- --- --- -- ----- ----------- ----- -----------<br>---- --- ---------- --- ---- --- -- ----------,309673.79999998957,309672.71499999333,308801.504,308804.4149999623,308818.18,309684.048,,20,companies'
screen,html.Screen,1_3_1_0_1_21,2021-04-11T13:09:10.883Z,,,,,,,,,,,,,,,,51,,,,,,,,,,,,,,582.881999983394,,response,,,,13,A,,,,,,Space,keypress(Space),,,,silence,,,,-------- -------- --- --- ---- --- --- ------ -- --------<br>---- --------- --- ------- ------------ ---------- ---------<br>--- ---------- ------- ---------- ability -- -------- ----<br>---- --- ------ ----- ------ -- ---- --- ----- -- - -------<br>-------- -- --- --- -- ----- ----------- ----- -----------<br>---- --- ---------- --- ---- --- -- ----------,310267.96500000637,310266.9299999834,309667.439,309674.0599999903,309684.048,310283.694,,21,ability
screen,html.Screen,1_3_1_0_1_22,2021-04-11T13:09:11.370Z,,,,,,,,,,,,,,,,51,,,,,,,,,,,,,,470.1609999589855,,response,,,,13,A,,,,,,Space,keypress(Space),,,,silence,,,,-------- -------- --- --- ---- --- --- ------ -- --------<br>---- --------- --- ------- ------------ ---------- ---------<br>--- ---------- ------- ---------- ------- to -------- ----<br>---- --- ------ ----- ------ -- ---- --- ----- -- - -------<br>-------- -- --- --- -- ----- ----------- ----- -----------<br>---- --- ---------- --- ---- --- -- ----------,310754.88999998197,310753.854999959,310266.793,310268.19999999134,310283.694,310766.399,,22,to
screen,html.Screen,1_3_1_0_1_23,2021-04-11T13:09:12.332Z,,,,,,,,,,,,,,,,51,,,,,,,,,,,,,,948.8159999747295,,response,,,,13,A,,,,,,Space,keypress(Space),,,,silence,,,,-------- -------- --- --- ---- --- --- ------ -- --------<br>---- --------- --- ------- ------------ ---------- ---------<br>--- ---------- ------- ---------- ------- -- survive. ----<br>---- --- ------ ----- ------ -- ---- --- ----- -- - -------<br>-------- -- --- --- -- ----- ----------- ----- -----------<br>---- --- ---------- --- ---- --- -- ----------,311716.20999998413,311715.2149999747,310749.667,310755.1349999849,310766.399,311732.124,,23,survive.
screen,html.Screen,1_3_1_0_1_24,2021-04-11T13:09:12.972Z,,,,,,,,,,,,,,,,51,,,,,,,,,,,,,,623.7709999860381,,response,,,,13,A,,,,,,Space,keypress(Space),,,,silence,,,,-------- -------- --- --- ---- --- --- ------ -- --------<br>---- --------- --- ------- ------------ ---------- ---------<br>--- ---------- ------- ---------- ------- -- -------- This<br>---- --- ------ ----- ------ -- ---- --- ----- -- - -------<br>-------- -- --- --- -- ----- ----------- ----- -----------<br>---- --- ---------- --- ---- --- -- ----------,312357.0199999958,312355.89499998605,311715.798,311716.465000005,311732.124,312365.082,,24,This
screen,html.Screen,1_3_1_0_1_25,2021-04-11T13:09:13.952Z,,,,,,,,,,,,,,,,51,,,,,,,,,,,,,,970.1329999700538,,response,,,,13,A,,,,,,Space,keypress(Space),,,,silence,,,,-------- -------- --- --- ---- --- --- ------ -- --------<br>---- --------- --- ------- ------------ ---------- ---------<br>--- ---------- ------- ---------- ------- -- -------- ----<br>week --- ------ ----- ------ -- ---- --- ----- -- - -------<br>-------- -- --- --- -- ----- ----------- ----- -----------<br>---- --- ---------- --- ---- --- -- ----------,313336.4999999758,313335.21499997005,312348.235,312357.29499999434,312365.082,313347.742,,25,week
screen,html.Screen,1_3_1_0_1_26,2021-04-11T13:09:14.476Z,,,,,,,,,,,,,,,,51,,,,,,,,,,,,,,512.0930000101798,,response,,,,13,A,,,,,,Space,keypress(Space),,,,silence,,,,-------- -------- --- --- ---- --- --- ------ -- --------<br>---- --------- --- ------- ------------ ---------- ---------<br>--- ---------- ------- ---------- ------- -- -------- ----<br>---- the ------ ----- ------ -- ---- --- ----- -- - -------<br>-------- -- --- --- -- ----- ----------- ----- -----------<br>---- --- ---------- --- ---- --- -- ----------,313860.86000001524,313859.8350000102,313331.046,313336.7599999765,313347.742,313863.749,,26,the
screen,html.Screen,1_3_1_0_1_27,2021-04-11T13:09:15.182Z,,,,,,,,,,,,,,,,51,,,,,,,,,,,,,,701.375999964599,,response,,,,13,A,,,,,,Space,keypress(Space),,,,silence,,,,-------- -------- --- --- ---- --- --- ------ -- --------<br>---- --------- --- ------- ------------ ---------- ---------<br>--- ---------- ------- ---------- ------- -- -------- ----<br>---- --- Senate ----- ------ -- ---- --- ----- -- - -------<br>-------- -- --- --- -- ----- ----------- ----- -----------<br>---- --- ---------- --- ---- --- -- ----------,314566.1449999898,314565.1249999646,313847.351,313861.18000000715,313863.749,314580.112,,27,Senate
screen,html.Screen,1_3_1_0_1_28,2021-04-11T13:09:15.823Z,,,,,,,,,,,,,,,,51,,,,,,,,,,,,,,626.1929999996792,,response,,,,13,A,,,,,,Space,keypress(Space),,,,silence,,,,-------- -------- --- --- ---- --- --- ------ -- --------<br>---- --------- --- ------- ------------ ---------- ---------<br>--- ---------- ------- ---------- ------- -- -------- ----<br>---- --- ------ seems ------ -- ---- --- ----- -- - -------<br>-------- -- --- --- -- ----- ----------- ----- -----------<br>---- --- ---------- --- ---- --- -- ----------,315207.36000000034,315206.3049999997,314563.41,314566.4000000106,314580.112,315212.615,,28,seems
screen,html.Screen,1_3_1_0_1_29,2021-04-11T13:09:16.695Z,,,,,,,,,,,,,,,,51,,,,,,,,,,,,,,865.7299999871757,,response,,,,13,A,,,,,,Space,keypress(Space),,,,silence,,,,-------- -------- --- --- ---- --- --- ------ -- --------<br>---- --------- --- ------- ------------ ---------- ---------<br>--- ---------- ------- ---------- ------- -- -------- ----<br>---- --- ------ ----- poised -- ---- --- ----- -- - -------<br>-------- -- --- --- -- ----- ----------- ----- -----------<br>---- --- ---------- --- ---- --- -- ----------,316079.4649999589,316078.34499998717,315196.226,315207.59999996517,315212.615,316095.583,,29,poised
screen,html.Screen,1_3_1_0_1_30,2021-04-11T13:09:17.203Z,,,,,,,,,,,,,,,,51,,,,,,,,,,,,,,491.4669999728212,,response,,,,13,A,,,,,,Space,keypress(Space),,,,silence,,,,-------- -------- --- --- ---- --- --- ------ -- --------<br>---- --------- --- ------- ------------ ---------- ---------<br>--- ---------- ------- ---------- ------- -- -------- ----<br>---- --- ------ ----- ------ to ---- --- ----- -- - -------<br>-------- -- --- --- -- ----- ----------- ----- -----------<br>---- --- ---------- --- ---- --- -- ----------,316588.0999999936,316587.0499999728,316078.811,316079.74499999546,316095.583,316594.875,,30,to
screen,html.Screen,1_3_1_0_1_31,2021-04-11T13:09:17.891Z,,,,,,,,,,,,,,,,51,,,,,,,,,,,,,,679.8700000024401,,response,,,,13,A,,,,,,Space,keypress(Space),,,,silence,,,,-------- -------- --- --- ---- --- --- ------ -- --------<br>---- --------- --- ------- ------------ ---------- ---------<br>--- ---------- ------- ---------- ------- -- -------- ----<br>---- --- ------ ----- ------ -- join --- ----- -- - -------<br>-------- -- --- --- -- ----- ----------- ----- -----------<br>---- --- ---------- --- ---- --- -- ----------,317275.83499997854,317274.74500000244,316578.409,316588.4300000034,316594.875,317298.635,,31,join
screen,html.Screen,1_3_1_0_1_32,2021-04-11T13:09:18.517Z,,,,,,,,,,,,,,,,51,,,,,,,,,,,,,,602.1350000074599,,response,,,,13,A,,,,,,Space,keypress(Space),,,,silence,,,,-------- -------- --- --- ---- --- --- ------ -- --------<br>---- --------- --- ------- ------------ ---------- ---------<br>--- ---------- ------- ---------- ------- -- -------- ----<br>---- --- ------ ----- ------ -- ---- the ----- -- - -------<br>-------- -- --- --- -- ----- ----------- ----- -----------<br>---- --- ---------- --- ---- --- -- ----------,317901.7749999766,317900.77000000747,317260.922,317276.1349999928,317298.635,317910.645,,32,the
screen,html.Screen,1_3_1_0_1_33,2021-04-11T13:09:19.325Z,,,,,,,,,,,,,,,,51,,,,,,,,,,,,,,797.8949999632314,,response,,,,13,A,,,,,,Space,keypress(Space),,,,silence,,,,-------- -------- --- --- ---- --- --- ------ -- --------<br>---- --------- --- ------- ------------ ---------- ---------<br>--- ---------- ------- ---------- ------- -- -------- ----<br>---- --- ------ ----- ------ -- ---- --- House -- - -------<br>-------- -- --- --- -- ----- ----------- ----- -----------<br>---- --- ---------- --- ---- --- -- ----------,318709.6199999796,318708.53999996325,317894.049,317902.01499999966,317910.645,318726.763,,33,House
screen,html.Screen,1_3_1_0_1_34,2021-04-11T13:09:19.843Z,,,,,,,,,,,,,,,,51,,,,,,,,,,,,,,500.0969999952358,,response,,,,13,A,,,,,,Space,keypress(Space),,,,silence,,,,-------- -------- --- --- ---- --- --- ------ -- --------<br>---- --------- --- ------- ------------ ---------- ---------<br>--- ---------- ------- ---------- ------- -- -------- ----<br>---- --- ------ ----- ------ -- ---- --- ----- in - -------<br>-------- -- --- --- -- ----- ----------- ----- -----------<br>---- --- ---------- --- ---- --- -- ----------,319228.0249999603,319226.8599999952,318709.777,318709.87999998033,318726.763,319242.988,,34,in
screen,html.Screen,1_3_1_0_1_35,2021-04-11T13:09:20.973Z,,,,,,,,,,,,,,,,51,,,,,,,,,,,,,,1113.5370000101393,,response,,,,13,A,,,,,,Space,keypress(Space),,,,silence,,,,-------- -------- --- --- ---- --- --- ------ -- --------<br>---- --------- --- ------- ------------ ---------- ---------<br>--- ---------- ------- ---------- ------- -- -------- ----<br>---- --- ------ ----- ------ -- ---- --- ----- -- a -------<br>-------- -- --- --- -- ----- ----------- ----- -----------<br>---- --- ---------- --- ---- --- -- ----------,320357.5899999705,320356.52500001015,319225.958,319228.28499996103,319242.988,320391.915,,35,a
screen,html.Screen,1_3_1_0_1_36,2021-04-11T13:09:21.953Z,,,,,,,,,,,,,,,,51,,,,,,,,,,,,,,944.5999999736086,,response,,,,13,A,,,,,,Space,keypress(Space),,,,silence,,,,-------- -------- --- --- ---- --- --- ------ -- --------<br>---- --------- --- ------- ------------ ---------- ---------<br>--- ---------- ------- ---------- ------- -- -------- ----<br>---- --- ------ ----- ------ -- ---- --- ----- -- - massive<br>-------- -- --- --- -- ----- ----------- ----- -----------<br>---- --- ---------- --- ---- --- -- ----------,321337.4799999874,321336.5149999736,320375.256,320357.84499999136,320391.915,321340.934,,36,massive
screen,html.Screen,1_3_1_0_1_37,2021-04-11T13:09:22.901Z,,,,,,,,,,,,,,,,51,,,,,,,,,,,,,,943.6309999799123,,response,,,,13,A,,,,,,Space,keypress(Space),,,,silence,,,,-------- -------- --- --- ---- --- --- ------ -- --------<br>---- --------- --- ------- ------------ ---------- ---------<br>--- ---------- ------- ---------- ------- -- -------- ----<br>---- --- ------ ----- ------ -- ---- --- ----- -- - -------<br>overhaul -- --- --- -- ----- ----------- ----- -----------<br>---- --- ---------- --- ---- --- -- ----------,322285.504999978,322284.5649999799,321324.484,321337.7149999724,321340.934,322290.201,,37,overhaul
