sender,sender_type,sender_id,timestamp,meta,,Blues,Classical,Country,Dance,Electronic,Folk,Gospel,Hip-Hop,Jazz,Latin,Musical/Film,New-age,Pop,Provo_ID,R&B,Rap,Reggae,Religious,Rock,Soul,Swing,Traditional,age,artist_name,correct,correctResponse,distraction,duration,education,ended_on,familiarity,gender,headphone_check_performance,item,list,music_frequency,offensiveness,pleasantness,position_correct,preference,response,response_action,snippet_file,song_name,song_rating,sound,stimulus_1,stimulus_2,stimulus_3,text,time_commit,time_end,time_render,time_run,time_show,time_switch,url,word,word_ID
Introduction,html.Screen,0_0,2021-04-23T09:43:31.218Z,"{""labjs_version"":""20.2.2"",""labjs_build"":{""flavor"":""production"",""commit"":""a25486e0c714a0ae2ce03ff94b7bb6896854dcfa""},""location"":""https://run.pavlovia.org/mvasilev/music_f/"",""userAgent"":""Mozilla/5.0 (Macintosh; Intel Mac OS X 10.15; rv:85.0) Gecko/20100101 Firefox/85.0"",""platform"":""MacIntel"",""language"":""en-GB"",""locale"":""en-GB"",""timeZone"":""Europe/London"",""timezoneOffset"":-60,""screen_width"":1440,""screen_height"":900,""scroll_width"":1440,""scroll_height"":778,""window_innerWidth"":1440,""window_innerHeight"":826,""devicePixelRatio"":2}",,,,,,,,,,,,,,,,,,,,,,,,,,,,,65312.3,,response,,,,,,,,,,,continue,click button,,,,,,,,,73019,73011,7681.3,7676,7698.7,73043.84,{},,
Volume calibration,html.Screen,0_1,2021-04-23T09:43:54.009Z,,,,,,,,,,,,,,,,,,,,,,,,,,,,,,22761.160000000003,,response,,,,,,,,,,,continue,click button,,,,,,,,,95811,95805,73026.68,73022,73043.84,95840.96,,,
Task instructions,html.Screen,0_2,2021-04-23T09:44:02.953Z,,,,,,,,,,,,,,,,,,,,,,,,,,,,,,8909.039999999994,,response,,,,,,,,,,,continue,click button,,,,,,,,,104755,104750,95823.78,95813,95840.96,104787.26,,,
Sounds,html.Screen,0_3_0_0,2021-04-23T09:44:07.219Z,,,,,,,,,,,,,,,,,,,,,,,,,,,,,,4248.919999999998,,timeout,,,,,,,,,2,,,,,,,,I,S,O,,109022,109019.7,104769.82,104756,104787.26,109036.18,,,
Judgement,html.Screen,0_3_0_1,2021-04-23T09:44:09.210Z,,,,,,,,,,,,,,,,,,,,,,,,,,,true,2,,1970.820000000007,,response,,,,,,,,,2,,2,click #choice-2,,,,,I,S,O,,111012,111007,109019.7,109023,109036.18,111027.3,,,
Trial,flow.Sequence,0_3_0,2021-04-23T09:44:09.211Z,,,,,,,,,,,,,,,,,,,,,,,,,,,,,,6219.740000000005,,completion,,,,,,,,,2,,,,,,,,I,S,O,,111013,111007,104769.82,104756,104787.26,111027.3,,,
Sounds,html.Screen,0_3_1_0,2021-04-23T09:44:13.460Z,,,,,,,,,,,,,,,,,,,,,,,,,,,,,,4250.440000000002,,timeout,,,,,,,,,1,,,,,,,,S,I,O,,115263,115260.88,111010.88,111016,111027.3,115277.74,,,
Judgement,html.Screen,0_3_1_1,2021-04-23T09:44:15.184Z,,,,,,,,,,,,,,,,,,,,,,,,,,,true,1,,1704.2599999999948,,response,,,,,,,,,1,,1,click #choice-1,,,,,S,I,O,,116987,116982,115260.88,115264,115277.74,117018.5,,,
Trial,flow.Sequence,0_3_1,2021-04-23T09:44:15.184Z,,,,,,,,,,,,,,,,,,,,,,,,,,,,,,5954.699999999997,,completion,,,,,,,,,1,,,,,,,,S,I,O,,116988,116982,111010.88,111015,111027.3,117018.5,,,
Sounds,html.Screen,0_3_2_0,2021-04-23T09:44:19.453Z,,,,,,,,,,,,,,,,,,,,,,,,,,,,,,4249.5,,timeout,,,,,,,,,2,,,,,,,,O,S,I,,121257,121252.34,117001.86,116989,117018.5,121268,,,
Judgement,html.Screen,0_3_2_1,2021-04-23T09:44:20.528Z,,,,,,,,,,,,,,,,,,,,,,,,,,,true,2,,1057,,response,,,,,,,,,2,,2,click #choice-2,,,,,O,S,I,,122331,122325,121252.34,121257,121268,122359.38,,,
Trial,flow.Sequence,0_3_2,2021-04-23T09:44:20.530Z,,,,,,,,,,,,,,,,,,,,,,,,,,,,,,5306.5,,completion,,,,,,,,,2,,,,,,,,O,S,I,,122334,122325,117001.86,116988,117018.5,122359.38,,,
Sounds,html.Screen,0_3_3_0,2021-04-23T09:44:24.791Z,,,,,,,,,,,,,,,,,,,,,,,,,,,,,,4249.759999999995,,timeout,,,,,,,,,3,,,,,,,,O,I,S,,126595,126592.9,122343.26,122335,122359.38,126609.14,,,
Judgement,html.Screen,0_3_3_1,2021-04-23T09:44:25.307Z,,,,,,,,,,,,,,,,,,,,,,,,,,,true,3,,496.8600000000006,,response,,,,,,,,,3,,3,click #choice-3,,,,,O,I,S,,127111,127106,126592.9,126596,126609.14,127126.42,,,
Trial,flow.Sequence,0_3_3,2021-04-23T09:44:25.309Z,,,,,,,,,,,,,,,,,,,,,,,,,,,,,,4746.619999999995,,completion,,,,,,,,,3,,,,,,,,O,I,S,,127112,127106,122343.26,122335,122359.38,127126.42,,,
Sounds,html.Screen,0_3_4_0,2021-04-23T09:44:29.560Z,,,,,,,,,,,,,,,,,,,,,,,,,,,,,,4250.919999999998,,timeout,,,,,,,,,3,,,,,,,,I,O,S,,131363,131360.72,127110.32,127113,127126.42,131377.34,,,
Judgement,html.Screen,0_3_4_1,2021-04-23T09:44:30.095Z,,,,,,,,,,,,,,,,,,,,,,,,,,,true,3,,515.6600000000035,,response,,,,,,,,,3,,3,click #choice-3,,,,,I,O,S,,131898,131893,131360.72,131364,131377.34,131921.7,,,
Trial,flow.Sequence,0_3_4,2021-04-23T09:44:30.095Z,,,,,,,,,,,,,,,,,,,,,,,,,,,,,,4766.580000000002,,completion,,,,,,,,,3,,,,,,,,I,O,S,,131899,131893,127110.32,127112,127126.42,131921.7,,,
Sounds,html.Screen,0_3_5_0,2021-04-23T09:44:34.351Z,,,,,,,,,,,,,,,,,,,,,,,,,,,,,,4248.239999999991,,timeout,,,,,,,,,1,,,,,,,,S,O,I,,136154,136152.36,131907.08,131900,131921.7,136169.94,,,
Judgement,html.Screen,0_3_5_1,2021-04-23T09:44:35.063Z,,,,,,,,,,,,,,,,,,,,,,,,,,,true,1,,691.0599999999977,,response,,,,,,,,,1,,1,click #choice-1,,,,,S,O,I,,136867,136861,136152.36,136156,136169.94,136883.58,,,
Trial,flow.Sequence,0_3_5,2021-04-23T09:44:35.064Z,,,,,,,,,,,,,,,,,,,,,,,,,,,,,,4939.299999999988,,completion,,,,,,,,,1,,,,,,,,S,O,I,,136868,136861,131907.08,131899,131921.7,136883.58,,,
Task,flow.Loop,0_3,2021-04-23T09:44:35.069Z,,,,,,,,,,,,,,,,,,,,,,,,,,,,,,32073.740000000005,,completion,,,1,,,,,,,,,,,,,,,,,,136873,136861,104769.82,104756,104787.26,136883.58,,,
Trap,html.Screen,0_4,2021-04-23T09:44:35.075Z,,,,,,,,,,,,,,,,,,,,,,,,,,,,,,NaN,,skipped,,,,,,,,,,,,,,,,,,,,,136878,136861,,136878,,136883.58,,,
Thanks,html.Screen,0_5,2021-04-23T09:44:40.503Z,,,,,,,,,,,,,,,,,,,,,,,,,,,,,,5418.420000000013,,response,,,,,,,,,,,continue,click button,,,,,,,,,142306,142302,136869.04,136878,136883.58,148515.58,,,
Headphone screening,flow.Sequence,0,2021-04-23T09:44:40.504Z,,,,,,,,,,,,,,,,,,,,,,,,,,,,,,134603.3,,completion,,,,,,,,,,,,,,,,,,,,,142307,142302,7681.3,7676,7698.7,148515.58,,,
Instructions,html.Page,1_0,2021-04-23T09:45:05.455Z,,,,,,,,,,,,,,,,,,,,,,,,,,,,,,18742.420000000013,,form submission,,,,,,,,,,,,,,,,,,,,,167258,167258,148498.78,148501,148515.58,167268.38,,,
Holding screen,html.Screen,1_1_0_0,2021-04-23T09:45:15.441Z,,,,,,,,,,,,,,,,,,,,,,,,,,,,,,9991.899999999994,,timeout,,,,,,,,,,,,,,,,,,,,,177247,177244.68,167252.32,167259,167268.38,177260.28,,,
screen,html.Screen,1_1_0_1_0,2021-04-23T09:45:16.333Z,,,,,,,,,,,,,,,,53,,,,,,,,,,,,,,864.7200000000012,,response,,,,99,,,,,,,Space,keypress(Space),,,,,,,,When -- ----- -- ------ - ------- --- ----------<br>------------- ------ ------ ---- ---- ------- ----- -- ----<br>-------- ------- -- ---------- --- - --- ----- ----- ----<br>---- --- --- ----- --- ---- ---- ------- ----- ---- -------<br>--- --- -- ----- -- --- ---- -- --- ---- -- ------ ------<br>--- ----- -- ----,178138,178125,177244.68,177247,177260.28,178160.42,,0,When
screen,html.Screen,1_1_0_1_1,2021-04-23T09:45:16.810Z,,,,,,,,,,,,,,,,53,,,,,,,,,,,,,,446.5799999999872,,response,,,,99,,,,,,,Space,keypress(Space),,,,,,,,---- it ----- -- ------ - ------- --- ----------<br>------------- ------ ------ ---- ---- ------- ----- -- ----<br>-------- ------- -- ---------- --- - --- ----- ----- ----<br>---- --- --- ----- --- ---- ---- ------- ----- ---- -------<br>--- --- -- ----- -- --- ---- -- --- ---- -- ------ ------<br>--- ----- -- ----,178615,178607,178144.64,178138,178160.42,178644.6,,1,it
screen,html.Screen,1_1_0_1_2,2021-04-23T09:45:17.648Z,,,,,,,,,,,,,,,,53,,,,,,,,,,,,,,799.3999999999942,,response,,,,99,,,,,,,Space,keypress(Space),,,,,,,,---- -- comes -- ------ - ------- --- ----------<br>------------- ------ ------ ---- ---- ------- ----- -- ----<br>-------- ------- -- ---------- --- - --- ----- ----- ----<br>---- --- --- ----- --- ---- ---- ------- ----- ---- -------<br>--- --- -- ----- -- --- ---- -- --- ---- -- ------ ------<br>--- ----- -- ----,179452,179444,178627.94,178615,178644.6,179477.92,,2,comes
screen,html.Screen,1_1_0_1_3,2021-04-23T09:45:18.199Z,,,,,,,,,,,,,,,,53,,,,,,,,,,,,,,519.0799999999872,,response,,,,99,,,,,,,Space,keypress(Space),,,,,,,,---- -- ----- to ------ - ------- --- ----------<br>------------- ------ ------ ---- ---- ------- ----- -- ----<br>-------- ------- -- ---------- --- - --- ----- ----- ----<br>---- --- --- ----- --- ---- ---- ------- ----- ---- -------<br>--- --- -- ----- -- --- ---- -- --- ---- -- ------ ------<br>--- ----- -- ----,180003,179997,179460.24,179453,179477.92,180027.9,,3,to
screen,html.Screen,1_1_0_1_4,2021-04-23T09:45:18.770Z,,,,,,,,,,,,,,,,53,,,,,,,,,,,,,,541.1000000000058,,response,,,,99,,,,,,,Space,keypress(Space),,,,,,,,---- -- ----- -- having - ------- --- ----------<br>------------- ------ ------ ---- ---- ------- ----- -- ----<br>-------- ------- -- ---------- --- - --- ----- ----- ----<br>---- --- --- ----- --- ---- ---- ------- ----- ---- -------<br>--- --- -- ----- -- --- ---- -- --- ---- -- ------ ------<br>--- ----- -- ----,180574,180569,180010.94,180004,180027.9,180594.28,,4,having
screen,html.Screen,1_1_0_1_5,2021-04-23T09:45:19.285Z,,,,,,,,,,,,,,,,53,,,,,,,,,,,,,,487.72000000000116,,response,,,,99,,,,,,,Space,keypress(Space),,,,,,,,---- -- ----- -- ------ a ------- --- ----------<br>------------- ------ ------ ---- ---- ------- ----- -- ----<br>-------- ------- -- ---------- --- - --- ----- ----- ----<br>---- --- --- ----- --- ---- ---- ------- ----- ---- -------<br>--- --- -- ----- -- --- ---- -- --- ---- -- ------ ------<br>--- ----- -- ----,181090,181082,180576.96,180575,180594.28,181117.64,,5,a
screen,html.Screen,1_1_0_1_6,2021-04-23T09:45:19.921Z,,,,,,,,,,,,,,,,53,,,,,,,,,,,,,,600.359999999986,,response,,,,99,,,,,,,Space,keypress(Space),,,,,,,,---- -- ----- -- ------ - lasting --- ----------<br>------------- ------ ------ ---- ---- ------- ----- -- ----<br>-------- ------- -- ---------- --- - --- ----- ----- ----<br>---- --- --- ----- --- ---- ---- ------- ----- ---- -------<br>--- --- -- ----- -- --- ---- -- --- ---- -- ------ ------<br>--- ----- -- ----,181725,181718,181100.3,181090,181117.64,181750.28,,6,lasting
screen,html.Screen,1_1_0_1_7,2021-04-23T09:45:20.592Z,,,,,,,,,,,,,,,,53,,,,,,,,,,,,,,638.7200000000012,,response,,,,99,,,,,,,Space,keypress(Space),,,,,,,,---- -- ----- -- ------ - ------- and ----------<br>------------- ------ ------ ---- ---- ------- ----- -- ----<br>-------- ------- -- ---------- --- - --- ----- ----- ----<br>---- --- --- ----- --- ---- ---- ------- ----- ---- -------<br>--- --- -- ----- -- --- ---- -- --- ---- -- ------ ------<br>--- ----- -- ----,182397,182389,181733.34,181726,181750.28,182416.64,,7,and
screen,html.Screen,1_1_0_1_8,2021-04-23T09:45:21.365Z,,,,,,,,,,,,,,,,53,,,,,,,,,,,,,,745.359999999986,,response,,,,99,,,,,,,Space,keypress(Space),,,,,,,,---- -- ----- -- ------ - ------- --- fulfilling<br>------------- ------ ------ ---- ---- ------- ----- -- ----<br>-------- ------- -- ---------- --- - --- ----- ----- ----<br>---- --- --- ----- --- ---- ---- ------- ----- ---- -------<br>--- --- -- ----- -- --- ---- -- --- ---- -- ------ ------<br>--- ----- -- ----,183170,183162,182400.92,182397,182416.64,183200.4,,8,fulfilling
screen,html.Screen,1_1_0_1_9,2021-04-23T09:45:22.007Z,,,,,,,,,,,,,,,,53,,,,,,,,,,,,,,604.6000000000058,,response,,,,99,,,,,,,Space,keypress(Space),,,,,,,,"---- -- ----- -- ------ - ------- --- ----------<br>relationship, ------ ------ ---- ---- ------- ----- -- ----<br>-------- ------- -- ---------- --- - --- ----- ----- ----<br>---- --- --- ----- --- ---- ---- ------- ----- ---- -------<br>--- --- -- ----- -- --- ---- -- --- ---- -- ------ ------<br>--- ----- -- ----",183812,183805,183183.22,183170,183200.4,183833.3,,9,"relationship,"
screen,html.Screen,1_1_0_1_10,2021-04-23T09:45:22.738Z,,,,,,,,,,,,,,,,53,,,,,,,,,,,,,,700.7000000000116,,response,,,,99,,,,,,,Space,keypress(Space),,,,,,,,---- -- ----- -- ------ - ------- --- ----------<br>------------- common ------ ---- ---- ------- ----- -- ----<br>-------- ------- -- ---------- --- - --- ----- ----- ----<br>---- --- --- ----- --- ---- ---- ------- ----- ---- -------<br>--- --- -- ----- -- --- ---- -- --- ---- -- ------ ------<br>--- ----- -- ----,184543,184534,183817.14,183813,183833.3,184566.44,,10,common
screen,html.Screen,1_1_0_1_11,2021-04-23T09:45:23.289Z,,,,,,,,,,,,,,,,53,,,,,,,,,,,,,,523.5599999999977,,response,,,,99,,,,,,,Space,keypress(Space),,,,,,,,---- -- ----- -- ------ - ------- --- ----------<br>------------- ------ wisdom ---- ---- ------- ----- -- ----<br>-------- ------- -- ---------- --- - --- ----- ----- ----<br>---- --- --- ----- --- ---- ---- ------- ----- ---- -------<br>--- --- -- ----- -- --- ---- -- --- ---- -- ------ ------<br>--- ----- -- ----,185094,185090,184550.9,184544,184566.44,185117.44,,11,wisdom
screen,html.Screen,1_1_0_1_12,2021-04-23T09:45:23.879Z,,,,,,,,,,,,,,,,53,,,,,,,,,,,,,,558.5599999999977,,response,,,,99,,,,,,,Space,keypress(Space),,,,,,,,---- -- ----- -- ------ - ------- --- ----------<br>------------- ------ ------ says ---- ------- ----- -- ----<br>-------- ------- -- ---------- --- - --- ----- ----- ----<br>---- --- --- ----- --- ---- ---- ------- ----- ---- -------<br>--- --- -- ----- -- --- ---- -- --- ---- -- ------ ------<br>--- ----- -- ----,185684,185676,185100.22,185095,185117.44,185717.38,,12,says
screen,html.Screen,1_1_0_1_13,2021-04-23T09:45:24.466Z,,,,,,,,,,,,,,,,53,,,,,,,,,,,,,,538.6199999999953,,response,,,,99,,,,,,,Space,keypress(Space),,,,,,,,---- -- ----- -- ------ - ------- --- ----------<br>------------- ------ ------ ---- that ------- ----- -- ----<br>-------- ------- -- ---------- --- - --- ----- ----- ----<br>---- --- --- ----- --- ---- ---- ------- ----- ---- -------<br>--- --- -- ----- -- --- ---- -- --- ---- -- ------ ------<br>--- ----- -- ----,186271,186256,185700.22,185685,185717.38,186289.66,,13,that
screen,html.Screen,1_1_0_1_14,2021-04-23T09:45:25.002Z,,,,,,,,,,,,,,,,53,,,,,,,,,,,,,,508.3399999999965,,response,,,,99,,,,,,,Space,keypress(Space),,,,,,,,---- -- ----- -- ------ - ------- --- ----------<br>------------- ------ ------ ---- ---- feeling ----- -- ----<br>-------- ------- -- ---------- --- - --- ----- ----- ----<br>---- --- --- ----- --- ---- ---- ------- ----- ---- -------<br>--- --- -- ----- -- --- ---- -- --- ---- -- ------ ------<br>--- ----- -- ----,186808,186798,186272.1,186271,186289.66,186838.76,,14,feeling
screen,html.Screen,1_1_0_1_15,2021-04-23T09:45:25.704Z,,,,,,,,,,,,,,,,53,,,,,,,,,,,,,,663.2399999999907,,response,,,,99,,,,,,,Space,keypress(Space),,,,,,,,---- -- ----- -- ------ - ------- --- ----------<br>------------- ------ ------ ---- ---- ------- close -- ----<br>-------- ------- -- ---------- --- - --- ----- ----- ----<br>---- --- --- ----- --- ---- ---- ------- ----- ---- -------<br>--- --- -- ----- -- --- ---- -- --- ---- -- ------ ------<br>--- ----- -- ----,187509,187502,186823.14,186808,186838.76,187539.62,,15,close
screen,html.Screen,1_1_0_1_16,2021-04-23T09:45:26.089Z,,,,,,,,,,,,,,,,53,,,,,,,,,,,,,,346.38000000000466,,response,,,,99,,,,,,,Space,keypress(Space),,,,,,,,---- -- ----- -- ------ - ------- --- ----------<br>------------- ------ ------ ---- ---- ------- ----- to ----<br>-------- ------- -- ---------- --- - --- ----- ----- ----<br>---- --- --- ----- --- ---- ---- ------- ----- ---- -------<br>--- --- -- ----- -- --- ---- -- --- ---- -- ------ ------<br>--- ----- -- ----,187894,187886,187522.76,187510,187539.62,187922.88,,16,to
screen,html.Screen,1_1_0_1_17,2021-04-23T09:45:26.506Z,,,,,,,,,,,,,,,,53,,,,,,,,,,,,,,379.11999999999534,,response,,,,99,,,,,,,Space,keypress(Space),,,,,,,,---- -- ----- -- ------ - ------- --- ----------<br>------------- ------ ------ ---- ---- ------- ----- -- your<br>-------- ------- -- ---------- --- - --- ----- ----- ----<br>---- --- --- ----- --- ---- ---- ------- ----- ---- -------<br>--- --- -- ----- -- --- ---- -- --- ---- -- ------ ------<br>--- ----- -- ----,188311,188302,187905.58,187894,187922.88,188339.18,,17,your
screen,html.Screen,1_1_0_1_18,2021-04-23T09:45:26.964Z,,,,,,,,,,,,,,,,53,,,,,,,,,,,,,,421.820000000007,,response,,,,99,,,,,,,Space,keypress(Space),,,,,,,,---- -- ----- -- ------ - ------- --- ----------<br>------------- ------ ------ ---- ---- ------- ----- -- ----<br>romantic ------- -- ---------- --- - --- ----- ----- ----<br>---- --- --- ----- --- ---- ---- ------- ----- ---- -------<br>--- --- -- ----- -- --- ---- -- --- ---- -- ------ ------<br>--- ----- -- ----,188769,188761,188322.96,188312,188339.18,188789.58,,18,romantic
screen,html.Screen,1_1_0_1_19,2021-04-23T09:45:27.593Z,,,,,,,,,,,,,,,,53,,,,,,,,,,,,,,599.4200000000128,,response,,,,99,,,,,,,Space,keypress(Space),,,,,,,,---- -- ----- -- ------ - ------- --- ----------<br>------------- ------ ------ ---- ---- ------- ----- -- ----<br>-------- partner -- ---------- --- - --- ----- ----- ----<br>---- --- --- ----- --- ---- ---- ------- ----- ---- -------<br>--- --- -- ----- -- --- ---- -- --- ---- -- ------ ------<br>--- ----- -- ----,189397,189389,188772.96,188770,188789.58,189422.9,,19,partner
screen,html.Screen,1_1_0_1_20,2021-04-23T09:45:28.029Z,,,,,,,,,,,,,,,,53,,,,,,,,,,,,,,404.1000000000058,,response,,,,99,,,,,,,Space,keypress(Space),,,,,,,,---- -- ----- -- ------ - ------- --- ----------<br>------------- ------ ------ ---- ---- ------- ----- -- ----<br>-------- ------- is ---------- --- - --- ----- ----- ----<br>---- --- --- ----- --- ---- ---- ------- ----- ---- -------<br>--- --- -- ----- -- --- ---- -- --- ---- -- ------ ------<br>--- ----- -- ----,189834,189827,189405.94,189397,189422.9,189856.22,,20,is
screen,html.Screen,1_1_0_1_21,2021-04-23T09:45:28.716Z,,,,,,,,,,,,,,,,53,,,,,,,,,,,,,,656.7799999999988,,response,,,,99,,,,,,,Space,keypress(Space),,,,,,,,---- -- ----- -- ------ - ------- --- ----------<br>------------- ------ ------ ---- ---- ------- ----- -- ----<br>-------- ------- -- paramount. --- - --- ----- ----- ----<br>---- --- --- ----- --- ---- ---- ------- ----- ---- -------<br>--- --- -- ----- -- --- ---- -- --- ---- -- ------ ------<br>--- ----- -- ----,190521,190513,189839.64,189835,189856.22,190555.46,,21,paramount.
screen,html.Screen,1_1_0_1_22,2021-04-23T09:45:29.318Z,,,,,,,,,,,,,,,,53,,,,,,,,,,,,,,559.5400000000081,,response,,,,99,,,,,,,Space,keypress(Space),,,,,,,,---- -- ----- -- ------ - ------- --- ----------<br>------------- ------ ------ ---- ---- ------- ----- -- ----<br>-------- ------- -- ---------- But - --- ----- ----- ----<br>---- --- --- ----- --- ---- ---- ------- ----- ---- -------<br>--- --- -- ----- -- --- ---- -- --- ---- -- ------ ------<br>--- ----- -- ----,191123,191115,190539.54,190522,190555.46,191155.68,,22,But
screen,html.Screen,1_1_0_1_23,2021-04-23T09:45:29.834Z,,,,,,,,,,,,,,,,53,,,,,,,,,,,,,,476.320000000007,,response,,,,99,,,,,,,Space,keypress(Space),,,,,,,,---- -- ----- -- ------ - ------- --- ----------<br>------------- ------ ------ ---- ---- ------- ----- -- ----<br>-------- ------- -- ---------- --- a --- ----- ----- ----<br>---- --- --- ----- --- ---- ---- ------- ----- ---- -------<br>--- --- -- ----- -- --- ---- -- --- ---- -- ------ ------<br>--- ----- -- ----,191639,191632,191139.56,191123,191155.68,191661.42,,23,a
screen,html.Screen,1_1_0_1_24,2021-04-23T09:45:30.250Z,,,,,,,,,,,,,,,,53,,,,,,,,,,,,,,384.5799999999872,,response,,,,99,,,,,,,Space,keypress(Space),,,,,,,,---- -- ----- -- ------ - ------- --- ----------<br>------------- ------ ------ ---- ---- ------- ----- -- ----<br>-------- ------- -- ---------- --- - new ----- ----- ----<br>---- --- --- ----- --- ---- ---- ------- ----- ---- -------<br>--- --- -- ----- -- --- ---- -- --- ---- -- ------ ------<br>--- ----- -- ----,192055,192046,191645.68,191640,191661.42,192078.96,,24,new
screen,html.Screen,1_1_0_1_25,2021-04-23T09:45:30.690Z,,,,,,,,,,,,,,,,53,,,,,,,,,,,,,,408.04000000000815,,response,,,,99,,,,,,,Space,keypress(Space),,,,,,,,---- -- ----- -- ------ - ------- --- ----------<br>------------- ------ ------ ---- ---- ------- ----- -- ----<br>-------- ------- -- ---------- --- - --- study ----- ----<br>---- --- --- ----- --- ---- ---- ------- ----- ---- -------<br>--- --- -- ----- -- --- ---- -- --- ---- -- ------ ------<br>--- ----- -- ----,192495,192487,192062.34,192055,192078.96,192529,,25,study
screen,html.Screen,1_1_0_1_26,2021-04-23T09:45:31.118Z,,,,,,,,,,,,,,,,53,,,,,,,,,,,,,,386,,response,,,,99,,,,,,,Space,keypress(Space),,,,,,,,---- -- ----- -- ------ - ------- --- ----------<br>------------- ------ ------ ---- ---- ------- ----- -- ----<br>-------- ------- -- ---------- --- - --- ----- finds ----<br>---- --- --- ----- --- ---- ---- ------- ----- ---- -------<br>--- --- -- ----- -- --- ---- -- --- ---- -- ------ ------<br>--- ----- -- ----,192923,192915,192512,192496,192529,192945.64,,26,finds
screen,html.Screen,1_1_0_1_27,2021-04-23T09:45:31.528Z,,,,,,,,,,,,,,,,53,,,,,,,,,,,,,,380.35999999998603,,response,,,,99,,,,,,,Space,keypress(Space),,,,,,,,---- -- ----- -- ------ - ------- --- ----------<br>------------- ------ ------ ---- ---- ------- ----- -- ----<br>-------- ------- -- ---------- --- - --- ----- ----- that<br>---- --- --- ----- --- ---- ---- ------- ----- ---- -------<br>--- --- -- ----- -- --- ---- -- --- ---- -- ------ ------<br>--- ----- -- ----,193333,193326,192928.94,192923,192945.64,193362.26,,27,that
screen,html.Screen,1_1_0_1_28,2021-04-23T09:45:31.954Z,,,,,,,,,,,,,,,,53,,,,,,,,,,,,,,390.7399999999907,,response,,,,99,,,,,,,Space,keypress(Space),,,,,,,,---- -- ----- -- ------ - ------- --- ----------<br>------------- ------ ------ ---- ---- ------- ----- -- ----<br>-------- ------- -- ---------- --- - --- ----- ----- ----<br>it's --- --- ----- --- ---- ---- ------- ----- ---- -------<br>--- --- -- ----- -- --- ---- -- --- ---- -- ------ ------<br>--- ----- -- ----,193760,193753,193345.18,193334,193362.26,193778.88,,28,it's
screen,html.Screen,1_1_0_1_29,2021-04-23T09:45:32.406Z,,,,,,,,,,,,,,,,53,,,,,,,,,,,,,,424.11999999999534,,response,,,,99,,,,,,,Space,keypress(Space),,,,,,,,---- -- ----- -- ------ - ------- --- ----------<br>------------- ------ ------ ---- ---- ------- ----- -- ----<br>-------- ------- -- ---------- --- - --- ----- ----- ----<br>---- not --- ----- --- ---- ---- ------- ----- ---- -------<br>--- --- -- ----- -- --- ---- -- --- ---- -- ------ ------<br>--- ----- -- ----,194211,194203,193761.34,193760,193778.88,194244.72,,29,not
screen,html.Screen,1_1_0_1_30,2021-04-23T09:45:32.812Z,,,,,,,,,,,,,,,,53,,,,,,,,,,,,,,364.27999999999884,,response,,,,99,,,,,,,Space,keypress(Space),,,,,,,,---- -- ----- -- ------ - ------- --- ----------<br>------------- ------ ------ ---- ---- ------- ----- -- ----<br>-------- ------- -- ---------- --- - --- ----- ----- ----<br>---- --- how ----- --- ---- ---- ------- ----- ---- -------<br>--- --- -- ----- -- --- ---- -- --- ---- -- ------ ------<br>--- ----- -- ----,194617,194609,194228.96,194212,194244.72,194645.56,,30,how
screen,html.Screen,1_1_0_1_31,2021-04-23T09:45:33.237Z,,,,,,,,,,,,,,,,53,,,,,,,,,,,,,,388.4400000000023,,response,,,,99,,,,,,,Space,keypress(Space),,,,,,,,---- -- ----- -- ------ - ------- --- ----------<br>------------- ------ ------ ---- ---- ------- ----- -- ----<br>-------- ------- -- ---------- --- - --- ----- ----- ----<br>---- --- --- close --- ---- ---- ------- ----- ---- -------<br>--- --- -- ----- -- --- ---- -- --- ---- -- ------ ------<br>--- ----- -- ----,195042,195034,194628.26,194618,194645.56,195062.22,,31,close
screen,html.Screen,1_1_0_1_32,2021-04-23T09:45:33.637Z,,,,,,,,,,,,,,,,53,,,,,,,,,,,,,,372.77999999999884,,response,,,,99,,,,,,,Space,keypress(Space),,,,,,,,---- -- ----- -- ------ - ------- --- ----------<br>------------- ------ ------ ---- ---- ------- ----- -- ----<br>-------- ------- -- ---------- --- - --- ----- ----- ----<br>---- --- --- ----- you ---- ---- ------- ----- ---- -------<br>--- --- -- ----- -- --- ---- -- --- ---- -- ------ ------<br>--- ----- -- ----,195443,195435,195045.58,195043,195062.22,195462.2,,32,you
screen,html.Screen,1_1_0_1_33,2021-04-23T09:45:34.021Z,,,,,,,,,,,,,,,,53,,,,,,,,,,,,,,355.79999999998836,,response,,,,99,,,,,,,Space,keypress(Space),,,,,,,,---- -- ----- -- ------ - ------- --- ----------<br>------------- ------ ------ ---- ---- ------- ----- -- ----<br>-------- ------- -- ---------- --- - --- ----- ----- ----<br>---- --- --- ----- --- feel ---- ------- ----- ---- -------<br>--- --- -- ----- -- --- ---- -- --- ---- -- ------ ------<br>--- ----- -- ----,195826,195818,195444.54,195444,195462.2,195845.52,,33,feel
screen,html.Screen,1_1_0_1_34,2021-04-23T09:45:34.439Z,,,,,,,,,,,,,,,,53,,,,,,,,,,,,,,391.4800000000105,,response,,,,99,,,,,,,Space,keypress(Space),,,,,,,,---- -- ----- -- ------ - ------- --- ----------<br>------------- ------ ------ ---- ---- ------- ----- -- ----<br>-------- ------- -- ---------- --- - --- ----- ----- ----<br>---- --- --- ----- --- ---- that ------- ----- ---- -------<br>--- --- -- ----- -- --- ---- -- --- ---- -- ------ ------<br>--- ----- -- ----,196245,196237,195828.34,195827,195845.52,196278.24,,34,that
screen,html.Screen,1_1_0_1_35,2021-04-23T09:45:34.843Z,,,,,,,,,,,,,,,,53,,,,,,,,,,,,,,361.7600000000093,,response,,,,99,,,,,,,Space,keypress(Space),,,,,,,,---- -- ----- -- ------ - ------- --- ----------<br>------------- ------ ------ ---- ---- ------- ----- -- ----<br>-------- ------- -- ---------- --- - --- ----- ----- ----<br>---- --- --- ----- --- ---- ---- matters ----- ---- -------<br>--- --- -- ----- -- --- ---- -- --- ---- -- ------ ------<br>--- ----- -- ----,196649,196640,196262.2,196245,196278.24,196668.02,,35,matters
screen,html.Screen,1_1_0_1_36,2021-04-23T09:45:35.249Z,,,,,,,,,,,,,,,,53,,,,,,,,,,,,,,377.9800000000105,,response,,,,99,,,,,,,Space,keypress(Space),,,,,,,,"---- -- ----- -- ------ - ------- --- ----------<br>------------- ------ ------ ---- ---- ------- ----- -- ----<br>-------- ------- -- ---------- --- - --- ----- ----- ----<br>---- --- --- ----- --- ---- ---- ------- most, ---- -------<br>--- --- -- ----- -- --- ---- -- --- ---- -- ------ ------<br>--- ----- -- ----",197054,197046,196650.42,196649,196668.02,197084.68,,36,"most,"
screen,html.Screen,1_1_0_1_37,2021-04-23T09:45:35.701Z,,,,,,,,,,,,,,,,53,,,,,,,,,,,,,,413.320000000007,,response,,,,99,,,,,,,Space,keypress(Space),,,,,,,,---- -- ----- -- ------ - ------- --- ----------<br>------------- ------ ------ ---- ---- ------- ----- -- ----<br>-------- ------- -- ---------- --- - --- ----- ----- ----<br>---- --- --- ----- --- ---- ---- ------- ----- it's -------<br>--- --- -- ----- -- --- ---- -- --- ---- -- ------ ------<br>--- ----- -- ----,197506,197498,197067.62,197054,197084.68,197534.66,,37,it's
screen,html.Screen,1_1_0_1_38,2021-04-23T09:45:36.107Z,,,,,,,,,,,,,,,,53,,,,,,,,,,,,,,369.3399999999965,,response,,,,99,,,,,,,Space,keypress(Space),,,,,,,,---- -- ----- -- ------ - ------- --- ----------<br>------------- ------ ------ ---- ---- ------- ----- -- ----<br>-------- ------- -- ---------- --- - --- ----- ----- ----<br>---- --- --- ----- --- ---- ---- ------- ----- ---- whether<br>--- --- -- ----- -- --- ---- -- --- ---- -- ------ ------<br>--- ----- -- ----,197912,197904,197517.96,197506,197534.66,197933.6,,38,whether
screen,html.Screen,1_1_0_1_39,2021-04-23T09:45:36.550Z,,,,,,,,,,,,,,,,53,,,,,,,,,,,,,,413.3999999999942,,response,,,,99,,,,,,,Space,keypress(Space),,,,,,,,---- -- ----- -- ------ - ------- --- ----------<br>------------- ------ ------ ---- ---- ------- ----- -- ----<br>-------- ------- -- ---------- --- - --- ----- ----- ----<br>---- --- --- ----- --- ---- ---- ------- ----- ---- -------<br>you --- -- ----- -- --- ---- -- --- ---- -- ------ ------<br>--- ----- -- ----,198355,198347,197918.02,197912,197933.6,198384.64,,39,you
screen,html.Screen,1_1_0_1_40,2021-04-23T09:45:36.935Z,,,,,,,,,,,,,,,,53,,,,,,,,,,,,,,348.35999999998603,,response,,,,99,,,,,,,Space,keypress(Space),,,,,,,,---- -- ----- -- ------ - ------- --- ----------<br>------------- ------ ------ ---- ---- ------- ----- -- ----<br>-------- ------- -- ---------- --- - --- ----- ----- ----<br>---- --- --- ----- --- ---- ---- ------- ----- ---- -------<br>--- are -- ----- -- --- ---- -- --- ---- -- ------ ------<br>--- ----- -- ----,198741,198733,198367.1,198356,198384.64,198767.94,,40,are
screen,html.Screen,1_1_0_1_41,2021-04-23T09:45:37.318Z,,,,,,,,,,,,,,,,53,,,,,,,,,,,,,,348.0599999999977,,response,,,,99,,,,,,,Space,keypress(Space),,,,,,,,---- -- ----- -- ------ - ------- --- ----------<br>------------- ------ ------ ---- ---- ------- ----- -- ----<br>-------- ------- -- ---------- --- - --- ----- ----- ----<br>---- --- --- ----- --- ---- ---- ------- ----- ---- -------<br>--- --- as ----- -- --- ---- -- --- ---- -- ------ ------<br>--- ----- -- ----,199122,199116,198751.28,198741,198767.94,199151,,41,as
screen,html.Screen,1_1_0_1_42,2021-04-23T09:45:37.734Z,,,,,,,,,,,,,,,,53,,,,,,,,,,,,,,381,,response,,,,99,,,,,,,Space,keypress(Space),,,,,,,,---- -- ----- -- ------ - ------- --- ----------<br>------------- ------ ------ ---- ---- ------- ----- -- ----<br>-------- ------- -- ---------- --- - --- ----- ----- ----<br>---- --- --- ----- --- ---- ---- ------- ----- ---- -------<br>--- --- -- close -- --- ---- -- --- ---- -- ------ ------<br>--- ----- -- ----,199540,199532,199134.64,199123,199151,199567.94,,42,close
screen,html.Screen,1_1_0_1_43,2021-04-23T09:45:38.128Z,,,,,,,,,,,,,,,,53,,,,,,,,,,,,,,358.0599999999977,,response,,,,99,,,,,,,Space,keypress(Space),,,,,,,,---- -- ----- -- ------ - ------- --- ----------<br>------------- ------ ------ ---- ---- ------- ----- -- ----<br>-------- ------- -- ---------- --- - --- ----- ----- ----<br>---- --- --- ----- --- ---- ---- ------- ----- ---- -------<br>--- --- -- ----- as --- ---- -- --- ---- -- ------ ------<br>--- ----- -- ----,199934,199926,199551.28,199540,199567.94,199967.92,,43,as
screen,html.Screen,1_1_0_1_44,2021-04-23T09:45:38.515Z,,,,,,,,,,,,,,,,53,,,,,,,,,,,,,,345.0799999999872,,response,,,,99,,,,,,,Space,keypress(Space),,,,,,,,---- -- ----- -- ------ - ------- --- ----------<br>------------- ------ ------ ---- ---- ------- ----- -- ----<br>-------- ------- -- ---------- --- - --- ----- ----- ----<br>---- --- --- ----- --- ---- ---- ------- ----- ---- -------<br>--- --- -- ----- -- you ---- -- --- ---- -- ------ ------<br>--- ----- -- ----,200320,200313,199951.28,199934,199967.92,200351.26,,44,you
screen,html.Screen,1_1_0_1_45,2021-04-23T09:45:38.927Z,,,,,,,,,,,,,,,,53,,,,,,,,,,,,,,372.7399999999907,,response,,,,99,,,,,,,Space,keypress(Space),,,,,,,,---- -- ----- -- ------ - ------- --- ----------<br>------------- ------ ------ ---- ---- ------- ----- -- ----<br>-------- ------- -- ---------- --- - --- ----- ----- ----<br>---- --- --- ----- --- ---- ---- ------- ----- ---- -------<br>--- --- -- ----- -- --- want -- --- ---- -- ------ ------<br>--- ----- -- ----,200732,200724,200334.08,200321,200351.26,200750.88,,45,want
screen,html.Screen,1_1_0_1_46,2021-04-23T09:45:39.324Z,,,,,,,,,,,,,,,,53,,,,,,,,,,,,,,370.11999999999534,,response,,,,99,,,,,,,Space,keypress(Space),,,,,,,,---- -- ----- -- ------ - ------- --- ----------<br>------------- ------ ------ ---- ---- ------- ----- -- ----<br>-------- ------- -- ---------- --- - --- ----- ----- ----<br>---- --- --- ----- --- ---- ---- ------- ----- ---- -------<br>--- --- -- ----- -- --- ---- to --- ---- -- ------ ------<br>--- ----- -- ----,201129,201121,200733.9,200732,200750.88,201151.22,,46,to
screen,html.Screen,1_1_0_1_47,2021-04-23T09:45:39.736Z,,,,,,,,,,,,,,,,53,,,,,,,,,,,,,,382.77999999999884,,response,,,,99,,,,,,,Space,keypress(Space),,,,,,,,"---- -- ----- -- ------ - ------- --- ----------<br>------------- ------ ------ ---- ---- ------- ----- -- ----<br>-------- ------- -- ---------- --- - --- ----- ----- ----<br>---- --- --- ----- --- ---- ---- ------- ----- ---- -------<br>--- --- -- ----- -- --- ---- -- be, ---- -- ------ ------<br>--- ----- -- ----",201541,201534,201134.62,201129,201151.22,201567.88,,47,"be,"
screen,html.Screen,1_1_0_1_48,2021-04-23T09:45:40.139Z,,,,,,,,,,,,,,,,53,,,,,,,,,,,,,,367.11999999999534,,response,,,,99,,,,,,,Space,keypress(Space),,,,,,,,---- -- ----- -- ------ - ------- --- ----------<br>------------- ------ ------ ---- ---- ------- ----- -- ----<br>-------- ------- -- ---------- --- - --- ----- ----- ----<br>---- --- --- ----- --- ---- ---- ------- ----- ---- -------<br>--- --- -- ----- -- --- ---- -- --- even -- ------ ------<br>--- ----- -- ----,201944,201935,201551.24,201542,201567.88,201974.68,,48,even
screen,html.Screen,1_1_0_1_49,2021-04-23T09:45:40.521Z,,,,,,,,,,,,,,,,53,,,,,,,,,,,,,,343.320000000007,,response,,,,99,,,,,,,Space,keypress(Space),,,,,,,,---- -- ----- -- ------ - ------- --- ----------<br>------------- ------ ------ ---- ---- ------- ----- -- ----<br>-------- ------- -- ---------- --- - --- ----- ----- ----<br>---- --- --- ----- --- ---- ---- ------- ----- ---- -------<br>--- --- -- ----- -- --- ---- -- --- ---- if ------ ------<br>--- ----- -- ----,202326,202318,201959.02,201945,201974.68,202358.32,,49,if
screen,html.Screen,1_1_0_1_50,2021-04-23T09:45:40.897Z,,,,,,,,,,,,,,,,53,,,,,,,,,,,,,,337.679999999993,,response,,,,99,,,,,,,Space,keypress(Space),,,,,,,,---- -- ----- -- ------ - ------- --- ----------<br>------------- ------ ------ ---- ---- ------- ----- -- ----<br>-------- ------- -- ---------- --- - --- ----- ----- ----<br>---- --- --- ----- --- ---- ---- ------- ----- ---- -------<br>--- --- -- ----- -- --- ---- -- --- ---- -- that's ------<br>--- ----- -- ----,202703,202696,202342.34,202328,202358.32,202725.68,,50,that's
screen,html.Screen,1_1_0_1_51,2021-04-23T09:45:41.281Z,,,,,,,,,,,,,,,,53,,,,,,,,,,,,,,353.320000000007,,response,,,,99,,,,,,,Space,keypress(Space),,,,,,,,---- -- ----- -- ------ - ------- --- ----------<br>------------- ------ ------ ---- ---- ------- ----- -- ----<br>-------- ------- -- ---------- --- - --- ----- ----- ----<br>---- --- --- ----- --- ---- ---- ------- ----- ---- -------<br>--- --- -- ----- -- --- ---- -- --- ---- -- ------ really<br>--- ----- -- ----,203086,203079,202708.96,202704,202725.68,203108.92,,51,really
screen,html.Screen,1_1_0_1_52,2021-04-23T09:45:41.680Z,,,,,,,,,,,,,,,,53,,,,,,,,,,,,,,370.0799999999872,,response,,,,99,,,,,,,Space,keypress(Space),,,,,,,,---- -- ----- -- ------ - ------- --- ----------<br>------------- ------ ------ ---- ---- ------- ----- -- ----<br>-------- ------- -- ---------- --- - --- ----- ----- ----<br>---- --- --- ----- --- ---- ---- ------- ----- ---- -------<br>--- --- -- ----- -- --- ---- -- --- ---- -- ------ ------<br>not ----- -- ----,203486,203479,203092.26,203087,203108.92,203508.92,,52,not
screen,html.Screen,1_1_0_1_53,2021-04-23T09:45:42.023Z,,,,,,,,,,,,,,,,53,,,,,,,,,,,,,,311.0799999999872,,response,,,,99,,,,,,,Space,keypress(Space),,,,,,,,---- -- ----- -- ------ - ------- --- ----------<br>------------- ------ ------ ---- ---- ------- ----- -- ----<br>-------- ------- -- ---------- --- - --- ----- ----- ----<br>---- --- --- ----- --- ---- ---- ------- ----- ---- -------<br>--- --- -- ----- -- --- ---- -- --- ---- -- ------ ------<br>--- close -- ----,203828,203820,203492.26,203486,203508.92,203859.06,,53,close
screen,html.Screen,1_1_0_1_54,2021-04-23T09:45:42.398Z,,,,,,,,,,,,,,,,53,,,,,,,,,,,,,,336.9400000000023,,response,,,,99,,,,,,,Space,keypress(Space),,,,,,,,---- -- ----- -- ------ - ------- --- ----------<br>------------- ------ ------ ---- ---- ------- ----- -- ----<br>-------- ------- -- ---------- --- - --- ----- ----- ----<br>---- --- --- ----- --- ---- ---- ------- ----- ---- -------<br>--- --- -- ----- -- --- ---- -- --- ---- -- ------ ------<br>--- ----- at ----,204203,204196,203841.8,203829,203859.06,204225.22,,54,at
screen,html.Screen,1_1_0_1_55,2021-04-23T09:45:42.886Z,,,,,,,,,,,,,,,,53,,,,,,,,,,,,,,459.77999999999884,,response,,,,99,,,,,,,Space,keypress(Space),,,,,,,,---- -- ----- -- ------ - ------- --- ----------<br>------------- ------ ------ ---- ---- ------- ----- -- ----<br>-------- ------- -- ---------- --- - --- ----- ----- ----<br>---- --- --- ----- --- ---- ---- ------- ----- ---- -------<br>--- --- -- ----- -- --- ---- -- --- ---- -- ------ ------<br>--- ----- -- all.,204691,204685,204208.32,204205,204225.22,204725.56,,55,all.
Item 99,flow.Loop,1_1_0_1,2021-04-23T09:45:42.886Z,,,,,,,,,,,,,,,,,,,,,,,,,,,,,,27424.72,,completion,,,,,F,,,,,,,,,,,silence,,,,,204692,204685,177244.68,177247,177260.28,204725.56,,,
Question 1,html.Screen,1_1_0_2,2021-04-23T09:45:46.402Z,,,,,,,,,,,,,,,,,,,,,,,,,,,true,FALSE,,3476.4400000000023,,response,,,,99,F,,,,,,FALSE,click #choice-2,,,,silence,,,,,208207,208202,204708.28,204692,204725.56,208238.88,,,
Question 2,html.Screen,1_1_0_3,2021-04-23T09:45:53.055Z,,,,,,,,,,,,,,,,,,,,,,,,,,,true,TRUE,,6618.119999999995,,response,,,,99,F,,,,,,TRUE,click #choice-1,,,,silence,,,,,214861,214857,208222.8,208207,208238.88,214877.02,,,
Item 99,flow.Sequence,1_1_0,2021-04-23T09:45:53.056Z,,,,,,,,,,,,,,,,,,,,,,,,,,,,,,47588.619999999995,,completion,,,,,,,,,,,,,,,,,,,,,214861,214857,167252.32,167259,167268.38,214877.02,,,
Holding screen,html.Screen,1_1_1_0,2021-04-23T09:46:03.064Z,,,,,,,,,,,,,,,,,,,,,,,,,,,,,,10008.660000000003,,timeout,,,,,,,,,,,,,,,,,,,,,224870,224869.06,214859.56,214862,214877.02,224885.68,,,
screen,html.Screen,1_1_1_1_0,2021-04-23T09:46:03.754Z,,,,,,,,,,,,,,,,54,,,,,,,,,,,,,,664.320000000007,,response,,,,100,,,,,,,Space,keypress(Space),,,,,,,,At --- ---- --- ------ ----- ------- ---- -- --- ------- --<br>------- ---------- ------ -- ----- -- ----- -- ---- ------<br>--- ----- --- --- ------ -------- ----- --- ------ ----- --<br>----- ----- ---------- --- --- ------ ------ ---- -- ------<br>------- --- ------ ----- --- ---- ------- -- ---- --- --<br>------- ------,225561,225550,224869.06,224871,224885.68,225585.46,,0,At
screen,html.Screen,1_1_1_1_1,2021-04-23T09:46:04.086Z,,,,,,,,,,,,,,,,54,,,,,,,,,,,,,,297.54000000000815,,response,,,,100,,,,,,,Space,keypress(Space),,,,,,,,-- the ---- --- ------ ----- ------- ---- -- --- ------- --<br>------- ---------- ------ -- ----- -- ----- -- ---- ------<br>--- ----- --- --- ------ -------- ----- --- ------ ----- --<br>----- ----- ---------- --- --- ------ ------ ---- -- ------<br>------- --- ------ ----- --- ---- ------- -- ---- --- --<br>------- ------,225891,225883,225568.92,225561,225585.46,225918,,1,the
screen,html.Screen,1_1_1_1_2,2021-04-23T09:46:04.389Z,,,,,,,,,,,,,,,,54,,,,,,,,,,,,,,269,,response,,,,100,,,,,,,Space,keypress(Space),,,,,,,,-- --- time --- ------ ----- ------- ---- -- --- ------- --<br>------- ---------- ------ -- ----- -- ----- -- ---- ------<br>--- ----- --- --- ------ -------- ----- --- ------ ----- --<br>----- ----- ---------- --- --- ------ ------ ---- -- ------<br>------- --- ------ ----- --- ---- ------- -- ---- --- --<br>------- ------,226195,226187,225902.38,225892,225918,226218,,2,time
screen,html.Screen,1_1_1_1_3,2021-04-23T09:46:04.821Z,,,,,,,,,,,,,,,,54,,,,,,,,,,,,,,401,,response,,,,100,,,,,,,Space,keypress(Space),,,,,,,,-- --- ---- the ------ ----- ------- ---- -- --- ------- --<br>------- ---------- ------ -- ----- -- ----- -- ---- ------<br>--- ----- --- --- ------ -------- ----- --- ------ ----- --<br>----- ----- ---------- --- --- ------ ------ ---- -- ------<br>------- --- ------ ----- --- ---- ------- -- ---- --- --<br>------- ------,226627,226619,226201.48,226195,226218,226652.3,,3,the
screen,html.Screen,1_1_1_1_4,2021-04-23T09:46:05.204Z,,,,,,,,,,,,,,,,54,,,,,,,,,,,,,,348.70000000001164,,response,,,,100,,,,,,,Space,keypress(Space),,,,,,,,-- --- ---- --- French ----- ------- ---- -- --- ------- --<br>------- ---------- ------ -- ----- -- ----- -- ---- ------<br>--- ----- --- --- ------ -------- ----- --- ------ ----- --<br>----- ----- ---------- --- --- ------ ------ ---- -- ------<br>------- --- ------ ----- --- ---- ------- -- ---- --- --<br>------- ------,227011,227001,226635.64,226628,226652.3,227035.64,,4,French
screen,html.Screen,1_1_1_1_5,2021-04-23T09:46:05.582Z,,,,,,,,,,,,,,,,54,,,,,,,,,,,,,,343.35999999998603,,response,,,,100,,,,,,,Space,keypress(Space),,,,,,,,-- --- ---- --- ------ crown ------- ---- -- --- ------- --<br>------- ---------- ------ -- ----- -- ----- -- ---- ------<br>--- ----- --- --- ------ -------- ----- --- ------ ----- --<br>----- ----- ---------- --- --- ------ ------ ---- -- ------<br>------- --- ------ ----- --- ---- ------- -- ---- --- --<br>------- ------,227387,227379,227019.08,227011,227035.64,227417.98,,5,crown
screen,html.Screen,1_1_1_1_6,2021-04-23T09:46:06.168Z,,,,,,,,,,,,,,,,54,,,,,,,,,,,,,,547.0199999999895,,response,,,,100,,,,,,,Space,keypress(Space),,,,,,,,-- --- ---- --- ------ ----- secured ---- -- --- ------- --<br>------- ---------- ------ -- ----- -- ----- -- ---- ------<br>--- ----- --- --- ------ -------- ----- --- ------ ----- --<br>----- ----- ---------- --- --- ------ ------ ---- -- ------<br>------- --- ------ ----- --- ---- ------- -- ---- --- --<br>------- ------,227975,227965,227402.18,227388,227417.98,228001.28,,6,secured
screen,html.Screen,1_1_1_1_7,2021-04-23T09:46:06.639Z,,,,,,,,,,,,,,,,54,,,,,,,,,,,,,,437.72000000000116,,response,,,,100,,,,,,,Space,keypress(Space),,,,,,,,-- --- ---- --- ------ ----- ------- much -- --- ------- --<br>------- ---------- ------ -- ----- -- ----- -- ---- ------<br>--- ----- --- --- ------ -------- ----- --- ------ ----- --<br>----- ----- ---------- --- --- ------ ------ ---- -- ------<br>------- --- ------ ----- --- ---- ------- -- ---- --- --<br>------- ------,228445,228439,227985.62,227975,228001.28,228474.08,,7,much
screen,html.Screen,1_1_1_1_8,2021-04-23T09:46:07.053Z,,,,,,,,,,,,,,,,54,,,,,,,,,,,,,,377.9200000000128,,response,,,,100,,,,,,,Space,keypress(Space),,,,,,,,-- --- ---- --- ------ ----- ------- ---- of --- ------- --<br>------- ---------- ------ -- ----- -- ----- -- ---- ------<br>--- ----- --- --- ------ -------- ----- --- ------ ----- --<br>----- ----- ---------- --- --- ------ ------ ---- -- ------<br>------- --- ------ ----- --- ---- ------- -- ---- --- --<br>------- ------,228860,228852,228457.52,228446,228474.08,228890.78,,8,of
screen,html.Screen,1_1_1_1_9,2021-04-23T09:46:07.438Z,,,,,,,,,,,,,,,,54,,,,,,,,,,,,,,344.22000000000116,,response,,,,100,,,,,,,Space,keypress(Space),,,,,,,,-- --- ---- --- ------ ----- ------- ---- -- its ------- --<br>------- ---------- ------ -- ----- -- ----- -- ---- ------<br>--- ----- --- --- ------ -------- ----- --- ------ ----- --<br>----- ----- ---------- --- --- ------ ------ ---- -- ------<br>------- --- ------ ----- --- ---- ------- -- ---- --- --<br>------- ------,229244,229235,228873.94,228860,228890.78,229273.8,,9,its
screen,html.Screen,1_1_1_1_10,2021-04-23T09:46:07.797Z,,,,,,,,,,,,,,,,54,,,,,,,,,,,,,,321.20000000001164,,response,,,,100,,,,,,,Space,keypress(Space),,,,,,,,-- --- ---- --- ------ ----- ------- ---- -- --- revenue --<br>------- ---------- ------ -- ----- -- ----- -- ---- ------<br>--- ----- --- --- ------ -------- ----- --- ------ ----- --<br>----- ----- ---------- --- --- ------ ------ ---- -- ------<br>------- --- ------ ----- --- ---- ------- -- ---- --- --<br>------- ------,229603,229595,229257.42,229244,229273.8,229624.08,,10,revenue
screen,html.Screen,1_1_1_1_11,2021-04-23T09:46:08.635Z,,,,,,,,,,,,,,,,54,,,,,,,,,,,,,,808.9200000000128,,response,,,,100,,,,,,,Space,keypress(Space),,,,,,,,-- --- ---- --- ------ ----- ------- ---- -- --- ------- by<br>------- ---------- ------ -- ----- -- ----- -- ---- ------<br>--- ----- --- --- ------ -------- ----- --- ------ ----- --<br>----- ----- ---------- --- --- ------ ------ ---- -- ------<br>------- --- ------ ----- --- ---- ------- -- ---- --- --<br>------- ------,230441,230433,229606.86,229604,229624.08,230474.06,,11,by
screen,html.Screen,1_1_1_1_12,2021-04-23T09:46:08.936Z,,,,,,,,,,,,,,,,54,,,,,,,,,,,,,,258.9400000000023,,response,,,,100,,,,,,,Space,keypress(Space),,,,,,,,-- --- ---- --- ------ ----- ------- ---- -- --- ------- --<br>issuing ---------- ------ -- ----- -- ----- -- ---- ------<br>--- ----- --- --- ------ -------- ----- --- ------ ----- --<br>----- ----- ---------- --- --- ------ ------ ---- -- ------<br>------- --- ------ ----- --- ---- ------- -- ---- --- --<br>------- ------,230742,230733,230457.38,230441,230474.06,230774.04,,12,issuing
screen,html.Screen,1_1_1_1_13,2021-04-23T09:46:09.250Z,,,,,,,,,,,,,,,,54,,,,,,,,,,,,,,273.95999999999185,,response,,,,100,,,,,,,Space,keypress(Space),,,,,,,,-- --- ---- --- ------ ----- ------- ---- -- --- ------- --<br>------- government ------ -- ----- -- ----- -- ---- ------<br>--- ----- --- --- ------ -------- ----- --- ------ ----- --<br>----- ----- ---------- --- --- ------ ------ ---- -- ------<br>------- --- ------ ----- --- ---- ------- -- ---- --- --<br>------- ------,231056,231048,230757.4,230742,230774.04,231090.7,,13,government
screen,html.Screen,1_1_1_1_14,2021-04-23T09:46:09.727Z,,,,,,,,,,,,,,,,54,,,,,,,,,,,,,,435.29999999998836,,response,,,,100,,,,,,,Space,keypress(Space),,,,,,,,-- --- ---- --- ------ ----- ------- ---- -- --- ------- --<br>------- ---------- bonds. -- ----- -- ----- -- ---- ------<br>--- ----- --- --- ------ -------- ----- --- ------ ----- --<br>----- ----- ---------- --- --- ------ ------ ---- -- ------<br>------- --- ------ ----- --- ---- ------- -- ---- --- --<br>------- ------,231534,231526,231073.1,231056,231090.7,231557.36,,14,bonds.
screen,html.Screen,1_1_1_1_15,2021-04-23T09:46:10.203Z,,,,,,,,,,,,,,,,54,,,,,,,,,,,,,,443.64000000001397,,response,,,,100,,,,,,,Space,keypress(Space),,,,,,,,-- --- ---- --- ------ ----- ------- ---- -- --- ------- --<br>------- ---------- ------ In ----- -- ----- -- ---- ------<br>--- ----- --- --- ------ -------- ----- --- ------ ----- --<br>----- ----- ---------- --- --- ------ ------ ---- -- ------<br>------- --- ------ ----- --- ---- ------- -- ---- --- --<br>------- ------,232010,232001,231540.64,231534,231557.36,232040.76,,15,In
screen,html.Screen,1_1_1_1_16,2021-04-23T09:46:10.580Z,,,,,,,,,,,,,,,,54,,,,,,,,,,,,,,336.2399999999907,,response,,,,100,,,,,,,Space,keypress(Space),,,,,,,,"-- --- ---- --- ------ ----- ------- ---- -- --- ------- --<br>------- ---------- ------ -- 1727, -- ----- -- ---- ------<br>--- ----- --- --- ------ -------- ----- --- ------ ----- --<br>----- ----- ---------- --- --- ------ ------ ---- -- ------<br>------- --- ------ ----- --- ---- ------- -- ---- --- --<br>------- ------",232386,232377,232023.28,232010,232040.76,232406.44,,16,"1727,"
screen,html.Screen,1_1_1_1_17,2021-04-23T09:46:11.038Z,,,,,,,,,,,,,,,,54,,,,,,,,,,,,,,429.5599999999977,,response,,,,100,,,,,,,Space,keypress(Space),,,,,,,,-- --- ---- --- ------ ----- ------- ---- -- --- ------- --<br>------- ---------- ------ -- ----- in ----- -- ---- ------<br>--- ----- --- --- ------ -------- ----- --- ------ ----- --<br>----- ----- ---------- --- --- ------ ------ ---- -- ------<br>------- --- ------ ----- --- ---- ------- -- ---- --- --<br>------- ------,232844,232836,232390.64,232387,232406.44,232874.08,,17,in
screen,html.Screen,1_1_1_1_18,2021-04-23T09:46:12.165Z,,,,,,,,,,,,,,,,54,,,,,,,,,,,,,,1088.9200000000128,,response,,,,100,,,,,,,Space,keypress(Space),,,,,,,,-- --- ---- --- ------ ----- ------- ---- -- --- ------- --<br>------- ---------- ------ -- ----- -- order -- ---- ------<br>--- ----- --- --- ------ -------- ----- --- ------ ----- --<br>----- ----- ---------- --- --- ------ ------ ---- -- ------<br>------- --- ------ ----- --- ---- ------- -- ---- --- --<br>------- ------,233972,233963,232857.38,232844,232874.08,233990.62,,18,order
screen,html.Screen,1_1_1_1_19,2021-04-23T09:46:12.556Z,,,,,,,,,,,,,,,,54,,,,,,,,,,,,,,363.38000000000466,,response,,,,100,,,,,,,Space,keypress(Space),,,,,,,,-- --- ---- --- ------ ----- ------- ---- -- --- ------- --<br>------- ---------- ------ -- ----- -- ----- to ---- ------<br>--- ----- --- --- ------ -------- ----- --- ------ ----- --<br>----- ----- ---------- --- --- ------ ------ ---- -- ------<br>------- --- ------ ----- --- ---- ------- -- ---- --- --<br>------- ------,234362,234354,233972.9,233972,233990.62,234381.48,,19,to
screen,html.Screen,1_1_1_1_20,2021-04-23T09:46:12.924Z,,,,,,,,,,,,,,,,54,,,,,,,,,,,,,,341.5199999999895,,response,,,,100,,,,,,,Space,keypress(Space),,,,,,,,-- --- ---- --- ------ ----- ------- ---- -- --- ------- --<br>------- ---------- ------ -- ----- -- ----- -- save ------<br>--- ----- --- --- ------ -------- ----- --- ------ ----- --<br>----- ----- ---------- --- --- ------ ------ ---- -- ------<br>------- --- ------ ----- --- ---- ------- -- ---- --- --<br>------- ------,234731,234723,234363.82,234363,234381.48,234763.8,,20,save
screen,html.Screen,1_1_1_1_21,2021-04-23T09:46:13.309Z,,,,,,,,,,,,,,,,54,,,,,,,,,,,,,,343.20000000001164,,response,,,,100,,,,,,,Space,keypress(Space),,,,,,,,"-- --- ---- --- ------ ----- ------- ---- -- --- ------- --<br>------- ---------- ------ -- ----- -- ----- -- ---- money,<br>--- ----- --- --- ------ -------- ----- --- ------ ----- --<br>----- ----- ---------- --- --- ------ ------ ---- -- ------<br>------- --- ------ ----- --- ---- ------- -- ---- --- --<br>------- ------",235116,235107,234748.06,234731,234763.8,235147.6,,21,"money,"
screen,html.Screen,1_1_1_1_22,2021-04-23T09:46:13.832Z,,,,,,,,,,,,,,,,54,,,,,,,,,,,,,,482.3999999999942,,response,,,,100,,,,,,,Space,keypress(Space),,,,,,,,-- --- ---- --- ------ ----- ------- ---- -- --- ------- --<br>------- ---------- ------ -- ----- -- ----- -- ---- ------<br>the ----- --- --- ------ -------- ----- --- ------ ----- --<br>----- ----- ---------- --- --- ------ ------ ---- -- ------<br>------- --- ------ ----- --- ---- ------- -- ---- --- --<br>------- ------,235638,235630,235130.44,235116,235147.6,235664.66,,22,the
screen,html.Screen,1_1_1_1_23,2021-04-23T09:46:14.213Z,,,,,,,,,,,,,,,,54,,,,,,,,,,,,,,347.3399999999965,,response,,,,100,,,,,,,Space,keypress(Space),,,,,,,,-- --- ---- --- ------ ----- ------- ---- -- --- ------- --<br>------- ---------- ------ -- ----- -- ----- -- ---- ------<br>--- state --- --- ------ -------- ----- --- ------ ----- --<br>----- ----- ---------- --- --- ------ ------ ---- -- ------<br>------- --- ------ ----- --- ---- ------- -- ---- --- --<br>------- ------,236020,236012,235647.48,235639,235664.66,236047.98,,23,state
screen,html.Screen,1_1_1_1_24,2021-04-23T09:46:14.620Z,,,,,,,,,,,,,,,,54,,,,,,,,,,,,,,370.0199999999895,,response,,,,100,,,,,,,Space,keypress(Space),,,,,,,,-- --- ---- --- ------ ----- ------- ---- -- --- ------- --<br>------- ---------- ------ -- ----- -- ----- -- ---- ------<br>--- ----- cut --- ------ -------- ----- --- ------ ----- --<br>----- ----- ---------- --- --- ------ ------ ---- -- ------<br>------- --- ------ ----- --- ---- ------- -- ---- --- --<br>------- ------,236426,236418,236030.74,236020,236047.98,236448,,24,cut
screen,html.Screen,1_1_1_1_25,2021-04-23T09:46:15.152Z,,,,,,,,,,,,,,,,54,,,,,,,,,,,,,,502,,response,,,,100,,,,,,,Space,keypress(Space),,,,,,,,-- --- ---- --- ------ ----- ------- ---- -- --- ------- --<br>------- ---------- ------ -- ----- -- ----- -- ---- ------<br>--- ----- --- the ------ -------- ----- --- ------ ----- --<br>----- ----- ---------- --- --- ------ ------ ---- -- ------<br>------- --- ------ ----- --- ---- ------- -- ---- --- --<br>------- ------,236957,236950,236431.32,236426,236448,236981.28,,25,the
screen,html.Screen,1_1_1_1_26,2021-04-23T09:46:15.460Z,,,,,,,,,,,,,,,,54,,,,,,,,,,,,,,276.72000000000116,,response,,,,100,,,,,,,Space,keypress(Space),,,,,,,,-- --- ---- --- ------ ----- ------- ---- -- --- ------- --<br>------- ---------- ------ -- ----- -- ----- -- ---- ------<br>--- ----- --- --- bonds' -------- ----- --- ------ ----- --<br>----- ----- ---------- --- --- ------ ------ ---- -- ------<br>------- --- ------ ----- --- ---- ------- -- ---- --- --<br>------- ------,237266,237258,236964.62,236959,236981.28,237297.98,,26,bonds'
screen,html.Screen,1_1_1_1_27,2021-04-23T09:46:15.895Z,,,,,,,,,,,,,,,,54,,,,,,,,,,,,,,396.0199999999895,,response,,,,100,,,,,,,Space,keypress(Space),,,,,,,,-- --- ---- --- ------ ----- ------- ---- -- --- ------- --<br>------- ---------- ------ -- ----- -- ----- -- ---- ------<br>--- ----- --- --- ------ interest ----- --- ------ ----- --<br>----- ----- ---------- --- --- ------ ------ ---- -- ------<br>------- --- ------ ----- --- ---- ------- -- ---- --- --<br>------- ------,237702,237694,237280.98,237266,237297.98,237731.28,,27,interest
screen,html.Screen,1_1_1_1_28,2021-04-23T09:46:16.293Z,,,,,,,,,,,,,,,,54,,,,,,,,,,,,,,360.72000000000116,,response,,,,100,,,,,,,Space,keypress(Space),,,,,,,,-- --- ---- --- ------ ----- ------- ---- -- --- ------- --<br>------- ---------- ------ -- ----- -- ----- -- ---- ------<br>--- ----- --- --- ------ -------- rate. --- ------ ----- --<br>----- ----- ---------- --- --- ------ ------ ---- -- ------<br>------- --- ------ ----- --- ---- ------- -- ---- --- --<br>------- ------,238100,238092,237714.64,237702,237731.28,238131.3,,28,rate.
screen,html.Screen,1_1_1_1_29,2021-04-23T09:46:16.699Z,,,,,,,,,,,,,,,,54,,,,,,,,,,,,,,365.70000000001164,,response,,,,100,,,,,,,Space,keypress(Space),,,,,,,,-- --- ---- --- ------ ----- ------- ---- -- --- ------- --<br>------- ---------- ------ -- ----- -- ----- -- ---- ------<br>--- ----- --- --- ------ -------- ----- The ------ ----- --<br>----- ----- ---------- --- --- ------ ------ ---- -- ------<br>------- --- ------ ----- --- ---- ------- -- ---- --- --<br>------- ------,238505,238497,238114.62,238101,238131.3,238531.24,,29,The
screen,html.Screen,1_1_1_1_30,2021-04-23T09:46:17.094Z,,,,,,,,,,,,,,,,54,,,,,,,,,,,,,,360.7600000000093,,response,,,,100,,,,,,,Space,keypress(Space),,,,,,,,-- --- ---- --- ------ ----- ------- ---- -- --- ------- --<br>------- ---------- ------ -- ----- -- ----- -- ---- ------<br>--- ----- --- --- ------ -------- ----- --- market ----- --<br>----- ----- ---------- --- --- ------ ------ ---- -- ------<br>------- --- ------ ----- --- ---- ------- -- ---- --- --<br>------- ------,238901,238892,238514.58,238506,238531.24,238931.22,,30,market
screen,html.Screen,1_1_1_1_31,2021-04-23T09:46:17.470Z,,,,,,,,,,,,,,,,54,,,,,,,,,,,,,,336.77999999999884,,response,,,,100,,,,,,,Space,keypress(Space),,,,,,,,-- --- ---- --- ------ ----- ------- ---- -- --- ------- --<br>------- ---------- ------ -- ----- -- ----- -- ---- ------<br>--- ----- --- --- ------ -------- ----- --- ------ value --<br>----- ----- ---------- --- --- ------ ------ ---- -- ------<br>------- --- ------ ----- --- ---- ------- -- ---- --- --<br>------- ------,239277,239268,238913.64,238901,238931.22,239297.2,,31,value
screen,html.Screen,1_1_1_1_32,2021-04-23T09:46:17.843Z,,,,,,,,,,,,,,,,54,,,,,,,,,,,,,,344.79999999998836,,response,,,,100,,,,,,,Space,keypress(Space),,,,,,,,-- --- ---- --- ------ ----- ------- ---- -- --- ------- --<br>------- ---------- ------ -- ----- -- ----- -- ---- ------<br>--- ----- --- --- ------ -------- ----- --- ------ ----- of<br>----- ----- ---------- --- --- ------ ------ ---- -- ------<br>------- --- ------ ----- --- ---- ------- -- ---- --- --<br>------- ------,239650,239642,239281.28,239277,239297.2,239670.3,,32,of
screen,html.Screen,1_1_1_1_33,2021-04-23T09:46:18.225Z,,,,,,,,,,,,,,,,54,,,,,,,,,,,,,,354.70000000001164,,response,,,,100,,,,,,,Space,keypress(Space),,,,,,,,-- --- ---- --- ------ ----- ------- ---- -- --- ------- --<br>------- ---------- ------ -- ----- -- ----- -- ---- ------<br>--- ----- --- --- ------ -------- ----- --- ------ ----- --<br>these ----- ---------- --- --- ------ ------ ---- -- ------<br>------- --- ------ ----- --- ---- ------- -- ---- --- --<br>------- ------,240032,240025,239654.52,239650,239670.3,240054.24,,33,these
screen,html.Screen,1_1_1_1_34,2021-04-23T09:46:18.596Z,,,,,,,,,,,,,,,,54,,,,,,,,,,,,,,339.7600000000093,,response,,,,100,,,,,,,Space,keypress(Space),,,,,,,,-- --- ---- --- ------ ----- ------- ---- -- --- ------- --<br>------- ---------- ------ -- ----- -- ----- -- ---- ------<br>--- ----- --- --- ------ -------- ----- --- ------ ----- --<br>----- bonds ---------- --- --- ------ ------ ---- -- ------<br>------- --- ------ ----- --- ---- ------- -- ---- --- --<br>------- ------,240402,240394,240037.86,240033,240054.24,240421.1,,34,bonds
screen,html.Screen,1_1_1_1_35,2021-04-23T09:46:18.971Z,,,,,,,,,,,,,,,,54,,,,,,,,,,,,,,348.8999999999942,,response,,,,100,,,,,,,Space,keypress(Space),,,,,,,,"-- --- ---- --- ------ ----- ------- ---- -- --- ------- --<br>------- ---------- ------ -- ----- -- ----- -- ---- ------<br>--- ----- --- --- ------ -------- ----- --- ------ ----- --<br>----- ----- plummeted, --- --- ------ ------ ---- -- ------<br>------- --- ------ ----- --- ---- ------- -- ---- --- --<br>------- ------",240777,240770,240403.96,240403,240421.1,240804.46,,35,"plummeted,"
screen,html.Screen,1_1_1_1_36,2021-04-23T09:46:19.380Z,,,,,,,,,,,,,,,,54,,,,,,,,,,,,,,374.54000000000815,,response,,,,100,,,,,,,Space,keypress(Space),,,,,,,,-- --- ---- --- ------ ----- ------- ---- -- --- ------- --<br>------- ---------- ------ -- ----- -- ----- -- ---- ------<br>--- ----- --- --- ------ -------- ----- --- ------ ----- --<br>----- ----- ---------- and --- ------ ------ ---- -- ------<br>------- --- ------ ----- --- ---- ------- -- ---- --- --<br>------- ------,241186,241179,240787.78,240777,240804.46,241220.02,,36,and
screen,html.Screen,1_1_1_1_37,2021-04-23T09:46:19.759Z,,,,,,,,,,,,,,,,54,,,,,,,,,,,,,,336.9800000000105,,response,,,,100,,,,,,,Space,keypress(Space),,,,,,,,-- --- ---- --- ------ ----- ------- ---- -- --- ------- --<br>------- ---------- ------ -- ----- -- ----- -- ---- ------<br>--- ----- --- --- ------ -------- ----- --- ------ ----- --<br>----- ----- ---------- --- the ------ ------ ---- -- ------<br>------- --- ------ ----- --- ---- ------- -- ---- --- --<br>------- ------,241565,241557,241203.5,241187,241220.02,241587.74,,37,the
screen,html.Screen,1_1_1_1_38,2021-04-23T09:46:20.131Z,,,,,,,,,,,,,,,,54,,,,,,,,,,,,,,343.2600000000093,,response,,,,100,,,,,,,Space,keypress(Space),,,,,,,,-- --- ---- --- ------ ----- ------- ---- -- --- ------- --<br>------- ---------- ------ -- ----- -- ----- -- ---- ------<br>--- ----- --- --- ------ -------- ----- --- ------ ----- --<br>----- ----- ---------- --- --- market ------ ---- -- ------<br>------- --- ------ ----- --- ---- ------- -- ---- --- --<br>------- ------,241937,241931,241571.14,241565,241587.74,241970.08,,38,market
screen,html.Screen,1_1_1_1_39,2021-04-23T09:46:20.509Z,,,,,,,,,,,,,,,,54,,,,,,,,,,,,,,337.9200000000128,,response,,,,100,,,,,,,Space,keypress(Space),,,,,,,,-- --- ---- --- ------ ----- ------- ---- -- --- ------- --<br>------- ---------- ------ -- ----- -- ----- -- ---- ------<br>--- ----- --- --- ------ -------- ----- --- ------ ----- --<br>----- ----- ---------- --- --- ------ became ---- -- ------<br>------- --- ------ ----- --- ---- ------- -- ---- --- --<br>------- ------,242315,242308,241953.46,241938,241970.08,242337.02,,39,became
screen,html.Screen,1_1_1_1_40,2021-04-23T09:46:20.862Z,,,,,,,,,,,,,,,,54,,,,,,,,,,,,,,322.9800000000105,,response,,,,100,,,,,,,Space,keypress(Space),,,,,,,,-- --- ---- --- ------ ----- ------- ---- -- --- ------- --<br>------- ---------- ------ -- ----- -- ----- -- ---- ------<br>--- ----- --- --- ------ -------- ----- --- ------ ----- --<br>----- ----- ---------- --- --- ------ ------ wary -- ------<br>------- --- ------ ----- --- ---- ------- -- ---- --- --<br>------- ------,242668,242660,242321.12,242316,242337.02,242687.76,,40,wary
screen,html.Screen,1_1_1_1_41,2021-04-23T09:46:21.298Z,,,,,,,,,,,,,,,,54,,,,,,,,,,,,,,409.2399999999907,,response,,,,100,,,,,,,Space,keypress(Space),,,,,,,,-- --- ---- --- ------ ----- ------- ---- -- --- ------- --<br>------- ---------- ------ -- ----- -- ----- -- ---- ------<br>--- ----- --- --- ------ -------- ----- --- ------ ----- --<br>----- ----- ---------- --- --- ------ ------ ---- of ------<br>------- --- ------ ----- --- ---- ------- -- ---- --- --<br>------- ------,243105,243097,242670.18,242669,242687.76,243137.12,,41,of
screen,html.Screen,1_1_1_1_42,2021-04-23T09:46:21.671Z,,,,,,,,,,,,,,,,54,,,,,,,,,,,,,,331.88000000000466,,response,,,,100,,,,,,,Space,keypress(Space),,,,,,,,-- --- ---- --- ------ ----- ------- ---- -- --- ------- --<br>------- ---------- ------ -- ----- -- ----- -- ---- ------<br>--- ----- --- --- ------ -------- ----- --- ------ ----- --<br>----- ----- ---------- --- --- ------ ------ ---- -- French<br>------- --- ------ ----- --- ---- ------- -- ---- --- --<br>------- ------,243477,243469,243121.04,243105,243137.12,243503.52,,42,French
screen,html.Screen,1_1_1_1_43,2021-04-23T09:46:22.058Z,,,,,,,,,,,,,,,,54,,,,,,,,,,,,,,353.4800000000105,,response,,,,100,,,,,,,Space,keypress(Space),,,,,,,,-- --- ---- --- ------ ----- ------- ---- -- --- ------- --<br>------- ---------- ------ -- ----- -- ----- -- ---- ------<br>--- ----- --- --- ------ -------- ----- --- ------ ----- --<br>----- ----- ---------- --- --- ------ ------ ---- -- ------<br>credit. --- ------ ----- --- ---- ------- -- ---- --- --<br>------- ------,243865,243857,243487.24,243477,243503.52,243886.76,,43,credit.
screen,html.Screen,1_1_1_1_44,2021-04-23T09:46:22.463Z,,,,,,,,,,,,,,,,54,,,,,,,,,,,,,,376.2399999999907,,response,,,,100,,,,,,,Space,keypress(Space),,,,,,,,-- --- ---- --- ------ ----- ------- ---- -- --- ------- --<br>------- ---------- ------ -- ----- -- ----- -- ---- ------<br>--- ----- --- --- ------ -------- ----- --- ------ ----- --<br>----- ----- ---------- --- --- ------ ------ ---- -- ------<br>------- The ------ ----- --- ---- ------- -- ---- --- --<br>------- ------,244270,244263,243871.04,243865,243886.76,244304.36,,44,The
screen,html.Screen,1_1_1_1_45,2021-04-23T09:46:22.856Z,,,,,,,,,,,,,,,,54,,,,,,,,,,,,,,351.64000000001397,,response,,,,100,,,,,,,Space,keypress(Space),,,,,,,,-- --- ---- --- ------ ----- ------- ---- -- --- ------- --<br>------- ---------- ------ -- ----- -- ----- -- ---- ------<br>--- ----- --- --- ------ -------- ----- --- ------ ----- --<br>----- ----- ---------- --- --- ------ ------ ---- -- ------<br>------- --- French ----- --- ---- ------- -- ---- --- --<br>------- ------,244663,244656,244287.68,244270,244304.36,244693.24,,45,French
screen,html.Screen,1_1_1_1_46,2021-04-23T09:46:23.249Z,,,,,,,,,,,,,,,,54,,,,,,,,,,,,,,354.7600000000093,,response,,,,100,,,,,,,Space,keypress(Space),,,,,,,,-- --- ---- --- ------ ----- ------- ---- -- --- ------- --<br>------- ---------- ------ -- ----- -- ----- -- ---- ------<br>--- ----- --- --- ------ -------- ----- --- ------ ----- --<br>----- ----- ---------- --- --- ------ ------ ---- -- ------<br>------- --- ------ state --- ---- ------- -- ---- --- --<br>------- ------,245055,245048,244676.32,244663,244693.24,245076.54,,46,state
screen,html.Screen,1_1_1_1_47,2021-04-23T09:46:23.650Z,,,,,,,,,,,,,,,,54,,,,,,,,,,,,,,371.45999999999185,,response,,,,100,,,,,,,Space,keypress(Space),,,,,,,,-- --- ---- --- ------ ----- ------- ---- -- --- ------- --<br>------- ---------- ------ -- ----- -- ----- -- ---- ------<br>--- ----- --- --- ------ -------- ----- --- ------ ----- --<br>----- ----- ---------- --- --- ------ ------ ---- -- ------<br>------- --- ------ ----- was ---- ------- -- ---- --- --<br>------- ------,245456,245448,245059.88,245056,245076.54,245476.52,,47,was
screen,html.Screen,1_1_1_1_48,2021-04-23T09:46:24.002Z,,,,,,,,,,,,,,,,54,,,,,,,,,,,,,,325.4800000000105,,response,,,,100,,,,,,,Space,keypress(Space),,,,,,,,-- --- ---- --- ------ ----- ------- ---- -- --- ------- --<br>------- ---------- ------ -- ----- -- ----- -- ---- ------<br>--- ----- --- --- ------ -------- ----- --- ------ ----- --<br>----- ----- ---------- --- --- ------ ------ ---- -- ------<br>------- --- ------ ----- --- left ------- -- ---- --- --<br>------- ------,245810,245802,245459.92,245456,245476.52,245843.18,,48,left
screen,html.Screen,1_1_1_1_49,2021-04-23T09:46:24.372Z,,,,,,,,,,,,,,,,54,,,,,,,,,,,,,,327.820000000007,,response,,,,100,,,,,,,Space,keypress(Space),,,,,,,,-- --- ---- --- ------ ----- ------- ---- -- --- ------- --<br>------- ---------- ------ -- ----- -- ----- -- ---- ------<br>--- ----- --- --- ------ -------- ----- --- ------ ----- --<br>----- ----- ---------- --- --- ------ ------ ---- -- ------<br>------- --- ------ ----- --- ---- without -- ---- --- --<br>------- ------,246179,246171,245825.82,245810,245843.18,246209.12,,49,without
screen,html.Screen,1_1_1_1_50,2021-04-23T09:46:24.728Z,,,,,,,,,,,,,,,,54,,,,,,,,,,,,,,316.88000000000466,,response,,,,100,,,,,,,Space,keypress(Space),,,,,,,,-- --- ---- --- ------ ----- ------- ---- -- --- ------- --<br>------- ---------- ------ -- ----- -- ----- -- ---- ------<br>--- ----- --- --- ------ -------- ----- --- ------ ----- --<br>----- ----- ---------- --- --- ------ ------ ---- -- ------<br>------- --- ------ ----- --- ---- ------- an ---- --- --<br>------- ------,246534,246526,246192.4,246179,246209.12,246559.82,,50,an
screen,html.Screen,1_1_1_1_51,2021-04-23T09:46:25.060Z,,,,,,,,,,,,,,,,54,,,,,,,,,,,,,,298.179999999993,,response,,,,100,,,,,,,Space,keypress(Space),,,,,,,,-- --- ---- --- ------ ----- ------- ---- -- --- ------- --<br>------- ---------- ------ -- ----- -- ----- -- ---- ------<br>--- ----- --- --- ------ -------- ----- --- ------ ----- --<br>----- ----- ---------- --- --- ------ ------ ---- -- ------<br>------- --- ------ ----- --- ---- ------- -- easy --- --<br>------- ------,246866,246858,246543.16,246534,246559.82,246892.32,,51,easy
screen,html.Screen,1_1_1_1_52,2021-04-23T09:46:25.403Z,,,,,,,,,,,,,,,,54,,,,,,,,,,,,,,308.679999999993,,response,,,,100,,,,,,,Space,keypress(Space),,,,,,,,-- --- ---- --- ------ ----- ------- ---- -- --- ------- --<br>------- ---------- ------ -- ----- -- ----- -- ---- ------<br>--- ----- --- --- ------ -------- ----- --- ------ ----- --<br>----- ----- ---------- --- --- ------ ------ ---- -- ------<br>------- --- ------ ----- --- ---- ------- -- ---- way --<br>------- ------,247209,247201,246876.48,246866,246892.32,247242.08,,52,way
screen,html.Screen,1_1_1_1_53,2021-04-23T09:46:25.728Z,,,,,,,,,,,,,,,,54,,,,,,,,,,,,,,283.9200000000128,,response,,,,100,,,,,,,Space,keypress(Space),,,,,,,,-- --- ---- --- ------ ----- ------- ---- -- --- ------- --<br>------- ---------- ------ -- ----- -- ----- -- ---- ------<br>--- ----- --- --- ------ -------- ----- --- ------ ----- --<br>----- ----- ---------- --- --- ------ ------ ---- -- ------<br>------- --- ------ ----- --- ---- ------- -- ---- --- of<br>------- ------,247535,247526,247226.5,247210,247242.08,247559.84,,53,of
screen,html.Screen,1_1_1_1_54,2021-04-23T09:46:26.114Z,,,,,,,,,,,,,,,,54,,,,,,,,,,,,,,353.1600000000035,,response,,,,100,,,,,,,Space,keypress(Space),,,,,,,,-- --- ---- --- ------ ----- ------- ---- -- --- ------- --<br>------- ---------- ------ -- ----- -- ----- -- ---- ------<br>--- ----- --- --- ------ -------- ----- --- ------ ----- --<br>----- ----- ---------- --- --- ------ ------ ---- -- ------<br>------- --- ------ ----- --- ---- ------- -- ---- --- --<br>raising ------,247921,247913,247542.36,247535,247559.84,247943.14,,54,raising
screen,html.Screen,1_1_1_1_55,2021-04-23T09:46:26.462Z,,,,,,,,,,,,,,,,54,,,,,,,,,,,,,,318.85999999998603,,response,,,,100,,,,,,,Space,keypress(Space),,,,,,,,-- --- ---- --- ------ ----- ------- ---- -- --- ------- --<br>------- ---------- ------ -- ----- -- ----- -- ---- ------<br>--- ----- --- --- ------ -------- ----- --- ------ ----- --<br>----- ----- ---------- --- --- ------ ------ ---- -- ------<br>------- --- ------ ----- --- ---- ------- -- ---- --- --<br>------- money.,248269,248262,247926.32,247921,247943.14,248292.92,,55,money.
Item 100,flow.Loop,1_1_1_1,2021-04-23T09:46:26.463Z,,,,,,,,,,,,,,,,,,,,,,,,,,,,,,23376.320000000007,,completion,,,,,F,,,,,,,,,,,silence,,,,,248269,248262,224869.06,224871,224885.68,248292.92,,,
Question 1,html.Screen,1_1_1_2,2021-04-23T09:46:29.214Z,,,,,,,,,,,,,,,,,,,,,,,,,,,true,TRUE,,2725.079999999987,,response,,,,100,F,,,,,,TRUE,click #choice-1,,,,silence,,,,,251021,251018,248276.44,248270,248292.92,251051.08,,,
Question 2,html.Screen,1_1_1_3,2021-04-23T09:46:31.663Z,,,,,,,,,,,,,,,,,,,,,,,,,,,true,FALSE,,2414.920000000013,,response,,,,100,F,,,,,,FALSE,click #choice-2,,,,silence,,,,,253470,253466,251033.76,251022,251051.08,253501.06,,,
Item 100,flow.Sequence,1_1_1,2021-04-23T09:46:31.663Z,,,,,,,,,,,,,,,,,,,,,,,,,,,,,,38588.98000000001,,completion,,,,,,,,,,,,,,,,,,,,,253471,253466,214859.56,214861,214877.02,253501.06,,,
End of Practice,html.Page,1_1_2,2021-04-23T09:46:35.139Z,,,,,,,,,,,,,,,,,,,,,,,,,,,,,,3443.9400000000023,,form submission,,,,,,,,,,,,,,,,,,,,,256946,256945,253484.32,253471,253501.06,256962,,,
Practice,flow.Sequence,1_1,2021-04-23T09:46:35.140Z,,,,,,,,,,,,,,,,,,,,,,,,,,,,,,89676.62,,completion,,,,,,,,,,,,,,,,,,,,,256947,256945,167252.32,167258,167268.38,256962,,,
Trap_instruction,html.Page,1_2_0,2021-04-23T09:46:38.922Z,,,,,,,,,,,,,,,,,,,,,,,,,,,,,,3767,,form submission,,,,,,,,,,,,,,,,,,,,,260730,260729,256945.32,256948,256962,260781.24,,,
trap_trial,html.Screen,1_2_1,2021-04-23T09:46:41.663Z,,,,,,,,,,,,,,,,,,,,,,,,,,,true,1,,2684.7600000000093,,response,,,,,,,,,,,1,click #choice-1,,,,,,,,,263471,263466,260764.4,260730,260781.24,263498.6,,,
end of trap trial,html.Page,1_2_2,2021-04-23T09:46:43.414Z,,,,,,,,,,,,,,,,,,,,,,,,,,,,,,1722.4000000000233,,form submission,,,,,,,,,,,,,,,,,,,,,265221,265221,263481.16,263471,263498.6,265238.4,,,
Trap 1,flow.Sequence,1_2,2021-04-23T09:46:43.415Z,,,,,,,,,,,,,,,,,,,,,,,,,,,,,,8259,,completion,,,,,,,,,,,,,,,,,,,,,265222,265221,256945.32,256948,256962,265238.4,,,
Standby,html.Page,1_3_0,2021-04-23T09:46:51.415Z,,,,,,,,,,,,,,,,,,,,,,,,,,,,,,8000.01999999996,,timeout,,,,,,,,,,,,,,,,,,,,,273223,273221.46,265221.84,265224,265238.4,273238.42,,,
Holding screen,html.Screen,1_3_1_0_0,2021-04-23T09:46:58.414Z,,,,,,,,,,,,,,,,,,,,,,,,,,,,,,6998.200000000012,,timeout,,,,,,,,,,,,,,,,,,,,,280222,280220.02,273221.46,273223,273238.42,280236.62,,,
screen,html.Screen,1_3_1_0_1_0,2021-04-23T09:46:59.278Z,,,,,,,,,,,,,,,,2,,,,,,,,,,,,,,839.3800000000047,,response,,,,1,F,,,,,,Space,keypress(Space),,,,instrumental,,,,Two ---- ------ --- ------- ---------- ------- ----------<br>--- --------- --- ----------- ------- ----- ------- ---<br>--------- ---- -- --- ---- -- --------- -- ---- -------<br>-- --------- ------ --- ----- ------ ---- --- --------- --<br>------ - ---- -- --- ----------- ------- ---- ----- -----<br>--- -------- - ------ ---- -- ----- ---- --- --- -----------<br>-- -------,281085,281076,280220.02,280222,280236.62,281120.24,,0,Two
screen,html.Screen,1_3_1_0_1_1,2021-04-23T09:46:59.651Z,,,,,,,,,,,,,,,,2,,,,,,,,,,,,,,331.7600000000093,,response,,,,1,F,,,,,,Space,keypress(Space),,,,instrumental,,,,--- days ------ --- ------- ---------- ------- ----------<br>--- --------- --- ----------- ------- ----- ------- ---<br>--------- ---- -- --- ---- -- --------- -- ---- -------<br>-- --------- ------ --- ----- ------ ---- --- --------- --<br>------ - ---- -- --- ----------- ------- ---- ----- -----<br>--- -------- - ------ ---- -- ----- ---- --- --- -----------<br>-- -------,281459,281452,281103.56,281086,281120.24,281486.9,,1,days
screen,html.Screen,1_3_1_0_1_2,2021-04-23T09:47:00.015Z,,,,,,,,,,,,,,,,2,,,,,,,,,,,,,,329.0999999999767,,response,,,,1,F,,,,,,Space,keypress(Space),,,,instrumental,,,,"--- ---- later, --- ------- ---------- ------- ----------<br>--- --------- --- ----------- ------- ----- ------- ---<br>--------- ---- -- --- ---- -- --------- -- ---- -------<br>-- --------- ------ --- ----- ------ ---- --- --------- --<br>------ - ---- -- --- ----------- ------- ---- ----- -----<br>--- -------- - ------ ---- -- ----- ---- --- --- -----------<br>-- -------",281823,281816,281470.28,281459,281486.9,281852.84,,2,"later,"
screen,html.Screen,1_3_1_0_1_3,2021-04-23T09:47:00.432Z,,,,,,,,,,,,,,,,2,,,,,,,,,,,,,,377.1599999999744,,response,,,,1,F,,,,,,Space,keypress(Space),,,,instrumental,,,,--- ---- ------ the ------- ---------- ------- ----------<br>--- --------- --- ----------- ------- ----- ------- ---<br>--------- ---- -- --- ---- -- --------- -- ---- -------<br>-- --------- ------ --- ----- ------ ---- --- --------- --<br>------ - ---- -- --- ----------- ------- ---- ----- -----<br>--- -------- - ------ ---- -- ----- ---- --- --- -----------<br>-- -------,282239,282230,281835.9,281824,281852.84,282270.28,,3,the
screen,html.Screen,1_3_1_0_1_4,2021-04-23T09:47:00.852Z,,,,,,,,,,,,,,,,2,,,,,,,,,,,,,,380.71999999997206,,response,,,,1,F,,,,,,Space,keypress(Space),,,,instrumental,,,,--- ---- ------ --- British ---------- ------- ----------<br>--- --------- --- ----------- ------- ----- ------- ---<br>--------- ---- -- --- ---- -- --------- -- ---- -------<br>-- --------- ------ --- ----- ------ ---- --- --------- --<br>------ - ---- -- --- ----------- ------- ---- ----- -----<br>--- -------- - ------ ---- -- ----- ---- --- --- -----------<br>-- -------,282660,282651,282253.56,282240,282270.28,282686.88,,4,British
screen,html.Screen,1_3_1_0_1_5,2021-04-23T09:47:01.295Z,,,,,,,,,,,,,,,,2,,,,,,,,,,,,,,409.11999999999534,,response,,,,1,F,,,,,,Space,keypress(Space),,,,instrumental,,,,--- ---- ------ --- ------- astronomer ------- ----------<br>--- --------- --- ----------- ------- ----- ------- ---<br>--------- ---- -- --- ---- -- --------- -- ---- -------<br>-- --------- ------ --- ----- ------ ---- --- --------- --<br>------ - ---- -- --- ----------- ------- ---- ----- -----<br>--- -------- - ------ ---- -- ----- ---- --- --- -----------<br>-- -------,283102,283096,282670.22,282660,282686.88,283136.86,,5,astronomer
screen,html.Screen,1_3_1_0_1_6,2021-04-23T09:47:01.816Z,,,,,,,,,,,,,,,,2,,,,,,,,,,,,,,480.14000000001397,,response,,,,1,F,,,,,,Space,keypress(Space),,,,instrumental,,,,--- ---- ------ --- ------- ---------- Richard ----------<br>--- --------- --- ----------- ------- ----- ------- ---<br>--------- ---- -- --- ---- -- --------- -- ---- -------<br>-- --------- ------ --- ----- ------ ---- --- --------- --<br>------ - ---- -- --- ----------- ------- ---- ----- -----<br>--- -------- - ------ ---- -- ----- ---- --- --- -----------<br>-- -------,283624,283617,283119.48,283104,283136.86,283652.86,,6,Richard
screen,html.Screen,1_3_1_0_1_7,2021-04-23T09:47:02.288Z,,,,,,,,,,,,,,,,2,,,,,,,,,,,,,,435.14000000001397,,response,,,,1,F,,,,,,Space,keypress(Space),,,,instrumental,,,,--- ---- ------ --- ------- ---------- ------- Carrington<br>--- --------- --- ----------- ------- ----- ------- ---<br>--------- ---- -- --- ---- -- --------- -- ---- -------<br>-- --------- ------ --- ----- ------ ---- --- --------- --<br>------ - ---- -- --- ----------- ------- ---- ----- -----<br>--- -------- - ------ ---- -- ----- ---- --- --- -----------<br>-- -------,284096,284088,283636.44,283625,283652.86,284125.44,,7,Carrington
screen,html.Screen,1_3_1_0_1_8,2021-04-23T09:47:02.809Z,,,,,,,,,,,,,,,,2,,,,,,,,,,,,,,484.5599999999977,,response,,,,1,F,,,,,,Space,keypress(Space),,,,instrumental,,,,--- ---- ------ --- ------- ---------- ------- ----------<br>was --------- --- ----------- ------- ----- ------- ---<br>--------- ---- -- --- ---- -- --------- -- ---- -------<br>-- --------- ------ --- ----- ------ ---- --- --------- --<br>------ - ---- -- --- ----------- ------- ---- ----- -----<br>--- -------- - ------ ---- -- ----- ---- --- --- -----------<br>-- -------,284617,284610,284108.04,284096,284125.44,284641.08,,8,was
screen,html.Screen,1_3_1_0_1_9,2021-04-23T09:47:03.373Z,,,,,,,,,,,,,,,,2,,,,,,,,,,,,,,531.9199999999837,,response,,,,1,F,,,,,,Space,keypress(Space),,,,instrumental,,,,--- ---- ------ --- ------- ---------- ------- ----------<br>--- observing --- ----------- ------- ----- ------- ---<br>--------- ---- -- --- ---- -- --------- -- ---- -------<br>-- --------- ------ --- ----- ------ ---- --- --------- --<br>------ - ---- -- --- ----------- ------- ---- ----- -----<br>--- -------- - ------ ---- -- ----- ---- --- --- -----------<br>-- -------,285182,285173,284625.44,284617,284641.08,285207.88,,9,observing
screen,html.Screen,1_3_1_0_1_10,2021-04-23T09:47:03.739Z,,,,,,,,,,,,,,,,2,,,,,,,,,,,,,,332.11999999999534,,response,,,,1,F,,,,,,Space,keypress(Space),,,,instrumental,,,,--- ---- ------ --- ------- ---------- ------- ----------<br>--- --------- the ----------- ------- ----- ------- ---<br>--------- ---- -- --- ---- -- --------- -- ---- -------<br>-- --------- ------ --- ----- ------ ---- --- --------- --<br>------ - ---- -- --- ----------- ------- ---- ----- -----<br>--- -------- - ------ ---- -- ----- ---- --- --- -----------<br>-- -------,285546,285540,285192.06,285182,285207.88,285574.66,,10,the
screen,html.Screen,1_3_1_0_1_11,2021-04-23T09:47:04.174Z,,,,,,,,,,,,,,,,2,,,,,,,,,,,,,,398.3400000000256,,response,,,,1,F,,,,,,Space,keypress(Space),,,,instrumental,,,,--- ---- ------ --- ------- ---------- ------- ----------<br>--- --------- --- interesting ------- ----- ------- ---<br>--------- ---- -- --- ---- -- --------- -- ---- -------<br>-- --------- ------ --- ----- ------ ---- --- --------- --<br>------ - ---- -- --- ----------- ------- ---- ----- -----<br>--- -------- - ------ ---- -- ----- ---- --- --- -----------<br>-- -------,285981,285973,285558.38,285547,285574.66,286008.74,,11,interesting
screen,html.Screen,1_3_1_0_1_12,2021-04-23T09:47:04.620Z,,,,,,,,,,,,,,,,2,,,,,,,,,,,,,,411.2600000000093,,response,,,,1,F,,,,,,Space,keypress(Space),,,,instrumental,,,,--- ---- ------ --- ------- ---------- ------- ----------<br>--- --------- --- ----------- sunspot ----- ------- ---<br>--------- ---- -- --- ---- -- --------- -- ---- -------<br>-- --------- ------ --- ----- ------ ---- --- --------- --<br>------ - ---- -- --- ----------- ------- ---- ----- -----<br>--- -------- - ------ ---- -- ----- ---- --- --- -----------<br>-- -------,286428,286420,285992.1,285982,286008.74,286458.74,,12,sunspot
screen,html.Screen,1_3_1_0_1_13,2021-04-23T09:47:05.130Z,,,,,,,,,,,,,,,,2,,,,,,,,,,,,,,472.2600000000093,,response,,,,1,F,,,,,,Space,keypress(Space),,,,instrumental,,,,--- ---- ------ --- ------- ---------- ------- ----------<br>--- --------- --- ----------- ------- group ------- ---<br>--------- ---- -- --- ---- -- --------- -- ---- -------<br>-- --------- ------ --- ----- ------ ---- --- --------- --<br>------ - ---- -- --- ----------- ------- ---- ----- -----<br>--- -------- - ------ ---- -- ----- ---- --- --- -----------<br>-- -------,286937,286931,286442.06,286429,286458.74,286958.7,,13,group
screen,html.Screen,1_3_1_0_1_14,2021-04-23T09:47:05.585Z,,,,,,,,,,,,,,,,2,,,,,,,,,,,,,,426.29999999998836,,response,,,,1,F,,,,,,Space,keypress(Space),,,,instrumental,,,,--- ---- ------ --- ------- ---------- ------- ----------<br>--- --------- --- ----------- ------- ----- through ---<br>--------- ---- -- --- ---- -- --------- -- ---- -------<br>-- --------- ------ --- ----- ------ ---- --- --------- --<br>------ - ---- -- --- ----------- ------- ---- ----- -----<br>--- -------- - ------ ---- -- ----- ---- --- --- -----------<br>-- -------,287393,287385,286942.02,286939,286958.7,287425.22,,14,through
screen,html.Screen,1_3_1_0_1_15,2021-04-23T09:47:05.995Z,,,,,,,,,,,,,,,,2,,,,,,,,,,,,,,369.78000000002794,,response,,,,1,F,,,,,,Space,keypress(Space),,,,instrumental,,,,--- ---- ------ --- ------- ---------- ------- ----------<br>--- --------- --- ----------- ------- ----- ------- his<br>--------- ---- -- --- ---- -- --------- -- ---- -------<br>-- --------- ------ --- ----- ------ ---- --- --------- --<br>------ - ---- -- --- ----------- ------- ---- ----- -----<br>--- -------- - ------ ---- -- ----- ---- --- --- -----------<br>-- -------,287803,287795,287407.92,287393,287425.22,287825.32,,15,his
screen,html.Screen,1_3_1_0_1_16,2021-04-23T09:47:06.402Z,,,,,,,,,,,,,,,,2,,,,,,,,,,,,,,377.679999999993,,response,,,,1,F,,,,,,Space,keypress(Space),,,,instrumental,,,,--- ---- ------ --- ------- ---------- ------- ----------<br>--- --------- --- ----------- ------- ----- ------- ---<br>telescope ---- -- --- ---- -- --------- -- ---- -------<br>-- --------- ------ --- ----- ------ ---- --- --------- --<br>------ - ---- -- --- ----------- ------- ---- ----- -----<br>--- -------- - ------ ---- -- ----- ---- --- --- -----------<br>-- -------,288210,288203,287808.62,287804,287825.32,288242,,16,telescope
screen,html.Screen,1_3_1_0_1_17,2021-04-23T09:47:06.789Z,,,,,,,,,,,,,,,,2,,,,,,,,,,,,,,347,,response,,,,1,F,,,,,,Space,keypress(Space),,,,instrumental,,,,--- ---- ------ --- ------- ---------- ------- ----------<br>--- --------- --- ----------- ------- ----- ------- ---<br>--------- when -- --- ---- -- --------- -- ---- -------<br>-- --------- ------ --- ----- ------ ---- --- --------- --<br>------ - ---- -- --- ----------- ------- ---- ----- -----<br>--- -------- - ------ ---- -- ----- ---- --- --- -----------<br>-- -------,288597,288589,288224.9,288211,288242,288625.32,,17,when
screen,html.Screen,1_3_1_0_1_18,2021-04-23T09:47:07.217Z,,,,,,,,,,,,,,,,2,,,,,,,,,,,,,,390.679999999993,,response,,,,1,F,,,,,,Space,keypress(Space),,,,instrumental,,,,--- ---- ------ --- ------- ---------- ------- ----------<br>--- --------- --- ----------- ------- ----- ------- ---<br>--------- ---- he --- ---- -- --------- -- ---- -------<br>-- --------- ------ --- ----- ------ ---- --- --------- --<br>------ - ---- -- --- ----------- ------- ---- ----- -----<br>--- -------- - ------ ---- -- ----- ---- --- --- -----------<br>-- -------,289024,289016,288607.94,288598,288625.32,289046.68,,18,he
screen,html.Screen,1_3_1_0_1_19,2021-04-23T09:47:07.575Z,,,,,,,,,,,,,,,,2,,,,,,,,,,,,,,328.320000000007,,response,,,,1,F,,,,,,Space,keypress(Space),,,,instrumental,,,,--- ---- ------ --- ------- ---------- ------- ----------<br>--- --------- --- ----------- ------- ----- ------- ---<br>--------- ---- -- saw ---- -- --------- -- ---- -------<br>-- --------- ------ --- ----- ------ ---- --- --------- --<br>------ - ---- -- --- ----------- ------- ---- ----- -----<br>--- -------- - ------ ---- -- ----- ---- --- --- -----------<br>-- -------,289382,289375,289030.46,289025,289046.68,289413.82,,19,saw
screen,html.Screen,1_3_1_0_1_20,2021-04-23T09:47:07.941Z,,,,,,,,,,,,,,,,2,,,,,,,,,,,,,,327.179999999993,,response,,,,1,F,,,,,,Space,keypress(Space),,,,instrumental,,,,--- ---- ------ --- ------- ---------- ------- ----------<br>--- --------- --- ----------- ------- ----- ------- ---<br>--------- ---- -- --- what -- --------- -- ---- -------<br>-- --------- ------ --- ----- ------ ---- --- --------- --<br>------ - ---- -- --- ----------- ------- ---- ----- -----<br>--- -------- - ------ ---- -- ----- ---- --- --- -----------<br>-- -------,289749,289741,289397.14,289383,289413.82,289779.54,,20,what
screen,html.Screen,1_3_1_0_1_21,2021-04-23T09:47:08.320Z,,,,,,,,,,,,,,,,2,,,,,,,,,,,,,,341.46000000002095,,response,,,,1,F,,,,,,Space,keypress(Space),,,,instrumental,,,,--- ---- ------ --- ------- ---------- ------- ----------<br>--- --------- --- ----------- ------- ----- ------- ---<br>--------- ---- -- --- ---- he --------- -- ---- -------<br>-- --------- ------ --- ----- ------ ---- --- --------- --<br>------ - ---- -- --- ----------- ------- ---- ----- -----<br>--- -------- - ------ ---- -- ----- ---- --- --- -----------<br>-- -------,290128,290121,289763.8,289750,289779.54,290147.14,,21,he
screen,html.Screen,1_3_1_0_1_22,2021-04-23T09:47:08.676Z,,,,,,,,,,,,,,,,2,,,,,,,,,,,,,,327.85999999998603,,response,,,,1,F,,,,,,Space,keypress(Space),,,,instrumental,,,,--- ---- ------ --- ------- ---------- ------- ----------<br>--- --------- --- ----------- ------- ----- ------- ---<br>--------- ---- -- --- ---- -- described -- ---- -------<br>-- --------- ------ --- ----- ------ ---- --- --------- --<br>------ - ---- -- --- ----------- ------- ---- ----- -----<br>--- -------- - ------ ---- -- ----- ---- --- --- -----------<br>-- -------,290483,290475,290129.84,290129,290147.14,290513.86,,22,described
screen,html.Screen,1_3_1_0_1_23,2021-04-23T09:47:09.082Z,,,,,,,,,,,,,,,,2,,,,,,,,,,,,,,368.14000000001397,,response,,,,1,F,,,,,,Space,keypress(Space),,,,instrumental,,,,--- ---- ------ --- ------- ---------- ------- ----------<br>--- --------- --- ----------- ------- ----- ------- ---<br>--------- ---- -- --- ---- -- --------- as ---- -------<br>-- --------- ------ --- ----- ------ ---- --- --------- --<br>------ - ---- -- --- ----------- ------- ---- ----- -----<br>--- -------- - ------ ---- -- ----- ---- --- --- -----------<br>-- -------,290890,290882,290496.92,290484,290513.86,290912.88,,23,as
screen,html.Screen,1_3_1_0_1_24,2021-04-23T09:47:09.433Z,,,,,,,,,,,,,,,,2,,,,,,,,,,,,,,320.11999999999534,,response,,,,1,F,,,,,,Space,keypress(Space),,,,instrumental,,,,"--- ---- ------ --- ------- ---------- ------- ----------<br>--- --------- --- ----------- ------- ----- ------- ---<br>--------- ---- -- --- ---- -- --------- -- ""two -------<br>-- --------- ------ --- ----- ------ ---- --- --------- --<br>------ - ---- -- --- ----------- ------- ---- ----- -----<br>--- -------- - ------ ---- -- ----- ---- --- --- -----------<br>-- -------",291241,291233,290897.04,290890,290912.88,291263.74,,24,"""two"
screen,html.Screen,1_3_1_0_1_25,2021-04-23T09:47:09.827Z,,,,,,,,,,,,,,,,2,,,,,,,,,,,,,,364.2600000000093,,response,,,,1,F,,,,,,Space,keypress(Space),,,,instrumental,,,,--- ---- ------ --- ------- ---------- ------- ----------<br>--- --------- --- ----------- ------- ----- ------- ---<br>--------- ---- -- --- ---- -- --------- -- ---- patches<br>-- --------- ------ --- ----- ------ ---- --- --------- --<br>------ - ---- -- --- ----------- ------- ---- ----- -----<br>--- -------- - ------ ---- -- ----- ---- --- --- -----------<br>-- -------,291636,291628,291247.08,291241,291263.74,291663.74,,25,patches
screen,html.Screen,1_3_1_0_1_26,2021-04-23T09:47:10.278Z,,,,,,,,,,,,,,,,2,,,,,,,,,,,,,,415.2600000000093,,response,,,,1,F,,,,,,Space,keypress(Space),,,,instrumental,,,,--- ---- ------ --- ------- ---------- ------- ----------<br>--- --------- --- ----------- ------- ----- ------- ---<br>--------- ---- -- --- ---- -- --------- -- ---- -------<br>of --------- ------ --- ----- ------ ---- --- --------- --<br>------ - ---- -- --- ----------- ------- ---- ----- -----<br>--- -------- - ------ ---- -- ----- ---- --- --- -----------<br>-- -------,292086,292079,291646.46,291636,291663.74,292113.7,,26,of
screen,html.Screen,1_3_1_0_1_27,2021-04-23T09:47:10.673Z,,,,,,,,,,,,,,,,2,,,,,,,,,,,,,,359.29999999998836,,response,,,,1,F,,,,,,Space,keypress(Space),,,,instrumental,,,,--- ---- ------ --- ------- ---------- ------- ----------<br>--- --------- --- ----------- ------- ----- ------- ---<br>--------- ---- -- --- ---- -- --------- -- ---- -------<br>-- intensely ------ --- ----- ------ ---- --- --------- --<br>------ - ---- -- --- ----------- ------- ---- ----- -----<br>--- -------- - ------ ---- -- ----- ---- --- --- -----------<br>-- -------,292482,292473,292096.92,292086,292113.7,292512.94,,27,intensely
screen,html.Screen,1_3_1_0_1_28,2021-04-23T09:47:11.091Z,,,,,,,,,,,,,,,,2,,,,,,,,,,,,,,379.0599999999977,,response,,,,1,F,,,,,,Space,keypress(Space),,,,instrumental,,,,--- ---- ------ --- ------- ---------- ------- ----------<br>--- --------- --- ----------- ------- ----- ------- ---<br>--------- ---- -- --- ---- -- --------- -- ---- -------<br>-- --------- bright --- ----- ------ ---- --- --------- --<br>------ - ---- -- --- ----------- ------- ---- ----- -----<br>--- -------- - ------ ---- -- ----- ---- --- --- -----------<br>-- -------,292900,292892,292497.02,292482,292512.94,292930.34,,28,bright
screen,html.Screen,1_3_1_0_1_29,2021-04-23T09:47:11.492Z,,,,,,,,,,,,,,,,2,,,,,,,,,,,,,,362.6599999999744,,response,,,,1,F,,,,,,Space,keypress(Space),,,,instrumental,,,,--- ---- ------ --- ------- ---------- ------- ----------<br>--- --------- --- ----------- ------- ----- ------- ---<br>--------- ---- -- --- ---- -- --------- -- ---- -------<br>-- --------- ------ and ----- ------ ---- --- --------- --<br>------ - ---- -- --- ----------- ------- ---- ----- -----<br>--- -------- - ------ ---- -- ----- ---- --- --- -----------<br>-- -------,293300,293293,292913.7,292900,292930.34,293330.38,,29,and
screen,html.Screen,1_3_1_0_1_30,2021-04-23T09:47:11.879Z,,,,,,,,,,,,,,,,2,,,,,,,,,,,,,,348.61999999999534,,response,,,,1,F,,,,,,Space,keypress(Space),,,,instrumental,,,,--- ---- ------ --- ------- ---------- ------- ----------<br>--- --------- --- ----------- ------- ----- ------- ---<br>--------- ---- -- --- ---- -- --------- -- ---- -------<br>-- --------- ------ --- white ------ ---- --- --------- --<br>------ - ---- -- --- ----------- ------- ---- ----- -----<br>--- -------- - ------ ---- -- ----- ---- --- --- -----------<br>-- -------,293687,293679,293313.12,293301,293330.38,293713.12,,30,white
screen,html.Screen,1_3_1_0_1_31,2021-04-23T09:47:12.313Z,,,,,,,,,,,,,,,,2,,,,,,,,,,,,,,399.88000000000466,,response,,,,1,F,,,,,,Space,keypress(Space),,,,instrumental,,,,"--- ---- ------ --- ------- ---------- ------- ----------<br>--- --------- --- ----------- ------- ----- ------- ---<br>--------- ---- -- --- ---- -- --------- -- ---- -------<br>-- --------- ------ --- ----- light"" ---- --- --------- --<br>------ - ---- -- --- ----------- ------- ---- ----- -----<br>--- -------- - ------ ---- -- ----- ---- --- --- -----------<br>-- -------",294121,294113,293696.9,293688,293713.12,294151.56,,31,"light"""
screen,html.Screen,1_3_1_0_1_32,2021-04-23T09:47:12.933Z,,,,,,,,,,,,,,,,2,,,,,,,,,,,,,,576.4400000000023,,response,,,,1,F,,,,,,Space,keypress(Space),,,,instrumental,,,,--- ---- ------ --- ------- ---------- ------- ----------<br>--- --------- --- ----------- ------- ----- ------- ---<br>--------- ---- -- --- ---- -- --------- -- ---- -------<br>-- --------- ------ --- ----- ------ over --- --------- --<br>------ - ---- -- --- ----------- ------- ---- ----- -----<br>--- -------- - ------ ---- -- ----- ---- --- --- -----------<br>-- -------,294741,294728,294135.86,294122,294151.56,294769.16,,32,over
screen,html.Screen,1_3_1_0_1_33,2021-04-23T09:47:13.303Z,,,,,,,,,,,,,,,,2,,,,,,,,,,,,,,332.8400000000256,,response,,,,1,F,,,,,,Space,keypress(Space),,,,instrumental,,,,--- ---- ------ --- ------- ---------- ------- ----------<br>--- --------- --- ----------- ------- ----- ------- ---<br>--------- ---- -- --- ---- -- --------- -- ---- -------<br>-- --------- ------ --- ----- ------ ---- the --------- --<br>------ - ---- -- --- ----------- ------- ---- ----- -----<br>--- -------- - ------ ---- -- ----- ---- --- --- -----------<br>-- -------,295110,295102,294752.42,294742,294769.16,295135.58,,33,the
screen,html.Screen,1_3_1_0_1_34,2021-04-23T09:47:13.691Z,,,,,,,,,,,,,,,,2,,,,,,,,,,,,,,355.4199999999837,,response,,,,1,F,,,,,,Space,keypress(Space),,,,instrumental,,,,--- ---- ------ --- ------- ---------- ------- ----------<br>--- --------- --- ----------- ------- ----- ------- ---<br>--------- ---- -- --- ---- -- --------- -- ---- -------<br>-- --------- ------ --- ----- ------ ---- --- sunspots. --<br>------ - ---- -- --- ----------- ------- ---- ----- -----<br>--- -------- - ------ ---- -- ----- ---- --- --- -----------<br>-- -------,295499,295491,295119.24,295110,295135.58,295519.12,,34,sunspots.
screen,html.Screen,1_3_1_0_1_35,2021-04-23T09:47:14.083Z,,,,,,,,,,,,,,,,2,,,,,,,,,,,,,,364.88000000000466,,response,,,,1,F,,,,,,Space,keypress(Space),,,,instrumental,,,,--- ---- ------ --- ------- ---------- ------- ----------<br>--- --------- --- ----------- ------- ----- ------- ---<br>--------- ---- -- --- ---- -- --------- -- ---- -------<br>-- --------- ------ --- ----- ------ ---- --- --------- He<br>------ - ---- -- --- ----------- ------- ---- ----- -----<br>--- -------- - ------ ---- -- ----- ---- --- --- -----------<br>-- -------,295891,295884,295501.46,295499,295519.12,295919.08,,35,He
screen,html.Screen,1_3_1_0_1_36,2021-04-23T09:47:14.502Z,,,,,,,,,,,,,,,,2,,,,,,,,,,,,,,382.9199999999837,,response,,,,1,F,,,,,,Space,keypress(Space),,,,instrumental,,,,--- ---- ------ --- ------- ---------- ------- ----------<br>--- --------- --- ----------- ------- ----- ------- ---<br>--------- ---- -- --- ---- -- --------- -- ---- -------<br>-- --------- ------ --- ----- ------ ---- --- --------- --<br>jotted - ---- -- --- ----------- ------- ---- ----- -----<br>--- -------- - ------ ---- -- ----- ---- --- --- -----------<br>-- -------,296310,296302,295902.44,295892,295919.08,296335.82,,36,jotted
screen,html.Screen,1_3_1_0_1_37,2021-04-23T09:47:14.880Z,,,,,,,,,,,,,,,,2,,,,,,,,,,,,,,344.179999999993,,response,,,,1,F,,,,,,Space,keypress(Space),,,,instrumental,,,,--- ---- ------ --- ------- ---------- ------- ----------<br>--- --------- --- ----------- ------- ----- ------- ---<br>--------- ---- -- --- ---- -- --------- -- ---- -------<br>-- --------- ------ --- ----- ------ ---- --- --------- --<br>------ a ---- -- --- ----------- ------- ---- ----- -----<br>--- -------- - ------ ---- -- ----- ---- --- --- -----------<br>-- -------,296688,296680,296319.12,296310,296335.82,296719.1,,37,a
screen,html.Screen,1_3_1_0_1_38,2021-04-23T09:47:15.212Z,,,,,,,,,,,,,,,,2,,,,,,,,,,,,,,296.9000000000233,,response,,,,1,F,,,,,,Space,keypress(Space),,,,instrumental,,,,--- ---- ------ --- ------- ---------- ------- ----------<br>--- --------- --- ----------- ------- ----- ------- ---<br>--------- ---- -- --- ---- -- --------- -- ---- -------<br>-- --------- ------ --- ----- ------ ---- --- --------- --<br>------ - note -- --- ----------- ------- ---- ----- -----<br>--- -------- - ------ ---- -- ----- ---- --- --- -----------<br>-- -------,297020,297016,296702.06,296688,296719.1,297052.34,,38,note
screen,html.Screen,1_3_1_0_1_39,2021-04-23T09:47:15.579Z,,,,,,,,,,,,,,,,2,,,,,,,,,,,,,,325.6599999999744,,response,,,,1,F,,,,,,Space,keypress(Space),,,,instrumental,,,,--- ---- ------ --- ------- ---------- ------- ----------<br>--- --------- --- ----------- ------- ----- ------- ---<br>--------- ---- -- --- ---- -- --------- -- ---- -------<br>-- --------- ------ --- ----- ------ ---- --- --------- --<br>------ - ---- in --- ----------- ------- ---- ----- -----<br>--- -------- - ------ ---- -- ----- ---- --- --- -----------<br>-- -------,297386,297378,297035.6,297021,297052.34,297418.08,,39,in
screen,html.Screen,1_3_1_0_1_40,2021-04-23T09:47:15.893Z,,,,,,,,,,,,,,,,2,,,,,,,,,,,,,,275.9199999999837,,response,,,,1,F,,,,,,Space,keypress(Space),,,,instrumental,,,,--- ---- ------ --- ------- ---------- ------- ----------<br>--- --------- --- ----------- ------- ----- ------- ---<br>--------- ---- -- --- ---- -- --------- -- ---- -------<br>-- --------- ------ --- ----- ------ ---- --- --------- --<br>------ - ---- -- his ----------- ------- ---- ----- -----<br>--- -------- - ------ ---- -- ----- ---- --- --- -----------<br>-- -------,297701,297694,297401.48,297387,297418.08,297735.76,,40,his
screen,html.Screen,1_3_1_0_1_41,2021-04-23T09:47:16.176Z,,,,,,,,,,,,,,,,2,,,,,,,,,,,,,,241.2399999999907,,response,,,,1,F,,,,,,Space,keypress(Space),,,,instrumental,,,,--- ---- ------ --- ------- ---------- ------- ----------<br>--- --------- --- ----------- ------- ----- ------- ---<br>--------- ---- -- --- ---- -- --------- -- ---- -------<br>-- --------- ------ --- ----- ------ ---- --- --------- --<br>------ - ---- -- --- painstaking ------- ---- ----- -----<br>--- -------- - ------ ---- -- ----- ---- --- --- -----------<br>-- -------,297985,297977,297718.3,297702,297735.76,298019.08,,41,painstaking
screen,html.Screen,1_3_1_0_1_42,2021-04-23T09:47:16.605Z,,,,,,,,,,,,,,,,2,,,,,,,,,,,,,,383.9199999999837,,response,,,,1,F,,,,,,Space,keypress(Space),,,,instrumental,,,,--- ---- ------ --- ------- ---------- ------- ----------<br>--- --------- --- ----------- ------- ----- ------- ---<br>--------- ---- -- --- ---- -- --------- -- ---- -------<br>-- --------- ------ --- ----- ------ ---- --- --------- --<br>------ - ---- -- --- ----------- record. ---- ----- -----<br>--- -------- - ------ ---- -- ----- ---- --- --- -----------<br>-- -------,298413,298403,298002.14,297987,298019.08,298435.04,,42,record.
screen,html.Screen,1_3_1_0_1_43,2021-04-23T09:47:17.024Z,,,,,,,,,,,,,,,,2,,,,,,,,,,,,,,388.96000000002095,,response,,,,1,F,,,,,,Space,keypress(Space),,,,instrumental,,,,--- ---- ------ --- ------- ---------- ------- ----------<br>--- --------- --- ----------- ------- ----- ------- ---<br>--------- ---- -- --- ---- -- --------- -- ---- -------<br>-- --------- ------ --- ----- ------ ---- --- --------- --<br>------ - ---- -- --- ----------- ------- That ----- -----<br>--- -------- - ------ ---- -- ----- ---- --- --- -----------<br>-- -------,298832,298824,298419.08,298414,298435.04,298851.46,,43,That
screen,html.Screen,1_3_1_0_1_44,2021-04-23T09:47:17.349Z,,,,,,,,,,,,,,,,2,,,,,,,,,,,,,,297.53999999997905,,response,,,,1,F,,,,,,Space,keypress(Space),,,,instrumental,,,,--- ---- ------ --- ------- ---------- ------- ----------<br>--- --------- --- ----------- ------- ----- ------- ---<br>--------- ---- -- --- ---- -- --------- -- ---- -------<br>-- --------- ------ --- ----- ------ ---- --- --------- --<br>------ - ---- -- --- ----------- ------- ---- night -----<br>--- -------- - ------ ---- -- ----- ---- --- --- -----------<br>-- -------,299157,299149,298834.96,298832,298851.46,299175.84,,44,night
screen,html.Screen,1_3_1_0_1_45,2021-04-23T09:47:17.726Z,,,,,,,,,,,,,,,,2,,,,,,,,,,,,,,350.1599999999744,,response,,,,1,F,,,,,,Space,keypress(Space),,,,instrumental,,,,--- ---- ------ --- ------- ---------- ------- ----------<br>--- --------- --- ----------- ------- ----- ------- ---<br>--------- ---- -- --- ---- -- --------- -- ---- -------<br>-- --------- ------ --- ----- ------ ---- --- --------- --<br>------ - ---- -- --- ----------- ------- ---- ----- there<br>--- -------- - ------ ---- -- ----- ---- --- --- -----------<br>-- -------,299534,299526,299159.26,299158,299175.84,299559.88,,45,there
screen,html.Screen,1_3_1_0_1_46,2021-04-23T09:47:18.111Z,,,,,,,,,,,,,,,,2,,,,,,,,,,,,,,352.11999999999534,,response,,,,1,F,,,,,,Space,keypress(Space),,,,instrumental,,,,--- ---- ------ --- ------- ---------- ------- ----------<br>--- --------- --- ----------- ------- ----- ------- ---<br>--------- ---- -- --- ---- -- --------- -- ---- -------<br>-- --------- ------ --- ----- ------ ---- --- --------- --<br>------ - ---- -- --- ----------- ------- ---- ----- -----<br>was -------- - ------ ---- -- ----- ---- --- --- -----------<br>-- -------,299920,299912,299542.48,299534,299559.88,299943.18,,46,was
screen,html.Screen,1_3_1_0_1_47,2021-04-23T09:47:18.453Z,,,,,,,,,,,,,,,,2,,,,,,,,,,,,,,310.820000000007,,response,,,,1,F,,,,,,Space,keypress(Space),,,,instrumental,,,,--- ---- ------ --- ------- ---------- ------- ----------<br>--- --------- --- ----------- ------- ----- ------- ---<br>--------- ---- -- --- ---- -- --------- -- ---- -------<br>-- --------- ------ --- ----- ------ ---- --- --------- --<br>------ - ---- -- --- ----------- ------- ---- ----- -----<br>--- scarcely - ------ ---- -- ----- ---- --- --- -----------<br>-- -------,300260,300254,299926.44,299920,299943.18,300293.16,,47,scarcely
screen,html.Screen,1_3_1_0_1_48,2021-04-23T09:47:18.925Z,,,,,,,,,,,,,,,,2,,,,,,,,,,,,,,430.8400000000256,,response,,,,1,F,,,,,,Space,keypress(Space),,,,instrumental,,,,--- ---- ------ --- ------- ---------- ------- ----------<br>--- --------- --- ----------- ------- ----- ------- ---<br>--------- ---- -- --- ---- -- --------- -- ---- -------<br>-- --------- ------ --- ----- ------ ---- --- --------- --<br>------ - ---- -- --- ----------- ------- ---- ----- -----<br>--- -------- a ------ ---- -- ----- ---- --- --- -----------<br>-- -------,300734,300724,300276.58,300261,300293.16,300759.78,,48,a
