sender,sender_type,sender_id,timestamp,meta,,Blues,Classical,Country,Dance,Electronic,Folk,Gospel,Hip-Hop,Jazz,Latin,Musical/Film,New-age,Pop,Provo_ID,R&B,Rap,Reggae,Religious,Rock,Soul,Swing,Traditional,age,artist_name,correct,correctResponse,distraction,duration,education,ended_on,familiarity,gender,headphone_check_performance,item,list,music_frequency,offensiveness,pleasantness,position_correct,preference,response,response_action,snippet_file,song_name,song_rating,sound,stimulus_1,stimulus_2,stimulus_3,text,time_commit,time_end,time_render,time_run,time_show,time_switch,url,word,word_ID
Introduction,html.Screen,0_0,2021-04-15T09:51:03.296Z,"{""labjs_version"":""20.2.2"",""labjs_build"":{""flavor"":""production"",""commit"":""a25486e0c714a0ae2ce03ff94b7bb6896854dcfa""},""location"":""https://run.pavlovia.org/mvasilev/music_c/"",""userAgent"":""Mozilla/5.0 (Macintosh; Intel Mac OS X 10_10_5) AppleWebKit/537.36 (KHTML, like Gecko) Chrome/87.0.4280.88 Safari/537.36"",""platform"":""MacIntel"",""language"":""en-US"",""locale"":""en-US"",""timeZone"":""Europe/London"",""timezoneOffset"":-60,""screen_width"":1280,""screen_height"":800,""scroll_width"":1280,""scroll_height"":672,""window_innerWidth"":1280,""window_innerHeight"":720,""devicePixelRatio"":1}",,,,,,,,,,,,,,,,,,,,,,,,,,,,,4570.632000003203,,response,,,,,,,,,,,continue,click button,,,,,,,,,14140.505000003031,14137.690000003204,9533.806,9538.370000002033,9567.058,14140.056,{},,
Volume calibration,html.Screen,0_1,2021-04-15T09:51:20.357Z,,,,,,,,,,,,,,,,,,,,,,,,,,,,,,17055.549000000796,,response,,,,,,,,,,,continue,click button,,,,,,,,,31201.554999999644,31195.605000000796,14123.43,14140.894999996817,14140.056,31200.234,,,
Task instructions,html.Screen,0_2,2021-04-15T09:51:21.817Z,,,,,,,,,,,,,,,,,,,,,,,,,,,,,,1459.430999999222,,response,,,,,,,,,,,continue,click button,,,,,,,,,32661.71999999642,32659.664999999222,31183.608,31202.00499999919,31200.234,32663.322,,,
Sounds,html.Screen,0_3_0_0,2021-04-15T09:51:26.063Z,,,,,,,,,,,,,,,,,,,,,,,,,,,,,,4256.256000000001,,timeout,,,,,,,,,2,,,,,,,,I,S,O,,36907.76000000187,36902.952,32646.696,32662.09499999968,32663.322,36919.578,,,
Judgement,html.Screen,0_3_0_1,2021-04-15T09:51:29.890Z,,,,,,,,,,,,,,,,,,,,,,,,,,,true,2,,3813.922000002094,,response,,,,,,,,,2,,2,click #choice-2,,,,,I,S,O,,40735.34500000096,40733.500000002095,36902.952,36907.9750000019,36919.578,40743.558,,,
Trial,flow.Sequence,0_3_0,2021-04-15T09:51:29.892Z,,,,,,,,,,,,,,,,,,,,,,,,,,,,,,8070.178000002095,,completion,,,,,,,,,2,,,,,,,,I,S,O,,40737.40499999985,40733.500000002095,32646.696,32662.01000000001,32663.322,40743.558,,,
Sounds,html.Screen,0_3_1_0,2021-04-15T09:51:34.142Z,,,,,,,,,,,,,,,,,,,,,,,,,,,,,,4257.172000000006,,timeout,,,,,,,,,1,,,,,,,,S,O,I,,44986.65500000061,44984.104,40726.932,40737.630000003264,40743.558,45000.73,,,
Judgement,html.Screen,0_3_1_1,2021-04-15T09:51:35.555Z,,,,,,,,,,,,,,,,,,,,,,,,,,,true,1,,1396.9300000023577,,response,,,,,,,,,1,,1,click #choice-1,,,,,S,O,I,,46399.74999999686,46397.66000000236,44984.104,44986.83500000334,45000.73,46413.94,,,
Trial,flow.Sequence,0_3_1,2021-04-15T09:51:35.555Z,,,,,,,,,,,,,,,,,,,,,,,,,,,,,,5654.102000002364,,completion,,,,,,,,,1,,,,,,,,S,O,I,,46400.070000003325,46397.66000000236,40726.932,40737.56500000309,40743.558,46413.94,,,
Sounds,html.Screen,0_3_2_0,2021-04-15T09:51:39.810Z,,,,,,,,,,,,,,,,,,,,,,,,,,,,,,4256.256000000001,,timeout,,,,,,,,,1,,,,,,,,S,I,O,,50655.220000000554,50653.57,46397.314,46400.30000000115,46413.94,50670.196,,,
Judgement,html.Screen,0_3_2_1,2021-04-15T09:51:41.074Z,,,,,,,,,,,,,,,,,,,,,,,,,,,true,1,,1247.4240000001664,,response,,,,,,,,,1,,1,click #choice-1,,,,,S,I,O,,51919.43500000343,51917.62000000017,50653.57,50655.37999999651,50670.196,51934.642,,,
Trial,flow.Sequence,0_3_2,2021-04-15T09:51:41.074Z,,,,,,,,,,,,,,,,,,,,,,,,,,,,,,5503.680000000168,,completion,,,,,,,,,1,,,,,,,,S,I,O,,51919.73000000144,51917.62000000017,46397.314,46400.22499999759,46413.94,51934.642,,,
Sounds,html.Screen,0_3_3_0,2021-04-15T09:51:45.332Z,,,,,,,,,,,,,,,,,,,,,,,,,,,,,,4256.256000000001,,timeout,,,,,,,,,3,,,,,,,,I,O,S,,56176.97000000044,56174.272,51918.016,51919.93000000366,51934.642,56190.898,,,
Judgement,html.Screen,0_3_3_1,2021-04-15T09:51:46.380Z,,,,,,,,,,,,,,,,,,,,,,,,,,,true,3,,1032.6970000031142,,response,,,,,,,,,3,,3,click #choice-3,,,,,I,O,S,,57225.20999999688,57223.595000003115,56174.272,56177.13499999809,56190.898,57238.336,,,
Trial,flow.Sequence,0_3_3,2021-04-15T09:51:46.380Z,,,,,,,,,,,,,,,,,,,,,,,,,,,,,,5288.953000003115,,completion,,,,,,,,,3,,,,,,,,I,O,S,,57225.44999999809,57223.595000003115,51918.016,51919.86000000179,51934.642,57238.336,,,
Sounds,html.Screen,0_3_4_0,2021-04-15T09:51:50.635Z,,,,,,,,,,,,,,,,,,,,,,,,,,,,,,4256.255999999994,,timeout,,,,,,,,,3,,,,,,,,O,I,S,,61480.43000000325,61477.966,57221.71,57225.59500000352,57238.336,61494.592,,,
Judgement,html.Screen,0_3_4_1,2021-04-15T09:51:52.496Z,,,,,,,,,,,,,,,,,,,,,,,,,,,true,3,,1845.0729999995165,,response,,,,,,,,,3,,3,click #choice-3,,,,,O,I,S,,63341.764999997395,63339.66499999951,61477.966,61480.58499999752,61494.592,63357.649,,,
Trial,flow.Sequence,0_3_4,2021-04-15T09:51:52.496Z,,,,,,,,,,,,,,,,,,,,,,,,,,,,,,6101.32899999951,,completion,,,,,,,,,3,,,,,,,,O,I,S,,63342.05500000098,63339.66499999951,57221.71,57225.55999999895,57238.336,63357.649,,,
Sounds,html.Screen,0_3_5_0,2021-04-15T09:51:56.754Z,,,,,,,,,,,,,,,,,,,,,,,,,,,,,,4256.256000000001,,timeout,,,,,,,,,2,,,,,,,,O,S,I,,67600.0950000016,67597.279,63341.023,63342.234999996435,63357.649,67613.905,,,
Judgement,html.Screen,0_3_5_1,2021-04-15T09:51:57.622Z,,,,,,,,,,,,,,,,,,,,,,,,,,,true,2,,851.7750000011583,,response,,,,,,,,,2,,2,click #choice-2,,,,,O,S,I,,68467.68999999767,68465.68000000116,67597.279,67600.22500000196,67613.905,68478.457,,,
Trial,flow.Sequence,0_3_5,2021-04-15T09:51:57.622Z,,,,,,,,,,,,,,,,,,,,,,,,,,,,,,5108.03100000116,,completion,,,,,,,,,2,,,,,,,,O,S,I,,68467.94499999669,68465.68000000116,63341.023,63342.18500000134,63357.649,68478.457,,,
Task,flow.Loop,0_3,2021-04-15T09:51:57.628Z,,,,,,,,,,,,,,,,,,,,,,,,,,,,,,35802.35800000116,,completion,,,1,,,,,,,,,,,,,,,,,,68473.9649999974,68465.68000000116,32646.696,32661.93000000203,32663.322,68478.457,,,
Trap,html.Screen,0_4,2021-04-15T09:51:57.630Z,,,,,,,,,,,,,,,,,,,,,,,,,,,,,,NaN,,skipped,,,,,,,,,,,,,,,,,,,,,68475.74500000337,68465.68000000116,,68475.57499999675,,68478.457,,,
Thanks,html.Screen,0_5,2021-04-15T09:52:00.950Z,,,,,,,,,,,,,,,,,,,,,,,,,,,,,,3315.1479999989388,,response,,,,,,,,,,,continue,click button,,,,,,,,,71795.62499999884,71793.60499999893,68461.831,68475.89000000153,68478.457,75046.633,,,
Headphone screening,flow.Sequence,0,2021-04-15T09:52:00.950Z,,,,,,,,,,,,,,,,,,,,,,,,,,,,,,62226.54699999893,,completion,,,,,,,,,,,,,,,,,,,,,71795.89500000293,71793.60499999893,9533.806,9538.32500000135,9567.058,75046.633,,,
Instructions,html.Page,1_0,2021-04-15T09:52:14.007Z,,,,,,,,,,,,,,,,,,,,,,,,,,,,,,9806.241999996855,,form submission,,,,,,,,,,,,,,,,,,,,,84853.17999999825,84852.87499999686,75030.007,75040.67999999825,75046.633,84857.012,,,
Holding screen,html.Screen,1_1_0_0,2021-04-15T09:52:23.988Z,,,,,,,,,,,,,,,,,,,,,,,,,,,,,,10042.103999999992,,timeout,,,,,,,,,,,,,,,,,,,,,94834.68500000163,94832.612,84840.386,84853.43999999895,84857.012,94899.116,,,
screen,html.Screen,1_1_0_1_0,2021-04-15T09:52:24.936Z,,,,,,,,,,,,,,,,53,,,,,,,,,,,,,,879.5140000007086,,response,,,,99,,,,,,,Space,keypress(Space),,,,,,,,When -- ----- -- ------ - ------- --- ----------<br>------------- ------ ------ ---- ---- ------- ----- -- ----<br>-------- ------- -- ---------- --- - --- ----- ----- ----<br>---- --- --- ----- --- ---- ---- ------- ----- ---- -------<br>--- --- -- ----- -- --- ---- -- --- ---- -- ------ ------<br>--- ----- -- ----,95782.25499999826,95778.6300000007,94832.612,94834.92500000284,94899.116,95797.936,,0,When
screen,html.Screen,1_1_0_1_1,2021-04-15T09:52:25.390Z,,,,,,,,,,,,,,,,53,,,,,,,,,,,,,,436.57400000204507,,response,,,,99,,,,,,,Space,keypress(Space),,,,,,,,---- it ----- -- ------ - ------- --- ----------<br>------------- ------ ------ ---- ---- ------- ----- -- ----<br>-------- ------- -- ---------- --- - --- ----- ----- ----<br>---- --- --- ----- --- ---- ---- ------- ----- ---- -------<br>--- --- -- ----- -- --- ---- -- --- ---- -- ------ ------<br>--- ----- -- ----,96236.06999999902,96234.51000000205,95781.31,95782.4299999993,95797.936,96246.838,,1,it
screen,html.Screen,1_1_0_1_2,2021-04-15T09:52:25.806Z,,,,,,,,,,,,,,,,53,,,,,,,,,,,,,,403.7969999981433,,response,,,,99,,,,,,,Space,keypress(Space),,,,,,,,---- -- comes -- ------ - ------- --- ----------<br>------------- ------ ------ ---- ---- ------- ----- -- ----<br>-------- ------- -- ---------- --- - --- ----- ----- ----<br>---- --- --- ----- --- ---- ---- ------- ----- ---- -------<br>--- --- -- ----- -- --- ---- -- --- ---- -- ------ ------<br>--- ----- -- ----,96652.56499999668,96650.63499999815,96230.212,96236.23999999836,96246.838,96662.488,,2,comes
screen,html.Screen,1_1_0_1_3,2021-04-15T09:52:26.159Z,,,,,,,,,,,,,,,,53,,,,,,,,,,,,,,340.2020000011689,,response,,,,99,,,,,,,Space,keypress(Space),,,,,,,,---- -- ----- to ------ - ------- --- ----------<br>------------- ------ ------ ---- ---- ------- ----- -- ----<br>-------- ------- -- ---------- --- - --- ----- ----- ----<br>---- --- --- ----- --- ---- ---- ------- ----- ---- -------<br>--- --- -- ----- -- --- ---- -- --- ---- -- ------ ------<br>--- ----- -- ----,97005.01000000077,97002.69000000117,96645.862,96652.7350000033,96662.488,97011.634,,3,to
screen,html.Screen,1_1_0_1_4,2021-04-15T09:52:26.518Z,,,,,,,,,,,,,,,,53,,,,,,,,,,,,,,350.8410000017175,,response,,,,99,,,,,,,Space,keypress(Space),,,,,,,,---- -- ----- -- having - ------- --- ----------<br>------------- ------ ------ ---- ---- ------- ----- -- ----<br>-------- ------- -- ---------- --- - --- ----- ----- ----<br>---- --- --- ----- --- ---- ---- ------- ----- ---- -------<br>--- --- -- ----- -- --- ---- -- --- ---- -- ------ ------<br>--- ----- -- ----,97363.90499999834,97362.47500000172,96995.008,97005.17499999842,97011.634,97377.406,,4,having
screen,html.Screen,1_1_0_1_5,2021-04-15T09:52:26.750Z,,,,,,,,,,,,,,,,53,,,,,,,,,,,,,,217.23400000297988,,response,,,,99,,,,,,,Space,keypress(Space),,,,,,,,---- -- ----- -- ------ a ------- --- ----------<br>------------- ------ ------ ---- ---- ------- ----- -- ----<br>-------- ------- -- ---------- --- - --- ----- ----- ----<br>---- --- --- ----- --- ---- ---- ------- ----- ---- -------<br>--- --- -- ----- -- --- ---- -- --- ---- -- ------ ------<br>--- ----- -- ----,97596.29000000132,97594.64000000298,97360.78,97364.07000000327,97377.406,97610.17,,5,a
screen,html.Screen,1_1_0_1_6,2021-04-15T09:52:27.022Z,,,,,,,,,,,,,,,,53,,,,,,,,,,,,,,256.4899999996851,,response,,,,99,,,,,,,Space,keypress(Space),,,,,,,,---- -- ----- -- ------ - lasting --- ----------<br>------------- ------ ------ ---- ---- ------- ----- -- ----<br>-------- ------- -- ---------- --- - --- ----- ----- ----<br>---- --- --- ----- --- ---- ---- ------- ----- ---- -------<br>--- --- -- ----- -- --- ---- -- --- ---- -- ------ ------<br>--- ----- -- ----,97868.26999999903,97866.65999999968,97593.544,97596.44999999728,97610.17,97876.186,,6,lasting
screen,html.Screen,1_1_0_1_7,2021-04-15T09:52:27.262Z,,,,,,,,,,,,,,,,53,,,,,,,,,,,,,,230.51399999663408,,response,,,,99,,,,,,,Space,keypress(Space),,,,,,,,---- -- ----- -- ------ - ------- and ----------<br>------------- ------ ------ ---- ---- ------- ----- -- ----<br>-------- ------- -- ---------- --- - --- ----- ----- ----<br>---- --- --- ----- --- ---- ---- ------- ----- ---- -------<br>--- --- -- ----- -- --- ---- -- --- ---- -- ------ ------<br>--- ----- -- ----,98108.56999999669,98106.69999999664,97859.56,97868.44500000007,97876.186,98125.576,,7,and
screen,html.Screen,1_1_0_1_8,2021-04-15T09:52:27.502Z,,,,,,,,,,,,,,,,53,,,,,,,,,,,,,,221.0689999978058,,response,,,,99,,,,,,,Space,keypress(Space),,,,,,,,---- -- ----- -- ------ - ------- --- fulfilling<br>------------- ------ ------ ---- ---- ------- ----- -- ----<br>-------- ------- -- ---------- --- - --- ----- ----- ----<br>---- --- --- ----- --- ---- ---- ------- ----- ---- -------<br>--- --- -- ----- -- --- ---- -- --- ---- -- ------ ------<br>--- ----- -- ----,98348.44000000157,98346.6449999978,98108.95,98108.73500000162,98125.576,98358.34,,8,fulfilling
screen,html.Screen,1_1_0_1_9,2021-04-15T09:52:27.734Z,,,,,,,,,,,,,,,,53,,,,,,,,,,,,,,220.31000000311178,,response,,,,99,,,,,,,Space,keypress(Space),,,,,,,,"---- -- ----- -- ------ - ------- --- ----------<br>relationship, ------ ------ ---- ---- ------- ----- -- ----<br>-------- ------- -- ---------- --- - --- ----- ----- ----<br>---- --- --- ----- --- ---- ---- ------- ----- ---- -------<br>--- --- -- ----- -- --- ---- -- --- ---- -- ------ ------<br>--- ----- -- ----",98580.23500000127,98578.65000000311,98341.714,98348.61500000261,98358.34,98591.104,,9,"relationship,"
screen,html.Screen,1_1_0_1_10,2021-04-15T09:52:28.094Z,,,,,,,,,,,,,,,,53,,,,,,,,,,,,,,347.5360000002984,,response,,,,99,,,,,,,Space,keypress(Space),,,,,,,,---- -- ----- -- ------ - ------- --- ----------<br>------------- common ------ ---- ---- ------- ----- -- ----<br>-------- ------- -- ---------- --- - --- ----- ----- ----<br>---- --- --- ----- --- ---- ---- ------- ----- ---- -------<br>--- --- -- ----- -- --- ---- -- --- ---- -- ------ ------<br>--- ----- -- ----,98940.30999999814,98938.6400000003,98574.478,98580.45500000298,98591.104,98956.876,,10,common
screen,html.Screen,1_1_0_1_11,2021-04-15T09:52:28.518Z,,,,,,,,,,,,,,,,53,,,,,,,,,,,,,,405.76399999936984,,response,,,,99,,,,,,,Space,keypress(Space),,,,,,,,---- -- ----- -- ------ - ------- --- ----------<br>------------- ------ wisdom ---- ---- ------- ----- -- ----<br>-------- ------- -- ---------- --- - --- ----- ----- ----<br>---- --- --- ----- --- ---- ---- ------- ----- ---- -------<br>--- --- -- ----- -- --- ---- -- --- ---- -- ------ ------<br>--- ----- -- ----,99364.45500000264,99362.63999999937,98940.25,98940.48499999917,98956.876,99372.526,,11,wisdom
screen,html.Screen,1_1_0_1_12,2021-04-15T09:52:28.934Z,,,,,,,,,,,,,,,,53,,,,,,,,,,,,,,406.1189999985072,,response,,,,99,,,,,,,Space,keypress(Space),,,,,,,,---- -- ----- -- ------ - ------- --- ----------<br>------------- ------ ------ says ---- ------- ----- -- ----<br>-------- ------- -- ---------- --- - --- ----- ----- ----<br>---- --- --- ----- --- ---- ---- ------- ----- ---- -------<br>--- --- -- ----- -- --- ---- -- --- ---- -- ------ ------<br>--- ----- -- ----,99780.28500000073,99778.6449999985,99355.9,99364.63000000367,99372.526,99788.176,,12,says
screen,html.Screen,1_1_0_1_13,2021-04-15T09:52:29.230Z,,,,,,,,,,,,,,,,53,,,,,,,,,,,,,,286.4639999989013,,response,,,,99,,,,,,,Space,keypress(Space),,,,,,,,---- -- ----- -- ------ - ------- --- ----------<br>------------- ------ ------ ---- that ------- ----- -- ----<br>-------- ------- -- ---------- --- - --- ----- ----- ----<br>---- --- --- ----- --- ---- ---- ------- ----- ---- -------<br>--- --- -- ----- -- --- ---- -- --- ---- -- ------ ------<br>--- ----- -- ----,100076.28000000113,100074.63999999891,99771.55,99780.46000000177,99788.176,100087.444,,13,that
screen,html.Screen,1_1_0_1_14,2021-04-15T09:52:29.518Z,,,,,,,,,,,,,,,,53,,,,,,,,,,,,,,275.3459999992192,,response,,,,99,,,,,,,Space,keypress(Space),,,,,,,,---- -- ----- -- ------ - ------- --- ----------<br>------------- ------ ------ ---- ---- feeling ----- -- ----<br>-------- ------- -- ---------- --- - --- ----- ----- ----<br>---- --- --- ----- --- ---- ---- ------- ----- ---- -------<br>--- --- -- ----- -- --- ---- -- --- ---- -- ------ ------<br>--- ----- -- ----,100364.50000000332,100362.78999999922,100070.818,100076.44499999878,100087.444,100370.086,,14,feeling
screen,html.Screen,1_1_0_1_15,2021-04-15T09:52:29.782Z,,,,,,,,,,,,,,,,53,,,,,,,,,,,,,,256.5589999966469,,response,,,,99,,,,,,,Space,keypress(Space),,,,,,,,---- -- ----- -- ------ - ------- --- ----------<br>------------- ------ ------ ---- ---- ------- close -- ----<br>-------- ------- -- ---------- --- - --- ----- ----- ----<br>---- --- --- ----- --- ---- ---- ------- ----- ---- -------<br>--- --- -- ----- -- --- ---- -- --- ---- -- ------ ------<br>--- ----- -- ----,100628.29999999667,100626.64499999664,100353.46,100364.67999999877,100370.086,100636.102,,15,close
screen,html.Screen,1_1_0_1_16,2021-04-15T09:52:30.118Z,,,,,,,,,,,,,,,,53,,,,,,,,,,,,,,326.57799999690906,,response,,,,99,,,,,,,Space,keypress(Space),,,,,,,,---- -- ----- -- ------ - ------- --- ----------<br>------------- ------ ------ ---- ---- ------- ----- to ----<br>-------- ------- -- ---------- --- - --- ----- ----- ----<br>---- --- --- ----- --- ---- ---- ------- ----- ---- -------<br>--- --- -- ----- -- --- ---- -- --- ---- -- ------ ------<br>--- ----- -- ----,100964.26000000065,100962.67999999691,100619.476,100628.47000000329,100636.102,100968.622,,16,to
screen,html.Screen,1_1_0_1_17,2021-04-15T09:52:30.494Z,,,,,,,,,,,,,,,,53,,,,,,,,,,,,,,369.86300000021583,,response,,,,99,,,,,,,Space,keypress(Space),,,,,,,,---- -- ----- -- ------ - ------- --- ----------<br>------------- ------ ------ ---- ---- ------- ----- -- your<br>-------- ------- -- ---------- --- - --- ----- ----- ----<br>---- --- --- ----- --- ---- ---- ------- ----- ---- -------<br>--- --- -- ----- -- --- ---- -- --- ---- -- ------ ------<br>--- ----- -- ----,101340.06999999838,101338.48500000022,100951.996,100964.44000000338,100968.622,101351.02,,17,your
screen,html.Screen,1_1_0_1_18,2021-04-15T09:52:30.910Z,,,,,,,,,,,,,,,,53,,,,,,,,,,,,,,403.68499999937194,,response,,,,99,,,,,,,Space,keypress(Space),,,,,,,,---- -- ----- -- ------ - ------- --- ----------<br>------------- ------ ------ ---- ---- ------- ----- -- ----<br>romantic ------- -- ---------- --- - --- ----- ----- ----<br>---- --- --- ----- --- ---- ---- ------- ----- ---- -------<br>--- --- -- ----- -- --- ---- -- --- ---- -- ------ ------<br>--- ----- -- ----,101756.39000000228,101754.70499999938,101334.394,101340.23999999772,101351.02,101766.67,,18,romantic
screen,html.Screen,1_1_0_1_19,2021-04-15T09:52:31.214Z,,,,,,,,,,,,,,,,53,,,,,,,,,,,,,,291.90000000105647,,response,,,,99,,,,,,,Space,keypress(Space),,,,,,,,---- -- ----- -- ------ - ------- --- ----------<br>------------- ------ ------ ---- ---- ------- ----- -- ----<br>-------- partner -- ---------- --- - --- ----- ----- ----<br>---- --- --- ----- --- ---- ---- ------- ----- ---- -------<br>--- --- -- ----- -- --- ---- -- --- ---- -- ------ ------<br>--- ----- -- ----,102060.10000000242,102058.57000000105,101750.044,101756.55499999993,101766.67,102065.938,,19,partner
screen,html.Screen,1_1_0_1_20,2021-04-15T09:52:31.550Z,,,,,,,,,,,,,,,,53,,,,,,,,,,,,,,328.60200000114855,,response,,,,99,,,,,,,Space,keypress(Space),,,,,,,,---- -- ----- -- ------ - ------- --- ----------<br>------------- ------ ------ ---- ---- ------- ----- -- ----<br>-------- ------- is ---------- --- - --- ----- ----- ----<br>---- --- --- ----- --- ---- ---- ------- ----- ---- -------<br>--- --- -- ----- -- --- ---- -- --- ---- -- ------ ------<br>--- ----- -- ----,102396.16499999829,102394.54000000114,102049.312,102060.27999999787,102065.938,102398.458,,20,is
screen,html.Screen,1_1_0_1_21,2021-04-15T09:52:31.862Z,,,,,,,,,,,,,,,,53,,,,,,,,,,,,,,308.2570000002597,,response,,,,99,,,,,,,Space,keypress(Space),,,,,,,,---- -- ----- -- ------ - ------- --- ----------<br>------------- ------ ------ ---- ---- ------- ----- -- ----<br>-------- ------- -- paramount. --- - --- ----- ----- ----<br>---- --- --- ----- --- ---- ---- ------- ----- ---- -------<br>--- --- -- ----- -- --- ---- -- --- ---- -- ------ ------<br>--- ----- -- ----,102708.38000000367,102706.71500000026,102381.832,102396.33000000322,102398.458,102714.352,,21,paramount.
screen,html.Screen,1_1_0_1_22,2021-04-15T09:52:32.222Z,,,,,,,,,,,,,,,,53,,,,,,,,,,,,,,352.27800000116986,,response,,,,99,,,,,,,Space,keypress(Space),,,,,,,,---- -- ----- -- ------ - ------- --- ----------<br>------------- ------ ------ ---- ---- ------- ----- -- ----<br>-------- ------- -- ---------- But - --- ----- ----- ----<br>---- --- --- ----- --- ---- ---- ------- ----- ---- -------<br>--- --- -- ----- -- --- ---- -- --- ---- -- ------ ------<br>--- ----- -- ----,103068.2949999973,103066.63000000117,102697.726,102708.55499999743,102714.352,103080.124,,22,But
screen,html.Screen,1_1_0_1_23,2021-04-15T09:52:32.574Z,,,,,,,,,,,,,,,,53,,,,,,,,,,,,,,338.5110000018176,,response,,,,99,,,,,,,Space,keypress(Space),,,,,,,,---- -- ----- -- ------ - ------- --- ----------<br>------------- ------ ------ ---- ---- ------- ----- -- ----<br>-------- ------- -- ---------- --- a --- ----- ----- ----<br>---- --- --- ----- --- ---- ---- ------- ----- ---- -------<br>--- --- -- ----- -- --- ---- -- --- ---- -- ------ ------<br>--- ----- -- ----,103420.21499999828,103418.63500000181,103063.498,103068.46000000223,103080.124,103429.27,,23,a
screen,html.Screen,1_1_0_1_24,2021-04-15T09:52:32.814Z,,,,,,,,,,,,,,,,53,,,,,,,,,,,,,,229.43500000164204,,response,,,,99,,,,,,,Space,keypress(Space),,,,,,,,---- -- ----- -- ------ - ------- --- ----------<br>------------- ------ ------ ---- ---- ------- ----- -- ----<br>-------- ------- -- ---------- --- - new ----- ----- ----<br>---- --- --- ----- --- ---- ---- ------- ----- ---- -------<br>--- --- -- ----- -- --- ---- -- --- ---- -- ------ ------<br>--- ----- -- ----,103660.46500000084,103658.70500000165,103412.644,103420.37500000151,103429.27,103662.034,,24,new
screen,html.Screen,1_1_0_1_25,2021-04-15T09:52:33.142Z,,,,,,,,,,,,,,,,53,,,,,,,,,,,,,,324.59599999942293,,response,,,,99,,,,,,,Space,keypress(Space),,,,,,,,---- -- ----- -- ------ - ------- --- ----------<br>------------- ------ ------ ---- ---- ------- ----- -- ----<br>-------- ------- -- ---------- --- - --- study ----- ----<br>---- --- --- ----- --- ---- ---- ------- ----- ---- -------<br>--- --- -- ----- -- --- ---- -- --- ---- -- ------ ------<br>--- ----- -- ----,103988.21499999758,103986.62999999942,103645.408,103660.64000000188,103662.034,103994.554,,25,study
screen,html.Screen,1_1_0_1_26,2021-04-15T09:52:33.422Z,,,,,,,,,,,,,,,,53,,,,,,,,,,,,,,272.09100000333274,,response,,,,99,,,,,,,Space,keypress(Space),,,,,,,,---- -- ----- -- ------ - ------- --- ----------<br>------------- ------ ------ ---- ---- ------- ----- -- ----<br>-------- ------- -- ---------- --- - --- ----- finds ----<br>---- --- --- ----- --- ---- ---- ------- ----- ---- -------<br>--- --- -- ----- -- --- ---- -- --- ---- -- ------ ------<br>--- ----- -- ----,104268.26499999879,104266.64500000334,103977.928,103988.36999999912,103994.554,104277.196,,26,finds
screen,html.Screen,1_1_0_1_27,2021-04-15T09:52:33.758Z,,,,,,,,,,,,,,,,53,,,,,,,,,,,,,,325.44399999734014,,response,,,,99,,,,,,,Space,keypress(Space),,,,,,,,---- -- ----- -- ------ - ------- --- ----------<br>------------- ------ ------ ---- ---- ------- ----- -- ----<br>-------- ------- -- ---------- --- - --- ----- ----- that<br>---- --- --- ----- --- ---- ---- ------- ----- ---- -------<br>--- --- -- ----- -- --- ---- -- --- ---- -- ------ ------<br>--- ----- -- ----,104604.29999999906,104602.63999999734,104260.57,104268.42000000033,104277.196,104610.514,,27,that
screen,html.Screen,1_1_0_1_28,2021-04-15T09:52:34.134Z,,,,,,,,,,,,,,,,53,,,,,,,,,,,,,,368.12099999948987,,response,,,,99,,,,,,,Space,keypress(Space),,,,,,,,---- -- ----- -- ------ - ------- --- ----------<br>------------- ------ ------ ---- ---- ------- ----- -- ----<br>-------- ------- -- ---------- --- - --- ----- ----- ----<br>it's --- --- ----- --- ---- ---- ------- ----- ---- -------<br>--- --- -- ----- -- --- ---- -- --- ---- -- ------ ------<br>--- ----- -- ----,104980.24499999883,104978.63499999949,104593.888,104604.46499999671,104610.514,104992.912,,28,it's
screen,html.Screen,1_1_0_1_29,2021-04-15T09:52:34.390Z,,,,,,,,,,,,,,,,53,,,,,,,,,,,,,,241.79799999699753,,response,,,,99,,,,,,,Space,keypress(Space),,,,,,,,---- -- ----- -- ------ - ------- --- ----------<br>------------- ------ ------ ---- ---- ------- ----- -- ----<br>-------- ------- -- ---------- --- - --- ----- ----- ----<br>---- not --- ----- --- ---- ---- ------- ----- ---- -------<br>--- --- -- ----- -- --- ---- -- --- ---- -- ------ ------<br>--- ----- -- ----,105236.47999999957,105234.709999997,104976.286,104980.40999999648,104992.912,105242.302,,29,not
screen,html.Screen,1_1_0_1_30,2021-04-15T09:52:34.630Z,,,,,,,,,,,,,,,,53,,,,,,,,,,,,,,232.33800000036717,,response,,,,99,,,,,,,Space,keypress(Space),,,,,,,,---- -- ----- -- ------ - ------- --- ----------<br>------------- ------ ------ ---- ---- ------- ----- -- ----<br>-------- ------- -- ---------- --- - --- ----- ----- ----<br>---- --- how ----- --- ---- ---- ------- ----- ---- -------<br>--- --- -- ----- -- --- ---- -- --- ---- -- ------ ------<br>--- ----- -- ----,105476.2699999992,105474.64000000036,105225.676,105236.64499999722,105242.302,105491.692,,30,how
screen,html.Screen,1_1_0_1_31,2021-04-15T09:52:34.854Z,,,,,,,,,,,,,,,,53,,,,,,,,,,,,,,206.94800000234682,,response,,,,99,,,,,,,Space,keypress(Space),,,,,,,,---- -- ----- -- ------ - ------- --- ----------<br>------------- ------ ------ ---- ---- ------- ----- -- ----<br>-------- ------- -- ---------- --- - --- ----- ----- ----<br>---- --- --- close --- ---- ---- ------- ----- ---- -------<br>--- --- -- ----- -- --- ---- -- --- ---- -- ------ ------<br>--- ----- -- ----,105700.5250000002,105698.64000000234,105475.066,105476.43000000244,105491.692,105707.83,,31,close
screen,html.Screen,1_1_0_1_32,2021-04-15T09:52:35.078Z,,,,,,,,,,,,,,,,53,,,,,,,,,,,,,,214.80999999704363,,response,,,,99,,,,,,,Space,keypress(Space),,,,,,,,---- -- ----- -- ------ - ------- --- ----------<br>------------- ------ ------ ---- ---- ------- ----- -- ----<br>-------- ------- -- ---------- --- - --- ----- ----- ----<br>---- --- --- ----- you ---- ---- ------- ----- ---- -------<br>--- --- -- ----- -- --- ---- -- --- ---- -- ------ ------<br>--- ----- -- ----,105924.27999999927,105922.63999999705,105691.204,105700.68999999785,105707.83,105940.594,,32,you
screen,html.Screen,1_1_0_1_33,2021-04-15T09:52:35.286Z,,,,,,,,,,,,,,,,53,,,,,,,,,,,,,,190.10600000152772,,response,,,,99,,,,,,,Space,keypress(Space),,,,,,,,---- -- ----- -- ------ - ------- --- ----------<br>------------- ------ ------ ---- ---- ------- ----- -- ----<br>-------- ------- -- ---------- --- - --- ----- ----- ----<br>---- --- --- ----- --- feel ---- ------- ----- ---- -------<br>--- --- -- ----- -- --- ---- -- --- ---- -- ------ ------<br>--- ----- -- ----,106132.534999997,106130.70000000153,105923.968,105924.4400000025,105940.594,106140.106,,33,feel
screen,html.Screen,1_1_0_1_34,2021-04-15T09:52:35.502Z,,,,,,,,,,,,,,,,53,,,,,,,,,,,,,,206.60399999798392,,response,,,,99,,,,,,,Space,keypress(Space),,,,,,,,---- -- ----- -- ------ - ------- --- ----------<br>------------- ------ ------ ---- ---- ------- ----- -- ----<br>-------- ------- -- ---------- --- - --- ----- ----- ----<br>---- --- --- ----- --- ---- that ------- ----- ---- -------<br>--- --- -- ----- -- --- ---- -- --- ---- -- ------ ------<br>--- ----- -- ----,106348.44999999768,106346.70999999798,106123.48,106132.70500000363,106140.106,106356.244,,34,that
screen,html.Screen,1_1_0_1_35,2021-04-15T09:52:35.686Z,,,,,,,,,,,,,,,,53,,,,,,,,,,,,,,174.4060000005993,,response,,,,99,,,,,,,Space,keypress(Space),,,,,,,,---- -- ----- -- ------ - ------- --- ----------<br>------------- ------ ------ ---- ---- ------- ----- -- ----<br>-------- ------- -- ---------- --- - --- ----- ----- ----<br>---- --- --- ----- --- ---- ---- matters ----- ---- -------<br>--- --- -- ----- -- --- ---- -- --- ---- -- ------ ------<br>--- ----- -- ----,106532.23499999876,106530.6500000006,106339.618,106348.61000000092,106356.244,106539.13,,35,matters
screen,html.Screen,1_1_0_1_36,2021-04-15T09:52:35.894Z,,,,,,,,,,,,,,,,53,,,,,,,,,,,,,,199.51499999762746,,response,,,,99,,,,,,,Space,keypress(Space),,,,,,,,"---- -- ----- -- ------ - ------- --- ----------<br>------------- ------ ------ ---- ---- ------- ----- -- ----<br>-------- ------- -- ---------- --- - --- ----- ----- ----<br>---- --- --- ----- --- ---- ---- ------- most, ---- -------<br>--- --- -- ----- -- --- ---- -- --- ---- -- ------ ------<br>--- ----- -- ----",106740.29500000324,106738.64499999763,106522.504,106532.39999999641,106539.13,106755.268,,36,"most,"
screen,html.Screen,1_1_0_1_37,2021-04-15T09:52:36.094Z,,,,,,,,,,,,,,,,53,,,,,,,,,,,,,,183.39199999980337,,response,,,,99,,,,,,,Space,keypress(Space),,,,,,,,---- -- ----- -- ------ - ------- --- ----------<br>------------- ------ ------ ---- ---- ------- ----- -- ----<br>-------- ------- -- ---------- --- - --- ----- ----- ----<br>---- --- --- ----- --- ---- ---- ------- ----- it's -------<br>--- --- -- ----- -- --- ---- -- --- ---- -- ------ ------<br>--- ----- -- ----,106940.30000000203,106938.6599999998,106738.642,106740.4600000009,106755.268,106954.78,,37,it's
screen,html.Screen,1_1_0_1_38,2021-04-15T09:52:36.318Z,,,,,,,,,,,,,,,,53,,,,,,,,,,,,,,207.93499999857158,,response,,,,99,,,,,,,Space,keypress(Space),,,,,,,,---- -- ----- -- ------ - ------- --- ----------<br>------------- ------ ------ ---- ---- ------- ----- -- ----<br>-------- ------- -- ---------- --- - --- ----- ----- ----<br>---- --- --- ----- --- ---- ---- ------- ----- ---- whether<br>--- --- -- ----- -- --- ---- -- --- ---- -- ------ ------<br>--- ----- -- ----,107164.72000000067,107162.71499999857,106938.154,106940.45999999798,106954.78,107170.918,,38,whether
screen,html.Screen,1_1_0_1_39,2021-04-15T09:52:36.526Z,,,,,,,,,,,,,,,,53,,,,,,,,,,,,,,199.792000002868,,response,,,,99,,,,,,,Space,keypress(Space),,,,,,,,---- -- ----- -- ------ - ------- --- ----------<br>------------- ------ ------ ---- ---- ------- ----- -- ----<br>-------- ------- -- ---------- --- - --- ----- ----- ----<br>---- --- --- ----- --- ---- ---- ------- ----- ---- -------<br>you --- -- ----- -- --- ---- -- --- ---- -- ------ ------<br>--- ----- -- ----,107372.47999999818,107370.71000000287,107154.292,107164.87999999663,107170.918,107387.056,,39,you
screen,html.Screen,1_1_0_1_40,2021-04-15T09:52:36.862Z,,,,,,,,,,,,,,,,53,,,,,,,,,,,,,,319.57900000228256,,response,,,,99,,,,,,,Space,keypress(Space),,,,,,,,---- -- ----- -- ------ - ------- --- ----------<br>------------- ------ ------ ---- ---- ------- ----- -- ----<br>-------- ------- -- ---------- --- - --- ----- ----- ----<br>---- --- --- ----- --- ---- ---- ------- ----- ---- -------<br>--- are -- ----- -- --- ---- -- --- ---- -- ------ ------<br>--- ----- -- ----,107708.20999999705,107706.63500000228,107370.43,107372.64000000141,107387.056,107719.576,,40,are
screen,html.Screen,1_1_0_1_41,2021-04-15T09:52:37.046Z,,,,,,,,,,,,,,,,53,,,,,,,,,,,,,,171.1289999979781,,response,,,,99,,,,,,,Space,keypress(Space),,,,,,,,---- -- ----- -- ------ - ------- --- ----------<br>------------- ------ ------ ---- ---- ------- ----- -- ----<br>-------- ------- -- ---------- --- - --- ----- ----- ----<br>---- --- --- ----- --- ---- ---- ------- ----- ---- -------<br>--- --- as ----- -- --- ---- -- --- ---- -- ------ ------<br>--- ----- -- ----,107892.37000000139,107890.70499999798,107702.95,107708.3599999969,107719.576,107902.462,,41,as
screen,html.Screen,1_1_0_1_42,2021-04-15T09:52:37.254Z,,,,,,,,,,,,,,,,53,,,,,,,,,,,,,,196.18299999821465,,response,,,,99,,,,,,,Space,keypress(Space),,,,,,,,---- -- ----- -- ------ - ------- --- ----------<br>------------- ------ ------ ---- ---- ------- ----- -- ----<br>-------- ------- -- ---------- --- - --- ----- ----- ----<br>---- --- --- ----- --- ---- ---- ------- ----- ---- -------<br>--- --- -- close -- --- ---- -- --- ---- -- ------ ------<br>--- ----- -- ----,108100.31500000332,108098.64499999821,107885.836,107892.52999999735,107902.462,108118.6,,42,close
screen,html.Screen,1_1_0_1_43,2021-04-15T09:52:37.478Z,,,,,,,,,,,,,,,,53,,,,,,,,,,,,,,204.03999999849475,,response,,,,99,,,,,,,Space,keypress(Space),,,,,,,,---- -- ----- -- ------ - ------- --- ----------<br>------------- ------ ------ ---- ---- ------- ----- -- ----<br>-------- ------- -- ---------- --- - --- ----- ----- ----<br>---- --- --- ----- --- ---- ---- ------- ----- ---- -------<br>--- --- -- ----- as --- ---- -- --- ---- -- ------ ------<br>--- ----- -- ----,108324.29499999853,108322.6399999985,108101.974,108101.8350000013,108118.6,108334.738,,43,as
screen,html.Screen,1_1_0_1_44,2021-04-15T09:52:37.726Z,,,,,,,,,,,,,,,,53,,,,,,,,,,,,,,236.07199999743898,,response,,,,99,,,,,,,Space,keypress(Space),,,,,,,,---- -- ----- -- ------ - ------- --- ----------<br>------------- ------ ------ ---- ---- ------- ----- -- ----<br>-------- ------- -- ---------- --- - --- ----- ----- ----<br>---- --- --- ----- --- ---- ---- ------- ----- ---- -------<br>--- --- -- ----- -- you ---- -- --- ---- -- ------ ------<br>--- ----- -- ----,108572.78000000224,108570.80999999744,108318.112,108324.44499999838,108334.738,108584.128,,44,you
screen,html.Screen,1_1_0_1_45,2021-04-15T09:52:38.238Z,,,,,,,,,,,,,,,,53,,,,,,,,,,,,,,498.5019999971555,,response,,,,99,,,,,,,Space,keypress(Space),,,,,,,,---- -- ----- -- ------ - ------- --- ----------<br>------------- ------ ------ ---- ---- ------- ----- -- ----<br>-------- ------- -- ---------- --- - --- ----- ----- ----<br>---- --- --- ----- --- ---- ---- ------- ----- ---- -------<br>--- --- -- ----- -- --- want -- --- ---- -- ------ ------<br>--- ----- -- ----,109084.219999997,109082.62999999715,108567.502,108573.01500000176,108584.128,109099.534,,45,want
screen,html.Screen,1_1_0_1_46,2021-04-15T09:52:38.702Z,,,,,,,,,,,,,,,,53,,,,,,,,,,,,,,447.03599999861035,,response,,,,99,,,,,,,Space,keypress(Space),,,,,,,,---- -- ----- -- ------ - ------- --- ----------<br>------------- ------ ------ ---- ---- ------- ----- -- ----<br>-------- ------- -- ---------- --- - --- ----- ----- ----<br>---- --- --- ----- --- ---- ---- ------- ----- ---- -------<br>--- --- -- ----- -- --- ---- to --- ---- -- ------ ------<br>--- ----- -- ----,109548.3000000022,109546.56999999861,109082.908,109084.36999999685,109099.534,109565.062,,46,to
screen,html.Screen,1_1_0_1_47,2021-04-15T09:52:39.086Z,,,,,,,,,,,,,,,,53,,,,,,,,,,,,,,365.5830000003625,,response,,,,99,,,,,,,Space,keypress(Space),,,,,,,,"---- -- ----- -- ------ - ------- --- ----------<br>------------- ------ ------ ---- ---- ------- ----- -- ----<br>-------- ------- -- ---------- --- - --- ----- ----- ----<br>---- --- --- ----- --- ---- ---- ------- ----- ---- -------<br>--- --- -- ----- -- --- ---- -- be, ---- -- ------ ------<br>--- ----- -- ----",109932.11999999767,109930.64500000037,109548.436,109548.51500000223,109565.062,109947.46,,47,"be,"
screen,html.Screen,1_1_0_1_48,2021-04-15T09:52:39.542Z,,,,,,,,,,,,,,,,53,,,,,,,,,,,,,,439.26999999834516,,response,,,,99,,,,,,,Space,keypress(Space),,,,,,,,---- -- ----- -- ------ - ------- --- ----------<br>------------- ------ ------ ---- ---- ------- ----- -- ----<br>-------- ------- -- ---------- --- - --- ----- ----- ----<br>---- --- --- ----- --- ---- ---- ------- ----- ---- -------<br>--- --- -- ----- -- --- ---- -- --- even -- ------ ------<br>--- ----- -- ----,110388.40000000346,110386.72999999835,109930.834,109932.33999999939,109947.46,110396.362,,48,even
screen,html.Screen,1_1_0_1_49,2021-04-15T09:52:39.934Z,,,,,,,,,,,,,,,,53,,,,,,,,,,,,,,382.27799999681883,,response,,,,99,,,,,,,Space,keypress(Space),,,,,,,,---- -- ----- -- ------ - ------- --- ----------<br>------------- ------ ------ ---- ---- ------- ----- -- ----<br>-------- ------- -- ---------- --- - --- ----- ----- ----<br>---- --- --- ----- --- ---- ---- ------- ----- ---- -------<br>--- --- -- ----- -- --- ---- -- --- ---- if ------ ------<br>--- ----- -- ----,110780.26500000124,110778.63999999681,110379.736,110388.55999999942,110396.362,110795.386,,49,if
screen,html.Screen,1_1_0_1_50,2021-04-15T09:52:40.262Z,,,,,,,,,,,,,,,,53,,,,,,,,,,,,,,311.2539999981527,,response,,,,99,,,,,,,Space,keypress(Space),,,,,,,,---- -- ----- -- ------ - ------- --- ----------<br>------------- ------ ------ ---- ---- ------- ----- -- ----<br>-------- ------- -- ---------- --- - --- ----- ----- ----<br>---- --- --- ----- --- ---- ---- ------- ----- ---- -------<br>--- --- -- ----- -- --- ---- -- --- ---- -- that's ------<br>--- ----- -- ----,111108.11000000103,111106.63999999815,110778.76,110780.41500000108,110795.386,111111.28,,50,that's
screen,html.Screen,1_1_0_1_51,2021-04-15T09:52:40.622Z,,,,,,,,,,,,,,,,53,,,,,,,,,,,,,,355.36500000042724,,response,,,,99,,,,,,,Space,keypress(Space),,,,,,,,---- -- ----- -- ------ - ------- --- ----------<br>------------- ------ ------ ---- ---- ------- ----- -- ----<br>-------- ------- -- ---------- --- - --- ----- ----- ----<br>---- --- --- ----- --- ---- ---- ------- ----- ---- -------<br>--- --- -- ----- -- --- ---- -- --- ---- -- ------ really<br>--- ----- -- ----,111468.1899999996,111466.64500000043,111094.654,111108.25499999919,111111.28,111477.052,,51,really
screen,html.Screen,1_1_0_1_52,2021-04-15T09:52:41.102Z,,,,,,,,,,,,,,,,53,,,,,,,,,,,,,,469.5880000019388,,response,,,,99,,,,,,,Space,keypress(Space),,,,,,,,---- -- ----- -- ------ - ------- --- ----------<br>------------- ------ ------ ---- ---- ------- ----- -- ----<br>-------- ------- -- ---------- --- - --- ----- ----- ----<br>---- --- --- ----- --- ---- ---- ------- ----- ---- -------<br>--- --- -- ----- -- --- ---- -- --- ---- -- ------ ------<br>not ----- -- ----,111948.25500000297,111946.64000000193,111460.426,111468.33999999944,111477.052,111959.206,,52,not
screen,html.Screen,1_1_0_1_53,2021-04-15T09:52:41.502Z,,,,,,,,,,,,,,,,53,,,,,,,,,,,,,,387.42900000169175,,response,,,,99,,,,,,,Space,keypress(Space),,,,,,,,---- -- ----- -- ------ - ------- --- ----------<br>------------- ------ ------ ---- ---- ------- ----- -- ----<br>-------- ------- -- ---------- --- - --- ----- ----- ----<br>---- --- --- ----- --- ---- ---- ------- ----- ---- -------<br>--- --- -- ----- -- --- ---- -- --- ---- -- ------ ------<br>--- close -- ----,112348.16000000137,112346.6350000017,111942.58,111948.40500000282,111959.206,112358.23,,53,close
screen,html.Screen,1_1_0_1_54,2021-04-15T09:52:41.910Z,,,,,,,,,,,,,,,,53,,,,,,,,,,,,,,396.40499999751046,,response,,,,99,,,,,,,Space,keypress(Space),,,,,,,,---- -- ----- -- ------ - ------- --- ----------<br>------------- ------ ------ ---- ---- ------- ----- -- ----<br>-------- ------- -- ---------- --- - --- ----- ----- ----<br>---- --- --- ----- --- ---- ---- ------- ----- ---- -------<br>--- --- -- ----- -- --- ---- -- --- ---- -- ------ ------<br>--- ----- at ----,112756.25500000024,112754.6349999975,112341.604,112348.30499999953,112358.23,112757.254,,54,at
screen,html.Screen,1_1_0_1_55,2021-04-15T09:52:42.350Z,,,,,,,,,,,,,,,,53,,,,,,,,,,,,,,437.38600000152655,,response,,,,99,,,,,,,Space,keypress(Space),,,,,,,,---- -- ----- -- ------ - ------- --- ----------<br>------------- ------ ------ ---- ---- ------- ----- -- ----<br>-------- ------- -- ---------- --- - --- ----- ----- ----<br>---- --- --- ----- --- ---- ---- ------- ----- ---- -------<br>--- --- -- ----- -- --- ---- -- --- ---- -- ------ ------<br>--- ----- -- all.,113196.21000000188,113194.64000000153,112740.628,112756.3999999984,112757.254,113206.156,,55,all.
Item 99,flow.Loop,1_1_0_1,2021-04-15T09:52:42.350Z,,,,,,,,,,,,,,,,,,,,,,,,,,,,,,18295.524000001533,,completion,,,,,C,,,,,,,,,,,silence,,,,,113196.51999999769,113194.64000000153,94832.612,94834.85500000097,94899.116,113206.156,,,
Question 1,html.Screen,1_1_0_2,2021-04-15T09:52:50.177Z,,,,,,,,,,,,,,,,,,,,,,,,,,,true,FALSE,,7815.534000001397,,response,,,,99,C,,,,,,FALSE,click #choice-2,,,,silence,,,,,121023.49500000128,121021.6900000014,113189.53,113196.66000000143,113206.156,121037.979,,,
Question 2,html.Screen,1_1_0_3,2021-04-15T09:52:53.868Z,,,,,,,,,,,,,,,,,,,,,,,,,,,true,TRUE,,3675.6010000032693,,response,,,,99,C,,,,,,TRUE,click #choice-1,,,,silence,,,,,124715.35500000027,124713.58000000328,121021.353,121023.65499999723,121037.979,124728.951,,,
Item 99,flow.Sequence,1_1_0,2021-04-15T09:52:53.869Z,,,,,,,,,,,,,,,,,,,,,,,,,,,,,,39856.56800000327,,completion,,,,,,,,,,,,,,,,,,,,,124715.6049999976,124713.58000000328,84840.386,84853.39499999827,84857.012,124728.951,,,
Holding screen,html.Screen,1_1_1_0,2021-04-15T09:53:03.860Z,,,,,,,,,,,,,,,,,,,,,,,,,,,,,,9993.152000000002,,timeout,,,,,,,,,,,,,,,,,,,,,134706.72500000364,134705.477,124712.325,124715.77000000252,124728.951,134722.103,,,
screen,html.Screen,1_1_1_1_0,2021-04-15T09:53:04.421Z,,,,,,,,,,,,,,,,54,,,,,,,,,,,,,,544.5319999999483,,response,,,,100,,,,,,,Space,keypress(Space),,,,,,,,At --- ---- --- ------ ----- ------- ---- -- --- ------- --<br>------- ---------- ------ -- ----- -- ----- -- ---- ------<br>--- ----- --- --- ------ -------- ----- --- ------ ----- --<br>----- ----- ---------- --- --- ------ ------ ---- -- ------<br>------- --- ------ ----- --- ---- ------- -- ---- --- --<br>------- ------,135268.4999999983,135266.63499999995,134705.477,134706.9100000008,134722.103,135270.761,,0,At
screen,html.Screen,1_1_1_1_1,2021-04-15T09:53:04.757Z,,,,,,,,,,,,,,,,54,,,,,,,,,,,,,,331.89400000241585,,response,,,,100,,,,,,,Space,keypress(Space),,,,,,,,-- the ---- --- ------ ----- ------- ---- -- --- ------- --<br>------- ---------- ------ -- ----- -- ----- -- ---- ------<br>--- ----- --- --- ------ -------- ----- --- ------ ----- --<br>----- ----- ---------- --- --- ------ ------ ---- -- ------<br>------- --- ------ ----- --- ---- ------- -- ---- --- --<br>------- ------,135604.2099999977,135602.6550000024,135254.135,135268.62999999867,135270.761,135620.81,,1,the
screen,html.Screen,1_1_1_1_2,2021-04-15T09:53:04.949Z,,,,,,,,,,,,,,,,54,,,,,,,,,,,,,,173.86000000295462,,response,,,,100,,,,,,,Space,keypress(Space),,,,,,,,-- --- time --- ------ ----- ------- ---- -- --- ------- --<br>------- ---------- ------ -- ----- -- ----- -- ---- ------<br>--- ----- --- --- ------ -------- ----- --- ------ ----- --<br>----- ----- ---------- --- --- ------ ------ ---- -- ------<br>------- --- ------ ----- --- ---- ------- -- ---- --- --<br>------- ------,135796.34000000078,135794.67000000295,135604.184,135604.3950000021,135620.81,135803.696,,2,time
screen,html.Screen,1_1_1_1_3,2021-04-15T09:53:05.157Z,,,,,,,,,,,,,,,,54,,,,,,,,,,,,,,198.84900000301423,,response,,,,100,,,,,,,Space,keypress(Space),,,,,,,,-- --- ---- the ------ ----- ------- ---- -- --- ------- --<br>------- ---------- ------ -- ----- -- ----- -- ---- ------<br>--- ----- --- --- ------ -------- ----- --- ------ ----- --<br>----- ----- ---------- --- --- ------ ------ ---- -- ------<br>------- --- ------ ----- --- ---- ------- -- ---- --- --<br>------- ------,136004.0850000005,136002.545000003,135787.07,135796.48499999894,135803.696,136019.834,,3,the
screen,html.Screen,1_1_1_1_4,2021-04-15T09:53:05.365Z,,,,,,,,,,,,,,,,54,,,,,,,,,,,,,,190.80599999750848,,response,,,,100,,,,,,,Space,keypress(Space),,,,,,,,-- --- ---- --- French ----- ------- ---- -- --- ------- --<br>------- ---------- ------ -- ----- -- ----- -- ---- ------<br>--- ----- --- --- ------ -------- ----- --- ------ ----- --<br>----- ----- ---------- --- --- ------ ------ ---- -- ------<br>------- --- ------ ----- --- ---- ------- -- ---- --- --<br>------- ------,136212.18499999668,136210.6399999975,136003.208,136004.23500000034,136019.834,136219.346,,4,French
screen,html.Screen,1_1_1_1_5,2021-04-15T09:53:05.573Z,,,,,,,,,,,,,,,,54,,,,,,,,,,,,,,199.2989999979327,,response,,,,100,,,,,,,Space,keypress(Space),,,,,,,,-- --- ---- --- ------ crown ------- ---- -- --- ------- --<br>------- ---------- ------ -- ----- -- ----- -- ---- ------<br>--- ----- --- --- ------ -------- ----- --- ------ ----- --<br>----- ----- ---------- --- --- ------ ------ ---- -- ------<br>------- --- ------ ----- --- ---- ------- -- ---- --- --<br>------- ------,136420.24500000116,136418.64499999792,136202.72,136212.32500000042,136219.346,136435.484,,5,crown
screen,html.Screen,1_1_1_1_6,2021-04-15T09:53:05.789Z,,,,,,,,,,,,,,,,54,,,,,,,,,,,,,,199.22099999675993,,response,,,,100,,,,,,,Space,keypress(Space),,,,,,,,-- --- ---- --- ------ ----- secured ---- -- --- ------- --<br>------- ---------- ------ -- ----- -- ----- -- ---- ------<br>--- ----- --- --- ------ -------- ----- --- ------ ----- --<br>----- ----- ---------- --- --- ------ ------ ---- -- ------<br>------- --- ------ ----- --- ---- ------- -- ---- --- --<br>------- ------,136636.40499999747,136634.70499999676,136418.858,136420.395000001,136435.484,136651.622,,6,secured
screen,html.Screen,1_1_1_1_7,2021-04-15T09:53:05.989Z,,,,,,,,,,,,,,,,54,,,,,,,,,,,,,,183.0129999992496,,response,,,,100,,,,,,,Space,keypress(Space),,,,,,,,-- --- ---- --- ------ ----- ------- much -- --- ------- --<br>------- ---------- ------ -- ----- -- ----- -- ---- ------<br>--- ----- --- --- ------ -------- ----- --- ------ ----- --<br>----- ----- ---------- --- --- ------ ------ ---- -- ------<br>------- --- ------ ----- --- ---- ------- -- ---- --- --<br>------- ------,136836.2300000008,136834.63499999925,136634.996,136636.55499999732,136651.622,136851.134,,7,much
screen,html.Screen,1_1_1_1_8,2021-04-15T09:53:06.261Z,,,,,,,,,,,,,,,,54,,,,,,,,,,,,,,255.51600000154576,,response,,,,100,,,,,,,Space,keypress(Space),,,,,,,,-- --- ---- --- ------ ----- ------- ---- of --- ------- --<br>------- ---------- ------ -- ----- -- ----- -- ---- ------<br>--- ----- --- --- ------ -------- ----- --- ------ ----- --<br>----- ----- ---------- --- --- ------ ------ ---- -- ------<br>------- --- ------ ----- --- ---- ------- -- ---- --- --<br>------- ------,137108.2549999992,137106.65000000154,136834.508,136836.36999999726,136851.134,137117.15,,8,of
screen,html.Screen,1_1_1_1_9,2021-04-15T09:53:06.477Z,,,,,,,,,,,,,,,,54,,,,,,,,,,,,,,205.61499999716762,,response,,,,100,,,,,,,Space,keypress(Space),,,,,,,,-- --- ---- --- ------ ----- ------- ---- -- its ------- --<br>------- ---------- ------ -- ----- -- ----- -- ---- ------<br>--- ----- --- --- ------ -------- ----- --- ------ ----- --<br>----- ----- ---------- --- --- ------ ------ ---- -- ------<br>------- --- ------ ----- --- ---- ------- -- ---- --- --<br>------- ------,137324.46000000346,137322.76499999716,137100.524,137108.40499999904,137117.15,137333.288,,9,its
screen,html.Screen,1_1_1_1_10,2021-04-15T09:53:06.669Z,,,,,,,,,,,,,,,,54,,,,,,,,,,,,,,181.42699999752222,,response,,,,100,,,,,,,Space,keypress(Space),,,,,,,,-- --- ---- --- ------ ----- ------- ---- -- --- revenue --<br>------- ---------- ------ -- ----- -- ----- -- ---- ------<br>--- ----- --- --- ------ -------- ----- --- ------ ----- --<br>----- ----- ---------- --- --- ------ ------ ---- -- ------<br>------- --- ------ ----- --- ---- ------- -- ---- --- --<br>------- ------,137516.47499999672,137514.71499999752,137316.662,137324.6050000016,137333.288,137532.8,,10,revenue
screen,html.Screen,1_1_1_1_11,2021-04-15T09:53:06.901Z,,,,,,,,,,,,,,,,54,,,,,,,,,,,,,,213.8399999975809,,response,,,,100,,,,,,,Space,keypress(Space),,,,,,,,-- --- ---- --- ------ ----- ------- ---- -- --- ------- by<br>------- ---------- ------ -- ----- -- ----- -- ---- ------<br>--- ----- --- --- ------ -------- ----- --- ------ ----- --<br>----- ----- ---------- --- --- ------ ------ ---- -- ------<br>------- --- ------ ----- --- ---- ------- -- ---- --- --<br>------- ------,137748.2549999986,137746.63999999757,137516.174,137516.62499999657,137532.8,137748.938,,11,by
screen,html.Screen,1_1_1_1_12,2021-04-15T09:53:07.237Z,,,,,,,,,,,,,,,,54,,,,,,,,,,,,,,333.7569999973348,,response,,,,100,,,,,,,Space,keypress(Space),,,,,,,,-- --- ---- --- ------ ----- ------- ---- -- --- ------- --<br>issuing ---------- ------ -- ----- -- ----- -- ---- ------<br>--- ----- --- --- ------ -------- ----- --- ------ ----- --<br>----- ----- ---------- --- --- ------ ------ ---- -- ------<br>------- --- ------ ----- --- ---- ------- -- ---- --- --<br>------- ------,138084.37499999854,138082.69499999733,137732.312,137748.40499999846,137748.938,138098.084,,12,issuing
screen,html.Screen,1_1_1_1_13,2021-04-15T09:53:08.605Z,,,,,,,,,,,,,,,,54,,,,,,,,,,,,,,1352.5560000027472,,response,,,,100,,,,,,,Space,keypress(Space),,,,,,,,-- --- ---- --- ------ ----- ------- ---- -- --- ------- --<br>------- government ------ -- ----- -- ----- -- ---- ------<br>--- ----- --- --- ------ -------- ----- --- ------ ----- --<br>----- ----- ---------- --- --- ------ ------ ---- -- ------<br>------- --- ------ ----- --- ---- ------- -- ---- --- --<br>------- ------,139452.2399999987,139450.64000000275,138081.458,138084.5199999967,138098.084,139461.416,,13,government
screen,html.Screen,1_1_1_1_14,2021-04-15T09:53:09.581Z,,,,,,,,,,,,,,,,54,,,,,,,,,,,,,,965.1839999988733,,response,,,,100,,,,,,,Space,keypress(Space),,,,,,,,-- --- ---- --- ------ ----- ------- ---- -- --- ------- --<br>------- ---------- bonds. -- ----- -- ----- -- ---- ------<br>--- ----- --- --- ------ -------- ----- --- ------ ----- --<br>----- ----- ---------- --- --- ------ ------ ---- -- ------<br>------- --- ------ ----- --- ---- ------- -- ---- --- --<br>------- ------,140428.12499999854,140426.59999999887,139444.79,139452.38499999687,139461.416,140442.35,,14,bonds.
screen,html.Screen,1_1_1_1_15,2021-04-15T09:53:10.077Z,,,,,,,,,,,,,,,,54,,,,,,,,,,,,,,480.18000000345637,,response,,,,100,,,,,,,Space,keypress(Space),,,,,,,,-- --- ---- --- ------ ----- ------- ---- -- --- ------- --<br>------- ---------- ------ In ----- -- ----- -- ---- ------<br>--- ----- --- --- ------ -------- ----- --- ------ ----- --<br>----- ----- ---------- --- --- ------ ------ ---- -- ------<br>------- --- ------ ----- --- ---- ------- -- ---- --- --<br>------- ------,140924.07999999705,140922.53000000346,140425.724,140428.2699999967,140442.35,140941.13,,15,In
screen,html.Screen,1_1_1_1_16,2021-04-15T09:53:10.349Z,,,,,,,,,,,,,,,,54,,,,,,,,,,,,,,253.6099999989965,,response,,,,100,,,,,,,Space,keypress(Space),,,,,,,,"-- --- ---- --- ------ ----- ------- ---- -- --- ------- --<br>------- ---------- ------ -- 1727, -- ----- -- ---- ------<br>--- ----- --- --- ------ -------- ----- --- ------ ----- --<br>----- ----- ---------- --- --- ------ ------ ---- -- ------<br>------- --- ------ ----- --- ---- ------- -- ---- --- --<br>------- ------",141196.34999999835,141194.739999999,140924.504,140924.22500000248,140941.13,141207.146,,16,"1727,"
screen,html.Screen,1_1_1_1_17,2021-04-15T09:53:10.429Z,,,,,,,,,,,,,,,,54,,,,,,,,,,,,,,67.41899999970337,,response,,,,100,,,,,,,Space,keypress(Space),,,,,,,,-- --- ---- --- ------ ----- ------- ---- -- --- ------- --<br>------- ---------- ------ -- ----- in ----- -- ---- ------<br>--- ----- --- --- ------ -------- ----- --- ------ ----- --<br>----- ----- ---------- --- --- ------ ------ ---- -- ------<br>------- --- ------ ----- --- ---- ------- -- ---- --- --<br>------- ------,141276.3300000006,141274.5649999997,141190.52,141196.5049999999,141207.146,141290.276,,17,in
screen,html.Screen,1_1_1_1_18,2021-04-15T09:53:10.933Z,,,,,,,,,,,,,,,,54,,,,,,,,,,,,,,488.379000001878,,response,,,,100,,,,,,,Space,keypress(Space),,,,,,,,-- --- ---- --- ------ ----- ------- ---- -- --- ------- --<br>------- ---------- ------ -- ----- -- order -- ---- ------<br>--- ----- --- --- ------ -------- ----- --- ------ ----- --<br>----- ----- ---------- --- --- ------ ------ ---- -- ------<br>------- --- ------ ----- --- ---- ------- -- ---- --- --<br>------- ------,141780.18999999767,141778.6550000019,141273.65,141276.53999999893,141290.276,141789.056,,18,order
screen,html.Screen,1_1_1_1_19,2021-04-15T09:53:11.325Z,,,,,,,,,,,,,,,,54,,,,,,,,,,,,,,381.43899999847054,,response,,,,100,,,,,,,Space,keypress(Space),,,,,,,,-- --- ---- --- ------ ----- ------- ---- -- --- ------- --<br>------- ---------- ------ -- ----- -- ----- to ---- ------<br>--- ----- --- --- ------ -------- ----- --- ------ ----- --<br>----- ----- ---------- --- --- ------ ------ ---- -- ------<br>------- --- ------ ----- --- ---- ------- -- ---- --- --<br>------- ------,142171.98500000086,142170.49499999848,141772.43,141780.3350000031,141789.056,142188.08,,19,to
screen,html.Screen,1_1_1_1_20,2021-04-15T09:53:11.669Z,,,,,,,,,,,,,,,,54,,,,,,,,,,,,,,326.56000000124914,,response,,,,100,,,,,,,Space,keypress(Space),,,,,,,,-- --- ---- --- ------ ----- ------- ---- -- --- ------- --<br>------- ---------- ------ -- ----- -- ----- -- save ------<br>--- ----- --- --- ------ -------- ----- --- ------ ----- --<br>----- ----- ---------- --- --- ------ ------ ---- -- ------<br>------- --- ------ ----- --- ---- ------- -- ---- --- --<br>------- ------,142516.25500000227,142514.64000000124,142171.454,142172.1350000007,142188.08,142520.6,,20,save
screen,html.Screen,1_1_1_1_21,2021-04-15T09:53:11.973Z,,,,,,,,,,,,,,,,54,,,,,,,,,,,,,,298.12499999735155,,response,,,,100,,,,,,,Space,keypress(Space),,,,,,,,"-- --- ---- --- ------ ----- ------- ---- -- --- ------- --<br>------- ---------- ------ -- ----- -- ----- -- ---- money,<br>--- ----- --- --- ------ -------- ----- --- ------ ----- --<br>----- ----- ---------- --- --- ------ ------ ---- -- ------<br>------- --- ------ ----- --- ---- ------- -- ---- --- --<br>------- ------",142820.41000000027,142818.72499999736,142503.974,142516.40500000212,142520.6,142836.494,,21,"money,"
screen,html.Screen,1_1_1_1_22,2021-04-15T09:53:12.389Z,,,,,,,,,,,,,,,,54,,,,,,,,,,,,,,398.14600000239443,,response,,,,100,,,,,,,Space,keypress(Space),,,,,,,,-- --- ---- --- ------ ----- ------- ---- -- --- ------- --<br>------- ---------- ------ -- ----- -- ----- -- ---- ------<br>the ----- --- --- ------ -------- ----- --- ------ ----- --<br>----- ----- ---------- --- --- ------ ------ ---- -- ------<br>------- --- ------ ----- --- ---- ------- -- ---- --- --<br>------- ------,143236.20500000106,143234.6400000024,142819.868,142820.5650000018,142836.494,143252.144,,22,the
screen,html.Screen,1_1_1_1_23,2021-04-15T09:53:12.717Z,,,,,,,,,,,,,,,,54,,,,,,,,,,,,,,310.4359999979788,,response,,,,100,,,,,,,Space,keypress(Space),,,,,,,,-- --- ---- --- ------ ----- ------- ---- -- --- ------- --<br>------- ---------- ------ -- ----- -- ----- -- ---- ------<br>--- state --- --- ------ -------- ----- --- ------ ----- --<br>----- ----- ---------- --- --- ------ ------ ---- -- ------<br>------- --- ------ ----- --- ---- ------- -- ---- --- --<br>------- ------,143564.2050000024,143562.57999999798,143235.518,143236.34999999922,143252.144,143568.038,,23,state
screen,html.Screen,1_1_1_1_24,2021-04-15T09:53:13.053Z,,,,,,,,,,,,,,,,54,,,,,,,,,,,,,,330.4719999990775,,response,,,,100,,,,,,,Space,keypress(Space),,,,,,,,-- --- ---- --- ------ ----- ------- ---- -- --- ------- --<br>------- ---------- ------ -- ----- -- ----- -- ---- ------<br>--- ----- cut --- ------ -------- ----- --- ------ ----- --<br>----- ----- ---------- --- --- ------ ------ ---- -- ------<br>------- --- ------ ----- --- ---- ------- -- ---- --- --<br>------- ------,143900.4649999988,143898.50999999908,143551.412,143564.35500000225,143568.038,143917.184,,24,cut
screen,html.Screen,1_1_1_1_25,2021-04-15T09:53:13.349Z,,,,,,,,,,,,,,,,54,,,,,,,,,,,,,,277.46100000321167,,response,,,,100,,,,,,,Space,keypress(Space),,,,,,,,-- --- ---- --- ------ ----- ------- ---- -- --- ------- --<br>------- ---------- ------ -- ----- -- ----- -- ---- ------<br>--- ----- --- the ------ -------- ----- --- ------ ----- --<br>----- ----- ---------- --- --- ------ ------ ---- -- ------<br>------- --- ------ ----- --- ---- ------- -- ---- --- --<br>------- ------,144196.25500000257,144194.64500000322,143900.558,143900.70500000002,143917.184,144199.826,,25,the
screen,html.Screen,1_1_1_1_26,2021-04-15T09:53:13.661Z,,,,,,,,,,,,,,,,54,,,,,,,,,,,,,,306.81900000129826,,response,,,,100,,,,,,,Space,keypress(Space),,,,,,,,-- --- ---- --- ------ ----- ------- ---- -- --- ------- --<br>------- ---------- ------ -- ----- -- ----- -- ---- ------<br>--- ----- --- --- bonds' -------- ----- --- ------ ----- --<br>----- ----- ---------- --- --- ------ ------ ---- -- ------<br>------- --- ------ ----- --- ---- ------- -- ---- --- --<br>------- ------,144508.32999999693,144506.6450000013,144183.2,144196.40999999683,144199.826,144515.72,,26,bonds'
screen,html.Screen,1_1_1_1_27,2021-04-15T09:53:13.957Z,,,,,,,,,,,,,,,,54,,,,,,,,,,,,,,286.9250000033935,,response,,,,100,,,,,,,Space,keypress(Space),,,,,,,,-- --- ---- --- ------ ----- ------- ---- -- --- ------- --<br>------- ---------- ------ -- ----- -- ----- -- ---- ------<br>--- ----- --- --- ------ interest ----- --- ------ ----- --<br>----- ----- ---------- --- --- ------ ------ ---- -- ------<br>------- --- ------ ----- --- ---- ------- -- ---- --- --<br>------- ------,144804.20500000037,144802.6450000034,144499.094,144508.47500000236,144515.72,144814.988,,27,interest
screen,html.Screen,1_1_1_1_28,2021-04-15T09:53:14.277Z,,,,,,,,,,,,,,,,54,,,,,,,,,,,,,,307.6570000030915,,response,,,,100,,,,,,,Space,keypress(Space),,,,,,,,-- --- ---- --- ------ ----- ------- ---- -- --- ------- --<br>------- ---------- ------ -- ----- -- ----- -- ---- ------<br>--- ----- --- --- ------ -------- rate. --- ------ ----- --<br>----- ----- ---------- --- --- ------ ------ ---- -- ------<br>------- --- ------ ----- --- ---- ------- -- ---- --- --<br>------- ------,145124.27000000025,145122.6450000031,144798.362,144804.3550000002,144814.988,145130.882,,28,rate.
screen,html.Screen,1_1_1_1_29,2021-04-15T09:53:14.613Z,,,,,,,,,,,,,,,,54,,,,,,,,,,,,,,327.7530000026745,,response,,,,100,,,,,,,Space,keypress(Space),,,,,,,,-- --- ---- --- ------ ----- ------- ---- -- --- ------- --<br>------- ---------- ------ -- ----- -- ----- -- ---- ------<br>--- ----- --- --- ------ -------- ----- The ------ ----- --<br>----- ----- ---------- --- --- ------ ------ ---- -- ------<br>------- --- ------ ----- --- ---- ------- -- ---- --- --<br>------- ------,145460.55999999953,145458.6350000027,145114.256,145124.4250000018,145130.882,145464.267,,29,The
screen,html.Screen,1_1_1_1_30,2021-04-15T09:53:15.021Z,,,,,,,,,,,,,,,,54,,,,,,,,,,,,,,402.36799999850336,,response,,,,100,,,,,,,Space,keypress(Space),,,,,,,,-- --- ---- --- ------ ----- ------- ---- -- --- ------- --<br>------- ---------- ------ -- ----- -- ----- -- ---- ------<br>--- ----- --- --- ------ -------- ----- --- market ----- --<br>----- ----- ---------- --- --- ------ ------ ---- -- ------<br>------- --- ------ ----- --- ---- ------- -- ---- --- --<br>------- ------,145868.23000000004,145866.6349999985,145447.641,145460.71500000107,145464.267,145879.917,,30,market
screen,html.Screen,1_1_1_1_31,2021-04-15T09:53:15.477Z,,,,,,,,,,,,,,,,54,,,,,,,,,,,,,,442.7380000035919,,response,,,,100,,,,,,,Space,keypress(Space),,,,,,,,-- --- ---- --- ------ ----- ------- ---- -- --- ------- --<br>------- ---------- ------ -- ----- -- ----- -- ---- ------<br>--- ----- --- --- ------ -------- ----- --- ------ value --<br>----- ----- ---------- --- --- ------ ------ ---- -- ------<br>------- --- ------ ----- --- ---- ------- -- ---- --- --<br>------- ------,146324.26999999734,146322.65500000358,145863.291,145868.3699999965,145879.917,146328.819,,31,value
screen,html.Screen,1_1_1_1_32,2021-04-15T09:53:15.917Z,,,,,,,,,,,,,,,,54,,,,,,,,,,,,,,433.8109999974549,,response,,,,100,,,,,,,Space,keypress(Space),,,,,,,,-- --- ---- --- ------ ----- ------- ---- -- --- ------- --<br>------- ---------- ------ -- ----- -- ----- -- ---- ------<br>--- ----- --- --- ------ -------- ----- --- ------ ----- of<br>----- ----- ---------- --- --- ------ ------ ---- -- ------<br>------- --- ------ ----- --- ---- ------- -- ---- --- --<br>------- ------,146764.2399999968,146762.62999999744,146312.193,146324.4199999972,146328.819,146777.721,,32,of
screen,html.Screen,1_1_1_1_33,2021-04-15T09:53:16.501Z,,,,,,,,,,,,,,,,54,,,,,,,,,,,,,,568.9140000017069,,response,,,,100,,,,,,,Space,keypress(Space),,,,,,,,-- --- ---- --- ------ ----- ------- ---- -- --- ------- --<br>------- ---------- ------ -- ----- -- ----- -- ---- ------<br>--- ----- --- --- ------ -------- ----- --- ------ ----- --<br>these ----- ---------- --- --- ------ ------ ---- -- ------<br>------- --- ------ ----- --- ---- ------- -- ---- --- --<br>------- ------,147348.26500000054,147346.6350000017,146761.095,146764.38999999664,146777.721,147359.631,,33,these
screen,html.Screen,1_1_1_1_34,2021-04-15T09:53:16.917Z,,,,,,,,,,,,,,,,54,,,,,,,,,,,,,,403.00900000083493,,response,,,,100,,,,,,,Space,keypress(Space),,,,,,,,-- --- ---- --- ------ ----- ------- ---- -- --- ------- --<br>------- ---------- ------ -- ----- -- ----- -- ---- ------<br>--- ----- --- --- ------ -------- ----- --- ------ ----- --<br>----- bonds ---------- --- --- ------ ------ ---- -- ------<br>------- --- ------ ----- --- ---- ------- -- ---- --- --<br>------- ------,147764.28999999916,147762.64000000083,147343.005,147348.4099999987,147359.631,147775.281,,34,bonds
screen,html.Screen,1_1_1_1_35,2021-04-15T09:53:17.309Z,,,,,,,,,,,,,,,,54,,,,,,,,,,,,,,379.35900000066613,,response,,,,100,,,,,,,Space,keypress(Space),,,,,,,,"-- --- ---- --- ------ ----- ------- ---- -- --- ------- --<br>------- ---------- ------ -- ----- -- ----- -- ---- ------<br>--- ----- --- --- ------ -------- ----- --- ------ ----- --<br>----- ----- plummeted, --- --- ------ ------ ---- -- ------<br>------- --- ------ ----- --- ---- ------- -- ---- --- --<br>------- ------",148156.32000000187,148154.64000000065,147758.655,147764.439999999,147775.281,148157.679,,35,"plummeted,"
screen,html.Screen,1_1_1_1_36,2021-04-15T09:53:17.733Z,,,,,,,,,,,,,,,,54,,,,,,,,,,,,,,421.0360000032815,,response,,,,100,,,,,,,Space,keypress(Space),,,,,,,,-- --- ---- --- ------ ----- ------- ---- -- --- ------- --<br>------- ---------- ------ -- ----- -- ----- -- ---- ------<br>--- ----- --- --- ------ -------- ----- --- ------ ----- --<br>----- ----- ---------- and --- ------ ------ ---- -- ------<br>------- --- ------ ----- --- ---- ------- -- ---- --- --<br>------- ------,148580.45500000298,148578.71500000329,148141.053,148156.4750000034,148157.679,148589.955,,36,and
screen,html.Screen,1_1_1_1_37,2021-04-15T09:53:18.053Z,,,,,,,,,,,,,,,,54,,,,,,,,,,,,,,308.5549999990908,,response,,,,100,,,,,,,Space,keypress(Space),,,,,,,,-- --- ---- --- ------ ----- ------- ---- -- --- ------- --<br>------- ---------- ------ -- ----- -- ----- -- ---- ------<br>--- ----- --- --- ------ -------- ----- --- ------ ----- --<br>----- ----- ---------- --- the ------ ------ ---- -- ------<br>------- --- ------ ----- --- ---- ------- -- ---- --- --<br>------- ------,148900.00999999756,148898.50999999908,148573.329,148580.60500000283,148589.955,148905.849,,37,the
screen,html.Screen,1_1_1_1_38,2021-04-15T09:53:18.389Z,,,,,,,,,,,,,,,,54,,,,,,,,,,,,,,328.7710000029183,,response,,,,100,,,,,,,Space,keypress(Space),,,,,,,,-- --- ---- --- ------ ----- ------- ---- -- --- ------- --<br>------- ---------- ------ -- ----- -- ----- -- ---- ------<br>--- ----- --- --- ------ -------- ----- --- ------ ----- --<br>----- ----- ---------- --- --- market ------ ---- -- ------<br>------- --- ------ ----- --- ---- ------- -- ---- --- --<br>------- ------,149236.28499999904,149234.6200000029,148889.223,148900.1649999991,148905.849,149238.369,,38,market
screen,html.Screen,1_1_1_1_39,2021-04-15T09:53:18.733Z,,,,,,,,,,,,,,,,54,,,,,,,,,,,,,,340.2659999980242,,response,,,,100,,,,,,,Space,keypress(Space),,,,,,,,-- --- ---- --- ------ ----- ------- ---- -- --- ------- --<br>------- ---------- ------ -- ----- -- ----- -- ---- ------<br>--- ----- --- --- ------ -------- ----- --- ------ ----- --<br>----- ----- ---------- --- --- ------ became ---- -- ------<br>------- --- ------ ----- --- ---- ------- -- ---- --- --<br>------- ------,149580.26000000245,149578.63499999803,149221.743,149236.4499999967,149238.369,149587.515,,39,became
screen,html.Screen,1_1_1_1_40,2021-04-15T09:53:19.061Z,,,,,,,,,,,,,,,,54,,,,,,,,,,,,,,319.11999999935506,,response,,,,100,,,,,,,Space,keypress(Space),,,,,,,,-- --- ---- --- ------ ----- ------- ---- -- --- ------- --<br>------- ---------- ------ -- ----- -- ----- -- ---- ------<br>--- ----- --- --- ------ -------- ----- --- ------ ----- --<br>----- ----- ---------- --- --- ------ ------ wary -- ------<br>------- --- ------ ----- --- ---- ------- -- ---- --- --<br>------- ------,149908.22499999922,149906.63499999937,149570.889,149580.4100000023,149587.515,149920.035,,40,wary
screen,html.Screen,1_1_1_1_41,2021-04-15T09:53:19.349Z,,,,,,,,,,,,,,,,54,,,,,,,,,,,,,,274.6050000015239,,response,,,,100,,,,,,,Space,keypress(Space),,,,,,,,-- --- ---- --- ------ ----- ------- ---- -- --- ------- --<br>------- ---------- ------ -- ----- -- ----- -- ---- ------<br>--- ----- --- --- ------ -------- ----- --- ------ ----- --<br>----- ----- ---------- --- --- ------ ------ ---- of ------<br>------- --- ------ ----- --- ---- ------- -- ---- --- --<br>------- ------,150196.26499999868,150194.64000000153,149903.409,149908.36500000296,149920.035,150202.677,,41,of
screen,html.Screen,1_1_1_1_42,2021-04-15T09:53:19.669Z,,,,,,,,,,,,,,,,54,,,,,,,,,,,,,,311.96800000293297,,response,,,,100,,,,,,,Space,keypress(Space),,,,,,,,-- --- ---- --- ------ ----- ------- ---- -- --- ------- --<br>------- ---------- ------ -- ----- -- ----- -- ---- ------<br>--- ----- --- --- ------ -------- ----- --- ------ ----- --<br>----- ----- ---------- --- --- ------ ------ ---- -- French<br>------- --- ------ ----- --- ---- ------- -- ---- --- --<br>------- ------,150516.26499999838,150514.64500000293,150186.051,150196.41499999852,150202.677,150518.571,,42,French
screen,html.Screen,1_1_1_1_43,2021-04-15T09:53:20.005Z,,,,,,,,,,,,,,,,54,,,,,,,,,,,,,,332.06400000251597,,response,,,,100,,,,,,,Space,keypress(Space),,,,,,,,-- --- ---- --- ------ ----- ------- ---- -- --- ------- --<br>------- ---------- ------ -- ----- -- ----- -- ---- ------<br>--- ----- --- --- ------ -------- ----- --- ------ ----- --<br>----- ----- ---------- --- --- ------ ------ ---- -- ------<br>credit. --- ------ ----- --- ---- ------- -- ---- --- --<br>------- ------,150852.27999999915,150850.6350000025,150501.945,150516.40999999654,150518.571,150867.717,,43,credit.
screen,html.Screen,1_1_1_1_44,2021-04-15T09:53:20.349Z,,,,,,,,,,,,,,,,54,,,,,,,,,,,,,,326.92800000321586,,response,,,,100,,,,,,,Space,keypress(Space),,,,,,,,-- --- ---- --- ------ ----- ------- ---- -- --- ------- --<br>------- ---------- ------ -- ----- -- ----- -- ---- ------<br>--- ----- --- --- ------ -------- ----- --- ------ ----- --<br>----- ----- ---------- --- --- ------ ------ ---- -- ------<br>------- The ------ ----- --- ---- ------- -- ---- --- --<br>------- ------,151196.28999999986,151194.64500000322,150851.091,150852.4249999973,150867.717,151200.237,,44,The
screen,html.Screen,1_1_1_1_45,2021-04-15T09:53:20.693Z,,,,,,,,,,,,,,,,54,,,,,,,,,,,,,,338.46799999903305,,response,,,,100,,,,,,,Space,keypress(Space),,,,,,,,-- --- ---- --- ------ ----- ------- ---- -- --- ------- --<br>------- ---------- ------ -- ----- -- ----- -- ---- ------<br>--- ----- --- --- ------ -------- ----- --- ------ ----- --<br>----- ----- ---------- --- --- ------ ------ ---- -- ------<br>------- --- French ----- --- ---- ------- -- ---- --- --<br>------- ------,151540.41500000312,151538.70499999903,151183.611,151196.4399999997,151200.237,151549.383,,45,French
screen,html.Screen,1_1_1_1_46,2021-04-15T09:53:21.077Z,,,,,,,,,,,,,,,,54,,,,,,,,,,,,,,373.24700000093435,,response,,,,100,,,,,,,Space,keypress(Space),,,,,,,,-- --- ---- --- ------ ----- ------- ---- -- --- ------- --<br>------- ---------- ------ -- ----- -- ----- -- ---- ------<br>--- ----- --- --- ------ -------- ----- --- ------ ----- --<br>----- ----- ---------- --- --- ------ ------ ---- -- ------<br>------- --- ------ state --- ---- ------- -- ---- --- --<br>------- ------,151924.2200000008,151922.63000000094,151532.757,151540.56000000128,151549.383,151931.781,,46,state
screen,html.Screen,1_1_1_1_47,2021-04-15T09:53:21.413Z,,,,,,,,,,,,,,,,54,,,,,,,,,,,,,,326.7990000015416,,response,,,,100,,,,,,,Space,keypress(Space),,,,,,,,-- --- ---- --- ------ ----- ------- ---- -- --- ------- --<br>------- ---------- ------ -- ----- -- ----- -- ---- ------<br>--- ----- --- --- ------ -------- ----- --- ------ ----- --<br>----- ----- ---------- --- --- ------ ------ ---- -- ------<br>------- --- ------ ----- was ---- ------- -- ---- --- --<br>------- ------,152260.0999999995,152258.58000000153,151915.155,151924.37000000064,151931.781,152264.301,,47,was
screen,html.Screen,1_1_1_1_48,2021-04-15T09:53:21.789Z,,,,,,,,,,,,,,,,54,,,,,,,,,,,,,,370.33400000215624,,response,,,,100,,,,,,,Space,keypress(Space),,,,,,,,-- --- ---- --- ------ ----- ------- ---- -- --- ------- --<br>------- ---------- ------ -- ----- -- ----- -- ---- ------<br>--- ----- --- --- ------ -------- ----- --- ------ ----- --<br>----- ----- ---------- --- --- ------ ------ ---- -- ------<br>------- --- ------ ----- --- left ------- -- ---- --- --<br>------- ------,152636.2599999993,152634.63500000216,152247.675,152260.24499999767,152264.301,152646.699,,48,left
screen,html.Screen,1_1_1_1_49,2021-04-15T09:53:22.093Z,,,,,,,,,,,,,,,,54,,,,,,,,,,,,,,291.89599999962957,,response,,,,100,,,,,,,Space,keypress(Space),,,,,,,,-- --- ---- --- ------ ----- ------- ---- -- --- ------- --<br>------- ---------- ------ -- ----- -- ----- -- ---- ------<br>--- ----- --- --- ------ -------- ----- --- ------ ----- --<br>----- ----- ---------- --- --- ------ ------ ---- -- ------<br>------- --- ------ ----- --- ---- without -- ---- --- --<br>------- ------,152940.24000000354,152938.59499999962,152630.073,152636.40000000305,152646.699,152945.967,,49,without
screen,html.Screen,1_1_1_1_50,2021-04-15T09:53:22.437Z,,,,,,,,,,,,,,,,54,,,,,,,,,,,,,,336.6830000010086,,response,,,,100,,,,,,,Space,keypress(Space),,,,,,,,-- --- ---- --- ------ ----- ------- ---- -- --- ------- --<br>------- ---------- ------ -- ----- -- ----- -- ---- ------<br>--- ----- --- --- ------ -------- ----- --- ------ ----- --<br>----- ----- ---------- --- --- ------ ------ ---- -- ------<br>------- --- ------ ----- --- ---- ------- an ---- --- --<br>------- ------,153284.22000000137,153282.650000001,152929.341,152940.3900000034,152945.967,153295.113,,50,an
screen,html.Screen,1_1_1_1_51,2021-04-15T09:53:22.773Z,,,,,,,,,,,,,,,,54,,,,,,,,,,,,,,323.6019999968703,,response,,,,100,,,,,,,Space,keypress(Space),,,,,,,,-- --- ---- --- ------ ----- ------- ---- -- --- ------- --<br>------- ---------- ------ -- ----- -- ----- -- ---- ------<br>--- ----- --- --- ------ -------- ----- --- ------ ----- --<br>----- ----- ---------- --- --- ------ ------ ---- -- ------<br>------- --- ------ ----- --- ---- ------- -- easy --- --<br>------- ------,153620.4349999971,153618.71499999688,153278.487,153284.37000000122,153295.113,153627.633,,51,easy
screen,html.Screen,1_1_1_1_52,2021-04-15T09:53:23.125Z,,,,,,,,,,,,,,,,54,,,,,,,,,,,,,,343.0069999995467,,response,,,,100,,,,,,,Space,keypress(Space),,,,,,,,-- --- ---- --- ------ ----- ------- ---- -- --- ------- --<br>------- ---------- ------ -- ----- -- ----- -- ---- ------<br>--- ----- --- --- ------ -------- ----- --- ------ ----- --<br>----- ----- ---------- --- --- ------ ------ ---- -- ------<br>------- --- ------ ----- --- ---- ------- -- ---- way --<br>------- ------,153972.28500000347,153970.63999999955,153611.007,153620.58499999694,153627.633,153976.779,,52,way
screen,html.Screen,1_1_1_1_53,2021-04-15T09:53:23.509Z,,,,,,,,,,,,,,,,54,,,,,,,,,,,,,,377.96100000248407,,response,,,,100,,,,,,,Space,keypress(Space),,,,,,,,-- --- ---- --- ------ ----- ------- ---- -- --- ------- --<br>------- ---------- ------ -- ----- -- ----- -- ---- ------<br>--- ----- --- --- ------ -------- ----- --- ------ ----- --<br>----- ----- ---------- --- --- ------ ------ ---- -- ------<br>------- --- ------ ----- --- ---- ------- -- ---- --- of<br>------- ------,154356.59000000305,154354.7400000025,153960.153,153972.43000000162,153976.779,154359.177,,53,of
screen,html.Screen,1_1_1_1_54,2021-04-15T09:53:23.933Z,,,,,,,,,,,,,,,,54,,,,,,,,,,,,,,419.4580000023998,,response,,,,100,,,,,,,Space,keypress(Space),,,,,,,,-- --- ---- --- ------ ----- ------- ---- -- --- ------- --<br>------- ---------- ------ -- ----- -- ----- -- ---- ------<br>--- ----- --- --- ------ -------- ----- --- ------ ----- --<br>----- ----- ---------- --- --- ------ ------ ---- -- ------<br>------- --- ------ ----- --- ---- ------- -- ---- --- --<br>raising ------,154780.17499999987,154778.6350000024,154342.551,154356.7400000029,154359.177,154791.453,,54,raising
screen,html.Screen,1_1_1_1_55,2021-04-15T09:53:24.389Z,,,,,,,,,,,,,,,,54,,,,,,,,,,,,,,443.18700000239187,,response,,,,100,,,,,,,Space,keypress(Space),,,,,,,,-- --- ---- --- ------ ----- ------- ---- -- --- ------- --<br>------- ---------- ------ -- ----- -- ----- -- ---- ------<br>--- ----- --- --- ------ -------- ----- --- ------ ----- --<br>----- ----- ---------- --- --- ------ ------ ---- -- ------<br>------- --- ------ ----- --- ---- ------- -- ---- --- --<br>------- money.,155236.21000000276,155234.6400000024,154774.827,154780.31999999803,154791.453,155240.355,,55,money.
Item 100,flow.Loop,1_1_1_1,2021-04-15T09:53:24.389Z,,,,,,,,,,,,,,,,,,,,,,,,,,,,,,20512.537000002398,,completion,,,,,C,,,,,,,,,,,silence,,,,,155236.47999999957,155234.6400000024,134705.477,134706.8599999984,134722.103,155240.355,,,
Question 1,html.Screen,1_1_1_2,2021-04-15T09:53:27.280Z,,,,,,,,,,,,,,,,,,,,,,,,,,,true,TRUE,,2885.2849999983737,,response,,,,100,C,,,,,,TRUE,click #choice-1,,,,silence,,,,,158127.51500000013,158125.63999999838,155223.729,155236.59500000213,155240.355,158134.21,,,
Question 2,html.Screen,1_1_1_3,2021-04-15T09:53:29.624Z,,,,,,,,,,,,,,,,,,,,,,,,,,,true,FALSE,,2335.4300000029907,,response,,,,100,C,,,,,,FALSE,click #choice-2,,,,silence,,,,,160471.4099999983,160469.64000000298,158117.584,158127.66499999998,158134.21,160478.476,,,
Item 100,flow.Sequence,1_1_1,2021-04-15T09:53:29.624Z,,,,,,,,,,,,,,,,,,,,,,,,,,,,,,35740.68900000298,,completion,,,,,,,,,,,,,,,,,,,,,160471.6499999995,160469.64000000298,124712.325,124715.72500000184,124728.951,160478.476,,,
End of Practice,html.Page,1_1_2,2021-04-15T09:53:32.474Z,,,,,,,,,,,,,,,,,,,,,,,,,,,,,,2842.983999999211,,form submission,,,,,,,,,,,,,,,,,,,,,163321.7700000023,163321.4599999992,160461.85,160471.77999999985,160478.476,163321.522,,,
Practice,flow.Sequence,1_1,2021-04-15T09:53:32.474Z,,,,,,,,,,,,,,,,,,,,,,,,,,,,,,78464.4479999992,,completion,,,,,,,,,,,,,,,,,,,,,163322.0050000018,163321.4599999992,84840.386,84853.34000000148,84857.012,163321.522,,,
Trap_instruction,html.Page,1_2_0,2021-04-15T09:53:36.376Z,,,,,,,,,,,,,,,,,,,,,,,,,,,,,,3902.247999996878,,form submission,,,,,,,,,,,,,,,,,,,,,167224.06999999657,167223.76999999688,163304.896,163322.16999999946,163321.522,167228.632,,,
trap_trial,html.Screen,1_2_1,2021-04-15T09:53:39.431Z,,,,,,,,,,,,,,,,,,,,,,,,,,,true,1,,3048.9730000029376,,response,,,,,,,,,,,1,click #choice-1,,,,,,,,,170279.30500000366,170277.60500000295,167212.006,167224.215000002,167228.632,170288.705,,,
end of trap trial,html.Page,1_2_2,2021-04-15T09:53:41.442Z,,,,,,,,,,,,,,,,,,,,,,,,,,,,,,2000.57000000283,,form submission,,,,,,,,,,,,,,,,,,,,,172289.55999999744,172289.27500000282,170272.079,170279.45000000182,170288.705,172300.451,,,
Trap 1,flow.Sequence,1_2,2021-04-15T09:53:41.442Z,,,,,,,,,,,,,,,,,,,,,,,,,,,,,,8967.75300000282,,completion,,,,,,,,,,,,,,,,,,,,,172289.79499999696,172289.27500000282,163304.896,163322.11999999708,163321.522,172300.451,,,
Standby,html.Page,1_3_0,2021-04-15T09:53:49.435Z,,,,,,,,,,,,,,,,,,,,,,,,,,,,,,7997.106,,timeout,,,,,,,,,,,,,,,,,,,,,180283.19500000362,180280.931,172283.825,172289.9550000002,172300.451,180297.557,,,
Holding screen,html.Screen,1_3_1_0_0,2021-04-15T09:53:56.435Z,,,,,,,,,,,,,,,,,,,,,,,,,,,,,,7000.866999999998,,timeout,,,,,,,,,,,,,,,,,,,,,187283.3249999967,187281.798,180280.931,180283.41499999806,180297.557,187298.424,,,
screen,html.Screen,1_3_1_0_1_0,2021-04-15T09:53:58.117Z,,,,,,,,,,,,,,,,51,,,,,,,,,,,,,,1664.2760000036797,,response,,,,13,C,,,,,,Space,keypress(Space),,,,instrumental,,,,American -------- --- --- ---- --- --- ------ -- --------<br>---- --------- --- ------- ------------ ---------- ---------<br>--- ---------- ------- ---------- ------- -- -------- ----<br>---- --- ------ ----- ------ -- ---- --- ----- -- - -------<br>-------- -- --- --- -- ----- ----------- ----- -----------<br>---- --- ---------- --- ---- --- -- ----------,188965.04000000277,188962.70000000368,187281.798,187283.53999999672,187298.424,188977.65,,0,American
screen,html.Screen,1_3_1_0_1_1,2021-04-15T09:53:58.508Z,,,,,,,,,,,,,,,,51,,,,,,,,,,,,,,377.0349999984319,,response,,,,13,C,,,,,,Space,keypress(Space),,,,instrumental,,,,-------- industry --- --- ---- --- --- ------ -- --------<br>---- --------- --- ------- ------------ ---------- ---------<br>--- ---------- ------- ---------- ------- -- -------- ----<br>---- --- ------ ----- ------ -- ---- --- ----- -- - -------<br>-------- -- --- --- -- ----- ----------- ----- -----------<br>---- --- ---------- --- ---- --- -- ----------,189356.30500000116,189354.68499999843,188961.024,188965.21000000212,188977.65,189360.048,,1,industry
screen,html.Screen,1_3_1_0_1_2,2021-04-15T09:53:58.844Z,,,,,,,,,,,,,,,,51,,,,,,,,,,,,,,330.5920000007027,,response,,,,13,C,,,,,,Space,keypress(Space),,,,instrumental,,,,-------- -------- may --- ---- --- --- ------ -- --------<br>---- --------- --- ------- ------------ ---------- ---------<br>--- ---------- ------- ---------- ------- -- -------- ----<br>---- --- ------ ----- ------ -- ---- --- ----- -- - -------<br>-------- -- --- --- -- ----- ----------- ----- -----------<br>---- --- ---------- --- ---- --- -- ----------,189692.22499999887,189690.6400000007,189343.422,189356.44499999762,189360.048,189709.194,,2,may
screen,html.Screen,1_3_1_0_1_3,2021-04-15T09:53:59.220Z,,,,,,,,,,,,,,,,51,,,,,,,,,,,,,,357.29599999744096,,response,,,,13,C,,,,,,Space,keypress(Space),,,,instrumental,,,,-------- -------- --- not ---- --- --- ------ -- --------<br>---- --------- --- ------- ------------ ---------- ---------<br>--- ---------- ------- ---------- ------- -- -------- ----<br>---- --- ------ ----- ------ -- ---- --- ----- -- - -------<br>-------- -- --- --- -- ----- ----------- ----- -----------<br>---- --- ---------- --- ---- --- -- ----------,190068.09500000236,190066.48999999743,189692.568,189692.36999999703,189709.194,190074.966,,3,not
screen,html.Screen,1_3_1_0_1_4,2021-04-15T09:53:59.596Z,,,,,,,,,,,,,,,,51,,,,,,,,,,,,,,367.73900000131107,,response,,,,13,C,,,,,,Space,keypress(Space),,,,instrumental,,,,-------- -------- --- --- know --- --- ------ -- --------<br>---- --------- --- ------- ------------ ---------- ---------<br>--- ---------- ------- ---------- ------- -- -------- ----<br>---- --- ------ ----- ------ -- ---- --- ----- -- - -------<br>-------- -- --- --- -- ----- ----------- ----- -----------<br>---- --- ---------- --- ---- --- -- ----------,190444.4399999993,190442.7050000013,190058.34,190068.2450000022,190074.966,190457.364,,4,know
screen,html.Screen,1_3_1_0_1_5,2021-04-15T09:53:59.972Z,,,,,,,,,,,,,,,,51,,,,,,,,,,,,,,361.27599999768427,,response,,,,13,C,,,,,,Space,keypress(Space),,,,instrumental,,,,"-------- -------- --- --- ---- it, --- ------ -- --------<br>---- --------- --- ------- ------------ ---------- ---------<br>--- ---------- ------- ---------- ------- -- -------- ----<br>---- --- ------ ----- ------ -- ---- --- ----- -- - -------<br>-------- -- --- --- -- ----- ----------- ----- -----------<br>---- --- ---------- --- ---- --- -- ----------",190820.2850000016,190818.6399999977,190440.738,190444.58999999915,190457.364,190823.136,,5,"it,"
screen,html.Screen,1_3_1_0_1_6,2021-04-15T09:54:00.492Z,,,,,,,,,,,,,,,,51,,,,,,,,,,,,,,515.4889999966836,,response,,,,13,C,,,,,,Space,keypress(Space),,,,instrumental,,,,-------- -------- --- --- ---- --- but ------ -- --------<br>---- --------- --- ------- ------------ ---------- ---------<br>--- ---------- ------- ---------- ------- -- -------- ----<br>---- --- ------ ----- ------ -- ---- --- ----- -- - -------<br>-------- -- --- --- -- ----- ----------- ----- -----------<br>---- --- ---------- --- ---- --- -- ----------,191340.17000000313,191338.62499999668,190806.51,190820.45500000095,190823.136,191356.078,,6,but
screen,html.Screen,1_3_1_0_1_7,2021-04-15T09:54:00.860Z,,,,,,,,,,,,,,,,51,,,,,,,,,,,,,,350.40200000072946,,response,,,,13,C,,,,,,Space,keypress(Space),,,,instrumental,,,,-------- -------- --- --- ---- --- --- debate -- --------<br>---- --------- --- ------- ------------ ---------- ---------<br>--- ---------- ------- ---------- ------- -- -------- ----<br>---- --- ------ ----- ------ -- ---- --- ----- -- - -------<br>-------- -- --- --- -- ----- ----------- ----- -----------<br>---- --- ---------- --- ---- --- -- ----------,191708.0199999982,191706.48000000074,191339.452,191340.2950000018,191356.078,191721.85,,7,debate
screen,html.Screen,1_3_1_0_1_8,2021-04-15T09:54:01.212Z,,,,,,,,,,,,,,,,51,,,,,,,,,,,,,,336.78500000122585,,response,,,,13,C,,,,,,Space,keypress(Space),,,,instrumental,,,,-------- -------- --- --- ---- --- --- ------ in --------<br>---- --------- --- ------- ------------ ---------- ---------<br>--- ---------- ------- ---------- ------- -- -------- ----<br>---- --- ------ ----- ------ -- ---- --- ----- -- - -------<br>-------- -- --- --- -- ----- ----------- ----- -----------<br>---- --- ---------- --- ---- --- -- ----------,192060.2149999977,192058.63500000123,191705.224,191708.17499999976,191721.85,192070.996,,8,in
screen,html.Screen,1_3_1_0_1_9,2021-04-15T09:54:01.532Z,,,,,,,,,,,,,,,,51,,,,,,,,,,,,,,307.6440000026196,,response,,,,13,C,,,,,,Space,keypress(Space),,,,instrumental,,,,-------- -------- --- --- ---- --- --- ------ -- Congress<br>---- --------- --- ------- ------------ ---------- ---------<br>--- ---------- ------- ---------- ------- -- -------- ----<br>---- --- ------ ----- ------ -- ---- --- ----- -- - -------<br>-------- -- --- --- -- ----- ----------- ----- -----------<br>---- --- ---------- --- ---- --- -- ----------,192380.2250000008,192378.64000000263,192054.37,192060.36000000313,192070.996,192386.89,,9,Congress
screen,html.Screen,1_3_1_0_1_10,2021-04-15T09:54:01.900Z,,,,,,,,,,,,,,,,51,,,,,,,,,,,,,,359.75499999924796,,response,,,,13,C,,,,,,Space,keypress(Space),,,,instrumental,,,,-------- -------- --- --- ---- --- --- ------ -- --------<br>over --------- --- ------- ------------ ---------- ---------<br>--- ---------- ------- ---------- ------- -- -------- ----<br>---- --- ------ ----- ------ -- ---- --- ----- -- - -------<br>-------- -- --- --- -- ----- ----------- ----- -----------<br>---- --- ---------- --- ---- --- -- ----------,192748.48000000202,192746.64499999926,192370.264,192380.36999999895,192386.89,192752.662,,10,over
screen,html.Screen,1_3_1_0_1_11,2021-04-15T09:54:02.260Z,,,,,,,,,,,,,,,,51,,,,,,,,,,,,,,353.92300000134856,,response,,,,13,C,,,,,,Space,keypress(Space),,,,instrumental,,,,-------- -------- --- --- ---- --- --- ------ -- --------<br>---- reforming --- ------- ------------ ---------- ---------<br>--- ---------- ------- ---------- ------- -- -------- ----<br>---- --- ------ ----- ------ -- ---- --- ----- -- - -------<br>-------- -- --- --- -- ----- ----------- ----- -----------<br>---- --- ---------- --- ---- --- -- ----------,193108.4800000026,193106.58500000136,192736.036,192748.63999999798,192752.662,193118.434,,11,reforming
screen,html.Screen,1_3_1_0_1_12,2021-04-15T09:54:02.588Z,,,,,,,,,,,,,,,,51,,,,,,,,,,,,,,316.265999997966,,response,,,,13,C,,,,,,Space,keypress(Space),,,,instrumental,,,,-------- -------- --- --- ---- --- --- ------ -- --------<br>---- --------- the ------- ------------ ---------- ---------<br>--- ---------- ------- ---------- ------- -- -------- ----<br>---- --- ------ ----- ------ -- ---- --- ----- -- - -------<br>-------- -- --- --- -- ----- ----------- ----- -----------<br>---- --- ---------- --- ---- --- -- ----------,193436.45000000106,193434.69999999797,193101.808,193108.63000000245,193118.434,193450.954,,12,the
screen,html.Screen,1_3_1_0_1_13,2021-04-15T09:54:02.908Z,,,,,,,,,,,,,,,,51,,,,,,,,,,,,,,303.68599999920116,,response,,,,13,C,,,,,,Space,keypress(Space),,,,instrumental,,,,-------- -------- --- --- ---- --- --- ------ -- --------<br>---- --------- --- federal ------------ ---------- ---------<br>--- ---------- ------- ---------- ------- -- -------- ----<br>---- --- ------ ----- ------ -- ---- --- ----- -- - -------<br>-------- -- --- --- -- ----- ----------- ----- -----------<br>---- --- ---------- --- ---- --- -- ----------,193756.27499999973,193754.6399999992,193434.328,193436.58999999752,193450.954,193766.848,,13,federal
screen,html.Screen,1_3_1_0_1_14,2021-04-15T09:54:03.212Z,,,,,,,,,,,,,,,,51,,,,,,,,,,,,,,292.22699999739416,,response,,,,13,C,,,,,,Space,keypress(Space),,,,instrumental,,,,-------- -------- --- --- ---- --- --- ------ -- --------<br>---- --------- --- ------- government's ---------- ---------<br>--- ---------- ------- ---------- ------- -- -------- ----<br>---- --- ------ ----- ------ -- ---- --- ----- -- - -------<br>-------- -- --- --- -- ----- ----------- ----- -----------<br>---- --- ---------- --- ---- --- -- ----------,194060.7799999998,194059.0749999974,193750.222,193756.42499999958,193766.848,194066.116,,14,government's
screen,html.Screen,1_3_1_0_1_15,2021-04-15T09:54:03.508Z,,,,,,,,,,,,,,,,51,,,,,,,,,,,,,,288.5239999977348,,response,,,,13,C,,,,,,Space,keypress(Space),,,,instrumental,,,,-------- -------- --- --- ---- --- --- ------ -- --------<br>---- --------- --- ------- ------------ regulatory ---------<br>--- ---------- ------- ---------- ------- -- -------- ----<br>---- --- ------ ----- ------ -- ---- --- ----- -- - -------<br>-------- -- --- --- -- ----- ----------- ----- -----------<br>---- --- ---------- --- ---- --- -- ----------,194356.455000001,194354.63999999774,194049.49,194060.94000000303,194066.116,194365.384,,15,regulatory
screen,html.Screen,1_3_1_0_1_16,2021-04-15T09:54:03.892Z,,,,,,,,,,,,,,,,51,,,,,,,,,,,,,,373.45599999817205,,response,,,,13,C,,,,,,Space,keypress(Space),,,,instrumental,,,,-------- -------- --- --- ---- --- --- ------ -- --------<br>---- --------- --- ------- ------------ ---------- apparatus<br>--- ---------- ------- ---------- ------- -- -------- ----<br>---- --- ------ ----- ------ -- ---- --- ----- -- - -------<br>-------- -- --- --- -- ----- ----------- ----- -----------<br>---- --- ---------- --- ---- --- -- ----------,194740.59500000294,194738.83999999816,194348.758,194356.61000000255,194365.384,194747.782,,16,apparatus
screen,html.Screen,1_3_1_0_1_17,2021-04-15T09:54:04.268Z,,,,,,,,,,,,,,,,51,,,,,,,,,,,,,,366.85299999808194,,response,,,,13,C,,,,,,Space,keypress(Space),,,,instrumental,,,,-------- -------- --- --- ---- --- --- ------ -- --------<br>---- --------- --- ------- ------------ ---------- ---------<br>may ---------- ------- ---------- ------- -- -------- ----<br>---- --- ------ ----- ------ -- ---- --- ----- -- - -------<br>-------- -- --- --- -- ----- ----------- ----- -----------<br>---- --- ---------- --- ---- --- -- ----------,195116.47000000085,195114.6349999981,194731.156,194740.7400000011,194747.782,195130.18,,17,may
screen,html.Screen,1_3_1_0_1_18,2021-04-15T09:54:04.620Z,,,,,,,,,,,,,,,,51,,,,,,,,,,,,,,336.52499999891734,,response,,,,13,C,,,,,,Space,keypress(Space),,,,instrumental,,,,-------- -------- --- --- ---- --- --- ------ -- --------<br>---- --------- --- ------- ------------ ---------- ---------<br>--- profoundly ------- ---------- ------- -- -------- ----<br>---- --- ------ ----- ------ -- ---- --- ----- -- - -------<br>-------- -- --- --- -- ----- ----------- ----- -----------<br>---- --- ---------- --- ---- --- -- ----------,195468.4449999986,195466.7049999989,195113.554,195116.6250000024,195130.18,195479.326,,18,profoundly
screen,html.Screen,1_3_1_0_1_19,2021-04-15T09:54:04.988Z,,,,,,,,,,,,,,,,51,,,,,,,,,,,,,,355.4240000018035,,response,,,,13,C,,,,,,Space,keypress(Space),,,,instrumental,,,,-------- -------- --- --- ---- --- --- ------ -- --------<br>---- --------- --- ------- ------------ ---------- ---------<br>--- ---------- improve ---------- ------- -- -------- ----<br>---- --- ------ ----- ------ -- ---- --- ----- -- - -------<br>-------- -- --- --- -- ----- ----------- ----- -----------<br>---- --- ---------- --- ---- --- -- ----------,195836.70500000153,195834.7500000018,195462.7,195468.59499999846,195479.326,195845.098,,19,improve
screen,html.Screen,1_3_1_0_1_20,2021-04-15T09:54:05.332Z,,,,,,,,,,,,,,,,51,,,,,,,,,,,,,,333.64699999743607,,response,,,,13,C,,,,,,Space,keypress(Space),,,,instrumental,,,,-------- -------- --- --- ---- --- --- ------ -- --------<br>---- --------- --- ------- ------------ ---------- ---------<br>--- ---------- ------- companies' ------- -- -------- ----<br>---- --- ------ ----- ------ -- ---- --- ----- -- - -------<br>-------- -- --- --- -- ----- ----------- ----- -----------<br>---- --- ---------- --- ---- --- -- ----------,196180.63000000257,196178.74499999743,195828.472,195836.88999999868,195845.098,196194.244,,20,companies'
screen,html.Screen,1_3_1_0_1_21,2021-04-15T09:54:05.740Z,,,,,,,,,,,,,,,,51,,,,,,,,,,,,,,392.25599999760743,,response,,,,13,C,,,,,,Space,keypress(Space),,,,instrumental,,,,-------- -------- --- --- ---- --- --- ------ -- --------<br>---- --------- --- ------- ------------ ---------- ---------<br>--- ---------- ------- ---------- ability -- -------- ----<br>---- --- ------ ----- ------ -- ---- --- ----- -- - -------<br>-------- -- --- --- -- ----- ----------- ----- -----------<br>---- --- ---------- --- ---- --- -- ----------,196588.12999999645,196586.4999999976,196177.618,196180.78499999683,196194.244,196593.268,,21,ability
screen,html.Screen,1_3_1_0_1_22,2021-04-15T09:54:06.084Z,,,,,,,,,,,,,,,,51,,,,,,,,,,,,,,337.247000000003,,response,,,,13,C,,,,,,Space,keypress(Space),,,,instrumental,,,,-------- -------- --- --- ---- --- --- ------ -- --------<br>---- --------- --- ------- ------------ ---------- ---------<br>--- ---------- ------- ---------- ------- to -------- ----<br>---- --- ------ ----- ------ -- ---- --- ----- -- - -------<br>-------- -- --- --- -- ----- ----------- ----- -----------<br>---- --- ---------- --- ---- --- -- ----------,196932.13999999716,196930.515,196576.642,196588.2700000002,196593.268,196942.414,,22,to
screen,html.Screen,1_3_1_0_1_23,2021-04-15T09:54:06.452Z,,,,,,,,,,,,,,,,51,,,,,,,,,,,,,,356.43599999923026,,response,,,,13,C,,,,,,Space,keypress(Space),,,,instrumental,,,,-------- -------- --- --- ---- --- --- ------ -- --------<br>---- --------- --- ------- ------------ ---------- ---------<br>--- ---------- ------- ---------- ------- -- survive. ----<br>---- --- ------ ----- ------ -- ---- --- ----- -- - -------<br>-------- -- --- --- -- ----- ----------- ----- -----------<br>---- --- ---------- --- ---- --- -- ----------,197300.6099999984,197298.84999999922,196925.788,196932.3000000004,196942.414,197308.186,,23,survive.
screen,html.Screen,1_3_1_0_1_24,2021-04-15T09:54:06.804Z,,,,,,,,,,,,,,,,51,,,,,,,,,,,,,,342.46899999765446,,response,,,,13,C,,,,,,Space,keypress(Space),,,,instrumental,,,,-------- -------- --- --- ---- --- --- ------ -- --------<br>---- --------- --- ------- ------------ ---------- ---------<br>--- ---------- ------- ---------- ------- -- -------- This<br>---- --- ------ ----- ------ -- ---- --- ----- -- - -------<br>-------- -- --- --- -- ----- ----------- ----- -----------<br>---- --- ---------- --- ---- --- -- ----------,197652.23500000138,197650.65499999764,197291.56,197300.75499999657,197308.186,197657.332,,24,This
screen,html.Screen,1_3_1_0_1_25,2021-04-15T09:54:07.163Z,,,,,,,,,,,,,,,,51,,,,,,,,,,,,,,353.12300000328105,,response,,,,13,C,,,,,,Space,keypress(Space),,,,instrumental,,,,-------- -------- --- --- ---- --- --- ------ -- --------<br>---- --------- --- ------- ------------ ---------- ---------<br>--- ---------- ------- ---------- ------- -- -------- ----<br>week --- ------ ----- ------ -- ---- --- ----- -- - -------<br>-------- -- --- --- -- ----- ----------- ----- -----------<br>---- --- ---------- --- ---- --- -- ----------,198012.00000000244,198010.45500000328,197640.706,197652.38500000123,197657.332,198023.104,,25,week
screen,html.Screen,1_3_1_0_1_26,2021-04-15T09:54:07.452Z,,,,,,,,,,,,,,,,51,,,,,,,,,,,,,,275.52599999750964,,response,,,,13,C,,,,,,Space,keypress(Space),,,,instrumental,,,,-------- -------- --- --- ---- --- --- ------ -- --------<br>---- --------- --- ------- ------------ ---------- ---------<br>--- ---------- ------- ---------- ------- -- -------- ----<br>---- the ------ ----- ------ -- ---- --- ----- -- - -------<br>-------- -- --- --- -- ----- ----------- ----- -----------<br>---- --- ---------- --- ---- --- -- ----------,198300.26499999803,198298.6299999975,198006.478,198012.1700000018,198023.104,198305.746,,26,the
screen,html.Screen,1_3_1_0_1_27,2021-04-15T09:54:07.780Z,,,,,,,,,,,,,,,,51,,,,,,,,,,,,,,320.8940000022121,,response,,,,13,C,,,,,,Space,keypress(Space),,,,instrumental,,,,-------- -------- --- --- ---- --- --- ------ -- --------<br>---- --------- --- ------- ------------ ---------- ---------<br>--- ---------- ------- ---------- ------- -- -------- ----<br>---- --- Senate ----- ------ -- ---- --- ----- -- - -------<br>-------- -- --- --- -- ----- ----------- ----- -----------<br>---- --- ---------- --- ---- --- -- ----------,198628.5149999967,198626.64000000223,198289.12,198300.53500000213,198305.746,198638.266,,27,Senate
screen,html.Screen,1_3_1_0_1_28,2021-04-15T09:54:08.100Z,,,,,,,,,,,,,,,,51,,,,,,,,,,,,,,308.3690000002389,,response,,,,13,C,,,,,,Space,keypress(Space),,,,instrumental,,,,-------- -------- --- --- ---- --- --- ------ -- --------<br>---- --------- --- ------- ------------ ---------- ---------<br>--- ---------- ------- ---------- ------- -- -------- ----<br>---- --- ------ seems ------ -- ---- --- ----- -- - -------<br>-------- -- --- --- -- ----- ----------- ----- -----------<br>---- --- ---------- --- ---- --- -- ----------,198948.26499999908,198946.63500000024,198621.64,198628.69499999942,198638.266,198954.16,,28,seems
screen,html.Screen,1_3_1_0_1_29,2021-04-15T09:54:08.444Z,,,,,,,,,,,,,,,,51,,,,,,,,,,,,,,336.36499999670195,,response,,,,13,C,,,,,,Space,keypress(Space),,,,instrumental,,,,-------- -------- --- --- ---- --- --- ------ -- --------<br>---- --------- --- ------- ------------ ---------- ---------<br>--- ---------- ------- ---------- ------- -- -------- ----<br>---- --- ------ ----- poised -- ---- --- ----- -- - -------<br>-------- -- --- --- -- ----- ----------- ----- -----------<br>---- --- ---------- --- ---- --- -- ----------,199292.38500000065,199290.5249999967,198937.534,198948.41499999893,198954.16,199303.306,,29,poised
screen,html.Screen,1_3_1_0_1_30,2021-04-15T09:54:08.796Z,,,,,,,,,,,,,,,,51,,,,,,,,,,,,,,339.3240000020887,,response,,,,13,C,,,,,,Space,keypress(Space),,,,instrumental,,,,-------- -------- --- --- ---- --- --- ------ -- --------<br>---- --------- --- ------- ------------ ---------- ---------<br>--- ---------- ------- ---------- ------- -- -------- ----<br>---- --- ------ ----- ------ to ---- --- ----- -- - -------<br>-------- -- --- --- -- ----- ----------- ----- -----------<br>---- --- ---------- --- ---- --- -- ----------,199644.395000003,199642.6300000021,199286.68,199292.5350000005,199303.306,199652.452,,30,to
screen,html.Screen,1_3_1_0_1_31,2021-04-15T09:54:09.172Z,,,,,,,,,,,,,,,,51,,,,,,,,,,,,,,366.188000002061,,response,,,,13,C,,,,,,Space,keypress(Space),,,,instrumental,,,,-------- -------- --- --- ---- --- --- ------ -- --------<br>---- --------- --- ------- ------------ ---------- ---------<br>--- ---------- ------- ---------- ------- -- -------- ----<br>---- --- ------ ----- ------ -- join --- ----- -- - -------<br>-------- -- --- --- -- ----- ----------- ----- -----------<br>---- --- ---------- --- ---- --- -- ----------,200020.2649999992,200018.64000000205,199635.826,199644.52500000334,199652.452,200034.85,,31,join
screen,html.Screen,1_3_1_0_1_32,2021-04-15T09:54:09.500Z,,,,,,,,,,,,,,,,51,,,,,,,,,,,,,,311.85500000356114,,response,,,,13,C,,,,,,Space,keypress(Space),,,,instrumental,,,,-------- -------- --- --- ---- --- --- ------ -- --------<br>---- --------- --- ------- ------------ ---------- ---------<br>--- ---------- ------- ---------- ------- -- -------- ----<br>---- --- ------ ----- ------ -- ---- the ----- -- - -------<br>-------- -- --- --- -- ----- ----------- ----- -----------<br>---- --- ---------- --- ---- --- -- ----------,200348.3350000024,200346.70500000357,200018.224,200020.40500000294,200034.85,200350.744,,32,the
screen,html.Screen,1_3_1_0_1_33,2021-04-15T09:54:09.748Z,,,,,,,,,,,,,,,,51,,,,,,,,,,,,,,243.91600000247126,,response,,,,13,C,,,,,,Space,keypress(Space),,,,instrumental,,,,-------- -------- --- --- ---- --- --- ------ -- --------<br>---- --------- --- ------- ------------ ---------- ---------<br>--- ---------- ------- ---------- ------- -- -------- ----<br>---- --- ------ ----- ------ -- ---- --- House -- - -------<br>-------- -- --- --- -- ----- ----------- ----- -----------<br>---- --- ---------- --- ---- --- -- ----------,200596.39500000048,200594.66000000248,200334.118,200348.48500000226,200350.744,200600.134,,33,House
screen,html.Screen,1_3_1_0_1_34,2021-04-15T09:54:09.956Z,,,,,,,,,,,,,,,,51,,,,,,,,,,,,,,202.50600000171107,,response,,,,13,C,,,,,,Space,keypress(Space),,,,instrumental,,,,-------- -------- --- --- ---- --- --- ------ -- --------<br>---- --------- --- ------- ------------ ---------- ---------<br>--- ---------- ------- ---------- ------- -- -------- ----<br>---- --- ------ ----- ------ -- ---- --- ----- in - -------<br>-------- -- --- --- -- ----- ----------- ----- -----------<br>---- --- ---------- --- ---- --- -- ----------,200804.15000000357,200802.6400000017,200583.508,200596.54500000033,200600.134,200816.272,,34,in
screen,html.Screen,1_3_1_0_1_35,2021-04-15T09:54:10.188Z,,,,,,,,,,,,,,,,51,,,,,,,,,,,,,,218.43299999821465,,response,,,,13,C,,,,,,Space,keypress(Space),,,,instrumental,,,,-------- -------- --- --- ---- --- --- ------ -- --------<br>---- --------- --- ------- ------------ ---------- ---------<br>--- ---------- ------- ---------- ------- -- -------- ----<br>---- --- ------ ----- ------ -- ---- --- ----- -- a -------<br>-------- -- --- --- -- ----- ----------- ----- -----------<br>---- --- ---------- --- ---- --- -- ----------,201036.4449999979,201034.7049999982,200799.646,200804.28499999834,200816.272,201049.91,,35,a
screen,html.Screen,1_3_1_0_1_36,2021-04-15T09:54:10.604Z,,,,,,,,,,,,,,,,51,,,,,,,,,,,,,,400.73000000274624,,response,,,,13,C,,,,,,Space,keypress(Space),,,,instrumental,,,,-------- -------- --- --- ---- --- --- ------ -- --------<br>---- --------- --- ------- ------------ ---------- ---------<br>--- ---------- ------- ---------- ------- -- -------- ----<br>---- --- ------ ----- ------ -- ---- --- ----- -- - massive<br>-------- -- --- --- -- ----- ----------- ----- -----------<br>---- --- ---------- --- ---- --- -- ----------,201452.2649999999,201450.64000000275,201033.284,201036.59499999776,201049.91,201465.56,,36,massive
screen,html.Screen,1_3_1_0_1_37,2021-04-15T09:54:10.964Z,,,,,,,,,,,,,,,,51,,,,,,,,,,,,,,344.9950000036624,,response,,,,13,C,,,,,,Space,keypress(Space),,,,instrumental,,,,-------- -------- --- --- ---- --- --- ------ -- --------<br>---- --------- --- ------- ------------ ---------- ---------<br>--- ---------- ------- ---------- ------- -- -------- ----<br>---- --- ------ ----- ------ -- ---- --- ----- -- - -------<br>overhaul -- --- --- -- ----- ----------- ----- -----------<br>---- --- ---------- --- ---- --- -- ----------,201812.1800000008,201810.55500000366,201448.934,201452.40999999805,201465.56,201814.706,,37,overhaul
