sender,sender_type,sender_id,timestamp,meta,,Blues,Classical,Country,Dance,Electronic,Folk,Gospel,Hip-Hop,Jazz,Latin,Musical/Film,New-age,Pop,Provo_ID,R&B,Rap,Reggae,Religious,Rock,Soul,Swing,Traditional,age,artist_name,correct,correctResponse,distraction,duration,education,ended_on,familiarity,gender,headphone_check_performance,item,list,music_frequency,offensiveness,pleasantness,position_correct,preference,response,response_action,snippet_file,song_name,song_rating,sound,stimulus_1,stimulus_2,stimulus_3,text,time_commit,time_end,time_render,time_run,time_show,time_switch,url,word,word_ID
Introduction,html.Screen,0_0,2021-04-18T17:50:13.555Z,"{""labjs_version"":""20.2.2"",""labjs_build"":{""flavor"":""production"",""commit"":""a25486e0c714a0ae2ce03ff94b7bb6896854dcfa""},""location"":""https://run.pavlovia.org/mvasilev/music_d/"",""userAgent"":""Mozilla/5.0 (Windows NT 10.0; Win64; x64) AppleWebKit/537.36 (KHTML, like Gecko) Chrome/89.0.4389.128 Safari/537.36 Edg/89.0.774.77"",""platform"":""Win32"",""language"":""en-GB"",""locale"":""en-GB"",""timeZone"":""Europe/London"",""timezoneOffset"":-60,""screen_width"":1280,""screen_height"":720,""scroll_width"":1707,""scroll_height"":709,""window_innerWidth"":1707,""window_innerHeight"":757,""devicePixelRatio"":1.125}",,,,,,,,,,,,,,,,,,,,,,,,,,,,,12948.276999990398,,response,,,,,,,,,,,continue,click button,,,,,,,,,24094.884999998612,24092.689999990398,11027.781,11025.694999989355,11144.413,24126.17,{},,
Volume calibration,html.Screen,0_1,2021-04-18T17:51:02.172Z,,,,,,,,,,,,,,,,,,,,,,,,,,,,,,48581.56999999801,,response,,,,,,,,,,,continue,click button,,,,,,,,,72712.4499999918,72707.73999999801,24077.554,24095.78999999212,24126.17,72710.04,,,
Task instructions,html.Screen,0_2,2021-04-18T17:51:14.748Z,,,,,,,,,,,,,,,,,,,,,,,,,,,,,,12576.019999998549,,response,,,,,,,,,,,continue,click button,,,,,,,,,85288.02999999607,85286.05999999854,72693.742,72712.59999999893,72710.04,85293.578,,,
Sounds,html.Screen,0_3_0_0,2021-04-18T17:51:18.993Z,,,,,,,,,,,,,,,,,,,,,,,,,,,,,,4249.567999999999,,timeout,,,,,,,,,2,,,,,,,,O,S,I,,89532.91999999783,89527.062,85276.62,85288.24499998882,85293.578,89543.146,,,
Judgement,html.Screen,0_3_0_1,2021-04-18T17:51:20.350Z,,,,,,,,,,,,,,,,,,,,,,,,,,,true,2,,1345.0539999866887,,response,,,,,,,,,2,,2,click #choice-2,,,,,O,S,I,,90890.45999999507,90888.19999998668,89527.062,89533.11999999278,89543.146,90893.032,,,
Trial,flow.Sequence,0_3_0,2021-04-18T17:51:20.351Z,,,,,,,,,,,,,,,,,,,,,,,,,,,,,,5594.621999986688,,completion,,,,,,,,,2,,,,,,,,O,S,I,,90890.74499999697,90888.19999998668,85276.62,85288.19499998644,85293.578,90893.032,,,
Sounds,html.Screen,0_3_1_0,2021-04-18T17:51:24.587Z,,,,,,,,,,,,,,,,,,,,,,,,,,,,,,4249.96699999999,,timeout,,,,,,,,,3,,,,,,,,I,O,S,,95127.44999999995,95126.703,90876.84,90890.87999999174,90893.032,95142.999,,,
Judgement,html.Screen,0_3_1_1,2021-04-18T17:51:25.396Z,,,,,,,,,,,,,,,,,,,,,,,,,,,true,3,,790.8609999900946,,response,,,,,,,,,3,,3,click #choice-3,,,,,I,O,S,,95936.21499999426,95933.85999999009,95126.703,95127.58999998914,95142.999,95942.956,,,
Trial,flow.Sequence,0_3_1,2021-04-18T17:51:25.396Z,,,,,,,,,,,,,,,,,,,,,,,,,,,,,,5040.827999990084,,completion,,,,,,,,,3,,,,,,,,I,O,S,,95936.40500000038,95933.85999999009,90876.84,90890.84499998717,90893.032,95942.956,,,
Sounds,html.Screen,0_3_2_0,2021-04-18T17:51:29.637Z,,,,,,,,,,,,,,,,,,,,,,,,,,,,,,4250.190999999992,,timeout,,,,,,,,,2,,,,,,,,I,S,O,,100177.23499999556,100176.536,95926.78,95936.53999999515,95942.956,100193.147,,,
Judgement,html.Screen,0_3_2_1,2021-04-18T17:51:30.584Z,,,,,,,,,,,,,,,,,,,,,,,,,,,true,2,,929.0129999989877,,response,,,,,,,,,2,,2,click #choice-2,,,,,I,S,O,,101124.40499999502,101122.15999999898,100176.536,100177.41499999829,100193.147,101126.219,,,
Trial,flow.Sequence,0_3_2,2021-04-18T17:51:30.584Z,,,,,,,,,,,,,,,,,,,,,,,,,,,,,,5179.203999998979,,completion,,,,,,,,,2,,,,,,,,I,S,O,,101124.57999998878,101122.15999999898,95926.78,95936.49999999616,95942.956,101126.219,,,
Sounds,html.Screen,0_3_3_0,2021-04-18T17:51:34.821Z,,,,,,,,,,,,,,,,,,,,,,,,,,,,,,4250.356,,timeout,,,,,,,,,3,,,,,,,,O,I,S,,105360.74999999255,105360.052,101109.973,101124.70999998914,101126.219,105376.575,,,
Judgement,html.Screen,0_3_3_1,2021-04-18T17:51:35.490Z,,,,,,,,,,,,,,,,,,,,,,,,,,,true,3,,651.1699999994162,,response,,,,,,,,,3,,3,click #choice-3,,,,,O,I,S,,106029.8449999973,106027.74499999941,105360.052,105360.8799999929,105376.575,106042.871,,,
Trial,flow.Sequence,0_3_3,2021-04-18T17:51:35.490Z,,,,,,,,,,,,,,,,,,,,,,,,,,,,,,4901.525999999416,,completion,,,,,,,,,3,,,,,,,,O,I,S,,106030.00999998767,106027.74499999941,101109.973,101124.66499999573,101126.219,106042.871,,,
Sounds,html.Screen,0_3_4_0,2021-04-18T17:51:39.738Z,,,,,,,,,,,,,,,,,,,,,,,,,,,,,,4250.152000000002,,timeout,,,,,,,,,1,,,,,,,,S,I,O,,110277.96999999555,110276.443,106026.118,106030.12499999022,106042.871,110293.023,,,
Judgement,html.Screen,0_3_4_1,2021-04-18T17:51:40.474Z,,,,,,,,,,,,,,,,,,,,,,,,,,,true,1,,718.5219999866531,,response,,,,,,,,,1,,1,click #choice-1,,,,,S,I,O,,111013.84499999403,111011.54499998665,110276.443,110278.08999999252,110293.023,111026.411,,,
Trial,flow.Sequence,0_3_4,2021-04-18T17:51:40.474Z,,,,,,,,,,,,,,,,,,,,,,,,,,,,,,4968.673999986655,,completion,,,,,,,,,1,,,,,,,,S,I,O,,111014.01499999338,111011.54499998665,106026.118,106030.09499999462,106042.871,111026.411,,,
Sounds,html.Screen,0_3_5_0,2021-04-18T17:51:44.720Z,,,,,,,,,,,,,,,,,,,,,,,,,,,,,,4250.015000000014,,timeout,,,,,,,,,1,,,,,,,,S,O,I,,115260.65499999095,115260.014,111009.821,111014.12499998696,111026.411,115276.426,,,
Judgement,html.Screen,0_3_5_1,2021-04-18T17:51:47.039Z,,,,,,,,,,,,,,,,,,,,,,,,,,,true,1,,2299.2889999990293,,response,,,,,,,,,1,,1,click #choice-1,,,,,S,O,I,,117578.93999999214,117575.71499999904,115260.014,115260.77499998792,115276.426,117592.742,,,
Trial,flow.Sequence,0_3_5,2021-04-18T17:51:47.039Z,,,,,,,,,,,,,,,,,,,,,,,,,,,,,,6549.303999999043,,completion,,,,,,,,,1,,,,,,,,S,O,I,,117579.14999999048,117575.71499999904,111009.821,111014.09499999136,111026.411,117592.742,,,
Task,flow.Loop,0_3,2021-04-18T17:51:47.044Z,,,,,,,,,,,,,,,,,,,,,,,,,,,,,,32282.136999999042,,completion,,,1,,,,,,,,,,,,,,,,,,117584.11999999953,117575.71499999904,85276.62,85288.14999999304,85293.578,117592.742,,,
Trap,html.Screen,0_4,2021-04-18T17:51:47.046Z,,,,,,,,,,,,,,,,,,,,,,,,,,,,,,NaN,,skipped,,,,,,,,,,,,,,,,,,,,,117586.2449999986,117575.71499999904,,117586.12499998708,,117592.742,,,
Thanks,html.Screen,0_5,2021-04-18T17:51:52.384Z,,,,,,,,,,,,,,,,,,,,,,,,,,,,,,5329.142999988835,,response,,,,,,,,,,,continue,click button,,,,,,,,,122923.99999999907,122921.88499998883,117576.055,117586.3599999866,117592.742,127392.657,,,
Headphone screening,flow.Sequence,0,2021-04-18T17:51:52.384Z,,,,,,,,,,,,,,,,,,,,,,,,,,,,,,111777.47199998883,,completion,,,,,,,,,,,,,,,,,,,,,122924.15999999503,122921.88499998883,11027.781,11025.594999999157,11144.413,127392.657,,,
Instructions,html.Page,1_0,2021-04-18T17:52:20.347Z,,,,,,,,,,,,,,,,,,,,,,,,,,,,,,23493.45299999218,,form submission,,,,,,,,,,,,,,,,,,,,,150886.3249999995,150886.1099999922,127342.625,127354.99499998696,127392.657,150892.008,,,
Holding screen,html.Screen,1_1_0_0,2021-04-18T17:52:30.337Z,,,,,,,,,,,,,,,,,,,,,,,,,,,,,,10016.494000000006,,timeout,,,,,,,,,,,,,,,,,,,,,160876.25999999,160875.608,150875.001,150886.50499998766,150892.008,160908.502,,,
screen,html.Screen,1_1_0_1_0,2021-04-18T17:52:32.265Z,,,,,,,,,,,,,,,,53,,,,,,,,,,,,,,1894.1079999988142,,response,,,,99,,,,,,,Space,keypress(Space),,,,,,,,When -- ----- -- ------ - ------- --- ----------<br>------------- ------ ------ ---- ---- ------- ----- -- ----<br>-------- ------- -- ---------- --- - --- ----- ----- ----<br>---- --- --- ----- --- ---- ---- ------- ----- ---- -------<br>--- --- -- ----- -- --- ---- -- --- ---- -- ------ ------<br>--- ----- -- ----,162804.91999999504,162802.60999999882,160875.608,160876.4499999961,160908.502,162808.461,,0,When
screen,html.Screen,1_1_0_1_1,2021-04-18T17:52:32.753Z,,,,,,,,,,,,,,,,53,,,,,,,,,,,,,,483.9389999911655,,response,,,,99,,,,,,,Space,keypress(Space),,,,,,,,---- it ----- -- ------ - ------- --- ----------<br>------------- ------ ------ ---- ---- ------- ----- -- ----<br>-------- ------- -- ---------- --- - --- ----- ----- ----<br>---- --- --- ----- --- ---- ---- ------- ----- ---- -------<br>--- --- -- ----- -- --- ---- -- --- ---- -- ------ ------<br>--- ----- -- ----,163292.93999999936,163292.39999999118,162792.373,162805.05999999878,162808.461,163308.499,,1,it
screen,html.Screen,1_1_0_1_2,2021-04-18T17:52:33.103Z,,,,,,,,,,,,,,,,53,,,,,,,,,,,,,,333.6659999974654,,response,,,,99,,,,,,,Space,keypress(Space),,,,,,,,---- -- comes -- ------ - ------- --- ----------<br>------------- ------ ------ ---- ---- ------- ----- -- ----<br>-------- ------- -- ---------- --- - --- ----- ----- ----<br>---- --- --- ----- --- ---- ---- ------- ----- ---- -------<br>--- --- -- ----- -- --- ---- -- --- ---- -- ------ ------<br>--- ----- -- ----,163642.7599999879,163642.16499999748,163292.179,163293.04499999853,163308.499,163659.086,,2,comes
screen,html.Screen,1_1_0_1_3,2021-04-18T17:52:33.443Z,,,,,,,,,,,,,,,,53,,,,,,,,,,,,,,322.7989999864949,,response,,,,99,,,,,,,Space,keypress(Space),,,,,,,,---- -- ----- to ------ - ------- --- ----------<br>------------- ------ ------ ---- ---- ------- ----- -- ----<br>-------- ------- -- ---------- --- - --- ----- ----- ----<br>---- --- --- ----- --- ---- ---- ------- ----- ---- -------<br>--- --- -- ----- -- --- ---- -- --- ---- -- ------ ------<br>--- ----- -- ----,163982.4249999947,163981.8849999865,163642.437,163642.85999999265,163659.086,163992.494,,3,to
screen,html.Screen,1_1_0_1_4,2021-04-18T17:52:33.742Z,,,,,,,,,,,,,,,,53,,,,,,,,,,,,,,288.24099999299506,,response,,,,99,,,,,,,Space,keypress(Space),,,,,,,,---- -- ----- -- having - ------- --- ----------<br>------------- ------ ------ ---- ---- ------- ----- -- ----<br>-------- ------- -- ---------- --- - --- ----- ----- ----<br>---- --- --- ----- --- ---- ---- ------- ----- ---- -------<br>--- --- -- ----- -- --- ---- -- --- ---- -- ------ ------<br>--- ----- -- ----,164281.2649999978,164280.734999993,163975.765,163982.52999999386,163992.494,164292.137,,4,having
screen,html.Screen,1_1_0_1_5,2021-04-18T17:52:34.026Z,,,,,,,,,,,,,,,,53,,,,,,,,,,,,,,272.6229999938514,,response,,,,99,,,,,,,Space,keypress(Space),,,,,,,,---- -- ----- -- ------ a ------- --- ----------<br>------------- ------ ------ ---- ---- ------- ----- -- ----<br>-------- ------- -- ---------- --- - --- ----- ----- ----<br>---- --- --- ----- --- ---- ---- ------- ----- ---- -------<br>--- --- -- ----- -- --- ---- -- --- ---- -- ------ ------<br>--- ----- -- ----,164565.26499999745,164564.75999999384,164275.511,164281.364999988,164292.137,164575.676,,5,a
screen,html.Screen,1_1_0_1_6,2021-04-18T17:52:34.364Z,,,,,,,,,,,,,,,,53,,,,,,,,,,,,,,327.1239999961981,,response,,,,99,,,,,,,Space,keypress(Space),,,,,,,,---- -- ----- -- ------ - lasting --- ----------<br>------------- ------ ------ ---- ---- ------- ----- -- ----<br>-------- ------- -- ---------- --- - --- ----- ----- ----<br>---- --- --- ----- --- ---- ---- ------- ----- ---- -------<br>--- --- -- ----- -- --- ---- -- --- ---- -- ------ ------<br>--- ----- -- ----,164903.33499999542,164902.7999999962,164558.894,164565.36499998765,164575.676,164908.477,,6,lasting
screen,html.Screen,1_1_0_1_7,2021-04-18T17:52:34.660Z,,,,,,,,,,,,,,,,53,,,,,,,,,,,,,,290.45299999864073,,response,,,,99,,,,,,,Space,keypress(Space),,,,,,,,---- -- ----- -- ------ - ------- and ----------<br>------------- ------ ------ ---- ---- ------- ----- -- ----<br>-------- ------- -- ---------- --- - --- ----- ----- ----<br>---- --- --- ----- --- ---- ---- ------- ----- ---- -------<br>--- --- -- ----- -- --- ---- -- --- ---- -- ------ ------<br>--- ----- -- ----,165199.4749999867,165198.92999999865,164891.762,164903.4399999946,164908.477,165208.46,,7,and
screen,html.Screen,1_1_0_1_8,2021-04-18T17:52:34.956Z,,,,,,,,,,,,,,,,53,,,,,,,,,,,,,,286.96999999540276,,response,,,,99,,,,,,,Space,keypress(Space),,,,,,,,---- -- ----- -- ------ - ------- --- fulfilling<br>------------- ------ ------ ---- ---- ------- ----- -- ----<br>-------- ------- -- ---------- --- - --- ----- ----- ----<br>---- --- --- ----- --- ---- ---- ------- ----- ---- -------<br>--- --- -- ----- -- --- ---- -- --- ---- -- ------ ------<br>--- ----- -- ----,165495.92499999562,165495.4299999954,165192.39,165199.57499999146,165208.46,165509.12,,8,fulfilling
screen,html.Screen,1_1_0_1_9,2021-04-18T17:52:35.375Z,,,,,,,,,,,,,,,,53,,,,,,,,,,,,,,405.5299999915296,,response,,,,99,,,,,,,Space,keypress(Space),,,,,,,,"---- -- ----- -- ------ - ------- --- ----------<br>relationship, ------ ------ ---- ---- ------- ----- -- ----<br>-------- ------- -- ---------- --- - --- ----- ----- ----<br>---- --- --- ----- --- ---- ---- ------- ----- ---- -------<br>--- --- -- ----- -- --- ---- -- --- ---- -- ------ ------<br>--- ----- -- ----",165915.13999999734,165914.64999999152,165492.389,165496.02500000037,165509.12,165925.583,,9,"relationship,"
screen,html.Screen,1_1_0_1_10,2021-04-18T17:52:35.671Z,,,,,,,,,,,,,,,,53,,,,,,,,,,,,,,284.54199999777484,,response,,,,99,,,,,,,Space,keypress(Space),,,,,,,,---- -- ----- -- ------ - ------- --- ----------<br>------------- common ------ ---- ---- ------- ----- -- ----<br>-------- ------- -- ---------- --- - --- ----- ----- ----<br>---- --- --- ----- --- ---- ---- ------- ----- ---- -------<br>--- --- -- ----- -- --- ---- -- --- ---- -- ------ ------<br>--- ----- -- ----,166210.63999999024,166210.1249999978,165909.055,165915.2449999965,165925.583,166225.102,,10,common
screen,html.Screen,1_1_0_1_11,2021-04-18T17:52:35.954Z,,,,,,,,,,,,,,,,53,,,,,,,,,,,,,,268.0529999891878,,response,,,,99,,,,,,,Space,keypress(Space),,,,,,,,---- -- ----- -- ------ - ------- --- ----------<br>------------- ------ wisdom ---- ---- ------- ----- -- ----<br>-------- ------- -- ---------- --- - --- ----- ----- ----<br>---- --- --- ----- --- ---- ---- ------- ----- ---- -------<br>--- --- -- ----- -- --- ---- -- --- ---- -- ------ ------<br>--- ----- -- ----,166493.80999999994,166493.1549999892,166209.059,166210.74999999837,166225.102,166508.442,,11,wisdom
screen,html.Screen,1_1_0_1_12,2021-04-18T17:52:36.220Z,,,,,,,,,,,,,,,,53,,,,,,,,,,,,,,250.80799998823204,,response,,,,99,,,,,,,Space,keypress(Space),,,,,,,,---- -- ----- -- ------ - ------- --- ----------<br>------------- ------ ------ says ---- ------- ----- -- ----<br>-------- ------- -- ---------- --- - --- ----- ----- ----<br>---- --- --- ----- --- ---- ---- ------- ----- ---- -------<br>--- --- -- ----- -- --- ---- -- --- ---- -- ------ ------<br>--- ----- -- ----,166759.76499999524,166759.24999998824,166492.381,166493.9149999991,166508.442,166775.415,,12,says
screen,html.Screen,1_1_0_1_13,2021-04-18T17:52:36.506Z,,,,,,,,,,,,,,,,53,,,,,,,,,,,,,,270.0049999949115,,response,,,,99,,,,,,,Space,keypress(Space),,,,,,,,---- -- ----- -- ------ - ------- --- ----------<br>------------- ------ ------ ---- that ------- ----- -- ----<br>-------- ------- -- ---------- --- - --- ----- ----- ----<br>---- --- --- ----- --- ---- ---- ------- ----- ---- -------<br>--- --- -- ----- -- --- ---- -- --- ---- -- ------ ------<br>--- ----- -- ----,167046.02499998873,167045.41999999492,166759.043,166759.8849999922,166775.415,167059.041,,13,that
screen,html.Screen,1_1_0_1_14,2021-04-18T17:52:36.771Z,,,,,,,,,,,,,,,,53,,,,,,,,,,,,,,250.87899999969522,,response,,,,99,,,,,,,Space,keypress(Space),,,,,,,,---- -- ----- -- ------ - ------- --- ----------<br>------------- ------ ------ ---- ---- feeling ----- -- ----<br>-------- ------- -- ---------- --- - --- ----- ----- ----<br>---- --- --- ----- --- ---- ---- ------- ----- ---- -------<br>--- --- -- ----- -- --- ---- -- --- ---- -- ------ ------<br>--- ----- -- ----,167310.42499998875,167309.9199999997,167041.734,167046.22499999823,167059.041,167325.518,,14,feeling
screen,html.Screen,1_1_0_1_15,2021-04-18T17:52:37.083Z,,,,,,,,,,,,,,,,53,,,,,,,,,,,,,,296.91199998851516,,response,,,,99,,,,,,,Space,keypress(Space),,,,,,,,---- -- ----- -- ------ - ------- --- ----------<br>------------- ------ ------ ---- ---- ------- close -- ----<br>-------- ------- -- ---------- --- - --- ----- ----- ----<br>---- --- --- ----- --- ---- ---- ------- ----- ---- -------<br>--- --- -- ----- -- --- ---- -- --- ---- -- ------ ------<br>--- ----- -- ----,167622.9800000001,167622.42999998853,167309.032,167310.5399999913,167325.518,167625.073,,15,close
screen,html.Screen,1_1_0_1_16,2021-04-18T17:52:37.341Z,,,,,,,,,,,,,,,,53,,,,,,,,,,,,,,255.14699999181903,,response,,,,99,,,,,,,Space,keypress(Space),,,,,,,,---- -- ----- -- ------ - ------- --- ----------<br>------------- ------ ------ ---- ---- ------- ----- to ----<br>-------- ------- -- ---------- --- - --- ----- ----- ----<br>---- --- --- ----- --- ---- ---- ------- ----- ---- -------<br>--- --- -- ----- -- --- ---- -- --- ---- -- ------ ------<br>--- ----- -- ----,167880.77999999223,167880.21999999182,167609.035,167623.10499999148,167625.073,167892.121,,16,to
screen,html.Screen,1_1_0_1_17,2021-04-18T17:52:37.647Z,,,,,,,,,,,,,,,,53,,,,,,,,,,,,,,294.47399999192567,,response,,,,99,,,,,,,Space,keypress(Space),,,,,,,,---- -- ----- -- ------ - ------- --- ----------<br>------------- ------ ------ ---- ---- ------- ----- -- your<br>-------- ------- -- ---------- --- - --- ----- ----- ----<br>---- --- --- ----- --- ---- ---- ------- ----- ---- -------<br>--- --- -- ----- -- --- ---- -- --- ---- -- ------ ------<br>--- ----- -- ----,168187.14499998896,168186.59499999194,167875.672,167880.89000000036,167892.121,168191.88,,17,your
screen,html.Screen,1_1_0_1_18,2021-04-18T17:52:37.935Z,,,,,,,,,,,,,,,,53,,,,,,,,,,,,,,282.8049999937648,,response,,,,99,,,,,,,Space,keypress(Space),,,,,,,,---- -- ----- -- ------ - ------- --- ----------<br>------------- ------ ------ ---- ---- ------- ----- -- ----<br>romantic ------- -- ---------- --- - --- ----- ----- ----<br>---- --- --- ----- --- ---- ---- ------- ----- ---- -------<br>--- --- -- ----- -- --- ---- -- --- ---- -- ------ ------<br>--- ----- -- ----,168475.21499999857,168474.68499999377,168175.339,168187.2599999915,168191.88,168492.378,,18,romantic
screen,html.Screen,1_1_0_1_19,2021-04-18T17:52:38.170Z,,,,,,,,,,,,,,,,53,,,,,,,,,,,,,,216.91199999887613,,response,,,,99,,,,,,,Space,keypress(Space),,,,,,,,---- -- ----- -- ------ - ------- --- ----------<br>------------- ------ ------ ---- ---- ------- ----- -- ----<br>-------- partner -- ---------- --- - --- ----- ----- ----<br>---- --- --- ----- --- ---- ---- ------- ----- ---- -------<br>--- --- -- ----- -- --- ---- -- --- ---- -- ------ ------<br>--- ----- -- ----,168709.8249999981,168709.28999999887,168475.315,168475.31999999774,168492.378,168725.462,,19,partner
screen,html.Screen,1_1_0_1_20,2021-04-18T17:52:38.404Z,,,,,,,,,,,,,,,,53,,,,,,,,,,,,,,217.51299999811454,,response,,,,99,,,,,,,Space,keypress(Space),,,,,,,,---- -- ----- -- ------ - ------- --- ----------<br>------------- ------ ------ ---- ---- ------- ----- -- ----<br>-------- ------- is ---------- --- - --- ----- ----- ----<br>---- --- --- ----- --- ---- ---- ------- ----- ---- -------<br>--- --- -- ----- -- --- ---- -- --- ---- -- ------ ------<br>--- ----- -- ----,168943.46499998937,168942.9749999981,168708.796,168709.9249999883,168725.462,168959.088,,20,is
screen,html.Screen,1_1_0_1_21,2021-04-18T17:52:38.655Z,,,,,,,,,,,,,,,,53,,,,,,,,,,,,,,235.0269999911543,,response,,,,99,,,,,,,Space,keypress(Space),,,,,,,,---- -- ----- -- ------ - ------- --- ----------<br>------------- ------ ------ ---- ---- ------- ----- -- ----<br>-------- ------- -- paramount. --- - --- ----- ----- ----<br>---- --- --- ----- --- ---- ---- ------- ----- ---- -------<br>--- --- -- ----- -- --- ---- -- --- ---- -- ------ ------<br>--- ----- -- ----,169194.62999999814,169194.11499999114,168942.332,168943.56999998854,168959.088,169208.394,,21,paramount.
screen,html.Screen,1_1_0_1_22,2021-04-18T17:52:38.932Z,,,,,,,,,,,,,,,,53,,,,,,,,,,,,,,263.20099999543163,,response,,,,99,,,,,,,Space,keypress(Space),,,,,,,,---- -- ----- -- ------ - ------- --- ----------<br>------------- ------ ------ ---- ---- ------- ----- -- ----<br>-------- ------- -- ---------- But - --- ----- ----- ----<br>---- --- --- ----- --- ---- ---- ------- ----- ---- -------<br>--- --- -- ----- -- --- ---- -- --- ---- -- ------ ------<br>--- ----- -- ----,169472.17499998806,169471.59499999543,169192.336,169194.7349999973,169208.394,169475.047,,22,But
screen,html.Screen,1_1_0_1_23,2021-04-18T17:52:39.166Z,,,,,,,,,,,,,,,,53,,,,,,,,,,,,,,229.76799999005743,,response,,,,99,,,,,,,Space,keypress(Space),,,,,,,,---- -- ----- -- ------ - ------- --- ----------<br>------------- ------ ------ ---- ---- ------- ----- -- ----<br>-------- ------- -- ---------- --- a --- ----- ----- ----<br>---- --- --- ----- --- ---- ---- ------- ----- ---- -------<br>--- --- -- ----- -- --- ---- -- --- ---- -- ------ ------<br>--- ----- -- ----,169705.31499999925,169704.81499999005,169459.02,169472.27999998722,169475.047,169708.357,,23,a
screen,html.Screen,1_1_0_1_24,2021-04-18T17:52:39.412Z,,,,,,,,,,,,,,,,53,,,,,,,,,,,,,,242.42299999922398,,response,,,,99,,,,,,,Space,keypress(Space),,,,,,,,---- -- ----- -- ------ - ------- --- ----------<br>------------- ------ ------ ---- ---- ------- ----- -- ----<br>-------- ------- -- ---------- --- - new ----- ----- ----<br>---- --- --- ----- --- ---- ---- ------- ----- ---- -------<br>--- --- -- ----- -- --- ---- -- --- ---- -- ------ ------<br>--- ----- -- ----,169951.27999999386,169950.7799999992,169692.105,169705.43999999063,169708.357,169959.046,,24,new
screen,html.Screen,1_1_0_1_25,2021-04-18T17:52:39.623Z,,,,,,,,,,,,,,,,53,,,,,,,,,,,,,,203.2389999985171,,response,,,,99,,,,,,,Space,keypress(Space),,,,,,,,---- -- ----- -- ------ - ------- --- ----------<br>------------- ------ ------ ---- ---- ------- ----- -- ----<br>-------- ------- -- ---------- --- - --- study ----- ----<br>---- --- --- ----- --- ---- ---- ------- ----- ---- -------<br>--- --- -- ----- -- --- ---- -- --- ---- -- ------ ------<br>--- ----- -- ----,170162.74499999417,170162.28499999852,169942.334,169951.38499999302,169959.046,170175.484,,25,study
screen,html.Screen,1_1_0_1_26,2021-04-18T17:52:39.833Z,,,,,,,,,,,,,,,,53,,,,,,,,,,,,,,196.78099999815458,,response,,,,99,,,,,,,Space,keypress(Space),,,,,,,,---- -- ----- -- ------ - ------- --- ----------<br>------------- ------ ------ ---- ---- ------- ----- -- ----<br>-------- ------- -- ---------- --- - --- ----- finds ----<br>---- --- --- ----- --- ---- ---- ------- ----- ---- -------<br>--- --- -- ----- -- --- ---- -- --- ---- -- ------ ------<br>--- ----- -- ----,170372.81499999517,170372.26499999815,170158.988,170162.84999999334,170175.484,170374.99,,26,finds
screen,html.Screen,1_1_0_1_27,2021-04-18T17:52:40.037Z,,,,,,,,,,,,,,,,53,,,,,,,,,,,,,,201.34999999962747,,response,,,,99,,,,,,,Space,keypress(Space),,,,,,,,---- -- ----- -- ------ - ------- --- ----------<br>------------- ------ ------ ---- ---- ------- ----- -- ----<br>-------- ------- -- ---------- --- - --- ----- ----- that<br>---- --- --- ----- --- ---- ---- ------- ----- ---- -------<br>--- --- -- ----- -- --- ---- -- --- ---- -- ------ ------<br>--- ----- -- ----,170576.90000000002,170576.33999999962,170358.332,170372.92499998875,170374.99,170592.314,,27,that
screen,html.Screen,1_1_0_1_28,2021-04-18T17:52:40.325Z,,,,,,,,,,,,,,,,53,,,,,,,,,,,,,,271.700999999186,,response,,,,99,,,,,,,Space,keypress(Space),,,,,,,,---- -- ----- -- ------ - ------- --- ----------<br>------------- ------ ------ ---- ---- ------- ----- -- ----<br>-------- ------- -- ---------- --- - --- ----- ----- ----<br>it's --- --- ----- --- ---- ---- ------- ----- ---- -------<br>--- --- -- ----- -- --- ---- -- --- ---- -- ------ ------<br>--- ----- -- ----,170864.47000000044,170864.0149999992,170575.009,170577.0049999992,170592.314,170875.549,,28,it's
screen,html.Screen,1_1_0_1_29,2021-04-18T17:52:40.547Z,,,,,,,,,,,,,,,,53,,,,,,,,,,,,,,211.06099999847356,,response,,,,99,,,,,,,Space,keypress(Space),,,,,,,,---- -- ----- -- ------ - ------- --- ----------<br>------------- ------ ------ ---- ---- ------- ----- -- ----<br>-------- ------- -- ---------- --- - --- ----- ----- ----<br>---- not --- ----- --- ---- ---- ------- ----- ---- -------<br>--- --- -- ----- -- --- ---- -- --- ---- -- ------ ------<br>--- ----- -- ----,171087.18499999668,171086.60999999847,170858.463,170864.5749999996,170875.549,171091.805,,29,not
screen,html.Screen,1_1_0_1_30,2021-04-18T17:52:40.752Z,,,,,,,,,,,,,,,,53,,,,,,,,,,,,,,199.28499999881024,,response,,,,99,,,,,,,Space,keypress(Space),,,,,,,,---- -- ----- -- ------ - ------- --- ----------<br>------------- ------ ------ ---- ---- ------- ----- -- ----<br>-------- ------- -- ---------- --- - --- ----- ----- ----<br>---- --- how ----- --- ---- ---- ------- ----- ---- -------<br>--- --- -- ----- -- --- ---- -- --- ---- -- ------ ------<br>--- ----- -- ----,171291.63999999582,171291.0899999988,171075,171087.30499999365,171091.805,171308.331,,30,how
screen,html.Screen,1_1_0_1_31,2021-04-18T17:52:40.949Z,,,,,,,,,,,,,,,,53,,,,,,,,,,,,,,179.8539999946952,,response,,,,99,,,,,,,Space,keypress(Space),,,,,,,,---- -- ----- -- ------ - ------- --- ----------<br>------------- ------ ------ ---- ---- ------- ----- -- ----<br>-------- ------- -- ---------- --- - --- ----- ----- ----<br>---- --- --- close --- ---- ---- ------- ----- ---- -------<br>--- --- -- ----- -- --- ---- -- --- ---- -- ------ ------<br>--- ----- -- ----,171488.7549999985,171488.1849999947,171275.485,171291.744999995,171308.331,171491.656,,31,close
screen,html.Screen,1_1_0_1_32,2021-04-18T17:52:41.168Z,,,,,,,,,,,,,,,,53,,,,,,,,,,,,,,215.38899998829584,,response,,,,99,,,,,,,Space,keypress(Space),,,,,,,,---- -- ----- -- ------ - ------- --- ----------<br>------------- ------ ------ ---- ---- ------- ----- -- ----<br>-------- ------- -- ---------- --- - --- ----- ----- ----<br>---- --- --- ----- you ---- ---- ------- ----- ---- -------<br>--- --- -- ----- -- --- ---- -- --- ---- -- ------ ------<br>--- ----- -- ----,171707.57499999308,171707.04499998828,171475.588,171488.8549999887,171491.656,171737.402,,32,you
screen,html.Screen,1_1_0_1_33,2021-04-18T17:52:41.366Z,,,,,,,,,,,,,,,,53,,,,,,,,,,,,,,167.79799999378156,,response,,,,99,,,,,,,Space,keypress(Space),,,,,,,,---- -- ----- -- ------ - ------- --- ----------<br>------------- ------ ------ ---- ---- ------- ----- -- ----<br>-------- ------- -- ---------- --- - --- ----- ----- ----<br>---- --- --- ----- --- feel ---- ------- ----- ---- -------<br>--- --- -- ----- -- --- ---- -- --- ---- -- ------ ------<br>--- ----- -- ----,171905.64999998605,171905.19999999378,171692.155,171707.7250000002,171737.402,171908.302,,33,feel
screen,html.Screen,1_1_0_1_34,2021-04-18T17:52:41.504Z,,,,,,,,,,,,,,,,53,,,,,,,,,,,,,,134.76299999075127,,response,,,,99,,,,,,,Space,keypress(Space),,,,,,,,---- -- ----- -- ------ - ------- --- ----------<br>------------- ------ ------ ---- ---- ------- ----- -- ----<br>-------- ------- -- ---------- --- - --- ----- ----- ----<br>---- --- --- ----- --- ---- that ------- ----- ---- -------<br>--- --- -- ----- -- --- ---- -- --- ---- -- ------ ------<br>--- ----- -- ----,172043.61499998777,172043.06499999075,171892.032,171905.75499999977,171908.302,172058.418,,34,that
screen,html.Screen,1_1_0_1_35,2021-04-18T17:52:41.661Z,,,,,,,,,,,,,,,,53,,,,,,,,,,,,,,142.01699999155244,,response,,,,99,,,,,,,Space,keypress(Space),,,,,,,,---- -- ----- -- ------ - ------- --- ----------<br>------------- ------ ------ ---- ---- ------- ----- -- ----<br>-------- ------- -- ---------- --- - --- ----- ----- ----<br>---- --- --- ----- --- ---- ---- matters ----- ---- -------<br>--- --- -- ----- -- --- ---- -- --- ---- -- ------ ------<br>--- ----- -- ----,172200.98499998858,172200.43499999156,172042.279,172043.7399999937,172058.418,172208.32,,35,matters
screen,html.Screen,1_1_0_1_36,2021-04-18T17:52:42.083Z,,,,,,,,,,,,,,,,53,,,,,,,,,,,,,,413.9899999915506,,response,,,,99,,,,,,,Space,keypress(Space),,,,,,,,"---- -- ----- -- ------ - ------- --- ----------<br>------------- ------ ------ ---- ---- ------- ----- -- ----<br>-------- ------- -- ---------- --- - --- ----- ----- ----<br>---- --- --- ----- --- ---- ---- ------- most, ---- -------<br>--- --- -- ----- -- --- ---- -- --- ---- -- ------ ------<br>--- ----- -- ----",172622.8349999874,172622.30999999156,172192.278,172201.94499999343,172208.32,172624.989,,36,"most,"
screen,html.Screen,1_1_0_1_37,2021-04-18T17:52:42.292Z,,,,,,,,,,,,,,,,53,,,,,,,,,,,,,,206.09099998901365,,response,,,,99,,,,,,,Space,keypress(Space),,,,,,,,---- -- ----- -- ------ - ------- --- ----------<br>------------- ------ ------ ---- ---- ------- ----- -- ----<br>-------- ------- -- ---------- --- - --- ----- ----- ----<br>---- --- --- ----- --- ---- ---- ------- ----- it's -------<br>--- --- -- ----- -- --- ---- -- --- ---- -- ------ ------<br>--- ----- -- ----,172831.51999999245,172831.07999998902,172608.97,172622.93499999214,172624.989,172842.285,,37,it's
screen,html.Screen,1_1_0_1_38,2021-04-18T17:52:42.609Z,,,,,,,,,,,,,,,,53,,,,,,,,,,,,,,305.4499999913678,,response,,,,99,,,,,,,Space,keypress(Space),,,,,,,,---- -- ----- -- ------ - ------- --- ----------<br>------------- ------ ------ ---- ---- ------- ----- -- ----<br>-------- ------- -- ---------- --- - --- ----- ----- ----<br>---- --- --- ----- --- ---- ---- ------- ----- ---- whether<br>--- --- -- ----- -- --- ---- -- --- ---- -- ------ ------<br>--- ----- -- ----,173148.26499999617,173147.73499999137,172824.954,172831.6449999984,172842.285,173158.981,,38,whether
screen,html.Screen,1_1_0_1_39,2021-04-18T17:52:42.977Z,,,,,,,,,,,,,,,,53,,,,,,,,,,,,,,357.66399999606074,,response,,,,99,,,,,,,Space,keypress(Space),,,,,,,,---- -- ----- -- ------ - ------- --- ----------<br>------------- ------ ------ ---- ---- ------- ----- -- ----<br>-------- ------- -- ---------- --- - --- ----- ----- ----<br>---- --- --- ----- --- ---- ---- ------- ----- ---- -------<br>you --- -- ----- -- --- ---- -- --- ---- -- ------ ------<br>--- ----- -- ----,173517.20999999088,173516.64499999606,173142.054,173148.42499999213,173158.981,173525.393,,39,you
screen,html.Screen,1_1_0_1_40,2021-04-18T17:52:43.196Z,,,,,,,,,,,,,,,,53,,,,,,,,,,,,,,209.51699999920675,,response,,,,99,,,,,,,Space,keypress(Space),,,,,,,,---- -- ----- -- ------ - ------- --- ----------<br>------------- ------ ------ ---- ---- ------- ----- -- ----<br>-------- ------- -- ---------- --- - --- ----- ----- ----<br>---- --- --- ----- --- ---- ---- ------- ----- ---- -------<br>--- are -- ----- -- --- ---- -- --- ---- -- ------ ------<br>--- ----- -- ----,173735.46999999962,173734.90999999922,173508.919,173517.30999999563,173525.393,173742.185,,40,are
screen,html.Screen,1_1_0_1_41,2021-04-18T17:52:43.434Z,,,,,,,,,,,,,,,,53,,,,,,,,,,,,,,231.15499999682652,,response,,,,99,,,,,,,Space,keypress(Space),,,,,,,,---- -- ----- -- ------ - ------- --- ----------<br>------------- ------ ------ ---- ---- ------- ----- -- ----<br>-------- ------- -- ---------- --- - --- ----- ----- ----<br>---- --- --- ----- --- ---- ---- ------- ----- ---- -------<br>--- --- as ----- -- --- ---- -- --- ---- -- ------ ------<br>--- ----- -- ----,173973.86999998707,173973.33999999682,173725.582,173735.56999998982,173742.185,174001.866,,41,as
screen,html.Screen,1_1_0_1_42,2021-04-18T17:52:43.670Z,,,,,,,,,,,,,,,,53,,,,,,,,,,,,,,207.13899999696878,,response,,,,99,,,,,,,Space,keypress(Space),,,,,,,,---- -- ----- -- ------ - ------- --- ----------<br>------------- ------ ------ ---- ---- ------- ----- -- ----<br>-------- ------- -- ---------- --- - --- ----- ----- ----<br>---- --- --- ----- --- ---- ---- ------- ----- ---- -------<br>--- --- -- close -- --- ---- -- --- ---- -- ------ ------<br>--- ----- -- ----,174209.50499999162,174209.00499999698,173958.589,173973.96999999182,174001.866,174225.028,,42,close
screen,html.Screen,1_1_0_1_43,2021-04-18T17:52:43.873Z,,,,,,,,,,,,,,,,53,,,,,,,,,,,,,,187.08699999918463,,response,,,,99,,,,,,,Space,keypress(Space),,,,,,,,---- -- ----- -- ------ - ------- --- ----------<br>------------- ------ ------ ---- ---- ------- ----- -- ----<br>-------- ------- -- ---------- --- - --- ----- ----- ----<br>---- --- --- ----- --- ---- ---- ------- ----- ---- -------<br>--- --- -- ----- as --- ---- -- --- ---- -- ------ ------<br>--- ----- -- ----,174412.6249999972,174412.11499999918,174208.699,174211.09499999147,174225.028,174425.33,,43,as
screen,html.Screen,1_1_0_1_44,2021-04-18T17:52:44.101Z,,,,,,,,,,,,,,,,53,,,,,,,,,,,,,,215.2749999932421,,response,,,,99,,,,,,,Space,keypress(Space),,,,,,,,---- -- ----- -- ------ - ------- --- ----------<br>------------- ------ ------ ---- ---- ------- ----- -- ----<br>-------- ------- -- ---------- --- - --- ----- ----- ----<br>---- --- --- ----- --- ---- ---- ------- ----- ---- -------<br>--- --- -- ----- -- you ---- -- --- ---- -- ------ ------<br>--- ----- -- ----,174641.13499999803,174640.60499999323,174408.723,174412.7349999908,174425.33,174668.591,,44,you
screen,html.Screen,1_1_0_1_45,2021-04-18T17:52:44.355Z,,,,,,,,,,,,,,,,53,,,,,,,,,,,,,,225.7539999933506,,response,,,,99,,,,,,,Space,keypress(Space),,,,,,,,---- -- ----- -- ------ - ------- --- ----------<br>------------- ------ ------ ---- ---- ------- ----- -- ----<br>-------- ------- -- ---------- --- - --- ----- ----- ----<br>---- --- --- ----- --- ---- ---- ------- ----- ---- -------<br>--- --- -- ----- -- --- want -- --- ---- -- ------ ------<br>--- ----- -- ----,174894.87999999255,174894.34499999334,174625.582,174641.2299999938,174668.591,174908.305,,45,want
screen,html.Screen,1_1_0_1_46,2021-04-18T17:52:44.593Z,,,,,,,,,,,,,,,,53,,,,,,,,,,,,,,223.61499999981606,,response,,,,99,,,,,,,Space,keypress(Space),,,,,,,,---- -- ----- -- ------ - ------- --- ----------<br>------------- ------ ------ ---- ---- ------- ----- -- ----<br>-------- ------- -- ---------- --- - --- ----- ----- ----<br>---- --- --- ----- --- ---- ---- ------- ----- ---- -------<br>--- --- -- ----- -- --- ---- to --- ---- -- ------ ------<br>--- ----- -- ----,175132.42999999784,175131.9199999998,174892.224,174894.9799999973,174908.305,175142.294,,46,to
screen,html.Screen,1_1_0_1_47,2021-04-18T17:52:44.823Z,,,,,,,,,,,,,,,,53,,,,,,,,,,,,,,219.55599998659454,,response,,,,99,,,,,,,Space,keypress(Space),,,,,,,,"---- -- ----- -- ------ - ------- --- ----------<br>------------- ------ ------ ---- ---- ------- ----- -- ----<br>-------- ------- -- ---------- --- - --- ----- ----- ----<br>---- --- --- ----- --- ---- ---- ------- ----- ---- -------<br>--- --- -- ----- -- --- ---- -- be, ---- -- ------ ------<br>--- ----- -- ----",175362.409999987,175361.8499999866,175125.239,175132.52999998804,175142.294,175375.451,,47,"be,"
screen,html.Screen,1_1_0_1_48,2021-04-18T17:52:45.076Z,,,,,,,,,,,,,,,,53,,,,,,,,,,,,,,239.32899998896755,,response,,,,99,,,,,,,Space,keypress(Space),,,,,,,,---- -- ----- -- ------ - ------- --- ----------<br>------------- ------ ------ ---- ---- ------- ----- -- ----<br>-------- ------- -- ---------- --- - --- ----- ----- ----<br>---- --- --- ----- --- ---- ---- ------- ----- ---- -------<br>--- --- -- ----- -- --- ---- -- --- even -- ------ ------<br>--- ----- -- ----,175615.329999986,175614.77999998897,175358.785,175362.50499999733,175375.451,175625.211,,48,even
screen,html.Screen,1_1_0_1_49,2021-04-18T17:52:45.320Z,,,,,,,,,,,,,,,,53,,,,,,,,,,,,,,233.52399998705368,,response,,,,99,,,,,,,Space,keypress(Space),,,,,,,,---- -- ----- -- ------ - ------- --- ----------<br>------------- ------ ------ ---- ---- ------- ----- -- ----<br>-------- ------- -- ---------- --- - --- ----- ----- ----<br>---- --- --- ----- --- ---- ---- ------- ----- ---- -------<br>--- --- -- ----- -- --- ---- -- --- ---- if ------ ------<br>--- ----- -- ----,175859.32999999204,175858.73499998706,175608.253,175615.42499999632,175625.211,175875.193,,49,if
screen,html.Screen,1_1_0_1_50,2021-04-18T17:52:45.597Z,,,,,,,,,,,,,,,,53,,,,,,,,,,,,,,261.0869999915303,,response,,,,99,,,,,,,Space,keypress(Space),,,,,,,,---- -- ----- -- ------ - ------- --- ----------<br>------------- ------ ------ ---- ---- ------- ----- -- ----<br>-------- ------- -- ---------- --- - --- ----- ----- ----<br>---- --- --- ----- --- ---- ---- ------- ----- ---- -------<br>--- --- -- ----- -- --- ---- -- --- ---- -- that's ------<br>--- ----- -- ----,176136.8899999943,176136.27999999153,175858.878,175859.4299999968,175875.193,176141.623,,50,that's
screen,html.Screen,1_1_0_1_51,2021-04-18T17:52:45.846Z,,,,,,,,,,,,,,,,53,,,,,,,,,,,,,,243.5669999863312,,response,,,,99,,,,,,,Space,keypress(Space),,,,,,,,---- -- ----- -- ------ - ------- --- ----------<br>------------- ------ ------ ---- ---- ------- ----- -- ----<br>-------- ------- -- ---------- --- - --- ----- ----- ----<br>---- --- --- ----- --- ---- ---- ------- ----- ---- -------<br>--- --- -- ----- -- --- ---- -- --- ---- -- ------ really<br>--- ----- -- ----,176385.63999999315,176385.18999998632,176125.492,176136.9849999901,176141.623,176391.982,,51,really
screen,html.Screen,1_1_0_1_52,2021-04-18T17:52:46.254Z,,,,,,,,,,,,,,,,53,,,,,,,,,,,,,,401.0179999905813,,response,,,,99,,,,,,,Space,keypress(Space),,,,,,,,---- -- ----- -- ------ - ------- --- ----------<br>------------- ------ ------ ---- ---- ------- ----- -- ----<br>-------- ------- -- ---------- --- - --- ----- ----- ----<br>---- --- --- ----- --- ---- ---- ------- ----- ---- -------<br>--- --- -- ----- -- --- ---- -- --- ---- -- ------ ------<br>not ----- -- ----,176793.56999999436,176792.99999999057,176375.195,176385.73499998893,176391.982,176808.266,,52,not
screen,html.Screen,1_1_0_1_53,2021-04-18T17:52:46.469Z,,,,,,,,,,,,,,,,53,,,,,,,,,,,,,,199.74399999046,,response,,,,99,,,,,,,Space,keypress(Space),,,,,,,,---- -- ----- -- ------ - ------- --- ----------<br>------------- ------ ------ ---- ---- ------- ----- -- ----<br>-------- ------- -- ---------- --- - --- ----- ----- ----<br>---- --- --- ----- --- ---- ---- ------- ----- ---- -------<br>--- --- -- ----- -- --- ---- -- --- ---- -- ------ ------<br>--- close -- ----,177008.55999998748,177008.00999999046,176792.056,176793.6950000003,176808.266,177025.444,,53,close
screen,html.Screen,1_1_0_1_54,2021-04-18T17:52:46.785Z,,,,,,,,,,,,,,,,53,,,,,,,,,,,,,,298.8509999985399,,response,,,,99,,,,,,,Space,keypress(Space),,,,,,,,---- -- ----- -- ------ - ------- --- ----------<br>------------- ------ ------ ---- ---- ------- ----- -- ----<br>-------- ------- -- ---------- --- - --- ----- ----- ----<br>---- --- --- ----- --- ---- ---- ------- ----- ---- -------<br>--- --- -- ----- -- --- ---- -- --- ---- -- ------ ------<br>--- ----- at ----,177324.80499999656,177324.29499999853,177008.862,177008.69999999122,177025.444,177342.21,,54,at
screen,html.Screen,1_1_0_1_55,2021-04-18T17:52:47.834Z,,,,,,,,,,,,,,,,53,,,,,,,,,,,,,,1031.2099999889906,,response,,,,99,,,,,,,Space,keypress(Space),,,,,,,,---- -- ----- -- ------ - ------- --- ----------<br>------------- ------ ------ ---- ---- ------- ----- -- ----<br>-------- ------- -- ---------- --- - --- ----- ----- ----<br>---- --- --- ----- --- ---- ---- ------- ----- ---- -------<br>--- --- -- ----- -- --- ---- -- --- ---- -- ------ ------<br>--- ----- -- all.,178374.01999998838,178373.41999998898,177308.925,177324.89999999234,177342.21,178392.835,,55,all.
Item 99,flow.Loop,1_1_0_1,2021-04-18T17:52:47.835Z,,,,,,,,,,,,,,,,,,,,,,,,,,,,,,17464.917999988975,,completion,,,,,D,,,,,,,,,,,silence,,,,,178374.2149999889,178373.41999998898,160875.608,160876.40499998815,160908.502,178392.835,,,
Question 1,html.Screen,1_1_0_2,2021-04-18T17:52:53.871Z,,,,,,,,,,,,,,,,,,,,,,,,,,,false,FALSE,,6015.939999988972,,response,,,,99,D,,,,,,TRUE,click #choice-1,,,,silence,,,,,184410.9499999904,184408.77499998896,178358.522,178374.30499999027,178392.835,184442.123,,,
Question 2,html.Screen,1_1_0_3,2021-04-18T17:52:58.117Z,,,,,,,,,,,,,,,,,,,,,,,,,,,true,TRUE,,4213.1019999949785,,response,,,,99,D,,,,,,TRUE,click #choice-1,,,,silence,,,,,188657.42999999202,188655.22499999497,184425.135,184411.07499999634,184442.123,188658.05,,,
Item 99,flow.Sequence,1_1_0,2021-04-18T17:52:58.117Z,,,,,,,,,,,,,,,,,,,,,,,,,,,,,,37763.21699999497,,completion,,,,,,,,,,,,,,,,,,,,,188657.58499999356,188655.22499999497,150875.001,150886.47499999206,150892.008,188658.05,,,
Holding screen,html.Screen,1_1_1_0,2021-04-18T17:53:08.102Z,,,,,,,,,,,,,,,,,,,,,,,,,,,,,,10000.375,,timeout,,,,,,,,,,,,,,,,,,,,,198642.4999999872,198641.857,188641.394,188657.67999998934,188658.05,198658.425,,,
screen,html.Screen,1_1_1_1_0,2021-04-18T17:53:09.751Z,,,,,,,,,,,,,,,,54,,,,,,,,,,,,,,1631.7199999917648,,response,,,,100,,,,,,,Space,keypress(Space),,,,,,,,At --- ---- --- ------ ----- ------- ---- -- --- ------- --<br>------- ---------- ------ -- ----- -- ----- -- ---- ------<br>--- ----- --- --- ------ -------- ----- --- ------ ----- --<br>----- ----- ---------- --- --- ------ ------ ---- -- ------<br>------- --- ------ ----- --- ---- ------- -- ---- --- --<br>------- ------,200290.7899999991,200290.14499999175,198641.857,198642.63999999093,198658.425,200309.226,,0,At
screen,html.Screen,1_1_1_1_1,2021-04-18T17:53:10.484Z,,,,,,,,,,,,,,,,54,,,,,,,,,,,,,,714.4689999962284,,response,,,,100,,,,,,,Space,keypress(Space),,,,,,,,-- the ---- --- ------ ----- ------- ---- -- --- ------- --<br>------- ---------- ------ -- ----- -- ----- -- ---- ------<br>--- ----- --- --- ------ -------- ----- --- ------ ----- --<br>----- ----- ---------- --- --- ------ ------ ---- -- ------<br>------- --- ------ ----- --- ---- ------- -- ---- --- --<br>------- ------,201024.29999999003,201023.69499999622,200274.921,200290.8899999893,200309.226,201041.597,,1,the
screen,html.Screen,1_1_1_1_2,2021-04-18T17:53:10.871Z,,,,,,,,,,,,,,,,54,,,,,,,,,,,,,,369.54299999651266,,response,,,,100,,,,,,,Space,keypress(Space),,,,,,,,-- --- time --- ------ ----- ------- ---- -- --- ------- --<br>------- ---------- ------ -- ----- -- ----- -- ---- ------<br>--- ----- --- --- ------ -------- ----- --- ------ ----- --<br>----- ----- ---------- --- --- ------ ------ ---- -- ------<br>------- --- ------ ----- --- ---- ------- -- ---- --- --<br>------- ------,201411.61499998998,201411.13999999652,201024.642,201024.44999999716,201041.597,201424.534,,2,time
screen,html.Screen,1_1_1_1_3,2021-04-18T17:53:11.240Z,,,,,,,,,,,,,,,,54,,,,,,,,,,,,,,355.39599998967606,,response,,,,100,,,,,,,Space,keypress(Space),,,,,,,,-- --- ---- the ------ ----- ------- ---- -- --- ------- --<br>------- ---------- ------ -- ----- -- ----- -- ---- ------<br>--- ----- --- --- ------ -------- ----- --- ------ ----- --<br>----- ----- ---------- --- --- ------ ------ ---- -- ------<br>------- --- ------ ----- --- ---- ------- -- ---- --- --<br>------- ------,201780.51499999128,201779.9299999897,201407.884,201411.71999998915,201424.534,201791.837,,3,the
screen,html.Screen,1_1_1_1_4,2021-04-18T17:53:11.552Z,,,,,,,,,,,,,,,,54,,,,,,,,,,,,,,299.9929999902961,,response,,,,100,,,,,,,Space,keypress(Space),,,,,,,,-- --- ---- --- French ----- ------- ---- -- --- ------- --<br>------- ---------- ------ -- ----- -- ----- -- ---- ------<br>--- ----- --- --- ------ -------- ----- --- ------ ----- --<br>----- ----- ---------- --- --- ------ ------ ---- -- ------<br>------- --- ------ ----- --- ---- ------- -- ---- --- --<br>------- ------,202092.3599999951,202091.8299999903,201775.1,201780.61499999603,201791.837,202107.834,,4,French
screen,html.Screen,1_1_1_1_5,2021-04-18T17:53:11.867Z,,,,,,,,,,,,,,,,54,,,,,,,,,,,,,,298.9259999980277,,response,,,,100,,,,,,,Space,keypress(Space),,,,,,,,-- --- ---- --- ------ crown ------- ---- -- --- ------- --<br>------- ---------- ------ -- ----- -- ----- -- ---- ------<br>--- ----- --- --- ------ -------- ----- --- ------ ----- --<br>----- ----- ---------- --- --- ------ ------ ---- -- ------<br>------- --- ------ ----- --- ---- ------- -- ---- --- --<br>------- ------,202407.2649999871,202406.75999999803,202091.409,202092.45999999985,202107.834,202434.246,,5,crown
screen,html.Screen,1_1_1_1_6,2021-04-18T17:53:12.185Z,,,,,,,,,,,,,,,,54,,,,,,,,,,,,,,290.48399998716195,,response,,,,100,,,,,,,Space,keypress(Space),,,,,,,,-- --- ---- --- ------ ----- secured ---- -- --- ------- --<br>------- ---------- ------ -- ----- -- ----- -- ---- ------<br>--- ----- --- --- ------ -------- ----- --- ------ ----- --<br>----- ----- ---------- --- --- ------ ------ ---- -- ------<br>------- --- ------ ----- --- ---- ------- -- ---- --- --<br>------- ------,202725.17499999958,202724.72999998718,202391.721,202407.36999998626,202434.246,202741.81,,6,secured
screen,html.Screen,1_1_1_1_7,2021-04-18T17:53:12.503Z,,,,,,,,,,,,,,,,54,,,,,,,,,,,,,,300.734999989334,,response,,,,100,,,,,,,Space,keypress(Space),,,,,,,,-- --- ---- --- ------ ----- ------- much -- --- ------- --<br>------- ---------- ------ -- ----- -- ----- -- ---- ------<br>--- ----- --- --- ------ -------- ----- --- ------ ----- --<br>----- ----- ---------- --- --- ------ ------ ---- -- ------<br>------- --- ------ ----- --- ---- ------- -- ---- --- --<br>------- ------,203043.04499999853,203042.54499998933,202725.072,202725.26999999536,202741.81,203058.368,,7,much
screen,html.Screen,1_1_1_1_8,2021-04-18T17:53:12.804Z,,,,,,,,,,,,,,,,54,,,,,,,,,,,,,,285.17699999609613,,response,,,,100,,,,,,,Space,keypress(Space),,,,,,,,-- --- ---- --- ------ ----- ------- ---- of --- ------- --<br>------- ---------- ------ -- ----- -- ----- -- ---- ------<br>--- ----- --- --- ------ -------- ----- --- ------ ----- --<br>----- ----- ---------- --- --- ------ ------ ---- -- ------<br>------- --- ------ ----- --- ---- ------- -- ---- --- --<br>------- ------,203344.0399999963,203343.54499999608,203041.625,203043.1349999999,203058.368,203358.467,,8,of
screen,html.Screen,1_1_1_1_9,2021-04-18T17:53:13.065Z,,,,,,,,,,,,,,,,54,,,,,,,,,,,,,,246.167999996047,,response,,,,100,,,,,,,Space,keypress(Space),,,,,,,,-- --- ---- --- ------ ----- ------- ---- -- its ------- --<br>------- ---------- ------ -- ----- -- ----- -- ---- ------<br>--- ----- --- --- ------ -------- ----- --- ------ ----- --<br>----- ----- ---------- --- --- ------ ------ ---- -- ------<br>------- --- ------ ----- --- ---- ------- -- ---- --- --<br>------- ------,203605.23499999545,203604.63499999605,203341.743,203344.14499999548,203358.467,203607.757,,9,its
screen,html.Screen,1_1_1_1_10,2021-04-18T17:53:13.326Z,,,,,,,,,,,,,,,,54,,,,,,,,,,,,,,258.04299999956856,,response,,,,100,,,,,,,Space,keypress(Space),,,,,,,,-- --- ---- --- ------ ----- ------- ---- -- --- revenue --<br>------- ---------- ------ -- ----- -- ----- -- ---- ------<br>--- ----- --- --- ------ -------- ----- --- ------ ----- --<br>----- ----- ---------- --- --- ------ ------ ---- -- ------<br>------- --- ------ ----- --- ---- ------- -- ---- --- --<br>------- ------,203866.33999999322,203865.79999999958,203591.734,203605.389999997,203607.757,203874.805,,10,revenue
screen,html.Screen,1_1_1_1_11,2021-04-18T17:53:13.639Z,,,,,,,,,,,,,,,,54,,,,,,,,,,,,,,303.7550000002957,,response,,,,100,,,,,,,Space,keypress(Space),,,,,,,,-- --- ---- --- ------ ----- ------- ---- -- --- ------- by<br>------- ---------- ------ -- ----- -- ----- -- ---- ------<br>--- ----- --- --- ------ -------- ----- --- ------ ----- --<br>----- ----- ---------- --- --- ------ ------ ---- -- ------<br>------- --- ------ ----- --- ---- ------- -- ---- --- --<br>------- ------,204179.06999999832,204178.5600000003,203858.426,203866.434999989,203874.805,204191.641,,11,by
screen,html.Screen,1_1_1_1_12,2021-04-18T17:53:13.978Z,,,,,,,,,,,,,,,,54,,,,,,,,,,,,,,325.79899999598274,,response,,,,100,,,,,,,Space,keypress(Space),,,,,,,,-- --- ---- --- ------ ----- ------- ---- -- --- ------- --<br>issuing ---------- ------ -- ----- -- ----- -- ---- ------<br>--- ----- --- --- ------ -------- ----- --- ------ ----- --<br>----- ----- ---------- --- --- ------ ------ ---- -- ------<br>------- --- ------ ----- --- ---- ------- -- ---- --- --<br>------- ------,204518.0049999908,204517.439999996,204175.065,204179.1649999941,204191.641,204524.924,,12,issuing
screen,html.Screen,1_1_1_1_13,2021-04-18T17:53:14.311Z,,,,,,,,,,,,,,,,54,,,,,,,,,,,,,,325.75099999422673,,response,,,,100,,,,,,,Space,keypress(Space),,,,,,,,-- --- ---- --- ------ ----- ------- ---- -- --- ------- --<br>------- government ------ -- ----- -- ----- -- ---- ------<br>--- ----- --- --- ------ -------- ----- --- ------ ----- --<br>----- ----- ---------- --- --- ------ ------ ---- -- ------<br>------- --- ------ ----- --- ---- ------- -- ---- --- --<br>------- ------,204851.23499999463,204850.67499999423,204507.758,204518.10499999556,204524.924,204858.278,,13,government
screen,html.Screen,1_1_1_1_14,2021-04-18T17:53:14.654Z,,,,,,,,,,,,,,,,54,,,,,,,,,,,,,,335.7819999943604,,response,,,,100,,,,,,,Space,keypress(Space),,,,,,,,-- --- ---- --- ------ ----- ------- ---- -- --- ------- --<br>------- ---------- bonds. -- ----- -- ----- -- ---- ------<br>--- ----- --- --- ------ -------- ----- --- ------ ----- --<br>----- ----- ---------- --- --- ------ ------ ---- -- ------<br>------- --- ------ ----- --- ---- ------- -- ---- --- --<br>------- ------,205194.58499999018,205194.05999999435,204841.688,204851.3549999916,204858.278,205207.781,,14,bonds.
screen,html.Screen,1_1_1_1_15,2021-04-18T17:53:14.942Z,,,,,,,,,,,,,,,,54,,,,,,,,,,,,,,273.57399999626796,,response,,,,100,,,,,,,Space,keypress(Space),,,,,,,,-- --- ---- --- ------ ----- ------- ---- -- --- ------- --<br>------- ---------- ------ In ----- -- ----- -- ---- ------<br>--- ----- --- --- ------ -------- ----- --- ------ ----- --<br>----- ----- ---------- --- --- ------ ------ ---- -- ------<br>------- --- ------ ----- --- ---- ------- -- ---- --- --<br>------- ------,205481.8949999899,205481.35499999626,205191.709,205194.67999998596,205207.781,205491.798,,15,In
screen,html.Screen,1_1_1_1_16,2021-04-18T17:53:15.281Z,,,,,,,,,,,,,,,,54,,,,,,,,,,,,,,328.4169999997248,,response,,,,100,,,,,,,Space,keypress(Space),,,,,,,,"-- --- ---- --- ------ ----- ------- ---- -- --- ------- --<br>------- ---------- ------ -- 1727, -- ----- -- ---- ------<br>--- ----- --- --- ------ -------- ----- --- ------ ----- --<br>----- ----- ---------- --- --- ------ ------ ---- -- ------<br>------- --- ------ ----- --- ---- ------- -- ---- --- --<br>------- ------",205820.82499998796,205820.21499999973,205475.06,205481.99499999464,205491.798,205824.443,,16,"1727,"
screen,html.Screen,1_1_1_1_17,2021-04-18T17:53:15.903Z,,,,,,,,,,,,,,,,54,,,,,,,,,,,,,,618.0870000002615,,response,,,,100,,,,,,,Space,keypress(Space),,,,,,,,-- --- ---- --- ------ ----- ------- ---- -- --- ------- --<br>------- ---------- ------ -- ----- in ----- -- ---- ------<br>--- ----- --- --- ------ -------- ----- --- ------ ----- --<br>----- ----- ---------- --- --- ------ ------ ---- -- ------<br>------- --- ------ ----- --- ---- ------- -- ---- --- --<br>------- ------,206443.0399999983,206442.53000000026,205807.735,205820.9249999927,205824.443,206458.416,,17,in
screen,html.Screen,1_1_1_1_18,2021-04-18T17:53:16.313Z,,,,,,,,,,,,,,,,54,,,,,,,,,,,,,,394.913999998098,,response,,,,100,,,,,,,Space,keypress(Space),,,,,,,,-- --- ---- --- ------ ----- ------- ---- -- --- ------- --<br>------- ---------- ------ -- ----- -- order -- ---- ------<br>--- ----- --- --- ------ -------- ----- --- ------ ----- --<br>----- ----- ---------- --- --- ------ ------ ---- -- ------<br>------- --- ------ ----- --- ---- ------- -- ---- --- --<br>------- ------,206853.76499999256,206853.3299999981,206441.431,206443.1399999885,206458.416,206857.702,,18,order
screen,html.Screen,1_1_1_1_19,2021-04-18T17:53:16.780Z,,,,,,,,,,,,,,,,54,,,,,,,,,,,,,,462.08799999410985,,response,,,,100,,,,,,,Space,keypress(Space),,,,,,,,-- --- ---- --- ------ ----- ------- ---- -- --- ------- --<br>------- ---------- ------ -- ----- -- ----- to ---- ------<br>--- ----- --- --- ------ -------- ----- --- ------ ----- --<br>----- ----- ---------- --- --- ------ ------ ---- -- ------<br>------- --- ------ ----- --- ---- ------- -- ---- --- --<br>------- ------,207320.32499999332,207319.7899999941,206841.675,206853.85499999393,206857.702,207324.481,,19,to
screen,html.Screen,1_1_1_1_20,2021-04-18T17:53:17.214Z,,,,,,,,,,,,,,,,54,,,,,,,,,,,,,,429.5189999862632,,response,,,,100,,,,,,,Space,keypress(Space),,,,,,,,-- --- ---- --- ------ ----- ------- ---- -- --- ------- --<br>------- ---------- ------ -- ----- -- ----- -- save ------<br>--- ----- --- --- ------ -------- ----- --- ------ ----- --<br>----- ----- ---------- --- --- ------ ------ ---- -- ------<br>------- --- ------ ----- --- ---- ------- -- ---- --- --<br>------- ------,207754.50499998988,207753.99999998626,207308.331,207320.41499999468,207324.481,207757.699,,20,save
screen,html.Screen,1_1_1_1_21,2021-04-18T17:53:17.504Z,,,,,,,,,,,,,,,,54,,,,,,,,,,,,,,286.5359999939392,,response,,,,100,,,,,,,Space,keypress(Space),,,,,,,,"-- --- ---- --- ------ ----- ------- ---- -- --- ------- --<br>------- ---------- ------ -- ----- -- ----- -- ---- money,<br>--- ----- --- --- ------ -------- ----- --- ------ ----- --<br>----- ----- ---------- --- --- ------ ------ ---- -- ------<br>------- --- ------ ----- --- ---- ------- -- ---- --- --<br>------- ------",208044.73999999755,208044.23499999393,207741.624,207754.6399999992,207757.699,208058.387,,21,"money,"
screen,html.Screen,1_1_1_1_22,2021-04-18T17:53:17.936Z,,,,,,,,,,,,,,,,54,,,,,,,,,,,,,,417.4529999991646,,response,,,,100,,,,,,,Space,keypress(Space),,,,,,,,-- --- ---- --- ------ ----- ------- ---- -- --- ------- --<br>------- ---------- ------ -- ----- -- ----- -- ---- ------<br>the ----- --- --- ------ -------- ----- --- ------ ----- --<br>----- ----- ---------- --- --- ------ ------ ---- -- ------<br>------- --- ------ ----- --- ---- ------- -- ---- --- --<br>------- ------,208476.52499999094,208475.83999999915,208041.663,208044.83499999333,208058.387,208491.716,,22,the
screen,html.Screen,1_1_1_1_23,2021-04-18T17:53:18.285Z,,,,,,,,,,,,,,,,54,,,,,,,,,,,,,,333.2290000003122,,response,,,,100,,,,,,,Space,keypress(Space),,,,,,,,-- --- ---- --- ------ ----- ------- ---- -- --- ------- --<br>------- ---------- ------ -- ----- -- ----- -- ---- ------<br>--- state --- --- ------ -------- ----- --- ------ ----- --<br>----- ----- ---------- --- --- ------ ------ ---- -- ------<br>------- --- ------ ----- --- ---- ------- -- ---- --- --<br>------- ------,208825.43499999156,208824.9450000003,208474.985,208476.61999998672,208491.716,208841.42,,23,state
screen,html.Screen,1_1_1_1_24,2021-04-18T17:53:18.613Z,,,,,,,,,,,,,,,,54,,,,,,,,,,,,,,311.0199999907345,,response,,,,100,,,,,,,Space,keypress(Space),,,,,,,,-- --- ---- --- ------ ----- ------- ---- -- --- ------- --<br>------- ---------- ------ -- ----- -- ----- -- ---- ------<br>--- ----- cut --- ------ -------- ----- --- ------ ----- --<br>----- ----- ---------- --- --- ------ ------ ---- -- ------<br>------- --- ------ ----- --- ---- ------- -- ---- --- --<br>------- ------,209152.99499999674,209152.43999999075,208824.48,208825.52999998734,208841.42,209157.836,,24,cut
screen,html.Screen,1_1_1_1_25,2021-04-18T17:53:18.928Z,,,,,,,,,,,,,,,,54,,,,,,,,,,,,,,310.4239999941783,,response,,,,100,,,,,,,Space,keypress(Space),,,,,,,,-- --- ---- --- ------ ----- ------- ---- -- --- ------- --<br>------- ---------- ------ -- ----- -- ----- -- ---- ------<br>--- ----- --- the ------ -------- ----- --- ------ ----- --<br>----- ----- ---------- --- --- ------ ------ ---- -- ------<br>------- --- ------ ----- --- ---- ------- -- ---- --- --<br>------- ------,209468.75999998883,209468.2599999942,209141.367,209153.0849999981,209157.836,209474.75,,25,the
screen,html.Screen,1_1_1_1_26,2021-04-18T17:53:19.227Z,,,,,,,,,,,,,,,,54,,,,,,,,,,,,,,291.57499998959247,,response,,,,100,,,,,,,Space,keypress(Space),,,,,,,,-- --- ---- --- ------ ----- ------- ---- -- --- ------- --<br>------- ---------- ------ -- ----- -- ----- -- ---- ------<br>--- ----- --- --- bonds' -------- ----- --- ------ ----- --<br>----- ----- ---------- --- --- ------ ------ ---- -- ------<br>------- --- ------ ----- --- ---- ------- -- ---- --- --<br>------- ------,209766.8249999988,209766.3249999896,209458.263,209468.85499999917,209474.75,209774.364,,26,bonds'
screen,html.Screen,1_1_1_1_27,2021-04-18T17:53:19.526Z,,,,,,,,,,,,,,,,54,,,,,,,,,,,,,,291.8409999955329,,response,,,,100,,,,,,,Space,keypress(Space),,,,,,,,-- --- ---- --- ------ ----- ------- ---- -- --- ------- --<br>------- ---------- ------ -- ----- -- ----- -- ---- ------<br>--- ----- --- --- ------ interest ----- --- ------ ----- --<br>----- ----- ---------- --- --- ------ ------ ---- -- ------<br>------- --- ------ ----- --- ---- ------- -- ---- --- --<br>------- ------,210066.71999998798,210066.20499999553,209758.292,209766.92999999796,209774.364,210074.388,,27,interest
screen,html.Screen,1_1_1_1_28,2021-04-18T17:53:19.782Z,,,,,,,,,,,,,,,,54,,,,,,,,,,,,,,247.48199999975623,,response,,,,100,,,,,,,Space,keypress(Space),,,,,,,,-- --- ---- --- ------ ----- ------- ---- -- --- ------- --<br>------- ---------- ------ -- ----- -- ----- -- ---- ------<br>--- ----- --- --- ------ -------- rate. --- ------ ----- --<br>----- ----- ---------- --- --- ------ ------ ---- -- ------<br>------- --- ------ ----- --- ---- ------- -- ---- --- --<br>------- ------,210322.3549999966,210321.86999999976,210057.662,210066.8149999983,210074.388,210324.311,,28,rate.
screen,html.Screen,1_1_1_1_29,2021-04-18T17:53:20.079Z,,,,,,,,,,,,,,,,54,,,,,,,,,,,,,,294.15899998671375,,response,,,,100,,,,,,,Space,keypress(Space),,,,,,,,-- --- ---- --- ------ ----- ------- ---- -- --- ------- --<br>------- ---------- ------ -- ----- -- ----- -- ---- ------<br>--- ----- --- --- ------ -------- ----- The ------ ----- --<br>----- ----- ---------- --- --- ------ ------ ---- -- ------<br>------- --- ------ ----- --- ---- ------- -- ---- --- --<br>------- ------,210619.0149999893,210618.4699999867,210307.659,210322.4499999924,210324.311,210624.327,,29,The
screen,html.Screen,1_1_1_1_30,2021-04-18T17:53:20.443Z,,,,,,,,,,,,,,,,54,,,,,,,,,,,,,,358.3279999998049,,response,,,,100,,,,,,,Space,keypress(Space),,,,,,,,-- --- ---- --- ------ ----- ------- ---- -- --- ------- --<br>------- ---------- ------ -- ----- -- ----- -- ---- ------<br>--- ----- --- --- ------ -------- ----- --- market ----- --<br>----- ----- ---------- --- --- ------ ------ ---- -- ------<br>------- --- ------ ----- --- ---- ------- -- ---- --- --<br>------- ------,210983.18499999004,210982.6549999998,210608.277,210619.10999999964,210624.327,210991.687,,30,market
screen,html.Screen,1_1_1_1_31,2021-04-18T17:53:21.096Z,,,,,,,,,,,,,,,,54,,,,,,,,,,,,,,644.1079999946814,,response,,,,100,,,,,,,Space,keypress(Space),,,,,,,,-- --- ---- --- ------ ----- ------- ---- -- --- ------- --<br>------- ---------- ------ -- ----- -- ----- -- ---- ------<br>--- ----- --- --- ------ -------- ----- --- ------ value --<br>----- ----- ---------- --- --- ------ ------ ---- -- ------<br>------- --- ------ ----- --- ---- ------- -- ---- --- --<br>------- ------,211636.37999999628,211635.7949999947,210975.002,210983.2849999948,210991.687,211640.971,,31,value
screen,html.Screen,1_1_1_1_32,2021-04-18T17:53:21.472Z,,,,,,,,,,,,,,,,54,,,,,,,,,,,,,,370.9939999978815,,response,,,,100,,,,,,,Space,keypress(Space),,,,,,,,-- --- ---- --- ------ ----- ------- ---- -- --- ------- --<br>------- ---------- ------ -- ----- -- ----- -- ---- ------<br>--- ----- --- --- ------ -------- ----- --- ------ ----- of<br>----- ----- ---------- --- --- ------ ------ ---- -- ------<br>------- --- ------ ----- --- ---- ------- -- ---- --- --<br>------- ------,212012.47999999032,212011.96499999787,211624.301,211636.47999998648,211640.971,212024.749,,32,of
screen,html.Screen,1_1_1_1_33,2021-04-18T17:53:21.926Z,,,,,,,,,,,,,,,,54,,,,,,,,,,,,,,441.1759999967762,,response,,,,100,,,,,,,Space,keypress(Space),,,,,,,,-- --- ---- --- ------ ----- ------- ---- -- --- ------- --<br>------- ---------- ------ -- ----- -- ----- -- ---- ------<br>--- ----- --- --- ------ -------- ----- --- ------ ----- --<br>these ----- ---------- --- --- ------ ------ ---- -- ------<br>------- --- ------ ----- --- ---- ------- -- ---- --- --<br>------- ------,212466.38499999244,212465.9249999968,212007.701,212012.58499998949,212024.749,212474.382,,33,these
screen,html.Screen,1_1_1_1_34,2021-04-18T17:53:22.263Z,,,,,,,,,,,,,,,,54,,,,,,,,,,,,,,328.6830000000482,,response,,,,100,,,,,,,Space,keypress(Space),,,,,,,,-- --- ---- --- ------ ----- ------- ---- -- --- ------- --<br>------- ---------- ------ -- ----- -- ----- -- ---- ------<br>--- ----- --- --- ------ -------- ----- --- ------ ----- --<br>----- bonds ---------- --- --- ------ ------ ---- -- ------<br>------- --- ------ ----- --- ---- ------- -- ---- --- --<br>------- ------,212803.53999999352,212803.06500000006,212457.932,212466.4749999938,212474.382,212807.609,,34,bonds
screen,html.Screen,1_1_1_1_35,2021-04-18T17:53:22.586Z,,,,,,,,,,,,,,,,54,,,,,,,,,,,,,,318.3259999891161,,response,,,,100,,,,,,,Space,keypress(Space),,,,,,,,"-- --- ---- --- ------ ----- ------- ---- -- --- ------- --<br>------- ---------- ------ -- ----- -- ----- -- ---- ------<br>--- ----- --- --- ------ -------- ----- --- ------ ----- --<br>----- ----- plummeted, --- --- ------ ------ ---- -- ------<br>------- --- ------ ----- --- ---- ------- -- ---- --- --<br>------- ------",213126.47999999172,213125.9349999891,212790.95,212803.6349999893,212807.609,213141.642,,35,"plummeted,"
screen,html.Screen,1_1_1_1_36,2021-04-18T17:53:22.919Z,,,,,,,,,,,,,,,,54,,,,,,,,,,,,,,317.42799999716226,,response,,,,100,,,,,,,Space,keypress(Space),,,,,,,,-- --- ---- --- ------ ----- ------- ---- -- --- ------- --<br>------- ---------- ------ -- ----- -- ----- -- ---- ------<br>--- ----- --- --- ------ -------- ----- --- ------ ----- --<br>----- ----- ---------- and --- ------ ------ ---- -- ------<br>------- --- ------ ----- --- ---- ------- -- ---- --- --<br>------- ------,213459.594999993,213459.06999999715,213124.918,213126.5749999875,213141.642,213474.306,,36,and
screen,html.Screen,1_1_1_1_37,2021-04-18T17:53:23.234Z,,,,,,,,,,,,,,,,54,,,,,,,,,,,,,,299.86399998966954,,response,,,,100,,,,,,,Space,keypress(Space),,,,,,,,-- --- ---- --- ------ ----- ------- ---- -- --- ------- --<br>------- ---------- ------ -- ----- -- ----- -- ---- ------<br>--- ----- --- --- ------ -------- ----- --- ------ ----- --<br>----- ----- ---------- --- the ------ ------ ---- -- ------<br>------- --- ------ ----- --- ---- ------- -- ---- --- --<br>------- ------,213774.68499999668,213774.16999998968,213457.669,213459.68999998877,213474.306,213791.636,,37,the
screen,html.Screen,1_1_1_1_38,2021-04-18T17:53:23.496Z,,,,,,,,,,,,,,,,54,,,,,,,,,,,,,,244.51399999990826,,response,,,,100,,,,,,,Space,keypress(Space),,,,,,,,-- --- ---- --- ------ ----- ------- ---- -- --- ------- --<br>------- ---------- ------ -- ----- -- ----- -- ---- ------<br>--- ----- --- --- ------ -------- ----- --- ------ ----- --<br>----- ----- ---------- --- --- market ------ ---- -- ------<br>------- --- ------ ----- --- ---- ------- -- ---- --- --<br>------- ------,214036.65499998897,214036.1499999999,213774.785,213774.77999999246,213791.636,214040.998,,38,market
screen,html.Screen,1_1_1_1_39,2021-04-18T17:53:23.995Z,,,,,,,,,,,,,,,,54,,,,,,,,,,,,,,493.4569999863452,,response,,,,100,,,,,,,Space,keypress(Space),,,,,,,,-- --- ---- --- ------ ----- ------- ---- -- --- ------- --<br>------- ---------- ------ -- ----- -- ----- -- ---- ------<br>--- ----- --- --- ------ -------- ----- --- ------ ----- --<br>----- ----- ---------- --- --- ------ became ---- -- ------<br>------- --- ------ ----- --- ---- ------- -- ---- --- --<br>------- ------,214534.96499999892,214534.45499998634,214024.301,214036.75499999372,214040.998,214541.189,,39,became
screen,html.Screen,1_1_1_1_40,2021-04-18T17:53:24.365Z,,,,,,,,,,,,,,,,54,,,,,,,,,,,,,,363.5559999925317,,response,,,,100,,,,,,,Space,keypress(Space),,,,,,,,-- --- ---- --- ------ ----- ------- ---- -- --- ------- --<br>------- ---------- ------ -- ----- -- ----- -- ---- ------<br>--- ----- --- --- ------ -------- ----- --- ------ ----- --<br>----- ----- ---------- --- --- ------ ------ wary -- ------<br>------- --- ------ ----- --- ---- ------- -- ---- --- --<br>------- ------,214905.4049999977,214904.74499999254,214524.677,214535.0599999947,214541.189,214907.568,,40,wary
screen,html.Screen,1_1_1_1_41,2021-04-18T17:53:24.705Z,,,,,,,,,,,,,,,,54,,,,,,,,,,,,,,337.10699999445933,,response,,,,100,,,,,,,Space,keypress(Space),,,,,,,,-- --- ---- --- ------ ----- ------- ---- -- --- ------- --<br>------- ---------- ------ -- ----- -- ----- -- ---- ------<br>--- ----- --- --- ------ -------- ----- --- ------ ----- --<br>----- ----- ---------- --- --- ------ ------ ---- of ------<br>------- --- ------ ----- --- ---- ------- -- ---- --- --<br>------- ------,215245.19499999587,215244.67499999446,214890.913,214905.5449999869,214907.568,215258.26,,41,of
screen,html.Screen,1_1_1_1_42,2021-04-18T17:53:25.017Z,,,,,,,,,,,,,,,,54,,,,,,,,,,,,,,298.2799999904819,,response,,,,100,,,,,,,Space,keypress(Space),,,,,,,,-- --- ---- --- ------ ----- ------- ---- -- --- ------- --<br>------- ---------- ------ -- ----- -- ----- -- ---- ------<br>--- ----- --- --- ------ -------- ----- --- ------ ----- --<br>----- ----- ---------- --- --- ------ ------ ---- -- French<br>------- --- ------ ----- --- ---- ------- -- ---- --- --<br>------- ------,215557.12499999208,215556.5399999905,215241.531,215245.29499998607,215258.26,215574.659,,42,French
screen,html.Screen,1_1_1_1_43,2021-04-18T17:53:25.421Z,,,,,,,,,,,,,,,,54,,,,,,,,,,,,,,386.19599999752245,,response,,,,100,,,,,,,Space,keypress(Space),,,,,,,,-- --- ---- --- ------ ----- ------- ---- -- --- ------- --<br>------- ---------- ------ -- ----- -- ----- -- ---- ------<br>--- ----- --- --- ------ -------- ----- --- ------ ----- --<br>----- ----- ---------- --- --- ------ ------ ---- -- ------<br>credit. --- ------ ----- --- ---- ------- -- ---- --- --<br>------- ------,215961.39499999117,215960.85499999754,215541.567,215557.22499999683,215574.659,215974.287,,43,credit.
screen,html.Screen,1_1_1_1_44,2021-04-18T17:53:25.772Z,,,,,,,,,,,,,,,,54,,,,,,,,,,,,,,337.857999988948,,response,,,,100,,,,,,,Space,keypress(Space),,,,,,,,-- --- ---- --- ------ ----- ------- ---- -- --- ------- --<br>------- ---------- ------ -- ----- -- ----- -- ---- ------<br>--- ----- --- --- ------ -------- ----- --- ------ ----- --<br>----- ----- ---------- --- --- ------ ------ ---- -- ------<br>------- The ------ ----- --- ---- ------- -- ---- --- --<br>------- ------,216312.69499998598,216312.14499998896,215957.567,215961.48999998695,215974.287,216324.309,,44,The
screen,html.Screen,1_1_1_1_45,2021-04-18T17:53:26.089Z,,,,,,,,,,,,,,,,54,,,,,,,,,,,,,,304.025999986683,,response,,,,100,,,,,,,Space,keypress(Space),,,,,,,,-- --- ---- --- ------ ----- ------- ---- -- --- ------- --<br>------- ---------- ------ -- ----- -- ----- -- ---- ------<br>--- ----- --- --- ------ -------- ----- --- ------ ----- --<br>----- ----- ---------- --- --- ------ ------ ---- -- ------<br>------- --- French ----- --- ---- ------- -- ---- --- --<br>------- ------,216628.84499999927,216628.3349999867,216307.553,216312.79499999073,216324.309,216641.409,,45,French
screen,html.Screen,1_1_1_1_46,2021-04-18T17:53:26.344Z,,,,,,,,,,,,,,,,54,,,,,,,,,,,,,,242.7209999912593,,response,,,,100,,,,,,,Space,keypress(Space),,,,,,,,-- --- ---- --- ------ ----- ------- ---- -- --- ------- --<br>------- ---------- ------ -- ----- -- ----- -- ---- ------<br>--- ----- --- --- ------ -------- ----- --- ------ ----- --<br>----- ----- ---------- --- --- ------ ------ ---- -- ------<br>------- --- ------ state --- ---- ------- -- ---- --- --<br>------- ------,216884.66999999946,216884.12999999127,216624.82,216628.93999999505,216641.409,216891.106,,46,state
screen,html.Screen,1_1_1_1_47,2021-04-18T17:53:26.614Z,,,,,,,,,,,,,,,,54,,,,,,,,,,,,,,262.8389999982028,,response,,,,100,,,,,,,Space,keypress(Space),,,,,,,,-- --- ---- --- ------ ----- ------- ---- -- --- ------- --<br>------- ---------- ------ -- ----- -- ----- -- ---- ------<br>--- ----- --- --- ------ -------- ----- --- ------ ----- --<br>----- ----- ---------- --- --- ------ ------ ---- -- ------<br>------- --- ------ ----- was ---- ------- -- ---- --- --<br>------- ------,217154.50999999302,217153.9449999982,216874.341,216884.75999998627,216891.106,217157.546,,47,was
screen,html.Screen,1_1_1_1_48,2021-04-18T17:53:26.883Z,,,,,,,,,,,,,,,,54,,,,,,,,,,,,,,264.89399999481975,,response,,,,100,,,,,,,Space,keypress(Space),,,,,,,,-- --- ---- --- ------ ----- ------- ---- -- --- ------- --<br>------- ---------- ------ -- ----- -- ----- -- ---- ------<br>--- ----- --- --- ------ -------- ----- --- ------ ----- --<br>----- ----- ---------- --- --- ------ ------ ---- -- ------<br>------- --- ------ ----- --- left ------- -- ---- --- --<br>------- ------,217422.97499999404,217422.43999999482,217140.892,217154.63999999338,217157.546,217448.056,,48,left
screen,html.Screen,1_1_1_1_49,2021-04-18T17:53:27.164Z,,,,,,,,,,,,,,,,54,,,,,,,,,,,,,,256.20899999301764,,response,,,,100,,,,,,,Space,keypress(Space),,,,,,,,-- --- ---- --- ------ ----- ------- ---- -- --- ------- --<br>------- ---------- ------ -- ----- -- ----- -- ---- ------<br>--- ----- --- --- ------ -------- ----- --- ------ ----- --<br>----- ----- ---------- --- --- ------ ------ ---- -- ------<br>------- --- ------ ----- --- ---- without -- ---- --- --<br>------- ------,217704.70999999088,217704.26499999303,217408.16,217423.0749999988,217448.056,217707.515,,49,without
screen,html.Screen,1_1_1_1_50,2021-04-18T17:53:27.466Z,,,,,,,,,,,,,,,,54,,,,,,,,,,,,,,298.6249999976717,,response,,,,100,,,,,,,Space,keypress(Space),,,,,,,,-- --- ---- --- ------ ----- ------- ---- -- --- ------- --<br>------- ---------- ------ -- ----- -- ----- -- ---- ------<br>--- ----- --- --- ------ -------- ----- --- ------ ----- --<br>----- ----- ---------- --- --- ------ ------ ---- -- ------<br>------- --- ------ ----- --- ---- ------- an ---- --- --<br>------- ------,218006.7299999937,218006.1399999977,217691.034,217704.80499998666,217707.515,218039.55,,50,an
screen,html.Screen,1_1_1_1_51,2021-04-18T17:53:27.731Z,,,,,,,,,,,,,,,,54,,,,,,,,,,,,,,230.74000000039814,,response,,,,100,,,,,,,Space,keypress(Space),,,,,,,,-- --- ---- --- ------ ----- ------- ---- -- --- ------- --<br>------- ---------- ------ -- ----- -- ----- -- ---- ------<br>--- ----- --- --- ------ -------- ----- --- ------ ----- --<br>----- ----- ---------- --- --- ------ ------ ---- -- ------<br>------- --- ------ ----- --- ---- ------- -- easy --- --<br>------- ------,218270.81499999622,218270.2900000004,217991.504,218006.95499998983,218039.55,218274.163,,51,easy
screen,html.Screen,1_1_1_1_52,2021-04-18T17:53:28.022Z,,,,,,,,,,,,,,,,54,,,,,,,,,,,,,,287.8669999864069,,response,,,,100,,,,,,,Space,keypress(Space),,,,,,,,-- --- ---- --- ------ ----- ------- ---- -- --- ------- --<br>------- ---------- ------ -- ----- -- ----- -- ---- ------<br>--- ----- --- --- ------ -------- ----- --- ------ ----- --<br>----- ----- ---------- --- --- ------ ------ ---- -- ------<br>------- --- ------ ----- --- ---- ------- -- ---- way --<br>------- ------,218562.51999999222,218562.0299999864,218257.676,218270.90499999758,218274.163,218574.245,,52,way
screen,html.Screen,1_1_1_1_53,2021-04-18T17:53:28.375Z,,,,,,,,,,,,,,,,54,,,,,,,,,,,,,,340.42499999830034,,response,,,,100,,,,,,,Space,keypress(Space),,,,,,,,-- --- ---- --- ------ ----- ------- ---- -- --- ------- --<br>------- ---------- ------ -- ----- -- ----- -- ---- ------<br>--- ----- --- --- ------ -------- ----- --- ------ ----- --<br>----- ----- ---------- --- --- ------ ------ ---- -- ------<br>------- --- ------ ----- --- ---- ------- -- ---- --- of<br>------- ------,218915.21499998635,218914.6699999983,218558.2,218562.614999988,218574.245,218924.568,,53,of
screen,html.Screen,1_1_1_1_54,2021-04-18T17:53:28.746Z,,,,,,,,,,,,,,,,54,,,,,,,,,,,,,,360.95199999035685,,response,,,,100,,,,,,,Space,keypress(Space),,,,,,,,-- --- ---- --- ------ ----- ------- ---- -- --- ------- --<br>------- ---------- ------ -- ----- -- ----- -- ---- ------<br>--- ----- --- --- ------ -------- ----- --- ------ ----- --<br>----- ----- ---------- --- --- ------ ------ ---- -- ------<br>------- --- ------ ----- --- ---- ------- -- ---- --- --<br>raising ------,219286.06499999296,219285.51999999036,218907.51,218915.30999999668,218924.568,219290.901,,54,raising
screen,html.Screen,1_1_1_1_55,2021-04-18T17:53:29.084Z,,,,,,,,,,,,,,,,54,,,,,,,,,,,,,,332.5189999889699,,response,,,,100,,,,,,,Space,keypress(Space),,,,,,,,-- --- ---- --- ------ ----- ------- ---- -- --- ------- --<br>------- ---------- ------ -- ----- -- ----- -- ---- ------<br>--- ----- --- --- ------ -------- ----- --- ------ ----- --<br>----- ----- ---------- --- --- ------ ------ ---- -- ------<br>------- --- ------ ----- --- ---- ------- -- ---- --- --<br>------- money.,219624.00499999058,219623.41999998898,219274.497,219286.15499999432,219290.901,219641.203,,55,money.
Item 100,flow.Loop,1_1_1_1,2021-04-18T17:53:29.084Z,,,,,,,,,,,,,,,,,,,,,,,,,,,,,,20964.994999988994,,completion,,,,,D,,,,,,,,,,,silence,,,,,219624.1699999955,219623.41999998898,198641.857,198642.60999999533,198658.425,219641.203,,,
Question 1,html.Screen,1_1_1_2,2021-04-18T17:53:32.328Z,,,,,,,,,,,,,,,,,,,,,,,,,,,false,TRUE,,3224.781999996718,,response,,,,100,D,,,,,,FALSE,click #choice-2,,,,silence,,,,,222868.25499999395,222865.98499999673,219624.178,219624.2399999901,219641.203,222874.151,,,
Question 2,html.Screen,1_1_1_3,2021-04-18T17:53:36.418Z,,,,,,,,,,,,,,,,,,,,,,,,,,,true,FALSE,,4082.2840000000433,,response,,,,100,D,,,,,,FALSE,click #choice-2,,,,silence,,,,,226958.6699999927,226956.43500000006,222858.018,222868.36499998753,222874.151,226974.387,,,
Item 100,flow.Sequence,1_1_1,2021-04-18T17:53:36.419Z,,,,,,,,,,,,,,,,,,,,,,,,,,,,,,38298.38500000007,,completion,,,,,,,,,,,,,,,,,,,,,226958.81499999086,226956.43500000006,188641.394,188657.64999999374,188658.05,226974.387,,,
End of Practice,html.Page,1_1_2,2021-04-18T17:53:42.306Z,,,,,,,,,,,,,,,,,,,,,,,,,,,,,,5871.592999998247,,form submission,,,,,,,,,,,,,,,,,,,,,232846.16499999538,232845.97999999824,226941.344,226958.9500000002,226974.387,232857.27,,,
Practice,flow.Sequence,1_1,2021-04-18T17:53:42.306Z,,,,,,,,,,,,,,,,,,,,,,,,,,,,,,81953.97199999823,,completion,,,,,,,,,,,,,,,,,,,,,232846.36499999033,232845.97999999824,150875.001,150886.44499999646,150892.008,232857.27,,,
Trap_instruction,html.Page,1_2_0,2021-04-18T17:53:49.097Z,,,,,,,,,,,,,,,,,,,,,,,,,,,,,,6779.979999999778,,form submission,,,,,,,,,,,,,,,,,,,,,239637.4349999969,239637.24999999977,232840.48,232846.51499999745,232857.27,239657.159,,,
trap_trial,html.Screen,1_2_1,2021-04-18T17:53:53.495Z,,,,,,,,,,,,,,,,,,,,,,,,,,,true,1,,4375.585999989504,,response,,,,,,,,,,,1,click #choice-1,,,,,,,,,244034.8299999896,244032.74499998952,239624.307,239637.52499999828,239657.159,244040.425,,,
end of trap trial,html.Page,1_2_2,2021-04-18T17:53:55.169Z,,,,,,,,,,,,,,,,,,,,,,,,,,,,,,1668.9599999946658,,form submission,,,,,,,,,,,,,,,,,,,,,245709.63499999198,245709.38499999465,244023.752,244034.93499998876,244040.425,245724.123,,,
Trap 1,flow.Sequence,1_2,2021-04-18T17:53:55.170Z,,,,,,,,,,,,,,,,,,,,,,,,,,,,,,12852.114999994665,,completion,,,,,,,,,,,,,,,,,,,,,245709.9399999861,245709.38499999465,232840.48,232846.4849999873,232857.27,245724.123,,,
Standby,html.Page,1_3_0,2021-04-18T17:54:03.169Z,,,,,,,,,,,,,,,,,,,,,,,,,,,,,,7999.432000000001,,timeout,,,,,,,,,,,,,,,,,,,,,253708.5999999981,253706.916,245707.748,245710.07999998983,245724.123,253723.555,,,
Holding screen,html.Screen,1_3_1_0_0,2021-04-18T17:54:10.168Z,,,,,,,,,,,,,,,,,,,,,,,,,,,,,,7000.312999999995,,timeout,,,,,,,,,,,,,,,,,,,,,260707.5649999897,260706.94,253706.916,253708.7499999907,253723.555,260723.868,,,
screen,html.Screen,1_3_1_0_1_0,2021-04-18T17:54:11.477Z,,,,,,,,,,,,,,,,48,,,,,,,,,,,,,,1291.891999994783,,response,,,,10,D,,,,,,Space,keypress(Space),,,,silence,,,,As -- --- ------ ------- --------- ----------- --------<br>--------- -------- --- ------- -- ------- ---- -- ------<br>-- --- -------- -------- ---------- ---- ---- ---- ------<br>-- --------- -- ---- -- --- -- --- ------- -- - -----<br>---------- -- -- -- ---- ----- -- ------ -- --- ------<br>-------,262016.4850000001,262015.75999999477,260706.94,260707.779999997,260723.868,262023.787,,0,As
screen,html.Screen,1_3_1_0_1_1,2021-04-18T17:54:11.776Z,,,,,,,,,,,,,,,,48,,,,,,,,,,,,,,291.2079999933485,,response,,,,10,D,,,,,,Space,keypress(Space),,,,silence,,,,-- in --- ------ ------- --------- ----------- --------<br>--------- -------- --- ------- -- ------- ---- -- ------<br>-- --- -------- -------- ---------- ---- ---- ---- ------<br>-- --------- -- ---- -- --- -- --- ------- -- - -----<br>---------- -- -- -- ---- ----- -- ------ -- --- ------<br>-------,262315.5149999948,262314.99499999336,262007.151,262016.5949999937,262023.787,262323.438,,1,in
screen,html.Screen,1_3_1_0_1_2,2021-04-18T17:54:12.025Z,,,,,,,,,,,,,,,,48,,,,,,,,,,,,,,241.04699999530567,,response,,,,10,D,,,,,,Space,keypress(Space),,,,silence,,,,-- -- the ------ ------- --------- ----------- --------<br>--------- -------- --- ------- -- ------- ---- -- ------<br>-- --- -------- -------- ---------- ---- ---- ---- ------<br>-- --------- -- ---- -- --- -- --- ------- -- - -----<br>---------- -- -- -- ---- ----- -- ------ -- --- ------<br>-------,262564.9999999878,262564.48499999533,262307.236,262315.61999999394,262323.438,262573.539,,2,the
screen,html.Screen,1_3_1_0_1_3,2021-04-18T17:54:12.306Z,,,,,,,,,,,,,,,,48,,,,,,,,,,,,,,271.1709999903105,,response,,,,10,D,,,,,,Space,keypress(Space),,,,silence,,,,-- -- --- United ------- --------- ----------- --------<br>--------- -------- --- ------- -- ------- ---- -- ------<br>-- --- -------- -------- ---------- ---- ---- ---- ------<br>-- --------- -- ---- -- --- -- --- ------- -- - -----<br>---------- -- -- -- ---- ----- -- ------ -- --- ------<br>-------,262845.2599999873,262844.7099999903,262557.208,262565.0949999981,262573.539,262857.213,,3,United
screen,html.Screen,1_3_1_0_1_4,2021-04-18T17:54:12.617Z,,,,,,,,,,,,,,,,48,,,,,,,,,,,,,,299.361999986344,,response,,,,10,D,,,,,,Space,keypress(Space),,,,silence,,,,"-- -- --- ------ States, --------- ----------- --------<br>--------- -------- --- ------- -- ------- ---- -- ------<br>-- --- -------- -------- ---------- ---- ---- ---- ------<br>-- --------- -- ---- -- --- -- --- ------- -- - -----<br>---------- -- -- -- ---- ----- -- ------ -- --- ------<br>-------",263157.1599999879,263156.57499998633,262840.093,262845.3499999887,262857.213,263173.58,,4,"States,"
screen,html.Screen,1_3_1_0_1_5,2021-04-18T17:54:12.925Z,,,,,,,,,,,,,,,,48,,,,,,,,,,,,,,290.7249999867636,,response,,,,10,D,,,,,,Space,keypress(Space),,,,silence,,,,-- -- --- ------ ------- Colombian ----------- --------<br>--------- -------- --- ------- -- ------- ---- -- ------<br>-- --- -------- -------- ---------- ---- ---- ---- ------<br>-- --------- -- ---- -- --- -- --- ------- -- - -----<br>---------- -- -- -- ---- ----- -- ------ -- --- ------<br>-------,263464.85999999277,263464.3049999868,263157.381,263157.2599999927,263173.58,263473.678,,5,Colombian
screen,html.Screen,1_3_1_0_1_6,2021-04-18T17:54:13.295Z,,,,,,,,,,,,,,,,48,,,,,,,,,,,,,,360.50199999072356,,response,,,,10,D,,,,,,Space,keypress(Space),,,,silence,,,,-- -- --- ------ ------- --------- legislation --------<br>--------- -------- --- ------- -- ------- ---- -- ------<br>-- --- -------- -------- ---------- ---- ---- ---- ------<br>-- --------- -- ---- -- --- -- --- ------- -- - -----<br>---------- -- -- -- ---- ----- -- ------ -- --- ------<br>-------,263834.8599999881,263834.17999999074,263456.743,263464.9599999975,263473.678,263840.089,,6,legislation
screen,html.Screen,1_3_1_0_1_7,2021-04-18T17:54:13.634Z,,,,,,,,,,,,,,,,48,,,,,,,,,,,,,,332.8959999974468,,response,,,,10,D,,,,,,Space,keypress(Space),,,,silence,,,,-- -- --- ------ ------- --------- ----------- requires<br>--------- -------- --- ------- -- ------- ---- -- ------<br>-- --- -------- -------- ---------- ---- ---- ---- ------<br>-- --------- -- ---- -- --- -- --- ------- -- - -----<br>---------- -- -- -- ---- ----- -- ------ -- --- ------<br>-------,264173.50999999326,264172.9849999974,263824.044,263835.00499998627,263840.089,264190.707,,7,requires
screen,html.Screen,1_3_1_0_1_8,2021-04-18T17:54:13.981Z,,,,,,,,,,,,,,,,48,,,,,,,,,,,,,,329.07299998780945,,response,,,,10,D,,,,,,Space,keypress(Space),,,,silence,,,,-- -- --- ------ ------- --------- ----------- --------<br>travelers -------- --- ------- -- ------- ---- -- ------<br>-- --- -------- -------- ---------- ---- ---- ---- ------<br>-- --------- -- ---- -- --- -- --- ------- -- - -----<br>---------- -- -- -- ---- ----- -- ------ -- --- ------<br>-------,264520.2999999892,264519.7799999878,264157.353,264173.60499998904,264190.707,264523.385,,8,travelers
screen,html.Screen,1_3_1_0_1_9,2021-04-18T17:54:14.277Z,,,,,,,,,,,,,,,,48,,,,,,,,,,,,,,292.6899999951711,,response,,,,10,D,,,,,,Space,keypress(Space),,,,silence,,,,-- -- --- ------ ------- --------- ----------- --------<br>--------- entering --- ------- -- ------- ---- -- ------<br>-- --- -------- -------- ---------- ---- ---- ---- ------<br>-- --------- -- ---- -- --- -- --- ------- -- - -----<br>---------- -- -- -- ---- ----- -- ------ -- --- ------<br>-------,264816.6199999978,264816.0749999952,264506.918,264520.39499999955,264523.385,264823.989,,9,entering
screen,html.Screen,1_3_1_0_1_10,2021-04-18T17:54:14.609Z,,,,,,,,,,,,,,,,48,,,,,,,,,,,,,,324.25099999498343,,response,,,,10,D,,,,,,Space,keypress(Space),,,,silence,,,,-- -- --- ------ ------- --------- ----------- --------<br>--------- -------- the ------- -- ------- ---- -- ------<br>-- --- -------- -------- ---------- ---- ---- ---- ------<br>-- --------- -- ---- -- --- -- --- ------- -- - -----<br>---------- -- -- -- ---- ----- -- ------ -- --- ------<br>-------,265148.84999999776,265148.239999995,264807.317,264816.71499999356,264823.989,265156.741,,10,the
screen,html.Screen,1_3_1_0_1_11,2021-04-18T17:54:14.904Z,,,,,,,,,,,,,,,,48,,,,,,,,,,,,,,286.4539999998524,,response,,,,10,D,,,,,,Space,keypress(Space),,,,silence,,,,-- -- --- ------ ------- --------- ----------- --------<br>--------- -------- --- country -- ------- ---- -- ------<br>-- --- -------- -------- ---------- ---- ---- ---- ------<br>-- --------- -- ---- -- --- -- --- ------- -- - -----<br>---------- -- -- -- ---- ----- -- ------ -- --- ------<br>-------,265443.7399999879,265443.19499999983,265140.477,265148.94999998796,265156.741,265456.73,,11,country
screen,html.Screen,1_3_1_0_1_12,2021-04-18T17:54:15.184Z,,,,,,,,,,,,,,,,48,,,,,,,,,,,,,,266.4249999996973,,response,,,,10,D,,,,,,Space,keypress(Space),,,,silence,,,,-- -- --- ------ ------- --------- ----------- --------<br>--------- -------- --- ------- to ------- ---- -- ------<br>-- --- -------- -------- ---------- ---- ---- ---- ------<br>-- --------- -- ---- -- --- -- --- ------- -- - -----<br>---------- -- -- -- ---- ----- -- ------ -- --- ------<br>-------,265723.7499999901,265723.1549999997,265440.669,265443.8349999982,265456.73,265740.718,,12,to
screen,html.Screen,1_3_1_0_1_13,2021-04-18T17:54:15.473Z,,,,,,,,,,,,,,,,48,,,,,,,,,,,,,,271.0219999871915,,response,,,,10,D,,,,,,Space,keypress(Space),,,,silence,,,,-- -- --- ------ ------- --------- ----------- --------<br>--------- -------- --- ------- -- declare ---- -- ------<br>-- --- -------- -------- ---------- ---- ---- ---- ------<br>-- --------- -- ---- -- --- -- --- ------- -- - -----<br>---------- -- -- -- ---- ----- -- ------ -- --- ------<br>-------,266012.2599999886,266011.7399999872,265723.967,265723.85999999824,265740.718,266023.917,,13,declare
screen,html.Screen,1_3_1_0_1_14,2021-04-18T17:54:15.741Z,,,,,,,,,,,,,,,,48,,,,,,,,,,,,,,256.60799999465235,,response,,,,10,D,,,,,,Space,keypress(Space),,,,silence,,,,-- -- --- ------ ------- --------- ----------- --------<br>--------- -------- --- ------- -- ------- cash -- ------<br>-- --- -------- -------- ---------- ---- ---- ---- ------<br>-- --------- -- ---- -- --- -- --- ------- -- - -----<br>---------- -- -- -- ---- ----- -- ------ -- --- ------<br>-------,266281.0499999905,266280.52499999467,266006.897,266012.35999999335,266023.917,266290.045,,14,cash
screen,html.Screen,1_3_1_0_1_15,2021-04-18T17:54:16.000Z,,,,,,,,,,,,,,,,48,,,,,,,,,,,,,,248.7999999882304,,response,,,,10,D,,,,,,Space,keypress(Space),,,,silence,,,,-- -- --- ------ ------- --------- ----------- --------<br>--------- -------- --- ------- -- ------- ---- in ------<br>-- --- -------- -------- ---------- ---- ---- ---- ------<br>-- --------- -- ---- -- --- -- --- ------- -- - -----<br>---------- -- -- -- ---- ----- -- ------ -- --- ------<br>-------,266539.3599999952,266538.8449999882,266273.805,266281.1449999863,266290.045,266558.1,,15,in
screen,html.Screen,1_3_1_0_1_16,2021-04-18T17:54:16.275Z,,,,,,,,,,,,,,,,48,,,,,,,,,,,,,,255.56499999423977,,response,,,,10,D,,,,,,Space,keypress(Space),,,,silence,,,,-- -- --- ------ ------- --------- ----------- --------<br>--------- -------- --- ------- -- ------- ---- -- excess<br>-- --- -------- -------- ---------- ---- ---- ---- ------<br>-- --------- -- ---- -- --- -- --- ------- -- - -----<br>---------- -- -- -- ---- ----- -- ------ -- --- ------<br>-------,266814.2399999924,266813.6649999942,266523.689,266539.4499999966,266558.1,266823.962,,16,excess
screen,html.Screen,1_3_1_0_1_17,2021-04-18T17:54:16.550Z,,,,,,,,,,,,,,,,48,,,,,,,,,,,,,,265.1629999986035,,response,,,,10,D,,,,,,Space,keypress(Space),,,,silence,,,,-- -- --- ------ ------- --------- ----------- --------<br>--------- -------- --- ------- -- ------- ---- -- ------<br>of --- -------- -------- ---------- ---- ---- ---- ------<br>-- --------- -- ---- -- --- -- --- ------- -- - -----<br>---------- -- -- -- ---- ----- -- ------ -- --- ------<br>-------,267089.63999999105,267089.1249999986,266806.988,266814.3749999872,266823.962,267106.999,,17,of
screen,html.Screen,1_3_1_0_1_18,2021-04-18T17:54:16.827Z,,,,,,,,,,,,,,,,48,,,,,,,,,,,,,,258.90599999873666,,response,,,,10,D,,,,,,Space,keypress(Space),,,,silence,,,,-- -- --- ------ ------- --------- ----------- --------<br>--------- -------- --- ------- -- ------- ---- -- ------<br>-- ten -------- -------- ---------- ---- ---- ---- ------<br>-- --------- -- ---- -- --- -- --- ------- -- - -----<br>---------- -- -- -- ---- ----- -- ------ -- --- ------<br>-------,267366.399999999,267365.90499999875,267073.78,267089.73499998683,267106.999,267373.451,,18,ten
screen,html.Screen,1_3_1_0_1_19,2021-04-18T17:54:17.095Z,,,,,,,,,,,,,,,,48,,,,,,,,,,,,,,260.37399999715853,,response,,,,10,D,,,,,,Space,keypress(Space),,,,silence,,,,-- -- --- ------ ------- --------- ----------- --------<br>--------- -------- --- ------- -- ------- ---- -- ------<br>-- --- thousand -------- ---------- ---- ---- ---- ------<br>-- --------- -- ---- -- --- -- --- ------- -- - -----<br>---------- -- -- -- ---- ----- -- ------ -- --- ------<br>-------,267634.3049999996,267633.82499999716,267357.298,267366.49499999476,267373.451,267640.148,,19,thousand
screen,html.Screen,1_3_1_0_1_20,2021-04-18T17:54:17.365Z,,,,,,,,,,,,,,,,48,,,,,,,,,,,,,,264.18699999927776,,response,,,,10,D,,,,,,Space,keypress(Space),,,,silence,,,,-- -- --- ------ ------- --------- ----------- --------<br>--------- -------- --- ------- -- ------- ---- -- ------<br>-- --- -------- dollars. ---------- ---- ---- ---- ------<br>-- --------- -- ---- -- --- -- --- ------- -- - -----<br>---------- -- -- -- ---- ----- -- ------ -- --- ------<br>-------,267904.8649999895,267904.33499999926,267623.347,267634.39999999537,267640.148,267906.651,,20,dollars.
screen,html.Screen,1_3_1_0_1_21,2021-04-18T17:54:17.694Z,,,,,,,,,,,,,,,,48,,,,,,,,,,,,,,327.0339999992284,,response,,,,10,D,,,,,,Space,keypress(Space),,,,silence,,,,-- -- --- ------ ------- --------- ----------- --------<br>--------- -------- --- ------- -- ------- ---- -- ------<br>-- --- -------- -------- Concealing ---- ---- ---- ------<br>-- --------- -- ---- -- --- -- --- ------- -- - -----<br>---------- -- -- -- ---- ----- -- ------ -- --- ------<br>-------,268234.17999999947,268233.68499999924,267889.993,267904.95999999985,267906.651,268240.435,,21,Concealing
screen,html.Screen,1_3_1_0_1_22,2021-04-18T17:54:17.982Z,,,,,,,,,,,,,,,,48,,,,,,,,,,,,,,281.08499999478227,,response,,,,10,D,,,,,,Space,keypress(Space),,,,silence,,,,-- -- --- ------ ------- --------- ----------- --------<br>--------- -------- --- ------- -- ------- ---- -- ------<br>-- --- -------- -------- ---------- more ---- ---- ------<br>-- --------- -- ---- -- --- -- --- ------- -- - -----<br>---------- -- -- -- ---- ----- -- ------ -- --- ------<br>-------,268522.0799999952,268521.5199999948,268223.336,268234.27999998967,268240.435,268540.511,,22,more
screen,html.Screen,1_3_1_0_1_23,2021-04-18T17:54:18.243Z,,,,,,,,,,,,,,,,48,,,,,,,,,,,,,,241.2239999968442,,response,,,,10,D,,,,,,Space,keypress(Space),,,,silence,,,,-- -- --- ------ ------- --------- ----------- --------<br>--------- -------- --- ------- -- ------- ---- -- ------<br>-- --- -------- -------- ---------- ---- than ---- ------<br>-- --------- -- ---- -- --- -- --- ------- -- - -----<br>---------- -- -- -- ---- ----- -- ------ -- --- ------<br>-------,268782.25499999826,268781.73499999684,268506.796,268522.16999999655,268540.511,268790.683,,23,than
screen,html.Screen,1_3_1_0_1_24,2021-04-18T17:54:18.536Z,,,,,,,,,,,,,,,,48,,,,,,,,,,,,,,284.85699999070494,,response,,,,10,D,,,,,,Space,keypress(Space),,,,silence,,,,-- -- --- ------ ------- --------- ----------- --------<br>--------- -------- --- ------- -- ------- ---- -- ------<br>-- --- -------- -------- ---------- ---- ---- that ------<br>-- --------- -- ---- -- --- -- --- ------- -- - -----<br>---------- -- -- -- ---- ----- -- ------ -- --- ------<br>-------,269076.0849999933,269075.5399999907,268773.513,268782.34999999404,268790.683,269089.989,,24,that
screen,html.Screen,1_3_1_0_1_25,2021-04-18T17:54:18.817Z,,,,,,,,,,,,,,,,48,,,,,,,,,,,,,,266.4609999920358,,response,,,,10,D,,,,,,Space,keypress(Space),,,,silence,,,,-- -- --- ------ ------- --------- ----------- --------<br>--------- -------- --- ------- -- ------- ---- -- ------<br>-- --- -------- -------- ---------- ---- ---- ---- amount<br>-- --------- -- ---- -- --- -- --- ------- -- - -----<br>---------- -- -- -- ---- ----- -- ------ -- --- ------<br>-------,269356.9349999889,269356.44999999204,269073.734,269076.1799999891,269089.989,269373.703,,25,amount
screen,html.Screen,1_3_1_0_1_26,2021-04-18T17:54:19.173Z,,,,,,,,,,,,,,,,48,,,,,,,,,,,,,,338.6069999880856,,response,,,,10,D,,,,,,Space,keypress(Space),,,,silence,,,,-- -- --- ------ ------- --------- ----------- --------<br>--------- -------- --- ------- -- ------- ---- -- ------<br>-- --- -------- -------- ---------- ---- ---- ---- ------<br>to --------- -- ---- -- --- -- --- ------- -- - -----<br>---------- -- -- -- ---- ----- -- ------ -- --- ------<br>-------,269712.8199999861,269712.30999998807,269356.946,269357.0299999992,269373.703,269723.814,,26,to
screen,html.Screen,1_3_1_0_1_27,2021-04-18T17:54:19.410Z,,,,,,,,,,,,,,,,48,,,,,,,,,,,,,,225.23599999560975,,response,,,,10,D,,,,,,Space,keypress(Space),,,,silence,,,,-- -- --- ------ ------- --------- ----------- --------<br>--------- -------- --- ------- -- ------- ---- -- ------<br>-- --- -------- -------- ---------- ---- ---- ---- ------<br>-- transport -- ---- -- --- -- --- ------- -- - -----<br>---------- -- -- -- ---- ----- -- ------ -- --- ------<br>-------,269949.54999999027,269949.0499999956,269707.055,269712.9249999998,269723.814,269956.663,,27,transport
screen,html.Screen,1_3_1_0_1_28,2021-04-18T17:54:19.672Z,,,,,,,,,,,,,,,,48,,,,,,,,,,,,,,254.18199999415083,,response,,,,10,D,,,,,,Space,keypress(Space),,,,silence,,,,-- -- --- ------ ------- --------- ----------- --------<br>--------- -------- --- ------- -- ------- ---- -- ------<br>-- --- -------- -------- ---------- ---- ---- ---- ------<br>-- --------- it ---- -- --- -- --- ------- -- - -----<br>---------- -- -- -- ---- ----- -- ------ -- --- ------<br>-------,270211.3549999922,270210.84499999415,269940.328,269949.64499998605,269956.663,270223.989,,28,it
screen,html.Screen,1_3_1_0_1_29,2021-04-18T17:54:19.931Z,,,,,,,,,,,,,,,,48,,,,,,,,,,,,,,246.0759999867878,,response,,,,10,D,,,,,,Space,keypress(Space),,,,silence,,,,-- -- --- ------ ------- --------- ----------- --------<br>--------- -------- --- ------- -- ------- ---- -- ------<br>-- --- -------- -------- ---------- ---- ---- ---- ------<br>-- --------- -- into -- --- -- --- ------- -- - -----<br>---------- -- -- -- ---- ----- -- ------ -- --- ------<br>-------,270470.62999999616,270470.0649999868,270207.267,270211.45999999135,270223.989,270473.297,,29,into
screen,html.Screen,1_3_1_0_1_30,2021-04-18T17:54:20.191Z,,,,,,,,,,,,,,,,48,,,,,,,,,,,,,,256.9529999932274,,response,,,,10,D,,,,,,Space,keypress(Space),,,,silence,,,,-- -- --- ------ ------- --------- ----------- --------<br>--------- -------- --- ------- -- ------- ---- -- ------<br>-- --- -------- -------- ---------- ---- ---- ---- ------<br>-- --------- -- ---- or --- -- --- ------- -- - -----<br>---------- -- -- -- ---- ----- -- ------ -- --- ------<br>-------,270730.7899999869,270730.24999999325,270456.624,270470.72999998636,270473.297,270740.012,,30,or
screen,html.Screen,1_3_1_0_1_31,2021-04-18T17:54:20.437Z,,,,,,,,,,,,,,,,48,,,,,,,,,,,,,,236.00799998734146,,response,,,,10,D,,,,,,Space,keypress(Space),,,,silence,,,,-- -- --- ------ ------- --------- ----------- --------<br>--------- -------- --- ------- -- ------- ---- -- ------<br>-- --- -------- -------- ---------- ---- ---- ---- ------<br>-- --------- -- ---- -- out -- --- ------- -- - -----<br>---------- -- -- -- ---- ----- -- ------ -- --- ------<br>-------,270976.5699999989,270976.01999998733,270723.291,270730.8849999972,270740.012,270990.265,,31,out
screen,html.Screen,1_3_1_0_1_32,2021-04-18T17:54:20.697Z,,,,,,,,,,,,,,,,48,,,,,,,,,,,,,,246.22499999566935,,response,,,,10,D,,,,,,Space,keypress(Space),,,,silence,,,,-- -- --- ------ ------- --------- ----------- --------<br>--------- -------- --- ------- -- ------- ---- -- ------<br>-- --- -------- -------- ---------- ---- ---- ---- ------<br>-- --------- -- ---- -- --- of --- ------- -- - -----<br>---------- -- -- -- ---- ----- -- ------ -- --- ------<br>-------,271237.0649999939,271236.4899999957,270973.292,270976.6649999947,270990.265,271239.937,,32,of
screen,html.Screen,1_3_1_0_1_33,2021-04-18T17:54:20.937Z,,,,,,,,,,,,,,,,48,,,,,,,,,,,,,,236.16799999430077,,response,,,,10,D,,,,,,Space,keypress(Space),,,,silence,,,,-- -- --- ------ ------- --------- ----------- --------<br>--------- -------- --- ------- -- ------- ---- -- ------<br>-- --- -------- -------- ---------- ---- ---- ---- ------<br>-- --------- -- ---- -- --- -- the ------- -- - -----<br>---------- -- -- -- ---- ----- -- ------ -- --- ------<br>-------,271476.6449999879,271476.1049999943,271223.723,271237.1599999897,271239.937,271490.598,,33,the
screen,html.Screen,1_3_1_0_1_34,2021-04-18T17:54:21.183Z,,,,,,,,,,,,,,,,48,,,,,,,,,,,,,,231.8819999967236,,response,,,,10,D,,,,,,Space,keypress(Space),,,,silence,,,,-- -- --- ------ ------- --------- ----------- --------<br>--------- -------- --- ------- -- ------- ---- -- ------<br>-- --- -------- -------- ---------- ---- ---- ---- ------<br>-- --------- -- ---- -- --- -- --- country -- - -----<br>---------- -- -- -- ---- ----- -- ------ -- --- ------<br>-------,271723.03499998816,271722.4799999967,271473.727,271476.7499999871,271490.598,271740.568,,34,country
screen,html.Screen,1_3_1_0_1_35,2021-04-18T17:54:21.425Z,,,,,,,,,,,,,,,,48,,,,,,,,,,,,,,223.62699999316828,,response,,,,10,D,,,,,,Space,keypress(Space),,,,silence,,,,-- -- --- ------ ------- --------- ----------- --------<br>--------- -------- --- ------- -- ------- ---- -- ------<br>-- --- -------- -------- ---------- ---- ---- ---- ------<br>-- --------- -- ---- -- --- -- --- ------- is - -----<br>---------- -- -- -- ---- ----- -- ------ -- --- ------<br>-------,271964.7100000002,271964.1949999932,271706.931,271723.1349999929,271740.568,271973.809,,35,is
screen,html.Screen,1_3_1_0_1_36,2021-04-18T17:54:21.682Z,,,,,,,,,,,,,,,,48,,,,,,,,,,,,,,247.80099999322556,,response,,,,10,D,,,,,,Space,keypress(Space),,,,silence,,,,-- -- --- ------ ------- --------- ----------- --------<br>--------- -------- --- ------- -- ------- ---- -- ------<br>-- --- -------- -------- ---------- ---- ---- ---- ------<br>-- --------- -- ---- -- --- -- --- ------- -- a -----<br>---------- -- -- -- ---- ----- -- ------ -- --- ------<br>-------,272222.1099999879,272221.60999999323,271956.635,271964.8099999904,271973.809,272247.332,,36,a
screen,html.Screen,1_3_1_0_1_37,2021-04-18T17:54:21.914Z,,,,,,,,,,,,,,,,48,,,,,,,,,,,,,,205.63299998949515,,response,,,,10,D,,,,,,Space,keypress(Space),,,,silence,,,,-- -- --- ------ ------- --------- ----------- --------<br>--------- -------- --- ------- -- ------- ---- -- ------<br>-- --- -------- -------- ---------- ---- ---- ---- ------<br>-- --------- -- ---- -- --- -- --- ------- -- - crime<br>---------- -- -- -- ---- ----- -- ------ -- --- ------<br>-------,272453.4899999999,272452.9649999895,272206.589,272222.2099999926,272247.332,272456.586,,37,crime
screen,html.Screen,1_3_1_0_1_38,2021-04-18T17:54:22.185Z,,,,,,,,,,,,,,,,48,,,,,,,,,,,,,,267.1189999966882,,response,,,,10,D,,,,,,Space,keypress(Space),,,,silence,,,,-- -- --- ------ ------- --------- ----------- --------<br>--------- -------- --- ------- -- ------- ---- -- ------<br>-- --- -------- -------- ---------- ---- ---- ---- ------<br>-- --------- -- ---- -- --- -- --- ------- -- - -----<br>punishable -- -- -- ---- ----- -- ------ -- --- ------<br>-------,272724.2949999927,272723.7049999967,272440.367,272453.59499999904,272456.586,272740.322,,38,punishable
screen,html.Screen,1_3_1_0_1_39,2021-04-18T17:54:22.425Z,,,,,,,,,,,,,,,,48,,,,,,,,,,,,,,223.65800000046147,,response,,,,10,D,,,,,,Space,keypress(Space),,,,silence,,,,-- -- --- ------ ------- --------- ----------- --------<br>--------- -------- --- ------- -- ------- ---- -- ------<br>-- --- -------- -------- ---------- ---- ---- ---- ------<br>-- --------- -- ---- -- --- -- --- ------- -- - -----<br>---------- by -- -- ---- ----- -- ------ -- --- ------<br>-------,272964.4299999927,272963.98000000045,272723.876,272724.3899999885,272740.322,272973.706,,39,by
screen,html.Screen,1_3_1_0_1_40,2021-04-18T17:54:22.656Z,,,,,,,,,,,,,,,,48,,,,,,,,,,,,,,221.1639999920735,,response,,,,10,D,,,,,,Space,keypress(Space),,,,silence,,,,-- -- --- ------ ------- --------- ----------- --------<br>--------- -------- --- ------- -- ------- ---- -- ------<br>-- --- -------- -------- ---------- ---- ---- ---- ------<br>-- --------- -- ---- -- --- -- --- ------- -- - -----<br>---------- -- up -- ---- ----- -- ------ -- --- ------<br>-------,273195.4149999947,273194.8699999921,272957.233,272964.52999999747,272973.706,273206.612,,40,up
screen,html.Screen,1_3_1_0_1_41,2021-04-18T17:54:22.880Z,,,,,,,,,,,,,,,,48,,,,,,,,,,,,,,212.59299999830546,,response,,,,10,D,,,,,,Space,keypress(Space),,,,silence,,,,-- -- --- ------ ------- --------- ----------- --------<br>--------- -------- --- ------- -- ------- ---- -- ------<br>-- --- -------- -------- ---------- ---- ---- ---- ------<br>-- --------- -- ---- -- --- -- --- ------- -- - -----<br>---------- -- -- to ---- ----- -- ------ -- --- ------<br>-------,273419.8749999923,273419.2049999983,273190.444,273195.51499999943,273206.612,273423.234,,41,to
