sender,sender_type,sender_id,timestamp,meta,,Blues,Classical,Country,Dance,Electronic,Folk,Gospel,Hip-Hop,Jazz,Latin,Musical/Film,New-age,Pop,Provo_ID,R&B,Rap,Reggae,Religious,Rock,Soul,Swing,Traditional,age,artist_name,correct,correctResponse,distraction,duration,education,ended_on,familiarity,gender,headphone_check_performance,item,list,music_frequency,offensiveness,pleasantness,position_correct,preference,response,response_action,snippet_file,song_name,song_rating,sound,stimulus_1,stimulus_2,stimulus_3,text,time_commit,time_end,time_render,time_run,time_show,time_switch,url,word,word_ID
Introduction,html.Screen,0_0,2021-04-25T21:39:23.699Z,"{""labjs_version"":""20.2.2"",""labjs_build"":{""flavor"":""production"",""commit"":""a25486e0c714a0ae2ce03ff94b7bb6896854dcfa""},""location"":""https://run.pavlovia.org/mvasilev/music_c/"",""userAgent"":""Mozilla/5.0 (Windows NT 10.0; Win64; x64) AppleWebKit/537.36 (KHTML, like Gecko) Chrome/90.0.4430.72 Safari/537.36 Edg/90.0.818.42"",""platform"":""Win32"",""language"":""en-GB"",""locale"":""en-GB"",""timeZone"":""Europe/London"",""timezoneOffset"":-60,""screen_width"":1280,""screen_height"":720,""scroll_width"":1280,""scroll_height"":562,""window_innerWidth"":1280,""window_innerHeight"":610,""devicePixelRatio"":1.5}",,,,,,,,,,,,,,,,,,,,,,,,,,,,,9175.239999931156,,response,,,,,,,,,,,continue,click button,,,,,,,,,17786.640000063926,17781.454999931157,8572.931,8580.89999994263,8606.215,17788.476,{},,
Volume calibration,html.Screen,0_1,2021-04-25T21:39:47.963Z,,,,,,,,,,,,,,,,,,,,,,,,,,,,,,24257.69399998689,,response,,,,,,,,,,,continue,click button,,,,,,,,,42050.885000266135,42046.16999998689,17771.797,17787.1799999848,17788.476,42052.064,,,
Task instructions,html.Screen,0_2,2021-04-25T21:40:06.579Z,,,,,,,,,,,,,,,,,,,,,,,,,,,,,,18612.37599996409,,response,,,,,,,,,,,continue,click button,,,,,,,,,60666.12000018358,60664.43999996409,42035.276,42051.22000025585,42052.064,60684.55,,,
Sounds,html.Screen,0_3_0_0,2021-04-25T21:40:10.853Z,,,,,,,,,,,,,,,,,,,,,,,,,,,,,,4247.887999999999,,timeout,,,,,,,,,3,,,,,,,,I,O,S,,64939.97000018135,64915.696,60649.733,60666.51000035927,60684.55,64932.438,,,
Judgement,html.Screen,0_3_0_1,2021-04-25T21:40:12.150Z,,,,,,,,,,,,,,,,,,,,,,,,,,,true,3,,1303.2220002385657,,response,,,,,,,,,3,,3,click #choice-3,,,,,I,O,S,,66237.27000039071,66235.66000023857,64915.696,64940.40500000119,64932.438,66249.087,,,
Trial,flow.Sequence,0_3_0,2021-04-25T21:40:12.151Z,,,,,,,,,,,,,,,,,,,,,,,,,,,,,,5551.110000238565,,completion,,,,,,,,,3,,,,,,,,I,O,S,,66237.82500019297,66235.66000023857,60649.733,60666.424999944866,60684.55,66249.087,,,
Sounds,html.Screen,0_3_1_0,2021-04-25T21:40:16.396Z,,,,,,,,,,,,,,,,,,,,,,,,,,,,,,4249.351999999999,,timeout,,,,,,,,,1,,,,,,,,S,I,O,,70482.97000024468,70481.937,66232.454,66238.0850003101,66249.087,70498.439,,,
Judgement,html.Screen,0_3_1_1,2021-04-25T21:40:18.051Z,,,,,,,,,,,,,,,,,,,,,,,,,,,true,1,,1637.2660002552584,,response,,,,,,,,,1,,1,click #choice-1,,,,,S,I,O,,72138.20500019938,72135.70500025526,70481.937,70483.24500024319,70498.439,72148.147,,,
Trial,flow.Sequence,0_3_1,2021-04-25T21:40:18.051Z,,,,,,,,,,,,,,,,,,,,,,,,,,,,,,5886.618000255257,,completion,,,,,,,,,1,,,,,,,,S,I,O,,72138.55000026524,72135.70500025526,66232.454,66238.01500024274,66249.087,72148.147,,,
Sounds,html.Screen,0_3_2_0,2021-04-25T21:40:22.296Z,,,,,,,,,,,,,,,,,,,,,,,,,,,,,,4249.743000000002,,timeout,,,,,,,,,3,,,,,,,,O,I,S,,76383.27000010759,76381.227,72131.717,72138.78499995917,72148.147,76397.89,,,
Judgement,html.Screen,0_3_2_1,2021-04-25T21:40:23.275Z,,,,,,,,,,,,,,,,,,,,,,,,,,,true,3,,962.3150002664333,,response,,,,,,,,,3,,3,click #choice-3,,,,,O,I,S,,77361.90500017256,77360.20500026643,76381.227,76383.49999999627,76397.89,77364.14,,,
Trial,flow.Sequence,0_3_2,2021-04-25T21:40:23.275Z,,,,,,,,,,,,,,,,,,,,,,,,,,,,,,5212.058000266436,,completion,,,,,,,,,3,,,,,,,,O,I,S,,77362.47000005096,77360.20500026643,72131.717,72138.71000008658,72148.147,77364.14,,,
Sounds,html.Screen,0_3_3_0,2021-04-25T21:40:27.511Z,,,,,,,,,,,,,,,,,,,,,,,,,,,,,,4250.508000000002,,timeout,,,,,,,,,2,,,,,,,,O,S,I,,81597.94000023976,81596.965,77347.492,77362.68500005826,77364.14,81614.648,,,
Judgement,html.Screen,0_3_3_1,2021-04-25T21:40:28.364Z,,,,,,,,,,,,,,,,,,,,,,,,,,,true,2,,835.0370003488351,,response,,,,,,,,,2,,2,click #choice-2,,,,,O,S,I,,82451.42000028864,82449.68500034884,81596.965,81598.18500000983,81614.648,82463.572,,,
Trial,flow.Sequence,0_3_3,2021-04-25T21:40:28.364Z,,,,,,,,,,,,,,,,,,,,,,,,,,,,,,5085.545000348837,,completion,,,,,,,,,2,,,,,,,,O,S,I,,82451.72000024468,82449.68500034884,77347.492,77362.61499999091,77364.14,82463.572,,,
Sounds,html.Screen,0_3_4_0,2021-04-25T21:40:32.610Z,,,,,,,,,,,,,,,,,,,,,,,,,,,,,,4249.476999999999,,timeout,,,,,,,,,2,,,,,,,,I,S,O,,86697.29000004008,86696.335,82446.859,82451.90500002354,82463.572,86713.049,,,
Judgement,html.Screen,0_3_4_1,2021-04-25T21:40:33.416Z,,,,,,,,,,,,,,,,,,,,,,,,,,,true,2,,788.4360003644833,,response,,,,,,,,,2,,2,click #choice-2,,,,,I,S,O,,87503.13500035554,87501.48500036448,86696.335,86697.53000000492,86713.049,87512.964,,,
Trial,flow.Sequence,0_3_4,2021-04-25T21:40:33.416Z,,,,,,,,,,,,,,,,,,,,,,,,,,,,,,5037.913000364482,,completion,,,,,,,,,2,,,,,,,,I,S,O,,87503.44500038773,87501.48500036448,82446.859,82451.85500010848,82463.572,87512.964,,,
Sounds,html.Screen,0_3_5_0,2021-04-25T21:40:37.659Z,,,,,,,,,,,,,,,,,,,,,,,,,,,,,,4249.36099999999,,timeout,,,,,,,,,1,,,,,,,,S,O,I,,91746.66000017896,91745.603,87496.273,87503.64500004798,87512.964,91762.325,,,
Judgement,html.Screen,0_3_5_1,2021-04-25T21:40:38.483Z,,,,,,,,,,,,,,,,,,,,,,,,,,,true,1,,806.5900001853734,,response,,,,,,,,,1,,1,click #choice-1,,,,,S,O,I,,92570.29000017792,92568.91500018537,91745.603,91746.87000038102,91762.325,92578.838,,,
Trial,flow.Sequence,0_3_5,2021-04-25T21:40:38.484Z,,,,,,,,,,,,,,,,,,,,,,,,,,,,,,5055.951000185363,,completion,,,,,,,,,1,,,,,,,,S,O,I,,92570.82500029355,92568.91500018537,87496.273,87503.59500013292,87512.964,92578.838,,,
Task,flow.Loop,0_3,2021-04-25T21:40:38.491Z,,,,,,,,,,,,,,,,,,,,,,,,,,,,,,31884.365000185368,,completion,,,1,,,,,,,,,,,,,,,,,,92577.86500034854,92568.91500018537,60649.733,60666.34500026703,60684.55,92578.838,,,
Trap,html.Screen,0_4,2021-04-25T21:40:38.493Z,,,,,,,,,,,,,,,,,,,,,,,,,,,,,,NaN,,skipped,,,,,,,,,,,,,,,,,,,,,92580.3750003688,92568.91500018537,,92580.16500016674,,92578.838,,,
Thanks,html.Screen,0_5,2021-04-25T21:40:45.795Z,,,,,,,,,,,,,,,,,,,,,,,,,,,,,,7302.031999993589,,response,,,,,,,,,,,continue,click button,,,,,,,,,99882.5300000608,99880.86999999359,92562.172,92580.5900003761,92578.838,103160.989,,,
Headphone screening,flow.Sequence,0,2021-04-25T21:40:45.796Z,,,,,,,,,,,,,,,,,,,,,,,,,,,,,,91274.6549999936,,completion,,,,,,,,,,,,,,,,,,,,,99882.86000024527,99880.86999999359,8572.931,8580.874999985099,8606.215,103160.989,,,
Instructions,html.Page,1_0,2021-04-25T21:41:11.372Z,,,,,,,,,,,,,,,,,,,,,,,,,,,,,,22298.251000229327,,form submission,,,,,,,,,,,,,,,,,,,,,125459.61000025272,125459.24000022933,103127.547,103151.53500018641,103160.989,125457.965,,,
Holding screen,html.Screen,1_1_0_0,2021-04-25T21:41:21.353Z,,,,,,,,,,,,,,,,,,,,,,,,,,,,,,10032.002999999997,,timeout,,,,,,,,,,,,,,,,,,,,,135440.895000007,135440.047,125441.652,125460.02000011504,125457.965,135489.968,,,
screen,html.Screen,1_1_0_1_0,2021-04-25T21:41:22.252Z,,,,,,,,,,,,,,,,53,,,,,,,,,,,,,,843.9020002059406,,response,,,,99,,,,,,,Space,keypress(Space),,,,,,,,When -- ----- -- ------ - ------- --- ----------<br>------------- ------ ------ ---- ---- ------- ----- -- ----<br>-------- ------- -- ---------- --- - --- ----- ----- ----<br>---- --- --- ----- --- ---- ---- ------- ----- ---- -------<br>--- --- -- ----- -- --- ---- -- --- ---- -- ------ ------<br>--- ----- -- ----,136339.07500002533,136333.87000020593,135440.047,135441.250000149,135489.968,136339.912,,0,When
screen,html.Screen,1_1_0_1_1,2021-04-25T21:41:23.031Z,,,,,,,,,,,,,,,,53,,,,,,,,,,,,,,777.3030000929721,,response,,,,99,,,,,,,Space,keypress(Space),,,,,,,,---- it ----- -- ------ - ------- --- ----------<br>------------- ------ ------ ---- ---- ------- ----- -- ----<br>-------- ------- -- ---------- --- - --- ----- ----- ----<br>---- --- --- ----- --- ---- ---- ------- ----- ---- -------<br>--- --- -- ----- -- --- ---- -- --- ---- -- ------ ------<br>--- ----- -- ----,137118.17499995232,137117.21500009298,136323.244,136339.43000016734,136339.912,137123.111,,1,it
screen,html.Screen,1_1_0_1_2,2021-04-25T21:41:23.822Z,,,,,,,,,,,,,,,,53,,,,,,,,,,,,,,785.0889999470965,,response,,,,99,,,,,,,Space,keypress(Space),,,,,,,,---- -- comes -- ------ - ------- --- ----------<br>------------- ------ ------ ---- ---- ------- ----- -- ----<br>-------- ------- -- ---------- --- - --- ----- ----- ----<br>---- --- --- ----- --- ---- ---- ------- ----- ---- -------<br>--- --- -- ----- -- --- ---- -- --- ---- -- ------ ------<br>--- ----- -- ----,137909.1400001198,137908.1999999471,137106.728,137118.38000034913,137123.111,137923.349,,2,comes
screen,html.Screen,1_1_0_1_3,2021-04-25T21:41:24.478Z,,,,,,,,,,,,,,,,53,,,,,,,,,,,,,,641.1609999383218,,response,,,,99,,,,,,,Space,keypress(Space),,,,,,,,---- -- ----- to ------ - ------- --- ----------<br>------------- ------ ------ ---- ---- ------- ----- -- ----<br>-------- ------- -- ---------- --- - --- ----- ----- ----<br>---- --- --- ----- --- ---- ---- ------- ----- ---- -------<br>--- --- -- ----- -- --- ---- -- --- ---- -- ------ ------<br>--- ----- -- ----,138565.48000033945,138564.5099999383,137906.598,137909.35999993235,137923.349,138572.97,,3,to
screen,html.Screen,1_1_0_1_4,2021-04-25T21:41:25.064Z,,,,,,,,,,,,,,,,53,,,,,,,,,,,,,,578.0150001893926,,response,,,,99,,,,,,,Space,keypress(Space),,,,,,,,---- -- ----- -- having - ------- --- ----------<br>------------- ------ ------ ---- ---- ------- ----- -- ----<br>-------- ------- -- ---------- --- - --- ----- ----- ----<br>---- --- --- ----- --- ---- ---- ------- ----- ---- -------<br>--- --- -- ----- -- --- ---- -- --- ---- -- ------ ------<br>--- ----- -- ----,139151.93499997258,139150.9850001894,138556.389,138566.69000023976,138572.97,139156.155,,4,having
screen,html.Screen,1_1_0_1_5,2021-04-25T21:41:25.990Z,,,,,,,,,,,,,,,,53,,,,,,,,,,,,,,920.1899999503803,,response,,,,99,,,,,,,Space,keypress(Space),,,,,,,,---- -- ----- -- ------ a ------- --- ----------<br>------------- ------ ------ ---- ---- ------- ----- -- ----<br>-------- ------- -- ---------- --- - --- ----- ----- ----<br>---- --- --- ----- --- ---- ---- ------- ----- ---- -------<br>--- --- -- ----- -- --- ---- -- --- ---- -- ------ ------<br>--- ----- -- ----,140077.20499997959,140076.34499995038,139139.789,139152.1400003694,139156.155,140089.868,,5,a
screen,html.Screen,1_1_0_1_6,2021-04-25T21:41:26.687Z,,,,,,,,,,,,,,,,53,,,,,,,,,,,,,,683.7720002613787,,response,,,,99,,,,,,,Space,keypress(Space),,,,,,,,---- -- ----- -- ------ - lasting --- ----------<br>------------- ------ ------ ---- ---- ------- ----- -- ----<br>-------- ------- -- ---------- --- - --- ----- ----- ----<br>---- --- --- ----- --- ---- ---- ------- ----- ---- -------<br>--- --- -- ----- -- --- ---- -- --- ---- -- ------ ------<br>--- ----- -- ----,140774.5050000958,140773.64000026137,140073.03,140077.4199999869,140089.868,140789.742,,6,lasting
screen,html.Screen,1_1_0_1_7,2021-04-25T21:41:27.696Z,,,,,,,,,,,,,,,,53,,,,,,,,,,,,,,992.8430001536326,,response,,,,99,,,,,,,Space,keypress(Space),,,,,,,,---- -- ----- -- ------ - ------- and ----------<br>------------- ------ ------ ---- ---- ------- ----- -- ----<br>-------- ------- -- ---------- --- - --- ----- ----- ----<br>---- --- --- ----- --- ---- ---- ------- ----- ---- -------<br>--- --- -- ----- -- --- ---- -- --- ---- -- ------ ------<br>--- ----- -- ----,141783.48500002176,141782.58500015363,140772.931,140774.71000002697,140789.742,141789.158,,7,and
screen,html.Screen,1_1_0_1_8,2021-04-25T21:41:28.399Z,,,,,,,,,,,,,,,,53,,,,,,,,,,,,,,696.7870003132266,,response,,,,99,,,,,,,Space,keypress(Space),,,,,,,,---- -- ----- -- ------ - ------- --- fulfilling<br>------------- ------ ------ ---- ---- ------- ----- -- ----<br>-------- ------- -- ---------- --- - --- ----- ----- ----<br>---- --- --- ----- --- ---- ---- ------- ----- ---- -------<br>--- --- -- ----- -- --- ---- -- --- ---- -- ------ ------<br>--- ----- -- ----,142486.8499999866,142485.94500031322,141772.605,141783.6899999529,141789.158,142489.077,,8,fulfilling
screen,html.Screen,1_1_0_1_9,2021-04-25T21:41:29.061Z,,,,,,,,,,,,,,,,53,,,,,,,,,,,,,,658.9129999685683,,response,,,,99,,,,,,,Space,keypress(Space),,,,,,,,"---- -- ----- -- ------ - ------- --- ----------<br>relationship, ------ ------ ---- ---- ------- ----- -- ----<br>-------- ------- -- ---------- --- - --- ----- ----- ----<br>---- --- --- ----- --- ---- ---- ------- ----- ---- -------<br>--- --- -- ----- -- --- ---- -- --- ---- -- ------ ------<br>--- ----- -- ----",143148.8800002262,143147.98999996856,142472.667,142487.0550003834,142489.077,143155.862,,9,"relationship,"
screen,html.Screen,1_1_0_1_10,2021-04-25T21:41:29.762Z,,,,,,,,,,,,,,,,53,,,,,,,,,,,,,,692.3129999336961,,response,,,,99,,,,,,,Space,keypress(Space),,,,,,,,---- -- ----- -- ------ - ------- --- ----------<br>------------- common ------ ---- ---- ------- ----- -- ----<br>-------- ------- -- ---------- --- - --- ----- ----- ----<br>---- --- --- ----- --- ---- ---- ------- ----- ---- -------<br>--- --- -- ----- -- --- ---- -- --- ---- -- ------ ------<br>--- ----- -- ----,143849.0400002338,143848.1749999337,143139.188,143149.08500015736,143155.862,143855.551,,10,common
screen,html.Screen,1_1_0_1_11,2021-04-25T21:41:30.521Z,,,,,,,,,,,,,,,,53,,,,,,,,,,,,,,751.7240003077022,,response,,,,99,,,,,,,Space,keypress(Space),,,,,,,,---- -- ----- -- ------ - ------- --- ----------<br>------------- ------ wisdom ---- ---- ------- ----- -- ----<br>-------- ------- -- ---------- --- - --- ----- ----- ----<br>---- --- --- ----- --- ---- ---- ------- ----- ---- -------<br>--- --- -- ----- -- --- ---- -- --- ---- -- ------ ------<br>--- ----- -- ----,144608.09500003234,144607.2750003077,143839.141,143849.2400003597,143855.551,144622.594,,11,wisdom
screen,html.Screen,1_1_0_1_12,2021-04-25T21:41:31.215Z,,,,,,,,,,,,,,,,53,,,,,,,,,,,,,,678.8110000347078,,response,,,,99,,,,,,,Space,keypress(Space),,,,,,,,---- -- ----- -- ------ - ------- --- ----------<br>------------- ------ ------ says ---- ------- ----- -- ----<br>-------- ------- -- ---------- --- - --- ----- ----- ----<br>---- --- --- ----- --- ---- ---- ------- ----- ---- -------<br>--- --- -- ----- -- --- ---- -- --- ---- -- ------ ------<br>--- ----- -- ----,145302.26000025868,145301.40500003472,144605.715,144608.28000027686,144622.594,145305.383,,12,says
screen,html.Screen,1_1_0_1_13,2021-04-25T21:41:31.967Z,,,,,,,,,,,,,,,,53,,,,,,,,,,,,,,747.8020000843389,,response,,,,99,,,,,,,Space,keypress(Space),,,,,,,,---- -- ----- -- ------ - ------- --- ----------<br>------------- ------ ------ ---- that ------- ----- -- ----<br>-------- ------- -- ---------- --- - --- ----- ----- ----<br>---- --- --- ----- --- ---- ---- ------- ----- ---- -------<br>--- --- -- ----- -- --- ---- -- --- ---- -- ------ ------<br>--- ----- -- ----,146054.08499995247,146053.18500008434,145288.993,145302.475000266,145305.383,146081.214,,13,that
screen,html.Screen,1_1_0_1_14,2021-04-25T21:41:32.938Z,,,,,,,,,,,,,,,,53,,,,,,,,,,,,,,943.756000144087,,response,,,,99,,,,,,,Space,keypress(Space),,,,,,,,---- -- ----- -- ------ - ------- --- ----------<br>------------- ------ ------ ---- ---- feeling ----- -- ----<br>-------- ------- -- ---------- --- - --- ----- ----- ----<br>---- --- --- ----- --- ---- ---- ------- ----- ---- -------<br>--- --- -- ----- -- --- ---- -- --- ---- -- ------ ------<br>--- ----- -- ----,147025.8900001645,147024.9700001441,146038.629,146054.28000027314,146081.214,147038.954,,14,feeling
screen,html.Screen,1_1_0_1_15,2021-04-25T21:41:33.716Z,,,,,,,,,,,,,,,,53,,,,,,,,,,,,,,763.151000242593,,response,,,,99,,,,,,,Space,keypress(Space),,,,,,,,---- -- ----- -- ------ - ------- --- ----------<br>------------- ------ ------ ---- ---- ------- close -- ----<br>-------- ------- -- ---------- --- - --- ----- ----- ----<br>---- --- --- ----- --- ---- ---- ------- ----- ---- -------<br>--- --- -- ----- -- --- ---- -- --- ---- -- ------ ------<br>--- ----- -- ----,147802.9650002718,147802.1050002426,147022.114,147026.10000036657,147038.954,147805.104,,15,close
screen,html.Screen,1_1_0_1_16,2021-04-25T21:41:34.761Z,,,,,,,,,,,,,,,,53,,,,,,,,,,,,,,1042.7210000625928,,response,,,,99,,,,,,,Space,keypress(Space),,,,,,,,---- -- ----- -- ------ - ------- --- ----------<br>------------- ------ ------ ---- ---- ------- ----- to ----<br>-------- ------- -- ---------- --- - --- ----- ----- ----<br>---- --- --- ----- --- ---- ---- ------- ----- ---- -------<br>--- --- -- ----- -- --- ---- -- --- ---- -- ------ ------<br>--- ----- -- ----,148848.70500024408,148847.82500006258,147788.73,147803.16499993205,147805.104,148855.11,,16,to
screen,html.Screen,1_1_0_1_17,2021-04-25T21:41:35.486Z,,,,,,,,,,,,,,,,53,,,,,,,,,,,,,,717.2200003446778,,response,,,,99,,,,,,,Space,keypress(Space),,,,,,,,---- -- ----- -- ------ - ------- --- ----------<br>------------- ------ ------ ---- ---- ------- ----- -- your<br>-------- ------- -- ---------- --- - --- ----- ----- ----<br>---- --- --- ----- --- ---- ---- ------- ----- ---- -------<br>--- --- -- ----- -- --- ---- -- --- ---- -- ------ ------<br>--- ----- -- ----,149573.19000037387,149572.33000034466,148838.298,148848.91000017524,148855.11,149588.373,,17,your
screen,html.Screen,1_1_0_1_18,2021-04-25T21:41:36.346Z,,,,,,,,,,,,,,,,53,,,,,,,,,,,,,,844.6319999989646,,response,,,,99,,,,,,,Space,keypress(Space),,,,,,,,---- -- ----- -- ------ - ------- --- ----------<br>------------- ------ ------ ---- ---- ------- ----- -- ----<br>romantic ------- -- ---------- --- - --- ----- ----- ----<br>---- --- --- ----- --- ---- ---- ------- ----- ---- -------<br>--- --- -- ----- -- --- ---- -- --- ---- -- ------ ------<br>--- ----- -- ----,150433.88500018045,150433.00499999896,149571.579,149573.4300003387,149588.373,150438.061,,18,romantic
screen,html.Screen,1_1_0_1_19,2021-04-25T21:41:37.145Z,,,,,,,,,,,,,,,,53,,,,,,,,,,,,,,793.6690001159441,,response,,,,99,,,,,,,Space,keypress(Space),,,,,,,,---- -- ----- -- ------ - ------- --- ----------<br>------------- ------ ------ ---- ---- ------- ----- -- ----<br>-------- partner -- ---------- --- - --- ----- ----- ----<br>---- --- --- ----- --- ---- ---- ------- ----- ---- -------<br>--- --- -- ----- -- --- ---- -- --- ---- -- ------ ------<br>--- ----- -- ----,151232.6450003311,151231.73000011593,150421.751,150434.0950003825,150438.061,151237.989,,19,partner
screen,html.Screen,1_1_0_1_20,2021-04-25T21:41:37.648Z,,,,,,,,,,,,,,,,53,,,,,,,,,,,,,,496.90600023424486,,response,,,,99,,,,,,,Space,keypress(Space),,,,,,,,---- -- ----- -- ------ - ------- --- ----------<br>------------- ------ ------ ---- ---- ------- ----- -- ----<br>-------- ------- is ---------- --- - --- ----- ----- ----<br>---- --- --- ----- --- ---- ---- ------- ----- ---- -------<br>--- --- -- ----- -- --- ---- -- --- ---- -- ------ ------<br>--- ----- -- ----,151735.81500025466,151734.89500023425,151221.562,151232.84499999136,151237.989,151737.896,,20,is
screen,html.Screen,1_1_0_1_21,2021-04-25T21:41:38.541Z,,,,,,,,,,,,,,,,53,,,,,,,,,,,,,,889.9590000861208,,response,,,,99,,,,,,,Space,keypress(Space),,,,,,,,---- -- ----- -- ------ - ------- --- ----------<br>------------- ------ ------ ---- ---- ------- ----- -- ----<br>-------- ------- -- paramount. --- - --- ----- ----- ----<br>---- --- --- ----- --- ---- ---- ------- ----- ---- -------<br>--- --- -- ----- -- --- ---- -- --- ---- -- ------ ------<br>--- ----- -- ----,152628.74500034377,152627.85500008613,151721.515,151736.01500038058,151737.896,152638.307,,21,paramount.
screen,html.Screen,1_1_0_1_22,2021-04-25T21:41:39.133Z,,,,,,,,,,,,,,,,53,,,,,,,,,,,,,,581.7380003147118,,response,,,,99,,,,,,,Space,keypress(Space),,,,,,,,---- -- ----- -- ------ - ------- --- ----------<br>------------- ------ ------ ---- ---- ------- ----- -- ----<br>-------- ------- -- ---------- But - --- ----- ----- ----<br>---- --- --- ----- --- ---- ---- ------- ----- ---- -------<br>--- --- -- ----- -- --- ---- -- --- ---- -- ------ ------<br>--- ----- -- ----,153220.9200002253,153220.0450003147,152621.371,152628.96000035107,152638.307,153238.156,,22,But
screen,html.Screen,1_1_0_1_23,2021-04-25T21:41:39.657Z,,,,,,,,,,,,,,,,53,,,,,,,,,,,,,,505.46900011922116,,response,,,,99,,,,,,,Space,keypress(Space),,,,,,,,---- -- ----- -- ------ - ------- --- ----------<br>------------- ------ ------ ---- ---- ------- ----- -- ----<br>-------- ------- -- ---------- --- a --- ----- ----- ----<br>---- --- --- ----- --- ---- ---- ------- ----- ---- -------<br>--- --- -- ----- -- --- ---- -- --- ---- -- ------ ------<br>--- ----- -- ----,153744.69500035048,153743.6250001192,153221.272,153221.12000035122,153238.156,153754.419,,23,a
screen,html.Screen,1_1_0_1_24,2021-04-25T21:41:40.188Z,,,,,,,,,,,,,,,,53,,,,,,,,,,,,,,520.6710001265164,,response,,,,99,,,,,,,Space,keypress(Space),,,,,,,,---- -- ----- -- ------ - ------- --- ----------<br>------------- ------ ------ ---- ---- ------- ----- -- ----<br>-------- ------- -- ---------- --- - new ----- ----- ----<br>---- --- --- ----- --- ---- ---- ------- ----- ---- -------<br>--- --- -- ----- -- --- ---- -- --- ---- -- ------ ------<br>--- ----- -- ----,154275.95499996096,154275.0900001265,153737.797,153744.89500001073,153754.419,154287.8,,24,new
screen,html.Screen,1_1_0_1_25,2021-04-25T21:41:40.749Z,,,,,,,,,,,,,,,,53,,,,,,,,,,,,,,547.7600000359234,,response,,,,99,,,,,,,Space,keypress(Space),,,,,,,,---- -- ----- -- ------ - ------- --- ----------<br>------------- ------ ------ ---- ---- ------- ----- -- ----<br>-------- ------- -- ---------- --- - --- study ----- ----<br>---- --- --- ----- --- ---- ---- ------- ----- ---- -------<br>--- --- -- ----- -- --- ---- -- --- ---- -- ------ ------<br>--- ----- -- ----,154836.3650003448,154835.5600000359,154271.271,154276.16000035778,154287.8,154860.075,,25,study
screen,html.Screen,1_1_0_1_26,2021-04-25T21:41:41.315Z,,,,,,,,,,,,,,,,53,,,,,,,,,,,,,,541.8450000911835,,response,,,,99,,,,,,,Space,keypress(Space),,,,,,,,---- -- ----- -- ------ - ------- --- ----------<br>------------- ------ ------ ---- ---- ------- ----- -- ----<br>-------- ------- -- ---------- --- - --- ----- finds ----<br>---- --- --- ----- --- ---- ---- ------- ----- ---- -------<br>--- --- -- ----- -- --- ---- -- --- ---- -- ------ ------<br>--- ----- -- ----,155402.80500007793,155401.9200000912,154821.208,154836.54500031844,154860.075,155430.742,,26,finds
screen,html.Screen,1_1_0_1_27,2021-04-25T21:41:41.847Z,,,,,,,,,,,,,,,,53,,,,,,,,,,,,,,503.33300023022457,,response,,,,99,,,,,,,Space,keypress(Space),,,,,,,,---- -- ----- -- ------ - ------- --- ----------<br>------------- ------ ------ ---- ---- ------- ----- -- ----<br>-------- ------- -- ---------- --- - --- ----- ----- that<br>---- --- --- ----- --- ---- ---- ------- ----- ---- -------<br>--- --- -- ----- -- --- ---- -- --- ---- -- ------ ------<br>--- ----- -- ----,155934.89499995485,155934.07500023022,155387.668,155403.0100000091,155430.742,155937.404,,27,that
screen,html.Screen,1_1_0_1_28,2021-04-25T21:41:42.439Z,,,,,,,,,,,,,,,,53,,,,,,,,,,,,,,588.6860002904141,,response,,,,99,,,,,,,Space,keypress(Space),,,,,,,,---- -- ----- -- ------ - ------- --- ----------<br>------------- ------ ------ ---- ---- ------- ----- -- ----<br>-------- ------- -- ---------- --- - --- ----- ----- ----<br>it's --- --- ----- --- ---- ---- ------- ----- ---- -------<br>--- --- -- ----- -- --- ---- -- --- ---- -- ------ ------<br>--- ----- -- ----,156526.88500005752,156526.09000029042,155921.055,155935.08500000462,155937.404,156537.683,,28,it's
screen,html.Screen,1_1_0_1_29,2021-04-25T21:41:43.588Z,,,,,,,,,,,,,,,,53,,,,,,,,,,,,,,1136.9069999514322,,response,,,,99,,,,,,,Space,keypress(Space),,,,,,,,---- -- ----- -- ------ - ------- --- ----------<br>------------- ------ ------ ---- ---- ------- ----- -- ----<br>-------- ------- -- ---------- --- - --- ----- ----- ----<br>---- not --- ----- --- ---- ---- ------- ----- ---- -------<br>--- --- -- ----- -- --- ---- -- --- ---- -- ------ ------<br>--- ----- -- ----,157675.50999997184,157674.58999995142,156520.919,156527.08500018343,156537.683,157687.303,,29,not
screen,html.Screen,1_1_0_1_30,2021-04-25T21:41:44.534Z,,,,,,,,,,,,,,,,53,,,,,,,,,,,,,,933.7270000384306,,response,,,,99,,,,,,,Space,keypress(Space),,,,,,,,---- -- ----- -- ------ - ------- --- ----------<br>------------- ------ ------ ---- ---- ------- ----- -- ----<br>-------- ------- -- ---------- --- - --- ----- ----- ----<br>---- --- how ----- --- ---- ---- ------- ----- ---- -------<br>--- --- -- ----- -- --- ---- -- --- ---- -- ------ ------<br>--- ----- -- ----,158621.93500017747,158621.03000003844,157670.743,157675.71000009775,157687.303,158637.051,,30,how
screen,html.Screen,1_1_0_1_31,2021-04-25T21:41:45.070Z,,,,,,,,,,,,,,,,53,,,,,,,,,,,,,,519.1890003895096,,response,,,,99,,,,,,,Space,keypress(Space),,,,,,,,---- -- ----- -- ------ - ------- --- ----------<br>------------- ------ ------ ---- ---- ------- ----- -- ----<br>-------- ------- -- ---------- --- - --- ----- ----- ----<br>---- --- --- close --- ---- ---- ------- ----- ---- -------<br>--- --- -- ----- -- --- ---- -- --- ---- -- ------ ------<br>--- ----- -- ----,159157.14000025764,159156.24000038952,158620.509,158622.1350003034,158637.051,159170.606,,31,close
screen,html.Screen,1_1_0_1_32,2021-04-25T21:41:45.446Z,,,,,,,,,,,,,,,,53,,,,,,,,,,,,,,362.2290001946094,,response,,,,99,,,,,,,Space,keypress(Space),,,,,,,,---- -- ----- -- ------ - ------- --- ----------<br>------------- ------ ------ ---- ---- ------- ----- -- ----<br>-------- ------- -- ---------- --- - --- ----- ----- ----<br>---- --- --- ----- you ---- ---- ------- ----- ---- -------<br>--- --- -- ----- -- --- ---- -- --- ---- -- ------ ------<br>--- ----- -- ----,159533.7150003761,159532.8350001946,159153.846,159157.34000038356,159170.606,159536.96,,32,you
screen,html.Screen,1_1_0_1_33,2021-04-25T21:41:45.848Z,,,,,,,,,,,,,,,,53,,,,,,,,,,,,,,397.86000008226256,,response,,,,99,,,,,,,Space,keypress(Space),,,,,,,,---- -- ----- -- ------ - ------- --- ----------<br>------------- ------ ------ ---- ---- ------- ----- -- ----<br>-------- ------- -- ---------- --- - --- ----- ----- ----<br>---- --- --- ----- --- feel ---- ------- ----- ---- -------<br>--- --- -- ----- -- --- ---- -- --- ---- -- ------ ------<br>--- ----- -- ----,159935.68500038236,159934.82000008225,159520.494,159533.93500018865,159536.96,159958.927,,33,feel
screen,html.Screen,1_1_0_1_34,2021-04-25T21:41:46.256Z,,,,,,,,,,,,,,,,53,,,,,,,,,,,,,,383.3030000675062,,response,,,,99,,,,,,,Space,keypress(Space),,,,,,,,---- -- ----- -- ------ - ------- --- ----------<br>------------- ------ ------ ---- ---- ------- ----- -- ----<br>-------- ------- -- ---------- --- - --- ----- ----- ----<br>---- --- --- ----- --- ---- that ------- ----- ---- -------<br>--- --- -- ----- -- --- ---- -- --- ---- -- ------ ------<br>--- ----- -- ----,160343.06500013918,160342.2300000675,159920.518,159935.89000031352,159958.927,160353.545,,34,that
screen,html.Screen,1_1_0_1_35,2021-04-25T21:41:46.653Z,,,,,,,,,,,,,,,,53,,,,,,,,,,,,,,386.1950001063815,,response,,,,99,,,,,,,Space,keypress(Space),,,,,,,,---- -- ----- -- ------ - ------- --- ----------<br>------------- ------ ------ ---- ---- ------- ----- -- ----<br>-------- ------- -- ---------- --- - --- ----- ----- ----<br>---- --- --- ----- --- ---- ---- matters ----- ---- -------<br>--- --- -- ----- -- --- ---- -- --- ---- -- ------ ------<br>--- ----- -- ----,160740.87000032887,160739.7400001064,160336.978,160345.17500037327,160353.545,160753.857,,35,matters
screen,html.Screen,1_1_0_1_36,2021-04-25T21:41:47.074Z,,,,,,,,,,,,,,,,53,,,,,,,,,,,,,,406.66800018851063,,response,,,,99,,,,,,,Space,keypress(Space),,,,,,,,"---- -- ----- -- ------ - ------- --- ----------<br>------------- ------ ------ ---- ---- ------- ----- -- ----<br>-------- ------- -- ---------- --- - --- ----- ----- ----<br>---- --- --- ----- --- ---- ---- ------- most, ---- -------<br>--- --- -- ----- -- --- ---- -- --- ---- -- ------ ------<br>--- ----- -- ----",161161.42000025138,161160.5250001885,160736.74,160741.06999998912,160753.857,161170.082,,36,"most,"
screen,html.Screen,1_1_0_1_37,2021-04-25T21:41:47.511Z,,,,,,,,,,,,,,,,53,,,,,,,,,,,,,,427.06300000700867,,response,,,,99,,,,,,,Space,keypress(Space),,,,,,,,---- -- ----- -- ------ - ------- --- ----------<br>------------- ------ ------ ---- ---- ------- ----- -- ----<br>-------- ------- -- ---------- --- - --- ----- ----- ----<br>---- --- --- ----- --- ---- ---- ------- ----- it's -------<br>--- --- -- ----- -- --- ---- -- --- ---- -- ------ ------<br>--- ----- -- ----,161598.3150000684,161597.145000007,161153.486,161161.62500018254,161170.082,161603.284,,37,it's
screen,html.Screen,1_1_0_1_38,2021-04-25T21:41:48.054Z,,,,,,,,,,,,,,,,53,,,,,,,,,,,,,,537.5160001683689,,response,,,,99,,,,,,,Space,keypress(Space),,,,,,,,---- -- ----- -- ------ - ------- --- ----------<br>------------- ------ ------ ---- ---- ------- ----- -- ----<br>-------- ------- -- ---------- --- - --- ----- ----- ----<br>---- --- --- ----- --- ---- ---- ------- ----- ---- whether<br>--- --- -- ----- -- --- ---- -- --- ---- -- ------ ------<br>--- ----- -- ----,162141.6600001976,162140.80000016838,161586.773,161598.51999999955,161603.284,162153.672,,38,whether
screen,html.Screen,1_1_0_1_39,2021-04-25T21:41:48.461Z,,,,,,,,,,,,,,,,53,,,,,,,,,,,,,,393.55300033677486,,response,,,,99,,,,,,,Space,keypress(Space),,,,,,,,---- -- ----- -- ------ - ------- --- ----------<br>------------- ------ ------ ---- ---- ------- ----- -- ----<br>-------- ------- -- ---------- --- - --- ----- ----- ----<br>---- --- --- ----- --- ---- ---- ------- ----- ---- -------<br>you --- -- ----- -- --- ---- -- --- ---- -- ------ ------<br>--- ----- -- ----,162548.07500028983,162547.22500033677,162136.697,162141.8550000526,162153.672,162553.172,,39,you
screen,html.Screen,1_1_0_1_40,2021-04-25T21:41:48.892Z,,,,,,,,,,,,,,,,53,,,,,,,,,,,,,,425.2480000576761,,response,,,,99,,,,,,,Space,keypress(Space),,,,,,,,---- -- ----- -- ------ - ------- --- ----------<br>------------- ------ ------ ---- ---- ------- ----- -- ----<br>-------- ------- -- ---------- --- - --- ----- ----- ----<br>---- --- --- ----- --- ---- ---- ------- ----- ---- -------<br>--- are -- ----- -- --- ---- -- --- ---- -- ------ ------<br>--- ----- -- ----,162979.2650002055,162978.42000005767,162536.556,162548.27000014484,162553.172,162986.672,,40,are
screen,html.Screen,1_1_0_1_41,2021-04-25T21:41:49.384Z,,,,,,,,,,,,,,,,53,,,,,,,,,,,,,,484.02300014186767,,response,,,,99,,,,,,,Space,keypress(Space),,,,,,,,---- -- ----- -- ------ - ------- --- ----------<br>------------- ------ ------ ---- ---- ------- ----- -- ----<br>-------- ------- -- ---------- --- - --- ----- ----- ----<br>---- --- --- ----- --- ---- ---- ------- ----- ---- -------<br>--- --- as ----- -- --- ---- -- --- ---- -- ------ ------<br>--- ----- -- ----,163471.6000002809,163470.69500014186,162970.097,162979.4650003314,162986.672,163486.947,,41,as
screen,html.Screen,1_1_0_1_42,2021-04-25T21:41:49.796Z,,,,,,,,,,,,,,,,53,,,,,,,,,,,,,,396.038000032946,,response,,,,99,,,,,,,Space,keypress(Space),,,,,,,,---- -- ----- -- ------ - ------- --- ----------<br>------------- ------ ------ ---- ---- ------- ----- -- ----<br>-------- ------- -- ---------- --- - --- ----- ----- ----<br>---- --- --- ----- --- ---- ---- ------- ----- ---- -------<br>--- --- -- close -- --- ---- -- --- ---- -- ------ ------<br>--- ----- -- ----,163883.8400002569,163882.98500003293,163470.007,163471.79000033066,163486.947,163886.418,,42,close
screen,html.Screen,1_1_0_1_43,2021-04-25T21:41:50.179Z,,,,,,,,,,,,,,,,53,,,,,,,,,,,,,,378.69700030755484,,response,,,,99,,,,,,,Space,keypress(Space),,,,,,,,---- -- ----- -- ------ - ------- --- ----------<br>------------- ------ ------ ---- ---- ------- ----- -- ----<br>-------- ------- -- ---------- --- - --- ----- ----- ----<br>---- --- --- ----- --- ---- ---- ------- ----- ---- -------<br>--- --- -- ----- as --- ---- -- --- ---- -- ------ ------<br>--- ----- -- ----,164265.980000142,164265.11500030756,163869.88,163884.0350001119,163886.418,164269.61,,43,as
screen,html.Screen,1_1_0_1_44,2021-04-25T21:41:50.558Z,,,,,,,,,,,,,,,,53,,,,,,,,,,,,,,375.0500002236804,,response,,,,99,,,,,,,Space,keypress(Space),,,,,,,,---- -- ----- -- ------ - ------- --- ----------<br>------------- ------ ------ ---- ---- ------- ----- -- ----<br>-------- ------- -- ---------- --- - --- ----- ----- ----<br>---- --- --- ----- --- ---- ---- ------- ----- ---- -------<br>--- --- -- ----- -- you ---- -- --- ---- -- ------ ------<br>--- ----- -- ----,164645.5250000581,164644.66000022367,164253.209,164266.19000034407,164269.61,164653.132,,44,you
screen,html.Screen,1_1_0_1_45,2021-04-25T21:41:50.900Z,,,,,,,,,,,,,,,,53,,,,,,,,,,,,,,333.4330003775831,,response,,,,99,,,,,,,Space,keypress(Space),,,,,,,,---- -- ----- -- ------ - ------- --- ----------<br>------------- ------ ------ ---- ---- ------- ----- -- ----<br>-------- ------- -- ---------- --- - --- ----- ----- ----<br>---- --- --- ----- --- ---- ---- ------- ----- ---- -------<br>--- --- -- ----- -- --- want -- --- ---- -- ------ ------<br>--- ----- -- ----,164987.41500033066,164986.5650003776,164636.51,164645.71500010788,164653.132,165002.956,,45,want
screen,html.Screen,1_1_0_1_46,2021-04-25T21:41:51.238Z,,,,,,,,,,,,,,,,53,,,,,,,,,,,,,,320.9990003781859,,response,,,,99,,,,,,,Space,keypress(Space),,,,,,,,---- -- ----- -- ------ - ------- --- ----------<br>------------- ------ ------ ---- ---- ------- ----- -- ----<br>-------- ------- -- ---------- --- - --- ----- ----- ----<br>---- --- --- ----- --- ---- ---- ------- ----- ---- -------<br>--- --- -- ----- -- --- ---- to --- ---- -- ------ ------<br>--- ----- -- ----,165325.06499998271,165323.9550003782,164986.187,164989.75000018254,165002.956,165336.658,,46,to
screen,html.Screen,1_1_0_1_47,2021-04-25T21:41:51.877Z,,,,,,,,,,,,,,,,53,,,,,,,,,,,,,,626.8870001806063,,response,,,,99,,,,,,,Space,keypress(Space),,,,,,,,"---- -- ----- -- ------ - ------- --- ----------<br>------------- ------ ------ ---- ---- ------- ----- -- ----<br>-------- ------- -- ---------- --- - --- ----- ----- ----<br>---- --- --- ----- --- ---- ---- ------- ----- ---- -------<br>--- --- -- ----- -- --- ---- -- be, ---- -- ------ ------<br>--- ----- -- ----",165964.3999999389,165963.5450001806,165319.651,165325.25000022724,165336.658,165969.392,,47,"be,"
screen,html.Screen,1_1_0_1_48,2021-04-25T21:41:52.329Z,,,,,,,,,,,,,,,,53,,,,,,,,,,,,,,445.94300002697855,,response,,,,99,,,,,,,Space,keypress(Space),,,,,,,,---- -- ----- -- ------ - ------- --- ----------<br>------------- ------ ------ ---- ---- ------- ----- -- ----<br>-------- ------- -- ---------- --- - --- ----- ----- ----<br>---- --- --- ----- --- ---- ---- ------- ----- ---- -------<br>--- --- -- ----- -- --- ---- -- --- even -- ------ ------<br>--- ----- -- ----,166416.20500013232,166415.33500002697,165952.91,165964.58999998868,165969.392,166419.353,,48,even
screen,html.Screen,1_1_0_1_49,2021-04-25T21:41:52.746Z,,,,,,,,,,,,,,,,53,,,,,,,,,,,,,,412.942000087467,,response,,,,99,,,,,,,Space,keypress(Space),,,,,,,,---- -- ----- -- ------ - ------- --- ----------<br>------------- ------ ------ ---- ---- ------- ----- -- ----<br>-------- ------- -- ---------- --- - --- ----- ----- ----<br>---- --- --- ----- --- ---- ---- ------- ----- ---- -------<br>--- --- -- ----- -- --- ---- -- --- ---- if ------ ------<br>--- ----- -- ----,166833.1850003451,166832.29500008747,166402.96,166416.40500025824,166419.353,166835.982,,49,if
screen,html.Screen,1_1_0_1_50,2021-04-25T21:41:53.134Z,,,,,,,,,,,,,,,,53,,,,,,,,,,,,,,385.1680001140048,,response,,,,99,,,,,,,Space,keypress(Space),,,,,,,,---- -- ----- -- ------ - ------- --- ----------<br>------------- ------ ------ ---- ---- ------- ----- -- ----<br>-------- ------- -- ---------- --- - --- ----- ----- ----<br>---- --- --- ----- --- ---- ---- ------- ----- ---- -------<br>--- --- -- ----- -- --- ---- -- --- ---- -- that's ------<br>--- ----- -- ----,167221.950000152,167221.150000114,166819.585,166833.38500000536,166835.982,167236.224,,50,that's
screen,html.Screen,1_1_0_1_51,2021-04-25T21:41:53.600Z,,,,,,,,,,,,,,,,53,,,,,,,,,,,,,,450.4710001567728,,response,,,,99,,,,,,,Space,keypress(Space),,,,,,,,---- -- ----- -- ------ - ------- --- ----------<br>------------- ------ ------ ---- ---- ------- ----- -- ----<br>-------- ------- -- ---------- --- - --- ----- ----- ----<br>---- --- --- ----- --- ---- ---- ------- ----- ---- -------<br>--- --- -- ----- -- --- ---- -- --- ---- -- ------ really<br>--- ----- -- ----,167687.73999996483,167686.69500015676,167219.504,167222.11500024423,167236.224,167702.647,,51,really
screen,html.Screen,1_1_0_1_52,2021-04-25T21:41:54.056Z,,,,,,,,,,,,,,,,53,,,,,,,,,,,,,,440.1680003775982,,response,,,,99,,,,,,,Space,keypress(Space),,,,,,,,---- -- ----- -- ------ - ------- --- ----------<br>------------- ------ ------ ---- ---- ------- ----- -- ----<br>-------- ------- -- ---------- --- - --- ----- ----- ----<br>---- --- --- ----- --- ---- ---- ------- ----- ---- -------<br>--- --- -- ----- -- --- ---- -- --- ---- -- ------ ------<br>not ----- -- ----,168143.66500033066,168142.8150003776,167686.283,167688.05500026792,167702.647,168152.657,,52,not
screen,html.Screen,1_1_0_1_53,2021-04-25T21:41:54.647Z,,,,,,,,,,,,,,,,53,,,,,,,,,,,,,,580.4680002607638,,response,,,,99,,,,,,,Space,keypress(Space),,,,,,,,---- -- ----- -- ------ - ------- --- ----------<br>------------- ------ ------ ---- ---- ------- ----- -- ----<br>-------- ------- -- ---------- --- - --- ----- ----- ----<br>---- --- --- ----- --- ---- ---- ------- ----- ---- -------<br>--- --- -- ----- -- --- ---- -- --- ---- -- ------ ------<br>--- close -- ----,168733.99000009522,168733.12500026077,168135.874,168143.84500030428,168152.657,168735.758,,53,close
screen,html.Screen,1_1_0_1_54,2021-04-25T21:41:55.049Z,,,,,,,,,,,,,,,,53,,,,,,,,,,,,,,399.5670001557155,,response,,,,99,,,,,,,Space,keypress(Space),,,,,,,,---- -- ----- -- ------ - ------- --- ----------<br>------------- ------ ------ ---- ---- ------- ----- -- ----<br>-------- ------- -- ---------- --- - --- ----- ----- ----<br>---- --- --- ----- --- ---- ---- ------- ----- ---- -------<br>--- --- -- ----- -- --- ---- -- --- ---- -- ------ ------<br>--- ----- at ----,169136.19500026107,169135.32500015572,168719.066,168734.17500033975,168735.758,169152.968,,54,at
screen,html.Screen,1_1_0_1_55,2021-04-25T21:41:55.762Z,,,,,,,,,,,,,,,,53,,,,,,,,,,,,,,695.4819999322062,,response,,,,99,,,,,,,Space,keypress(Space),,,,,,,,---- -- ----- -- ------ - ------- --- ----------<br>------------- ------ ------ ---- ---- ------- ----- -- ----<br>-------- ------- -- ---------- --- - --- ----- ----- ----<br>---- --- --- ----- --- ---- ---- ------- ----- ---- -------<br>--- --- -- ----- -- --- ---- -- --- ---- -- ------ ------<br>--- ----- -- all.,169849.26000004634,169848.4499999322,169135.701,169136.38000003994,169152.968,169852.244,,55,all.
Item 99,flow.Loop,1_1_0_1,2021-04-25T21:41:55.762Z,,,,,,,,,,,,,,,,,,,,,,,,,,,,,,34358.481999932206,,completion,,,,,C,,,,,,,,,,,silence,,,,,169849.6650001034,169848.4499999322,135440.047,135441.1700000055,135489.968,169852.244,,,
Question 1,html.Screen,1_1_0_2,2021-04-25T21:42:03.637Z,,,,,,,,,,,,,,,,,,,,,,,,,,,true,FALSE,,7870.3510001738905,,response,,,,99,C,,,,,,FALSE,click #choice-2,,,,silence,,,,,177724.34000018984,177722.5950001739,169835.801,169849.8400002718,169852.244,177734.614,,,
Question 2,html.Screen,1_1_0_3,2021-04-25T21:42:09.057Z,,,,,,,,,,,,,,,,,,,,,,,,,,,true,TRUE,,5407.805999931006,,response,,,,99,C,,,,,,TRUE,click #choice-1,,,,silence,,,,,183144.14500026032,183142.419999931,177717.995,177724.57000007853,177734.614,183150.628,,,
Item 99,flow.Sequence,1_1_0,2021-04-25T21:42:09.057Z,,,,,,,,,,,,,,,,,,,,,,,,,,,,,,57684.45499993101,,completion,,,,,,,,,,,,,,,,,,,,,183144.47499997914,183142.419999931,125441.652,125459.97000019997,125457.965,183150.628,,,
Holding screen,html.Screen,1_1_1_0,2021-04-25T21:42:19.047Z,,,,,,,,,,,,,,,,,,,,,,,,,,,,,,9999.165000000008,,timeout,,,,,,,,,,,,,,,,,,,,,193133.91999993473,193132.708,183134.425,183144.6850001812,183150.628,193149.793,,,
screen,html.Screen,1_1_1_1_0,2021-04-25T21:42:19.584Z,,,,,,,,,,,,,,,,54,,,,,,,,,,,,,,520.7070000074455,,response,,,,100,,,,,,,Space,keypress(Space),,,,,,,,At --- ---- --- ------ ----- ------- ---- -- --- ------- --<br>------- ---------- ------ -- ----- -- ----- -- ---- ------<br>--- ----- --- --- ------ -------- ----- --- ------ ----- --<br>----- ----- ---------- --- --- ------ ------ ---- -- ------<br>------- --- ------ ----- --- ---- ------- -- ---- --- --<br>------- ------,193671.85000004247,193670.50000000745,193132.708,193134.20000020415,193149.793,193682.567,,0,At
screen,html.Screen,1_1_1_1_1,2021-04-25T21:42:20.034Z,,,,,,,,,,,,,,,,54,,,,,,,,,,,,,,438.56800013946486,,response,,,,100,,,,,,,Space,keypress(Space),,,,,,,,-- the ---- --- ------ ----- ------- ---- -- --- ------- --<br>------- ---------- ------ -- ----- -- ----- -- ---- ------<br>--- ----- --- --- ------ -------- ----- --- ------ ----- --<br>----- ----- ---------- --- --- ------ ------ ---- -- ------<br>------- --- ------ ----- --- ---- ------- -- ---- --- --<br>------- ------,194121.8850002624,194121.13500013947,193666.1,193672.12500004098,193682.567,194132.991,,1,the
screen,html.Screen,1_1_1_1_2,2021-04-25T21:42:20.399Z,,,,,,,,,,,,,,,,54,,,,,,,,,,,,,,352.96400038935826,,response,,,,100,,,,,,,Space,keypress(Space),,,,,,,,-- --- time --- ------ ----- ------- ---- -- --- ------- --<br>------- ---------- ------ -- ----- -- ----- -- ---- ------<br>--- ----- --- --- ------ -------- ----- --- ------ ----- --<br>----- ----- ---------- --- --- ------ ------ ---- -- ------<br>------- --- ------ ----- --- ---- ------- -- ---- --- --<br>------- ------,194486.76500003785,194485.95500038937,194115.833,194122.08000011742,194132.991,194499.556,,2,time
screen,html.Screen,1_1_1_1_3,2021-04-25T21:42:20.852Z,,,,,,,,,,,,,,,,54,,,,,,,,,,,,,,438.7890001478081,,response,,,,100,,,,,,,Space,keypress(Space),,,,,,,,-- --- ---- the ------ ----- ------- ---- -- --- ------- --<br>------- ---------- ------ -- ----- -- ----- -- ---- ------<br>--- ----- --- --- ------ -------- ----- --- ------ ----- --<br>----- ----- ---------- --- --- ------ ------ ---- -- ------<br>------- --- ------ ----- --- ---- ------- -- ---- --- --<br>------- ------,194939.14500018582,194938.34500014782,194482.648,194486.95000028238,194499.556,194949.311,,3,the
screen,html.Screen,1_1_1_1_4,2021-04-25T21:42:21.240Z,,,,,,,,,,,,,,,,54,,,,,,,,,,,,,,377.00400018761866,,response,,,,100,,,,,,,Space,keypress(Space),,,,,,,,-- --- ---- --- French ----- ------- ---- -- --- ------- --<br>------- ---------- ------ -- ----- -- ----- -- ---- ------<br>--- ----- --- --- ------ -------- ----- --- ------ ----- --<br>----- ----- ---------- --- --- ------ ------ ---- -- ------<br>------- --- ------ ----- --- ---- ------- -- ---- --- --<br>------- ------,195327.20000017434,195326.3150001876,194932.534,194939.3150000833,194949.311,195332.337,,4,French
screen,html.Screen,1_1_1_1_5,2021-04-25T21:42:21.651Z,,,,,,,,,,,,,,,,54,,,,,,,,,,,,,,405.543000378937,,response,,,,100,,,,,,,Space,keypress(Space),,,,,,,,-- --- ---- --- ------ crown ------- ---- -- --- ------- --<br>------- ---------- ------ -- ----- -- ----- -- ---- ------<br>--- ----- --- --- ------ -------- ----- --- ------ ----- --<br>----- ----- ---------- --- --- ------ ------ ---- -- ------<br>------- --- ------ ----- --- ---- ------- -- ---- --- --<br>------- ------,195738.730000332,195737.88000037894,195315.648,195327.38000014797,195332.337,195749.085,,5,crown
screen,html.Screen,1_1_1_1_6,2021-04-25T21:42:22.267Z,,,,,,,,,,,,,,,,54,,,,,,,,,,,,,,604.0400003725372,,response,,,,100,,,,,,,Space,keypress(Space),,,,,,,,-- --- ---- --- ------ ----- secured ---- -- --- ------- --<br>------- ---------- ------ -- ----- -- ----- -- ---- ------<br>--- ----- --- --- ------ -------- ----- --- ------ ----- --<br>----- ----- ---------- --- --- ------ ------ ---- -- ------<br>------- --- ------ ----- --- ---- ------- -- ---- --- --<br>------- ------,196353.98000013083,196353.12500037253,195732.515,195738.92999999225,195749.085,196365.85,,6,secured
screen,html.Screen,1_1_1_1_7,2021-04-25T21:42:22.898Z,,,,,,,,,,,,,,,,54,,,,,,,,,,,,,,618.4350002460124,,response,,,,100,,,,,,,Space,keypress(Space),,,,,,,,-- --- ---- --- ------ ----- ------- much -- --- ------- --<br>------- ---------- ------ -- ----- -- ----- -- ---- ------<br>--- ----- --- --- ------ -------- ----- --- ------ ----- --<br>----- ----- ---------- --- --- ------ ------ ---- -- ------<br>------- --- ------ ----- --- ---- ------- -- ---- --- --<br>------- ------,196985.1200003177,196984.28500024602,196349.009,196354.16000010446,196365.85,196998.872,,7,much
screen,html.Screen,1_1_1_1_8,2021-04-25T21:42:23.336Z,,,,,,,,,,,,,,,,54,,,,,,,,,,,,,,423.38800037043984,,response,,,,100,,,,,,,Space,keypress(Space),,,,,,,,-- --- ---- --- ------ ----- ------- ---- of --- ------- --<br>------- ---------- ------ -- ----- -- ----- -- ---- ------<br>--- ----- --- --- ------ -------- ----- --- ------ ----- --<br>----- ----- ---------- --- --- ------ ------ ---- -- ------<br>------- --- ------ ----- --- ---- ------- -- ---- --- --<br>------- ------,197423.119999934,197422.26000037044,196982.364,196985.29500002041,196998.872,197432.169,,8,of
screen,html.Screen,1_1_1_1_9,2021-04-25T21:42:23.728Z,,,,,,,,,,,,,,,,54,,,,,,,,,,,,,,382.0960001682397,,response,,,,100,,,,,,,Space,keypress(Space),,,,,,,,-- --- ---- --- ------ ----- ------- ---- -- its ------- --<br>------- ---------- ------ -- ----- -- ----- -- ---- ------<br>--- ----- --- --- ------ -------- ----- --- ------ ----- --<br>----- ----- ---------- --- --- ------ ------ ---- -- ------<br>------- --- ------ ----- --- ---- ------- -- ---- --- --<br>------- ------,197815.15000015497,197814.26500016823,197415.742,197423.3200000599,197432.169,197832.347,,9,its
screen,html.Screen,1_1_1_1_10,2021-04-25T21:42:24.409Z,,,,,,,,,,,,,,,,54,,,,,,,,,,,,,,662.7480001366348,,response,,,,100,,,,,,,Space,keypress(Space),,,,,,,,-- --- ---- --- ------ ----- ------- ---- -- --- revenue --<br>------- ---------- ------ -- ----- -- ----- -- ---- ------<br>--- ----- --- --- ------ -------- ----- --- ------ ----- --<br>----- ----- ---------- --- --- ------ ------ ---- -- ------<br>------- --- ------ ----- --- ---- ------- -- ---- --- --<br>------- ------,198495.9599999711,198495.09500013664,197815.709,197815.3300001286,197832.347,198498.587,,10,revenue
screen,html.Screen,1_1_1_1_11,2021-04-25T21:42:24.921Z,,,,,,,,,,,,,,,,54,,,,,,,,,,,,,,509.3580001940136,,response,,,,100,,,,,,,Space,keypress(Space),,,,,,,,-- --- ---- --- ------ ----- ------- ---- -- --- ------- by<br>------- ---------- ------ -- ----- -- ----- -- ---- ------<br>--- ----- --- --- ------ -------- ----- --- ------ ----- --<br>----- ----- ---------- --- --- ------ ------ ---- -- ------<br>------- --- ------ ----- --- ---- ------- -- ---- --- --<br>------- ------,199008.7399999611,199007.945000194,198482.011,198496.14500021562,198498.587,199015.324,,11,by
screen,html.Screen,1_1_1_1_12,2021-04-25T21:42:25.628Z,,,,,,,,,,,,,,,,54,,,,,,,,,,,,,,699.1960003869899,,response,,,,100,,,,,,,Space,keypress(Space),,,,,,,,-- --- ---- --- ------ ----- ------- ---- -- --- ------- --<br>issuing ---------- ------ -- ----- -- ----- -- ---- ------<br>--- ----- --- --- ------ -------- ----- --- ------ ----- --<br>----- ----- ---------- --- --- ------ ------ ---- -- ------<br>------- --- ------ ----- --- ---- ------- -- ---- --- --<br>------- ------,199715.37999995053,199714.52000038698,198998.761,199008.92500020564,199015.324,199732.259,,12,issuing
screen,html.Screen,1_1_1_1_13,2021-04-25T21:42:26.312Z,,,,,,,,,,,,,,,,54,,,,,,,,,,,,,,666.2760001603456,,response,,,,100,,,,,,,Space,keypress(Space),,,,,,,,-- --- ---- --- ------ ----- ------- ---- -- --- ------- --<br>------- government ------ -- ----- -- ----- -- ---- ------<br>--- ----- --- --- ------ -------- ----- --- ------ ----- --<br>----- ----- ---------- --- --- ------ ------ ---- -- ------<br>------- --- ------ ----- --- ---- ------- -- ---- --- --<br>------- ------,200399.39500018954,200398.53500016034,199715.359,199715.56500019506,199732.259,200415.453,,13,government
screen,html.Screen,1_1_1_1_14,2021-04-25T21:42:27.595Z,,,,,,,,,,,,,,,,54,,,,,,,,,,,,,,1265.8370002114389,,response,,,,100,,,,,,,Space,keypress(Space),,,,,,,,-- --- ---- --- ------ ----- ------- ---- -- --- ------- --<br>------- ---------- bonds. -- ----- -- ----- -- ---- ------<br>--- ----- --- --- ------ -------- ----- --- ------ ----- --<br>----- ----- ---------- --- --- ------ ------ ---- -- ------<br>------- --- ------ ----- --- ---- ------- -- ---- --- --<br>------- ------,201682.16500012204,201681.29000021145,200398.537,200399.57500016317,200415.453,201698.618,,14,bonds.
screen,html.Screen,1_1_1_1_15,2021-04-25T21:42:28.010Z,,,,,,,,,,,,,,,,54,,,,,,,,,,,,,,398.4220003716473,,response,,,,100,,,,,,,Space,keypress(Space),,,,,,,,-- --- ---- --- ------ ----- ------- ---- -- --- ------- --<br>------- ---------- ------ In ----- -- ----- -- ---- ------<br>--- ----- --- --- ------ -------- ----- --- ------ ----- --<br>----- ----- ---------- --- --- ------ ------ ---- -- ------<br>------- --- ------ ----- --- ---- ------- -- ---- --- --<br>------- ------,202097.91500028223,202097.04000037163,201681.788,201682.35000036657,201698.618,202115.242,,15,In
screen,html.Screen,1_1_1_1_16,2021-04-25T21:42:28.952Z,,,,,,,,,,,,,,,,54,,,,,,,,,,,,,,923.0080002160685,,response,,,,100,,,,,,,Space,keypress(Space),,,,,,,,"-- --- ---- --- ------ ----- ------- ---- -- --- ------- --<br>------- ---------- ------ -- 1727, -- ----- -- ---- ------<br>--- ----- --- --- ------ -------- ----- --- ------ ----- --<br>----- ----- ---------- --- --- ------ ------ ---- -- ------<br>------- --- ------ ----- --- ---- ------- -- ---- --- --<br>------- ------",203039.1299999319,203038.25000021607,202098.17,202098.0850001797,202115.242,203048.142,,16,"1727,"
screen,html.Screen,1_1_1_1_17,2021-04-25T21:42:29.511Z,,,,,,,,,,,,,,,,54,,,,,,,,,,,,,,549.2130002090707,,response,,,,100,,,,,,,Space,keypress(Space),,,,,,,,-- --- ---- --- ------ ----- ------- ---- -- --- ------- --<br>------- ---------- ------ -- ----- in ----- -- ---- ------<br>--- ----- --- --- ------ -------- ----- --- ------ ----- --<br>----- ----- ---------- --- --- ------ ------ ---- -- ------<br>------- --- ------ ----- --- ---- ------- -- ---- --- --<br>------- ------,203598.25000027195,203597.35500020906,203031.405,203039.3100003712,203048.142,203615.119,,17,in
screen,html.Screen,1_1_1_1_18,2021-04-25T21:42:30.036Z,,,,,,,,,,,,,,,,54,,,,,,,,,,,,,,507.0460000661551,,response,,,,100,,,,,,,Space,keypress(Space),,,,,,,,-- --- ---- --- ------ ----- ------- ---- -- --- ------- --<br>------- ---------- ------ -- ----- -- order -- ---- ------<br>--- ----- --- --- ------ -------- ----- --- ------ ----- --<br>----- ----- ---------- --- --- ------ ------ ---- -- ------<br>------- --- ------ ----- --- ---- ------- -- ---- --- --<br>------- ------,204123.03999997675,204122.16500006616,203597.901,203598.46500027925,203615.119,204131.499,,18,order
screen,html.Screen,1_1_1_1_19,2021-04-25T21:42:30.537Z,,,,,,,,,,,,,,,,54,,,,,,,,,,,,,,491.93599995767,,response,,,,100,,,,,,,Space,keypress(Space),,,,,,,,-- --- ---- --- ------ ----- ------- ---- -- --- ------- --<br>------- ---------- ------ -- ----- -- ----- to ---- ------<br>--- ----- --- --- ------ -------- ----- --- ------ ----- --<br>----- ----- ---------- --- --- ------ ------ ---- -- ------<br>------- --- ------ ----- --- ---- ------- -- ---- --- --<br>------- ------,204624.38500020653,204623.43499995768,204114.834,204123.24500037357,204131.499,204631.175,,19,to
screen,html.Screen,1_1_1_1_20,2021-04-25T21:42:30.991Z,,,,,,,,,,,,,,,,54,,,,,,,,,,,,,,446.8900000088033,,response,,,,100,,,,,,,Space,keypress(Space),,,,,,,,-- --- ---- --- ------ ----- ------- ---- -- --- ------- --<br>------- ---------- ------ -- ----- -- ----- -- save ------<br>--- ----- --- --- ------ -------- ----- --- ------ ----- --<br>----- ----- ---------- --- --- ------ ------ ---- -- ------<br>------- --- ------ ----- --- ---- ------- -- ---- --- --<br>------- ------,205078.88500019908,205078.0650000088,204614.712,204624.58000006154,204631.175,205081.081,,20,save
screen,html.Screen,1_1_1_1_21,2021-04-25T21:42:31.743Z,,,,,,,,,,,,,,,,54,,,,,,,,,,,,,,748.933999955887,,response,,,,100,,,,,,,Space,keypress(Space),,,,,,,,"-- --- ---- --- ------ ----- ------- ---- -- --- ------- --<br>------- ---------- ------ -- ----- -- ----- -- ---- money,<br>--- ----- --- --- ------ -------- ----- --- ------ ----- --<br>----- ----- ---------- --- --- ------ ------ ---- -- ------<br>------- --- ------ ----- --- ---- ------- -- ---- --- --<br>------- ------",205830.880000256,205830.0149999559,205064.739,205079.0800000541,205081.081,205848.086,,21,"money,"
screen,html.Screen,1_1_1_1_22,2021-04-25T21:42:32.316Z,,,,,,,,,,,,,,,,54,,,,,,,,,,,,,,554.4890001892345,,response,,,,100,,,,,,,Space,keypress(Space),,,,,,,,-- --- ---- --- ------ ----- ------- ---- -- --- ------- --<br>------- ---------- ------ -- ----- -- ----- -- ---- ------<br>the ----- --- --- ------ -------- ----- --- ------ ----- --<br>----- ----- ---------- --- --- ------ ------ ---- -- ------<br>------- --- ------ ----- --- ---- ------- -- ---- --- --<br>------- ------,206403.45000009984,206402.57500018924,205831.248,205831.06000022963,205848.086,206414.381,,22,the
screen,html.Screen,1_1_1_1_23,2021-04-25T21:42:32.966Z,,,,,,,,,,,,,,,,54,,,,,,,,,,,,,,637.9589999365271,,response,,,,100,,,,,,,Space,keypress(Space),,,,,,,,-- --- ---- --- ------ ----- ------- ---- -- --- ------- --<br>------- ---------- ------ -- ----- -- ----- -- ---- ------<br>--- state --- --- ------ -------- ----- --- ------ ----- --<br>----- ----- ---------- --- --- ------ ------ ---- -- ------<br>------- --- ------ ----- --- ---- ------- -- ---- --- --<br>------- ------,207053.20500023663,207052.33999993652,206397.89,206403.63500034437,206414.381,207064.596,,23,state
screen,html.Screen,1_1_1_1_24,2021-04-25T21:42:33.586Z,,,,,,,,,,,,,,,,54,,,,,,,,,,,,,,607.5189999648428,,response,,,,100,,,,,,,Space,keypress(Space),,,,,,,,-- --- ---- --- ------ ----- ------- ---- -- --- ------- --<br>------- ---------- ------ -- ----- -- ----- -- ---- ------<br>--- ----- cut --- ------ -------- ----- --- ------ ----- --<br>----- ----- ---------- --- --- ------ ------ ---- -- ------<br>------- --- ------ ----- --- ---- ------- -- ---- --- --<br>------- ------,207672.9700001888,207672.11499996483,207047.633,207053.3900000155,207064.596,207680.856,,24,cut
screen,html.Screen,1_1_1_1_25,2021-04-25T21:42:34.110Z,,,,,,,,,,,,,,,,54,,,,,,,,,,,,,,515.6589999596181,,response,,,,100,,,,,,,Space,keypress(Space),,,,,,,,-- --- ---- --- ------ ----- ------- ---- -- --- ------- --<br>------- ---------- ------ -- ----- -- ----- -- ---- ------<br>--- ----- --- the ------ -------- ----- --- ------ ----- --<br>----- ----- ---------- --- --- ------ ------ ---- -- ------<br>------- --- ------ ----- --- ---- ------- -- ---- --- --<br>------- ------,208197.3550003022,208196.51499995962,207664.07,207673.15000016242,207680.856,208214.116,,25,the
screen,html.Screen,1_1_1_1_26,2021-04-25T21:42:35.139Z,,,,,,,,,,,,,,,,54,,,,,,,,,,,,,,1011.3640000227897,,response,,,,100,,,,,,,Space,keypress(Space),,,,,,,,-- --- ---- --- ------ ----- ------- ---- -- --- ------- --<br>------- ---------- ------ -- ----- -- ----- -- ---- ------<br>--- ----- --- --- bonds' -------- ----- --- ------ ----- --<br>----- ----- ---------- --- --- ------ ------ ---- -- ------<br>------- --- ------ ----- --- ---- ------- -- ---- --- --<br>------- ------,209226.35000012815,209225.4800000228,208197.45,208197.54000008106,208214.116,209230.535,,26,bonds'
screen,html.Screen,1_1_1_1_27,2021-04-25T21:42:35.841Z,,,,,,,,,,,,,,,,54,,,,,,,,,,,,,,696.9850003758038,,response,,,,100,,,,,,,Space,keypress(Space),,,,,,,,-- --- ---- --- ------ ----- ------- ---- -- --- ------- --<br>------- ---------- ------ -- ----- -- ----- -- ---- ------<br>--- ----- --- --- ------ interest ----- --- ------ ----- --<br>----- ----- ---------- --- --- ------ ------ ---- -- ------<br>------- --- ------ ----- --- ---- ------- -- ---- --- --<br>------- ------,209928.36000025272,209927.5200003758,209214.216,209226.5550000593,209230.535,209930.488,,27,interest
screen,html.Screen,1_1_1_1_28,2021-04-25T21:42:36.738Z,,,,,,,,,,,,,,,,54,,,,,,,,,,,,,,894.4270002375124,,response,,,,100,,,,,,,Space,keypress(Space),,,,,,,,-- --- ---- --- ------ ----- ------- ---- -- --- ------- --<br>------- ---------- ------ -- ----- -- ----- -- ---- ------<br>--- ----- --- --- ------ -------- rate. --- ------ ----- --<br>----- ----- ---------- --- --- ------ ------ ---- -- ------<br>------- --- ------ ----- --- ---- ------- -- ---- --- --<br>------- ------,210825.79499995336,210824.91500023752,209913.79,209928.56500018388,209930.488,210830.311,,28,rate.
screen,html.Screen,1_1_1_1_29,2021-04-25T21:42:37.206Z,,,,,,,,,,,,,,,,54,,,,,,,,,,,,,,461.804000076605,,response,,,,100,,,,,,,Space,keypress(Space),,,,,,,,-- --- ---- --- ------ ----- ------- ---- -- --- ------- --<br>------- ---------- ------ -- ----- -- ----- -- ---- ------<br>--- ----- --- --- ------ -------- ----- The ------ ----- --<br>----- ----- ---------- --- --- ------ ------ ---- -- ------<br>------- --- ------ ----- --- ---- ------- -- ---- --- --<br>------- ------,211292.9750001058,211292.1150000766,210813.916,210825.98500000313,210830.311,211296.931,,29,The
screen,html.Screen,1_1_1_1_30,2021-04-25T21:42:37.716Z,,,,,,,,,,,,,,,,54,,,,,,,,,,,,,,505.8540002981608,,response,,,,100,,,,,,,Space,keypress(Space),,,,,,,,-- --- ---- --- ------ ----- ------- ---- -- --- ------- --<br>------- ---------- ------ -- ----- -- ----- -- ---- ------<br>--- ----- --- --- ------ -------- ----- --- market ----- --<br>----- ----- ---------- --- --- ------ ------ ---- -- ------<br>------- --- ------ ----- --- ---- ------- -- ---- --- --<br>------- ------,211803.6250001751,211802.78500029817,211280.566,211293.15500007942,211296.931,211813.674,,30,market
screen,html.Screen,1_1_1_1_31,2021-04-25T21:42:38.233Z,,,,,,,,,,,,,,,,54,,,,,,,,,,,,,,505.9460001984844,,response,,,,100,,,,,,,Space,keypress(Space),,,,,,,,-- --- ---- --- ------ ----- ------- ---- -- --- ------- --<br>------- ---------- ------ -- ----- -- ----- -- ---- ------<br>--- ----- --- --- ------ -------- ----- --- ------ value --<br>----- ----- ---------- --- --- ------ ------ ---- -- ------<br>------- --- ------ ----- --- ---- ------- -- ---- --- --<br>------- ------,212320.47000015154,212319.62000019848,211797.141,211803.81500022486,211813.674,212330.246,,31,value
screen,html.Screen,1_1_1_1_32,2021-04-25T21:42:38.735Z,,,,,,,,,,,,,,,,54,,,,,,,,,,,,,,491.6490000591439,,response,,,,100,,,,,,,Space,keypress(Space),,,,,,,,-- --- ---- --- ------ ----- ------- ---- -- --- ------- --<br>------- ---------- ------ -- ----- -- ----- -- ---- ------<br>--- ----- --- --- ------ -------- ----- --- ------ ----- of<br>----- ----- ---------- --- --- ------ ------ ---- -- ------<br>------- --- ------ ----- --- ---- ------- -- ---- --- --<br>------- ------,212822.7650001645,212821.89500005916,212313.623,212320.65500039607,212330.246,212830.128,,32,of
screen,html.Screen,1_1_1_1_33,2021-04-25T21:42:39.360Z,,,,,,,,,,,,,,,,54,,,,,,,,,,,,,,616.9020003886253,,response,,,,100,,,,,,,Space,keypress(Space),,,,,,,,-- --- ---- --- ------ ----- ------- ---- -- --- ------- --<br>------- ---------- ------ -- ----- -- ----- -- ---- ------<br>--- ----- --- --- ------ -------- ----- --- ------ ----- --<br>these ----- ---------- --- --- ------ ------ ---- -- ------<br>------- --- ------ ----- --- ---- ------- -- ---- --- --<br>------- ------,213447.86499999464,213447.03000038862,212813.869,212822.9400003329,212830.128,213463.764,,33,these
screen,html.Screen,1_1_1_1_34,2021-04-25T21:42:40.047Z,,,,,,,,,,,,,,,,54,,,,,,,,,,,,,,669.2810000241443,,response,,,,100,,,,,,,Space,keypress(Space),,,,,,,,-- --- ---- --- ------ ----- ------- ---- -- --- ------- --<br>------- ---------- ------ -- ----- -- ----- -- ---- ------<br>--- ----- --- --- ------ -------- ----- --- ------ ----- --<br>----- bonds ---------- --- --- ------ ------ ---- -- ------<br>------- --- ------ ----- --- ---- ------- -- ---- --- --<br>------- ------,214133.93500028178,214133.04500002414,213446.949,213448.04499996826,213463.764,214146.667,,34,bonds
screen,html.Screen,1_1_1_1_35,2021-04-25T21:42:41.012Z,,,,,,,,,,,,,,,,54,,,,,,,,,,,,,,952.1030000405444,,response,,,,100,,,,,,,Space,keypress(Space),,,,,,,,"-- --- ---- --- ------ ----- ------- ---- -- --- ------- --<br>------- ---------- ------ -- ----- -- ----- -- ---- ------<br>--- ----- --- --- ------ -------- ----- --- ------ ----- --<br>----- ----- plummeted, --- --- ------ ------ ---- -- ------<br>------- --- ------ ----- --- ---- ------- -- ---- --- --<br>------- ------",215099.63000006974,215098.77000004053,214129.961,214135.00000024214,214146.667,215113.492,,35,"plummeted,"
screen,html.Screen,1_1_1_1_36,2021-04-25T21:42:41.753Z,,,,,,,,,,,,,,,,54,,,,,,,,,,,,,,725.9930003533082,,response,,,,100,,,,,,,Space,keypress(Space),,,,,,,,-- --- ---- --- ------ ----- ------- ---- -- --- ------- --<br>------- ---------- ------ -- ----- -- ----- -- ---- ------<br>--- ----- --- --- ------ -------- ----- --- ------ ----- --<br>----- ----- ---------- and --- ------ ------ ---- -- ------<br>------- --- ------ ----- --- ---- ------- -- ---- --- --<br>------- ------,215840.33000003546,215839.4850003533,215096.5,215099.81500031427,215113.492,215846.391,,36,and
screen,html.Screen,1_1_1_1_37,2021-04-25T21:42:42.288Z,,,,,,,,,,,,,,,,54,,,,,,,,,,,,,,528.2690002050367,,response,,,,100,,,,,,,Space,keypress(Space),,,,,,,,-- --- ---- --- ------ ----- ------- ---- -- --- ------- --<br>------- ---------- ------ -- ----- -- ----- -- ---- ------<br>--- ----- --- --- ------ -------- ----- --- ------ ----- --<br>----- ----- ---------- --- the ------ ------ ---- -- ------<br>------- --- ------ ----- --- ---- ------- -- ---- --- --<br>------- ------,216375.50000008196,216374.66000020504,215829.769,215840.5100000091,215846.391,216379.693,,37,the
screen,html.Screen,1_1_1_1_38,2021-04-25T21:42:43.036Z,,,,,,,,,,,,,,,,54,,,,,,,,,,,,,,742.5970003194816,,response,,,,100,,,,,,,Space,keypress(Space),,,,,,,,-- --- ---- --- ------ ----- ------- ---- -- --- ------- --<br>------- ---------- ------ -- ----- -- ----- -- ---- ------<br>--- ----- --- --- ------ -------- ----- --- ------ ----- --<br>----- ----- ---------- --- --- market ------ ---- -- ------<br>------- --- ------ ----- --- ---- ------- -- ---- --- --<br>------- ------,217123.15999995917,217122.29000031948,216362.944,216375.68500032648,216379.693,217129.729,,38,market
screen,html.Screen,1_1_1_1_39,2021-04-25T21:42:44.830Z,,,,,,,,,,,,,,,,54,,,,,,,,,,,,,,1787.2760001703282,,response,,,,100,,,,,,,Space,keypress(Space),,,,,,,,-- --- ---- --- ------ ----- ------- ---- -- --- ------- --<br>------- ---------- ------ -- ----- -- ----- -- ---- ------<br>--- ----- --- --- ------ -------- ----- --- ------ ----- --<br>----- ----- ---------- --- --- ------ became ---- -- ------<br>------- --- ------ ----- --- ---- ------- -- ---- --- --<br>------- ------,218917.9000002332,218917.00500017032,217113.194,217123.35000000894,217129.729,218929.575,,39,became
screen,html.Screen,1_1_1_1_40,2021-04-25T21:42:45.593Z,,,,,,,,,,,,,,,,54,,,,,,,,,,,,,,750.3349999479833,,response,,,,100,,,,,,,Space,keypress(Space),,,,,,,,-- --- ---- --- ------ ----- ------- ---- -- --- ------- --<br>------- ---------- ------ -- ----- -- ----- -- ---- ------<br>--- ----- --- --- ------ -------- ----- --- ------ ----- --<br>----- ----- ---------- --- --- ------ ------ wary -- ------<br>------- --- ------ ----- --- ---- ------- -- ---- --- --<br>------- ------,219680.80000020564,219679.909999948,218913.053,218918.21500007063,218929.575,219695.997,,40,wary
screen,html.Screen,1_1_1_1_41,2021-04-25T21:42:46.417Z,,,,,,,,,,,,,,,,54,,,,,,,,,,,,,,807.6029999381572,,response,,,,100,,,,,,,Space,keypress(Space),,,,,,,,-- --- ---- --- ------ ----- ------- ---- -- --- ------- --<br>------- ---------- ------ -- ----- -- ----- -- ---- ------<br>--- ----- --- --- ------ -------- ----- --- ------ ----- --<br>----- ----- ---------- --- --- ------ ------ ---- of ------<br>------- --- ------ ----- --- ---- ------- -- ---- --- --<br>------- ------,220504.44500008598,220503.59999993816,219679.285,219680.9900002554,219695.997,220512.874,,41,of
screen,html.Screen,1_1_1_1_42,2021-04-25T21:42:47.278Z,,,,,,,,,,,,,,,,54,,,,,,,,,,,,,,851.2709999995423,,response,,,,100,,,,,,,Space,keypress(Space),,,,,,,,-- --- ---- --- ------ ----- ------- ---- -- --- ------- --<br>------- ---------- ------ -- ----- -- ----- -- ---- ------<br>--- ----- --- --- ------ -------- ----- --- ------ ----- --<br>----- ----- ---------- --- --- ------ ------ ---- -- French<br>------- --- ------ ----- --- ---- ------- -- ---- --- --<br>------- ------,221365.0200003758,221364.14499999955,220495.946,220504.6250000596,220512.874,221379.132,,42,French
screen,html.Screen,1_1_1_1_43,2021-04-25T21:42:48.384Z,,,,,,,,,,,,,,,,54,,,,,,,,,,,,,,1091.3130001008685,,response,,,,100,,,,,,,Space,keypress(Space),,,,,,,,-- --- ---- --- ------ ----- ------- ---- -- --- ------- --<br>------- ---------- ------ -- ----- -- ----- -- ---- ------<br>--- ----- --- --- ------ -------- ----- --- ------ ----- --<br>----- ----- ---------- --- --- ------ ------ ---- -- ------<br>credit. --- ------ ----- --- ---- ------- -- ---- --- --<br>------- ------,222471.30999993533,222470.44500010088,221362.29,221365.20000034943,221379.132,222479.032,,43,credit.
screen,html.Screen,1_1_1_1_44,2021-04-25T21:42:48.799Z,,,,,,,,,,,,,,,,54,,,,,,,,,,,,,,406.1179999873275,,response,,,,100,,,,,,,Space,keypress(Space),,,,,,,,-- --- ---- --- ------ ----- ------- ---- -- --- ------- --<br>------- ---------- ------ -- ----- -- ----- -- ---- ------<br>--- ----- --- --- ------ -------- ----- --- ------ ----- --<br>----- ----- ---------- --- --- ------ ------ ---- -- ------<br>------- The ------ ----- --- ---- ------- -- ---- --- --<br>------- ------,222886.76000013947,222885.14999998733,222462.529,222471.49500017986,222479.032,222895.868,,44,The
screen,html.Screen,1_1_1_1_45,2021-04-25T21:42:49.244Z,,,,,,,,,,,,,,,,54,,,,,,,,,,,,,,434.3120000481431,,response,,,,100,,,,,,,Space,keypress(Space),,,,,,,,-- --- ---- --- ------ ----- ------- ---- -- --- ------- --<br>------- ---------- ------ -- ----- -- ----- -- ---- ------<br>--- ----- --- --- ------ -------- ----- --- ------ ----- --<br>----- ----- ---------- --- --- ------ ------ ---- -- ------<br>------- --- French ----- --- ---- ------- -- ---- --- --<br>------- ------,223331.04500034824,223330.18000004813,222878.788,222886.9549999945,222895.868,223345.891,,45,French
screen,html.Screen,1_1_1_1_46,2021-04-25T21:42:49.742Z,,,,,,,,,,,,,,,,54,,,,,,,,,,,,,,482.35399998241337,,response,,,,100,,,,,,,Space,keypress(Space),,,,,,,,-- --- ---- --- ------ ----- ------- ---- -- --- ------- --<br>------- ---------- ------ -- ----- -- ----- -- ---- ------<br>--- ----- --- --- ------ -------- ----- --- ------ ----- --<br>----- ----- ---------- --- --- ------ ------ ---- -- ------<br>------- --- ------ state --- ---- ------- -- ---- --- --<br>------- ------,223829.10000020638,223828.24499998242,223328.787,223331.2300001271,223345.891,223845.92,,46,state
screen,html.Screen,1_1_1_1_47,2021-04-25T21:42:50.550Z,,,,,,,,,,,,,,,,54,,,,,,,,,,,,,,790.8449999447039,,response,,,,100,,,,,,,Space,keypress(Space),,,,,,,,-- --- ---- --- ------ ----- ------- ---- -- --- ------- --<br>------- ---------- ------ -- ----- -- ----- -- ---- ------<br>--- ----- --- --- ------ -------- ----- --- ------ ----- --<br>----- ----- ---------- --- --- ------ ------ ---- -- ------<br>------- --- ------ ----- was ---- ------- -- ---- --- --<br>------- ------,224637.6600000076,224636.76499994472,223828.81,223829.28499998525,223845.92,224645.36,,47,was
screen,html.Screen,1_1_1_1_48,2021-04-25T21:42:51.152Z,,,,,,,,,,,,,,,,54,,,,,,,,,,,,,,592.9100000889739,,response,,,,100,,,,,,,Space,keypress(Space),,,,,,,,-- --- ---- --- ------ ----- ------- ---- -- --- ------- --<br>------- ---------- ------ -- ----- -- ----- -- ---- ------<br>--- ----- --- --- ------ -------- ----- --- ------ ----- --<br>----- ----- ---------- --- --- ------ ------ ---- -- ------<br>------- --- ------ ----- --- left ------- -- ---- --- --<br>------- ------,225239.16999995708,225238.27000008896,224628.9,224637.83999998122,224645.36,225245.298,,48,left
screen,html.Screen,1_1_1_1_49,2021-04-25T21:42:51.601Z,,,,,,,,,,,,,,,,54,,,,,,,,,,,,,,442.5870003704331,,response,,,,100,,,,,,,Space,keypress(Space),,,,,,,,-- --- ---- --- ------ ----- ------- ---- -- --- ------- --<br>------- ---------- ------ -- ----- -- ----- -- ---- ------<br>--- ----- --- --- ------ -------- ----- --- ------ ----- --<br>----- ----- ---------- --- --- ------ ------ ---- -- ------<br>------- --- ------ ----- --- ---- without -- ---- --- --<br>------- ------,225688.59999999404,225687.88500037044,225228.568,225239.3550002016,225245.298,225695.67,,49,without
screen,html.Screen,1_1_1_1_50,2021-04-25T21:42:52.026Z,,,,,,,,,,,,,,,,54,,,,,,,,,,,,,,417.21500018416555,,response,,,,100,,,,,,,Space,keypress(Space),,,,,,,,-- --- ---- --- ------ ----- ------- ---- -- --- ------- --<br>------- ---------- ------ -- ----- -- ----- -- ---- ------<br>--- ----- --- --- ------ -------- ----- --- ------ ----- --<br>----- ----- ---------- --- --- ------ ------ ---- -- ------<br>------- --- ------ ----- --- ---- ------- an ---- --- --<br>------- ------,226113.73999994248,226112.88500018418,225678.703,225688.77500016242,225695.67,226128.693,,50,an
screen,html.Screen,1_1_1_1_51,2021-04-25T21:42:52.403Z,,,,,,,,,,,,,,,,54,,,,,,,,,,,,,,361.00700026747654,,response,,,,100,,,,,,,Space,keypress(Space),,,,,,,,-- --- ---- --- ------ ----- ------- ---- -- --- ------- --<br>------- ---------- ------ -- ----- -- ----- -- ---- ------<br>--- ----- --- --- ------ -------- ----- --- ------ ----- --<br>----- ----- ---------- --- --- ------ ------ ---- -- ------<br>------- --- ------ ----- --- ---- ------- -- easy --- --<br>------- ------,226490.57000037283,226489.70000026748,226111.992,226113.92999999225,226128.693,226494.991,,51,easy
screen,html.Screen,1_1_1_1_52,2021-04-25T21:42:52.736Z,,,,,,,,,,,,,,,,54,,,,,,,,,,,,,,327.9090000283031,,response,,,,100,,,,,,,Space,keypress(Space),,,,,,,,-- --- ---- --- ------ ----- ------- ---- -- --- ------- --<br>------- ---------- ------ -- ----- -- ----- -- ---- ------<br>--- ----- --- --- ------ -------- ----- --- ------ ----- --<br>----- ----- ---------- --- --- ------ ------ ---- -- ------<br>------- --- ------ ----- --- ---- ------- -- ---- way --<br>------- ------,226823.77000013366,226822.9000000283,226478.363,226490.7550001517,226494.991,226828.266,,52,way
screen,html.Screen,1_1_1_1_53,2021-04-25T21:42:53.198Z,,,,,,,,,,,,,,,,54,,,,,,,,,,,,,,456.70900019147666,,response,,,,100,,,,,,,Space,keypress(Space),,,,,,,,-- --- ---- --- ------ ----- ------- ---- -- --- ------- --<br>------- ---------- ------ -- ----- -- ----- -- ---- ------<br>--- ----- --- --- ------ -------- ----- --- ------ ----- --<br>----- ----- ---------- --- --- ------ ------ ---- -- ------<br>------- --- ------ ----- --- ---- ------- -- ---- --- of<br>------- ------,227285.8350002207,227284.97500019148,226811.859,226823.96000018343,226828.266,227295.047,,53,of
screen,html.Screen,1_1_1_1_54,2021-04-25T21:42:53.542Z,,,,,,,,,,,,,,,,54,,,,,,,,,,,,,,333.23300029549864,,response,,,,100,,,,,,,Space,keypress(Space),,,,,,,,-- --- ---- --- ------ ----- ------- ---- -- --- ------- --<br>------- ---------- ------ -- ----- -- ----- -- ---- ------<br>--- ----- --- --- ------ -------- ----- --- ------ ----- --<br>----- ----- ---------- --- --- ------ ------ ---- -- ------<br>------- --- ------ ----- --- ---- ------- -- ---- --- --<br>raising ------,227629.18000016361,227628.2800002955,227278.466,227286.0150001943,227295.047,227645.336,,54,raising
screen,html.Screen,1_1_1_1_55,2021-04-25T21:42:54.022Z,,,,,,,,,,,,,,,,54,,,,,,,,,,,,,,462.92400012456346,,response,,,,100,,,,,,,Space,keypress(Space),,,,,,,,-- --- ---- --- ------ ----- ------- ---- -- --- ------- --<br>------- ---------- ------ -- ----- -- ----- -- ---- ------<br>--- ----- --- --- ------ -------- ----- --- ------ ----- --<br>----- ----- ---------- --- --- ------ ------ ---- -- ------<br>------- --- ------ ----- --- ---- ------- -- ---- --- --<br>------- money.,228109.12000015378,228108.26000012457,227628.547,227629.4100000523,227645.336,228111.447,,55,money.
Item 100,flow.Loop,1_1_1_1,2021-04-25T21:42:54.022Z,,,,,,,,,,,,,,,,,,,,,,,,,,,,,,34958.46700012457,,completion,,,,,C,,,,,,,,,,,silence,,,,,228109.4550001435,228108.26000012457,193132.708,193134.1300001368,193149.793,228111.447,,,
Question 1,html.Screen,1_1_1_2,2021-04-25T21:42:57.536Z,,,,,,,,,,,,,,,,,,,,,,,,,,,true,TRUE,,3510.8279999724473,,response,,,,100,C,,,,,,TRUE,click #choice-1,,,,silence,,,,,231623.50500002503,231622.27499997243,228095.21,228109.60000008345,228111.447,231627.726,,,
Question 2,html.Screen,1_1_1_3,2021-04-25T21:43:00.692Z,,,,,,,,,,,,,,,,,,,,,,,,,,,false,FALSE,,3150.4840001350094,,response,,,,100,C,,,,,,TRUE,click #choice-1,,,,silence,,,,,234779.69500003383,234778.210000135,231611.369,231623.68499999866,231627.726,234793.972,,,
Item 100,flow.Sequence,1_1_1,2021-04-25T21:43:00.693Z,,,,,,,,,,,,,,,,,,,,,,,,,,,,,,51627.58200013501,,completion,,,,,,,,,,,,,,,,,,,,,234779.97000003234,234778.210000135,183134.425,183144.62999999523,183150.628,234793.972,,,
End of Practice,html.Page,1_1_2,2021-04-25T21:43:07.364Z,,,,,,,,,,,,,,,,,,,,,,,,,,,,,,6657.148000332585,,form submission,,,,,,,,,,,,,,,,,,,,,241451.4700002037,241451.1200003326,234777.33,234780.15000000596,234793.972,241460.158,,,
Practice,flow.Sequence,1_1,2021-04-25T21:43:07.364Z,,,,,,,,,,,,,,,,,,,,,,,,,,,,,,115993.1550003326,,completion,,,,,,,,,,,,,,,,,,,,,241451.7650003545,241451.1200003326,125441.652,125459.89500032738,125457.965,241460.158,,,
Trap_instruction,html.Page,1_2_0,2021-04-25T21:43:11.777Z,,,,,,,,,,,,,,,,,,,,,,,,,,,,,,4403.9770003890735,,form submission,,,,,,,,,,,,,,,,,,,,,245864.4449999556,245864.13500038907,241443.472,241451.9200003706,241460.158,245875.89,,,
trap_trial,html.Screen,1_2_1,2021-04-25T21:43:17.361Z,,,,,,,,,,,,,,,,,,,,,,,,,,,true,1,,5570.580000315444,,response,,,,,,,,,,,1,click #choice-1,,,,,,,,,251448.7350001,251446.47000031546,245859.361,245864.59500016645,245875.89,251458.507,,,
end of trap trial,html.Page,1_2_2,2021-04-25T21:43:20.128Z,,,,,,,,,,,,,,,,,,,,,,,,,,,,,,2756.2080002419825,,form submission,,,,,,,,,,,,,,,,,,,,,254215.05500003695,254214.715000242,251441.912,251448.92500014976,251458.507,254224.869,,,
Trap 1,flow.Sequence,1_2,2021-04-25T21:43:20.128Z,,,,,,,,,,,,,,,,,,,,,,,,,,,,,,12754.557000241999,,completion,,,,,,,,,,,,,,,,,,,,,254215.31500015408,254214.715000242,241443.472,241451.86999998987,241460.158,254224.869,,,
Standby,html.Page,1_3_0,2021-04-25T21:43:28.121Z,,,,,,,,,,,,,,,,,,,,,,,,,,,,,,7998.849999999977,,timeout,,,,,,,,,,,,,,,,,,,,,262208.44000019133,262207.459,254208.145,254215.4749999754,254224.869,262223.719,,,
Holding screen,html.Screen,1_3_1_0_0,2021-04-25T21:43:35.120Z,,,,,,,,,,,,,,,,,,,,,,,,,,,,,,6999.6110000000335,,timeout,,,,,,,,,,,,,,,,,,,,,269207.31500023976,269206.452,262207.459,262208.7700003758,262223.719,269223.33,,,
screen,html.Screen,1_3_1_0_1_0,2021-04-25T21:43:35.668Z,,,,,,,,,,,,,,,,11,,,,,,,,,,,,,,530.3750000391738,,response,,,,4,C,,,,,,Space,keypress(Space),,,,instrumental,,,,Known -- ---- --- -- --- -------- ------------ ---------- --<br>- ------- ------ --------- -- ------------ -- --- ---- -----<br>------ ---- ---- ------ ------ ------- --- ----- ---------<br>---- --- -------- -------- --- --- -- ------- --- --- -----<br>-- --- ------ ------- --- --- -------- ---- --------- --<br>---------- -- -------- ----------------,269754.77500027046,269753.7050000392,269206.452,269207.62500027195,269223.33,269756.135,,0,Known
screen,html.Screen,1_3_1_0_1_1,2021-04-25T21:43:36.278Z,,,,,,,,,,,,,,,,11,,,,,,,,,,,,,,607.9800002367701,,response,,,,4,C,,,,,,Space,keypress(Space),,,,instrumental,,,,----- as ---- --- -- --- -------- ------------ ---------- --<br>- ------- ------ --------- -- ------------ -- --- ---- -----<br>------ ---- ---- ------ ------ ------- --- ----- ---------<br>---- --- -------- -------- --- --- -- ------- --- --- -----<br>-- --- ------ ------- --- --- -------- ---- --------- --<br>---------- -- -------- ----------------,270364.9800000712,270364.1150002368,269739.496,269755.0000003539,269756.135,270372.887,,1,as
screen,html.Screen,1_3_1_0_1_2,2021-04-25T21:43:36.924Z,,,,,,,,,,,,,,,,11,,,,,,,,,,,,,,637.0830000137212,,response,,,,4,C,,,,,,Space,keypress(Space),,,,instrumental,,,,----- -- Rapa --- -- --- -------- ------------ ---------- --<br>- ------- ------ --------- -- ------------ -- --- ---- -----<br>------ ---- ---- ------ ------ ------- --- ----- ---------<br>---- --- -------- -------- --- --- -- ------- --- --- -----<br>-- --- ------ ------- --- --- -------- ---- --------- --<br>---------- -- -------- ----------------,271010.76500024647,271009.9700000137,270356.286,270365.170000121,270372.887,271022.659,,2,Rapa
screen,html.Screen,1_3_1_0_1_3,2021-04-25T21:43:37.574Z,,,,,,,,,,,,,,,,11,,,,,,,,,,,,,,638.0560002382845,,response,,,,4,C,,,,,,Space,keypress(Space),,,,instrumental,,,,----- -- ---- Nui -- --- -------- ------------ ---------- --<br>- ------- ------ --------- -- ------------ -- --- ---- -----<br>------ ---- ---- ------ ------ ------- --- ----- ---------<br>---- --- -------- -------- --- --- -- ------- --- --- -----<br>-- --- ------ ------- --- --- -------- ---- --------- --<br>---------- -- -------- ----------------,271661.5850003436,271660.71500023827,271005.967,271010.95500029624,271022.659,271672.656,,3,Nui
screen,html.Screen,1_3_1_0_1_4,2021-04-25T21:43:38.263Z,,,,,,,,,,,,,,,,11,,,,,,,,,,,,,,676.6790003845817,,response,,,,4,C,,,,,,Space,keypress(Space),,,,instrumental,,,,----- -- ---- --- to --- -------- ------------ ---------- --<br>- ------- ------ --------- -- ------------ -- --- ---- -----<br>------ ---- ---- ------ ------ ------- --- ----- ---------<br>---- --- -------- -------- --- --- -- ------- --- --- -----<br>-- --- ------ ------- --- --- -------- ---- --------- --<br>---------- -- -------- ----------------,272350.1699999906,272349.3350003846,271655.87,271661.76500031725,271672.656,272355.787,,4,to
screen,html.Screen,1_3_1_0_1_5,2021-04-25T21:43:38.866Z,,,,,,,,,,,,,,,,11,,,,,,,,,,,,,,596.2380000059493,,response,,,,4,C,,,,,,Space,keypress(Space),,,,instrumental,,,,----- -- ---- --- -- the -------- ------------ ---------- --<br>- ------- ------ --------- -- ------------ -- --- ---- -----<br>------ ---- ---- ------ ------ ------- --- ----- ---------<br>---- --- -------- -------- --- --- -- ------- --- --- -----<br>-- --- ------ ------- --- --- -------- ---- --------- --<br>---------- -- -------- ----------------,272953.20000033826,272952.02500000596,272339.485,272350.35500023514,272355.787,272955.704,,5,the
screen,html.Screen,1_3_1_0_1_6,2021-04-25T21:43:39.442Z,,,,,,,,,,,,,,,,11,,,,,,,,,,,,,,573.0210000983207,,response,,,,4,C,,,,,,Space,keypress(Space),,,,instrumental,,,,----- -- ---- --- -- --- island's ------------ ---------- --<br>- ------- ------ --------- -- ------------ -- --- ---- -----<br>------ ---- ---- ------ ------ ------- --- ----- ---------<br>---- --- -------- -------- --- --- -- ------- --- --- -----<br>-- --- ------ ------- --- --- -------- ---- --------- --<br>---------- -- -------- ----------------,273529.5750000514,273528.72500009835,272939.324,272953.45000037923,272955.704,273539.479,,6,island's
screen,html.Screen,1_3_1_0_1_7,2021-04-25T21:43:40.156Z,,,,,,,,,,,,,,,,11,,,,,,,,,,,,,,702.7010000593145,,response,,,,4,C,,,,,,Space,keypress(Space),,,,instrumental,,,,"----- -- ---- --- -- --- -------- inhabitants, ---------- --<br>- ------- ------ --------- -- ------------ -- --- ---- -----<br>------ ---- ---- ------ ------ ------- --- ----- ---------<br>---- --- -------- -------- --- --- -- ------- --- --- -----<br>-- --- ------ ------- --- --- -------- ---- --------- --<br>---------- -- -------- ----------------",274243.015000131,274242.1800000593,273522.544,273529.76000029594,273539.479,274255.727,,7,"inhabitants,"
screen,html.Screen,1_3_1_0_1_8,2021-04-25T21:43:41.241Z,,,,,,,,,,,,,,,,11,,,,,,,,,,,,,,1071.2730000484153,,response,,,,4,C,,,,,,Space,keypress(Space),,,,instrumental,,,,----- -- ---- --- -- --- -------- ------------ Rongorongo --<br>- ------- ------ --------- -- ------------ -- --- ---- -----<br>------ ---- ---- ------ ------ ------- --- ----- ---------<br>---- --- -------- -------- --- --- -- ------- --- --- -----<br>-- --- ------ ------- --- --- -------- ---- --------- --<br>---------- -- -------- ----------------,275328.1300002709,275327.0000000484,274239.211,274243.1950001046,274255.727,275338.858,,8,Rongorongo
screen,html.Screen,1_3_1_0_1_9,2021-04-25T21:43:41.791Z,,,,,,,,,,,,,,,,11,,,,,,,,,,,,,,538.3370001828298,,response,,,,4,C,,,,,,Space,keypress(Space),,,,instrumental,,,,----- -- ---- --- -- --- -------- ------------ ---------- is<br>- ------- ------ --------- -- ------------ -- --- ---- -----<br>------ ---- ---- ------ ------ ------- --- ----- ---------<br>---- --- -------- -------- --- --- -- ------- --- --- -----<br>-- --- ------ ------- --- --- -------- ---- --------- --<br>---------- -- -------- ----------------,275878.0650002882,275877.19500018284,275322.416,275328.3250001259,275338.858,275888.916,,9,is
screen,html.Screen,1_3_1_0_1_10,2021-04-25T21:43:42.449Z,,,,,,,,,,,,,,,,11,,,,,,,,,,,,,,646.2840002748999,,response,,,,4,C,,,,,,Space,keypress(Space),,,,instrumental,,,,----- -- ---- --- -- --- -------- ------------ ---------- --<br>a ------- ------ --------- -- ------------ -- --- ---- -----<br>------ ---- ---- ------ ------ ------- --- ----- ---------<br>---- --- -------- -------- --- --- -- ------- --- --- -----<br>-- --- ------ ------- --- --- -------- ---- --------- --<br>---------- -- -------- ----------------,276536.0750001855,276535.2000002749,275872.419,275878.2450002618,275888.916,276538.58,,10,a
screen,html.Screen,1_3_1_0_1_11,2021-04-25T21:43:43.378Z,,,,,,,,,,,,,,,,11,,,,,,,,,,,,,,925.3250001278357,,response,,,,4,C,,,,,,Space,keypress(Space),,,,instrumental,,,,----- -- ---- --- -- --- -------- ------------ ---------- --<br>- writing ------ --------- -- ------------ -- --- ---- -----<br>------ ---- ---- ------ ------ ------- --- ----- ---------<br>---- --- -------- -------- --- --- -- ------- --- --- -----<br>-- --- ------ ------- --- --- -------- ---- --------- --<br>---------- -- -------- ----------------,277464.7900001146,277463.90500012785,276522.161,276536.2599999644,276538.58,277471.995,,11,writing
screen,html.Screen,1_3_1_0_1_12,2021-04-25T21:43:44.202Z,,,,,,,,,,,,,,,,11,,,,,,,,,,,,,,816.1850001487182,,response,,,,4,C,,,,,,Space,keypress(Space),,,,instrumental,,,,----- -- ---- --- -- --- -------- ------------ ---------- --<br>- ------- system --------- -- ------------ -- --- ---- -----<br>------ ---- ---- ------ ------ ------- --- ----- ---------<br>---- --- -------- -------- --- --- -- ------- --- --- -----<br>-- --- ------ ------- --- --- -------- ---- --------- --<br>---------- -- -------- ----------------,278289.0550000593,278288.1800001487,277455.368,277464.9750003591,277471.995,278305.401,,12,system
screen,html.Screen,1_3_1_0_1_13,2021-04-25T21:43:45.675Z,,,,,,,,,,,,,,,,11,,,,,,,,,,,,,,1456.3590001394623,,response,,,,4,C,,,,,,Space,keypress(Space),,,,instrumental,,,,----- -- ---- --- -- --- -------- ------------ ---------- --<br>- ------- ------ comprised -- ------------ -- --- ---- -----<br>------ ---- ---- ------ ------ ------- --- ----- ---------<br>---- --- -------- -------- --- --- -- ------- --- --- -----<br>-- --- ------ ------- --- --- -------- ---- --------- --<br>---------- -- -------- ----------------,279762.6450001262,279761.7600001395,278288.618,278289.2450001091,278305.401,279771.618,,13,comprised
screen,html.Screen,1_3_1_0_1_14,2021-04-25T21:43:46.379Z,,,,,,,,,,,,,,,,11,,,,,,,,,,,,,,694.2170003883075,,response,,,,4,C,,,,,,Space,keypress(Space),,,,instrumental,,,,----- -- ---- --- -- --- -------- ------------ ---------- --<br>- ------- ------ --------- of ------------ -- --- ---- -----<br>------ ---- ---- ------ ------ ------- --- ----- ---------<br>---- --- -------- -------- --- --- -- ------- --- --- -----<br>-- --- ------ ------- --- --- -------- ---- --------- --<br>---------- -- -------- ----------------,280466.705000028,280465.8350003883,279755.061,279762.83000037074,279771.618,280471.424,,14,of
screen,html.Screen,1_3_1_0_1_15,2021-04-25T21:43:47.400Z,,,,,,,,,,,,,,,,11,,,,,,,,,,,,,,1015.3060000041733,,response,,,,4,C,,,,,,Space,keypress(Space),,,,instrumental,,,,----- -- ---- --- -- --- -------- ------------ ---------- --<br>- ------- ------ --------- -- pictographs. -- --- ---- -----<br>------ ---- ---- ------ ------ ------- --- ----- ---------<br>---- --- -------- -------- --- --- -- ------- --- --- -----<br>-- --- ------ ------- --- --- -------- ---- --------- --<br>---------- -- -------- ----------------,281487.57999995723,281486.7300000042,280454.734,280466.8950000778,280471.424,281504.726,,15,pictographs.
screen,html.Screen,1_3_1_0_1_16,2021-04-25T21:43:48.046Z,,,,,,,,,,,,,,,,11,,,,,,,,,,,,,,627.494000028586,,response,,,,4,C,,,,,,Space,keypress(Space),,,,instrumental,,,,----- -- ---- --- -- --- -------- ------------ ---------- --<br>- ------- ------ --------- -- ------------ It --- ---- -----<br>------ ---- ---- ------ ------ ------- --- ----- ---------<br>---- --- -------- -------- --- --- -- ------- --- --- -----<br>-- --- ------ ------- --- --- -------- ---- --------- --<br>---------- -- -------- ----------------,282133.0699999817,282132.2200000286,281488.17,281487.75999993086,281504.726,282137.857,,16,It
screen,html.Screen,1_3_1_0_1_17,2021-04-25T21:43:48.631Z,,,,,,,,,,,,,,,,11,,,,,,,,,,,,,,579.3380000338075,,response,,,,4,C,,,,,,Space,keypress(Space),,,,instrumental,,,,----- -- ---- --- -- --- -------- ------------ ---------- --<br>- ------- ------ --------- -- ------------ -- has ---- -----<br>------ ---- ---- ------ ------ ------- --- ----- ---------<br>---- --- -------- -------- --- --- -- ------- --- --- -----<br>-- --- ------ ------- --- --- -------- ---- --------- --<br>---------- -- -------- ----------------,282718.06000033394,282717.1950000338,282121.567,282133.26000003144,282137.857,282721.163,,17,has
screen,html.Screen,1_3_1_0_1_18,2021-04-25T21:43:49.182Z,,,,,,,,,,,,,,,,11,,,,,,,,,,,,,,547.6820003042812,,response,,,,4,C,,,,,,Space,keypress(Space),,,,instrumental,,,,----- -- ---- --- -- --- -------- ------------ ---------- --<br>- ------- ------ --------- -- ------------ -- --- been -----<br>------ ---- ---- ------ ------ ------- --- ----- ---------<br>---- --- -------- -------- --- --- -- ------- --- --- -----<br>-- --- ------ ------- --- --- -------- ---- --------- --<br>---------- -- -------- ----------------,283269.6450003423,283268.8450003043,282704.441,282718.2450001128,282721.163,283299.123,,18,been
screen,html.Screen,1_3_1_0_1_19,2021-04-25T21:43:49.758Z,,,,,,,,,,,,,,,,11,,,,,,,,,,,,,,545.1320003528381,,response,,,,4,C,,,,,,Space,keypress(Space),,,,instrumental,,,,----- -- ---- --- -- --- -------- ------------ ---------- --<br>- ------- ------ --------- -- ------------ -- --- ---- found<br>------ ---- ---- ------ ------ ------- --- ----- ---------<br>---- --- -------- -------- --- --- -- ------- --- --- -----<br>-- --- ------ ------- --- --- -------- ---- --------- --<br>---------- -- -------- ----------------,283845.12499999255,283844.25500035286,283254.496,283269.820000045,283299.123,283854.456,,19,found
screen,html.Screen,1_3_1_0_1_20,2021-04-25T21:43:50.534Z,,,,,,,,,,,,,,,,11,,,,,,,,,,,,,,765.9590002449695,,response,,,,4,C,,,,,,Space,keypress(Space),,,,instrumental,,,,----- -- ---- --- -- --- -------- ------------ ---------- --<br>- ------- ------ --------- -- ------------ -- --- ---- -----<br>carved ---- ---- ------ ------ ------- --- ----- ---------<br>---- --- -------- -------- --- --- -- ------- --- --- -----<br>-- --- ------ ------- --- --- -------- ---- --------- --<br>---------- -- -------- ----------------,284621.2800000794,284620.415000245,283837.915,283845.3049999662,283854.456,284637.86,,20,carved
screen,html.Screen,1_3_1_0_1_21,2021-04-25T21:43:51.380Z,,,,,,,,,,,,,,,,11,,,,,,,,,,,,,,828.8200000704965,,response,,,,4,C,,,,,,Space,keypress(Space),,,,instrumental,,,,----- -- ---- --- -- --- -------- ------------ ---------- --<br>- ------- ------ --------- -- ------------ -- --- ---- -----<br>------ into ---- ------ ------ ------- --- ----- ---------<br>---- --- -------- -------- --- --- -- ------- --- --- -----<br>-- --- ------ ------- --- --- -------- ---- --------- --<br>---------- -- -------- ----------------,285467.5799999386,285466.6800000705,284620.902,284621.4850000106,284637.86,285470.799,,21,into
screen,html.Screen,1_3_1_0_1_22,2021-04-25T21:43:52.101Z,,,,,,,,,,,,,,,,11,,,,,,,,,,,,,,716.2510002987692,,response,,,,4,C,,,,,,Space,keypress(Space),,,,instrumental,,,,----- -- ---- --- -- --- -------- ------------ ---------- --<br>- ------- ------ --------- -- ------------ -- --- ---- -----<br>------ ---- many ------ ------ ------- --- ----- ---------<br>---- --- -------- -------- --- --- -- ------- --- --- -----<br>-- --- ------ ------- --- --- -------- ---- --------- --<br>---------- -- -------- ----------------,286187.8300001845,286187.05000029877,285454.407,285467.76500018314,285470.799,286204.118,,22,many
screen,html.Screen,1_3_1_0_1_23,2021-04-25T21:43:52.955Z,,,,,,,,,,,,,,,,11,,,,,,,,,,,,,,837.6020000956487,,response,,,,4,C,,,,,,Space,keypress(Space),,,,instrumental,,,,----- -- ---- --- -- --- -------- ------------ ---------- --<br>- ------- ------ --------- -- ------------ -- --- ---- -----<br>------ ---- ---- oblong ------ ------- --- ----- ---------<br>---- --- -------- -------- --- --- -- ------- --- --- -----<br>-- --- ------ ------- --- --- -------- ---- --------- --<br>---------- -- -------- ----------------,287042.57500031963,287041.72000009567,286187.401,286187.98500020057,286204.118,287054.051,,23,oblong
screen,html.Screen,1_3_1_0_1_24,2021-04-25T21:43:53.710Z,,,,,,,,,,,,,,,,11,,,,,,,,,,,,,,742.4740001289174,,response,,,,4,C,,,,,,Space,keypress(Space),,,,instrumental,,,,----- -- ---- --- -- --- -------- ------------ ---------- --<br>- ------- ------ --------- -- ------------ -- --- ---- -----<br>------ ---- ---- ------ wooden ------- --- ----- ---------<br>---- --- -------- -------- --- --- -- ------- --- --- -----<br>-- --- ------ ------- --- --- -------- ---- --------- --<br>---------- -- -------- ----------------,287797.4849999882,287796.5250001289,287037.467,287042.7600000985,287054.051,287804.084,,24,wooden
screen,html.Screen,1_3_1_0_1_25,2021-04-25T21:43:54.338Z,,,,,,,,,,,,,,,,11,,,,,,,,,,,,,,620.0159999456373,,response,,,,4,C,,,,,,Space,keypress(Space),,,,instrumental,,,,----- -- ---- --- -- --- -------- ------------ ---------- --<br>- ------- ------ --------- -- ------------ -- --- ---- -----<br>------ ---- ---- ------ ------ tablets --- ----- ---------<br>---- --- -------- -------- --- --- -- ------- --- --- -----<br>-- --- ------ ------- --- --- -------- ---- --------- --<br>---------- -- -------- ----------------,288424.9350000173,288424.0999999456,287787.531,287797.6800003089,287804.084,288437.622,,25,tablets
screen,html.Screen,1_3_1_0_1_26,2021-04-25T21:43:54.980Z,,,,,,,,,,,,,,,,11,,,,,,,,,,,,,,628.5280003189109,,response,,,,4,C,,,,,,Space,keypress(Space),,,,instrumental,,,,----- -- ---- --- -- --- -------- ------------ ---------- --<br>- ------- ------ --------- -- ------------ -- --- ---- -----<br>------ ---- ---- ------ ------ ------- and ----- ---------<br>---- --- -------- -------- --- --- -- ------- --- --- -----<br>-- --- ------ ------- --- --- -------- ---- --------- --<br>---------- -- -------- ----------------,289067.0250002295,289066.1500003189,288420.473,288425.11000018567,288437.622,289070.444,,26,and
screen,html.Screen,1_3_1_0_1_27,2021-04-25T21:43:55.592Z,,,,,,,,,,,,,,,,11,,,,,,,,,,,,,,607.9260003288509,,response,,,,4,C,,,,,,Space,keypress(Space),,,,instrumental,,,,----- -- ---- --- -- --- -------- ------------ ---------- --<br>- ------- ------ --------- -- ------------ -- --- ---- -----<br>------ ---- ---- ------ ------ ------- --- other ---------<br>---- --- -------- -------- --- --- -- ------- --- --- -----<br>-- --- ------ ------- --- --- -------- ---- --------- --<br>---------- -- -------- ----------------,289679.2100002058,289678.37000032887,289053.768,289067.2050002031,289070.444,289687.082,,27,other
screen,html.Screen,1_3_1_0_1_28,2021-04-25T21:43:56.222Z,,,,,,,,,,,,,,,,11,,,,,,,,,,,,,,621.3429999374202,,response,,,,4,C,,,,,,Space,keypress(Space),,,,instrumental,,,,----- -- ---- --- -- --- -------- ------------ ---------- --<br>- ------- ------ --------- -- ------------ -- --- ---- -----<br>------ ---- ---- ------ ------ ------- --- ----- artifacts<br>---- --- -------- -------- --- --- -- ------- --- --- -----<br>-- --- ------ ------- --- --- -------- ---- --------- --<br>---------- -- -------- ----------------,290309.33500034735,290308.4249999374,289670.253,289679.38500037417,289687.082,290320.594,,28,artifacts
screen,html.Screen,1_3_1_0_1_29,2021-04-25T21:43:56.804Z,,,,,,,,,,,,,,,,11,,,,,,,,,,,,,,569.8159999927157,,response,,,,4,C,,,,,,Space,keypress(Space),,,,instrumental,,,,----- -- ---- --- -- --- -------- ------------ ---------- --<br>- ------- ------ --------- -- ------------ -- --- ---- -----<br>------ ---- ---- ------ ------ ------- --- ----- ---------<br>from --- -------- -------- --- --- -- ------- --- --- -----<br>-- --- ------ ------- --- --- -------- ---- --------- --<br>---------- -- -------- ----------------,290891.28500036895,290890.4099999927,290303.771,290309.515000321,290320.594,290903.624,,29,from
screen,html.Screen,1_3_1_0_1_30,2021-04-25T21:43:57.332Z,,,,,,,,,,,,,,,,11,,,,,,,,,,,,,,515.095999957819,,response,,,,4,C,,,,,,Space,keypress(Space),,,,instrumental,,,,----- -- ---- --- -- --- -------- ------------ ---------- --<br>- ------- ------ --------- -- ------------ -- --- ---- -----<br>------ ---- ---- ------ ------ ------- --- ----- ---------<br>---- the -------- -------- --- --- -- ------- --- --- -----<br>-- --- ------ ------- --- --- -------- ---- --------- --<br>---------- -- -------- ----------------,291419.4950000383,291418.71999995783,290887.118,290891.4700001478,290903.624,291437.144,,30,the
screen,html.Screen,1_3_1_0_1_31,2021-04-25T21:43:57.904Z,,,,,,,,,,,,,,,,11,,,,,,,,,,,,,,553.5510001605144,,response,,,,4,C,,,,,,Space,keypress(Space),,,,instrumental,,,,----- -- ---- --- -- --- -------- ------------ ---------- --<br>- ------- ------ --------- -- ------------ -- --- ---- -----<br>------ ---- ---- ------ ------ ------- --- ----- ---------<br>---- --- island's -------- --- --- -- ------- --- --- -----<br>-- --- ------ ------- --- --- -------- ---- --------- --<br>---------- -- -------- ----------------,291991.5700000711,291990.6950001605,291420.038,291419.6550003253,291437.144,292003.595,,31,island's
screen,html.Screen,1_3_1_0_1_32,2021-04-25T21:43:58.799Z,,,,,,,,,,,,,,,,11,,,,,,,,,,,,,,882.1100002552848,,response,,,,4,C,,,,,,Space,keypress(Space),,,,instrumental,,,,----- -- ---- --- -- --- -------- ------------ ---------- --<br>- ------- ------ --------- -- ------------ -- --- ---- -----<br>------ ---- ---- ------ ------ ------- --- ----- ---------<br>---- --- -------- history. --- --- -- ------- --- --- -----<br>-- --- ------ ------- --- --- -------- ---- --------- --<br>---------- -- -------- ----------------,292886.56500028446,292885.70500025526,291986.865,291991.7500000447,292003.595,292903.285,,32,history.
screen,html.Screen,1_3_1_0_1_33,2021-04-25T21:43:59.407Z,,,,,,,,,,,,,,,,11,,,,,,,,,,,,,,590.2750003227848,,response,,,,4,C,,,,,,Space,keypress(Space),,,,instrumental,,,,----- -- ---- --- -- --- -------- ------------ ---------- --<br>- ------- ------ --------- -- ------------ -- --- ---- -----<br>------ ---- ---- ------ ------ ------- --- ----- ---------<br>---- --- -------- -------- The --- -- ------- --- --- -----<br>-- --- ------ ------- --- --- -------- ---- --------- --<br>---------- -- -------- ----------------,293494.39000012353,293493.56000032276,292886.86,292886.75000006333,292903.285,293503.508,,33,The
screen,html.Screen,1_3_1_0_1_34,2021-04-25T21:43:59.945Z,,,,,,,,,,,,,,,,11,,,,,,,,,,,,,,527.7220003133989,,response,,,,4,C,,,,,,Space,keypress(Space),,,,instrumental,,,,----- -- ---- --- -- --- -------- ------------ ---------- --<br>- ------- ------ --------- -- ------------ -- --- ---- -----<br>------ ---- ---- ------ ------ ------- --- ----- ---------<br>---- --- -------- -------- --- art -- ------- --- --- -----<br>-- --- ------ ------- --- --- -------- ---- --------- --<br>---------- -- -------- ----------------,294032.1150003001,294031.2300003134,293486.7,293494.55500021577,293503.508,294036.347,,34,art
screen,html.Screen,1_3_1_0_1_35,2021-04-25T21:44:00.351Z,,,,,,,,,,,,,,,,11,,,,,,,,,,,,,,400.59800019772956,,response,,,,4,C,,,,,,Space,keypress(Space),,,,instrumental,,,,----- -- ---- --- -- --- -------- ------------ ---------- --<br>- ------- ------ --------- -- ------------ -- --- ---- -----<br>------ ---- ---- ------ ------ ------- --- ----- ---------<br>---- --- -------- -------- --- --- of ------- --- --- -----<br>-- --- ------ ------- --- --- -------- ---- --------- --<br>---------- -- -------- ----------------,294437.7800002694,294436.94500019774,294019.967,294032.29000000283,294036.347,294453.492,,35,of
screen,html.Screen,1_3_1_0_1_36,2021-04-25T21:44:00.859Z,,,,,,,,,,,,,,,,11,,,,,,,,,,,,,,491.90300027892226,,response,,,,4,C,,,,,,Space,keypress(Space),,,,instrumental,,,,----- -- ---- --- -- --- -------- ------------ ---------- --<br>- ------- ------ --------- -- ------------ -- --- ---- -----<br>------ ---- ---- ------ ------ ------- --- ----- ---------<br>---- --- -------- -------- --- --- -- writing --- --- -----<br>-- --- ------ ------- --- --- -------- ---- --------- --<br>---------- -- -------- ----------------,294946.25000003725,294945.39500027895,294436.38,294437.9500001669,294453.492,294953.392,,36,writing
screen,html.Screen,1_3_1_0_1_37,2021-04-25T21:44:01.274Z,,,,,,,,,,,,,,,,11,,,,,,,,,,,,,,407.46300009358674,,response,,,,4,C,,,,,,Space,keypress(Space),,,,instrumental,,,,----- -- ---- --- -- --- -------- ------------ ---------- --<br>- ------- ------ --------- -- ------------ -- --- ---- -----<br>------ ---- ---- ------ ------ ------- --- ----- ---------<br>---- --- -------- -------- --- --- -- ------- was --- -----<br>-- --- ------ ------- --- --- -------- ---- --------- --<br>---------- -- -------- ----------------,295361.7300000042,295360.8550000936,294936.211,294946.42500020564,294953.392,295369.825,,37,was
screen,html.Screen,1_3_1_0_1_38,2021-04-25T21:44:01.771Z,,,,,,,,,,,,,,,,11,,,,,,,,,,,,,,487.37000016419915,,response,,,,4,C,,,,,,Space,keypress(Space),,,,instrumental,,,,----- -- ---- --- -- --- -------- ------------ ---------- --<br>- ------- ------ --------- -- ------------ -- --- ---- -----<br>------ ---- ---- ------ ------ ------- --- ----- ---------<br>---- --- -------- -------- --- --- -- ------- --- not -----<br>-- --- ------ ------- --- --- -------- ---- --------- --<br>---------- -- -------- ----------------,295858.05999999866,295857.1950001642,295353.097,295361.90500017256,295369.825,295869.845,,38,not
