sender,sender_type,sender_id,timestamp,meta,,Blues,Classical,Country,Dance,Electronic,Folk,Gospel,Hip-Hop,Jazz,Latin,Musical/Film,New-age,Pop,Provo_ID,R&B,Rap,Reggae,Religious,Rock,Soul,Swing,Traditional,age,artist_name,correct,correctResponse,distraction,duration,education,ended_on,familiarity,gender,headphone_check_performance,item,list,music_frequency,offensiveness,pleasantness,position_correct,preference,response,response_action,snippet_file,song_name,song_rating,sound,stimulus_1,stimulus_2,stimulus_3,text,time_commit,time_end,time_render,time_run,time_show,time_switch,url,word,word_ID
Introduction,html.Screen,0_0,2021-04-12T20:57:14.718Z,"{""labjs_version"":""20.2.2"",""labjs_build"":{""flavor"":""production"",""commit"":""a25486e0c714a0ae2ce03ff94b7bb6896854dcfa""},""location"":""https://run.pavlovia.org/mvasilev/music_b/"",""userAgent"":""Mozilla/5.0 (Macintosh; Intel Mac OS X 10_13_6) AppleWebKit/537.36 (KHTML, like Gecko) Chrome/89.0.4389.90 Safari/537.36"",""platform"":""MacIntel"",""language"":""en-GB"",""locale"":""en-GB"",""timeZone"":""Europe/London"",""timezoneOffset"":-60,""screen_width"":1440,""screen_height"":900,""scroll_width"":1440,""scroll_height"":773,""window_innerWidth"":1440,""window_innerHeight"":821,""devicePixelRatio"":1}",,,,,,,,,,,,,,,,,,,,,,,,,,,,,271792.8719999893,,response,,,,,,,,,,,continue,click button,,,,,,,,,291872.0349999785,291867.7899999893,20058.251,20058.729999989737,20074.918,291877.727,{},,
Volume calibration,html.Screen,0_1,2021-04-12T20:57:33.916Z,,,,,,,,,,,,,,,,,,,,,,,,,,,,,,19182.787999990105,,response,,,,,,,,,,,continue,click button,,,,,,,,,311069.3949999986,311060.5149999901,291861.06,291873.0349999969,291877.727,311078.78,,,
Task instructions,html.Screen,0_2,2021-04-12T20:57:43.115Z,,,,,,,,,,,,,,,,,,,,,,,,,,,,,,9186.115000000224,,response,,,,,,,,,,,continue,click button,,,,,,,,,320267.8099999903,320264.89500000025,311062.113,311069.6149999858,311078.78,320279.817,,,
Sounds,html.Screen,0_3_0_0,2021-04-12T20:57:47.365Z,,,,,,,,,,,,,,,,,,,,,,,,,,,,,,4250.085000000021,,timeout,,,,,,,,,2,,,,,,,,O,S,I,,324518.0099999998,324513.235,320263.15,320268.2099999802,320279.817,324529.902,,,
Judgement,html.Screen,0_3_0_1,2021-04-12T20:57:48.522Z,,,,,,,,,,,,,,,,,,,,,,,,,,,true,2,,1141.4529999985825,,response,,,,,,,,,2,,2,click #choice-2,,,,,O,S,I,,325674.81500000576,325671.3549999986,324513.235,324518.2849999983,324529.902,325679.925,,,
Trial,flow.Sequence,0_3_0,2021-04-12T20:57:48.523Z,,,,,,,,,,,,,,,,,,,,,,,,,,,,,,5391.5379999986035,,completion,,,,,,,,,2,,,,,,,,O,S,I,,325675.419999985,325671.3549999986,320263.15,320268.1100000045,320279.817,325679.925,,,
Sounds,html.Screen,0_3_1_0,2021-04-12T20:57:52.763Z,,,,,,,,,,,,,,,,,,,,,,,,,,,,,,4250.085000000021,,timeout,,,,,,,,,3,,,,,,,,O,I,S,,329916.07499998645,329913.343,325663.258,325675.6999999925,325679.925,329930.01,,,
Judgement,html.Screen,0_3_1_1,2021-04-12T20:57:53.358Z,,,,,,,,,,,,,,,,,,,,,,,,,,,true,3,,577.1099999947473,,response,,,,,,,,,3,,3,click #choice-3,,,,,O,I,S,,330510.3050000034,330507.11999999476,329913.343,329916.2849999848,329930.01,330513.882,,,
Trial,flow.Sequence,0_3_1,2021-04-12T20:57:53.358Z,,,,,,,,,,,,,,,,,,,,,,,,,,,,,,4827.194999994768,,completion,,,,,,,,,3,,,,,,,,O,I,S,,330510.66999998875,330507.11999999476,325663.258,325675.6100000057,325679.925,330513.882,,,
Sounds,html.Screen,0_3_2_0,2021-04-12T20:57:57.596Z,,,,,,,,,,,,,,,,,,,,,,,,,,,,,,4250.085000000021,,timeout,,,,,,,,,1,,,,,,,,S,I,O,,334748.91500000376,334747.3,330497.215,330510.92999998946,330513.882,334763.967,,,
Judgement,html.Screen,0_3_2_1,2021-04-12T20:57:58.044Z,,,,,,,,,,,,,,,,,,,,,,,,,,,true,1,,429.28299998206785,,response,,,,,,,,,1,,1,click #choice-1,,,,,S,I,O,,335196.2449999992,335193.2499999821,334747.3,334749.12999998196,334763.967,335197.309,,,
Trial,flow.Sequence,0_3_2,2021-04-12T20:57:58.044Z,,,,,,,,,,,,,,,,,,,,,,,,,,,,,,4679.367999982089,,completion,,,,,,,,,1,,,,,,,,S,I,O,,335196.57499997993,335193.2499999821,330497.215,330510.8499999915,330513.882,335197.309,,,
Sounds,html.Screen,0_3_3_0,2021-04-12T20:58:02.281Z,,,,,,,,,,,,,,,,,,,,,,,,,,,,,,4250.084999999963,,timeout,,,,,,,,,2,,,,,,,,I,S,O,,339433.04999999236,339430.727,335180.642,335196.81999998284,335197.309,339447.394,,,
Judgement,html.Screen,0_3_3_1,2021-04-12T20:58:02.733Z,,,,,,,,,,,,,,,,,,,,,,,,,,,true,2,,434.0559999862453,,response,,,,,,,,,2,,2,click #choice-2,,,,,I,S,O,,339884.98000000254,339881.4499999862,339430.727,339433.3500000066,339447.394,339897.403,,,
Trial,flow.Sequence,0_3_3,2021-04-12T20:58:02.733Z,,,,,,,,,,,,,,,,,,,,,,,,,,,,,,4684.140999986208,,completion,,,,,,,,,2,,,,,,,,I,S,O,,339885.3050000034,339881.4499999862,335180.642,335196.729999996,335197.309,339897.403,,,
Sounds,html.Screen,0_3_4_0,2021-04-12T20:58:06.981Z,,,,,,,,,,,,,,,,,,,,,,,,,,,,,,4250.085000000021,,timeout,,,,,,,,,3,,,,,,,,I,O,S,,344133.27500000014,344130.821,339880.736,339885.52999999956,339897.403,344147.488,,,
Judgement,html.Screen,0_3_4_1,2021-04-12T20:58:07.385Z,,,,,,,,,,,,,,,,,,,,,,,,,,,true,3,,387.1119999844814,,response,,,,,,,,,3,,3,click #choice-3,,,,,I,O,S,,344537.5950000016,344534.5999999845,344130.821,344133.47000000067,344147.488,344548.087,,,
Trial,flow.Sequence,0_3_4,2021-04-12T20:58:07.386Z,,,,,,,,,,,,,,,,,,,,,,,,,,,,,,4637.196999984502,,completion,,,,,,,,,3,,,,,,,,I,O,S,,344537.9350000003,344534.5999999845,339880.736,339885.4599999904,339897.403,344548.087,,,
Sounds,html.Screen,0_3_5_0,2021-04-12T20:58:11.632Z,,,,,,,,,,,,,,,,,,,,,,,,,,,,,,4250.085000000021,,timeout,,,,,,,,,1,,,,,,,,S,O,I,,348783.7350000045,348781.505,344531.42,344538.1449999986,344548.087,348798.172,,,
Judgement,html.Screen,0_3_5_1,2021-04-12T20:58:12.079Z,,,,,,,,,,,,,,,,,,,,,,,,,,,true,1,,429.77299999142997,,response,,,,,,,,,1,,1,click #choice-1,,,,,S,O,I,,349231.05000000214,349227.94499999145,348781.505,348783.8899999915,348798.172,349231.514,,,
Trial,flow.Sequence,0_3_5,2021-04-12T20:58:12.079Z,,,,,,,,,,,,,,,,,,,,,,,,,,,,,,4679.857999991451,,completion,,,,,,,,,1,,,,,,,,S,O,I,,349231.375000003,349227.94499999145,344531.42,344538.0849999783,344548.087,349231.514,,,
Task,flow.Loop,0_3,2021-04-12T20:58:12.087Z,,,,,,,,,,,,,,,,,,,,,,,,,,,,,,28948.12799999147,,completion,,,1,,,,,,,,,,,,,,,,,,349239.505000005,349227.94499999145,320263.15,320268.0199999886,320279.817,349231.514,,,
Trap,html.Screen,0_4,2021-04-12T20:58:12.093Z,,,,,,,,,,,,,,,,,,,,,,,,,,,,,,NaN,,skipped,,,,,,,,,,,,,,,,,,,,,349244.5650000009,349227.94499999145,,349244.1300000064,,349231.514,,,
Thanks,html.Screen,0_5,2021-04-12T20:58:14.628Z,,,,,,,,,,,,,,,,,,,,,,,,,,,,,,2546.000999994285,,response,,,,,,,,,,,continue,click button,,,,,,,,,351780.4799999867,351777.5149999943,349214.847,349244.8250000016,349231.514,355981.649,,,
Headphone screening,flow.Sequence,0,2021-04-12T20:58:14.629Z,,,,,,,,,,,,,,,,,,,,,,,,,,,,,,331702.5969999943,,completion,,,,,,,,,,,,,,,,,,,,,351780.78000000096,351777.5149999943,20058.251,20058.694999985164,20074.918,355981.649,,,
Instructions,html.Page,1_0,2021-04-12T20:58:29.674Z,,,,,,,,,,,,,,,,,,,,,,,,,,,,,,10843.786000006134,,form submission,,,,,,,,,,,,,,,,,,,,,366825.7750000048,366825.4350000061,355964.982,355975.53500000504,355981.649,366832.544,,,
Holding screen,html.Screen,1_1_0_0,2021-04-12T20:58:39.667Z,,,,,,,,,,,,,,,,,,,,,,,,,,,,,,10000.67300000001,,timeout,,,,,,,,,,,,,,,,,,,,,376818.4599999804,376816.55,366815.877,366826.0350000055,366832.544,376833.217,,,
screen,html.Screen,1_1_0_1_0,2021-04-12T20:58:40.437Z,,,,,,,,,,,,,,,,53,,,,,,,,,,,,,,749.3429999807267,,response,,,,99,,,,,,,Space,keypress(Space),,,,,,,,When -- ----- -- ------ - ------- --- ----------<br>------------- ------ ------ ---- ---- ------- ----- -- ----<br>-------- ------- -- ---------- --- - --- ----- ----- ----<br>---- --- --- ----- --- ---- ---- ------- ----- ---- -------<br>--- --- -- ----- -- --- ---- -- --- ---- -- ------ ------<br>--- ----- -- ----,377588.5849999904,377582.55999998073,376816.55,376818.75999999465,376833.217,377599.899,,0,When
screen,html.Screen,1_1_0_1_1,2021-04-12T20:58:41.439Z,,,,,,,,,,,,,,,,53,,,,,,,,,,,,,,985.6309999821242,,response,,,,99,,,,,,,Space,keypress(Space),,,,,,,,---- it ----- -- ------ - ------- --- ----------<br>------------- ------ ------ ---- ---- ------- ----- -- ----<br>-------- ------- -- ---------- --- - --- ----- ----- ----<br>---- --- --- ----- --- ---- ---- ------- ----- ---- -------<br>--- --- -- ----- -- --- ---- -- --- ---- -- ------ ------<br>--- ----- -- ----,378589.799999987,378585.5299999821,377583.232,377589.0800000052,377599.899,378600.464,,1,it
screen,html.Screen,1_1_0_1_2,2021-04-12T20:58:42.025Z,,,,,,,,,,,,,,,,53,,,,,,,,,,,,,,571.9310000014375,,response,,,,99,,,,,,,Space,keypress(Space),,,,,,,,---- -- comes -- ------ - ------- --- ----------<br>------------- ------ ------ ---- ---- ------- ----- -- ----<br>-------- ------- -- ---------- --- - --- ----- ----- ----<br>---- --- --- ----- --- ---- ---- ------- ----- ---- -------<br>--- --- -- ----- -- --- ---- -- --- ---- -- ------ ------<br>--- ----- -- ----,379175.7199999993,379172.3950000014,378583.797,378590.0949999923,378600.464,379183.809,,2,comes
screen,html.Screen,1_1_0_1_3,2021-04-12T20:58:42.459Z,,,,,,,,,,,,,,,,53,,,,,,,,,,,,,,421.7109999827808,,response,,,,99,,,,,,,Space,keypress(Space),,,,,,,,---- -- ----- to ------ - ------- --- ----------<br>------------- ------ ------ ---- ---- ------- ----- -- ----<br>-------- ------- -- ---------- --- - --- ----- ----- ----<br>---- --- --- ----- --- ---- ---- ------- ----- ---- -------<br>--- --- -- ----- -- --- ---- -- --- ---- -- ------ ------<br>--- ----- -- ----,379610.17999998876,379605.5199999828,379167.142,379175.90499998187,379183.809,379617.151,,3,to
screen,html.Screen,1_1_0_1_4,2021-04-12T20:58:42.849Z,,,,,,,,,,,,,,,,53,,,,,,,,,,,,,,379.3439999994007,,response,,,,99,,,,,,,Space,keypress(Space),,,,,,,,---- -- ----- -- having - ------- --- ----------<br>------------- ------ ------ ---- ---- ------- ----- -- ----<br>-------- ------- -- ---------- --- - --- ----- ----- ----<br>---- --- --- ----- --- ---- ---- ------- ----- ---- -------<br>--- --- -- ----- -- --- ---- -- --- ---- -- ------ ------<br>--- ----- -- ----,379999.7649999859,379996.4949999994,379600.484,379610.37999999826,379617.151,380017.159,,4,having
screen,html.Screen,1_1_0_1_5,2021-04-12T20:58:43.236Z,,,,,,,,,,,,,,,,53,,,,,,,,,,,,,,366.335999987321,,response,,,,99,,,,,,,Space,keypress(Space),,,,,,,,---- -- ----- -- ------ a ------- --- ----------<br>------------- ------ ------ ---- ---- ------- ----- -- ----<br>-------- ------- -- ---------- --- - --- ----- ----- ----<br>---- --- --- ----- --- ---- ---- ------- ----- ---- -------<br>--- --- -- ----- -- --- ---- -- --- ---- -- ------ ------<br>--- ----- -- ----,380387.0900000038,380383.4949999873,380000.492,379999.9550000066,380017.159,380400.5,,5,a
screen,html.Screen,1_1_0_1_6,2021-04-12T20:58:43.619Z,,,,,,,,,,,,,,,,53,,,,,,,,,,,,,,365.944999986561,,response,,,,99,,,,,,,Space,keypress(Space),,,,,,,,---- -- ----- -- ------ - lasting --- ----------<br>------------- ------ ------ ---- ---- ------- ----- -- ----<br>-------- ------- -- ---------- --- - --- ----- ----- ----<br>---- --- --- ----- --- ---- ---- ------- ----- ---- -------<br>--- --- -- ----- -- --- ---- -- --- ---- -- ------ ------<br>--- ----- -- ----,380770.05999998073,380766.44499998656,380383.833,380387.2899999842,380400.5,380783.841,,6,lasting
screen,html.Screen,1_1_0_1_7,2021-04-12T20:58:44.045Z,,,,,,,,,,,,,,,,53,,,,,,,,,,,,,,408.4589999951422,,response,,,,99,,,,,,,Space,keypress(Space),,,,,,,,---- -- ----- -- ------ - ------- and ----------<br>------------- ------ ------ ---- ---- ------- ----- -- ----<br>-------- ------- -- ---------- --- - --- ----- ----- ----<br>---- --- --- ----- --- ---- ---- ------- ----- ---- -------<br>--- --- -- ----- -- --- ---- -- --- ---- -- ------ ------<br>--- ----- -- ----,381195.63499998185,381192.29999999516,380767.174,380770.39499999955,380783.841,381200.516,,7,and
screen,html.Screen,1_1_0_1_8,2021-04-12T20:58:44.499Z,,,,,,,,,,,,,,,,53,,,,,,,,,,,,,,445.854000002204,,response,,,,99,,,,,,,Space,keypress(Space),,,,,,,,---- -- ----- -- ------ - ------- --- fulfilling<br>------------- ------ ------ ---- ---- ------- ----- -- ----<br>-------- ------- -- ---------- --- - --- ----- ----- ----<br>---- --- --- ----- --- ---- ---- ------- ----- ---- -------<br>--- --- -- ----- -- --- ---- -- --- ---- -- ------ ------<br>--- ----- -- ----,381649.6899999911,381646.3700000022,381183.849,381195.8250000025,381200.516,381650.525,,8,fulfilling
screen,html.Screen,1_1_0_1_9,2021-04-12T20:58:44.966Z,,,,,,,,,,,,,,,,53,,,,,,,,,,,,,,462.79999998386484,,response,,,,99,,,,,,,Space,keypress(Space),,,,,,,,"---- -- ----- -- ------ - ------- --- ----------<br>relationship, ------ ------ ---- ---- ------- ----- -- ----<br>-------- ------- -- ---------- --- - --- ----- ----- ----<br>---- --- --- ----- --- ---- ---- ------- ----- ---- -------<br>--- --- -- ----- -- --- ---- -- --- ---- -- ------ ------<br>--- ----- -- ----",382116.8599999801,382113.3249999839,381633.858,381649.87999998266,381650.525,382133.868,,9,"relationship,"
screen,html.Screen,1_1_0_1_10,2021-04-12T20:58:45.543Z,,,,,,,,,,,,,,,,53,,,,,,,,,,,,,,556.4169999896549,,response,,,,99,,,,,,,Space,keypress(Space),,,,,,,,---- -- ----- -- ------ - ------- --- ----------<br>------------- common ------ ---- ---- ------- ----- -- ----<br>-------- ------- -- ---------- --- - --- ----- ----- ----<br>---- --- --- ----- --- ---- ---- ------- ----- ---- -------<br>--- --- -- ----- -- --- ---- -- --- ---- -- ------ ------<br>--- ----- -- ----,382693.8599999994,382690.2849999897,382117.201,382117.21999998554,382133.868,382700.546,,10,common
screen,html.Screen,1_1_0_1_11,2021-04-12T20:58:45.914Z,,,,,,,,,,,,,,,,53,,,,,,,,,,,,,,360.70899997872766,,response,,,,99,,,,,,,Space,keypress(Space),,,,,,,,---- -- ----- -- ------ - ------- --- ----------<br>------------- ------ wisdom ---- ---- ------- ----- -- ----<br>-------- ------- -- ---------- --- - --- ----- ----- ----<br>---- --- --- ----- --- ---- ---- ------- ----- ---- -------<br>--- --- -- ----- -- --- ---- -- --- ---- -- ------ ------<br>--- ----- -- ----,383064.7299999837,383061.2549999787,382683.879,382694.05499999993,382700.546,383067.22,,11,wisdom
screen,html.Screen,1_1_0_1_12,2021-04-12T20:58:46.263Z,,,,,,,,,,,,,,,,53,,,,,,,,,,,,,,343.06999999983236,,response,,,,99,,,,,,,Space,keypress(Space),,,,,,,,---- -- ----- -- ------ - ------- --- ----------<br>------------- ------ ------ says ---- ------- ----- -- ----<br>-------- ------- -- ---------- --- - --- ----- ----- ----<br>---- --- --- ----- --- ---- ---- ------- ----- ---- -------<br>--- --- -- ----- -- --- ---- -- --- ---- -- ------ ------<br>--- ----- -- ----,383414.0999999945,383410.2899999998,383050.553,383064.9249999842,383067.22,383417.227,,12,says
screen,html.Screen,1_1_0_1_13,2021-04-12T20:58:46.589Z,,,,,,,,,,,,,,,,53,,,,,,,,,,,,,,319.85800000064773,,response,,,,99,,,,,,,Space,keypress(Space),,,,,,,,---- -- ----- -- ------ - ------- --- ----------<br>------------- ------ ------ ---- that ------- ----- -- ----<br>-------- ------- -- ---------- --- - --- ----- ----- ----<br>---- --- --- ----- --- ---- ---- ------- ----- ---- -------<br>--- --- -- ----- -- --- ---- -- --- ---- -- ------ ------<br>--- ----- -- ----,383740.46499998076,383737.08500000066,383400.56,383414.29499999504,383417.227,383750.567,,13,that
screen,html.Screen,1_1_0_1_14,2021-04-12T20:58:46.829Z,,,,,,,,,,,,,,,,53,,,,,,,,,,,,,,225.64299999346258,,response,,,,99,,,,,,,Space,keypress(Space),,,,,,,,---- -- ----- -- ------ - ------- --- ----------<br>------------- ------ ------ ---- ---- feeling ----- -- ----<br>-------- ------- -- ---------- --- - --- ----- ----- ----<br>---- --- --- ----- --- ---- ---- ------- ----- ---- -------<br>--- --- -- ----- -- --- ---- -- --- ---- -- ------ ------<br>--- ----- -- ----,383979.5999999915,383976.20999999344,383733.9,383740.6550000014,383750.567,383983.905,,14,feeling
screen,html.Screen,1_1_0_1_15,2021-04-12T20:58:47.064Z,,,,,,,,,,,,,,,,53,,,,,,,,,,,,,,227.30999998841435,,response,,,,99,,,,,,,Space,keypress(Space),,,,,,,,---- -- ----- -- ------ - ------- --- ----------<br>------------- ------ ------ ---- ---- ------- close -- ----<br>-------- ------- -- ---------- --- - --- ----- ----- ----<br>---- --- --- ----- --- ---- ---- ------- ----- ---- -------<br>--- --- -- ----- -- --- ---- -- --- ---- -- ------ ------<br>--- ----- -- ----,384214.77999998024,384211.21499998844,383967.238,383979.800000001,383983.905,384217.243,,15,close
screen,html.Screen,1_1_0_1_16,2021-04-12T20:58:47.345Z,,,,,,,,,,,,,,,,53,,,,,,,,,,,,,,274.8869999987073,,response,,,,99,,,,,,,Space,keypress(Space),,,,,,,,---- -- ----- -- ------ - ------- --- ----------<br>------------- ------ ------ ---- ---- ------- ----- to ----<br>-------- ------- -- ---------- --- - --- ----- ----- ----<br>---- --- --- ----- --- ---- ---- ------- ----- ---- -------<br>--- --- -- ----- -- --- ---- -- --- ---- -- ------ ------<br>--- ----- -- ----,384495.59499998577,384492.1299999987,384200.576,384214.9700000009,384217.243,384500.582,,16,to
screen,html.Screen,1_1_0_1_17,2021-04-12T20:58:47.736Z,,,,,,,,,,,,,,,,53,,,,,,,,,,,,,,382.5629999997909,,response,,,,99,,,,,,,Space,keypress(Space),,,,,,,,---- -- ----- -- ------ - ------- --- ----------<br>------------- ------ ------ ---- ---- ------- ----- -- your<br>-------- ------- -- ---------- --- - --- ----- ----- ----<br>---- --- --- ----- --- ---- ---- ------- ----- ---- -------<br>--- --- -- ----- -- --- ---- -- --- ---- -- ------ ------<br>--- ----- -- ----,384887.1050000016,384883.1449999998,384483.915,384495.7899999863,384500.582,384900.59,,17,your
screen,html.Screen,1_1_0_1_18,2021-04-12T20:58:47.985Z,,,,,,,,,,,,,,,,53,,,,,,,,,,,,,,231.56999997916864,,response,,,,99,,,,,,,Space,keypress(Space),,,,,,,,---- -- ----- -- ------ - ------- --- ----------<br>------------- ------ ------ ---- ---- ------- ----- -- ----<br>romantic ------- -- ---------- --- - --- ----- ----- ----<br>---- --- --- ----- --- ---- ---- ------- ----- ---- -------<br>--- --- -- ----- -- --- ---- -- --- ---- -- ------ ------<br>--- ----- -- ----,385135.65499999095,385132.1599999792,384883.923,384887.4000000069,384900.59,385150.595,,18,romantic
screen,html.Screen,1_1_0_1_19,2021-04-12T20:58:48.207Z,,,,,,,,,,,,,,,,53,,,,,,,,,,,,,,203.54000000143424,,response,,,,99,,,,,,,Space,keypress(Space),,,,,,,,---- -- ----- -- ------ - ------- --- ----------<br>------------- ------ ------ ---- ---- ------- ----- -- ----<br>-------- partner -- ---------- --- - --- ----- ----- ----<br>---- --- --- ----- --- ---- ---- ------- ----- ---- -------<br>--- --- -- ----- -- --- ---- -- --- ---- -- ------ ------<br>--- ----- -- ----,385357.5199999905,385354.1350000014,385133.928,385135.8649999893,385150.595,385367.266,,19,partner
screen,html.Screen,1_1_0_1_20,2021-04-12T20:58:48.441Z,,,,,,,,,,,,,,,,53,,,,,,,,,,,,,,220.75900000456022,,response,,,,99,,,,,,,Space,keypress(Space),,,,,,,,---- -- ----- -- ------ - ------- --- ----------<br>------------- ------ ------ ---- ---- ------- ----- -- ----<br>-------- ------- is ---------- --- - --- ----- ----- ----<br>---- --- --- ----- --- ---- ---- ------- ----- ---- -------<br>--- --- -- ----- -- --- ---- -- --- ---- -- ------ ------<br>--- ----- -- ----,385591.58999999636,385588.02500000456,385350.599,385357.70999998203,385367.266,385600.604,,20,is
screen,html.Screen,1_1_0_1_21,2021-04-12T20:58:48.671Z,,,,,,,,,,,,,,,,53,,,,,,,,,,,,,,217.52599999966333,,response,,,,99,,,,,,,Space,keypress(Space),,,,,,,,---- -- ----- -- ------ - ------- --- ----------<br>------------- ------ ------ ---- ---- ------- ----- -- ----<br>-------- ------- -- paramount. --- - --- ----- ----- ----<br>---- --- --- ----- --- ---- ---- ------- ----- ---- -------<br>--- --- -- ----- -- --- ---- -- --- ---- -- ------ ------<br>--- ----- -- ----,385821.5949999867,385818.12999999966,385583.937,385591.87000000384,385600.604,385833.942,,21,paramount.
screen,html.Screen,1_1_0_1_22,2021-04-12T20:58:48.909Z,,,,,,,,,,,,,,,,53,,,,,,,,,,,,,,222.1579999870737,,response,,,,99,,,,,,,Space,keypress(Space),,,,,,,,---- -- ----- -- ------ - ------- --- ----------<br>------------- ------ ------ ---- ---- ------- ----- -- ----<br>-------- ------- -- ---------- But - --- ----- ----- ----<br>---- --- --- ----- --- ---- ---- ------- ----- ---- -------<br>--- --- -- ----- -- --- ---- -- --- ---- -- ------ ------<br>--- ----- -- ----,386059.4599999895,386056.09999998705,385817.275,385821.78499997826,385833.942,386067.28,,22,But
screen,html.Screen,1_1_0_1_23,2021-04-12T20:58:49.180Z,,,,,,,,,,,,,,,,53,,,,,,,,,,,,,,259.80499999714084,,response,,,,99,,,,,,,Space,keypress(Space),,,,,,,,---- -- ----- -- ------ - ------- --- ----------<br>------------- ------ ------ ---- ---- ------- ----- -- ----<br>-------- ------- -- ---------- --- a --- ----- ----- ----<br>---- --- --- ----- --- ---- ---- ------- ----- ---- -------<br>--- --- -- ----- -- --- ---- -- --- ---- -- ------ ------<br>--- ----- -- ----,386330.53000000655,386327.08499999717,386050.613,386059.64999998105,386067.28,386333.952,,23,a
screen,html.Screen,1_1_0_1_24,2021-04-12T20:58:49.405Z,,,,,,,,,,,,,,,,53,,,,,,,,,,,,,,218.10299997829134,,response,,,,99,,,,,,,Space,keypress(Space),,,,,,,,---- -- ----- -- ------ - ------- --- ----------<br>------------- ------ ------ ---- ---- ------- ----- -- ----<br>-------- ------- -- ---------- --- - new ----- ----- ----<br>---- --- --- ----- --- ---- ---- ------- ----- ---- -------<br>--- --- -- ----- -- --- ---- -- --- ---- -- ------ ------<br>--- ----- -- ----,386555.4649999831,386552.0549999783,386317.285,386330.7250000071,386333.952,386567.29,,24,new
screen,html.Screen,1_1_0_1_25,2021-04-12T20:58:49.646Z,,,,,,,,,,,,,,,,53,,,,,,,,,,,,,,226.7599999968079,,response,,,,99,,,,,,,Space,keypress(Space),,,,,,,,---- -- ----- -- ------ - ------- --- ----------<br>------------- ------ ------ ---- ---- ------- ----- -- ----<br>-------- ------- -- ---------- --- - --- study ----- ----<br>---- --- --- ----- --- ---- ---- ------- ----- ---- -------<br>--- --- -- ----- -- --- ---- -- --- ---- -- ------ ------<br>--- ----- -- ----,386797.35999999684,386794.0499999968,386550.623,386555.6499999948,386567.29,386800.628,,25,study
screen,html.Screen,1_1_0_1_26,2021-04-12T20:58:49.887Z,,,,,,,,,,,,,,,,53,,,,,,,,,,,,,,233.38200000301003,,response,,,,99,,,,,,,Space,keypress(Space),,,,,,,,---- -- ----- -- ------ - ------- --- ----------<br>------------- ------ ------ ---- ---- ------- ----- -- ----<br>-------- ------- -- ---------- --- - --- ----- finds ----<br>---- --- --- ----- --- ---- ---- ------- ----- ---- -------<br>--- --- -- ----- -- --- ---- -- --- ---- -- ------ ------<br>--- ----- -- ----,387037.87999998895,387034.01000000304,386783.961,386797.5499999884,386800.628,387050.633,,26,finds
screen,html.Screen,1_1_0_1_27,2021-04-12T20:58:50.111Z,,,,,,,,,,,,,,,,53,,,,,,,,,,,,,,207.38699997932417,,response,,,,99,,,,,,,Space,keypress(Space),,,,,,,,---- -- ----- -- ------ - ------- --- ----------<br>------------- ------ ------ ---- ---- ------- ----- -- ----<br>-------- ------- -- ---------- --- - --- ----- ----- that<br>---- --- --- ----- --- ---- ---- ------- ----- ---- -------<br>--- --- -- ----- -- --- ---- -- --- ---- -- ------ ------<br>--- ----- -- ----,387261.48499999545,387258.0199999793,387033.966,387038.0699999805,387050.633,387267.304,,27,that
screen,html.Screen,1_1_0_1_28,2021-04-12T20:58:50.333Z,,,,,,,,,,,,,,,,53,,,,,,,,,,,,,,212.70099999033846,,response,,,,99,,,,,,,Space,keypress(Space),,,,,,,,---- -- ----- -- ------ - ------- --- ----------<br>------------- ------ ------ ---- ---- ------- ----- -- ----<br>-------- ------- -- ---------- --- - --- ----- ----- ----<br>it's --- --- ----- --- ---- ---- ------- ----- ---- -------<br>--- --- -- ----- -- --- ---- -- --- ---- -- ------ ------<br>--- ----- -- ----,387483.9099999808,387480.00499999034,387250.637,387261.679999996,387267.304,387501.095,,28,it's
screen,html.Screen,1_1_0_1_29,2021-04-12T20:58:50.537Z,,,,,,,,,,,,,,,,53,,,,,,,,,,,,,,183.91000000666827,,response,,,,99,,,,,,,Space,keypress(Space),,,,,,,,---- -- ----- -- ------ - ------- --- ----------<br>------------- ------ ------ ---- ---- ------- ----- -- ----<br>-------- ------- -- ---------- --- - --- ----- ----- ----<br>---- not --- ----- --- ---- ---- ------- ----- ---- -------<br>--- --- -- ----- -- --- ---- -- --- ---- -- ------ ------<br>--- ----- -- ----,387688.39999998454,387685.00500000664,387484.428,387484.21500000404,387501.095,387701.099,,29,not
screen,html.Screen,1_1_0_1_30,2021-04-12T20:58:50.740Z,,,,,,,,,,,,,,,,53,,,,,,,,,,,,,,186.72599998343503,,response,,,,99,,,,,,,Space,keypress(Space),,,,,,,,---- -- ----- -- ------ - ------- --- ----------<br>------------- ------ ------ ---- ---- ------- ----- -- ----<br>-------- ------- -- ---------- --- - --- ----- ----- ----<br>---- --- how ----- --- ---- ---- ------- ----- ---- -------<br>--- --- -- ----- -- --- ---- -- --- ---- -- ------ ------<br>--- ----- -- ----,387891.2349999882,387887.8249999834,387684.432,387688.5949999851,387701.099,387901.103,,30,how
screen,html.Screen,1_1_0_1_31,2021-04-12T20:58:50.937Z,,,,,,,,,,,,,,,,53,,,,,,,,,,,,,,184.6670000051381,,response,,,,99,,,,,,,Space,keypress(Space),,,,,,,,---- -- ----- -- ------ - ------- --- ----------<br>------------- ------ ------ ---- ---- ------- ----- -- ----<br>-------- ------- -- ---------- --- - --- ----- ----- ----<br>---- --- --- close --- ---- ---- ------- ----- ---- -------<br>--- --- -- ----- -- --- ---- -- --- ---- -- ------ ------<br>--- ----- -- ----,388088.1850000005,388085.77000000514,387884.436,387893.0249999976,387901.103,388101.107,,31,close
screen,html.Screen,1_1_0_1_32,2021-04-12T20:58:51.151Z,,,,,,,,,,,,,,,,53,,,,,,,,,,,,,,196.84799998725066,,response,,,,99,,,,,,,Space,keypress(Space),,,,,,,,---- -- ----- -- ------ - ------- --- ----------<br>------------- ------ ------ ---- ---- ------- ----- -- ----<br>-------- ------- -- ---------- --- - --- ----- ----- ----<br>---- --- --- ----- you ---- ---- ------- ----- ---- -------<br>--- --- -- ----- -- --- ---- -- --- ---- -- ------ ------<br>--- ----- -- ----,388301.4099999855,388297.95499998727,388084.44,388088.3299999987,388101.107,388317.778,,32,you
screen,html.Screen,1_1_0_1_33,2021-04-12T20:58:51.354Z,,,,,,,,,,,,,,,,53,,,,,,,,,,,,,,183.16199999809032,,response,,,,99,,,,,,,Space,keypress(Space),,,,,,,,---- -- ----- -- ------ - ------- --- ----------<br>------------- ------ ------ ---- ---- ------- ----- -- ----<br>-------- ------- -- ---------- --- - --- ----- ----- ----<br>---- --- --- ----- --- feel ---- ------- ----- ---- -------<br>--- --- -- ----- -- --- ---- -- --- ---- -- ------ ------<br>--- ----- -- ----,388504.5499999833,388500.9399999981,388301.111,388301.60000000615,388317.778,388517.782,,33,feel
screen,html.Screen,1_1_0_1_34,2021-04-12T20:58:51.587Z,,,,,,,,,,,,,,,,53,,,,,,,,,,,,,,216.14799998758826,,response,,,,99,,,,,,,Space,keypress(Space),,,,,,,,---- -- ----- -- ------ - ------- --- ----------<br>------------- ------ ------ ---- ---- ------- ----- -- ----<br>-------- ------- -- ---------- --- - --- ----- ----- ----<br>---- --- --- ----- --- ---- that ------- ----- ---- -------<br>--- --- -- ----- -- --- ---- -- --- ---- -- ------ ------<br>--- ----- -- ----,388737.449999986,388733.9299999876,388501.115,388504.734999995,388517.782,388751.12,,34,that
screen,html.Screen,1_1_0_1_35,2021-04-12T20:58:51.791Z,,,,,,,,,,,,,,,,53,,,,,,,,,,,,,,187.78999999712687,,response,,,,99,,,,,,,Space,keypress(Space),,,,,,,,---- -- ----- -- ------ - ------- --- ----------<br>------------- ------ ------ ---- ---- ------- ----- -- ----<br>-------- ------- -- ---------- --- - --- ----- ----- ----<br>---- --- --- ----- --- ---- ---- matters ----- ---- -------<br>--- --- -- ----- -- --- ---- -- --- ---- -- ------ ------<br>--- ----- -- ----,388942.26999999955,388938.9099999971,388734.453,388737.6299999887,388751.12,388951.124,,35,matters
screen,html.Screen,1_1_0_1_36,2021-04-12T20:58:52.016Z,,,,,,,,,,,,,,,,53,,,,,,,,,,,,,,212.78600000293227,,response,,,,99,,,,,,,Space,keypress(Space),,,,,,,,"---- -- ----- -- ------ - ------- --- ----------<br>------------- ------ ------ ---- ---- ------- ----- -- ----<br>-------- ------- -- ---------- --- - --- ----- ----- ----<br>---- --- --- ----- --- ---- ---- ------- most, ---- -------<br>--- --- -- ----- -- --- ---- -- --- ---- -- ------ ------<br>--- ----- -- ----",389167.35000000335,389163.91000000294,388934.457,388942.4650000001,388951.124,389184.462,,36,"most,"
screen,html.Screen,1_1_0_1_37,2021-04-12T20:58:52.226Z,,,,,,,,,,,,,,,,53,,,,,,,,,,,,,,189.2879999988363,,response,,,,99,,,,,,,Space,keypress(Space),,,,,,,,---- -- ----- -- ------ - ------- --- ----------<br>------------- ------ ------ ---- ---- ------- ----- -- ----<br>-------- ------- -- ---------- --- - --- ----- ----- ----<br>---- --- --- ----- --- ---- ---- ------- ----- it's -------<br>--- --- -- ----- -- --- ---- -- --- ---- -- ------ ------<br>--- ----- -- ----,389377.1799999813,389373.74999999884,389167.795,389167.5399999949,389184.462,389384.466,,37,it's
screen,html.Screen,1_1_0_1_38,2021-04-12T20:58:52.444Z,,,,,,,,,,,,,,,,53,,,,,,,,,,,,,,206.40399998542853,,response,,,,99,,,,,,,Space,keypress(Space),,,,,,,,---- -- ----- -- ------ - ------- --- ----------<br>------------- ------ ------ ---- ---- ------- ----- -- ----<br>-------- ------- -- ---------- --- - --- ----- ----- ----<br>---- --- --- ----- --- ---- ---- ------- ----- ---- whether<br>--- --- -- ----- -- --- ---- -- --- ---- -- ------ ------<br>--- ----- -- ----,389594.4899999886,389590.86999998544,389367.799,389377.35999998404,389384.466,389601.137,,38,whether
screen,html.Screen,1_1_0_1_39,2021-04-12T20:58:52.638Z,,,,,,,,,,,,,,,,53,,,,,,,,,,,,,,184.58299998531584,,response,,,,99,,,,,,,Space,keypress(Space),,,,,,,,---- -- ----- -- ------ - ------- --- ----------<br>------------- ------ ------ ---- ---- ------- ----- -- ----<br>-------- ------- -- ---------- --- - --- ----- ----- ----<br>---- --- --- ----- --- ---- ---- ------- ----- ---- -------<br>you --- -- ----- -- --- ---- -- --- ---- -- ------ ------<br>--- ----- -- ----,389789.2249999859,389785.7199999853,389584.47,389594.66499998234,389601.137,389801.141,,39,you
screen,html.Screen,1_1_0_1_40,2021-04-12T20:58:52.827Z,,,,,,,,,,,,,,,,53,,,,,,,,,,,,,,173.5689999804017,,response,,,,99,,,,,,,Space,keypress(Space),,,,,,,,---- -- ----- -- ------ - ------- --- ----------<br>------------- ------ ------ ---- ---- ------- ----- -- ----<br>-------- ------- -- ---------- --- - --- ----- ----- ----<br>---- --- --- ----- --- ---- ---- ------- ----- ---- -------<br>--- are -- ----- -- --- ---- -- --- ---- -- ------ ------<br>--- ----- -- ----,389978.20499999216,389974.7099999804,389784.474,389789.4099999976,389801.141,389984.478,,40,are
screen,html.Screen,1_1_0_1_41,2021-04-12T20:58:53.021Z,,,,,,,,,,,,,,,,53,,,,,,,,,,,,,,184.34700000064913,,response,,,,99,,,,,,,Space,keypress(Space),,,,,,,,---- -- ----- -- ------ - ------- --- ----------<br>------------- ------ ------ ---- ---- ------- ----- -- ----<br>-------- ------- -- ---------- --- - --- ----- ----- ----<br>---- --- --- ----- --- ---- ---- ------- ----- ---- -------<br>--- --- as ----- -- --- ---- -- --- ---- -- ------ ------<br>--- ----- -- ----,390172.2399999853,390168.82500000065,389967.811,389978.3849999949,389984.478,390184.482,,41,as
screen,html.Screen,1_1_0_1_42,2021-04-12T20:58:53.224Z,,,,,,,,,,,,,,,,53,,,,,,,,,,,,,,187.36299998691538,,response,,,,99,,,,,,,Space,keypress(Space),,,,,,,,---- -- ----- -- ------ - ------- --- ----------<br>------------- ------ ------ ---- ---- ------- ----- -- ----<br>-------- ------- -- ---------- --- - --- ----- ----- ----<br>---- --- --- ----- --- ---- ---- ------- ----- ---- -------<br>--- --- -- close -- --- ---- -- --- ---- -- ------ ------<br>--- ----- -- ----,390375.2149999782,390371.84499998693,390167.815,390172.4399999948,390184.482,390384.486,,42,close
screen,html.Screen,1_1_0_1_43,2021-04-12T20:58:53.432Z,,,,,,,,,,,,,,,,53,,,,,,,,,,,,,,194.324000006367,,response,,,,99,,,,,,,Space,keypress(Space),,,,,,,,---- -- ----- -- ------ - ------- --- ----------<br>------------- ------ ------ ---- ---- ------- ----- -- ----<br>-------- ------- -- ---------- --- - --- ----- ----- ----<br>---- --- --- ----- --- ---- ---- ------- ----- ---- -------<br>--- --- -- ----- as --- ---- -- --- ---- -- ------ ------<br>--- ----- -- ----,390582.8999999794,390578.81000000634,390367.819,390377.24999999045,390384.486,390584.49,,43,as
screen,html.Screen,1_1_0_1_44,2021-04-12T20:58:53.639Z,,,,,,,,,,,,,,,,53,,,,,,,,,,,,,,201.27999998768792,,response,,,,99,,,,,,,Space,keypress(Space),,,,,,,,---- -- ----- -- ------ - ------- --- ----------<br>------------- ------ ------ ---- ---- ------- ----- -- ----<br>-------- ------- -- ---------- --- - --- ----- ----- ----<br>---- --- --- ----- --- ---- ---- ------- ----- ---- -------<br>--- --- -- ----- -- you ---- -- --- ---- -- ------ ------<br>--- ----- -- ----,390789.5600000047,390785.7699999877,390567.823,390583.07999998215,390584.49,390801.161,,44,you
screen,html.Screen,1_1_0_1_45,2021-04-12T20:58:53.850Z,,,,,,,,,,,,,,,,53,,,,,,,,,,,,,,196.61900000512833,,response,,,,99,,,,,,,Space,keypress(Space),,,,,,,,---- -- ----- -- ------ - ------- --- ----------<br>------------- ------ ------ ---- ---- ------- ----- -- ----<br>-------- ------- -- ---------- --- - --- ----- ----- ----<br>---- --- --- ----- --- ---- ---- ------- ----- ---- -------<br>--- --- -- ----- -- --- want -- --- ---- -- ------ ------<br>--- ----- -- ----,391001.18999998085,390997.78000000515,390784.494,390789.7499999963,390801.161,391017.832,,45,want
screen,html.Screen,1_1_0_1_46,2021-04-12T20:58:54.067Z,,,,,,,,,,,,,,,,53,,,,,,,,,,,,,,196.93299998244038,,response,,,,99,,,,,,,Space,keypress(Space),,,,,,,,---- -- ----- -- ------ - ------- --- ----------<br>------------- ------ ------ ---- ---- ------- ----- -- ----<br>-------- ------- -- ---------- --- - --- ----- ----- ----<br>---- --- --- ----- --- ---- ---- ------- ----- ---- -------<br>--- --- -- ----- -- --- ---- to --- ---- -- ------ ------<br>--- ----- -- ----,391218.15499998047,391214.76499998244,391001.165,391001.3650000037,391017.832,391234.503,,46,to
screen,html.Screen,1_1_0_1_47,2021-04-12T20:58:54.265Z,,,,,,,,,,,,,,,,53,,,,,,,,,,,,,,178.25199999753386,,response,,,,99,,,,,,,Space,keypress(Space),,,,,,,,"---- -- ----- -- ------ - ------- --- ----------<br>------------- ------ ------ ---- ---- ------- ----- -- ----<br>-------- ------- -- ---------- --- - --- ----- ----- ----<br>---- --- --- ----- --- ---- ---- ------- ----- ---- -------<br>--- --- -- ----- -- --- ---- -- be, ---- -- ------ ------<br>--- ----- -- ----",391416.1000000022,391412.75499999756,391217.836,391218.52999998373,391234.503,391417.84,,47,"be,"
screen,html.Screen,1_1_0_1_48,2021-04-12T20:58:54.456Z,,,,,,,,,,,,,,,,53,,,,,,,,,,,,,,185.82999998220475,,response,,,,99,,,,,,,Space,keypress(Space),,,,,,,,---- -- ----- -- ------ - ------- --- ----------<br>------------- ------ ------ ---- ---- ------- ----- -- ----<br>-------- ------- -- ---------- --- - --- ----- ----- ----<br>---- --- --- ----- --- ---- ---- ------- ----- ---- -------<br>--- --- -- ----- -- --- ---- -- --- even -- ------ ------<br>--- ----- -- ----,391606.99999998906,391603.66999998223,391401.173,391416.2999999826,391417.84,391617.844,,48,even
screen,html.Screen,1_1_0_1_49,2021-04-12T20:58:54.653Z,,,,,,,,,,,,,,,,53,,,,,,,,,,,,,,182.88599998812424,,response,,,,99,,,,,,,Space,keypress(Space),,,,,,,,---- -- ----- -- ------ - ------- --- ----------<br>------------- ------ ------ ---- ---- ------- ----- -- ----<br>-------- ------- -- ---------- --- - --- ----- ----- ----<br>---- --- --- ----- --- ---- ---- ------- ----- ---- -------<br>--- --- -- ----- -- --- ---- -- --- ---- if ------ ------<br>--- ----- -- ----,391804.18000000645,391800.7299999881,391601.177,391607.1749999828,391617.844,391817.848,,49,if
screen,html.Screen,1_1_0_1_50,2021-04-12T20:58:54.844Z,,,,,,,,,,,,,,,,53,,,,,,,,,,,,,,173.7569999883417,,response,,,,99,,,,,,,Space,keypress(Space),,,,,,,,---- -- ----- -- ------ - ------- --- ----------<br>------------- ------ ------ ---- ---- ------- ----- -- ----<br>-------- ------- -- ---------- --- - --- ----- ----- ----<br>---- --- --- ----- --- ---- ---- ------- ----- ---- -------<br>--- --- -- ----- -- --- ---- -- --- ---- -- that's ------<br>--- ----- -- ----,391994.94000000414,391991.60499998834,391801.181,391804.3550000002,391817.848,392001.185,,50,that's
screen,html.Screen,1_1_0_1_51,2021-04-12T20:58:55.054Z,,,,,,,,,,,,,,,,53,,,,,,,,,,,,,,200.51999998494284,,response,,,,99,,,,,,,Space,keypress(Space),,,,,,,,---- -- ----- -- ------ - ------- --- ----------<br>------------- ------ ------ ---- ---- ------- ----- -- ----<br>-------- ------- -- ---------- --- - --- ----- ----- ----<br>---- --- --- ----- --- ---- ---- ------- ----- ---- -------<br>--- --- -- ----- -- --- ---- -- --- ---- -- ------ really<br>--- ----- -- ----,392205.17499998095,392201.70499998494,391984.518,391995.1149999979,392001.185,392217.856,,51,really
screen,html.Screen,1_1_0_1_52,2021-04-12T20:58:55.482Z,,,,,,,,,,,,,,,,53,,,,,,,,,,,,,,411.819000003743,,response,,,,99,,,,,,,Space,keypress(Space),,,,,,,,---- -- ----- -- ------ - ------- --- ----------<br>------------- ------ ------ ---- ---- ------- ----- -- ----<br>-------- ------- -- ---------- --- - --- ----- ----- ----<br>---- --- --- ----- --- ---- ---- ------- ----- ---- -------<br>--- --- -- ----- -- --- ---- -- --- ---- -- ------ ------<br>not ----- -- ----,392633.07499999064,392629.6750000038,392201.189,392205.4249999928,392217.856,392634.531,,52,not
screen,html.Screen,1_1_0_1_53,2021-04-12T20:58:55.664Z,,,,,,,,,,,,,,,,53,,,,,,,,,,,,,,177.13399998651585,,response,,,,99,,,,,,,Space,keypress(Space),,,,,,,,---- -- ----- -- ------ - ------- --- ----------<br>------------- ------ ------ ---- ---- ------- ----- -- ----<br>-------- ------- -- ---------- --- - --- ----- ----- ----<br>---- --- --- ----- --- ---- ---- ------- ----- ---- -------<br>--- --- -- ----- -- --- ---- -- --- ---- -- ------ ------<br>--- close -- ----,392815.1300000027,392811.66499998653,392617.864,392633.25499999337,392634.531,392817.868,,53,close
screen,html.Screen,1_1_0_1_54,2021-04-12T20:58:56.009Z,,,,,,,,,,,,,,,,53,,,,,,,,,,,,,,338.77200000104494,,response,,,,99,,,,,,,Space,keypress(Space),,,,,,,,---- -- ----- -- ------ - ------- --- ----------<br>------------- ------ ------ ---- ---- ------- ----- -- ----<br>-------- ------- -- ---------- --- - --- ----- ----- ----<br>---- --- --- ----- --- ---- ---- ------- ----- ---- -------<br>--- --- -- ----- -- --- ---- -- --- ---- -- ------ ------<br>--- ----- at ----,393159.95999998995,393156.64000000106,392801.201,392815.3299999831,392817.868,393167.875,,54,at
screen,html.Screen,1_1_0_1_55,2021-04-12T20:58:56.411Z,,,,,,,,,,,,,,,,53,,,,,,,,,,,,,,390.73499997821636,,response,,,,99,,,,,,,Space,keypress(Space),,,,,,,,---- -- ----- -- ------ - ------- --- ----------<br>------------- ------ ------ ---- ---- ------- ----- -- ----<br>-------- ------- -- ---------- --- - --- ----- ----- ----<br>---- --- --- ----- --- ---- ---- ------- ----- ---- -------<br>--- --- -- ----- -- --- ---- -- --- ---- -- ------ ------<br>--- ----- -- all.,393562.1349999856,393558.6099999782,393151.208,393160.1349999837,393167.875,393567.883,,55,all.
Item 99,flow.Loop,1_1_0_1,2021-04-12T20:58:56.412Z,,,,,,,,,,,,,,,,,,,,,,,,,,,,,,16725.392999978212,,completion,,,,,B,,,,,,,,,,,silence,,,,,393562.5949999958,393558.6099999782,376816.55,376818.66999997874,376833.217,393567.883,,,
Question 1,html.Screen,1_1_0_2,2021-04-12T20:59:00.221Z,,,,,,,,,,,,,,,,,,,,,,,,,,,true,FALSE,,3800.1270000056247,,response,,,,99,B,,,,,,FALSE,click #choice-2,,,,silence,,,,,397371.2649999943,397368.0100000056,393551.216,393562.76999998954,393567.883,397384.626,,,
Question 2,html.Screen,1_1_0_3,2021-04-12T20:59:03.495Z,,,,,,,,,,,,,,,,,,,,,,,,,,,true,TRUE,,3258.033999983163,,response,,,,99,B,,,,,,TRUE,click #choice-1,,,,silence,,,,,400645.57999998215,400642.65999998315,397367.959,397371.4650000038,397384.626,400651.908,,,
Item 99,flow.Sequence,1_1_0,2021-04-12T20:59:03.495Z,,,,,,,,,,,,,,,,,,,,,,,,,,,,,,33810.11599998316,,completion,,,,,,,,,,,,,,,,,,,,,400645.85499998066,400642.65999998315,366815.877,366825.99499999196,366832.544,400651.908,,,
Holding screen,html.Screen,1_1_1_0,2021-04-12T20:59:13.487Z,,,,,,,,,,,,,,,,,,,,,,,,,,,,,,10000.657000000007,,timeout,,,,,,,,,,,,,,,,,,,,,410637.51499998034,410635.898,400635.241,400646.02499999455,400651.908,410652.565,,,
screen,html.Screen,1_1_1_1_0,2021-04-12T20:59:14.460Z,,,,,,,,,,,,,,,,54,,,,,,,,,,,,,,952.7550000023912,,response,,,,100,,,,,,,Space,keypress(Space),,,,,,,,At --- ---- --- ------ ----- ------- ---- -- --- ------- --<br>------- ---------- ------ -- ----- -- ----- -- ---- ------<br>--- ----- --- --- ------ -------- ----- --- ------ ----- --<br>----- ----- ---------- --- --- ------ ------ ---- -- ------<br>------- --- ------ ----- --- ---- ------- -- ---- --- --<br>------- ------,411610.4699999851,411605.3200000024,410635.898,410637.7400000056,410652.565,411619.251,,0,At
screen,html.Screen,1_1_1_1_1,2021-04-12T20:59:14.783Z,,,,,,,,,,,,,,,,54,,,,,,,,,,,,,,310.70399999961955,,response,,,,100,,,,,,,Space,keypress(Space),,,,,,,,-- the ---- --- ------ ----- ------- ---- -- --- ------- --<br>------- ---------- ------ -- ----- -- ----- -- ---- ------<br>--- ----- --- --- ------ -------- ----- --- ------ ----- --<br>----- ----- ---------- --- --- ------ ------ ---- -- ------<br>------- --- ------ ----- --- ---- ------- -- ---- --- --<br>------- ------,411933.3399999887,411929.9549999996,411602.584,411610.7299999858,411619.251,411935.924,,1,the
screen,html.Screen,1_1_1_1_2,2021-04-12T20:59:14.981Z,,,,,,,,,,,,,,,,54,,,,,,,,,,,,,,192.02099998563062,,response,,,,100,,,,,,,Space,keypress(Space),,,,,,,,-- --- time --- ------ ----- ------- ---- -- --- ------- --<br>------- ---------- ------ -- ----- -- ----- -- ---- ------<br>--- ----- --- --- ------ -------- ----- --- ------ ----- --<br>----- ----- ---------- --- --- ------ ------ ---- -- ------<br>------- --- ------ ----- --- ---- ------- -- ---- --- --<br>------- ------,412131.315000006,412127.94499998563,411919.257,411933.51499998244,411935.924,412135.928,,2,time
screen,html.Screen,1_1_1_1_3,2021-04-12T20:59:15.149Z,,,,,,,,,,,,,,,,54,,,,,,,,,,,,,,160.0070000019041,,response,,,,100,,,,,,,Space,keypress(Space),,,,,,,,-- --- ---- the ------ ----- ------- ---- -- --- ------- --<br>------- ---------- ------ -- ----- -- ----- -- ---- ------<br>--- ----- --- --- ------ -------- ----- --- ------ ----- --<br>----- ----- ---------- --- --- ------ ------ ---- -- ------<br>------- --- ------ ----- --- ---- ------- -- ---- --- --<br>------- ------,412299.21999998624,412295.9350000019,412119.261,412131.4849999908,412135.928,412302.598,,3,the
screen,html.Screen,1_1_1_1_4,2021-04-12T20:59:15.314Z,,,,,,,,,,,,,,,,54,,,,,,,,,,,,,,158.3269999921322,,response,,,,100,,,,,,,Space,keypress(Space),,,,,,,,-- --- ---- --- French ----- ------- ---- -- --- ------- --<br>------- ---------- ------ -- ----- -- ----- -- ---- ------<br>--- ----- --- --- ------ -------- ----- --- ------ ----- --<br>----- ----- ---------- --- --- ------ ------ ---- -- ------<br>------- --- ------ ----- --- ---- ------- -- ---- --- --<br>------- ------,412464.13499998744,412460.92499999213,412285.931,412299.38499999116,412302.598,412469.268,,4,French
screen,html.Screen,1_1_1_1_5,2021-04-12T20:59:15.478Z,,,,,,,,,,,,,,,,54,,,,,,,,,,,,,,155.64199998410186,,response,,,,100,,,,,,,Space,keypress(Space),,,,,,,,-- --- ---- --- ------ crown ------- ---- -- --- ------- --<br>------- ---------- ------ -- ----- -- ----- -- ---- ------<br>--- ----- --- --- ------ -------- ----- --- ------ ----- --<br>----- ----- ---------- --- --- ------ ------ ---- -- ------<br>------- --- ------ ----- --- ---- ------- -- ---- --- --<br>------- ------,412628.3799999801,412624.9099999841,412452.601,412464.30500000133,412469.268,412635.938,,5,crown
screen,html.Screen,1_1_1_1_6,2021-04-12T20:59:15.633Z,,,,,,,,,,,,,,,,54,,,,,,,,,,,,,,143.8370000026771,,response,,,,100,,,,,,,Space,keypress(Space),,,,,,,,-- --- ---- --- ------ ----- secured ---- -- --- ------- --<br>------- ---------- ------ -- ----- -- ----- -- ---- ------<br>--- ----- --- --- ------ -------- ----- --- ------ ----- --<br>----- ----- ---------- --- --- ------ ------ ---- -- ------<br>------- --- ------ ----- --- ---- ------- -- ---- --- --<br>------- ------,412783.0350000004,412779.7750000027,412619.271,412628.55500000296,412635.938,412785.941,,6,secured
screen,html.Screen,1_1_1_1_7,2021-04-12T20:59:15.779Z,,,,,,,,,,,,,,,,54,,,,,,,,,,,,,,139.94400000420865,,response,,,,100,,,,,,,Space,keypress(Space),,,,,,,,-- --- ---- --- ------ ----- ------- much -- --- ------- --<br>------- ---------- ------ -- ----- -- ----- -- ---- ------<br>--- ----- --- --- ------ -------- ----- --- ------ ----- --<br>----- ----- ---------- --- --- ------ ------ ---- -- ------<br>------- --- ------ ----- --- ---- ------- -- ---- --- --<br>------- ------,412929.18000000645,412925.8850000042,412769.274,412783.2000000053,412785.941,412935.944,,7,much
screen,html.Screen,1_1_1_1_8,2021-04-12T20:59:16.471Z,,,,,,,,,,,,,,,,54,,,,,,,,,,,,,,681.7159999889554,,response,,,,100,,,,,,,Space,keypress(Space),,,,,,,,-- --- ---- --- ------ ----- ------- ---- of --- ------- --<br>------- ---------- ------ -- ----- -- ----- -- ---- ------<br>--- ----- --- --- ------ -------- ----- --- ------ ----- --<br>----- ----- ---------- --- --- ------ ------ ---- -- ------<br>------- --- ------ ----- --- ---- ------- -- ---- --- --<br>------- ------,413621.19499998516,413617.659999989,412919.277,412929.3449999823,412935.944,413635.958,,8,of
screen,html.Screen,1_1_1_1_9,2021-04-12T20:59:16.752Z,,,,,,,,,,,,,,,,54,,,,,,,,,,,,,,262.8620000021765,,response,,,,100,,,,,,,Space,keypress(Space),,,,,,,,-- --- ---- --- ------ ----- ------- ---- -- its ------- --<br>------- ---------- ------ -- ----- -- ----- -- ---- ------<br>--- ----- --- --- ------ -------- ----- --- ------ ----- --<br>----- ----- ---------- --- --- ------ ------ ---- -- ------<br>------- --- ------ ----- --- ---- ------- -- ---- --- --<br>------- ------,413902.1150000044,413898.82000000216,413619.291,413621.3749999879,413635.958,413919.297,,9,its
screen,html.Screen,1_1_1_1_10,2021-04-12T20:59:17.134Z,,,,,,,,,,,,,,,,54,,,,,,,,,,,,,,361.50299997860566,,response,,,,100,,,,,,,Space,keypress(Space),,,,,,,,-- --- ---- --- ------ ----- ------- ---- -- --- revenue --<br>------- ---------- ------ -- ----- -- ----- -- ---- ------<br>--- ----- --- --- ------ -------- ----- --- ------ ----- --<br>----- ----- ---------- --- --- ------ ------ ---- -- ------<br>------- --- ------ ----- --- ---- ------- -- ---- --- --<br>------- ------,414284.1550000012,414280.7999999786,413902.63,413902.2899999982,413919.297,414285.971,,10,revenue
screen,html.Screen,1_1_1_1_11,2021-04-12T20:59:17.562Z,,,,,,,,,,,,,,,,54,,,,,,,,,,,,,,422.8289999930421,,response,,,,100,,,,,,,Space,keypress(Space),,,,,,,,-- --- ---- --- ------ ----- ------- ---- -- --- ------- by<br>------- ---------- ------ -- ----- -- ----- -- ---- ------<br>--- ----- --- --- ------ -------- ----- --- ------ ----- --<br>----- ----- ---------- --- --- ------ ------ ---- -- ------<br>------- --- ------ ----- --- ---- ------- -- ---- --- --<br>------- ------,414712.26000000024,414708.79999999306,414269.304,414284.324999986,414285.971,414719.313,,11,by
screen,html.Screen,1_1_1_1_12,2021-04-12T20:59:17.945Z,,,,,,,,,,,,,,,,54,,,,,,,,,,,,,,372.4420000012615,,response,,,,100,,,,,,,Space,keypress(Space),,,,,,,,-- --- ---- --- ------ ----- ------- ---- -- --- ------- --<br>issuing ---------- ------ -- ----- -- ----- -- ---- ------<br>--- ----- --- --- ------ -------- ----- --- ------ ----- --<br>----- ----- ---------- --- --- ------ ------ ---- -- ------<br>------- --- ------ ----- --- ---- ------- -- ---- --- --<br>------- ------,415095.21999998833,415091.7550000013,414702.646,414712.42999998503,414719.313,415102.654,,12,issuing
screen,html.Screen,1_1_1_1_13,2021-04-12T20:59:18.201Z,,,,,,,,,,,,,,,,54,,,,,,,,,,,,,,245.08099998848047,,response,,,,100,,,,,,,Space,keypress(Space),,,,,,,,-- --- ---- --- ------ ----- ------- ---- -- --- ------- --<br>------- government ------ -- ----- -- ----- -- ---- ------<br>--- ----- --- --- ------ -------- ----- --- ------ ----- --<br>----- ----- ---------- --- --- ------ ------ ---- -- ------<br>------- --- ------ ----- --- ---- ------- -- ---- --- --<br>------- ------,415351.3899999962,415347.73499998846,415085.987,415095.3900000022,415102.654,415352.659,,13,government
screen,html.Screen,1_1_1_1_14,2021-04-12T20:59:18.493Z,,,,,,,,,,,,,,,,54,,,,,,,,,,,,,,287.0559999975376,,response,,,,100,,,,,,,Space,keypress(Space),,,,,,,,-- --- ---- --- ------ ----- ------- ---- -- --- ------- --<br>------- ---------- bonds. -- ----- -- ----- -- ---- ------<br>--- ----- --- --- ------ -------- ----- --- ------ ----- --<br>----- ----- ---------- --- --- ------ ------ ---- -- ------<br>------- --- ------ ----- --- ---- ------- -- ---- --- --<br>------- ------,415643.04500000435,415639.7149999975,415335.992,415351.6299999901,415352.659,415652.665,,14,bonds.
screen,html.Screen,1_1_1_1_15,2021-04-12T20:59:18.778Z,,,,,,,,,,,,,,,,54,,,,,,,,,,,,,,272.0299999942654,,response,,,,100,,,,,,,Space,keypress(Space),,,,,,,,-- --- ---- --- ------ ----- ------- ---- -- --- ------- --<br>------- ---------- ------ In ----- -- ----- -- ---- ------<br>--- ----- --- --- ------ -------- ----- --- ------ ----- --<br>----- ----- ---------- --- --- ------ ------ ---- -- ------<br>------- --- ------ ----- --- ---- ------- -- ---- --- --<br>------- ------,415928.16499999026,415924.69499999424,415635.998,415643.24499998474,415652.665,415936.004,,15,In
screen,html.Screen,1_1_1_1_16,2021-04-12T20:59:19.048Z,,,,,,,,,,,,,,,,54,,,,,,,,,,,,,,258.5959999879706,,response,,,,100,,,,,,,Space,keypress(Space),,,,,,,,"-- --- ---- --- ------ ----- ------- ---- -- --- ------- --<br>------- ---------- ------ -- 1727, -- ----- -- ---- ------<br>--- ----- --- --- ------ -------- ----- --- ------ ----- --<br>----- ----- ---------- --- --- ------ ------ ---- -- ------<br>------- --- ------ ----- --- ---- ------- -- ---- --- --<br>------- ------",416198.12499999534,416194.599999988,415919.337,415928.344999993,415936.004,416202.676,,16,"1727,"
screen,html.Screen,1_1_1_1_17,2021-04-12T20:59:19.294Z,,,,,,,,,,,,,,,,54,,,,,,,,,,,,,,237.9839999929536,,response,,,,100,,,,,,,Space,keypress(Space),,,,,,,,-- --- ---- --- ------ ----- ------- ---- -- --- ------- --<br>------- ---------- ------ -- ----- in ----- -- ---- ------<br>--- ----- --- --- ------ -------- ----- --- ------ ----- --<br>----- ----- ---------- --- --- ------ ------ ---- -- ------<br>------- --- ------ ----- --- ---- ------- -- ---- --- --<br>------- ------,416444.1050000023,416440.65999999293,416186.009,416198.3049999981,416202.676,416452.681,,17,in
screen,html.Screen,1_1_1_1_18,2021-04-12T20:59:19.524Z,,,,,,,,,,,,,,,,54,,,,,,,,,,,,,,217.94399999885354,,response,,,,100,,,,,,,Space,keypress(Space),,,,,,,,-- --- ---- --- ------ ----- ------- ---- -- --- ------- --<br>------- ---------- ------ -- ----- -- order -- ---- ------<br>--- ----- --- --- ------ -------- ----- --- ------ ----- --<br>----- ----- ---------- --- --- ------ ------ ---- -- ------<br>------- --- ------ ----- --- ---- ------- -- ---- --- --<br>------- ------,416674.21999998624,416670.62499999884,416436.014,416444.27999999607,416452.681,416686.019,,18,order
screen,html.Screen,1_1_1_1_19,2021-04-12T20:59:19.745Z,,,,,,,,,,,,,,,,54,,,,,,,,,,,,,,205.61600000725593,,response,,,,100,,,,,,,Space,keypress(Space),,,,,,,,-- --- ---- --- ------ ----- ------- ---- -- --- ------- --<br>------- ---------- ------ -- ----- -- ----- to ---- ------<br>--- ----- --- --- ------ -------- ----- --- ------ ----- --<br>----- ----- ---------- --- --- ------ ------ ---- -- ------<br>------- --- ------ ----- --- ---- ------- -- ---- --- --<br>------- ------,416895.1299999899,416891.6350000072,416669.352,416674.39499998,416686.019,416902.69,,19,to
screen,html.Screen,1_1_1_1_20,2021-04-12T20:59:19.974Z,,,,,,,,,,,,,,,,54,,,,,,,,,,,,,,217.91999998356914,,response,,,,100,,,,,,,Space,keypress(Space),,,,,,,,-- --- ---- --- ------ ----- ------- ---- -- --- ------- --<br>------- ---------- ------ -- ----- -- ----- -- save ------<br>--- ----- --- --- ------ -------- ----- --- ------ ----- --<br>----- ----- ---------- --- --- ------ ------ ---- -- ------<br>------- --- ------ ----- --- ---- ------- -- ---- --- --<br>------- ------,417124.0600000019,417120.6099999836,416886.023,416895.2949999948,416902.69,417136.028,,20,save
screen,html.Screen,1_1_1_1_21,2021-04-12T20:59:20.212Z,,,,,,,,,,,,,,,,54,,,,,,,,,,,,,,222.57699998671887,,response,,,,100,,,,,,,Space,keypress(Space),,,,,,,,"-- --- ---- --- ------ ----- ------- ---- -- --- ------- --<br>------- ---------- ------ -- ----- -- ----- -- ---- money,<br>--- ----- --- --- ------ -------- ----- --- ------ ----- --<br>----- ----- ---------- --- --- ------ ------ ---- -- ------<br>------- --- ------ ----- --- ---- ------- -- ---- --- --<br>------- ------",417362.00999998255,417358.6049999867,417119.361,417124.2299999867,417136.028,417369.366,,21,"money,"
screen,html.Screen,1_1_1_1_22,2021-04-12T20:59:20.464Z,,,,,,,,,,,,,,,,54,,,,,,,,,,,,,,241.21899998764275,,response,,,,100,,,,,,,Space,keypress(Space),,,,,,,,-- --- ---- --- ------ ----- ------- ---- -- --- ------- --<br>------- ---------- ------ -- ----- -- ----- -- ---- ------<br>the ----- --- --- ------ -------- ----- --- ------ ----- --<br>----- ----- ---------- --- --- ------ ------ ---- -- ------<br>------- --- ------ ----- --- ---- ------- -- ---- --- --<br>------- ------,417614.06999998144,417610.5849999876,417352.699,417362.1850000054,417369.366,417619.371,,22,the
screen,html.Screen,1_1_1_1_23,2021-04-12T20:59:20.679Z,,,,,,,,,,,,,,,,54,,,,,,,,,,,,,,206.20900000428082,,response,,,,100,,,,,,,Space,keypress(Space),,,,,,,,-- --- ---- --- ------ ----- ------- ---- -- --- ------- --<br>------- ---------- ------ -- ----- -- ----- -- ---- ------<br>--- state --- --- ------ -------- ----- --- ------ ----- --<br>----- ----- ---------- --- --- ------ ------ ---- -- ------<br>------- --- ------ ----- --- ---- ------- -- ---- --- --<br>------- ------,417829.0749999869,417825.58000000427,417602.704,417614.26999999094,417619.371,417836.042,,23,state
screen,html.Screen,1_1_1_1_24,2021-04-12T20:59:20.899Z,,,,,,,,,,,,,,,,54,,,,,,,,,,,,,,209.51799999864306,,response,,,,100,,,,,,,Space,keypress(Space),,,,,,,,-- --- ---- --- ------ ----- ------- ---- -- --- ------- --<br>------- ---------- ------ -- ----- -- ----- -- ---- ------<br>--- ----- cut --- ------ -------- ----- --- ------ ----- --<br>----- ----- ---------- --- --- ------ ------ ---- -- ------<br>------- --- ------ ----- --- ---- ------- -- ---- --- --<br>------- ------,418049.0099999879,418045.55999999866,417819.375,417829.2649999785,417836.042,418052.713,,24,cut
screen,html.Screen,1_1_1_1_25,2021-04-12T20:59:21.112Z,,,,,,,,,,,,,,,,54,,,,,,,,,,,,,,205.83699999866076,,response,,,,100,,,,,,,Space,keypress(Space),,,,,,,,-- --- ---- --- ------ ----- ------- ---- -- --- ------- --<br>------- ---------- ------ -- ----- -- ----- -- ---- ------<br>--- ----- --- the ------ -------- ----- --- ------ ----- --<br>----- ----- ---------- --- --- ------ ------ ---- -- ------<br>------- --- ------ ----- --- ---- ------- -- ---- --- --<br>------- ------,418261.9100000011,418258.54999999865,418036.046,418049.1800000018,418052.713,418269.836,,25,the
screen,html.Screen,1_1_1_1_26,2021-04-12T20:59:21.307Z,,,,,,,,,,,,,,,,54,,,,,,,,,,,,,,183.69899997871835,,response,,,,100,,,,,,,Space,keypress(Space),,,,,,,,-- --- ---- --- ------ ----- ------- ---- -- --- ------- --<br>------- ---------- ------ -- ----- -- ----- -- ---- ------<br>--- ----- --- --- bonds' -------- ----- --- ------ ----- --<br>----- ----- ---------- --- --- ------ ------ ---- -- ------<br>------- --- ------ ----- --- ---- ------- -- ---- --- --<br>------- ------,418457.12999999523,418453.5349999787,418253.169,418262.0949999837,418269.836,418469.84,,26,bonds'
screen,html.Screen,1_1_1_1_27,2021-04-12T20:59:21.487Z,,,,,,,,,,,,,,,,54,,,,,,,,,,,,,,163.6800000030198,,response,,,,100,,,,,,,Space,keypress(Space),,,,,,,,-- --- ---- --- ------ ----- ------- ---- -- --- ------- --<br>------- ---------- ------ -- ----- -- ----- -- ---- ------<br>--- ----- --- --- ------ interest ----- --- ------ ----- --<br>----- ----- ---------- --- --- ------ ------ ---- -- ------<br>------- --- ------ ----- --- ---- ------- -- ---- --- --<br>------- ------,418636.9799999811,418633.52000000305,418453.173,418457.4250000005,418469.84,418653.177,,27,interest
screen,html.Screen,1_1_1_1_28,2021-04-12T20:59:21.693Z,,,,,,,,,,,,,,,,54,,,,,,,,,,,,,,186.33799999963958,,response,,,,100,,,,,,,Space,keypress(Space),,,,,,,,-- --- ---- --- ------ ----- ------- ---- -- --- ------- --<br>------- ---------- ------ -- ----- -- ----- -- ---- ------<br>--- ----- --- --- ------ -------- rate. --- ------ ----- --<br>----- ----- ---------- --- --- ------ ------ ---- -- ------<br>------- --- ------ ----- --- ---- ------- -- ---- --- --<br>------- ------,418842.9949999845,418839.51499999966,418636.51,418637.1649999928,418653.177,418853.181,,28,rate.
screen,html.Screen,1_1_1_1_29,2021-04-12T20:59:21.935Z,,,,,,,,,,,,,,,,54,,,,,,,,,,,,,,228.31900000025053,,response,,,,100,,,,,,,Space,keypress(Space),,,,,,,,-- --- ---- --- ------ ----- ------- ---- -- --- ------- --<br>------- ---------- ------ -- ----- -- ----- -- ---- ------<br>--- ----- --- --- ------ -------- ----- The ------ ----- --<br>----- ----- ---------- --- --- ------ ------ ---- -- ------<br>------- --- ------ ----- --- ---- ------- -- ---- --- --<br>------- ------,419084.9349999917,419081.50000000023,418836.514,418843.1699999783,418853.181,419086.519,,29,The
screen,html.Screen,1_1_1_1_30,2021-04-12T20:59:22.372Z,,,,,,,,,,,,,,,,54,,,,,,,,,,,,,,431.9409999920754,,response,,,,100,,,,,,,Space,keypress(Space),,,,,,,,-- --- ---- --- ------ ----- ------- ---- -- --- ------- --<br>------- ---------- ------ -- ----- -- ----- -- ---- ------<br>--- ----- --- --- ------ -------- ----- --- market ----- --<br>----- ----- ---------- --- --- ------ ------ ---- -- ------<br>------- --- ------ ----- --- ---- ------- -- ---- --- --<br>------- ------,419521.9199999992,419518.45999999205,419069.852,419085.10500000557,419086.519,419536.528,,30,market
screen,html.Screen,1_1_1_1_31,2021-04-12T20:59:22.654Z,,,,,,,,,,,,,,,,54,,,,,,,,,,,,,,263.92199998063734,,response,,,,100,,,,,,,Space,keypress(Space),,,,,,,,-- --- ---- --- ------ ----- ------- ---- -- --- ------- --<br>------- ---------- ------ -- ----- -- ----- -- ---- ------<br>--- ----- --- --- ------ -------- ----- --- ------ value --<br>----- ----- ---------- --- --- ------ ------ ---- -- ------<br>------- --- ------ ----- --- ---- ------- -- ---- --- --<br>------- ------,419803.9399999834,419800.4499999806,419519.861,419522.089999984,419536.528,419819.867,,31,value
screen,html.Screen,1_1_1_1_32,2021-04-12T20:59:22.905Z,,,,,,,,,,,,,,,,54,,,,,,,,,,,,,,231.56299999222392,,response,,,,100,,,,,,,Space,keypress(Space),,,,,,,,-- --- ---- --- ------ ----- ------- ---- -- --- ------- --<br>------- ---------- ------ -- ----- -- ----- -- ---- ------<br>--- ----- --- --- ------ -------- ----- --- ------ ----- of<br>----- ----- ---------- --- --- ------ ------ ---- -- ------<br>------- --- ------ ----- --- ---- ------- -- ---- --- --<br>------- ------,420054.9599999795,420051.42999999225,419803.2,419804.11999998614,419819.867,420069.872,,32,of
screen,html.Screen,1_1_1_1_33,2021-04-12T20:59:23.226Z,,,,,,,,,,,,,,,,54,,,,,,,,,,,,,,302.4279999881983,,response,,,,100,,,,,,,Space,keypress(Space),,,,,,,,-- --- ---- --- ------ ----- ------- ---- -- --- ------- --<br>------- ---------- ------ -- ----- -- ----- -- ---- ------<br>--- ----- --- --- ------ -------- ----- --- ------ ----- --<br>these ----- ---------- --- --- ------ ------ ---- -- ------<br>------- --- ------ ----- --- ---- ------- -- ---- --- --<br>------- ------,420375.7500000065,420372.2999999882,420053.205,420055.1399999822,420069.872,420386.545,,33,these
screen,html.Screen,1_1_1_1_34,2021-04-12T20:59:23.458Z,,,,,,,,,,,,,,,,54,,,,,,,,,,,,,,217.8549999819952,,response,,,,100,,,,,,,Space,keypress(Space),,,,,,,,-- --- ---- --- ------ ----- ------- ---- -- --- ------- --<br>------- ---------- ------ -- ----- -- ----- -- ---- ------<br>--- ----- --- --- ------ -------- ----- --- ------ ----- --<br>----- bonds ---------- --- --- ------ ------ ---- -- ------<br>------- --- ------ ----- --- ---- ------- -- ---- --- --<br>------- ------,420607.8249999846,420604.399999982,420369.878,420375.9349999891,420386.545,420619.883,,34,bonds
screen,html.Screen,1_1_1_1_35,2021-04-12T20:59:23.626Z,,,,,,,,,,,,,,,,54,,,,,,,,,,,,,,152.48199998255586,,response,,,,100,,,,,,,Space,keypress(Space),,,,,,,,"-- --- ---- --- ------ ----- ------- ---- -- --- ------- --<br>------- ---------- ------ -- ----- -- ----- -- ---- ------<br>--- ----- --- --- ------ -------- ----- --- ------ ----- --<br>----- ----- plummeted, --- --- ------ ------ ---- -- ------<br>------- --- ------ ----- --- ---- ------- -- ---- --- --<br>------- ------",420775.8249999897,420772.3649999825,420603.216,420608.03000000305,420619.883,420786.553,,35,"plummeted,"
screen,html.Screen,1_1_1_1_36,2021-04-12T20:59:23.780Z,,,,,,,,,,,,,,,,54,,,,,,,,,,,,,,139.78199999645585,,response,,,,100,,,,,,,Space,keypress(Space),,,,,,,,-- --- ---- --- ------ ----- ------- ---- -- --- ------- --<br>------- ---------- ------ -- ----- -- ----- -- ---- ------<br>--- ----- --- --- ------ -------- ----- --- ------ ----- --<br>----- ----- ---------- and --- ------ ------ ---- -- ------<br>------- --- ------ ----- --- ---- ------- -- ---- --- --<br>------- ------,420929.7300000035,420926.33499999647,420769.886,420775.9950000036,420786.553,420936.556,,36,and
screen,html.Screen,1_1_1_1_37,2021-04-12T20:59:24.229Z,,,,,,,,,,,,,,,,54,,,,,,,,,,,,,,438.648999989382,,response,,,,100,,,,,,,Space,keypress(Space),,,,,,,,-- --- ---- --- ------ ----- ------- ---- -- --- ------- --<br>------- ---------- ------ -- ----- -- ----- -- ---- ------<br>--- ----- --- --- ------ -------- ----- --- ------ ----- --<br>----- ----- ---------- --- the ------ ------ ---- -- ------<br>------- --- ------ ----- --- ---- ------- -- ---- --- --<br>------- ------,421378.6549999786,421375.20499998936,420919.889,420929.91499998607,420936.556,421386.565,,37,the
screen,html.Screen,1_1_1_1_38,2021-04-12T20:59:24.567Z,,,,,,,,,,,,,,,,54,,,,,,,,,,,,,,326.60999998258194,,response,,,,100,,,,,,,Space,keypress(Space),,,,,,,,-- --- ---- --- ------ ----- ------- ---- -- --- ------- --<br>------- ---------- ------ -- ----- -- ----- -- ---- ------<br>--- ----- --- --- ------ -------- ----- --- ------ ----- --<br>----- ----- ---------- --- --- market ------ ---- -- ------<br>------- --- ------ ----- --- ---- ------- -- ---- --- --<br>------- ------,421716.89999999944,421713.1749999826,421369.898,421378.8300000015,421386.565,421719.905,,38,market
screen,html.Screen,1_1_1_1_39,2021-04-12T20:59:24.800Z,,,,,,,,,,,,,,,,54,,,,,,,,,,,,,,226.3600000059232,,response,,,,100,,,,,,,Space,keypress(Space),,,,,,,,-- --- ---- --- ------ ----- ------- ---- -- --- ------- --<br>------- ---------- ------ -- ----- -- ----- -- ---- ------<br>--- ----- --- --- ------ -------- ----- --- ------ ----- --<br>----- ----- ---------- --- --- ------ became ---- -- ------<br>------- --- ------ ----- --- ---- ------- -- ---- --- --<br>------- ------,421949.7099999862,421946.26500000595,421703.238,421717.06999998423,421719.905,421953.243,,39,became
screen,html.Screen,1_1_1_1_40,2021-04-12T20:59:24.994Z,,,,,,,,,,,,,,,,54,,,,,,,,,,,,,,187.0219999945257,,response,,,,100,,,,,,,Space,keypress(Space),,,,,,,,-- --- ---- --- ------ ----- ------- ---- -- --- ------- --<br>------- ---------- ------ -- ----- -- ----- -- ---- ------<br>--- ----- --- --- ------ -------- ----- --- ------ ----- --<br>----- ----- ---------- --- --- ------ ------ wary -- ------<br>------- --- ------ ----- --- ---- ------- -- ---- --- --<br>------- ------,422143.7250000017,422140.26499999454,421936.576,421949.8800000001,421953.243,422153.247,,40,wary
screen,html.Screen,1_1_1_1_41,2021-04-12T20:59:25.365Z,,,,,,,,,,,,,,,,54,,,,,,,,,,,,,,357.9980000015348,,response,,,,100,,,,,,,Space,keypress(Space),,,,,,,,-- --- ---- --- ------ ----- ------- ---- -- --- ------- --<br>------- ---------- ------ -- ----- -- ----- -- ---- ------<br>--- ----- --- --- ------ -------- ----- --- ------ ----- --<br>----- ----- ---------- --- --- ------ ------ ---- of ------<br>------- --- ------ ----- --- ---- ------- -- ---- --- --<br>------- ------,422514.6550000063,422511.2450000015,422136.58,422143.92000000225,422153.247,422519.921,,41,of
screen,html.Screen,1_1_1_1_42,2021-04-12T20:59:25.697Z,,,,,,,,,,,,,,,,54,,,,,,,,,,,,,,323.30399998964276,,response,,,,100,,,,,,,Space,keypress(Space),,,,,,,,-- --- ---- --- ------ ----- ------- ---- -- --- ------- --<br>------- ---------- ------ -- ----- -- ----- -- ---- ------<br>--- ----- --- --- ------ -------- ----- --- ------ ----- --<br>----- ----- ---------- --- --- ------ ------ ---- -- French<br>------- --- ------ ----- --- ---- ------- -- ---- --- --<br>------- ------,422846.61499998765,422843.2249999896,422503.254,422514.8300000001,422519.921,422853.261,,42,French
screen,html.Screen,1_1_1_1_43,2021-04-12T20:59:26.129Z,,,,,,,,,,,,,,,,54,,,,,,,,,,,,,,421.8839999923366,,response,,,,100,,,,,,,Space,keypress(Space),,,,,,,,-- --- ---- --- ------ ----- ------- ---- -- --- ------- --<br>------- ---------- ------ -- ----- -- ----- -- ---- ------<br>--- ----- --- --- ------ -------- ----- --- ------ ----- --<br>----- ----- ---------- --- --- ------ ------ ---- -- ------<br>credit. --- ------ ----- --- ---- ------- -- ---- --- --<br>------- ------,423278.53999999934,423275.14499999234,422836.594,422846.7899999814,422853.261,423286.603,,43,credit.
screen,html.Screen,1_1_1_1_44,2021-04-12T20:59:26.300Z,,,,,,,,,,,,,,,,54,,,,,,,,,,,,,,159.5819999788655,,response,,,,100,,,,,,,Space,keypress(Space),,,,,,,,-- --- ---- --- ------ ----- ------- ---- -- --- ------- --<br>------- ---------- ------ -- ----- -- ----- -- ---- ------<br>--- ----- --- --- ------ -------- ----- --- ------ ----- --<br>----- ----- ---------- --- --- ------ ------ ---- -- ------<br>------- The ------ ----- --- ---- ------- -- ---- --- --<br>------- ------,423449.5900000038,423446.18499997887,423269.936,423278.70999998413,423286.603,423453.273,,44,The
screen,html.Screen,1_1_1_1_45,2021-04-12T20:59:26.461Z,,,,,,,,,,,,,,,,54,,,,,,,,,,,,,,153.9019999828306,,response,,,,100,,,,,,,Space,keypress(Space),,,,,,,,-- --- ---- --- ------ ----- ------- ---- -- --- ------- --<br>------- ---------- ------ -- ----- -- ----- -- ---- ------<br>--- ----- --- --- ------ -------- ----- --- ------ ----- --<br>----- ----- ---------- --- --- ------ ------ ---- -- ------<br>------- --- French ----- --- ---- ------- -- ---- --- --<br>------- ------,423610.47499999404,423607.1749999828,423436.606,423449.75499997963,423453.273,423619.943,,45,French
screen,html.Screen,1_1_1_1_46,2021-04-12T20:59:26.912Z,,,,,,,,,,,,,,,,54,,,,,,,,,,,,,,438.1919999992824,,response,,,,100,,,,,,,Space,keypress(Space),,,,,,,,-- --- ---- --- ------ ----- ------- ---- -- --- ------- --<br>------- ---------- ------ -- ----- -- ----- -- ---- ------<br>--- ----- --- --- ------ -------- ----- --- ------ ----- --<br>----- ----- ---------- --- --- ------ ------ ---- -- ------<br>------- --- ------ state --- ---- ------- -- ---- --- --<br>------- ------,424062.10499998997,424058.1349999993,423603.276,423610.63999999897,423619.943,424069.952,,46,state
screen,html.Screen,1_1_1_1_47,2021-04-12T20:59:27.072Z,,,,,,,,,,,,,,,,54,,,,,,,,,,,,,,150.01800000556977,,response,,,,100,,,,,,,Space,keypress(Space),,,,,,,,-- --- ---- --- ------ ----- ------- ---- -- --- ------- --<br>------- ---------- ------ -- ----- -- ----- -- ---- ------<br>--- ----- --- --- ------ -------- ----- --- ------ ----- --<br>----- ----- ---------- --- --- ------ ------ ---- -- ------<br>------- --- ------ ----- was ---- ------- -- ---- --- --<br>------- ------,424222.1799999825,424219.97000000556,424053.285,424062.3599999817,424069.952,424236.622,,47,was
screen,html.Screen,1_1_1_1_48,2021-04-12T20:59:27.458Z,,,,,,,,,,,,,,,,54,,,,,,,,,,,,,,367.41800000565127,,response,,,,100,,,,,,,Space,keypress(Space),,,,,,,,-- --- ---- --- ------ ----- ------- ---- -- --- ------- --<br>------- ---------- ------ -- ----- -- ----- -- ---- ------<br>--- ----- --- --- ------ -------- ----- --- ------ ----- --<br>----- ----- ---------- --- --- ------ ------ ---- -- ------<br>------- --- ------ ----- --- left ------- -- ---- --- --<br>------- ------,424607.5199999905,424604.0400000056,424219.955,424222.299999994,424236.622,424619.963,,48,left
screen,html.Screen,1_1_1_1_49,2021-04-12T20:59:27.624Z,,,,,,,,,,,,,,,,54,,,,,,,,,,,,,,150.00699999392964,,response,,,,100,,,,,,,Space,keypress(Space),,,,,,,,-- --- ---- --- ------ ----- ------- ---- -- --- ------- --<br>------- ---------- ------ -- ----- -- ----- -- ---- ------<br>--- ----- --- --- ------ -------- ----- --- ------ ----- --<br>----- ----- ---------- --- --- ------ ------ ---- -- ------<br>------- --- ------ ----- --- ---- without -- ---- --- --<br>------- ------,424773.4449999989,424769.9699999939,424603.296,424607.69000000437,424619.963,424786.633,,49,without
screen,html.Screen,1_1_1_1_50,2021-04-12T20:59:27.993Z,,,,,,,,,,,,,,,,54,,,,,,,,,,,,,,352.41699999797856,,response,,,,100,,,,,,,Space,keypress(Space),,,,,,,,-- --- ---- --- ------ ----- ------- ---- -- --- ------- --<br>------- ---------- ------ -- ----- -- ----- -- ---- ------<br>--- ----- --- --- ------ -------- ----- --- ------ ----- --<br>----- ----- ---------- --- --- ------ ------ ---- -- ------<br>------- --- ------ ----- --- ---- ------- an ---- --- --<br>------- ------,425142.439999996,425139.04999999795,424769.966,424773.61999999266,424786.633,425153.307,,50,an
screen,html.Screen,1_1_1_1_51,2021-04-12T20:59:28.136Z,,,,,,,,,,,,,,,,54,,,,,,,,,,,,,,128.78800000232877,,response,,,,100,,,,,,,Space,keypress(Space),,,,,,,,-- --- ---- --- ------ ----- ------- ---- -- --- ------- --<br>------- ---------- ------ -- ----- -- ----- -- ---- ------<br>--- ----- --- --- ------ -------- ----- --- ------ ----- --<br>----- ----- ---------- --- --- ------ ------ ---- -- ------<br>------- --- ------ ----- --- ---- ------- -- easy --- --<br>------- ------,425285.49499998917,425282.0950000023,425136.64,425142.6050000009,425153.307,425286.643,,51,easy
screen,html.Screen,1_1_1_1_52,2021-04-12T20:59:28.590Z,,,,,,,,,,,,,,,,54,,,,,,,,,,,,,,449.34699998650467,,response,,,,100,,,,,,,Space,keypress(Space),,,,,,,,-- --- ---- --- ------ ----- ------- ---- -- --- ------- --<br>------- ---------- ------ -- ----- -- ----- -- ---- ------<br>--- ----- --- --- ------ -------- ----- --- ------ ----- --<br>----- ----- ---------- --- --- ------ ------ ---- -- ------<br>------- --- ------ ----- --- ---- ------- -- ---- way --<br>------- ------,425739.4299999869,425735.9899999865,425269.976,425285.66500000306,425286.643,425753.319,,52,way
screen,html.Screen,1_1_1_1_53,2021-04-12T20:59:28.728Z,,,,,,,,,,,,,,,,54,,,,,,,,,,,,,,120.73099998396356,,response,,,,100,,,,,,,Space,keypress(Space),,,,,,,,-- --- ---- --- ------ ----- ------- ---- -- --- ------- --<br>------- ---------- ------ -- ----- -- ----- -- ---- ------<br>--- ----- --- --- ------ -------- ----- --- ------ ----- --<br>----- ----- ---------- --- --- ------ ------ ---- -- ------<br>------- --- ------ ----- --- ---- ------- -- ---- --- of<br>------- ------,425877.444999991,425874.049999984,425736.652,425739.6099999896,425753.319,425886.655,,53,of
screen,html.Screen,1_1_1_1_54,2021-04-12T20:59:29.209Z,,,,,,,,,,,,,,,,54,,,,,,,,,,,,,,468.3449999813456,,response,,,,100,,,,,,,Space,keypress(Space),,,,,,,,-- --- ---- --- ------ ----- ------- ---- -- --- ------- --<br>------- ---------- ------ -- ----- -- ----- -- ---- ------<br>--- ----- --- --- ------ -------- ----- --- ------ ----- --<br>----- ----- ---------- --- --- ------ ------ ---- -- ------<br>------- --- ------ ----- --- ---- ------- -- ---- --- --<br>raising ------,426358.4200000041,426354.9999999814,425869.988,425877.61999998474,425886.655,426369.998,,54,raising
screen,html.Screen,1_1_1_1_55,2021-04-12T20:59:29.595Z,,,,,,,,,,,,,,,,54,,,,,,,,,,,,,,370.99700000009034,,response,,,,100,,,,,,,Space,keypress(Space),,,,,,,,-- --- ---- --- ------ ----- ------- ---- -- --- ------- --<br>------- ---------- ------ -- ----- -- ----- -- ---- ------<br>--- ----- --- --- ------ -------- ----- --- ------ ----- --<br>----- ----- ---------- --- --- ------ ------ ---- -- ------<br>------- --- ------ ----- --- ---- ------- -- ---- --- --<br>------- money.,426744.5899999875,426740.9950000001,426353.331,426358.5899999889,426369.998,426753.339,,55,money.
Item 100,flow.Loop,1_1_1_1,2021-04-12T20:59:29.595Z,,,,,,,,,,,,,,,,,,,,,,,,,,,,,,16088.43000000011,,completion,,,,,B,,,,,,,,,,,silence,,,,,426744.94000000414,426740.9950000001,410635.898,410637.68499999424,410652.565,426753.339,,,
Question 1,html.Screen,1_1_1_2,2021-04-12T20:59:31.750Z,,,,,,,,,,,,,,,,,,,,,,,,,,,true,TRUE,,2143.5059999811347,,response,,,,100,B,,,,,,TRUE,click #choice-1,,,,silence,,,,,428899.66500000446,428896.8449999811,426736.672,426745.0700000045,426753.339,428904.027,,,
Question 2,html.Screen,1_1_1_3,2021-04-12T20:59:33.636Z,,,,,,,,,,,,,,,,,,,,,,,,,,,true,FALSE,,1878.2829999804962,,response,,,,100,B,,,,,,FALSE,click #choice-2,,,,silence,,,,,430785.23999999743,430782.3099999805,428887.36,428899.83499998925,428904.027,430787.398,,,
Item 100,flow.Sequence,1_1_1,2021-04-12T20:59:33.636Z,,,,,,,,,,,,,,,,,,,,,,,,,,,,,,30130.401999980502,,completion,,,,,,,,,,,,,,,,,,,,,430785.5249999848,430782.3099999805,400635.241,400645.9749999922,400651.908,430787.398,,,
End of Practice,html.Page,1_1_2,2021-04-12T20:59:35.486Z,,,,,,,,,,,,,,,,,,,,,,,,,,,,,,1847.3819999930565,,form submission,,,,,,,,,,,,,,,,,,,,,432635.0799999782,432634.77999999304,430770.731,430785.6549999851,430787.398,432637.435,,,
Practice,flow.Sequence,1_1,2021-04-12T20:59:35.486Z,,,,,,,,,,,,,,,,,,,,,,,,,,,,,,65802.23599999305,,completion,,,,,,,,,,,,,,,,,,,,,432635.34499998786,432634.77999999304,366815.877,366825.9449999896,366832.544,432637.435,,,
Trap_instruction,html.Page,1_2_0,2021-04-12T20:59:37.971Z,,,,,,,,,,,,,,,,,,,,,,,,,,,,,,2482.979999983043,,form submission,,,,,,,,,,,,,,,,,,,,,435120.8999999799,435120.41499998304,432620.768,432635.5199999816,432637.435,435137.485,,,
trap_trial,html.Screen,1_2_1,2021-04-12T20:59:42.055Z,,,,,,,,,,,,,,,,,,,,,,,,,,,true,1,,4064.11500000034,,response,,,,,,,,,,,1,click #choice-1,,,,,,,,,439204.6350000019,439201.6000000003,435104.151,435121.13499999396,435137.485,439220.9,,,
end of trap trial,html.Page,1_2_2,2021-04-12T20:59:43.610Z,,,,,,,,,,,,,,,,,,,,,,,,,,,,,,1537.88000000373,,form submission,,,,,,,,,,,,,,,,,,,,,440759.10500000464,440758.78000000375,439204.233,439204.81999998447,439220.9,440771.358,,,
Trap 1,flow.Sequence,1_2,2021-04-12T20:59:43.610Z,,,,,,,,,,,,,,,,,,,,,,,,,,,,,,8121.345000003756,,completion,,,,,,,,,,,,,,,,,,,,,440759.389999992,440758.78000000375,432620.768,432635.46999997925,432637.435,440771.358,,,
Standby,html.Page,1_3_0,2021-04-12T20:59:51.607Z,,,,,,,,,,,,,,,,,,,,,,,,,,,,,,8000.159999999974,,timeout,,,,,,,,,,,,,,,,,,,,,448756.389999995,448754.851,440754.691,440759.5750000037,440771.358,448771.518,,,
Holding screen,html.Screen,1_3_1_0_0,2021-04-12T20:59:58.609Z,,,,,,,,,,,,,,,,,,,,,,,,,,,,,,7000.731000000029,,timeout,,,,,,,,,,,,,,,,,,,,,455758.3549999981,455755.582,448754.851,448756.6649999935,448771.518,455772.249,,,
screen,html.Screen,1_3_1_0_1_0,2021-04-12T20:59:59.737Z,,,,,,,,,,,,,,,,15,,,,,,,,,,,,,,1108.9209999787272,,response,,,,7,B,,,,,,Space,keypress(Space),,,,lyrical,,,,Greg --------- ---------- - --- ------- -- --- ------------<br>----- -- -------- ------- ---- ------ - -------- ---- -----<br>--- ------- ---- -- --- -------- --- - ----- ------ ---- --<br>-------- --- -------- -------- --- -------- ---- -- ----- -<br>-------- ---- --- ---------- --------- -- ------- ------ -<br>--------- ----- -----,456885.7349999889,456881.16999997874,455755.582,455758.6199999787,455772.249,456888.938,,0,Greg
screen,html.Screen,1_3_1_0_1_1,2021-04-12T21:00:00.285Z,,,,,,,,,,,,,,,,15,,,,,,,,,,,,,,541.5469999898341,,response,,,,7,B,,,,,,Space,keypress(Space),,,,lyrical,,,,"---- Anderson, ---------- - --- ------- -- --- ------------<br>----- -- -------- ------- ---- ------ - -------- ---- -----<br>--- ------- ---- -- --- -------- --- - ----- ------ ---- --<br>-------- --- -------- -------- --- -------- ---- -- ----- -<br>-------- ---- --- ---------- --------- -- ------- ------ -<br>--------- ----- -----",457433.9800000016,457430.48499998986,456872.271,456885.9399999783,456888.938,457438.949,,1,"Anderson,"
screen,html.Screen,1_3_1_0_1_2,2021-04-12T21:00:00.802Z,,,,,,,,,,,,,,,,15,,,,,,,,,,,,,,508.3509999997914,,response,,,,7,B,,,,,,Space,keypress(Space),,,,lyrical,,,,---- --------- considered - --- ------- -- --- ------------<br>----- -- -------- ------- ---- ------ - -------- ---- -----<br>--- ------- ---- -- --- -------- --- - ----- ------ ---- --<br>-------- --- -------- -------- --- -------- ---- -- ----- -<br>-------- ---- --- ---------- --------- -- ------- ------ -<br>--------- ----- -----,457950.9549999784,457947.2999999998,457422.282,457434.1499999864,457438.949,457955.626,,2,considered
screen,html.Screen,1_3_1_0_1_3,2021-04-12T21:00:01.208Z,,,,,,,,,,,,,,,,15,,,,,,,,,,,,,,397.803999988304,,response,,,,7,B,,,,,,Space,keypress(Space),,,,lyrical,,,,---- --------- ---------- a --- ------- -- --- ------------<br>----- -- -------- ------- ---- ------ - -------- ---- -----<br>--- ------- ---- -- --- -------- --- - ----- ------ ---- --<br>-------- --- -------- -------- --- -------- ---- -- ----- -<br>-------- ---- --- ---------- --------- -- ------- ------ -<br>--------- ----- -----,458356.9199999911,458353.4299999883,457938.959,457951.11999998335,457955.626,458372.301,,3,a
screen,html.Screen,1_3_1_0_1_4,2021-04-12T21:00:01.654Z,,,,,,,,,,,,,,,,15,,,,,,,,,,,,,,427.0489999866113,,response,,,,7,B,,,,,,Space,keypress(Space),,,,lyrical,,,,---- --------- ---------- - key ------- -- --- ------------<br>----- -- -------- ------- ---- ------ - -------- ---- -----<br>--- ------- ---- -- --- -------- --- - ----- ------ ---- --<br>-------- --- -------- -------- --- -------- ---- -- ----- -<br>-------- ---- --- ---------- --------- -- ------- ------ -<br>--------- ----- -----,458802.96499998076,458799.3499999866,458355.634,458357.090000005,458372.301,458805.643,,4,key
screen,html.Screen,1_3_1_0_1_5,2021-04-12T21:00:01.858Z,,,,,,,,,,,,,,,,15,,,,,,,,,,,,,,197.70699998451164,,response,,,,7,B,,,,,,Space,keypress(Space),,,,lyrical,,,,---- --------- ---------- - --- witness -- --- ------------<br>----- -- -------- ------- ---- ------ - -------- ---- -----<br>--- ------- ---- -- --- -------- --- - ----- ------ ---- --<br>-------- --- -------- -------- --- -------- ---- -- ----- -<br>-------- ---- --- ---------- --------- -- ------- ------ -<br>--------- ----- -----,459006.77999999607,459003.3499999845,458788.976,458803.1299999857,458805.643,459022.314,,5,witness
screen,html.Screen,1_3_1_0_1_6,2021-04-12T21:00:02.284Z,,,,,,,,,,,,,,,,15,,,,,,,,,,,,,,406.91599997971207,,response,,,,7,B,,,,,,Space,keypress(Space),,,,lyrical,,,,---- --------- ---------- - --- ------- by --- ------------<br>----- -- -------- ------- ---- ------ - -------- ---- -----<br>--- ------- ---- -- --- -------- --- - ----- ------ ---- --<br>-------- --- -------- -------- --- -------- ---- -- ----- -<br>-------- ---- --- ---------- --------- -- ------- ------ -<br>--------- ----- -----,459432.8099999984,459429.2299999797,459005.647,459006.95499998983,459022.314,459438.989,,6,by
screen,html.Screen,1_3_1_0_1_7,2021-04-12T21:00:02.654Z,,,,,,,,,,,,,,,,15,,,,,,,,,,,,,,360.3060000043479,,response,,,,7,B,,,,,,Space,keypress(Space),,,,lyrical,,,,---- --------- ---------- - --- ------- -- the ------------<br>----- -- -------- ------- ---- ------ - -------- ---- -----<br>--- ------- ---- -- --- -------- --- - ----- ------ ---- --<br>-------- --- -------- -------- --- -------- ---- -- ----- -<br>-------- ---- --- ---------- --------- -- ------- ------ -<br>--------- ----- -----,459802.6249999821,459799.29500000435,459422.322,459433.0599999812,459438.989,459805.663,,7,the
screen,html.Screen,1_3_1_0_1_8,2021-04-12T21:00:02.829Z,,,,,,,,,,,,,,,,15,,,,,,,,,,,,,,168.64199998154072,,response,,,,7,B,,,,,,Space,keypress(Space),,,,lyrical,,,,"---- --------- ---------- - --- ------- -- --- prosecution,<br>----- -- -------- ------- ---- ------ - -------- ---- -----<br>--- ------- ---- -- --- -------- --- - ----- ------ ---- --<br>-------- --- -------- -------- --- -------- ---- -- ----- -<br>-------- ---- --- ---------- --------- -- ------- ------ -<br>--------- ----- -----",459978.02499998943,459974.30499998154,459788.996,459802.79499999597,459805.663,459989,,8,"prosecution,"
screen,html.Screen,1_3_1_0_1_9,2021-04-12T21:00:03.214Z,,,,,,,,,,,,,,,,15,,,,,,,,,,,,,,370.230000001844,,response,,,,7,B,,,,,,Space,keypress(Space),,,,lyrical,,,,---- --------- ---------- - --- ------- -- --- ------------<br>vowed -- -------- ------- ---- ------ - -------- ---- -----<br>--- ------- ---- -- --- -------- --- - ----- ------ ---- --<br>-------- --- -------- -------- --- -------- ---- -- ----- -<br>-------- ---- --- ---------- --------- -- ------- ------ -<br>--------- ----- -----,460362.98000000534,460359.23000000184,459972.333,459978.1950000033,459989,460372.838,,9,vowed
screen,html.Screen,1_3_1_0_1_10,2021-04-12T21:00:03.516Z,,,,,,,,,,,,,,,,15,,,,,,,,,,,,,,288.3669999821577,,response,,,,7,B,,,,,,Space,keypress(Space),,,,lyrical,,,,---- --------- ---------- - --- ------- -- --- ------------<br>----- he -------- ------- ---- ------ - -------- ---- -----<br>--- ------- ---- -- --- -------- --- - ----- ------ ---- --<br>-------- --- -------- -------- --- -------- ---- -- ----- -<br>-------- ---- --- ---------- --------- -- ------- ------ -<br>--------- ----- -----,460664.8850000056,460661.20499998215,460356.171,460363.1499999901,460372.838,460672.844,,10,he
screen,html.Screen,1_3_1_0_1_11,2021-04-12T21:00:03.742Z,,,,,,,,,,,,,,,,15,,,,,,,,,,,,,,214.25099998369114,,response,,,,7,B,,,,,,Space,keypress(Space),,,,lyrical,,,,---- --------- ---------- - --- ------- -- --- ------------<br>----- -- wouldn't ------- ---- ------ - -------- ---- -----<br>--- ------- ---- -- --- -------- --- - ----- ------ ---- --<br>-------- --- -------- -------- --- -------- ---- -- ----- -<br>-------- ---- --- ---------- --------- -- ------- ------ -<br>--------- ----- -----,460890.4099999927,460887.0949999837,460656.177,460665.0800000061,460672.844,460906.182,,11,wouldn't
screen,html.Screen,1_3_1_0_1_12,2021-04-12T21:00:03.937Z,,,,,,,,,,,,,,,,15,,,,,,,,,,,,,,175.91799999965588,,response,,,,7,B,,,,,,Space,keypress(Space),,,,lyrical,,,,---- --------- ---------- - --- ------- -- --- ------------<br>----- -- -------- testify ---- ------ - -------- ---- -----<br>--- ------- ---- -- --- -------- --- - ----- ------ ---- --<br>-------- --- -------- -------- --- -------- ---- -- ----- -<br>-------- ---- --- ---------- --------- -- ------- ------ -<br>--------- ----- -----,461085.694999987,461082.0999999996,460889.515,460890.5899999954,460906.182,461089.519,,12,testify
screen,html.Screen,1_3_1_0_1_13,2021-04-12T21:00:04.127Z,,,,,,,,,,,,,,,,15,,,,,,,,,,,,,,182.69600000453647,,response,,,,7,B,,,,,,Space,keypress(Space),,,,lyrical,,,,---- --------- ---------- - --- ------- -- --- ------------<br>----- -- -------- ------- when ------ - -------- ---- -----<br>--- ------- ---- -- --- -------- --- - ----- ------ ---- --<br>-------- --- -------- -------- --- -------- ---- -- ----- -<br>-------- ---- --- ---------- --------- -- ------- ------ -<br>--------- ----- -----,461275.8299999987,461272.2150000045,461072.852,461085.8650000009,461089.519,461289.523,,13,when
screen,html.Screen,1_3_1_0_1_14,2021-04-12T21:00:04.608Z,,,,,,,,,,,,,,,,15,,,,,,,,,,,,,,463.6669999885489,,response,,,,7,B,,,,,,Space,keypress(Space),,,,lyrical,,,,---- --------- ---------- - --- ------- -- --- ------------<br>----- -- -------- ------- ---- served - -------- ---- -----<br>--- ------- ---- -- --- -------- --- - ----- ------ ---- --<br>-------- --- -------- -------- --- -------- ---- -- ----- -<br>-------- ---- --- ---------- --------- -- ------- ------ -<br>--------- ----- -----,461756.9300000032,461753.18999998854,461272.856,461275.9950000036,461289.523,461772.866,,14,served
screen,html.Screen,1_3_1_0_1_15,2021-04-12T21:00:05.013Z,,,,,,,,,,,,,,,,15,,,,,,,,,,,,,,385.2690000051516,,response,,,,7,B,,,,,,Space,keypress(Space),,,,lyrical,,,,---- --------- ---------- - --- ------- -- --- ------------<br>----- -- -------- ------- ---- ------ a -------- ---- -----<br>--- ------- ---- -- --- -------- --- - ----- ------ ---- --<br>-------- --- -------- -------- --- -------- ---- -- ----- -<br>-------- ---- --- ---------- --------- -- ------- ------ -<br>--------- ----- -----,462161.51499998523,462158.13500000513,461756.199,461757.3599999887,461772.866,462172.874,,15,a
screen,html.Screen,1_3_1_0_1_16,2021-04-12T21:00:05.356Z,,,,,,,,,,,,,,,,15,,,,,,,,,,,,,,328.15599998488324,,response,,,,7,B,,,,,,Space,keypress(Space),,,,lyrical,,,,---- --------- ---------- - --- ------- -- --- ------------<br>----- -- -------- ------- ---- ------ - subpoena ---- -----<br>--- ------- ---- -- --- -------- --- - ----- ------ ---- --<br>-------- --- -------- -------- --- -------- ---- -- ----- -<br>-------- ---- --- ---------- --------- -- ------- ------ -<br>--------- ----- -----,462504.5149999787,462501.0299999849,462156.207,462161.74499999033,462172.874,462506.214,,16,subpoena
screen,html.Screen,1_3_1_0_1_17,2021-04-12T21:00:05.786Z,,,,,,,,,,,,,,,,15,,,,,,,,,,,,,,424.9209999916493,,response,,,,7,B,,,,,,Space,keypress(Space),,,,lyrical,,,,---- --------- ---------- - --- ------- -- --- ------------<br>----- -- -------- ------- ---- ------ - -------- last -----<br>--- ------- ---- -- --- -------- --- - ----- ------ ---- --<br>-------- --- -------- -------- --- -------- ---- -- ----- -<br>-------- ---- --- ---------- --------- -- ------- ------ -<br>--------- ----- -----,462934.58999998984,462931.1349999916,462489.547,462504.6849999926,462506.214,462939.556,,17,last
screen,html.Screen,1_3_1_0_1_18,2021-04-12T21:00:05.986Z,,,,,,,,,,,,,,,,15,,,,,,,,,,,,,,191.55899999651592,,response,,,,7,B,,,,,,Space,keypress(Space),,,,lyrical,,,,---- --------- ---------- - --- ------- -- --- ------------<br>----- -- -------- ------- ---- ------ - -------- ---- week.<br>--- ------- ---- -- --- -------- --- - ----- ------ ---- --<br>-------- --- -------- -------- --- -------- ---- -- ----- -<br>-------- ---- --- ---------- --------- -- ------- ------ -<br>--------- ----- -----,463134.7249999817,463131.1149999965,462922.889,462934.76000000373,462939.556,463139.56,,18,week.
screen,html.Screen,1_3_1_0_1_19,2021-04-12T21:00:06.393Z,,,,,,,,,,,,,,,,15,,,,,,,,,,,,,,398.52999998728046,,response,,,,7,B,,,,,,Space,keypress(Space),,,,lyrical,,,,---- --------- ---------- - --- ------- -- --- ------------<br>----- -- -------- ------- ---- ------ - -------- ---- -----<br>His ------- ---- -- --- -------- --- - ----- ------ ---- --<br>-------- --- -------- -------- --- -------- ---- -- ----- -<br>-------- ---- --- ---------- --------- -- ------- ------ -<br>--------- ----- -----,463541.65999998804,463538.0899999873,463122.893,463134.9699999846,463139.56,463556.235,,19,His
screen,html.Screen,1_3_1_0_1_20,2021-04-12T21:00:06.861Z,,,,,,,,,,,,,,,,15,,,,,,,,,,,,,,449.83500000310596,,response,,,,7,B,,,,,,Space,keypress(Space),,,,lyrical,,,,---- --------- ---------- - --- ------- -- --- ------------<br>----- -- -------- ------- ---- ------ - -------- ---- -----<br>--- lawyers ---- -- --- -------- --- - ----- ------ ---- --<br>-------- --- -------- -------- --- -------- ---- -- ----- -<br>-------- ---- --- ---------- --------- -- ------- ------ -<br>--------- ----- -----,464010.0799999782,464006.0700000031,463539.568,463541.83000000194,463556.235,464022.911,,20,lawyers
screen,html.Screen,1_3_1_0_1_21,2021-04-12T21:00:07.048Z,,,,,,,,,,,,,,,,15,,,,,,,,,,,,,,169.97900000569643,,response,,,,7,B,,,,,,Space,keypress(Space),,,,lyrical,,,,---- --------- ---------- - --- ------- -- --- ------------<br>----- -- -------- ------- ---- ------ - -------- ---- -----<br>--- ------- said -- --- -------- --- - ----- ------ ---- --<br>-------- --- -------- -------- --- -------- ---- -- ----- -<br>-------- ---- --- ---------- --------- -- ------- ------ -<br>--------- ----- -----,464196.5799999889,464192.8900000057,464006.244,464010.2799999877,464022.911,464206.248,,21,said
screen,html.Screen,1_3_1_0_1_22,2021-04-12T21:00:07.280Z,,,,,,,,,,,,,,,,15,,,,,,,,,,,,,,218.73699999053497,,response,,,,7,B,,,,,,Space,keypress(Space),,,,lyrical,,,,---- --------- ---------- - --- ------- -- --- ------------<br>----- -- -------- ------- ---- ------ - -------- ---- -----<br>--- ------- ---- he --- -------- --- - ----- ------ ---- --<br>-------- --- -------- -------- --- -------- ---- -- ----- -<br>-------- ---- --- ---------- --------- -- ------- ------ -<br>--------- ----- -----,464428.80999998306,464424.98499999056,464189.581,464196.7500000028,464206.248,464439.586,,22,he
screen,html.Screen,1_3_1_0_1_23,2021-04-12T21:00:07.604Z,,,,,,,,,,,,,,,,15,,,,,,,,,,,,,,309.4239999995334,,response,,,,7,B,,,,,,Space,keypress(Space),,,,lyrical,,,,---- --------- ---------- - --- ------- -- --- ------------<br>----- -- -------- ------- ---- ------ - -------- ---- -----<br>--- ------- ---- -- was -------- --- - ----- ------ ---- --<br>-------- --- -------- -------- --- -------- ---- -- ----- -<br>-------- ---- --- ---------- --------- -- ------- ------ -<br>--------- ----- -----,464752.6549999893,464749.00999999954,464422.919,464428.97999999695,464439.586,464756.259,,23,was
screen,html.Screen,1_3_1_0_1_24,2021-04-12T21:00:07.806Z,,,,,,,,,,,,,,,,15,,,,,,,,,,,,,,194.59099999378668,,response,,,,7,B,,,,,,Space,keypress(Space),,,,lyrical,,,,---- --------- ---------- - --- ------- -- --- ------------<br>----- -- -------- ------- ---- ------ - -------- ---- -----<br>--- ------- ---- -- --- prepared --- - ----- ------ ---- --<br>-------- --- -------- -------- --- -------- ---- -- ----- -<br>-------- ---- --- ---------- --------- -- ------- ------ -<br>--------- ----- -----,464954.12999999826,464950.8499999938,464739.592,464752.8699999966,464756.259,464956.263,,24,prepared
screen,html.Screen,1_3_1_0_1_25,2021-04-12T21:00:08.049Z,,,,,,,,,,,,,,,,15,,,,,,,,,,,,,,237.81699998659315,,response,,,,7,B,,,,,,Space,keypress(Space),,,,lyrical,,,,---- --------- ---------- - --- ------- -- --- ------------<br>----- -- -------- ------- ---- ------ - -------- ---- -----<br>--- ------- ---- -- --- -------- for - ----- ------ ---- --<br>-------- --- -------- -------- --- -------- ---- -- ----- -<br>-------- ---- --- ---------- --------- -- ------- ------ -<br>--------- ----- -----,465197.5799999782,465194.07999998657,464939.596,464954.310000001,464956.263,465206.268,,25,for
screen,html.Screen,1_3_1_0_1_26,2021-04-12T21:00:08.469Z,,,,,,,,,,,,,,,,15,,,,,,,,,,,,,,407.69699999684235,,response,,,,7,B,,,,,,Space,keypress(Space),,,,lyrical,,,,---- --------- ---------- - --- ------- -- --- ------------<br>----- -- -------- ------- ---- ------ - -------- ---- -----<br>--- ------- ---- -- --- -------- --- a ----- ------ ---- --<br>-------- --- -------- -------- --- -------- ---- -- ----- -<br>-------- ---- --- ---------- --------- -- ------- ------ -<br>--------- ----- -----,465617.3649999837,465613.9649999968,465189.601,465197.8249999811,465206.268,465622.943,,26,a
screen,html.Screen,1_3_1_0_1_27,2021-04-12T21:00:08.843Z,,,,,,,,,,,,,,,,15,,,,,,,,,,,,,,364.99699999176664,,response,,,,7,B,,,,,,Space,keypress(Space),,,,lyrical,,,,---- --------- ---------- - --- ------- -- --- ------------<br>----- -- -------- ------- ---- ------ - -------- ---- -----<br>--- ------- ---- -- --- -------- --- - third ------ ---- --<br>-------- --- -------- -------- --- -------- ---- -- ----- -<br>-------- ---- --- ---------- --------- -- ------- ------ -<br>--------- ----- -----,465991.71000000206,465987.9399999918,465606.276,465617.7199999802,465622.943,466006.284,,27,third
screen,html.Screen,1_3_1_0_1_28,2021-04-12T21:00:09.198Z,,,,,,,,,,,,,,,,15,,,,,,,,,,,,,,336.68099998892285,,response,,,,7,B,,,,,,Space,keypress(Space),,,,lyrical,,,,---- --------- ---------- - --- ------- -- --- ------------<br>----- -- -------- ------- ---- ------ - -------- ---- -----<br>--- ------- ---- -- --- -------- --- - ----- prison ---- --<br>-------- --- -------- -------- --- -------- ---- -- ----- -<br>-------- ---- --- ---------- --------- -- ------- ------ -<br>--------- ----- -----,466346.49500000523,466342.9649999889,465989.617,465991.8849999958,466006.284,466356.291,,28,prison
screen,html.Screen,1_3_1_0_1_29,2021-04-12T21:00:09.629Z,,,,,,,,,,,,,,,,15,,,,,,,,,,,,,,417.53399998199893,,response,,,,7,B,,,,,,Space,keypress(Space),,,,lyrical,,,,---- --------- ---------- - --- ------- -- --- ------------<br>----- -- -------- ------- ---- ------ - -------- ---- -----<br>--- ------- ---- -- --- -------- --- - ----- ------ stay --<br>-------- --- -------- -------- --- -------- ---- -- ----- -<br>-------- ---- --- ---------- --------- -- ------- ------ -<br>--------- ----- -----,466777.53999998095,466773.824999982,466339.624,466346.66499999,466356.291,466789.633,,29,stay
screen,html.Screen,1_3_1_0_1_30,2021-04-12T21:00:10.060Z,,,,,,,,,,,,,,,,15,,,,,,,,,,,,,,415.21699998009717,,response,,,,7,B,,,,,,Space,keypress(Space),,,,lyrical,,,,---- --------- ---------- - --- ------- -- --- ------------<br>----- -- -------- ------- ---- ------ - -------- ---- -----<br>--- ------- ---- -- --- -------- --- - ----- ------ ---- to<br>-------- --- -------- -------- --- -------- ---- -- ----- -<br>-------- ---- --- ---------- --------- -- ------- ------ -<br>--------- ----- -----,467208.98500000476,467204.84999998007,466772.966,466777.87499999977,466789.633,467222.975,,30,to
screen,html.Screen,1_3_1_0_1_31,2021-04-12T21:00:10.369Z,,,,,,,,,,,,,,,,15,,,,,,,,,,,,,,290.7050000036834,,response,,,,7,B,,,,,,Space,keypress(Space),,,,lyrical,,,,---- --------- ---------- - --- ------- -- --- ------------<br>----- -- -------- ------- ---- ------ - -------- ---- -----<br>--- ------- ---- -- --- -------- --- - ----- ------ ---- --<br>maintain --- -------- -------- --- -------- ---- -- ----- -<br>-------- ---- --- ---------- --------- -- ------- ------ -<br>--------- ----- -----,467517.3749999958,467513.68000000366,467206.308,467209.9799999851,467222.975,467522.981,,31,maintain
screen,html.Screen,1_3_1_0_1_32,2021-04-12T21:00:10.547Z,,,,,,,,,,,,,,,,15,,,,,,,,,,,,,,168.7890000048792,,response,,,,7,B,,,,,,Space,keypress(Space),,,,lyrical,,,,---- --------- ---------- - --- ------- -- --- ------------<br>----- -- -------- ------- ---- ------ - -------- ---- -----<br>--- ------- ---- -- --- -------- --- - ----- ------ ---- --<br>-------- his -------- -------- --- -------- ---- -- ----- -<br>-------- ---- --- ---------- --------- -- ------- ------ -<br>--------- ----- -----,467695.04999998026,467691.7700000049,467506.314,467517.54999998957,467522.981,467706.318,,32,his
screen,html.Screen,1_3_1_0_1_33,2021-04-12T21:00:10.718Z,,,,,,,,,,,,,,,,15,,,,,,,,,,,,,,156.30699997971533,,response,,,,7,B,,,,,,Space,keypress(Space),,,,lyrical,,,,---- --------- ---------- - --- ------- -- --- ------------<br>----- -- -------- ------- ---- ------ - -------- ---- -----<br>--- ------- ---- -- --- -------- --- - ----- ------ ---- --<br>-------- --- silence. -------- --- -------- ---- -- ----- -<br>-------- ---- --- ---------- --------- -- ------- ------ -<br>--------- ----- -----,467866.23499999405,467862.62499997974,467689.651,467695.229999983,467706.318,467872.988,,33,silence.
screen,html.Screen,1_3_1_0_1_34,2021-04-12T21:00:11.141Z,,,,,,,,,,,,,,,,15,,,,,,,,,,,,,,412.66699998511467,,response,,,,7,B,,,,,,Space,keypress(Space),,,,lyrical,,,,---- --------- ---------- - --- ------- -- --- ------------<br>----- -- -------- ------- ---- ------ - -------- ---- -----<br>--- ------- ---- -- --- -------- --- - ----- ------ ---- --<br>-------- --- -------- Anderson --- -------- ---- -- ----- -<br>-------- ---- --- ---------- --------- -- ------- ------ -<br>--------- ----- -----,468289.2699999793,468285.6549999851,467856.321,467866.40499997884,467872.988,468306.33,,34,Anderson
screen,html.Screen,1_3_1_0_1_35,2021-04-12T21:00:11.537Z,,,,,,,,,,,,,,,,15,,,,,,,,,,,,,,375.2899999884539,,response,,,,7,B,,,,,,Space,keypress(Space),,,,lyrical,,,,---- --------- ---------- - --- ------- -- --- ------------<br>----- -- -------- ------- ---- ------ - -------- ---- -----<br>--- ------- ---- -- --- -------- --- - ----- ------ ---- --<br>-------- --- -------- -------- was -------- ---- -- ----- -<br>-------- ---- --- ---------- --------- -- ------- ------ -<br>--------- ----- -----,468685.18499998027,468681.61999998847,468289.663,468289.4399999932,468306.33,468689.671,,35,was
screen,html.Screen,1_3_1_0_1_36,2021-04-12T21:00:11.813Z,,,,,,,,,,,,,,,,15,,,,,,,,,,,,,,268.0589999946533,,response,,,,7,B,,,,,,Space,keypress(Space),,,,lyrical,,,,---- --------- ---------- - --- ------- -- --- ------------<br>----- -- -------- ------- ---- ------ - -------- ---- -----<br>--- ------- ---- -- --- -------- --- - ----- ------ ---- --<br>-------- --- -------- -------- --- released ---- -- ----- -<br>-------- ---- --- ---------- --------- -- ------- ------ -<br>--------- ----- -----,468961.32000000216,468957.7299999946,468673.004,468685.35499999416,468689.671,468973.01,,36,released
screen,html.Screen,1_3_1_0_1_37,2021-04-12T21:00:12.043Z,,,,,,,,,,,,,,,,15,,,,,,,,,,,,,,214.65500000491738,,response,,,,7,B,,,,,,Space,keypress(Space),,,,lyrical,,,,---- --------- ---------- - --- ------- -- --- ------------<br>----- -- -------- ------- ---- ------ - -------- ---- -----<br>--- ------- ---- -- --- -------- --- - ----- ------ ---- --<br>-------- --- -------- -------- --- -------- July -- ----- -<br>-------- ---- --- ---------- --------- -- ------- ------ -<br>--------- ----- -----,469191.76499999594,469187.6650000049,468956.343,468961.50499998475,468973.01,469206.348,,37,July
screen,html.Screen,1_3_1_0_1_38,2021-04-12T21:00:12.256Z,,,,,,,,,,,,,,,,15,,,,,,,,,,,,,,194.36699999612756,,response,,,,7,B,,,,,,Space,keypress(Space),,,,lyrical,,,,---- --------- ---------- - --- ------- -- --- ------------<br>----- -- -------- ------- ---- ------ - -------- ---- -----<br>--- ------- ---- -- --- -------- --- - ----- ------ ---- --<br>-------- --- -------- -------- --- -------- ---- 20 ----- -<br>-------- ---- --- ---------- --------- -- ------- ------ -<br>--------- ----- -----,469404.42999999505,469400.7149999961,469189.681,469192.0499999833,469206.348,469406.352,,38,20
screen,html.Screen,1_3_1_0_1_39,2021-04-12T21:00:12.854Z,,,,,,,,,,,,,,,,15,,,,,,,,,,,,,,592.1730000026873,,response,,,,7,B,,,,,,Space,keypress(Space),,,,lyrical,,,,---- --------- ---------- - --- ------- -- --- ------------<br>----- -- -------- ------- ---- ------ - -------- ---- -----<br>--- ------- ---- -- --- -------- --- - ----- ------ ---- --<br>-------- --- -------- -------- --- -------- ---- -- after -<br>-------- ---- --- ---------- --------- -- ------- ------ -<br>--------- ----- -----,470002.09500000346,469998.5250000027,469389.685,469404.59999997984,469406.352,470006.364,,39,after
