sender,sender_type,sender_id,timestamp,meta,,Blues,Classical,Country,Dance,Electronic,Folk,Gospel,Hip-Hop,Jazz,Latin,Musical/Film,New-age,Pop,Provo_ID,R&B,Rap,Reggae,Religious,Rock,Soul,Swing,Traditional,age,artist_name,correct,correctResponse,distraction,duration,education,ended_on,familiarity,gender,headphone_check_performance,item,list,music_frequency,offensiveness,pleasantness,position_correct,preference,response,response_action,snippet_file,song_name,song_rating,sound,stimulus_1,stimulus_2,stimulus_3,text,time_commit,time_end,time_render,time_run,time_show,time_switch,url,word,word_ID
Introduction,html.Screen,0_0,2021-04-21T20:48:56.037Z,"{""labjs_version"":""20.2.2"",""labjs_build"":{""flavor"":""production"",""commit"":""a25486e0c714a0ae2ce03ff94b7bb6896854dcfa""},""location"":""https://run.pavlovia.org/mvasilev/music_f/"",""userAgent"":""Mozilla/5.0 (Macintosh; Intel Mac OS X 10_15_6) AppleWebKit/605.1.15 (KHTML, like Gecko) Version/14.0.2 Safari/605.1.15"",""platform"":""MacIntel"",""language"":""en-gb"",""locale"":""en-GB"",""timeZone"":""Europe/London"",""timezoneOffset"":-60,""screen_width"":1280,""screen_height"":800,""scroll_width"":1280,""scroll_height"":568,""window_innerWidth"":1280,""window_innerHeight"":616,""devicePixelRatio"":2}",,,,,,,,,,,,,,,,,,,,,,,,,,,,,5126.000000000004,,response,,,,,,,,,,,continue,click button,,,,,,,,,18155,17676.000000000004,12550,12532,12606,18189,{},,
Volume calibration,html.Screen,0_1,2021-04-21T20:49:26.597Z,,,,,,,,,,,,,,,,,,,,,,,,,,,,,,30586,,response,,,,,,,,,,,continue,click button,,,,,,,,,48714,48759,18173,18156,18189,48742,,,
Task instructions,html.Screen,0_2,2021-04-21T20:50:11.829Z,,,,,,,,,,,,,,,,,,,,,,,,,,,,,,45271,,response,,,,,,,,,,,continue,click button,,,,,,,,,93947,93995,48724,48715,48742,93980,,,
Sounds,html.Screen,0_3_0_0,2021-04-21T20:50:16.098Z,,,,,,,,,,,,,,,,,,,,,,,,,,,,,,4252,,timeout,,,,,,,,,3,,,,,,,,I,O,S,,98216.00000000001,98215,93964,93948.00000000001,93980,98232,,,
Judgement,html.Screen,0_3_0_1,2021-04-21T20:50:18.871Z,,,,,,,,,,,,,,,,,,,,,,,,,,,true,3,,2822,,response,,,,,,,,,3,,3,click #choice-3,,,,,I,O,S,,100990.00000000001,101037,98215,98216.00000000001,98232,101010,,,
Trial,flow.Sequence,0_3_0,2021-04-21T20:50:18.872Z,,,,,,,,,,,,,,,,,,,,,,,,,,,,,,7057,,completion,,,,,,,,,3,,,,,,,,I,O,S,,100990.00000000001,101037,93964,93948.00000000001,93980,101010,,,
Sounds,html.Screen,0_3_1_0,2021-04-21T20:50:23.128Z,,,,,,,,,,,,,,,,,,,,,,,,,,,,,,4251,,timeout,,,,,,,,,2,,,,,,,,O,S,I,,105246,105246,100993,100991,101010,105261,,,
Judgement,html.Screen,0_3_1_1,2021-04-21T20:50:25.125Z,,,,,,,,,,,,,,,,,,,,,,,,,,,true,2,,2046,,response,,,,,,,,,2,,2,click #choice-2,,,,,O,S,I,,107244,107292,105246,105246,105261,107276,,,
Trial,flow.Sequence,0_3_1,2021-04-21T20:50:25.126Z,,,,,,,,,,,,,,,,,,,,,,,,,,,,,,6282,,completion,,,,,,,,,2,,,,,,,,O,S,I,,107244,107292,100993,100990.00000000001,101010,107276,,,
Sounds,html.Screen,0_3_2_0,2021-04-21T20:50:29.394Z,,,,,,,,,,,,,,,,,,,,,,,,,,,,,,4251,,timeout,,,,,,,,,1,,,,,,,,S,I,O,,111512,111512,107260,107244,107276,111527,,,
Judgement,html.Screen,0_3_2_1,2021-04-21T20:50:30.919Z,,,,,,,,,,,,,,,,,,,,,,,,,,,true,1,,1574,,response,,,,,,,,,1,,1,click #choice-1,,,,,S,I,O,,113037,113086,111512,111512,111527,113062,,,
Trial,flow.Sequence,0_3_2,2021-04-21T20:50:30.919Z,,,,,,,,,,,,,,,,,,,,,,,,,,,,,,5810,,completion,,,,,,,,,1,,,,,,,,S,I,O,,113038,113086,107260,107244,107276,113062,,,
Sounds,html.Screen,0_3_3_0,2021-04-21T20:50:35.179Z,,,,,,,,,,,,,,,,,,,,,,,,,,,,,,4251,,timeout,,,,,,,,,3,,,,,,,,O,I,S,,117297,117297,113046,113038,113062,117313,,,
Judgement,html.Screen,0_3_3_1,2021-04-21T20:50:35.802Z,,,,,,,,,,,,,,,,,,,,,,,,,,,true,3,,671,,response,,,,,,,,,3,,3,click #choice-3,,,,,O,I,S,,117920,117968,117297,117297,117313,117948,,,
Trial,flow.Sequence,0_3_3,2021-04-21T20:50:35.802Z,,,,,,,,,,,,,,,,,,,,,,,,,,,,,,4906,,completion,,,,,,,,,3,,,,,,,,O,I,S,,117921,117968,113046,113038,113062,117948,,,
Sounds,html.Screen,0_3_4_0,2021-04-21T20:50:40.064Z,,,,,,,,,,,,,,,,,,,,,,,,,,,,,,4251,,timeout,,,,,,,,,2,,,,,,,,I,S,O,,122183,122183,117931,117921,117948,122199,,,
Judgement,html.Screen,0_3_4_1,2021-04-21T20:50:40.875Z,,,,,,,,,,,,,,,,,,,,,,,,,,,true,2,,859,,response,,,,,,,,,2,,2,click #choice-2,,,,,I,S,O,,122994,123042,122183,122183,122199,123017,,,
Trial,flow.Sequence,0_3_4,2021-04-21T20:50:40.876Z,,,,,,,,,,,,,,,,,,,,,,,,,,,,,,5094,,completion,,,,,,,,,2,,,,,,,,I,S,O,,122994,123042,117931,117921,117948,123017,,,
Sounds,html.Screen,0_3_5_0,2021-04-21T20:50:45.133Z,,,,,,,,,,,,,,,,,,,,,,,,,,,,,,4251,,timeout,,,,,,,,,1,,,,,,,,S,O,I,,127252.00000000001,127252,123000,122994,123017,127268,,,
Judgement,html.Screen,0_3_5_1,2021-04-21T20:50:45.848Z,,,,,,,,,,,,,,,,,,,,,,,,,,,true,1,,763.0000000000146,,response,,,,,,,,,1,,1,click #choice-1,,,,,S,O,I,,127967,128015.00000000001,127252,127252.00000000001,127268,128002,,,
Trial,flow.Sequence,0_3_5,2021-04-21T20:50:45.848Z,,,,,,,,,,,,,,,,,,,,,,,,,,,,,,4998.000000000015,,completion,,,,,,,,,1,,,,,,,,S,O,I,,127967,128015.00000000001,123000,122994,123017,128002,,,
Task,flow.Loop,0_3,2021-04-21T20:50:45.851Z,,,,,,,,,,,,,,,,,,,,,,,,,,,,,,34035.000000000015,,completion,,,1,,,,,,,,,,,,,,,,,,127969.00000000001,128015.00000000001,93964,93948.00000000001,93980,128002,,,
Trap,html.Screen,0_4,2021-04-21T20:50:45.852Z,,,,,,,,,,,,,,,,,,,,,,,,,,,,,,NaN,,skipped,,,,,,,,,,,,,,,,,,,,,127971,128015.00000000001,,127971,,128002,,,
Thanks,html.Screen,0_5,2021-04-21T20:50:50.416Z,,,,,,,,,,,,,,,,,,,,,,,,,,,,,,4596,,response,,,,,,,,,,,continue,click button,,,,,,,,,132534,132582,127986,127971,128002,136388,,,
Headphone screening,flow.Sequence,0,2021-04-21T20:50:50.416Z,,,,,,,,,,,,,,,,,,,,,,,,,,,,,,119976,,completion,,,,,,,,,,,,,,,,,,,,,132534,132582,12550,12532,12606,136388,,,
Instructions,html.Page,1_0,2021-04-21T20:51:14.438Z,,,,,,,,,,,,,,,,,,,,,,,,,,,,,,20169.00000000003,,form submission,,,,,,,,,,,,,,,,,,,,,156557.00000000003,156557.00000000003,136372,136359,136388,156580,,,
Holding screen,html.Screen,1_1_0_0,2021-04-21T20:51:24.441Z,,,,,,,,,,,,,,,,,,,,,,,,,,,,,,9998,,timeout,,,,,,,,,,,,,,,,,,,,,166560,166560,156564,156557.00000000003,156580,166578,,,
screen,html.Screen,1_1_0_1_0,2021-04-21T20:51:25.825Z,,,,,,,,,,,,,,,,53,,,,,,,,,,,,,,1431,,response,,,,99,,,,,,,Space,keypress(Space),,,,,,,,When -- ----- -- ------ - ------- --- ----------<br>------------- ------ ------ ---- ---- ------- ----- -- ----<br>-------- ------- -- ---------- --- - --- ----- ----- ----<br>---- --- --- ----- --- ---- ---- ------- ----- ---- -------<br>--- --- -- ----- -- --- ---- -- --- ---- -- ------ ------<br>--- ----- -- ----,167944.00000000003,167991,166560,166560,166578,167986,,0,When
screen,html.Screen,1_1_0_1_1,2021-04-21T20:51:28.400Z,,,,,,,,,,,,,,,,53,,,,,,,,,,,,,,2598,,response,,,,99,,,,,,,Space,keypress(Space),,,,,,,,---- it ----- -- ------ - ------- --- ----------<br>------------- ------ ------ ---- ---- ------- ----- -- ----<br>-------- ------- -- ---------- --- - --- ----- ----- ----<br>---- --- --- ----- --- ---- ---- ------- ----- ---- -------<br>--- --- -- ----- -- --- ---- -- --- ---- -- ------ ------<br>--- ----- -- ----,170519,170567,167969,167945,167986,170560,,1,it
screen,html.Screen,1_1_0_1_2,2021-04-21T20:51:29.040Z,,,,,,,,,,,,,,,,53,,,,,,,,,,,,,,663,,response,,,,99,,,,,,,Space,keypress(Space),,,,,,,,---- -- comes -- ------ - ------- --- ----------<br>------------- ------ ------ ---- ---- ------- ----- -- ----<br>-------- ------- -- ---------- --- - --- ----- ----- ----<br>---- --- --- ----- --- ---- ---- ------- ----- ---- -------<br>--- --- -- ----- -- --- ---- -- --- ---- -- ------ ------<br>--- ----- -- ----,171159,171207,170544,170519,170560,171188,,2,comes
screen,html.Screen,1_1_0_1_3,2021-04-21T20:51:29.649Z,,,,,,,,,,,,,,,,53,,,,,,,,,,,,,,643,,response,,,,99,,,,,,,Space,keypress(Space),,,,,,,,---- -- ----- to ------ - ------- --- ----------<br>------------- ------ ------ ---- ---- ------- ----- -- ----<br>-------- ------- -- ---------- --- - --- ----- ----- ----<br>---- --- --- ----- --- ---- ---- ------- ----- ---- -------<br>--- --- -- ----- -- --- ---- -- --- ---- -- ------ ------<br>--- ----- -- ----,171768,171815,171172,171159,171188,171801,,3,to
screen,html.Screen,1_1_0_1_4,2021-04-21T20:51:30.464Z,,,,,,,,,,,,,,,,53,,,,,,,,,,,,,,846,,response,,,,99,,,,,,,Space,keypress(Space),,,,,,,,---- -- ----- -- having - ------- --- ----------<br>------------- ------ ------ ---- ---- ------- ----- -- ----<br>-------- ------- -- ---------- --- - --- ----- ----- ----<br>---- --- --- ----- --- ---- ---- ------- ----- ---- -------<br>--- --- -- ----- -- --- ---- -- --- ---- -- ------ ------<br>--- ----- -- ----,172583,172631,171785,171768,171801,172615,,4,having
screen,html.Screen,1_1_0_1_5,2021-04-21T20:51:30.952Z,,,,,,,,,,,,,,,,53,,,,,,,,,,,,,,520,,response,,,,99,,,,,,,Space,keypress(Space),,,,,,,,---- -- ----- -- ------ a ------- --- ----------<br>------------- ------ ------ ---- ---- ------- ----- -- ----<br>-------- ------- -- ---------- --- - --- ----- ----- ----<br>---- --- --- ----- --- ---- ---- ------- ----- ---- -------<br>--- --- -- ----- -- --- ---- -- --- ---- -- ------ ------<br>--- ----- -- ----,173071,173119,172599,172583,172615,173109,,5,a
screen,html.Screen,1_1_0_1_6,2021-04-21T20:51:31.568Z,,,,,,,,,,,,,,,,53,,,,,,,,,,,,,,642,,response,,,,99,,,,,,,Space,keypress(Space),,,,,,,,---- -- ----- -- ------ - lasting --- ----------<br>------------- ------ ------ ---- ---- ------- ----- -- ----<br>-------- ------- -- ---------- --- - --- ----- ----- ----<br>---- --- --- ----- --- ---- ---- ------- ----- ---- -------<br>--- --- -- ----- -- --- ---- -- --- ---- -- ------ ------<br>--- ----- -- ----,173687,173735,173093,173071,173109,173723,,6,lasting
screen,html.Screen,1_1_0_1_7,2021-04-21T20:51:32.136Z,,,,,,,,,,,,,,,,53,,,,,,,,,,,,,,595,,response,,,,99,,,,,,,Space,keypress(Space),,,,,,,,---- -- ----- -- ------ - ------- and ----------<br>------------- ------ ------ ---- ---- ------- ----- -- ----<br>-------- ------- -- ---------- --- - --- ----- ----- ----<br>---- --- --- ----- --- ---- ---- ------- ----- ---- -------<br>--- --- -- ----- -- --- ---- -- --- ---- -- ------ ------<br>--- ----- -- ----,174255,174303,173708,173687,173723,174287,,7,and
screen,html.Screen,1_1_0_1_8,2021-04-21T20:51:33.080Z,,,,,,,,,,,,,,,,53,,,,,,,,,,,,,,977,,response,,,,99,,,,,,,Space,keypress(Space),,,,,,,,---- -- ----- -- ------ - ------- --- fulfilling<br>------------- ------ ------ ---- ---- ------- ----- -- ----<br>-------- ------- -- ---------- --- - --- ----- ----- ----<br>---- --- --- ----- --- ---- ---- ------- ----- ---- -------<br>--- --- -- ----- -- --- ---- -- --- ---- -- ------ ------<br>--- ----- -- ----,175199,175247,174270,174255,174287,175234,,8,fulfilling
screen,html.Screen,1_1_0_1_9,2021-04-21T20:51:34.112Z,,,,,,,,,,,,,,,,53,,,,,,,,,,,,,,1061,,response,,,,99,,,,,,,Space,keypress(Space),,,,,,,,"---- -- ----- -- ------ - ------- --- ----------<br>relationship, ------ ------ ---- ---- ------- ----- -- ----<br>-------- ------- -- ---------- --- - --- ----- ----- ----<br>---- --- --- ----- --- ---- ---- ------- ----- ---- -------<br>--- --- -- ----- -- --- ---- -- --- ---- -- ------ ------<br>--- ----- -- ----",176231,176279,175218,175199,175234,176262,,9,"relationship,"
screen,html.Screen,1_1_0_1_10,2021-04-21T20:51:34.800Z,,,,,,,,,,,,,,,,53,,,,,,,,,,,,,,722,,response,,,,99,,,,,,,Space,keypress(Space),,,,,,,,---- -- ----- -- ------ - ------- --- ----------<br>------------- common ------ ---- ---- ------- ----- -- ----<br>-------- ------- -- ---------- --- - --- ----- ----- ----<br>---- --- --- ----- --- ---- ---- ------- ----- ---- -------<br>--- --- -- ----- -- --- ---- -- --- ---- -- ------ ------<br>--- ----- -- ----,176919,176967,176245,176231,176262,176955,,10,common
screen,html.Screen,1_1_0_1_11,2021-04-21T20:51:35.616Z,,,,,,,,,,,,,,,,53,,,,,,,,,,,,,,845.0000000000291,,response,,,,99,,,,,,,Space,keypress(Space),,,,,,,,---- -- ----- -- ------ - ------- --- ----------<br>------------- ------ wisdom ---- ---- ------- ----- -- ----<br>-------- ------- -- ---------- --- - --- ----- ----- ----<br>---- --- --- ----- --- ---- ---- ------- ----- ---- -------<br>--- --- -- ----- -- --- ---- -- --- ---- -- ------ ------<br>--- ----- -- ----,177735,177783.00000000003,176938,176919,176955,177767,,11,wisdom
screen,html.Screen,1_1_0_1_12,2021-04-21T20:51:36.760Z,,,,,,,,,,,,,,,,53,,,,,,,,,,,,,,1177,,response,,,,99,,,,,,,Space,keypress(Space),,,,,,,,---- -- ----- -- ------ - ------- --- ----------<br>------------- ------ ------ says ---- ------- ----- -- ----<br>-------- ------- -- ---------- --- - --- ----- ----- ----<br>---- --- --- ----- --- ---- ---- ------- ----- ---- -------<br>--- --- -- ----- -- --- ---- -- --- ---- -- ------ ------<br>--- ----- -- ----,178879,178927,177750,177736,177767,178913,,12,says
screen,html.Screen,1_1_0_1_13,2021-04-21T20:51:37.352Z,,,,,,,,,,,,,,,,53,,,,,,,,,,,,,,623,,response,,,,99,,,,,,,Space,keypress(Space),,,,,,,,---- -- ----- -- ------ - ------- --- ----------<br>------------- ------ ------ ---- that ------- ----- -- ----<br>-------- ------- -- ---------- --- - --- ----- ----- ----<br>---- --- --- ----- --- ---- ---- ------- ----- ---- -------<br>--- --- -- ----- -- --- ---- -- --- ---- -- ------ ------<br>--- ----- -- ----,179471,179519,178896,178880,178913,179504,,13,that
screen,html.Screen,1_1_0_1_14,2021-04-21T20:51:38.008Z,,,,,,,,,,,,,,,,53,,,,,,,,,,,,,,687,,response,,,,99,,,,,,,Space,keypress(Space),,,,,,,,---- -- ----- -- ------ - ------- --- ----------<br>------------- ------ ------ ---- ---- feeling ----- -- ----<br>-------- ------- -- ---------- --- - --- ----- ----- ----<br>---- --- --- ----- --- ---- ---- ------- ----- ---- -------<br>--- --- -- ----- -- --- ---- -- --- ---- -- ------ ------<br>--- ----- -- ----,180127,180175,179488,179471,179504,180167,,14,feeling
screen,html.Screen,1_1_0_1_15,2021-04-21T20:51:38.624Z,,,,,,,,,,,,,,,,53,,,,,,,,,,,,,,640,,response,,,,99,,,,,,,Space,keypress(Space),,,,,,,,---- -- ----- -- ------ - ------- --- ----------<br>------------- ------ ------ ---- ---- ------- close -- ----<br>-------- ------- -- ---------- --- - --- ----- ----- ----<br>---- --- --- ----- --- ---- ---- ------- ----- ---- -------<br>--- --- -- ----- -- --- ---- -- --- ---- -- ------ ------<br>--- ----- -- ----,180743,180791,180151,180127,180167,180780,,15,close
screen,html.Screen,1_1_0_1_16,2021-04-21T20:51:39.320Z,,,,,,,,,,,,,,,,53,,,,,,,,,,,,,,723,,response,,,,99,,,,,,,Space,keypress(Space),,,,,,,,---- -- ----- -- ------ - ------- --- ----------<br>------------- ------ ------ ---- ---- ------- ----- to ----<br>-------- ------- -- ---------- --- - --- ----- ----- ----<br>---- --- --- ----- --- ---- ---- ------- ----- ---- -------<br>--- --- -- ----- -- --- ---- -- --- ---- -- ------ ------<br>--- ----- -- ----,181439,181487,180764,180743,180780,181477,,16,to
screen,html.Screen,1_1_0_1_17,2021-04-21T20:51:40.104Z,,,,,,,,,,,,,,,,53,,,,,,,,,,,,,,810.0000000000291,,response,,,,99,,,,,,,Space,keypress(Space),,,,,,,,---- -- ----- -- ------ - ------- --- ----------<br>------------- ------ ------ ---- ---- ------- ----- -- your<br>-------- ------- -- ---------- --- - --- ----- ----- ----<br>---- --- --- ----- --- ---- ---- ------- ----- ---- -------<br>--- --- -- ----- -- --- ---- -- --- ---- -- ------ ------<br>--- ----- -- ----,182223,182271.00000000003,181461,181439,181477,182256,,17,your
screen,html.Screen,1_1_0_1_18,2021-04-21T20:51:40.648Z,,,,,,,,,,,,,,,,53,,,,,,,,,,,,,,575,,response,,,,99,,,,,,,Space,keypress(Space),,,,,,,,---- -- ----- -- ------ - ------- --- ----------<br>------------- ------ ------ ---- ---- ------- ----- -- ----<br>romantic ------- -- ---------- --- - --- ----- ----- ----<br>---- --- --- ----- --- ---- ---- ------- ----- ---- -------<br>--- --- -- ----- -- --- ---- -- --- ---- -- ------ ------<br>--- ----- -- ----,182767,182815,182240,182223,182256,182801,,18,romantic
screen,html.Screen,1_1_0_1_19,2021-04-21T20:51:41.176Z,,,,,,,,,,,,,,,,53,,,,,,,,,,,,,,558.0000000000291,,response,,,,99,,,,,,,Space,keypress(Space),,,,,,,,---- -- ----- -- ------ - ------- --- ----------<br>------------- ------ ------ ---- ---- ------- ----- -- ----<br>-------- partner -- ---------- --- - --- ----- ----- ----<br>---- --- --- ----- --- ---- ---- ------- ----- ---- -------<br>--- --- -- ----- -- --- ---- -- --- ---- -- ------ ------<br>--- ----- -- ----,183295.00000000003,183343.00000000003,182785,182768,182801,183332,,19,partner
screen,html.Screen,1_1_0_1_20,2021-04-21T20:51:41.736Z,,,,,,,,,,,,,,,,53,,,,,,,,,,,,,,587,,response,,,,99,,,,,,,Space,keypress(Space),,,,,,,,---- -- ----- -- ------ - ------- --- ----------<br>------------- ------ ------ ---- ---- ------- ----- -- ----<br>-------- ------- is ---------- --- - --- ----- ----- ----<br>---- --- --- ----- --- ---- ---- ------- ----- ---- -------<br>--- --- -- ----- -- --- ---- -- --- ---- -- ------ ------<br>--- ----- -- ----,183855,183903,183316,183295.00000000003,183332,183896,,20,is
screen,html.Screen,1_1_0_1_21,2021-04-21T20:51:43.560Z,,,,,,,,,,,,,,,,53,,,,,,,,,,,,,,1848,,response,,,,99,,,,,,,Space,keypress(Space),,,,,,,,---- -- ----- -- ------ - ------- --- ----------<br>------------- ------ ------ ---- ---- ------- ----- -- ----<br>-------- ------- -- paramount. --- - --- ----- ----- ----<br>---- --- --- ----- --- ---- ---- ------- ----- ---- -------<br>--- --- -- ----- -- --- ---- -- --- ---- -- ------ ------<br>--- ----- -- ----,185679,185727,183879,183855,183896,185710,,21,paramount.
screen,html.Screen,1_1_0_1_22,2021-04-21T20:51:44.216Z,,,,,,,,,,,,,,,,53,,,,,,,,,,,,,,689,,response,,,,99,,,,,,,Space,keypress(Space),,,,,,,,---- -- ----- -- ------ - ------- --- ----------<br>------------- ------ ------ ---- ---- ------- ----- -- ----<br>-------- ------- -- ---------- But - --- ----- ----- ----<br>---- --- --- ----- --- ---- ---- ------- ----- ---- -------<br>--- --- -- ----- -- --- ---- -- --- ---- -- ------ ------<br>--- ----- -- ----,186335,186383,185694,185680,185710,186363,,22,But
screen,html.Screen,1_1_0_1_23,2021-04-21T20:51:44.744Z,,,,,,,,,,,,,,,,53,,,,,,,,,,,,,,565,,response,,,,99,,,,,,,Space,keypress(Space),,,,,,,,---- -- ----- -- ------ - ------- --- ----------<br>------------- ------ ------ ---- ---- ------- ----- -- ----<br>-------- ------- -- ---------- --- a --- ----- ----- ----<br>---- --- --- ----- --- ---- ---- ------- ----- ---- -------<br>--- --- -- ----- -- --- ---- -- --- ---- -- ------ ------<br>--- ----- -- ----,186863,186911,186346,186335,186363,186893,,23,a
screen,html.Screen,1_1_0_1_24,2021-04-21T20:51:45.224Z,,,,,,,,,,,,,,,,53,,,,,,,,,,,,,,516,,response,,,,99,,,,,,,Space,keypress(Space),,,,,,,,---- -- ----- -- ------ - ------- --- ----------<br>------------- ------ ------ ---- ---- ------- ----- -- ----<br>-------- ------- -- ---------- --- - new ----- ----- ----<br>---- --- --- ----- --- ---- ---- ------- ----- ---- -------<br>--- --- -- ----- -- --- ---- -- --- ---- -- ------ ------<br>--- ----- -- ----,187343.00000000003,187391,186875,186863,186893,187373,,24,new
screen,html.Screen,1_1_0_1_25,2021-04-21T20:51:45.680Z,,,,,,,,,,,,,,,,53,,,,,,,,,,,,,,490,,response,,,,99,,,,,,,Space,keypress(Space),,,,,,,,---- -- ----- -- ------ - ------- --- ----------<br>------------- ------ ------ ---- ---- ------- ----- -- ----<br>-------- ------- -- ---------- --- - --- study ----- ----<br>---- --- --- ----- --- ---- ---- ------- ----- ---- -------<br>--- --- -- ----- -- --- ---- -- --- ---- -- ------ ------<br>--- ----- -- ----,187799,187847,187357,187343.00000000003,187373,187838,,25,study
screen,html.Screen,1_1_0_1_26,2021-04-21T20:51:46.160Z,,,,,,,,,,,,,,,,53,,,,,,,,,,,,,,506,,response,,,,99,,,,,,,Space,keypress(Space),,,,,,,,---- -- ----- -- ------ - ------- --- ----------<br>------------- ------ ------ ---- ---- ------- ----- -- ----<br>-------- ------- -- ---------- --- - --- ----- finds ----<br>---- --- --- ----- --- ---- ---- ------- ----- ---- -------<br>--- --- -- ----- -- --- ---- -- --- ---- -- ------ ------<br>--- ----- -- ----,188279,188327,187821,187799,187838,188319,,26,finds
screen,html.Screen,1_1_0_1_27,2021-04-21T20:51:46.632Z,,,,,,,,,,,,,,,,53,,,,,,,,,,,,,,497,,response,,,,99,,,,,,,Space,keypress(Space),,,,,,,,---- -- ----- -- ------ - ------- --- ----------<br>------------- ------ ------ ---- ---- ------- ----- -- ----<br>-------- ------- -- ---------- --- - --- ----- ----- that<br>---- --- --- ----- --- ---- ---- ------- ----- ---- -------<br>--- --- -- ----- -- --- ---- -- --- ---- -- ------ ------<br>--- ----- -- ----,188751,188799,188302,188280,188319,188783,,27,that
screen,html.Screen,1_1_0_1_28,2021-04-21T20:51:48.168Z,,,,,,,,,,,,,,,,53,,,,,,,,,,,,,,1568,,response,,,,99,,,,,,,Space,keypress(Space),,,,,,,,---- -- ----- -- ------ - ------- --- ----------<br>------------- ------ ------ ---- ---- ------- ----- -- ----<br>-------- ------- -- ---------- --- - --- ----- ----- ----<br>it's --- --- ----- --- ---- ---- ------- ----- ---- -------<br>--- --- -- ----- -- --- ---- -- --- ---- -- ------ ------<br>--- ----- -- ----,190287,190335,188767,188751,188783,190315,,28,it's
screen,html.Screen,1_1_0_1_29,2021-04-21T20:51:48.888Z,,,,,,,,,,,,,,,,53,,,,,,,,,,,,,,756,,response,,,,99,,,,,,,Space,keypress(Space),,,,,,,,---- -- ----- -- ------ - ------- --- ----------<br>------------- ------ ------ ---- ---- ------- ----- -- ----<br>-------- ------- -- ---------- --- - --- ----- ----- ----<br>---- not --- ----- --- ---- ---- ------- ----- ---- -------<br>--- --- -- ----- -- --- ---- -- --- ---- -- ------ ------<br>--- ----- -- ----,191007,191055,190299,190288,190315,191037,,29,not
screen,html.Screen,1_1_0_1_30,2021-04-21T20:51:49.432Z,,,,,,,,,,,,,,,,53,,,,,,,,,,,,,,578.0000000000291,,response,,,,99,,,,,,,Space,keypress(Space),,,,,,,,---- -- ----- -- ------ - ------- --- ----------<br>------------- ------ ------ ---- ---- ------- ----- -- ----<br>-------- ------- -- ---------- --- - --- ----- ----- ----<br>---- --- how ----- --- ---- ---- ------- ----- ---- -------<br>--- --- -- ----- -- --- ---- -- --- ---- -- ------ ------<br>--- ----- -- ----,191551.00000000003,191599.00000000003,191021,191007,191037,191582,,30,how
screen,html.Screen,1_1_0_1_31,2021-04-21T20:51:49.944Z,,,,,,,,,,,,,,,,53,,,,,,,,,,,,,,545,,response,,,,99,,,,,,,Space,keypress(Space),,,,,,,,---- -- ----- -- ------ - ------- --- ----------<br>------------- ------ ------ ---- ---- ------- ----- -- ----<br>-------- ------- -- ---------- --- - --- ----- ----- ----<br>---- --- --- close --- ---- ---- ------- ----- ---- -------<br>--- --- -- ----- -- --- ---- -- --- ---- -- ------ ------<br>--- ----- -- ----,192063.00000000003,192111,191566,191552,191582,192096,,31,close
screen,html.Screen,1_1_0_1_32,2021-04-21T20:51:50.432Z,,,,,,,,,,,,,,,,53,,,,,,,,,,,,,,520.0000000000291,,response,,,,99,,,,,,,Space,keypress(Space),,,,,,,,---- -- ----- -- ------ - ------- --- ----------<br>------------- ------ ------ ---- ---- ------- ----- -- ----<br>-------- ------- -- ---------- --- - --- ----- ----- ----<br>---- --- --- ----- you ---- ---- ------- ----- ---- -------<br>--- --- -- ----- -- --- ---- -- --- ---- -- ------ ------<br>--- ----- -- ----,192551.00000000003,192599.00000000003,192079,192063.00000000003,192096,192593,,32,you
screen,html.Screen,1_1_0_1_33,2021-04-21T20:51:51.688Z,,,,,,,,,,,,,,,,53,,,,,,,,,,,,,,1278.000000000029,,response,,,,99,,,,,,,Space,keypress(Space),,,,,,,,---- -- ----- -- ------ - ------- --- ----------<br>------------- ------ ------ ---- ---- ------- ----- -- ----<br>-------- ------- -- ---------- --- - --- ----- ----- ----<br>---- --- --- ----- --- feel ---- ------- ----- ---- -------<br>--- --- -- ----- -- --- ---- -- --- ---- -- ------ ------<br>--- ----- -- ----,193807.00000000003,193855.00000000003,192577,192551.00000000003,192593,193841,,33,feel
screen,html.Screen,1_1_0_1_34,2021-04-21T20:51:52.424Z,,,,,,,,,,,,,,,,53,,,,,,,,,,,,,,766,,response,,,,99,,,,,,,Space,keypress(Space),,,,,,,,---- -- ----- -- ------ - ------- --- ----------<br>------------- ------ ------ ---- ---- ------- ----- -- ----<br>-------- ------- -- ---------- --- - --- ----- ----- ----<br>---- --- --- ----- --- ---- that ------- ----- ---- -------<br>--- --- -- ----- -- --- ---- -- --- ---- -- ------ ------<br>--- ----- -- ----,194543,194591,193825,193808,193841,194583,,34,that
screen,html.Screen,1_1_0_1_35,2021-04-21T20:51:52.960Z,,,,,,,,,,,,,,,,53,,,,,,,,,,,,,,561,,response,,,,99,,,,,,,Space,keypress(Space),,,,,,,,---- -- ----- -- ------ - ------- --- ----------<br>------------- ------ ------ ---- ---- ------- ----- -- ----<br>-------- ------- -- ---------- --- - --- ----- ----- ----<br>---- --- --- ----- --- ---- ---- matters ----- ---- -------<br>--- --- -- ----- -- --- ---- -- --- ---- -- ------ ------<br>--- ----- -- ----,195079,195127,194566,194543,194583,195111,,35,matters
screen,html.Screen,1_1_0_1_36,2021-04-21T20:51:53.544Z,,,,,,,,,,,,,,,,53,,,,,,,,,,,,,,615,,response,,,,99,,,,,,,Space,keypress(Space),,,,,,,,"---- -- ----- -- ------ - ------- --- ----------<br>------------- ------ ------ ---- ---- ------- ----- -- ----<br>-------- ------- -- ---------- --- - --- ----- ----- ----<br>---- --- --- ----- --- ---- ---- ------- most, ---- -------<br>--- --- -- ----- -- --- ---- -- --- ---- -- ------ ------<br>--- ----- -- ----",195663,195711,195096,195079,195111,195692,,36,"most,"
screen,html.Screen,1_1_0_1_37,2021-04-21T20:51:54.088Z,,,,,,,,,,,,,,,,53,,,,,,,,,,,,,,579,,response,,,,99,,,,,,,Space,keypress(Space),,,,,,,,---- -- ----- -- ------ - ------- --- ----------<br>------------- ------ ------ ---- ---- ------- ----- -- ----<br>-------- ------- -- ---------- --- - --- ----- ----- ----<br>---- --- --- ----- --- ---- ---- ------- ----- it's -------<br>--- --- -- ----- -- --- ---- -- --- ---- -- ------ ------<br>--- ----- -- ----,196208,196255,195676,195663,195692,196239,,37,it's
screen,html.Screen,1_1_0_1_38,2021-04-21T20:51:54.920Z,,,,,,,,,,,,,,,,53,,,,,,,,,,,,,,865.0000000000291,,response,,,,99,,,,,,,Space,keypress(Space),,,,,,,,---- -- ----- -- ------ - ------- --- ----------<br>------------- ------ ------ ---- ---- ------- ----- -- ----<br>-------- ------- -- ---------- --- - --- ----- ----- ----<br>---- --- --- ----- --- ---- ---- ------- ----- ---- whether<br>--- --- -- ----- -- --- ---- -- --- ---- -- ------ ------<br>--- ----- -- ----,197039.00000000003,197087.00000000003,196222,196208,196239,197070,,38,whether
screen,html.Screen,1_1_0_1_39,2021-04-21T20:51:55.616Z,,,,,,,,,,,,,,,,53,,,,,,,,,,,,,,729.0000000000291,,response,,,,99,,,,,,,Space,keypress(Space),,,,,,,,---- -- ----- -- ------ - ------- --- ----------<br>------------- ------ ------ ---- ---- ------- ----- -- ----<br>-------- ------- -- ---------- --- - --- ----- ----- ----<br>---- --- --- ----- --- ---- ---- ------- ----- ---- -------<br>you --- -- ----- -- --- ---- -- --- ---- -- ------ ------<br>--- ----- -- ----,197735,197783.00000000003,197054,197039.00000000003,197070,197764,,39,you
screen,html.Screen,1_1_0_1_40,2021-04-21T20:51:56.344Z,,,,,,,,,,,,,,,,53,,,,,,,,,,,,,,763,,response,,,,99,,,,,,,Space,keypress(Space),,,,,,,,---- -- ----- -- ------ - ------- --- ----------<br>------------- ------ ------ ---- ---- ------- ----- -- ----<br>-------- ------- -- ---------- --- - --- ----- ----- ----<br>---- --- --- ----- --- ---- ---- ------- ----- ---- -------<br>--- are -- ----- -- --- ---- -- --- ---- -- ------ ------<br>--- ----- -- ----,198463,198511,197748,197735,197764,198494,,40,are
screen,html.Screen,1_1_0_1_41,2021-04-21T20:51:56.888Z,,,,,,,,,,,,,,,,53,,,,,,,,,,,,,,577,,response,,,,99,,,,,,,Space,keypress(Space),,,,,,,,---- -- ----- -- ------ - ------- --- ----------<br>------------- ------ ------ ---- ---- ------- ----- -- ----<br>-------- ------- -- ---------- --- - --- ----- ----- ----<br>---- --- --- ----- --- ---- ---- ------- ----- ---- -------<br>--- --- as ----- -- --- ---- -- --- ---- -- ------ ------<br>--- ----- -- ----,199008,199055,198478,198464,198494,199039,,41,as
screen,html.Screen,1_1_0_1_42,2021-04-21T20:51:57.432Z,,,,,,,,,,,,,,,,53,,,,,,,,,,,,,,577.0000000000291,,response,,,,99,,,,,,,Space,keypress(Space),,,,,,,,---- -- ----- -- ------ - ------- --- ----------<br>------------- ------ ------ ---- ---- ------- ----- -- ----<br>-------- ------- -- ---------- --- - --- ----- ----- ----<br>---- --- --- ----- --- ---- ---- ------- ----- ---- -------<br>--- --- -- close -- --- ---- -- --- ---- -- ------ ------<br>--- ----- -- ----,199551.00000000003,199599.00000000003,199022,199008,199039,199586,,42,close
screen,html.Screen,1_1_0_1_43,2021-04-21T20:51:57.992Z,,,,,,,,,,,,,,,,53,,,,,,,,,,,,,,588,,response,,,,99,,,,,,,Space,keypress(Space),,,,,,,,---- -- ----- -- ------ - ------- --- ----------<br>------------- ------ ------ ---- ---- ------- ----- -- ----<br>-------- ------- -- ---------- --- - --- ----- ----- ----<br>---- --- --- ----- --- ---- ---- ------- ----- ---- -------<br>--- --- -- ----- as --- ---- -- --- ---- -- ------ ------<br>--- ----- -- ----,200111,200159,199571,199551.00000000003,199586,200150,,43,as
screen,html.Screen,1_1_0_1_44,2021-04-21T20:51:58.552Z,,,,,,,,,,,,,,,,53,,,,,,,,,,,,,,585,,response,,,,99,,,,,,,Space,keypress(Space),,,,,,,,---- -- ----- -- ------ - ------- --- ----------<br>------------- ------ ------ ---- ---- ------- ----- -- ----<br>-------- ------- -- ---------- --- - --- ----- ----- ----<br>---- --- --- ----- --- ---- ---- ------- ----- ---- -------<br>--- --- -- ----- -- you ---- -- --- ---- -- ------ ------<br>--- ----- -- ----,200671,200719,200134,200112,200150,200698,,44,you
screen,html.Screen,1_1_0_1_45,2021-04-21T20:51:59.112Z,,,,,,,,,,,,,,,,53,,,,,,,,,,,,,,598,,response,,,,99,,,,,,,Space,keypress(Space),,,,,,,,---- -- ----- -- ------ - ------- --- ----------<br>------------- ------ ------ ---- ---- ------- ----- -- ----<br>-------- ------- -- ---------- --- - --- ----- ----- ----<br>---- --- --- ----- --- ---- ---- ------- ----- ---- -------<br>--- --- -- ----- -- --- want -- --- ---- -- ------ ------<br>--- ----- -- ----,201231,201279,200681,200671,200698,201262,,45,want
screen,html.Screen,1_1_0_1_46,2021-04-21T20:51:59.624Z,,,,,,,,,,,,,,,,53,,,,,,,,,,,,,,546,,response,,,,99,,,,,,,Space,keypress(Space),,,,,,,,---- -- ----- -- ------ - ------- --- ----------<br>------------- ------ ------ ---- ---- ------- ----- -- ----<br>-------- ------- -- ---------- --- - --- ----- ----- ----<br>---- --- --- ----- --- ---- ---- ------- ----- ---- -------<br>--- --- -- ----- -- --- ---- to --- ---- -- ------ ------<br>--- ----- -- ----,201743,201791,201245,201231,201262,201775,,46,to
screen,html.Screen,1_1_0_1_47,2021-04-21T20:52:00.208Z,,,,,,,,,,,,,,,,53,,,,,,,,,,,,,,617,,response,,,,99,,,,,,,Space,keypress(Space),,,,,,,,"---- -- ----- -- ------ - ------- --- ----------<br>------------- ------ ------ ---- ---- ------- ----- -- ----<br>-------- ------- -- ---------- --- - --- ----- ----- ----<br>---- --- --- ----- --- ---- ---- ------- ----- ---- -------<br>--- --- -- ----- -- --- ---- -- be, ---- -- ------ ------<br>--- ----- -- ----",202327,202375,201758,201743,201775,202356,,47,"be,"
screen,html.Screen,1_1_0_1_48,2021-04-21T20:52:00.864Z,,,,,,,,,,,,,,,,53,,,,,,,,,,,,,,692,,response,,,,99,,,,,,,Space,keypress(Space),,,,,,,,---- -- ----- -- ------ - ------- --- ----------<br>------------- ------ ------ ---- ---- ------- ----- -- ----<br>-------- ------- -- ---------- --- - --- ----- ----- ----<br>---- --- --- ----- --- ---- ---- ------- ----- ---- -------<br>--- --- -- ----- -- --- ---- -- --- even -- ------ ------<br>--- ----- -- ----,202983,203031,202339,202327,202356,203020,,48,even
screen,html.Screen,1_1_0_1_49,2021-04-21T20:52:01.432Z,,,,,,,,,,,,,,,,53,,,,,,,,,,,,,,596.0000000000291,,response,,,,99,,,,,,,Space,keypress(Space),,,,,,,,---- -- ----- -- ------ - ------- --- ----------<br>------------- ------ ------ ---- ---- ------- ----- -- ----<br>-------- ------- -- ---------- --- - --- ----- ----- ----<br>---- --- --- ----- --- ---- ---- ------- ----- ---- -------<br>--- --- -- ----- -- --- ---- -- --- ---- if ------ ------<br>--- ----- -- ----,203551.00000000003,203599.00000000003,203003,202983,203020,203582,,49,if
screen,html.Screen,1_1_0_1_50,2021-04-21T20:52:02.024Z,,,,,,,,,,,,,,,,53,,,,,,,,,,,,,,625,,response,,,,99,,,,,,,Space,keypress(Space),,,,,,,,---- -- ----- -- ------ - ------- --- ----------<br>------------- ------ ------ ---- ---- ------- ----- -- ----<br>-------- ------- -- ---------- --- - --- ----- ----- ----<br>---- --- --- ----- --- ---- ---- ------- ----- ---- -------<br>--- --- -- ----- -- --- ---- -- --- ---- -- that's ------<br>--- ----- -- ----,204143,204191,203566,203551.00000000003,203582,204179,,50,that's
screen,html.Screen,1_1_0_1_51,2021-04-21T20:52:02.616Z,,,,,,,,,,,,,,,,53,,,,,,,,,,,,,,620.0000000000291,,response,,,,99,,,,,,,Space,keypress(Space),,,,,,,,---- -- ----- -- ------ - ------- --- ----------<br>------------- ------ ------ ---- ---- ------- ----- -- ----<br>-------- ------- -- ---------- --- - --- ----- ----- ----<br>---- --- --- ----- --- ---- ---- ------- ----- ---- -------<br>--- --- -- ----- -- --- ---- -- --- ---- -- ------ really<br>--- ----- -- ----,204735,204783.00000000003,204163,204143,204179,204777,,51,really
screen,html.Screen,1_1_0_1_52,2021-04-21T20:52:03.344Z,,,,,,,,,,,,,,,,53,,,,,,,,,,,,,,751,,response,,,,99,,,,,,,Space,keypress(Space),,,,,,,,---- -- ----- -- ------ - ------- --- ----------<br>------------- ------ ------ ---- ---- ------- ----- -- ----<br>-------- ------- -- ---------- --- - --- ----- ----- ----<br>---- --- --- ----- --- ---- ---- ------- ----- ---- -------<br>--- --- -- ----- -- --- ---- -- --- ---- -- ------ ------<br>not ----- -- ----,205463,205511,204760,204736.00000000003,204777,205490,,52,not
screen,html.Screen,1_1_0_1_53,2021-04-21T20:52:04.032Z,,,,,,,,,,,,,,,,53,,,,,,,,,,,,,,726,,response,,,,99,,,,,,,Space,keypress(Space),,,,,,,,---- -- ----- -- ------ - ------- --- ----------<br>------------- ------ ------ ---- ---- ------- ----- -- ----<br>-------- ------- -- ---------- --- - --- ----- ----- ----<br>---- --- --- ----- --- ---- ---- ------- ----- ---- -------<br>--- --- -- ----- -- --- ---- -- --- ---- -- ------ ------<br>--- close -- ----,206152.00000000003,206199,205473,205463,205490,206186,,53,close
screen,html.Screen,1_1_0_1_54,2021-04-21T20:52:04.536Z,,,,,,,,,,,,,,,,53,,,,,,,,,,,,,,534,,response,,,,99,,,,,,,Space,keypress(Space),,,,,,,,---- -- ----- -- ------ - ------- --- ----------<br>------------- ------ ------ ---- ---- ------- ----- -- ----<br>-------- ------- -- ---------- --- - --- ----- ----- ----<br>---- --- --- ----- --- ---- ---- ------- ----- ---- -------<br>--- --- -- ----- -- --- ---- -- --- ---- -- ------ ------<br>--- ----- at ----,206655,206703,206169,206152.00000000003,206186,206682,,54,at
screen,html.Screen,1_1_0_1_55,2021-04-21T20:52:05.168Z,,,,,,,,,,,,,,,,53,,,,,,,,,,,,,,670,,response,,,,99,,,,,,,Space,keypress(Space),,,,,,,,---- -- ----- -- ------ - ------- --- ----------<br>------------- ------ ------ ---- ---- ------- ----- -- ----<br>-------- ------- -- ---------- --- - --- ----- ----- ----<br>---- --- --- ----- --- ---- ---- ------- ----- ---- -------<br>--- --- -- ----- -- --- ---- -- --- ---- -- ------ ------<br>--- ----- -- all.,207288,207335,206665,206655,206682,207329,,55,all.
Item 99,flow.Loop,1_1_0_1,2021-04-21T20:52:05.169Z,,,,,,,,,,,,,,,,,,,,,,,,,,,,,,40757,,completion,,,,,F,,,,,,,,,,,silence,,,,,207288,207335,166560,166560,166578,207329,,,
Question 1,html.Screen,1_1_0_2,2021-04-21T20:52:10.726Z,,,,,,,,,,,,,,,,,,,,,,,,,,,true,FALSE,,5582,,response,,,,99,F,,,,,,FALSE,click #choice-2,,,,silence,,,,,212846,212895,207313,207288,207329,212866,,,
Question 2,html.Screen,1_1_0_3,2021-04-21T20:52:16.171Z,,,,,,,,,,,,,,,,,,,,,,,,,,,false,TRUE,,5490,,response,,,,99,F,,,,,,FALSE,click #choice-2,,,,silence,,,,,218290,218340,212850,212846,212866,218331,,,
Item 99,flow.Sequence,1_1_0,2021-04-21T20:52:16.171Z,,,,,,,,,,,,,,,,,,,,,,,,,,,,,,61760,,completion,,,,,,,,,,,,,,,,,,,,,218291,218340,156564,156557.00000000003,156580,218331,,,
Holding screen,html.Screen,1_1_1_0,2021-04-21T20:52:26.198Z,,,,,,,,,,,,,,,,,,,,,,,,,,,,,,10003,,timeout,,,,,,,,,,,,,,,,,,,,,228318,228317,218305,218291,218331,228334,,,
screen,html.Screen,1_1_1_1_0,2021-04-21T20:52:29.696Z,,,,,,,,,,,,,,,,54,,,,,,,,,,,,,,3547,,response,,,,100,,,,,,,Space,keypress(Space),,,,,,,,At --- ---- --- ------ ----- ------- ---- -- --- ------- --<br>------- ---------- ------ -- ----- -- ----- -- ---- ------<br>--- ----- --- --- ------ -------- ----- --- ------ ----- --<br>----- ----- ---------- --- --- ------ ------ ---- -- ------<br>------- --- ------ ----- --- ---- ------- -- ---- --- --<br>------- ------,231816,231864,228317,228318,228334,231846,,0,At
screen,html.Screen,1_1_1_1_1,2021-04-21T20:52:30.167Z,,,,,,,,,,,,,,,,54,,,,,,,,,,,,,,505,,response,,,,100,,,,,,,Space,keypress(Space),,,,,,,,-- the ---- --- ------ ----- ------- ---- -- --- ------- --<br>------- ---------- ------ -- ----- -- ----- -- ---- ------<br>--- ----- --- --- ------ -------- ----- --- ------ ----- --<br>----- ----- ---------- --- --- ------ ------ ---- -- ------<br>------- --- ------ ----- --- ---- ------- -- ---- --- --<br>------- ------,232287,232335,231830,231816,231846,232316,,1,the
screen,html.Screen,1_1_1_1_2,2021-04-21T20:52:30.647Z,,,,,,,,,,,,,,,,54,,,,,,,,,,,,,,516,,response,,,,100,,,,,,,Space,keypress(Space),,,,,,,,-- --- time --- ------ ----- ------- ---- -- --- ------- --<br>------- ---------- ------ -- ----- -- ----- -- ---- ------<br>--- ----- --- --- ------ -------- ----- --- ------ ----- --<br>----- ----- ---------- --- --- ------ ------ ---- -- ------<br>------- --- ------ ----- --- ---- ------- -- ---- --- --<br>------- ------,232767,232816,232300,232287,232316,232797,,2,time
screen,html.Screen,1_1_1_1_3,2021-04-21T20:52:31.064Z,,,,,,,,,,,,,,,,54,,,,,,,,,,,,,,451,,response,,,,100,,,,,,,Space,keypress(Space),,,,,,,,-- --- ---- the ------ ----- ------- ---- -- --- ------- --<br>------- ---------- ------ -- ----- -- ----- -- ---- ------<br>--- ----- --- --- ------ -------- ----- --- ------ ----- --<br>----- ----- ---------- --- --- ------ ------ ---- -- ------<br>------- --- ------ ----- --- ---- ------- -- ---- --- --<br>------- ------,233183,233231,232780,232767,232797,233211,,3,the
screen,html.Screen,1_1_1_1_4,2021-04-21T20:52:31.511Z,,,,,,,,,,,,,,,,54,,,,,,,,,,,,,,485,,response,,,,100,,,,,,,Space,keypress(Space),,,,,,,,-- --- ---- --- French ----- ------- ---- -- --- ------- --<br>------- ---------- ------ -- ----- -- ----- -- ---- ------<br>--- ----- --- --- ------ -------- ----- --- ------ ----- --<br>----- ----- ---------- --- --- ------ ------ ---- -- ------<br>------- --- ------ ----- --- ---- ------- -- ---- --- --<br>------- ------,233631,233680,233195,233183,233211,233659,,4,French
screen,html.Screen,1_1_1_1_5,2021-04-21T20:52:31.967Z,,,,,,,,,,,,,,,,54,,,,,,,,,,,,,,493,,response,,,,100,,,,,,,Space,keypress(Space),,,,,,,,-- --- ---- --- ------ crown ------- ---- -- --- ------- --<br>------- ---------- ------ -- ----- -- ----- -- ---- ------<br>--- ----- --- --- ------ -------- ----- --- ------ ----- --<br>----- ----- ---------- --- --- ------ ------ ---- -- ------<br>------- --- ------ ----- --- ---- ------- -- ---- --- --<br>------- ------,234087.00000000003,234136,233643,233631,233659,234124,,5,crown
screen,html.Screen,1_1_1_1_6,2021-04-21T20:52:32.440Z,,,,,,,,,,,,,,,,54,,,,,,,,,,,,,,500,,response,,,,100,,,,,,,Space,keypress(Space),,,,,,,,-- --- ---- --- ------ ----- secured ---- -- --- ------- --<br>------- ---------- ------ -- ----- -- ----- -- ---- ------<br>--- ----- --- --- ------ -------- ----- --- ------ ----- --<br>----- ----- ---------- --- --- ------ ------ ---- -- ------<br>------- --- ------ ----- --- ---- ------- -- ---- --- --<br>------- ------,234559,234608,234108,234087.00000000003,234124,234589,,6,secured
screen,html.Screen,1_1_1_1_7,2021-04-21T20:52:32.959Z,,,,,,,,,,,,,,,,54,,,,,,,,,,,,,,556,,response,,,,100,,,,,,,Space,keypress(Space),,,,,,,,-- --- ---- --- ------ ----- ------- much -- --- ------- --<br>------- ---------- ------ -- ----- -- ----- -- ---- ------<br>--- ----- --- --- ------ -------- ----- --- ------ ----- --<br>----- ----- ---------- --- --- ------ ------ ---- -- ------<br>------- --- ------ ----- --- ---- ------- -- ---- --- --<br>------- ------,235079,235128,234572,234559,234589,235120,,7,much
screen,html.Screen,1_1_1_1_8,2021-04-21T20:52:33.415Z,,,,,,,,,,,,,,,,54,,,,,,,,,,,,,,480,,response,,,,100,,,,,,,Space,keypress(Space),,,,,,,,-- --- ---- --- ------ ----- ------- ---- of --- ------- --<br>------- ---------- ------ -- ----- -- ----- -- ---- ------<br>--- ----- --- --- ------ -------- ----- --- ------ ----- --<br>----- ----- ---------- --- --- ------ ------ ---- -- ------<br>------- --- ------ ----- --- ---- ------- -- ---- --- --<br>------- ------,235535,235584,235104,235079,235120,235567,,8,of
screen,html.Screen,1_1_1_1_9,2021-04-21T20:52:33.864Z,,,,,,,,,,,,,,,,54,,,,,,,,,,,,,,480,,response,,,,100,,,,,,,Space,keypress(Space),,,,,,,,-- --- ---- --- ------ ----- ------- ---- -- its ------- --<br>------- ---------- ------ -- ----- -- ----- -- ---- ------<br>--- ----- --- --- ------ -------- ----- --- ------ ----- --<br>----- ----- ---------- --- --- ------ ------ ---- -- ------<br>------- --- ------ ----- --- ---- ------- -- ---- --- --<br>------- ------,235983,236031,235551,235535,235567,236016,,9,its
screen,html.Screen,1_1_1_1_10,2021-04-21T20:52:34.360Z,,,,,,,,,,,,,,,,54,,,,,,,,,,,,,,528,,response,,,,100,,,,,,,Space,keypress(Space),,,,,,,,-- --- ---- --- ------ ----- ------- ---- -- --- revenue --<br>------- ---------- ------ -- ----- -- ----- -- ---- ------<br>--- ----- --- --- ------ -------- ----- --- ------ ----- --<br>----- ----- ---------- --- --- ------ ------ ---- -- ------<br>------- --- ------ ----- --- ---- ------- -- ---- --- --<br>------- ------,236479,236528,236000,235984,236016,236513,,10,revenue
screen,html.Screen,1_1_1_1_11,2021-04-21T20:52:34.871Z,,,,,,,,,,,,,,,,54,,,,,,,,,,,,,,543,,response,,,,100,,,,,,,Space,keypress(Space),,,,,,,,-- --- ---- --- ------ ----- ------- ---- -- --- ------- by<br>------- ---------- ------ -- ----- -- ----- -- ---- ------<br>--- ----- --- --- ------ -------- ----- --- ------ ----- --<br>----- ----- ---------- --- --- ------ ------ ---- -- ------<br>------- --- ------ ----- --- ---- ------- -- ---- --- --<br>------- ------,236991,237040,236497,236479,236513,237028,,11,by
screen,html.Screen,1_1_1_1_12,2021-04-21T20:52:35.480Z,,,,,,,,,,,,,,,,54,,,,,,,,,,,,,,637,,response,,,,100,,,,,,,Space,keypress(Space),,,,,,,,-- --- ---- --- ------ ----- ------- ---- -- --- ------- --<br>issuing ---------- ------ -- ----- -- ----- -- ---- ------<br>--- ----- --- --- ------ -------- ----- --- ------ ----- --<br>----- ----- ---------- --- --- ------ ------ ---- -- ------<br>------- --- ------ ----- --- ---- ------- -- ---- --- --<br>------- ------,237599.00000000003,237648,237011,236991,237028,237625,,12,issuing
screen,html.Screen,1_1_1_1_13,2021-04-21T20:52:36.008Z,,,,,,,,,,,,,,,,54,,,,,,,,,,,,,,567.0000000000291,,response,,,,100,,,,,,,Space,keypress(Space),,,,,,,,-- --- ---- --- ------ ----- ------- ---- -- --- ------- --<br>------- government ------ -- ----- -- ----- -- ---- ------<br>--- ----- --- --- ------ -------- ----- --- ------ ----- --<br>----- ----- ---------- --- --- ------ ------ ---- -- ------<br>------- --- ------ ----- --- ---- ------- -- ---- --- --<br>------- ------,238127,238176.00000000003,237609,237599.00000000003,237625,238156,,13,government
screen,html.Screen,1_1_1_1_14,2021-04-21T20:52:36.471Z,,,,,,,,,,,,,,,,54,,,,,,,,,,,,,,500.0000000000291,,response,,,,100,,,,,,,Space,keypress(Space),,,,,,,,-- --- ---- --- ------ ----- ------- ---- -- --- ------- --<br>------- ---------- bonds. -- ----- -- ----- -- ---- ------<br>--- ----- --- --- ------ -------- ----- --- ------ ----- --<br>----- ----- ---------- --- --- ------ ------ ---- -- ------<br>------- --- ------ ----- --- ---- ------- -- ---- --- --<br>------- ------,238591,238640.00000000003,238140,238127,238156,238620,,14,bonds.
screen,html.Screen,1_1_1_1_15,2021-04-21T20:52:36.952Z,,,,,,,,,,,,,,,,54,,,,,,,,,,,,,,516,,response,,,,100,,,,,,,Space,keypress(Space),,,,,,,,-- --- ---- --- ------ ----- ------- ---- -- --- ------- --<br>------- ---------- ------ In ----- -- ----- -- ---- ------<br>--- ----- --- --- ------ -------- ----- --- ------ ----- --<br>----- ----- ---------- --- --- ------ ------ ---- -- ------<br>------- --- ------ ----- --- ---- ------- -- ---- --- --<br>------- ------,239071,239120,238604,238591,238620,239101,,15,In
screen,html.Screen,1_1_1_1_16,2021-04-21T20:52:38.376Z,,,,,,,,,,,,,,,,54,,,,,,,,,,,,,,1459,,response,,,,100,,,,,,,Space,keypress(Space),,,,,,,,"-- --- ---- --- ------ ----- ------- ---- -- --- ------- --<br>------- ---------- ------ -- 1727, -- ----- -- ---- ------<br>--- ----- --- --- ------ -------- ----- --- ------ ----- --<br>----- ----- ---------- --- --- ------ ------ ---- -- ------<br>------- --- ------ ----- --- ---- ------- -- ---- --- --<br>------- ------",240495,240544,239085,239071,239101,240533,,16,"1727,"
screen,html.Screen,1_1_1_1_17,2021-04-21T20:52:39.936Z,,,,,,,,,,,,,,,,54,,,,,,,,,,,,,,1588,,response,,,,100,,,,,,,Space,keypress(Space),,,,,,,,-- --- ---- --- ------ ----- ------- ---- -- --- ------- --<br>------- ---------- ------ -- ----- in ----- -- ---- ------<br>--- ----- --- --- ------ -------- ----- --- ------ ----- --<br>----- ----- ---------- --- --- ------ ------ ---- -- ------<br>------- --- ------ ----- --- ---- ------- -- ---- --- --<br>------- ------,242055,242104,240516,240495,240533,242089,,17,in
screen,html.Screen,1_1_1_1_18,2021-04-21T20:52:40.712Z,,,,,,,,,,,,,,,,54,,,,,,,,,,,,,,807,,response,,,,100,,,,,,,Space,keypress(Space),,,,,,,,-- --- ---- --- ------ ----- ------- ---- -- --- ------- --<br>------- ---------- ------ -- ----- -- order -- ---- ------<br>--- ----- --- --- ------ -------- ----- --- ------ ----- --<br>----- ----- ---------- --- --- ------ ------ ---- -- ------<br>------- --- ------ ----- --- ---- ------- -- ---- --- --<br>------- ------,242831.00000000003,242880,242073,242056,242089,242860,,18,order
screen,html.Screen,1_1_1_1_19,2021-04-21T20:52:41.304Z,,,,,,,,,,,,,,,,54,,,,,,,,,,,,,,628,,response,,,,100,,,,,,,Space,keypress(Space),,,,,,,,-- --- ---- --- ------ ----- ------- ---- -- --- ------- --<br>------- ---------- ------ -- ----- -- ----- to ---- ------<br>--- ----- --- --- ------ -------- ----- --- ------ ----- --<br>----- ----- ---------- --- --- ------ ------ ---- -- ------<br>------- --- ------ ----- --- ---- ------- -- ---- --- --<br>------- ------,243423,243472,242844,242831.00000000003,242860,243456,,19,to
screen,html.Screen,1_1_1_1_20,2021-04-21T20:52:42.103Z,,,,,,,,,,,,,,,,54,,,,,,,,,,,,,,832,,response,,,,100,,,,,,,Space,keypress(Space),,,,,,,,-- --- ---- --- ------ ----- ------- ---- -- --- ------- --<br>------- ---------- ------ -- ----- -- ----- -- save ------<br>--- ----- --- --- ------ -------- ----- --- ------ ----- --<br>----- ----- ---------- --- --- ------ ------ ---- -- ------<br>------- --- ------ ----- --- ---- ------- -- ---- --- --<br>------- ------,244223,244272,243440,243424,243456,244252,,20,save
screen,html.Screen,1_1_1_1_21,2021-04-21T20:52:42.840Z,,,,,,,,,,,,,,,,54,,,,,,,,,,,,,,772,,response,,,,100,,,,,,,Space,keypress(Space),,,,,,,,"-- --- ---- --- ------ ----- ------- ---- -- --- ------- --<br>------- ---------- ------ -- ----- -- ----- -- ---- money,<br>--- ----- --- --- ------ -------- ----- --- ------ ----- --<br>----- ----- ---------- --- --- ------ ------ ---- -- ------<br>------- --- ------ ----- --- ---- ------- -- ---- --- --<br>------- ------",244960,245008,244236,244223,244252,244998,,21,"money,"
screen,html.Screen,1_1_1_1_22,2021-04-21T20:52:43.487Z,,,,,,,,,,,,,,,,54,,,,,,,,,,,,,,674,,response,,,,100,,,,,,,Space,keypress(Space),,,,,,,,-- --- ---- --- ------ ----- ------- ---- -- --- ------- --<br>------- ---------- ------ -- ----- -- ----- -- ---- ------<br>the ----- --- --- ------ -------- ----- --- ------ ----- --<br>----- ----- ---------- --- --- ------ ------ ---- -- ------<br>------- --- ------ ----- --- ---- ------- -- ---- --- --<br>------- ------,245607,245656,244982,244960,244998,245643,,22,the
screen,html.Screen,1_1_1_1_23,2021-04-21T20:52:44.120Z,,,,,,,,,,,,,,,,54,,,,,,,,,,,,,,661,,response,,,,100,,,,,,,Space,keypress(Space),,,,,,,,-- --- ---- --- ------ ----- ------- ---- -- --- ------- --<br>------- ---------- ------ -- ----- -- ----- -- ---- ------<br>--- state --- --- ------ -------- ----- --- ------ ----- --<br>----- ----- ---------- --- --- ------ ------ ---- -- ------<br>------- --- ------ ----- --- ---- ------- -- ---- --- --<br>------- ------,246240,246288,245627,245607,245643,246273,,23,state
screen,html.Screen,1_1_1_1_24,2021-04-21T20:52:44.591Z,,,,,,,,,,,,,,,,54,,,,,,,,,,,,,,503.0000000000291,,response,,,,100,,,,,,,Space,keypress(Space),,,,,,,,-- --- ---- --- ------ ----- ------- ---- -- --- ------- --<br>------- ---------- ------ -- ----- -- ----- -- ---- ------<br>--- ----- cut --- ------ -------- ----- --- ------ ----- --<br>----- ----- ---------- --- --- ------ ------ ---- -- ------<br>------- --- ------ ----- --- ---- ------- -- ---- --- --<br>------- ------,246711,246760.00000000003,246257,246240,246273,246753,,24,cut
screen,html.Screen,1_1_1_1_25,2021-04-21T20:52:45.071Z,,,,,,,,,,,,,,,,54,,,,,,,,,,,,,,503,,response,,,,100,,,,,,,Space,keypress(Space),,,,,,,,-- --- ---- --- ------ ----- ------- ---- -- --- ------- --<br>------- ---------- ------ -- ----- -- ----- -- ---- ------<br>--- ----- --- the ------ -------- ----- --- ------ ----- --<br>----- ----- ---------- --- --- ------ ------ ---- -- ------<br>------- --- ------ ----- --- ---- ------- -- ---- --- --<br>------- ------,247191,247240,246737,246711,246753,247233,,25,the
screen,html.Screen,1_1_1_1_26,2021-04-21T20:52:45.592Z,,,,,,,,,,,,,,,,54,,,,,,,,,,,,,,543.0000000000291,,response,,,,100,,,,,,,Space,keypress(Space),,,,,,,,-- --- ---- --- ------ ----- ------- ---- -- --- ------- --<br>------- ---------- ------ -- ----- -- ----- -- ---- ------<br>--- ----- --- --- bonds' -------- ----- --- ------ ----- --<br>----- ----- ---------- --- --- ------ ------ ---- -- ------<br>------- --- ------ ----- --- ---- ------- -- ---- --- --<br>------- ------,247711,247760.00000000003,247217,247191,247233,247748,,26,bonds'
screen,html.Screen,1_1_1_1_27,2021-04-21T20:52:46.095Z,,,,,,,,,,,,,,,,54,,,,,,,,,,,,,,532,,response,,,,100,,,,,,,Space,keypress(Space),,,,,,,,-- --- ---- --- ------ ----- ------- ---- -- --- ------- --<br>------- ---------- ------ -- ----- -- ----- -- ---- ------<br>--- ----- --- --- ------ interest ----- --- ------ ----- --<br>----- ----- ---------- --- --- ------ ------ ---- -- ------<br>------- --- ------ ----- --- ---- ------- -- ---- --- --<br>------- ------,248215,248264,247732,247711,247748,248245,,27,interest
screen,html.Screen,1_1_1_1_28,2021-04-21T20:52:46.591Z,,,,,,,,,,,,,,,,54,,,,,,,,,,,,,,531.0000000000291,,response,,,,100,,,,,,,Space,keypress(Space),,,,,,,,-- --- ---- --- ------ ----- ------- ---- -- --- ------- --<br>------- ---------- ------ -- ----- -- ----- -- ---- ------<br>--- ----- --- --- ------ -------- rate. --- ------ ----- --<br>----- ----- ---------- --- --- ------ ------ ---- -- ------<br>------- --- ------ ----- --- ---- ------- -- ---- --- --<br>------- ------,248711,248760.00000000003,248229,248215,248245,248743,,28,rate.
screen,html.Screen,1_1_1_1_29,2021-04-21T20:52:47.040Z,,,,,,,,,,,,,,,,54,,,,,,,,,,,,,,482,,response,,,,100,,,,,,,Space,keypress(Space),,,,,,,,-- --- ---- --- ------ ----- ------- ---- -- --- ------- --<br>------- ---------- ------ -- ----- -- ----- -- ---- ------<br>--- ----- --- --- ------ -------- ----- The ------ ----- --<br>----- ----- ---------- --- --- ------ ------ ---- -- ------<br>------- --- ------ ----- --- ---- ------- -- ---- --- --<br>------- ------,249159,249208,248726,248711,248743,249191,,29,The
screen,html.Screen,1_1_1_1_30,2021-04-21T20:52:47.519Z,,,,,,,,,,,,,,,,54,,,,,,,,,,,,,,514.0000000000291,,response,,,,100,,,,,,,Space,keypress(Space),,,,,,,,-- --- ---- --- ------ ----- ------- ---- -- --- ------- --<br>------- ---------- ------ -- ----- -- ----- -- ---- ------<br>--- ----- --- --- ------ -------- ----- --- market ----- --<br>----- ----- ---------- --- --- ------ ------ ---- -- ------<br>------- --- ------ ----- --- ---- ------- -- ---- --- --<br>------- ------,249639,249688.00000000003,249174,249159,249191,249672,,30,market
screen,html.Screen,1_1_1_1_31,2021-04-21T20:52:48.023Z,,,,,,,,,,,,,,,,54,,,,,,,,,,,,,,536,,response,,,,100,,,,,,,Space,keypress(Space),,,,,,,,-- --- ---- --- ------ ----- ------- ---- -- --- ------- --<br>------- ---------- ------ -- ----- -- ----- -- ---- ------<br>--- ----- --- --- ------ -------- ----- --- ------ value --<br>----- ----- ---------- --- --- ------ ------ ---- -- ------<br>------- --- ------ ----- --- ---- ------- -- ---- --- --<br>------- ------,250143,250192,249656,249639,249672,250170,,31,value
screen,html.Screen,1_1_1_1_32,2021-04-21T20:52:48.464Z,,,,,,,,,,,,,,,,54,,,,,,,,,,,,,,478,,response,,,,100,,,,,,,Space,keypress(Space),,,,,,,,-- --- ---- --- ------ ----- ------- ---- -- --- ------- --<br>------- ---------- ------ -- ----- -- ----- -- ---- ------<br>--- ----- --- --- ------ -------- ----- --- ------ ----- of<br>----- ----- ---------- --- --- ------ ------ ---- -- ------<br>------- --- ------ ----- --- ---- ------- -- ---- --- --<br>------- ------,250583,250632,250154,250143,250170,250618,,32,of
screen,html.Screen,1_1_1_1_33,2021-04-21T20:52:48.983Z,,,,,,,,,,,,,,,,54,,,,,,,,,,,,,,551.0000000000291,,response,,,,100,,,,,,,Space,keypress(Space),,,,,,,,-- --- ---- --- ------ ----- ------- ---- -- --- ------- --<br>------- ---------- ------ -- ----- -- ----- -- ---- ------<br>--- ----- --- --- ------ -------- ----- --- ------ ----- --<br>these ----- ---------- --- --- ------ ------ ---- -- ------<br>------- --- ------ ----- --- ---- ------- -- ---- --- --<br>------- ------,251103,251152.00000000003,250601,250583,250618,251133,,33,these
screen,html.Screen,1_1_1_1_34,2021-04-21T20:52:49.439Z,,,,,,,,,,,,,,,,54,,,,,,,,,,,,,,492,,response,,,,100,,,,,,,Space,keypress(Space),,,,,,,,-- --- ---- --- ------ ----- ------- ---- -- --- ------- --<br>------- ---------- ------ -- ----- -- ----- -- ---- ------<br>--- ----- --- --- ------ -------- ----- --- ------ ----- --<br>----- bonds ---------- --- --- ------ ------ ---- -- ------<br>------- --- ------ ----- --- ---- ------- -- ---- --- --<br>------- ------,251559,251608,251116,251103,251133,251597,,34,bonds
screen,html.Screen,1_1_1_1_35,2021-04-21T20:52:49.944Z,,,,,,,,,,,,,,,,54,,,,,,,,,,,,,,531,,response,,,,100,,,,,,,Space,keypress(Space),,,,,,,,"-- --- ---- --- ------ ----- ------- ---- -- --- ------- --<br>------- ---------- ------ -- ----- -- ----- -- ---- ------<br>--- ----- --- --- ------ -------- ----- --- ------ ----- --<br>----- ----- plummeted, --- --- ------ ------ ---- -- ------<br>------- --- ------ ----- --- ---- ------- -- ---- --- --<br>------- ------",252064,252112,251581,251559,251597,252095,,35,"plummeted,"
screen,html.Screen,1_1_1_1_36,2021-04-21T20:52:50.399Z,,,,,,,,,,,,,,,,54,,,,,,,,,,,,,,490,,response,,,,100,,,,,,,Space,keypress(Space),,,,,,,,-- --- ---- --- ------ ----- ------- ---- -- --- ------- --<br>------- ---------- ------ -- ----- -- ----- -- ---- ------<br>--- ----- --- --- ------ -------- ----- --- ------ ----- --<br>----- ----- ---------- and --- ------ ------ ---- -- ------<br>------- --- ------ ----- --- ---- ------- -- ---- --- --<br>------- ------,252519,252568,252078,252064,252095,252559,,36,and
screen,html.Screen,1_1_1_1_37,2021-04-21T20:52:50.887Z,,,,,,,,,,,,,,,,54,,,,,,,,,,,,,,514,,response,,,,100,,,,,,,Space,keypress(Space),,,,,,,,-- --- ---- --- ------ ----- ------- ---- -- --- ------- --<br>------- ---------- ------ -- ----- -- ----- -- ---- ------<br>--- ----- --- --- ------ -------- ----- --- ------ ----- --<br>----- ----- ---------- --- the ------ ------ ---- -- ------<br>------- --- ------ ----- --- ---- ------- -- ---- --- --<br>------- ------,253007,253056,252542,252519,252559,253040,,37,the
screen,html.Screen,1_1_1_1_38,2021-04-21T20:52:51.480Z,,,,,,,,,,,,,,,,54,,,,,,,,,,,,,,624,,response,,,,100,,,,,,,Space,keypress(Space),,,,,,,,-- --- ---- --- ------ ----- ------- ---- -- --- ------- --<br>------- ---------- ------ -- ----- -- ----- -- ---- ------<br>--- ----- --- --- ------ -------- ----- --- ------ ----- --<br>----- ----- ---------- --- --- market ------ ---- -- ------<br>------- --- ------ ----- --- ---- ------- -- ---- --- --<br>------- ------,253599.00000000003,253648,253024,253007,253040,253638,,38,market
screen,html.Screen,1_1_1_1_39,2021-04-21T20:52:51.952Z,,,,,,,,,,,,,,,,54,,,,,,,,,,,,,,498,,response,,,,100,,,,,,,Space,keypress(Space),,,,,,,,-- --- ---- --- ------ ----- ------- ---- -- --- ------- --<br>------- ---------- ------ -- ----- -- ----- -- ---- ------<br>--- ----- --- --- ------ -------- ----- --- ------ ----- --<br>----- ----- ---------- --- --- ------ became ---- -- ------<br>------- --- ------ ----- --- ---- ------- -- ---- --- --<br>------- ------,254071,254120,253622,253599.00000000003,253638,254102,,39,became
screen,html.Screen,1_1_1_1_40,2021-04-21T20:52:52.479Z,,,,,,,,,,,,,,,,54,,,,,,,,,,,,,,563,,response,,,,100,,,,,,,Space,keypress(Space),,,,,,,,-- --- ---- --- ------ ----- ------- ---- -- --- ------- --<br>------- ---------- ------ -- ----- -- ----- -- ---- ------<br>--- ----- --- --- ------ -------- ----- --- ------ ----- --<br>----- ----- ---------- --- --- ------ ------ wary -- ------<br>------- --- ------ ----- --- ---- ------- -- ---- --- --<br>------- ------,254599.00000000003,254648,254085,254071,254102,254633,,40,wary
screen,html.Screen,1_1_1_1_41,2021-04-21T20:52:52.952Z,,,,,,,,,,,,,,,,54,,,,,,,,,,,,,,503,,response,,,,100,,,,,,,Space,keypress(Space),,,,,,,,-- --- ---- --- ------ ----- ------- ---- -- --- ------- --<br>------- ---------- ------ -- ----- -- ----- -- ---- ------<br>--- ----- --- --- ------ -------- ----- --- ------ ----- --<br>----- ----- ---------- --- --- ------ ------ ---- of ------<br>------- --- ------ ----- --- ---- ------- -- ---- --- --<br>------- ------,255072,255120,254617,254599.00000000003,254633,255113,,41,of
screen,html.Screen,1_1_1_1_42,2021-04-21T20:52:53.472Z,,,,,,,,,,,,,,,,54,,,,,,,,,,,,,,543.0000000000291,,response,,,,100,,,,,,,Space,keypress(Space),,,,,,,,-- --- ---- --- ------ ----- ------- ---- -- --- ------- --<br>------- ---------- ------ -- ----- -- ----- -- ---- ------<br>--- ----- --- --- ------ -------- ----- --- ------ ----- --<br>----- ----- ---------- --- --- ------ ------ ---- -- French<br>------- --- ------ ----- --- ---- ------- -- ---- --- --<br>------- ------,255591,255640.00000000003,255097,255072,255113,255628,,42,French
screen,html.Screen,1_1_1_1_43,2021-04-21T20:52:53.983Z,,,,,,,,,,,,,,,,54,,,,,,,,,,,,,,541,,response,,,,100,,,,,,,Space,keypress(Space),,,,,,,,-- --- ---- --- ------ ----- ------- ---- -- --- ------- --<br>------- ---------- ------ -- ----- -- ----- -- ---- ------<br>--- ----- --- --- ------ -------- ----- --- ------ ----- --<br>----- ----- ---------- --- --- ------ ------ ---- -- ------<br>credit. --- ------ ----- --- ---- ------- -- ---- --- --<br>------- ------,256103,256152,255611,255591,255628,256142,,43,credit.
screen,html.Screen,1_1_1_1_44,2021-04-21T20:52:54.463Z,,,,,,,,,,,,,,,,54,,,,,,,,,,,,,,506,,response,,,,100,,,,,,,Space,keypress(Space),,,,,,,,-- --- ---- --- ------ ----- ------- ---- -- --- ------- --<br>------- ---------- ------ -- ----- -- ----- -- ---- ------<br>--- ----- --- --- ------ -------- ----- --- ------ ----- --<br>----- ----- ---------- --- --- ------ ------ ---- -- ------<br>------- The ------ ----- --- ---- ------- -- ---- --- --<br>------- ------,256583.00000000003,256632,256126,256103,256142,256623,,44,The
screen,html.Screen,1_1_1_1_45,2021-04-21T20:52:54.975Z,,,,,,,,,,,,,,,,54,,,,,,,,,,,,,,538,,response,,,,100,,,,,,,Space,keypress(Space),,,,,,,,-- --- ---- --- ------ ----- ------- ---- -- --- ------- --<br>------- ---------- ------ -- ----- -- ----- -- ---- ------<br>--- ----- --- --- ------ -------- ----- --- ------ ----- --<br>----- ----- ---------- --- --- ------ ------ ---- -- ------<br>------- --- French ----- --- ---- ------- -- ---- --- --<br>------- ------,257095.00000000003,257144,256606,256583.00000000003,256623,257138,,45,French
screen,html.Screen,1_1_1_1_46,2021-04-21T20:52:55.472Z,,,,,,,,,,,,,,,,54,,,,,,,,,,,,,,519,,response,,,,100,,,,,,,Space,keypress(Space),,,,,,,,-- --- ---- --- ------ ----- ------- ---- -- --- ------- --<br>------- ---------- ------ -- ----- -- ----- -- ---- ------<br>--- ----- --- --- ------ -------- ----- --- ------ ----- --<br>----- ----- ---------- --- --- ------ ------ ---- -- ------<br>------- --- ------ state --- ---- ------- -- ---- --- --<br>------- ------,257591.99999999997,257640,257121,257095.00000000003,257138,257619,,46,state
screen,html.Screen,1_1_1_1_47,2021-04-21T20:52:55.959Z,,,,,,,,,,,,,,,,54,,,,,,,,,,,,,,525,,response,,,,100,,,,,,,Space,keypress(Space),,,,,,,,-- --- ---- --- ------ ----- ------- ---- -- --- ------- --<br>------- ---------- ------ -- ----- -- ----- -- ---- ------<br>--- ----- --- --- ------ -------- ----- --- ------ ----- --<br>----- ----- ---------- --- --- ------ ------ ---- -- ------<br>------- --- ------ ----- was ---- ------- -- ---- --- --<br>------- ------,258079,258128,257603,257591.99999999997,257619,258116,,47,was
screen,html.Screen,1_1_1_1_48,2021-04-21T20:52:56.464Z,,,,,,,,,,,,,,,,54,,,,,,,,,,,,,,532,,response,,,,100,,,,,,,Space,keypress(Space),,,,,,,,-- --- ---- --- ------ ----- ------- ---- -- --- ------- --<br>------- ---------- ------ -- ----- -- ----- -- ---- ------<br>--- ----- --- --- ------ -------- ----- --- ------ ----- --<br>----- ----- ---------- --- --- ------ ------ ---- -- ------<br>------- --- ------ ----- --- left ------- -- ---- --- --<br>------- ------,258583.00000000003,258632,258100,258079,258116,258615,,48,left
screen,html.Screen,1_1_1_1_49,2021-04-21T20:52:56.960Z,,,,,,,,,,,,,,,,54,,,,,,,,,,,,,,530,,response,,,,100,,,,,,,Space,keypress(Space),,,,,,,,-- --- ---- --- ------ ----- ------- ---- -- --- ------- --<br>------- ---------- ------ -- ----- -- ----- -- ---- ------<br>--- ----- --- --- ------ -------- ----- --- ------ ----- --<br>----- ----- ---------- --- --- ------ ------ ---- -- ------<br>------- --- ------ ----- --- ---- without -- ---- --- --<br>------- ------,259079.99999999997,259128,258598,258584,258615,259112,,49,without
screen,html.Screen,1_1_1_1_50,2021-04-21T20:52:57.431Z,,,,,,,,,,,,,,,,54,,,,,,,,,,,,,,504.0000000000291,,response,,,,100,,,,,,,Space,keypress(Space),,,,,,,,-- --- ---- --- ------ ----- ------- ---- -- --- ------- --<br>------- ---------- ------ -- ----- -- ----- -- ---- ------<br>--- ----- --- --- ------ -------- ----- --- ------ ----- --<br>----- ----- ---------- --- --- ------ ------ ---- -- ------<br>------- --- ------ ----- --- ---- ------- an ---- --- --<br>------- ------,259551,259600.00000000003,259096,259079.99999999997,259112,259592,,50,an
screen,html.Screen,1_1_1_1_51,2021-04-21T20:52:57.951Z,,,,,,,,,,,,,,,,54,,,,,,,,,,,,,,544,,response,,,,100,,,,,,,Space,keypress(Space),,,,,,,,-- --- ---- --- ------ ----- ------- ---- -- --- ------- --<br>------- ---------- ------ -- ----- -- ----- -- ---- ------<br>--- ----- --- --- ------ -------- ----- --- ------ ----- --<br>----- ----- ---------- --- --- ------ ------ ---- -- ------<br>------- --- ------ ----- --- ---- ------- -- easy --- --<br>------- ------,260071.00000000003,260120,259576,259551,259592,260108,,51,easy
screen,html.Screen,1_1_1_1_52,2021-04-21T20:52:58.464Z,,,,,,,,,,,,,,,,54,,,,,,,,,,,,,,542,,response,,,,100,,,,,,,Space,keypress(Space),,,,,,,,-- --- ---- --- ------ ----- ------- ---- -- --- ------- --<br>------- ---------- ------ -- ----- -- ----- -- ---- ------<br>--- ----- --- --- ------ -------- ----- --- ------ ----- --<br>----- ----- ---------- --- --- ------ ------ ---- -- ------<br>------- --- ------ ----- --- ---- ------- -- ---- way --<br>------- ------,260583.00000000003,260632,260090,260071.00000000003,260108,260621,,52,way
screen,html.Screen,1_1_1_1_53,2021-04-21T20:52:59.055Z,,,,,,,,,,,,,,,,54,,,,,,,,,,,,,,619,,response,,,,100,,,,,,,Space,keypress(Space),,,,,,,,-- --- ---- --- ------ ----- ------- ---- -- --- ------- --<br>------- ---------- ------ -- ----- -- ----- -- ---- ------<br>--- ----- --- --- ------ -------- ----- --- ------ ----- --<br>----- ----- ---------- --- --- ------ ------ ---- -- ------<br>------- --- ------ ----- --- ---- ------- -- ---- --- of<br>------- ------,261175,261224,260605,260584,260621,261202,,53,of
screen,html.Screen,1_1_1_1_54,2021-04-21T20:52:59.592Z,,,,,,,,,,,,,,,,54,,,,,,,,,,,,,,574,,response,,,,100,,,,,,,Space,keypress(Space),,,,,,,,-- --- ---- --- ------ ----- ------- ---- -- --- ------- --<br>------- ---------- ------ -- ----- -- ----- -- ---- ------<br>--- ----- --- --- ------ -------- ----- --- ------ ----- --<br>----- ----- ---------- --- --- ------ ------ ---- -- ------<br>------- --- ------ ----- --- ---- ------- -- ---- --- --<br>raising ------,261711,261760,261186,261175,261202,261749,,54,raising
screen,html.Screen,1_1_1_1_55,2021-04-21T20:53:00.463Z,,,,,,,,,,,,,,,,54,,,,,,,,,,,,,,899,,response,,,,100,,,,,,,Space,keypress(Space),,,,,,,,-- --- ---- --- ------ ----- ------- ---- -- --- ------- --<br>------- ---------- ------ -- ----- -- ----- -- ---- ------<br>--- ----- --- --- ------ -------- ----- --- ------ ----- --<br>----- ----- ---------- --- --- ------ ------ ---- -- ------<br>------- --- ------ ----- --- ---- ------- -- ---- --- --<br>------- money.,262583,262632,261733,261711,261749,262613,,55,money.
Item 100,flow.Loop,1_1_1_1,2021-04-21T20:53:00.464Z,,,,,,,,,,,,,,,,,,,,,,,,,,,,,,34298,,completion,,,,,F,,,,,,,,,,,silence,,,,,262584,262632,228317,228318,228334,262613,,,
Question 1,html.Screen,1_1_1_2,2021-04-21T20:53:03.094Z,,,,,,,,,,,,,,,,,,,,,,,,,,,true,TRUE,,2666.000000000058,,response,,,,100,F,,,,,,TRUE,click #choice-1,,,,silence,,,,,265214,265263.00000000006,262597,262584,262613,265234,,,
Question 2,html.Screen,1_1_1_3,2021-04-21T20:53:05.625Z,,,,,,,,,,,,,,,,,,,,,,,,,,,true,FALSE,,2576,,response,,,,100,F,,,,,,FALSE,click #choice-2,,,,silence,,,,,267744,267794,265218,265214,265234,267763,,,
Item 100,flow.Sequence,1_1_1,2021-04-21T20:53:05.625Z,,,,,,,,,,,,,,,,,,,,,,,,,,,,,,49463,,completion,,,,,,,,,,,,,,,,,,,,,267745,267794,218305,218291,218331,267763,,,
End of Practice,html.Page,1_1_2,2021-04-21T20:53:08.968Z,,,,,,,,,,,,,,,,,,,,,,,,,,,,,,3325,,form submission,,,,,,,,,,,,,,,,,,,,,271088,271088,267749,267745,267763,271105,,,
Practice,flow.Sequence,1_1,2021-04-21T20:53:08.968Z,,,,,,,,,,,,,,,,,,,,,,,,,,,,,,114508,,completion,,,,,,,,,,,,,,,,,,,,,271088,271088,156564,156557.00000000003,156580,271105,,,
Trap_instruction,html.Page,1_2_0,2021-04-21T20:53:12.972Z,,,,,,,,,,,,,,,,,,,,,,,,,,,,,,3987,,form submission,,,,,,,,,,,,,,,,,,,,,275092,275092,271091,271088,271105,275144,,,
trap_trial,html.Screen,1_2_1,2021-04-21T20:53:18.337Z,,,,,,,,,,,,,,,,,,,,,,,,,,,true,1,,5401,,response,,,,,,,,,,,1,click #choice-1,,,,,,,,,280457,280507,275106,275092,275144,280497,,,
end of trap trial,html.Page,1_2_2,2021-04-21T20:53:20.082Z,,,,,,,,,,,,,,,,,,,,,,,,,,,,,,1705,,form submission,,,,,,,,,,,,,,,,,,,,,282202,282202,280471,280457,280497,282235,,,
Trap 1,flow.Sequence,1_2,2021-04-21T20:53:20.083Z,,,,,,,,,,,,,,,,,,,,,,,,,,,,,,11097,,completion,,,,,,,,,,,,,,,,,,,,,282203.00000000006,282202,271091,271088,271105,282235,,,
Standby,html.Page,1_3_0,2021-04-21T20:53:28.094Z,,,,,,,,,,,,,,,,,,,,,,,,,,,,,,7995,,timeout,,,,,,,,,,,,,,,,,,,,,290214,290214,282217,282203.00000000006,282235,290230,,,
Holding screen,html.Screen,1_3_1_0_0,2021-04-21T20:53:35.101Z,,,,,,,,,,,,,,,,,,,,,,,,,,,,,,7007,,timeout,,,,,,,,,,,,,,,,,,,,,297221,297221,290214,290214,290230,297237,,,
screen,html.Screen,1_3_1_0_1_0,2021-04-21T20:53:36.776Z,,,,,,,,,,,,,,,,48,,,,,,,,,,,,,,1723,,response,,,,10,F,,,,,,Space,keypress(Space),,,,instrumental,,,,As -- --- ------ ------- --------- ----------- --------<br>--------- -------- --- ------- -- ------- ---- -- ------<br>-- --- -------- -------- ---------- ---- ---- ---- ------<br>-- --------- -- ---- -- --- -- --- ------- -- - -----<br>---------- -- -- -- ---- ----- -- ------ -- --- ------<br>-------,298896,298944,297221,297221,297237,298932,,0,As
screen,html.Screen,1_3_1_0_1_1,2021-04-21T20:53:37.199Z,,,,,,,,,,,,,,,,48,,,,,,,,,,,,,,454,,response,,,,10,F,,,,,,Space,keypress(Space),,,,instrumental,,,,-- in --- ------ ------- --------- ----------- --------<br>--------- -------- --- ------- -- ------- ---- -- ------<br>-- --- -------- -------- ---------- ---- ---- ---- ------<br>-- --------- -- ---- -- --- -- --- ------- -- - -----<br>---------- -- -- -- ---- ----- -- ------ -- --- ------<br>-------,299319,299368,298914,298896,298932,299351,,1,in
screen,html.Screen,1_3_1_0_1_2,2021-04-21T20:53:37.591Z,,,,,,,,,,,,,,,,48,,,,,,,,,,,,,,426,,response,,,,10,F,,,,,,Space,keypress(Space),,,,instrumental,,,,-- -- the ------ ------- --------- ----------- --------<br>--------- -------- --- ------- -- ------- ---- -- ------<br>-- --- -------- -------- ---------- ---- ---- ---- ------<br>-- --------- -- ---- -- --- -- --- ------- -- - -----<br>---------- -- -- -- ---- ----- -- ------ -- --- ------<br>-------,299711,299760,299334,299319,299351,299732,,2,the
screen,html.Screen,1_3_1_0_1_3,2021-04-21T20:53:38.087Z,,,,,,,,,,,,,,,,48,,,,,,,,,,,,,,540,,response,,,,10,F,,,,,,Space,keypress(Space),,,,instrumental,,,,-- -- --- United ------- --------- ----------- --------<br>--------- -------- --- ------- -- ------- ---- -- ------<br>-- --- -------- -------- ---------- ---- ---- ---- ------<br>-- --------- -- ---- -- --- -- --- ------- -- - -----<br>---------- -- -- -- ---- ----- -- ------ -- --- ------<br>-------,300207,300256,299716,299711,299732,300248,,3,United
screen,html.Screen,1_3_1_0_1_4,2021-04-21T20:53:38.519Z,,,,,,,,,,,,,,,,48,,,,,,,,,,,,,,456,,response,,,,10,F,,,,,,Space,keypress(Space),,,,instrumental,,,,"-- -- --- ------ States, --------- ----------- --------<br>--------- -------- --- ------- -- ------- ---- -- ------<br>-- --- -------- -------- ---------- ---- ---- ---- ------<br>-- --------- -- ---- -- --- -- --- ------- -- - -----<br>---------- -- -- -- ---- ----- -- ------ -- --- ------<br>-------",300639,300688,300232,300207,300248,300682,,4,"States,"
screen,html.Screen,1_3_1_0_1_5,2021-04-21T20:53:39.095Z,,,,,,,,,,,,,,,,48,,,,,,,,,,,,,,599,,response,,,,10,F,,,,,,Space,keypress(Space),,,,instrumental,,,,-- -- --- ------ ------- Colombian ----------- --------<br>--------- -------- --- ------- -- ------- ---- -- ------<br>-- --- -------- -------- ---------- ---- ---- ---- ------<br>-- --------- -- ---- -- --- -- --- ------- -- - -----<br>---------- -- -- -- ---- ----- -- ------ -- --- ------<br>-------,301215.00000000006,301264,300665,300639,300682,301248,,5,Colombian
screen,html.Screen,1_3_1_0_1_6,2021-04-21T20:53:39.703Z,,,,,,,,,,,,,,,,48,,,,,,,,,,,,,,639,,response,,,,10,F,,,,,,Space,keypress(Space),,,,instrumental,,,,-- -- --- ------ ------- --------- legislation --------<br>--------- -------- --- ------- -- ------- ---- -- ------<br>-- --- -------- -------- ---------- ---- ---- ---- ------<br>-- --------- -- ---- -- --- -- --- ------- -- - -----<br>---------- -- -- -- ---- ----- -- ------ -- --- ------<br>-------,301824,301872,301233,301215.00000000006,301248,301862,,6,legislation
screen,html.Screen,1_3_1_0_1_7,2021-04-21T20:53:40.279Z,,,,,,,,,,,,,,,,48,,,,,,,,,,,,,,602,,response,,,,10,F,,,,,,Space,keypress(Space),,,,instrumental,,,,-- -- --- ------ ------- --------- ----------- requires<br>--------- -------- --- ------- -- ------- ---- -- ------<br>-- --- -------- -------- ---------- ---- ---- ---- ------<br>-- --------- -- ---- -- --- -- --- ------- -- - -----<br>---------- -- -- -- ---- ----- -- ------ -- --- ------<br>-------,302399,302448,301846,301824,301862,302425,,7,requires
screen,html.Screen,1_3_1_0_1_8,2021-04-21T20:53:40.855Z,,,,,,,,,,,,,,,,48,,,,,,,,,,,,,,615,,response,,,,10,F,,,,,,Space,keypress(Space),,,,instrumental,,,,-- -- --- ------ ------- --------- ----------- --------<br>travelers -------- --- ------- -- ------- ---- -- ------<br>-- --- -------- -------- ---------- ---- ---- ---- ------<br>-- --------- -- ---- -- --- -- --- ------- -- - -----<br>---------- -- -- -- ---- ----- -- ------ -- --- ------<br>-------,302975,303024,302409,302399,302425,303005,,8,travelers
screen,html.Screen,1_3_1_0_1_9,2021-04-21T20:53:41.351Z,,,,,,,,,,,,,,,,48,,,,,,,,,,,,,,531,,response,,,,10,F,,,,,,Space,keypress(Space),,,,instrumental,,,,-- -- --- ------ ------- --------- ----------- --------<br>--------- entering --- ------- -- ------- ---- -- ------<br>-- --- -------- -------- ---------- ---- ---- ---- ------<br>-- --------- -- ---- -- --- -- --- ------- -- - -----<br>---------- -- -- -- ---- ----- -- ------ -- --- ------<br>-------,303471,303520,302989,302976,303005,303502,,9,entering
screen,html.Screen,1_3_1_0_1_10,2021-04-21T20:53:41.783Z,,,,,,,,,,,,,,,,48,,,,,,,,,,,,,,466,,response,,,,10,F,,,,,,Space,keypress(Space),,,,instrumental,,,,-- -- --- ------ ------- --------- ----------- --------<br>--------- -------- the ------- -- ------- ---- -- ------<br>-- --- -------- -------- ---------- ---- ---- ---- ------<br>-- --------- -- ---- -- --- -- --- ------- -- - -----<br>---------- -- -- -- ---- ----- -- ------ -- --- ------<br>-------,303903,303952,303486,303471,303502,303933,,10,the
screen,html.Screen,1_3_1_0_1_11,2021-04-21T20:53:42.239Z,,,,,,,,,,,,,,,,48,,,,,,,,,,,,,,492,,response,,,,10,F,,,,,,Space,keypress(Space),,,,instrumental,,,,-- -- --- ------ ------- --------- ----------- --------<br>--------- -------- --- country -- ------- ---- -- ------<br>-- --- -------- -------- ---------- ---- ---- ---- ------<br>-- --------- -- ---- -- --- -- --- ------- -- - -----<br>---------- -- -- -- ---- ----- -- ------ -- --- ------<br>-------,304359,304408,303916,303903,303933,304398,,11,country
screen,html.Screen,1_3_1_0_1_12,2021-04-21T20:53:42.695Z,,,,,,,,,,,,,,,,48,,,,,,,,,,,,,,483.0000000000582,,response,,,,10,F,,,,,,Space,keypress(Space),,,,instrumental,,,,-- -- --- ------ ------- --------- ----------- --------<br>--------- -------- --- ------- to ------- ---- -- ------<br>-- --- -------- -------- ---------- ---- ---- ---- ------<br>-- --------- -- ---- -- --- -- --- ------- -- - -----<br>---------- -- -- -- ---- ----- -- ------ -- --- ------<br>-------,304815,304864.00000000006,304381,304359,304398,304846,,12,to
screen,html.Screen,1_3_1_0_1_13,2021-04-21T20:53:43.167Z,,,,,,,,,,,,,,,,48,,,,,,,,,,,,,,506,,response,,,,10,F,,,,,,Space,keypress(Space),,,,instrumental,,,,-- -- --- ------ ------- --------- ----------- --------<br>--------- -------- --- ------- -- declare ---- -- ------<br>-- --- -------- -------- ---------- ---- ---- ---- ------<br>-- --------- -- ---- -- --- -- --- ------- -- - -----<br>---------- -- -- -- ---- ----- -- ------ -- --- ------<br>-------,305287.00000000006,305336,304830,304815,304846,305327,,13,declare
screen,html.Screen,1_3_1_0_1_14,2021-04-21T20:53:43.647Z,,,,,,,,,,,,,,,,48,,,,,,,,,,,,,,504.0000000000582,,response,,,,10,F,,,,,,Space,keypress(Space),,,,instrumental,,,,-- -- --- ------ ------- --------- ----------- --------<br>--------- -------- --- ------- -- ------- cash -- ------<br>-- --- -------- -------- ---------- ---- ---- ---- ------<br>-- --------- -- ---- -- --- -- --- ------- -- - -----<br>---------- -- -- -- ---- ----- -- ------ -- --- ------<br>-------,305767,305816.00000000006,305312,305287.00000000006,305327,305808,,14,cash
screen,html.Screen,1_3_1_0_1_15,2021-04-21T20:53:44.055Z,,,,,,,,,,,,,,,,48,,,,,,,,,,,,,,432,,response,,,,10,F,,,,,,Space,keypress(Space),,,,instrumental,,,,-- -- --- ------ ------- --------- ----------- --------<br>--------- -------- --- ------- -- ------- ---- in ------<br>-- --- -------- -------- ---------- ---- ---- ---- ------<br>-- --------- -- ---- -- --- -- --- ------- -- - -----<br>---------- -- -- -- ---- ----- -- ------ -- --- ------<br>-------,306175,306224,305792,305767,305808,306206,,15,in
screen,html.Screen,1_3_1_0_1_16,2021-04-21T20:53:44.551Z,,,,,,,,,,,,,,,,48,,,,,,,,,,,,,,530,,response,,,,10,F,,,,,,Space,keypress(Space),,,,instrumental,,,,-- -- --- ------ ------- --------- ----------- --------<br>--------- -------- --- ------- -- ------- ---- -- excess<br>-- --- -------- -------- ---------- ---- ---- ---- ------<br>-- --------- -- ---- -- --- -- --- ------- -- - -----<br>---------- -- -- -- ---- ----- -- ------ -- --- ------<br>-------,306671,306720,306190,306175,306206,306705,,16,excess
screen,html.Screen,1_3_1_0_1_17,2021-04-21T20:53:45.063Z,,,,,,,,,,,,,,,,48,,,,,,,,,,,,,,543,,response,,,,10,F,,,,,,Space,keypress(Space),,,,instrumental,,,,-- -- --- ------ ------- --------- ----------- --------<br>--------- -------- --- ------- -- ------- ---- -- ------<br>of --- -------- -------- ---------- ---- ---- ---- ------<br>-- --------- -- ---- -- --- -- --- ------- -- - -----<br>---------- -- -- -- ---- ----- -- ------ -- --- ------<br>-------,307183,307232,306689,306671,306705,307219,,17,of
screen,html.Screen,1_3_1_0_1_18,2021-04-21T20:53:45.783Z,,,,,,,,,,,,,,,,48,,,,,,,,,,,,,,749,,response,,,,10,F,,,,,,Space,keypress(Space),,,,instrumental,,,,-- -- --- ------ ------- --------- ----------- --------<br>--------- -------- --- ------- -- ------- ---- -- ------<br>-- ten -------- -------- ---------- ---- ---- ---- ------<br>-- --------- -- ---- -- --- -- --- ------- -- - -----<br>---------- -- -- -- ---- ----- -- ------ -- --- ------<br>-------,307903,307952,307203,307184,307219,307933,,18,ten
screen,html.Screen,1_3_1_0_1_19,2021-04-21T20:53:46.263Z,,,,,,,,,,,,,,,,48,,,,,,,,,,,,,,515,,response,,,,10,F,,,,,,Space,keypress(Space),,,,instrumental,,,,-- -- --- ------ ------- --------- ----------- --------<br>--------- -------- --- ------- -- ------- ---- -- ------<br>-- --- thousand -------- ---------- ---- ---- ---- ------<br>-- --------- -- ---- -- --- -- --- ------- -- - -----<br>---------- -- -- -- ---- ----- -- ------ -- --- ------<br>-------,308383,308432,307917,307903,307933,308412,,19,thousand
screen,html.Screen,1_3_1_0_1_20,2021-04-21T20:53:47.151Z,,,,,,,,,,,,,,,,48,,,,,,,,,,,,,,924,,response,,,,10,F,,,,,,Space,keypress(Space),,,,instrumental,,,,-- -- --- ------ ------- --------- ----------- --------<br>--------- -------- --- ------- -- ------- ---- -- ------<br>-- --- -------- dollars. ---------- ---- ---- ---- ------<br>-- --------- -- ---- -- --- -- --- ------- -- - -----<br>---------- -- -- -- ---- ----- -- ------ -- --- ------<br>-------,309271,309320,308396,308383,308412,309310,,20,dollars.
screen,html.Screen,1_3_1_0_1_21,2021-04-21T20:53:48.295Z,,,,,,,,,,,,,,,,48,,,,,,,,,,,,,,1170,,response,,,,10,F,,,,,,Space,keypress(Space),,,,instrumental,,,,-- -- --- ------ ------- --------- ----------- --------<br>--------- -------- --- ------- -- ------- ---- -- ------<br>-- --- -------- -------- Concealing ---- ---- ---- ------<br>-- --------- -- ---- -- --- -- --- ------- -- - -----<br>---------- -- -- -- ---- ----- -- ------ -- --- ------<br>-------,310416,310464,309294,309271,309310,310455,,21,Concealing
screen,html.Screen,1_3_1_0_1_22,2021-04-21T20:53:48.839Z,,,,,,,,,,,,,,,,48,,,,,,,,,,,,,,570,,response,,,,10,F,,,,,,Space,keypress(Space),,,,instrumental,,,,-- -- --- ------ ------- --------- ----------- --------<br>--------- -------- --- ------- -- ------- ---- -- ------<br>-- --- -------- -------- ---------- more ---- ---- ------<br>-- --------- -- ---- -- --- -- --- ------- -- - -----<br>---------- -- -- -- ---- ----- -- ------ -- --- ------<br>-------,310959,311008,310438,310416,310455,310996,,22,more
screen,html.Screen,1_3_1_0_1_23,2021-04-21T20:53:49.287Z,,,,,,,,,,,,,,,,48,,,,,,,,,,,,,,476,,response,,,,10,F,,,,,,Space,keypress(Space),,,,instrumental,,,,-- -- --- ------ ------- --------- ----------- --------<br>--------- -------- --- ------- -- ------- ---- -- ------<br>-- --- -------- -------- ---------- ---- than ---- ------<br>-- --------- -- ---- -- --- -- --- ------- -- - -----<br>---------- -- -- -- ---- ----- -- ------ -- --- ------<br>-------,311407,311456,310980,310959,310996,311444,,23,than
screen,html.Screen,1_3_1_0_1_24,2021-04-21T20:53:49.719Z,,,,,,,,,,,,,,,,48,,,,,,,,,,,,,,460.0000000000582,,response,,,,10,F,,,,,,Space,keypress(Space),,,,instrumental,,,,-- -- --- ------ ------- --------- ----------- --------<br>--------- -------- --- ------- -- ------- ---- -- ------<br>-- --- -------- -------- ---------- ---- ---- that ------<br>-- --------- -- ---- -- --- -- --- ------- -- - -----<br>---------- -- -- -- ---- ----- -- ------ -- --- ------<br>-------,311839,311888.00000000006,311428,311407,311444,311875,,24,that
screen,html.Screen,1_3_1_0_1_25,2021-04-21T20:53:50.239Z,,,,,,,,,,,,,,,,48,,,,,,,,,,,,,,550,,response,,,,10,F,,,,,,Space,keypress(Space),,,,instrumental,,,,-- -- --- ------ ------- --------- ----------- --------<br>--------- -------- --- ------- -- ------- ---- -- ------<br>-- --- -------- -------- ---------- ---- ---- ---- amount<br>-- --------- -- ---- -- --- -- --- ------- -- - -----<br>---------- -- -- -- ---- ----- -- ------ -- --- ------<br>-------,312359,312408,311858,311839,311875,312390,,25,amount
screen,html.Screen,1_3_1_0_1_26,2021-04-21T20:53:50.719Z,,,,,,,,,,,,,,,,48,,,,,,,,,,,,,,514.0000000000582,,response,,,,10,F,,,,,,Space,keypress(Space),,,,instrumental,,,,-- -- --- ------ ------- --------- ----------- --------<br>--------- -------- --- ------- -- ------- ---- -- ------<br>-- --- -------- -------- ---------- ---- ---- ---- ------<br>to --------- -- ---- -- --- -- --- ------- -- - -----<br>---------- -- -- -- ---- ----- -- ------ -- --- ------<br>-------,312839,312888.00000000006,312374,312359,312390,312870,,26,to
screen,html.Screen,1_3_1_0_1_27,2021-04-21T20:53:51.823Z,,,,,,,,,,,,,,,,48,,,,,,,,,,,,,,1138,,response,,,,10,F,,,,,,Space,keypress(Space),,,,instrumental,,,,-- -- --- ------ ------- --------- ----------- --------<br>--------- -------- --- ------- -- ------- ---- -- ------<br>-- --- -------- -------- ---------- ---- ---- ---- ------<br>-- transport -- ---- -- --- -- --- ------- -- - -----<br>---------- -- -- -- ---- ----- -- ------ -- --- ------<br>-------,313943,313992,312854,312839,312870,313986,,27,transport
screen,html.Screen,1_3_1_0_1_28,2021-04-21T20:53:52.391Z,,,,,,,,,,,,,,,,48,,,,,,,,,,,,,,590,,response,,,,10,F,,,,,,Space,keypress(Space),,,,instrumental,,,,-- -- --- ------ ------- --------- ----------- --------<br>--------- -------- --- ------- -- ------- ---- -- ------<br>-- --- -------- -------- ---------- ---- ---- ---- ------<br>-- --------- it ---- -- --- -- --- ------- -- - -----<br>---------- -- -- -- ---- ----- -- ------ -- --- ------<br>-------,314511,314560,313970,313943,313986,314544,,28,it
screen,html.Screen,1_3_1_0_1_29,2021-04-21T20:53:52.888Z,,,,,,,,,,,,,,,,48,,,,,,,,,,,,,,528,,response,,,,10,F,,,,,,Space,keypress(Space),,,,instrumental,,,,-- -- --- ------ ------- --------- ----------- --------<br>--------- -------- --- ------- -- ------- ---- -- ------<br>-- --- -------- -------- ---------- ---- ---- ---- ------<br>-- --------- -- into -- --- -- --- ------- -- - -----<br>---------- -- -- -- ---- ----- -- ------ -- --- ------<br>-------,315008,315056,314528,314511,314544,315041,,29,into
screen,html.Screen,1_3_1_0_1_30,2021-04-21T20:53:53.383Z,,,,,,,,,,,,,,,,48,,,,,,,,,,,,,,527,,response,,,,10,F,,,,,,Space,keypress(Space),,,,instrumental,,,,-- -- --- ------ ------- --------- ----------- --------<br>--------- -------- --- ------- -- ------- ---- -- ------<br>-- --- -------- -------- ---------- ---- ---- ---- ------<br>-- --------- -- ---- or --- -- --- ------- -- - -----<br>---------- -- -- -- ---- ----- -- ------ -- --- ------<br>-------,315503,315552,315025,315009,315041,315539,,30,or
screen,html.Screen,1_3_1_0_1_31,2021-04-21T20:53:53.879Z,,,,,,,,,,,,,,,,48,,,,,,,,,,,,,,525,,response,,,,10,F,,,,,,Space,keypress(Space),,,,instrumental,,,,-- -- --- ------ ------- --------- ----------- --------<br>--------- -------- --- ------- -- ------- ---- -- ------<br>-- --- -------- -------- ---------- ---- ---- ---- ------<br>-- --------- -- ---- -- out -- --- ------- -- - -----<br>---------- -- -- -- ---- ----- -- ------ -- --- ------<br>-------,315999,316048,315523,315503,315539,316036,,31,out
screen,html.Screen,1_3_1_0_1_32,2021-04-21T20:53:54.319Z,,,,,,,,,,,,,,,,48,,,,,,,,,,,,,,468,,response,,,,10,F,,,,,,Space,keypress(Space),,,,instrumental,,,,-- -- --- ------ ------- --------- ----------- --------<br>--------- -------- --- ------- -- ------- ---- -- ------<br>-- --- -------- -------- ---------- ---- ---- ---- ------<br>-- --------- -- ---- -- --- of --- ------- -- - -----<br>---------- -- -- -- ---- ----- -- ------ -- --- ------<br>-------,316439,316488,316020,315999,316036,316467,,32,of
screen,html.Screen,1_3_1_0_1_33,2021-04-21T20:53:54.855Z,,,,,,,,,,,,,,,,48,,,,,,,,,,,,,,573,,response,,,,10,F,,,,,,Space,keypress(Space),,,,instrumental,,,,-- -- --- ------ ------- --------- ----------- --------<br>--------- -------- --- ------- -- ------- ---- -- ------<br>-- --- -------- -------- ---------- ---- ---- ---- ------<br>-- --------- -- ---- -- --- -- the ------- -- - -----<br>---------- -- -- -- ---- ----- -- ------ -- --- ------<br>-------,316975,317024,316451,316440,316467,317016,,33,the
screen,html.Screen,1_3_1_0_1_34,2021-04-21T20:53:55.583Z,,,,,,,,,,,,,,,,48,,,,,,,,,,,,,,752,,response,,,,10,F,,,,,,Space,keypress(Space),,,,instrumental,,,,-- -- --- ------ ------- --------- ----------- --------<br>--------- -------- --- ------- -- ------- ---- -- ------<br>-- --- -------- -------- ---------- ---- ---- ---- ------<br>-- --------- -- ---- -- --- -- --- country -- - -----<br>---------- -- -- -- ---- ----- -- ------ -- --- ------<br>-------,317703.00000000006,317752,317000,316975,317016,317730,,34,country
screen,html.Screen,1_3_1_0_1_35,2021-04-21T20:53:56.199Z,,,,,,,,,,,,,,,,48,,,,,,,,,,,,,,655,,response,,,,10,F,,,,,,Space,keypress(Space),,,,instrumental,,,,-- -- --- ------ ------- --------- ----------- --------<br>--------- -------- --- ------- -- ------- ---- -- ------<br>-- --- -------- -------- ---------- ---- ---- ---- ------<br>-- --------- -- ---- -- --- -- --- ------- is - -----<br>---------- -- -- -- ---- ----- -- ------ -- --- ------<br>-------,318319,318368,317713,317703.00000000006,317730,318359,,35,is
screen,html.Screen,1_3_1_0_1_36,2021-04-21T20:53:56.711Z,,,,,,,,,,,,,,,,48,,,,,,,,,,,,,,538,,response,,,,10,F,,,,,,Space,keypress(Space),,,,instrumental,,,,-- -- --- ------ ------- --------- ----------- --------<br>--------- -------- --- ------- -- ------- ---- -- ------<br>-- --- -------- -------- ---------- ---- ---- ---- ------<br>-- --------- -- ---- -- --- -- --- ------- -- a -----<br>---------- -- -- -- ---- ----- -- ------ -- --- ------<br>-------,318831,318880,318342,318319,318359,318872,,36,a
screen,html.Screen,1_3_1_0_1_37,2021-04-21T20:53:57.503Z,,,,,,,,,,,,,,,,48,,,,,,,,,,,,,,816,,response,,,,10,F,,,,,,Space,keypress(Space),,,,instrumental,,,,-- -- --- ------ ------- --------- ----------- --------<br>--------- -------- --- ------- -- ------- ---- -- ------<br>-- --- -------- -------- ---------- ---- ---- ---- ------<br>-- --------- -- ---- -- --- -- --- ------- -- - crime<br>---------- -- -- -- ---- ----- -- ------ -- --- ------<br>-------,319623,319672,318856,318832,318872,319653,,37,crime
screen,html.Screen,1_3_1_0_1_38,2021-04-21T20:53:58.399Z,,,,,,,,,,,,,,,,48,,,,,,,,,,,,,,931,,response,,,,10,F,,,,,,Space,keypress(Space),,,,instrumental,,,,-- -- --- ------ ------- --------- ----------- --------<br>--------- -------- --- ------- -- ------- ---- -- ------<br>-- --- -------- -------- ---------- ---- ---- ---- ------<br>-- --------- -- ---- -- --- -- --- ------- -- - -----<br>punishable -- -- -- ---- ----- -- ------ -- --- ------<br>-------,320519,320568,319637,319623,319653,320548,,38,punishable
screen,html.Screen,1_3_1_0_1_39,2021-04-21T20:53:59.647Z,,,,,,,,,,,,,,,,48,,,,,,,,,,,,,,1285.0000000000582,,response,,,,10,F,,,,,,Space,keypress(Space),,,,instrumental,,,,-- -- --- ------ ------- --------- ----------- --------<br>--------- -------- --- ------- -- ------- ---- -- ------<br>-- --- -------- -------- ---------- ---- ---- ---- ------<br>-- --------- -- ---- -- --- -- --- ------- -- - -----<br>---------- by -- -- ---- ----- -- ------ -- --- ------<br>-------,321767,321816.00000000006,320531,320520,320548,321809,,39,by
screen,html.Screen,1_3_1_0_1_40,2021-04-21T20:54:00.535Z,,,,,,,,,,,,,,,,48,,,,,,,,,,,,,,911,,response,,,,10,F,,,,,,Space,keypress(Space),,,,instrumental,,,,-- -- --- ------ ------- --------- ----------- --------<br>--------- -------- --- ------- -- ------- ---- -- ------<br>-- --- -------- -------- ---------- ---- ---- ---- ------<br>-- --------- -- ---- -- --- -- --- ------- -- - -----<br>---------- -- up -- ---- ----- -- ------ -- --- ------<br>-------,322655.00000000006,322704,321793,321768,321809,322683,,40,up
screen,html.Screen,1_3_1_0_1_41,2021-04-21T20:54:01.023Z,,,,,,,,,,,,,,,,48,,,,,,,,,,,,,,525,,response,,,,10,F,,,,,,Space,keypress(Space),,,,instrumental,,,,-- -- --- ------ ------- --------- ----------- --------<br>--------- -------- --- ------- -- ------- ---- -- ------<br>-- --- -------- -------- ---------- ---- ---- ---- ------<br>-- --------- -- ---- -- --- -- --- ------- -- - -----<br>---------- -- -- to ---- ----- -- ------ -- --- ------<br>-------,323144,323192,322667,322655.00000000006,322683,323177,,41,to
screen,html.Screen,1_3_1_0_1_42,2021-04-21T20:54:01.783Z,,,,,,,,,,,,,,,,48,,,,,,,,,,,,,,791,,response,,,,10,F,,,,,,Space,keypress(Space),,,,instrumental,,,,-- -- --- ------ ------- --------- ----------- --------<br>--------- -------- --- ------- -- ------- ---- -- ------<br>-- --- -------- -------- ---------- ---- ---- ---- ------<br>-- --------- -- ---- -- --- -- --- ------- -- - -----<br>---------- -- -- -- five ----- -- ------ -- --- ------<br>-------,323903,323952,323161,323144,323177,323942,,42,five
screen,html.Screen,1_3_1_0_1_43,2021-04-21T20:54:02.375Z,,,,,,,,,,,,,,,,48,,,,,,,,,,,,,,618,,response,,,,10,F,,,,,,Space,keypress(Space),,,,instrumental,,,,-- -- --- ------ ------- --------- ----------- --------<br>--------- -------- --- ------- -- ------- ---- -- ------<br>-- --- -------- -------- ---------- ---- ---- ---- ------<br>-- --------- -- ---- -- --- -- --- ------- -- - -----<br>---------- -- -- -- ---- years -- ------ -- --- ------<br>-------,324495,324544,323926,323903,323942,324537,,43,years
screen,html.Screen,1_3_1_0_1_44,2021-04-21T20:54:02.879Z,,,,,,,,,,,,,,,,48,,,,,,,,,,,,,,527,,response,,,,10,F,,,,,,Space,keypress(Space),,,,instrumental,,,,-- -- --- ------ ------- --------- ----------- --------<br>--------- -------- --- ------- -- ------- ---- -- ------<br>-- --- -------- -------- ---------- ---- ---- ---- ------<br>-- --------- -- ---- -- --- -- --- ------- -- - -----<br>---------- -- -- -- ---- ----- in ------ -- --- ------<br>-------,324999,325048,324521,324495,324537,325034,,44,in
screen,html.Screen,1_3_1_0_1_45,2021-04-21T20:54:03.495Z,,,,,,,,,,,,,,,,48,,,,,,,,,,,,,,648,,response,,,,10,F,,,,,,Space,keypress(Space),,,,instrumental,,,,-- -- --- ------ ------- --------- ----------- --------<br>--------- -------- --- ------- -- ------- ---- -- ------<br>-- --- -------- -------- ---------- ---- ---- ---- ------<br>-- --------- -- ---- -- --- -- --- ------- -- - -----<br>---------- -- -- -- ---- ----- -- prison -- --- ------<br>-------,325615,325665,325017,324999,325034,325648,,45,prison
screen,html.Screen,1_3_1_0_1_46,2021-04-21T20:54:03.967Z,,,,,,,,,,,,,,,,48,,,,,,,,,,,,,,504,,response,,,,10,F,,,,,,Space,keypress(Space),,,,instrumental,,,,-- -- --- ------ ------- --------- ----------- --------<br>--------- -------- --- ------- -- ------- ---- -- ------<br>-- --- -------- -------- ---------- ---- ---- ---- ------<br>-- --------- -- ---- -- --- -- --- ------- -- - -----<br>---------- -- -- -- ---- ----- -- ------ in --- ------<br>-------,326087,326136,325632,325616,325648,326128,,46,in
screen,html.Screen,1_3_1_0_1_47,2021-04-21T20:54:04.423Z,,,,,,,,,,,,,,,,48,,,,,,,,,,,,,,480,,response,,,,10,F,,,,,,Space,keypress(Space),,,,instrumental,,,,-- -- --- ------ ------- --------- ----------- --------<br>--------- -------- --- ------- -- ------- ---- -- ------<br>-- --- -------- -------- ---------- ---- ---- ---- ------<br>-- --------- -- ---- -- --- -- --- ------- -- - -----<br>---------- -- -- -- ---- ----- -- ------ -- the ------<br>-------,326543,326592,326112,326087,326128,326576,,47,the
screen,html.Screen,1_3_1_0_1_48,2021-04-21T20:54:04.975Z,,,,,,,,,,,,,,,,48,,,,,,,,,,,,,,584,,response,,,,10,F,,,,,,Space,keypress(Space),,,,instrumental,,,,-- -- --- ------ ------- --------- ----------- --------<br>--------- -------- --- ------- -- ------- ---- -- ------<br>-- --- -------- -------- ---------- ---- ---- ---- ------<br>-- --------- -- ---- -- --- -- --- ------- -- - -----<br>---------- -- -- -- ---- ----- -- ------ -- --- United<br>-------,327096,327144,326560,326543,326576,327124,,48,United
screen,html.Screen,1_3_1_0_1_49,2021-04-21T20:54:05.479Z,,,,,,,,,,,,,,,,48,,,,,,,,,,,,,,540,,response,,,,10,F,,,,,,Space,keypress(Space),,,,instrumental,,,,-- -- --- ------ ------- --------- ----------- --------<br>--------- -------- --- ------- -- ------- ---- -- ------<br>-- --- -------- -------- ---------- ---- ---- ---- ------<br>-- --------- -- ---- -- --- -- --- ------- -- - -----<br>---------- -- -- -- ---- ----- -- ------ -- --- ------<br>States.,327599,327648,327108,327096,327124,327638,,49,States.
Item 10,flow.Loop,1_3_1_0_1,2021-04-21T20:54:05.479Z,,,,,,,,,,,,,,,,,,,,,,,,,,,,,,30411,,completion,,,,,,,,,,,,,,,,,,,,,327599,327648,297221,297221,297237,327638,,,
Question 1,html.Screen,1_3_1_0_2,2021-04-21T20:54:10.097Z,,,,,,,,,,,,,,,,,,,,,,,,,,,true,TRUE,,4645,,response,,,,10,F,,,,,,TRUE,click #choice-1,,,,instrumental,,,,,332217,332267,327622,327600,327638,332242,,,
Question 2,html.Screen,1_3_1_0_3,2021-04-21T20:54:14.596Z,,,,,,,,,,,,,,,,,,,,,,,,,,,true,TRUE,,4541,,response,,,,10,F,,,,,,TRUE,click #choice-1,,,,instrumental,,,,,336717,336767,332226,332218,332242,336745,,,
Item 10,flow.Sequence,1_3_1_0,2021-04-21T20:54:14.596Z,,,,,,,,,,,,,,,,,,,,,,,,,,,,,,46537,,completion,,,,,,,,,,,,,,,,,,,,,336717,336767,290214,290214,290230,336745,,,
Holding screen,html.Screen,1_3_1_1_0,2021-04-21T20:54:21.601Z,,,,,,,,,,,,,,,,,,,,,,,,,,,,,,6991,,timeout,,,,,,,,,,,,,,,,,,,,,343721,343721,336728,336717,336745,343736,,,
screen,html.Screen,1_3_1_1_1_0,2021-04-21T20:54:23.655Z,,,,,,,,,,,,,,,,51,,,,,,,,,,,,,,2104,,response,,,,13,F,,,,,,Space,keypress(Space),,,,instrumental,,,,American -------- --- --- ---- --- --- ------ -- --------<br>---- --------- --- ------- ------------ ---------- ---------<br>--- ---------- ------- ---------- ------- -- -------- ----<br>---- --- ------ ----- ------ -- ---- --- ----- -- - -------<br>-------- -- --- --- -- ----- ----------- ----- -----------<br>---- --- ---------- --- ---- --- -- ----------,345776,345825,343721,343722,343736,345814,,0,American
screen,html.Screen,1_3_1_1_1_1,2021-04-21T20:54:24.262Z,,,,,,,,,,,,,,,,51,,,,,,,,,,,,,,637,,response,,,,13,F,,,,,,Space,keypress(Space),,,,instrumental,,,,-------- industry --- --- ---- --- --- ------ -- --------<br>---- --------- --- ------- ------------ ---------- ---------<br>--- ---------- ------- ---------- ------- -- -------- ----<br>---- --- ------ ----- ------ -- ---- --- ----- -- - -------<br>-------- -- --- --- -- ----- ----------- ----- -----------<br>---- --- ---------- --- ---- --- -- ----------,346383,346433,345796,345776,345814,346414,,1,industry
screen,html.Screen,1_3_1_1_1_2,2021-04-21T20:54:24.695Z,,,,,,,,,,,,,,,,51,,,,,,,,,,,,,,467,,response,,,,13,F,,,,,,Space,keypress(Space),,,,instrumental,,,,-------- -------- may --- ---- --- --- ------ -- --------<br>---- --------- --- ------- ------------ ---------- ---------<br>--- ---------- ------- ---------- ------- -- -------- ----<br>---- --- ------ ----- ------ -- ---- --- ----- -- - -------<br>-------- -- --- --- -- ----- ----------- ----- -----------<br>---- --- ---------- --- ---- --- -- ----------,346815,346865,346398,346383,346414,346843,,2,may
screen,html.Screen,1_3_1_1_1_3,2021-04-21T20:54:25.119Z,,,,,,,,,,,,,,,,51,,,,,,,,,,,,,,462,,response,,,,13,F,,,,,,Space,keypress(Space),,,,instrumental,,,,-------- -------- --- not ---- --- --- ------ -- --------<br>---- --------- --- ------- ------------ ---------- ---------<br>--- ---------- ------- ---------- ------- -- -------- ----<br>---- --- ------ ----- ------ -- ---- --- ----- -- - -------<br>-------- -- --- --- -- ----- ----------- ----- -----------<br>---- --- ---------- --- ---- --- -- ----------,347239.00000000006,347289,346827,346815,346843,347275,,3,not
screen,html.Screen,1_3_1_1_1_4,2021-04-21T20:54:25.551Z,,,,,,,,,,,,,,,,51,,,,,,,,,,,,,,462,,response,,,,13,F,,,,,,Space,keypress(Space),,,,instrumental,,,,-------- -------- --- --- know --- --- ------ -- --------<br>---- --------- --- ------- ------------ ---------- ---------<br>--- ---------- ------- ---------- ------- -- -------- ----<br>---- --- ------ ----- ------ -- ---- --- ----- -- - -------<br>-------- -- --- --- -- ----- ----------- ----- -----------<br>---- --- ---------- --- ---- --- -- ----------,347671,347721,347259,347240,347275,347706,,4,know
screen,html.Screen,1_3_1_1_1_5,2021-04-21T20:54:26.231Z,,,,,,,,,,,,,,,,51,,,,,,,,,,,,,,711,,response,,,,13,F,,,,,,Space,keypress(Space),,,,instrumental,,,,"-------- -------- --- --- ---- it, --- ------ -- --------<br>---- --------- --- ------- ------------ ---------- ---------<br>--- ---------- ------- ---------- ------- -- -------- ----<br>---- --- ------ ----- ------ -- ---- --- ----- -- - -------<br>-------- -- --- --- -- ----- ----------- ----- -----------<br>---- --- ---------- --- ---- --- -- ----------",348351,348401,347690,347671,347706,348388,,5,"it,"
screen,html.Screen,1_3_1_1_1_6,2021-04-21T20:54:26.694Z,,,,,,,,,,,,,,,,51,,,,,,,,,,,,,,493,,response,,,,13,F,,,,,,Space,keypress(Space),,,,instrumental,,,,-------- -------- --- --- ---- --- but ------ -- --------<br>---- --------- --- ------- ------------ ---------- ---------<br>--- ---------- ------- ---------- ------- -- -------- ----<br>---- --- ------ ----- ------ -- ---- --- ----- -- - -------<br>-------- -- --- --- -- ----- ----------- ----- -----------<br>---- --- ---------- --- ---- --- -- ----------,348815,348865,348372,348351,348388,348850,,6,but
screen,html.Screen,1_3_1_1_1_7,2021-04-21T20:54:27.255Z,,,,,,,,,,,,,,,,51,,,,,,,,,,,,,,591,,response,,,,13,F,,,,,,Space,keypress(Space),,,,instrumental,,,,-------- -------- --- --- ---- --- --- debate -- --------<br>---- --------- --- ------- ------------ ---------- ---------<br>--- ---------- ------- ---------- ------- -- -------- ----<br>---- --- ------ ----- ------ -- ---- --- ----- -- - -------<br>-------- -- --- --- -- ----- ----------- ----- -----------<br>---- --- ---------- --- ---- --- -- ----------,349375,349425,348834,348815,348850,349415,,7,debate
screen,html.Screen,1_3_1_1_1_8,2021-04-21T20:54:27.767Z,,,,,,,,,,,,,,,,51,,,,,,,,,,,,,,539,,response,,,,13,F,,,,,,Space,keypress(Space),,,,instrumental,,,,-------- -------- --- --- ---- --- --- ------ in --------<br>---- --------- --- ------- ------------ ---------- ---------<br>--- ---------- ------- ---------- ------- -- -------- ----<br>---- --- ------ ----- ------ -- ---- --- ----- -- - -------<br>-------- -- --- --- -- ----- ----------- ----- -----------<br>---- --- ---------- --- ---- --- -- ----------,349887,349937,349398,349375,349415,349929,,8,in
