sender,sender_type,sender_id,timestamp,meta,,Blues,Classical,Country,Dance,Electronic,Folk,Gospel,Hip-Hop,Jazz,Latin,Musical/Film,New-age,Pop,Provo_ID,R&B,Rap,Reggae,Religious,Rock,Soul,Swing,Traditional,age,artist_name,correct,correctResponse,distraction,duration,education,ended_on,familiarity,gender,headphone_check_performance,item,list,music_frequency,offensiveness,pleasantness,position_correct,preference,response,response_action,snippet_file,song_name,song_rating,sound,stimulus_1,stimulus_2,stimulus_3,text,time_commit,time_end,time_render,time_run,time_show,time_switch,url,word,word_ID
Introduction,html.Screen,0_0,2021-04-13T13:30:33.391Z,"{""labjs_version"":""20.2.2"",""labjs_build"":{""flavor"":""production"",""commit"":""a25486e0c714a0ae2ce03ff94b7bb6896854dcfa""},""location"":""https://run.pavlovia.org/mvasilev/music_b/"",""userAgent"":""Mozilla/5.0 (Macintosh; Intel Mac OS X 10_15_7) AppleWebKit/605.1.15 (KHTML, like Gecko) Version/14.0.1 Safari/605.1.15"",""platform"":""MacIntel"",""language"":""en-gb"",""locale"":""en-GB"",""timeZone"":""Europe/London"",""timezoneOffset"":-60,""screen_width"":1280,""screen_height"":800,""scroll_width"":750,""scroll_height"":597,""window_innerWidth"":750,""window_innerHeight"":645,""devicePixelRatio"":1}",,,,,,,,,,,,,,,,,,,,,,,,,,,,,2048,,response,,,,,,,,,,,continue,click button,,,,,,,,,11490,11517,9469,9424,9485,11520,{},,
Volume calibration,html.Screen,0_1,2021-04-13T13:30:34.967Z,,,,,,,,,,,,,,,,,,,,,,,,,,,,,,1594,,response,,,,,,,,,,,continue,click button,,,,,,,,,13067,13097,11503,11491,11520,13099,,,
Task instructions,html.Screen,0_2,2021-04-13T13:30:35.696Z,,,,,,,,,,,,,,,,,,,,,,,,,,,,,,745,,response,,,,,,,,,,,continue,click button,,,,,,,,,13796.000000000002,13827,13082,13067,13099,13830,,,
Sounds,html.Screen,0_3_0_0,2021-04-13T13:30:39.972Z,,,,,,,,,,,,,,,,,,,,,,,,,,,,,,4257,,timeout,,,,,,,,,1,,,,,,,,S,I,O,,18072,18070,13813,13796.000000000002,13830,18087,,,
Judgement,html.Screen,0_3_0_1,2021-04-13T13:30:41.599Z,,,,,,,,,,,,,,,,,,,,,,,,,,,true,1,,1659,,response,,,,,,,,,1,,1,click #choice-1,,,,,S,I,O,,19698,19729,18070,18072,18087,19733,,,
Trial,flow.Sequence,0_3_0,2021-04-13T13:30:41.600Z,,,,,,,,,,,,,,,,,,,,,,,,,,,,,,5899,,completion,,,,,,,,,1,,,,,,,,S,I,O,,19699,19729,13813,13796.000000000002,13830,19733,,,
Sounds,html.Screen,0_3_1_0,2021-04-13T13:30:45.873Z,,,,,,,,,,,,,,,,,,,,,,,,,,,,,,4257,,timeout,,,,,,,,,3,,,,,,,,O,I,S,,23973,23973,19717,19700,19733,23990,,,
Judgement,html.Screen,0_3_1_1,2021-04-13T13:30:46.332Z,,,,,,,,,,,,,,,,,,,,,,,,,,,true,3,,490,,response,,,,,,,,,3,,3,click #choice-3,,,,,O,I,S,,24432.000000000004,24463,23973,23973,23990,24455,,,
Trial,flow.Sequence,0_3_1,2021-04-13T13:30:46.333Z,,,,,,,,,,,,,,,,,,,,,,,,,,,,,,4730,,completion,,,,,,,,,3,,,,,,,,O,I,S,,24433,24463,19717,19699,19733,24455,,,
Sounds,html.Screen,0_3_2_0,2021-04-13T13:30:50.596Z,,,,,,,,,,,,,,,,,,,,,,,,,,,,,,4256,,timeout,,,,,,,,,2,,,,,,,,O,S,I,,28696,28696,24438,24433,24455,28711,,,
Judgement,html.Screen,0_3_2_1,2021-04-13T13:30:51.022Z,,,,,,,,,,,,,,,,,,,,,,,,,,,true,2,,457.00000000000364,,response,,,,,,,,,2,,2,click #choice-2,,,,,O,S,I,,29122,29153.000000000004,28696,28696,28711,29144,,,
Trial,flow.Sequence,0_3_2,2021-04-13T13:30:51.023Z,,,,,,,,,,,,,,,,,,,,,,,,,,,,,,4698.000000000004,,completion,,,,,,,,,2,,,,,,,,O,S,I,,29123,29153.000000000004,24438,24433,24455,29144,,,
Sounds,html.Screen,0_3_3_0,2021-04-13T13:30:55.284Z,,,,,,,,,,,,,,,,,,,,,,,,,,,,,,4257,,timeout,,,,,,,,,3,,,,,,,,I,O,S,,33384,33384,29127,29123,29144,33401,,,
Judgement,html.Screen,0_3_3_1,2021-04-13T13:30:55.880Z,,,,,,,,,,,,,,,,,,,,,,,,,,,true,3,,627,,response,,,,,,,,,3,,3,click #choice-3,,,,,I,O,S,,33980.00000000001,34011,33384,33384,33401,34000,,,
Trial,flow.Sequence,0_3_3,2021-04-13T13:30:55.880Z,,,,,,,,,,,,,,,,,,,,,,,,,,,,,,4867,,completion,,,,,,,,,3,,,,,,,,I,O,S,,33980.00000000001,34011,29127,29123,29144,34000,,,
Sounds,html.Screen,0_3_4_0,2021-04-13T13:31:00.140Z,,,,,,,,,,,,,,,,,,,,,,,,,,,,,,4256,,timeout,,,,,,,,,1,,,,,,,,S,O,I,,38240,38239,33984,33981,34000,38256,,,
Judgement,html.Screen,0_3_4_1,2021-04-13T13:31:00.552Z,,,,,,,,,,,,,,,,,,,,,,,,,,,true,1,,444,,response,,,,,,,,,1,,1,click #choice-1,,,,,S,O,I,,38652,38683,38239,38240,38256,38672,,,
Trial,flow.Sequence,0_3_4,2021-04-13T13:31:00.552Z,,,,,,,,,,,,,,,,,,,,,,,,,,,,,,4683,,completion,,,,,,,,,1,,,,,,,,S,O,I,,38652,38683,33984,33980.00000000001,34000,38672,,,
Sounds,html.Screen,0_3_5_0,2021-04-13T13:31:04.812Z,,,,,,,,,,,,,,,,,,,,,,,,,,,,,,4257,,timeout,,,,,,,,,2,,,,,,,,I,S,O,,42912,42911,38656,38652,38672,42929,,,
Judgement,html.Screen,0_3_5_1,2021-04-13T13:31:05.208Z,,,,,,,,,,,,,,,,,,,,,,,,,,,true,2,,428,,response,,,,,,,,,2,,2,click #choice-2,,,,,I,S,O,,43308,43339,42911,42912,42929,43344,,,
Trial,flow.Sequence,0_3_5,2021-04-13T13:31:05.208Z,,,,,,,,,,,,,,,,,,,,,,,,,,,,,,4667,,completion,,,,,,,,,2,,,,,,,,I,S,O,,43308,43339,38656,38652,38672,43344,,,
Task,flow.Loop,0_3,2021-04-13T13:31:05.211Z,,,,,,,,,,,,,,,,,,,,,,,,,,,,,,29509,,completion,,,1,,,,,,,,,,,,,,,,,,43312,43339,13813,13796.000000000002,13830,43344,,,
Trap,html.Screen,0_4,2021-04-13T13:31:05.213Z,,,,,,,,,,,,,,,,,,,,,,,,,,,,,,NaN,,skipped,,,,,,,,,,,,,,,,,,,,,43313,43339,,43313,,43344,,,
Thanks,html.Screen,0_5,2021-04-13T13:31:07.714Z,,,,,,,,,,,,,,,,,,,,,,,,,,,,,,2518,,response,,,,,,,,,,,continue,click button,,,,,,,,,45814,45846,43328,43313,43344,48610,,,
Headphone screening,flow.Sequence,0,2021-04-13T13:31:07.714Z,,,,,,,,,,,,,,,,,,,,,,,,,,,,,,36361,,completion,,,,,,,,,,,,,,,,,,,,,45815,45846,9469,9424,9485,48610,,,
Instructions,html.Page,1_0,2021-04-13T13:31:12.007Z,,,,,,,,,,,,,,,,,,,,,,,,,,,,,,1497,,form submission,,,,,,,,,,,,,,,,,,,,,50108.00000000001,50107,48606,48393,48610,50128,,,
Holding screen,html.Screen,1_1_0_0,2021-04-13T13:31:22.005Z,,,,,,,,,,,,,,,,,,,,,,,,,,,,,,10637,,timeout,,,,,,,,,,,,,,,,,,,,,60105.00000000001,60105,50112,50108.00000000001,50128,60765,,,
screen,html.Screen,1_1_0_1_0,2021-04-13T13:31:23.879Z,,,,,,,,,,,,,,,,53,,,,,,,,,,,,,,1904,,response,,,,99,,,,,,,Space,keypress(Space),,,,,,,,When -- ----- -- ------ - ------- --- ----------<br>------------- ------ ------ ---- ---- ------- ----- -- ----<br>-------- ------- -- ---------- --- - --- ----- ----- ----<br>---- --- --- ----- --- ---- ---- ------- ----- ---- -------<br>--- --- -- ----- -- --- ---- -- --- ---- -- ------ ------<br>--- ----- -- ----,61980.00000000001,62009,60105,60105.00000000001,60765,62016,,0,When
screen,html.Screen,1_1_0_1_1,2021-04-13T13:31:25.329Z,,,,,,,,,,,,,,,,53,,,,,,,,,,,,,,1457,,response,,,,99,,,,,,,Space,keypress(Space),,,,,,,,---- it ----- -- ------ - ------- --- ----------<br>------------- ------ ------ ---- ---- ------- ----- -- ----<br>-------- ------- -- ---------- --- - --- ----- ----- ----<br>---- --- --- ----- --- ---- ---- ------- ----- ---- -------<br>--- --- -- ----- -- --- ---- -- --- ---- -- ------ ------<br>--- ----- -- ----,63429,63457,62000,61980.00000000001,62016,63463,,1,it
screen,html.Screen,1_1_0_1_2,2021-04-13T13:31:25.894Z,,,,,,,,,,,,,,,,53,,,,,,,,,,,,,,577.0000000000073,,response,,,,99,,,,,,,Space,keypress(Space),,,,,,,,---- -- comes -- ------ - ------- --- ----------<br>------------- ------ ------ ---- ---- ------- ----- -- ----<br>-------- ------- -- ---------- --- - --- ----- ----- ----<br>---- --- --- ----- --- ---- ---- ------- ----- ---- -------<br>--- --- -- ----- -- --- ---- -- --- ---- -- ------ ------<br>--- ----- -- ----,63994,64025.00000000001,63448,63429,63463,64029,,2,comes
screen,html.Screen,1_1_0_1_3,2021-04-13T13:31:26.400Z,,,,,,,,,,,,,,,,53,,,,,,,,,,,,,,516,,response,,,,99,,,,,,,Space,keypress(Space),,,,,,,,---- -- ----- to ------ - ------- --- ----------<br>------------- ------ ------ ---- ---- ------- ----- -- ----<br>-------- ------- -- ---------- --- - --- ----- ----- ----<br>---- --- --- ----- --- ---- ---- ------- ----- ---- -------<br>--- --- -- ----- -- --- ---- -- --- ---- -- ------ ------<br>--- ----- -- ----,64501.00000000001,64529,64013,63994,64029,64528,,3,to
screen,html.Screen,1_1_0_1_4,2021-04-13T13:31:26.958Z,,,,,,,,,,,,,,,,53,,,,,,,,,,,,,,577,,response,,,,99,,,,,,,Space,keypress(Space),,,,,,,,---- -- ----- -- having - ------- --- ----------<br>------------- ------ ------ ---- ---- ------- ----- -- ----<br>-------- ------- -- ---------- --- - --- ----- ----- ----<br>---- --- --- ----- --- ---- ---- ------- ----- ---- -------<br>--- --- -- ----- -- --- ---- -- --- ---- -- ------ ------<br>--- ----- -- ----,65058.00000000001,65089,64512,64501.00000000001,64528,65093,,4,having
screen,html.Screen,1_1_0_1_5,2021-04-13T13:31:27.488Z,,,,,,,,,,,,,,,,53,,,,,,,,,,,,,,540,,response,,,,99,,,,,,,Space,keypress(Space),,,,,,,,---- -- ----- -- ------ a ------- --- ----------<br>------------- ------ ------ ---- ---- ------- ----- -- ----<br>-------- ------- -- ---------- --- - --- ----- ----- ----<br>---- --- --- ----- --- ---- ---- ------- ----- ---- -------<br>--- --- -- ----- -- --- ---- -- --- ---- -- ------ ------<br>--- ----- -- ----,65589,65617,65077,65059,65093,65626,,5,a
screen,html.Screen,1_1_0_1_6,2021-04-13T13:31:28.022Z,,,,,,,,,,,,,,,,53,,,,,,,,,,,,,,544,,response,,,,99,,,,,,,Space,keypress(Space),,,,,,,,---- -- ----- -- ------ - lasting --- ----------<br>------------- ------ ------ ---- ---- ------- ----- -- ----<br>-------- ------- -- ---------- --- - --- ----- ----- ----<br>---- --- --- ----- --- ---- ---- ------- ----- ---- -------<br>--- --- -- ----- -- --- ---- -- --- ---- -- ------ ------<br>--- ----- -- ----,66123,66153,65609,65589,65626,66157,,6,lasting
screen,html.Screen,1_1_0_1_7,2021-04-13T13:31:28.600Z,,,,,,,,,,,,,,,,53,,,,,,,,,,,,,,588,,response,,,,99,,,,,,,Space,keypress(Space),,,,,,,,---- -- ----- -- ------ - ------- and ----------<br>------------- ------ ------ ---- ---- ------- ----- -- ----<br>-------- ------- -- ---------- --- - --- ----- ----- ----<br>---- --- --- ----- --- ---- ---- ------- ----- ---- -------<br>--- --- -- ----- -- --- ---- -- --- ---- -- ------ ------<br>--- ----- -- ----,66701.00000000001,66729,66141,66123,66157,66740,,7,and
screen,html.Screen,1_1_0_1_8,2021-04-13T13:31:29.102Z,,,,,,,,,,,,,,,,53,,,,,,,,,,,,,,511,,response,,,,99,,,,,,,Space,keypress(Space),,,,,,,,---- -- ----- -- ------ - ------- --- fulfilling<br>------------- ------ ------ ---- ---- ------- ----- -- ----<br>-------- ------- -- ---------- --- - --- ----- ----- ----<br>---- --- --- ----- --- ---- ---- ------- ----- ---- -------<br>--- --- -- ----- -- --- ---- -- --- ---- -- ------ ------<br>--- ----- -- ----,67202,67233,66722,66701.00000000001,66740,67238,,8,fulfilling
screen,html.Screen,1_1_0_1_9,2021-04-13T13:31:29.968Z,,,,,,,,,,,,,,,,53,,,,,,,,,,,,,,876.0000000000146,,response,,,,99,,,,,,,Space,keypress(Space),,,,,,,,"---- -- ----- -- ------ - ------- --- ----------<br>relationship, ------ ------ ---- ---- ------- ----- -- ----<br>-------- ------- -- ---------- --- - --- ----- ----- ----<br>---- --- --- ----- --- ---- ---- ------- ----- ---- -------<br>--- --- -- ----- -- --- ---- -- --- ---- -- ------ ------<br>--- ----- -- ----",68069,68097.00000000001,67221,67203,67238,68102,,9,"relationship,"
screen,html.Screen,1_1_0_1_10,2021-04-13T13:31:30.606Z,,,,,,,,,,,,,,,,53,,,,,,,,,,,,,,651,,response,,,,99,,,,,,,Space,keypress(Space),,,,,,,,---- -- ----- -- ------ - ------- --- ----------<br>------------- common ------ ---- ---- ------- ----- -- ----<br>-------- ------- -- ---------- --- - --- ----- ----- ----<br>---- --- --- ----- --- ---- ---- ------- ----- ---- -------<br>--- --- -- ----- -- --- ---- -- --- ---- -- ------ ------<br>--- ----- -- ----,68707.00000000001,68737,68086,68069,68102,68735,,10,common
screen,html.Screen,1_1_0_1_11,2021-04-13T13:31:31.200Z,,,,,,,,,,,,,,,,53,,,,,,,,,,,,,,611.0000000000146,,response,,,,99,,,,,,,Space,keypress(Space),,,,,,,,---- -- ----- -- ------ - ------- --- ----------<br>------------- ------ wisdom ---- ---- ------- ----- -- ----<br>-------- ------- -- ---------- --- - --- ----- ----- ----<br>---- --- --- ----- --- ---- ---- ------- ----- ---- -------<br>--- --- -- ----- -- --- ---- -- --- ---- -- ------ ------<br>--- ----- -- ----,69301,69329.00000000001,68718,68707.00000000001,68735,69333,,11,wisdom
screen,html.Screen,1_1_0_1_12,2021-04-13T13:31:31.702Z,,,,,,,,,,,,,,,,53,,,,,,,,,,,,,,516,,response,,,,99,,,,,,,Space,keypress(Space),,,,,,,,---- -- ----- -- ------ - ------- --- ----------<br>------------- ------ ------ says ---- ------- ----- -- ----<br>-------- ------- -- ---------- --- - --- ----- ----- ----<br>---- --- --- ----- --- ---- ---- ------- ----- ---- -------<br>--- --- -- ----- -- --- ---- -- --- ---- -- ------ ------<br>--- ----- -- ----,69802,69833,69317,69301,69333,69832,,12,says
screen,html.Screen,1_1_0_1_13,2021-04-13T13:31:32.288Z,,,,,,,,,,,,,,,,53,,,,,,,,,,,,,,601,,response,,,,99,,,,,,,Space,keypress(Space),,,,,,,,---- -- ----- -- ------ - ------- --- ----------<br>------------- ------ ------ ---- that ------- ----- -- ----<br>-------- ------- -- ---------- --- - --- ----- ----- ----<br>---- --- --- ----- --- ---- ---- ------- ----- ---- -------<br>--- --- -- ----- -- --- ---- -- --- ---- -- ------ ------<br>--- ----- -- ----,70389,70417,69816,69803,69832,70431,,13,that
screen,html.Screen,1_1_0_1_14,2021-04-13T13:31:32.750Z,,,,,,,,,,,,,,,,53,,,,,,,,,,,,,,467,,response,,,,99,,,,,,,Space,keypress(Space),,,,,,,,---- -- ----- -- ------ - ------- --- ----------<br>------------- ------ ------ ---- ---- feeling ----- -- ----<br>-------- ------- -- ---------- --- - --- ----- ----- ----<br>---- --- --- ----- --- ---- ---- ------- ----- ---- -------<br>--- --- -- ----- -- --- ---- -- --- ---- -- ------ ------<br>--- ----- -- ----,70850.00000000001,70881,70414,70389,70431,70879,,14,feeling
screen,html.Screen,1_1_0_1_15,2021-04-13T13:31:33.400Z,,,,,,,,,,,,,,,,53,,,,,,,,,,,,,,666,,response,,,,99,,,,,,,Space,keypress(Space),,,,,,,,---- -- ----- -- ------ - ------- --- ----------<br>------------- ------ ------ ---- ---- ------- close -- ----<br>-------- ------- -- ---------- --- - --- ----- ----- ----<br>---- --- --- ----- --- ---- ---- ------- ----- ---- -------<br>--- --- -- ----- -- --- ---- -- --- ---- -- ------ ------<br>--- ----- -- ----,71501,71529,70863,70851,70879,71528,,15,close
screen,html.Screen,1_1_0_1_16,2021-04-13T13:31:33.798Z,,,,,,,,,,,,,,,,53,,,,,,,,,,,,,,418,,response,,,,99,,,,,,,Space,keypress(Space),,,,,,,,---- -- ----- -- ------ - ------- --- ----------<br>------------- ------ ------ ---- ---- ------- ----- to ----<br>-------- ------- -- ---------- --- - --- ----- ----- ----<br>---- --- --- ----- --- ---- ---- ------- ----- ---- -------<br>--- --- -- ----- -- --- ---- -- --- ---- -- ------ ------<br>--- ----- -- ----,71899,71929,71511,71501,71528,71927,,16,to
screen,html.Screen,1_1_0_1_17,2021-04-13T13:31:34.218Z,,,,,,,,,,,,,,,,53,,,,,,,,,,,,,,434,,response,,,,99,,,,,,,Space,keypress(Space),,,,,,,,---- -- ----- -- ------ - ------- --- ----------<br>------------- ------ ------ ---- ---- ------- ----- -- your<br>-------- ------- -- ---------- --- - --- ----- ----- ----<br>---- --- --- ----- --- ---- ---- ------- ----- ---- -------<br>--- --- -- ----- -- --- ---- -- --- ---- -- ------ ------<br>--- ----- -- ----,72319,72345,71911,71899,71927,72359,,17,your
screen,html.Screen,1_1_0_1_18,2021-04-13T13:31:34.830Z,,,,,,,,,,,,,,,,53,,,,,,,,,,,,,,618,,response,,,,99,,,,,,,Space,keypress(Space),,,,,,,,---- -- ----- -- ------ - ------- --- ----------<br>------------- ------ ------ ---- ---- ------- ----- -- ----<br>romantic ------- -- ---------- --- - --- ----- ----- ----<br>---- --- --- ----- --- ---- ---- ------- ----- ---- -------<br>--- --- -- ----- -- --- ---- -- --- ---- -- ------ ------<br>--- ----- -- ----,72931,72961,72343,72319,72359,72975,,18,romantic
screen,html.Screen,1_1_0_1_19,2021-04-13T13:31:35.368Z,,,,,,,,,,,,,,,,53,,,,,,,,,,,,,,539,,response,,,,99,,,,,,,Space,keypress(Space),,,,,,,,---- -- ----- -- ------ - ------- --- ----------<br>------------- ------ ------ ---- ---- ------- ----- -- ----<br>-------- partner -- ---------- --- - --- ----- ----- ----<br>---- --- --- ----- --- ---- ---- ------- ----- ---- -------<br>--- --- -- ----- -- --- ---- -- --- ---- -- ------ ------<br>--- ----- -- ----,73469.00000000001,73497,72958,72934,72975,73506,,19,partner
screen,html.Screen,1_1_0_1_20,2021-04-13T13:31:35.870Z,,,,,,,,,,,,,,,,53,,,,,,,,,,,,,,511,,response,,,,99,,,,,,,Space,keypress(Space),,,,,,,,---- -- ----- -- ------ - ------- --- ----------<br>------------- ------ ------ ---- ---- ------- ----- -- ----<br>-------- ------- is ---------- --- - --- ----- ----- ----<br>---- --- --- ----- --- ---- ---- ------- ----- ---- -------<br>--- --- -- ----- -- --- ---- -- --- ---- -- ------ ------<br>--- ----- -- ----,73971,74001,73490,73469.00000000001,73506,74005,,20,is
screen,html.Screen,1_1_0_1_21,2021-04-13T13:31:36.608Z,,,,,,,,,,,,,,,,53,,,,,,,,,,,,,,748,,response,,,,99,,,,,,,Space,keypress(Space),,,,,,,,---- -- ----- -- ------ - ------- --- ----------<br>------------- ------ ------ ---- ---- ------- ----- -- ----<br>-------- ------- -- paramount. --- - --- ----- ----- ----<br>---- --- --- ----- --- ---- ---- ------- ----- ---- -------<br>--- --- -- ----- -- --- ---- -- --- ---- -- ------ ------<br>--- ----- -- ----,74709,74737,73989,73971,74005,74737,,21,paramount.
screen,html.Screen,1_1_0_1_22,2021-04-13T13:31:37.813Z,,,,,,,,,,,,,,,,53,,,,,,,,,,,,,,1224.0000000000146,,response,,,,99,,,,,,,Space,keypress(Space),,,,,,,,---- -- ----- -- ------ - ------- --- ----------<br>------------- ------ ------ ---- ---- ------- ----- -- ----<br>-------- ------- -- ---------- But - --- ----- ----- ----<br>---- --- --- ----- --- ---- ---- ------- ----- ---- -------<br>--- --- -- ----- -- --- ---- -- --- ---- -- ------ ------<br>--- ----- -- ----,75914,75945.00000000001,74721,74709,74737,75951,,22,But
screen,html.Screen,1_1_0_1_23,2021-04-13T13:31:38.320Z,,,,,,,,,,,,,,,,53,,,,,,,,,,,,,,514,,response,,,,99,,,,,,,Space,keypress(Space),,,,,,,,---- -- ----- -- ------ - ------- --- ----------<br>------------- ------ ------ ---- ---- ------- ----- -- ----<br>-------- ------- -- ---------- --- a --- ----- ----- ----<br>---- --- --- ----- --- ---- ---- ------- ----- ---- -------<br>--- --- -- ----- -- --- ---- -- --- ---- -- ------ ------<br>--- ----- -- ----,76421,76449,75935,75915,75951,76450,,23,a
screen,html.Screen,1_1_0_1_24,2021-04-13T13:31:38.854Z,,,,,,,,,,,,,,,,53,,,,,,,,,,,,,,551,,response,,,,99,,,,,,,Space,keypress(Space),,,,,,,,---- -- ----- -- ------ - ------- --- ----------<br>------------- ------ ------ ---- ---- ------- ----- -- ----<br>-------- ------- -- ---------- --- - new ----- ----- ----<br>---- --- --- ----- --- ---- ---- ------- ----- ---- -------<br>--- --- -- ----- -- --- ---- -- --- ---- -- ------ ------<br>--- ----- -- ----,76955,76985,76434,76421,76450,76982,,24,new
screen,html.Screen,1_1_0_1_25,2021-04-13T13:31:39.256Z,,,,,,,,,,,,,,,,53,,,,,,,,,,,,,,420,,response,,,,99,,,,,,,Space,keypress(Space),,,,,,,,---- -- ----- -- ------ - ------- --- ----------<br>------------- ------ ------ ---- ---- ------- ----- -- ----<br>-------- ------- -- ---------- --- - --- study ----- ----<br>---- --- --- ----- --- ---- ---- ------- ----- ---- -------<br>--- --- -- ----- -- --- ---- -- --- ---- -- ------ ------<br>--- ----- -- ----,77357,77385,76965,76955,76982,77397,,25,study
screen,html.Screen,1_1_0_1_26,2021-04-13T13:31:39.686Z,,,,,,,,,,,,,,,,53,,,,,,,,,,,,,,436,,response,,,,99,,,,,,,Space,keypress(Space),,,,,,,,---- -- ----- -- ------ - ------- --- ----------<br>------------- ------ ------ ---- ---- ------- ----- -- ----<br>-------- ------- -- ---------- --- - --- ----- finds ----<br>---- --- --- ----- --- ---- ---- ------- ----- ---- -------<br>--- --- -- ----- -- --- ---- -- --- ---- -- ------ ------<br>--- ----- -- ----,77786,77817,77381,77358,77397,77813,,26,finds
screen,html.Screen,1_1_0_1_27,2021-04-13T13:31:40.152Z,,,,,,,,,,,,,,,,53,,,,,,,,,,,,,,484,,response,,,,99,,,,,,,Space,keypress(Space),,,,,,,,---- -- ----- -- ------ - ------- --- ----------<br>------------- ------ ------ ---- ---- ------- ----- -- ----<br>-------- ------- -- ---------- --- - --- ----- ----- that<br>---- --- --- ----- --- ---- ---- ------- ----- ---- -------<br>--- --- -- ----- -- --- ---- -- --- ---- -- ------ ------<br>--- ----- -- ----,78253,78281,77797,77787,77813,78296,,27,that
screen,html.Screen,1_1_0_1_28,2021-04-13T13:31:40.622Z,,,,,,,,,,,,,,,,53,,,,,,,,,,,,,,474,,response,,,,99,,,,,,,Space,keypress(Space),,,,,,,,---- -- ----- -- ------ - ------- --- ----------<br>------------- ------ ------ ---- ---- ------- ----- -- ----<br>-------- ------- -- ---------- --- - --- ----- ----- ----<br>it's --- --- ----- --- ---- ---- ------- ----- ---- -------<br>--- --- -- ----- -- --- ---- -- --- ---- -- ------ ------<br>--- ----- -- ----,78723,78753,78279,78253,78296,78761,,28,it's
screen,html.Screen,1_1_0_1_29,2021-04-13T13:31:41.072Z,,,,,,,,,,,,,,,,53,,,,,,,,,,,,,,456.00000000001455,,response,,,,99,,,,,,,Space,keypress(Space),,,,,,,,---- -- ----- -- ------ - ------- --- ----------<br>------------- ------ ------ ---- ---- ------- ----- -- ----<br>-------- ------- -- ---------- --- - --- ----- ----- ----<br>---- not --- ----- --- ---- ---- ------- ----- ---- -------<br>--- --- -- ----- -- --- ---- -- --- ---- -- ------ ------<br>--- ----- -- ----,79173,79201.00000000001,78745,78723,78761,79210,,29,not
screen,html.Screen,1_1_0_1_30,2021-04-13T13:31:41.558Z,,,,,,,,,,,,,,,,53,,,,,,,,,,,,,,496,,response,,,,99,,,,,,,Space,keypress(Space),,,,,,,,---- -- ----- -- ------ - ------- --- ----------<br>------------- ------ ------ ---- ---- ------- ----- -- ----<br>-------- ------- -- ---------- --- - --- ----- ----- ----<br>---- --- how ----- --- ---- ---- ------- ----- ---- -------<br>--- --- -- ----- -- --- ---- -- --- ---- -- ------ ------<br>--- ----- -- ----,79659,79689,79193,79173,79210,79693,,30,how
screen,html.Screen,1_1_0_1_31,2021-04-13T13:31:41.992Z,,,,,,,,,,,,,,,,53,,,,,,,,,,,,,,445,,response,,,,99,,,,,,,Space,keypress(Space),,,,,,,,---- -- ----- -- ------ - ------- --- ----------<br>------------- ------ ------ ---- ---- ------- ----- -- ----<br>-------- ------- -- ---------- --- - --- ----- ----- ----<br>---- --- --- close --- ---- ---- ------- ----- ---- -------<br>--- --- -- ----- -- --- ---- -- --- ---- -- ------ ------<br>--- ----- -- ----,80093,80121,79676,79659,79693,80125,,31,close
screen,html.Screen,1_1_0_1_32,2021-04-13T13:31:42.430Z,,,,,,,,,,,,,,,,53,,,,,,,,,,,,,,454,,response,,,,99,,,,,,,Space,keypress(Space),,,,,,,,---- -- ----- -- ------ - ------- --- ----------<br>------------- ------ ------ ---- ---- ------- ----- -- ----<br>-------- ------- -- ---------- --- - --- ----- ----- ----<br>---- --- --- ----- you ---- ---- ------- ----- ---- -------<br>--- --- -- ----- -- --- ---- -- --- ---- -- ------ ------<br>--- ----- -- ----,80531,80562,80108,80093,80125,80573,,32,you
screen,html.Screen,1_1_0_1_33,2021-04-13T13:31:42.912Z,,,,,,,,,,,,,,,,53,,,,,,,,,,,,,,484,,response,,,,99,,,,,,,Space,keypress(Space),,,,,,,,---- -- ----- -- ------ - ------- --- ----------<br>------------- ------ ------ ---- ---- ------- ----- -- ----<br>-------- ------- -- ---------- --- - --- ----- ----- ----<br>---- --- --- ----- --- feel ---- ------- ----- ---- -------<br>--- --- -- ----- -- --- ---- -- --- ---- -- ------ ------<br>--- ----- -- ----,81013,81041,80557,80531,80573,81056,,33,feel
screen,html.Screen,1_1_0_1_34,2021-04-13T13:31:43.358Z,,,,,,,,,,,,,,,,53,,,,,,,,,,,,,,450,,response,,,,99,,,,,,,Space,keypress(Space),,,,,,,,---- -- ----- -- ------ - ------- --- ----------<br>------------- ------ ------ ---- ---- ------- ----- -- ----<br>-------- ------- -- ---------- --- - --- ----- ----- ----<br>---- --- --- ----- --- ---- that ------- ----- ---- -------<br>--- --- -- ----- -- --- ---- -- --- ---- -- ------ ------<br>--- ----- -- ----,81459,81489,81039,81013,81056,81487,,34,that
screen,html.Screen,1_1_0_1_35,2021-04-13T13:31:43.800Z,,,,,,,,,,,,,,,,53,,,,,,,,,,,,,,457,,response,,,,99,,,,,,,Space,keypress(Space),,,,,,,,---- -- ----- -- ------ - ------- --- ----------<br>------------- ------ ------ ---- ---- ------- ----- -- ----<br>-------- ------- -- ---------- --- - --- ----- ----- ----<br>---- --- --- ----- --- ---- ---- matters ----- ---- -------<br>--- --- -- ----- -- --- ---- -- --- ---- -- ------ ------<br>--- ----- -- ----,81901,81929,81472,81459,81487,81937,,35,matters
screen,html.Screen,1_1_0_1_36,2021-04-13T13:31:44.189Z,,,,,,,,,,,,,,,,53,,,,,,,,,,,,,,401,,response,,,,99,,,,,,,Space,keypress(Space),,,,,,,,"---- -- ----- -- ------ - ------- --- ----------<br>------------- ------ ------ ---- ---- ------- ----- -- ----<br>-------- ------- -- ---------- --- - --- ----- ----- ----<br>---- --- --- ----- --- ---- ---- ------- most, ---- -------<br>--- --- -- ----- -- --- ---- -- --- ---- -- ------ ------<br>--- ----- -- ----",82290,82321,81920,81901,81937,82319,,36,"most,"
screen,html.Screen,1_1_0_1_37,2021-04-13T13:31:44.704Z,,,,,,,,,,,,,,,,53,,,,,,,,,,,,,,531,,response,,,,99,,,,,,,Space,keypress(Space),,,,,,,,---- -- ----- -- ------ - ------- --- ----------<br>------------- ------ ------ ---- ---- ------- ----- -- ----<br>-------- ------- -- ---------- --- - --- ----- ----- ----<br>---- --- --- ----- --- ---- ---- ------- ----- it's -------<br>--- --- -- ----- -- --- ---- -- --- ---- -- ------ ------<br>--- ----- -- ----,82805,82833,82302,82290,82319,82834,,37,it's
screen,html.Screen,1_1_0_1_38,2021-04-13T13:31:45.158Z,,,,,,,,,,,,,,,,53,,,,,,,,,,,,,,471,,response,,,,99,,,,,,,Space,keypress(Space),,,,,,,,---- -- ----- -- ------ - ------- --- ----------<br>------------- ------ ------ ---- ---- ------- ----- -- ----<br>-------- ------- -- ---------- --- - --- ----- ----- ----<br>---- --- --- ----- --- ---- ---- ------- ----- ---- whether<br>--- --- -- ----- -- --- ---- -- --- ---- -- ------ ------<br>--- ----- -- ----,83259,83289,82818,82805,82834,83300,,38,whether
screen,html.Screen,1_1_0_1_39,2021-04-13T13:31:45.608Z,,,,,,,,,,,,,,,,53,,,,,,,,,,,,,,453,,response,,,,99,,,,,,,Space,keypress(Space),,,,,,,,---- -- ----- -- ------ - ------- --- ----------<br>------------- ------ ------ ---- ---- ------- ----- -- ----<br>-------- ------- -- ---------- --- - --- ----- ----- ----<br>---- --- --- ----- --- ---- ---- ------- ----- ---- -------<br>you --- -- ----- -- --- ---- -- --- ---- -- ------ ------<br>--- ----- -- ----,83709,83737,83284,83259,83300,83749,,39,you
screen,html.Screen,1_1_0_1_40,2021-04-13T13:31:46.013Z,,,,,,,,,,,,,,,,53,,,,,,,,,,,,,,412,,response,,,,99,,,,,,,Space,keypress(Space),,,,,,,,---- -- ----- -- ------ - ------- --- ----------<br>------------- ------ ------ ---- ---- ------- ----- -- ----<br>-------- ------- -- ---------- --- - --- ----- ----- ----<br>---- --- --- ----- --- ---- ---- ------- ----- ---- -------<br>--- are -- ----- -- --- ---- -- --- ---- -- ------ ------<br>--- ----- -- ----,84115,84145,83733,83709,83749,84149,,40,are
screen,html.Screen,1_1_0_1_41,2021-04-13T13:31:46.400Z,,,,,,,,,,,,,,,,53,,,,,,,,,,,,,,397,,response,,,,99,,,,,,,Space,keypress(Space),,,,,,,,---- -- ----- -- ------ - ------- --- ----------<br>------------- ------ ------ ---- ---- ------- ----- -- ----<br>-------- ------- -- ---------- --- - --- ----- ----- ----<br>---- --- --- ----- --- ---- ---- ------- ----- ---- -------<br>--- --- as ----- -- --- ---- -- --- ---- -- ------ ------<br>--- ----- -- ----,84501,84529,84132,84115,84149,84530,,41,as
screen,html.Screen,1_1_0_1_42,2021-04-13T13:31:47.317Z,,,,,,,,,,,,,,,,53,,,,,,,,,,,,,,935,,response,,,,99,,,,,,,Space,keypress(Space),,,,,,,,---- -- ----- -- ------ - ------- --- ----------<br>------------- ------ ------ ---- ---- ------- ----- -- ----<br>-------- ------- -- ---------- --- - --- ----- ----- ----<br>---- --- --- ----- --- ---- ---- ------- ----- ---- -------<br>--- --- -- close -- --- ---- -- --- ---- -- ------ ------<br>--- ----- -- ----,85418,85449,84514,84501,84530,85445,,42,close
screen,html.Screen,1_1_0_1_43,2021-04-13T13:31:47.704Z,,,,,,,,,,,,,,,,53,,,,,,,,,,,,,,405,,response,,,,99,,,,,,,Space,keypress(Space),,,,,,,,---- -- ----- -- ------ - ------- --- ----------<br>------------- ------ ------ ---- ---- ------- ----- -- ----<br>-------- ------- -- ---------- --- - --- ----- ----- ----<br>---- --- --- ----- --- ---- ---- ------- ----- ---- -------<br>--- --- -- ----- as --- ---- -- --- ---- -- ------ ------<br>--- ----- -- ----,85805,85834,85429,85419,85445,85828,,43,as
screen,html.Screen,1_1_0_1_44,2021-04-13T13:31:48.053Z,,,,,,,,,,,,,,,,53,,,,,,,,,,,,,,375,,response,,,,99,,,,,,,Space,keypress(Space),,,,,,,,---- -- ----- -- ------ - ------- --- ----------<br>------------- ------ ------ ---- ---- ------- ----- -- ----<br>-------- ------- -- ---------- --- - --- ----- ----- ----<br>---- --- --- ----- --- ---- ---- ------- ----- ---- -------<br>--- --- -- ----- -- you ---- -- --- ---- -- ------ ------<br>--- ----- -- ----,86154,86186,85811,85805,85828,86177,,44,you
screen,html.Screen,1_1_0_1_45,2021-04-13T13:31:48.432Z,,,,,,,,,,,,,,,,53,,,,,,,,,,,,,,402,,response,,,,99,,,,,,,Space,keypress(Space),,,,,,,,---- -- ----- -- ------ - ------- --- ----------<br>------------- ------ ------ ---- ---- ------- ----- -- ----<br>-------- ------- -- ---------- --- - --- ----- ----- ----<br>---- --- --- ----- --- ---- ---- ------- ----- ---- -------<br>--- --- -- ----- -- --- want -- --- ---- -- ------ ------<br>--- ----- -- ----,86533,86562,86160,86155,86177,86560,,45,want
screen,html.Screen,1_1_0_1_46,2021-04-13T13:31:48.805Z,,,,,,,,,,,,,,,,53,,,,,,,,,,,,,,396,,response,,,,99,,,,,,,Space,keypress(Space),,,,,,,,---- -- ----- -- ------ - ------- --- ----------<br>------------- ------ ------ ---- ---- ------- ----- -- ----<br>-------- ------- -- ---------- --- - --- ----- ----- ----<br>---- --- --- ----- --- ---- ---- ------- ----- ---- -------<br>--- --- -- ----- -- --- ---- to --- ---- -- ------ ------<br>--- ----- -- ----,86907,86938,86542,86534,86560,86925,,46,to
screen,html.Screen,1_1_0_1_47,2021-04-13T13:31:49.176Z,,,,,,,,,,,,,,,,53,,,,,,,,,,,,,,398,,response,,,,99,,,,,,,Space,keypress(Space),,,,,,,,"---- -- ----- -- ------ - ------- --- ----------<br>------------- ------ ------ ---- ---- ------- ----- -- ----<br>-------- ------- -- ---------- --- - --- ----- ----- ----<br>---- --- --- ----- --- ---- ---- ------- ----- ---- -------<br>--- --- -- ----- -- --- ---- -- be, ---- -- ------ ------<br>--- ----- -- ----",87277,87306,86908,86907,86925,87308,,47,"be,"
screen,html.Screen,1_1_0_1_48,2021-04-13T13:31:49.565Z,,,,,,,,,,,,,,,,53,,,,,,,,,,,,,,406,,response,,,,99,,,,,,,Space,keypress(Space),,,,,,,,---- -- ----- -- ------ - ------- --- ----------<br>------------- ------ ------ ---- ---- ------- ----- -- ----<br>-------- ------- -- ---------- --- - --- ----- ----- ----<br>---- --- --- ----- --- ---- ---- ------- ----- ---- -------<br>--- --- -- ----- -- --- ---- -- --- even -- ------ ------<br>--- ----- -- ----,87666,87697,87291,87277,87308,87690,,48,even
screen,html.Screen,1_1_0_1_49,2021-04-13T13:31:49.936Z,,,,,,,,,,,,,,,,53,,,,,,,,,,,,,,392,,response,,,,99,,,,,,,Space,keypress(Space),,,,,,,,---- -- ----- -- ------ - ------- --- ----------<br>------------- ------ ------ ---- ---- ------- ----- -- ----<br>-------- ------- -- ---------- --- - --- ----- ----- ----<br>---- --- --- ----- --- ---- ---- ------- ----- ---- -------<br>--- --- -- ----- -- --- ---- -- --- ---- if ------ ------<br>--- ----- -- ----,88037,88066,87674,87666,87690,88056,,49,if
screen,html.Screen,1_1_0_1_50,2021-04-13T13:31:50.333Z,,,,,,,,,,,,,,,,53,,,,,,,,,,,,,,427,,response,,,,99,,,,,,,Space,keypress(Space),,,,,,,,---- -- ----- -- ------ - ------- --- ----------<br>------------- ------ ------ ---- ---- ------- ----- -- ----<br>-------- ------- -- ---------- --- - --- ----- ----- ----<br>---- --- --- ----- --- ---- ---- ------- ----- ---- -------<br>--- --- -- ----- -- --- ---- -- --- ---- -- that's ------<br>--- ----- -- ----,88434,88465,88038,88037,88056,88472,,50,that's
screen,html.Screen,1_1_0_1_51,2021-04-13T13:31:50.760Z,,,,,,,,,,,,,,,,53,,,,,,,,,,,,,,435,,response,,,,99,,,,,,,Space,keypress(Space),,,,,,,,---- -- ----- -- ------ - ------- --- ----------<br>------------- ------ ------ ---- ---- ------- ----- -- ----<br>-------- ------- -- ---------- --- - --- ----- ----- ----<br>---- --- --- ----- --- ---- ---- ------- ----- ---- -------<br>--- --- -- ----- -- --- ---- -- --- ---- -- ------ really<br>--- ----- -- ----,88861,88890,88455,88434,88472,88903,,51,really
screen,html.Screen,1_1_0_1_52,2021-04-13T13:31:51.197Z,,,,,,,,,,,,,,,,53,,,,,,,,,,,,,,442.00000000001455,,response,,,,99,,,,,,,Space,keypress(Space),,,,,,,,---- -- ----- -- ------ - ------- --- ----------<br>------------- ------ ------ ---- ---- ------- ----- -- ----<br>-------- ------- -- ---------- --- - --- ----- ----- ----<br>---- --- --- ----- --- ---- ---- ------- ----- ---- -------<br>--- --- -- ----- -- --- ---- -- --- ---- -- ------ ------<br>not ----- -- ----,89298,89329.00000000001,88887,88861,88903,89335,,52,not
screen,html.Screen,1_1_0_1_53,2021-04-13T13:31:51.584Z,,,,,,,,,,,,,,,,53,,,,,,,,,,,,,,394,,response,,,,99,,,,,,,Space,keypress(Space),,,,,,,,---- -- ----- -- ------ - ------- --- ----------<br>------------- ------ ------ ---- ---- ------- ----- -- ----<br>-------- ------- -- ---------- --- - --- ----- ----- ----<br>---- --- --- ----- --- ---- ---- ------- ----- ---- -------<br>--- --- -- ----- -- --- ---- -- --- ---- -- ------ ------<br>--- close -- ----,89685,89714,89320,89298,89335,89719,,53,close
screen,html.Screen,1_1_0_1_54,2021-04-13T13:31:51.933Z,,,,,,,,,,,,,,,,53,,,,,,,,,,,,,,363,,response,,,,99,,,,,,,Space,keypress(Space),,,,,,,,---- -- ----- -- ------ - ------- --- ----------<br>------------- ------ ------ ---- ---- ------- ----- -- ----<br>-------- ------- -- ---------- --- - --- ----- ----- ----<br>---- --- --- ----- --- ---- ---- ------- ----- ---- -------<br>--- --- -- ----- -- --- ---- -- --- ---- -- ------ ------<br>--- ----- at ----,90034,90065,89702,89685,89719,90068,,54,at
screen,html.Screen,1_1_0_1_55,2021-04-13T13:31:52.272Z,,,,,,,,,,,,,,,,53,,,,,,,,,,,,,,351,,response,,,,99,,,,,,,Space,keypress(Space),,,,,,,,---- -- ----- -- ------ - ------- --- ----------<br>------------- ------ ------ ---- ---- ------- ----- -- ----<br>-------- ------- -- ---------- --- - --- ----- ----- ----<br>---- --- --- ----- --- ---- ---- ------- ----- ---- -------<br>--- --- -- ----- -- --- ---- -- --- ---- -- ------ ------<br>--- ----- -- all.,90373,90402,90051,90034,90068,90400,,55,all.
Item 99,flow.Loop,1_1_0_1,2021-04-13T13:31:52.272Z,,,,,,,,,,,,,,,,,,,,,,,,,,,,,,29637,,completion,,,,,B,,,,,,,,,,,silence,,,,,90373,90402,60105,60105.00000000001,60765,90400,,,
Question 1,html.Screen,1_1_0_2,2021-04-13T13:32:00.529Z,,,,,,,,,,,,,,,,,,,,,,,,,,,false,FALSE,,8279,,response,,,,99,B,,,,,,TRUE,click #choice-1,,,,silence,,,,,98630,98663,90384,90373,90400,98663,,,
Question 2,html.Screen,1_1_0_3,2021-04-13T13:32:11.861Z,,,,,,,,,,,,,,,,,,,,,,,,,,,true,TRUE,,11345.000000000015,,response,,,,99,B,,,,,,TRUE,click #choice-1,,,,silence,,,,,109962,109993.00000000001,98648,98630,98663,109987,,,
Item 99,flow.Sequence,1_1_0,2021-04-13T13:32:11.861Z,,,,,,,,,,,,,,,,,,,,,,,,,,,,,,59865.000000000015,,completion,,,,,,,,,,,,,,,,,,,,,109962,109993.00000000001,50112,50108.00000000001,50128,109987,,,
Holding screen,html.Screen,1_1_1_0,2021-04-13T13:32:21.863Z,,,,,,,,,,,,,,,,,,,,,,,,,,,,,,9993,,timeout,,,,,,,,,,,,,,,,,,,,,119965,119964,109970,109963.00000000001,109987,119980,,,
screen,html.Screen,1_1_1_1_0,2021-04-13T13:32:22.829Z,,,,,,,,,,,,,,,,54,,,,,,,,,,,,,,998,,response,,,,100,,,,,,,Space,keypress(Space),,,,,,,,At --- ---- --- ------ ----- ------- ---- -- --- ------- --<br>------- ---------- ------ -- ----- -- ----- -- ---- ------<br>--- ----- --- --- ------ -------- ----- --- ------ ----- --<br>----- ----- ---------- --- --- ------ ------ ---- -- ------<br>------- --- ------ ----- --- ---- ------- -- ---- --- --<br>------- ------,120931,120962,119964,119965,119980,120962,,0,At
screen,html.Screen,1_1_1_1_1,2021-04-13T13:32:23.175Z,,,,,,,,,,,,,,,,54,,,,,,,,,,,,,,361,,response,,,,100,,,,,,,Space,keypress(Space),,,,,,,,-- the ---- --- ------ ----- ------- ---- -- --- ------- --<br>------- ---------- ------ -- ----- -- ----- -- ---- ------<br>--- ----- --- --- ------ -------- ----- --- ------ ----- --<br>----- ----- ---------- --- --- ------ ------ ---- -- ------<br>------- --- ------ ----- --- ---- ------- -- ---- --- --<br>------- ------,121277,121306,120945,120931,120962,121294,,1,the
screen,html.Screen,1_1_1_1_2,2021-04-13T13:32:23.517Z,,,,,,,,,,,,,,,,54,,,,,,,,,,,,,,372,,response,,,,100,,,,,,,Space,keypress(Space),,,,,,,,-- --- time --- ------ ----- ------- ---- -- --- ------- --<br>------- ---------- ------ -- ----- -- ----- -- ---- ------<br>--- ----- --- --- ------ -------- ----- --- ------ ----- --<br>----- ----- ---------- --- --- ------ ------ ---- -- ------<br>------- --- ------ ----- --- ---- ------- -- ---- --- --<br>------- ------,121618.00000000001,121650,121278,121277,121294,121643,,2,time
screen,html.Screen,1_1_1_1_3,2021-04-13T13:32:23.831Z,,,,,,,,,,,,,,,,54,,,,,,,,,,,,,,336,,response,,,,100,,,,,,,Space,keypress(Space),,,,,,,,-- --- ---- the ------ ----- ------- ---- -- --- ------- --<br>------- ---------- ------ -- ----- -- ----- -- ---- ------<br>--- ----- --- --- ------ -------- ----- --- ------ ----- --<br>----- ----- ---------- --- --- ------ ------ ---- -- ------<br>------- --- ------ ----- --- ---- ------- -- ---- --- --<br>------- ------,121933,121962,121626,121619,121643,121959,,3,the
screen,html.Screen,1_1_1_1_4,2021-04-13T13:32:24.092Z,,,,,,,,,,,,,,,,54,,,,,,,,,,,,,,283,,response,,,,100,,,,,,,Space,keypress(Space),,,,,,,,-- --- ---- --- French ----- ------- ---- -- --- ------- --<br>------- ---------- ------ -- ----- -- ----- -- ---- ------<br>--- ----- --- --- ------ -------- ----- --- ------ ----- --<br>----- ----- ---------- --- --- ------ ------ ---- -- ------<br>------- --- ------ ----- --- ---- ------- -- ---- --- --<br>------- ------,122194,122226,121943,121933,121959,122226,,4,French
screen,html.Screen,1_1_1_1_5,2021-04-13T13:32:24.391Z,,,,,,,,,,,,,,,,54,,,,,,,,,,,,,,314,,response,,,,100,,,,,,,Space,keypress(Space),,,,,,,,-- --- ---- --- ------ crown ------- ---- -- --- ------- --<br>------- ---------- ------ -- ----- -- ----- -- ---- ------<br>--- ----- --- --- ------ -------- ----- --- ------ ----- --<br>----- ----- ---------- --- --- ------ ------ ---- -- ------<br>------- --- ------ ----- --- ---- ------- -- ---- --- --<br>------- ------,122493.00000000001,122522,122208,122194,122226,122524,,5,crown
screen,html.Screen,1_1_1_1_6,2021-04-13T13:32:24.693Z,,,,,,,,,,,,,,,,54,,,,,,,,,,,,,,319.00000000001455,,response,,,,100,,,,,,,Space,keypress(Space),,,,,,,,-- --- ---- --- ------ ----- secured ---- -- --- ------- --<br>------- ---------- ------ -- ----- -- ----- -- ---- ------<br>--- ----- --- --- ------ -------- ----- --- ------ ----- --<br>----- ----- ---------- --- --- ------ ------ ---- -- ------<br>------- --- ------ ----- --- ---- ------- -- ---- --- --<br>------- ------,122795,122826.00000000001,122507,122493.00000000001,122524,122823,,6,secured
screen,html.Screen,1_1_1_1_7,2021-04-13T13:32:25.023Z,,,,,,,,,,,,,,,,54,,,,,,,,,,,,,,347,,response,,,,100,,,,,,,Space,keypress(Space),,,,,,,,-- --- ---- --- ------ ----- ------- much -- --- ------- --<br>------- ---------- ------ -- ----- -- ----- -- ---- ------<br>--- ----- --- --- ------ -------- ----- --- ------ ----- --<br>----- ----- ---------- --- --- ------ ------ ---- -- ------<br>------- --- ------ ----- --- ---- ------- -- ---- --- --<br>------- ------,123125,123154,122807,122795,122823,123157,,7,much
screen,html.Screen,1_1_1_1_8,2021-04-13T13:32:25.372Z,,,,,,,,,,,,,,,,54,,,,,,,,,,,,,,366,,response,,,,100,,,,,,,Space,keypress(Space),,,,,,,,-- --- ---- --- ------ ----- ------- ---- of --- ------- --<br>------- ---------- ------ -- ----- -- ----- -- ---- ------<br>--- ----- --- --- ------ -------- ----- --- ------ ----- --<br>----- ----- ---------- --- --- ------ ------ ---- -- ------<br>------- --- ------ ----- --- ---- ------- -- ---- --- --<br>------- ------,123474,123506,123140,123125,123157,123505,,8,of
screen,html.Screen,1_1_1_1_9,2021-04-13T13:32:25.687Z,,,,,,,,,,,,,,,,54,,,,,,,,,,,,,,329,,response,,,,100,,,,,,,Space,keypress(Space),,,,,,,,-- --- ---- --- ------ ----- ------- ---- -- its ------- --<br>------- ---------- ------ -- ----- -- ----- -- ---- ------<br>--- ----- --- --- ------ -------- ----- --- ------ ----- --<br>----- ----- ---------- --- --- ------ ------ ---- -- ------<br>------- --- ------ ----- --- ---- ------- -- ---- --- --<br>------- ------,123789,123818,123489,123475.00000000001,123505,123821,,9,its
screen,html.Screen,1_1_1_1_10,2021-04-13T13:32:25.948Z,,,,,,,,,,,,,,,,54,,,,,,,,,,,,,,277.00000000001455,,response,,,,100,,,,,,,Space,keypress(Space),,,,,,,,-- --- ---- --- ------ ----- ------- ---- -- --- revenue --<br>------- ---------- ------ -- ----- -- ----- -- ---- ------<br>--- ----- --- --- ------ -------- ----- --- ------ ----- --<br>----- ----- ---------- --- --- ------ ------ ---- -- ------<br>------- --- ------ ----- --- ---- ------- -- ---- --- --<br>------- ------,124050,124082.00000000001,123805,123789,123821,124071,,10,revenue
screen,html.Screen,1_1_1_1_11,2021-04-13T13:32:26.319Z,,,,,,,,,,,,,,,,54,,,,,,,,,,,,,,396,,response,,,,100,,,,,,,Space,keypress(Space),,,,,,,,-- --- ---- --- ------ ----- ------- ---- -- --- ------- by<br>------- ---------- ------ -- ----- -- ----- -- ---- ------<br>--- ----- --- --- ------ -------- ----- --- ------ ----- --<br>----- ----- ---------- --- --- ------ ------ ---- -- ------<br>------- --- ------ ----- --- ---- ------- -- ---- --- --<br>------- ------,124421,124450,124054,124050,124071,124453,,11,by
screen,html.Screen,1_1_1_1_12,2021-04-13T13:32:26.717Z,,,,,,,,,,,,,,,,54,,,,,,,,,,,,,,413.00000000001455,,response,,,,100,,,,,,,Space,keypress(Space),,,,,,,,-- --- ---- --- ------ ----- ------- ---- -- --- ------- --<br>issuing ---------- ------ -- ----- -- ----- -- ---- ------<br>--- ----- --- --- ------ -------- ----- --- ------ ----- --<br>----- ----- ---------- --- --- ------ ------ ---- -- ------<br>------- --- ------ ----- --- ---- ------- -- ---- --- --<br>------- ------,124819,124850.00000000001,124437,124421,124453,124853,,12,issuing
screen,html.Screen,1_1_1_1_13,2021-04-13T13:32:27.247Z,,,,,,,,,,,,,,,,54,,,,,,,,,,,,,,542,,response,,,,100,,,,,,,Space,keypress(Space),,,,,,,,-- --- ---- --- ------ ----- ------- ---- -- --- ------- --<br>------- government ------ -- ----- -- ----- -- ---- ------<br>--- ----- --- --- ------ -------- ----- --- ------ ----- --<br>----- ----- ---------- --- --- ------ ------ ---- -- ------<br>------- --- ------ ----- --- ---- ------- -- ---- --- --<br>------- ------,125349,125378,124836,124819,124853,125384,,13,government
screen,html.Screen,1_1_1_1_14,2021-04-13T13:32:28.045Z,,,,,,,,,,,,,,,,54,,,,,,,,,,,,,,811,,response,,,,100,,,,,,,Space,keypress(Space),,,,,,,,-- --- ---- --- ------ ----- ------- ---- -- --- ------- --<br>------- ---------- bonds. -- ----- -- ----- -- ---- ------<br>--- ----- --- --- ------ -------- ----- --- ------ ----- --<br>----- ----- ---------- --- --- ------ ------ ---- -- ------<br>------- --- ------ ----- --- ---- ------- -- ---- --- --<br>------- ------,126147,126178,125367,125349,125384,126183,,14,bonds.
screen,html.Screen,1_1_1_1_15,2021-04-13T13:32:28.559Z,,,,,,,,,,,,,,,,54,,,,,,,,,,,,,,524,,response,,,,100,,,,,,,Space,keypress(Space),,,,,,,,-- --- ---- --- ------ ----- ------- ---- -- --- ------- --<br>------- ---------- ------ In ----- -- ----- -- ---- ------<br>--- ----- --- --- ------ -------- ----- --- ------ ----- --<br>----- ----- ---------- --- --- ------ ------ ---- -- ------<br>------- --- ------ ----- --- ---- ------- -- ---- --- --<br>------- ------,126661,126690,126166,126147,126183,126697,,15,In
screen,html.Screen,1_1_1_1_16,2021-04-13T13:32:28.924Z,,,,,,,,,,,,,,,,54,,,,,,,,,,,,,,377,,response,,,,100,,,,,,,Space,keypress(Space),,,,,,,,"-- --- ---- --- ------ ----- ------- ---- -- --- ------- --<br>------- ---------- ------ -- 1727, -- ----- -- ---- ------<br>--- ----- --- --- ------ -------- ----- --- ------ ----- --<br>----- ----- ---------- --- --- ------ ------ ---- -- ------<br>------- --- ------ ----- --- ---- ------- -- ---- --- --<br>------- ------",127026,127058,126681,126661,126697,127048,,16,"1727,"
screen,html.Screen,1_1_1_1_17,2021-04-13T13:32:29.567Z,,,,,,,,,,,,,,,,54,,,,,,,,,,,,,,668.0000000000146,,response,,,,100,,,,,,,Space,keypress(Space),,,,,,,,-- --- ---- --- ------ ----- ------- ---- -- --- ------- --<br>------- ---------- ------ -- ----- in ----- -- ---- ------<br>--- ----- --- --- ------ -------- ----- --- ------ ----- --<br>----- ----- ---------- --- --- ------ ------ ---- -- ------<br>------- --- ------ ----- --- ---- ------- -- ---- --- --<br>------- ------,127669,127698.00000000001,127030,127027,127048,127695,,17,in
screen,html.Screen,1_1_1_1_18,2021-04-13T13:32:30.404Z,,,,,,,,,,,,,,,,54,,,,,,,,,,,,,,859.0000000000146,,response,,,,100,,,,,,,Space,keypress(Space),,,,,,,,-- --- ---- --- ------ ----- ------- ---- -- --- ------- --<br>------- ---------- ------ -- ----- -- order -- ---- ------<br>--- ----- --- --- ------ -------- ----- --- ------ ----- --<br>----- ----- ---------- --- --- ------ ------ ---- -- ------<br>------- --- ------ ----- --- ---- ------- -- ---- --- --<br>------- ------,128506,128538.00000000001,127679,127669,127695,128543,,18,order
screen,html.Screen,1_1_1_1_19,2021-04-13T13:32:30.847Z,,,,,,,,,,,,,,,,54,,,,,,,,,,,,,,452.00000000001455,,response,,,,100,,,,,,,Space,keypress(Space),,,,,,,,-- --- ---- --- ------ ----- ------- ---- -- --- ------- --<br>------- ---------- ------ -- ----- -- ----- to ---- ------<br>--- ----- --- --- ------ -------- ----- --- ------ ----- --<br>----- ----- ---------- --- --- ------ ------ ---- -- ------<br>------- --- ------ ----- --- ---- ------- -- ---- --- --<br>------- ------,128949.00000000001,128978.00000000001,128526,128506,128543,128975,,19,to
screen,html.Screen,1_1_1_1_20,2021-04-13T13:32:31.172Z,,,,,,,,,,,,,,,,54,,,,,,,,,,,,,,346.00000000001455,,response,,,,100,,,,,,,Space,keypress(Space),,,,,,,,-- --- ---- --- ------ ----- ------- ---- -- --- ------- --<br>------- ---------- ------ -- ----- -- ----- -- save ------<br>--- ----- --- --- ------ -------- ----- --- ------ ----- --<br>----- ----- ---------- --- --- ------ ------ ---- -- ------<br>------- --- ------ ----- --- ---- ------- -- ---- --- --<br>------- ------,129274,129306.00000000001,128960,128949.00000000001,128975,129308,,20,save
screen,html.Screen,1_1_1_1_21,2021-04-13T13:32:31.623Z,,,,,,,,,,,,,,,,54,,,,,,,,,,,,,,461.99999999998545,,response,,,,100,,,,,,,Space,keypress(Space),,,,,,,,"-- --- ---- --- ------ ----- ------- ---- -- --- ------- --<br>------- ---------- ------ -- ----- -- ----- -- ---- money,<br>--- ----- --- --- ------ -------- ----- --- ------ ----- --<br>----- ----- ---------- --- --- ------ ------ ---- -- ------<br>------- --- ------ ----- --- ---- ------- -- ---- --- --<br>------- ------",129725,129753.99999999999,129292,129274,129308,129757,,21,"money,"
screen,html.Screen,1_1_1_1_22,2021-04-13T13:32:32.045Z,,,,,,,,,,,,,,,,54,,,,,,,,,,,,,,437,,response,,,,100,,,,,,,Space,keypress(Space),,,,,,,,-- --- ---- --- ------ ----- ------- ---- -- --- ------- --<br>------- ---------- ------ -- ----- -- ----- -- ---- ------<br>the ----- --- --- ------ -------- ----- --- ------ ----- --<br>----- ----- ---------- --- --- ------ ------ ---- -- ------<br>------- --- ------ ----- --- ---- ------- -- ---- --- --<br>------- ------,130146.99999999999,130178,129741,129726,129757,130189,,22,the
screen,html.Screen,1_1_1_1_23,2021-04-13T13:32:32.391Z,,,,,,,,,,,,,,,,54,,,,,,,,,,,,,,348.99999999998545,,response,,,,100,,,,,,,Space,keypress(Space),,,,,,,,-- --- ---- --- ------ ----- ------- ---- -- --- ------- --<br>------- ---------- ------ -- ----- -- ----- -- ---- ------<br>--- state --- --- ------ -------- ----- --- ------ ----- --<br>----- ----- ---------- --- --- ------ ------ ---- -- ------<br>------- --- ------ ----- --- ---- ------- -- ---- --- --<br>------- ------,130493,130521.99999999999,130173,130146.99999999999,130189,130522,,23,state
screen,html.Screen,1_1_1_1_24,2021-04-13T13:32:32.653Z,,,,,,,,,,,,,,,,54,,,,,,,,,,,,,,281,,response,,,,100,,,,,,,Space,keypress(Space),,,,,,,,-- --- ---- --- ------ ----- ------- ---- -- --- ------- --<br>------- ---------- ------ -- ----- -- ----- -- ---- ------<br>--- ----- cut --- ------ -------- ----- --- ------ ----- --<br>----- ----- ---------- --- --- ------ ------ ---- -- ------<br>------- --- ------ ----- --- ---- ------- -- ---- --- --<br>------- ------,130755,130786,130505,130493,130522,130788,,24,cut
screen,html.Screen,1_1_1_1_25,2021-04-13T13:32:32.935Z,,,,,,,,,,,,,,,,54,,,,,,,,,,,,,,295,,response,,,,100,,,,,,,Space,keypress(Space),,,,,,,,-- --- ---- --- ------ ----- ------- ---- -- --- ------- --<br>------- ---------- ------ -- ----- -- ----- -- ---- ------<br>--- ----- --- the ------ -------- ----- --- ------ ----- --<br>----- ----- ---------- --- --- ------ ------ ---- -- ------<br>------- --- ------ ----- --- ---- ------- -- ---- --- --<br>------- ------,131037,131066,130771,130755,130788,131071,,25,the
screen,html.Screen,1_1_1_1_26,2021-04-13T13:32:33.236Z,,,,,,,,,,,,,,,,54,,,,,,,,,,,,,,315,,response,,,,100,,,,,,,Space,keypress(Space),,,,,,,,-- --- ---- --- ------ ----- ------- ---- -- --- ------- --<br>------- ---------- ------ -- ----- -- ----- -- ---- ------<br>--- ----- --- --- bonds' -------- ----- --- ------ ----- --<br>----- ----- ---------- --- --- ------ ------ ---- -- ------<br>------- --- ------ ----- --- ---- ------- -- ---- --- --<br>------- ------,131338,131370,131055,131037,131071,131370,,26,bonds'
screen,html.Screen,1_1_1_1_27,2021-04-13T13:32:33.567Z,,,,,,,,,,,,,,,,54,,,,,,,,,,,,,,345,,response,,,,100,,,,,,,Space,keypress(Space),,,,,,,,-- --- ---- --- ------ ----- ------- ---- -- --- ------- --<br>------- ---------- ------ -- ----- -- ----- -- ---- ------<br>--- ----- --- --- ------ interest ----- --- ------ ----- --<br>----- ----- ---------- --- --- ------ ------ ---- -- ------<br>------- --- ------ ----- --- ---- ------- -- ---- --- --<br>------- ------,131669,131698,131353,131339,131370,131687,,27,interest
screen,html.Screen,1_1_1_1_28,2021-04-13T13:32:33.908Z,,,,,,,,,,,,,,,,54,,,,,,,,,,,,,,372,,response,,,,100,,,,,,,Space,keypress(Space),,,,,,,,-- --- ---- --- ------ ----- ------- ---- -- --- ------- --<br>------- ---------- ------ -- ----- -- ----- -- ---- ------<br>--- ----- --- --- ------ -------- rate. --- ------ ----- --<br>----- ----- ---------- --- --- ------ ------ ---- -- ------<br>------- --- ------ ----- --- ---- ------- -- ---- --- --<br>------- ------,132010,132042,131670,131669,131687,132036,,28,rate.
screen,html.Screen,1_1_1_1_29,2021-04-13T13:32:34.223Z,,,,,,,,,,,,,,,,54,,,,,,,,,,,,,,336,,response,,,,100,,,,,,,Space,keypress(Space),,,,,,,,-- --- ---- --- ------ ----- ------- ---- -- --- ------- --<br>------- ---------- ------ -- ----- -- ----- -- ---- ------<br>--- ----- --- --- ------ -------- ----- The ------ ----- --<br>----- ----- ---------- --- --- ------ ------ ---- -- ------<br>------- --- ------ ----- --- ---- ------- -- ---- --- --<br>------- ------,132325,132354,132018,132011,132036,132351,,29,The
screen,html.Screen,1_1_1_1_30,2021-04-13T13:32:34.580Z,,,,,,,,,,,,,,,,54,,,,,,,,,,,,,,380,,response,,,,100,,,,,,,Space,keypress(Space),,,,,,,,-- --- ---- --- ------ ----- ------- ---- -- --- ------- --<br>------- ---------- ------ -- ----- -- ----- -- ---- ------<br>--- ----- --- --- ------ -------- ----- --- market ----- --<br>----- ----- ---------- --- --- ------ ------ ---- -- ------<br>------- --- ------ ----- --- ---- ------- -- ---- --- --<br>------- ------,132682.00000000003,132714,132334,132325,132351,132701,,30,market
screen,html.Screen,1_1_1_1_31,2021-04-13T13:32:34.975Z,,,,,,,,,,,,,,,,54,,,,,,,,,,,,,,422,,response,,,,100,,,,,,,Space,keypress(Space),,,,,,,,-- --- ---- --- ------ ----- ------- ---- -- --- ------- --<br>------- ---------- ------ -- ----- -- ----- -- ---- ------<br>--- ----- --- --- ------ -------- ----- --- ------ value --<br>----- ----- ---------- --- --- ------ ------ ---- -- ------<br>------- --- ------ ----- --- ---- ------- -- ---- --- --<br>------- ------,133077,133106,132684,132682.00000000003,132701,133115,,31,value
screen,html.Screen,1_1_1_1_32,2021-04-13T13:32:35.429Z,,,,,,,,,,,,,,,,54,,,,,,,,,,,,,,462,,response,,,,100,,,,,,,Space,keypress(Space),,,,,,,,-- --- ---- --- ------ ----- ------- ---- -- --- ------- --<br>------- ---------- ------ -- ----- -- ----- -- ---- ------<br>--- ----- --- --- ------ -------- ----- --- ------ ----- of<br>----- ----- ---------- --- --- ------ ------ ---- -- ------<br>------- --- ------ ----- --- ---- ------- -- ---- --- --<br>------- ------,133531,133562,133100,133077,133115,133565,,32,of
screen,html.Screen,1_1_1_1_33,2021-04-13T13:32:35.783Z,,,,,,,,,,,,,,,,54,,,,,,,,,,,,,,365.0000000000291,,response,,,,100,,,,,,,Space,keypress(Space),,,,,,,,-- --- ---- --- ------ ----- ------- ---- -- --- ------- --<br>------- ---------- ------ -- ----- -- ----- -- ---- ------<br>--- ----- --- --- ------ -------- ----- --- ------ ----- --<br>these ----- ---------- --- --- ------ ------ ---- -- ------<br>------- --- ------ ----- --- ---- ------- -- ---- --- --<br>------- ------,133885,133914.00000000003,133549,133531,133565,133914,,33,these
screen,html.Screen,1_1_1_1_34,2021-04-13T13:32:36.092Z,,,,,,,,,,,,,,,,54,,,,,,,,,,,,,,329,,response,,,,100,,,,,,,Space,keypress(Space),,,,,,,,-- --- ---- --- ------ ----- ------- ---- -- --- ------- --<br>------- ---------- ------ -- ----- -- ----- -- ---- ------<br>--- ----- --- --- ------ -------- ----- --- ------ ----- --<br>----- bonds ---------- --- --- ------ ------ ---- -- ------<br>------- --- ------ ----- --- ---- ------- -- ---- --- --<br>------- ------,134194.00000000003,134226,133897,133886,133914,134213,,34,bonds
screen,html.Screen,1_1_1_1_35,2021-04-13T13:32:36.415Z,,,,,,,,,,,,,,,,54,,,,,,,,,,,,,,349,,response,,,,100,,,,,,,Space,keypress(Space),,,,,,,,"-- --- ---- --- ------ ----- ------- ---- -- --- ------- --<br>------- ---------- ------ -- ----- -- ----- -- ---- ------<br>--- ----- --- --- ------ -------- ----- --- ------ ----- --<br>----- ----- plummeted, --- --- ------ ------ ---- -- ------<br>------- --- ------ ----- --- ---- ------- -- ---- --- --<br>------- ------",134517,134546,134197,134195,134213,134546,,35,"plummeted,"
screen,html.Screen,1_1_1_1_36,2021-04-13T13:32:36.804Z,,,,,,,,,,,,,,,,54,,,,,,,,,,,,,,408.0000000000291,,response,,,,100,,,,,,,Space,keypress(Space),,,,,,,,-- --- ---- --- ------ ----- ------- ---- -- --- ------- --<br>------- ---------- ------ -- ----- -- ----- -- ---- ------<br>--- ----- --- --- ------ -------- ----- --- ------ ----- --<br>----- ----- ---------- and --- ------ ------ ---- -- ------<br>------- --- ------ ----- --- ---- ------- -- ---- --- --<br>------- ------,134906,134938.00000000003,134530,134517,134546,134928,,36,and
screen,html.Screen,1_1_1_1_37,2021-04-13T13:32:37.143Z,,,,,,,,,,,,,,,,54,,,,,,,,,,,,,,364,,response,,,,100,,,,,,,Space,keypress(Space),,,,,,,,-- --- ---- --- ------ ----- ------- ---- -- --- ------- --<br>------- ---------- ------ -- ----- -- ----- -- ---- ------<br>--- ----- --- --- ------ -------- ----- --- ------ ----- --<br>----- ----- ---------- --- the ------ ------ ---- -- ------<br>------- --- ------ ----- --- ---- ------- -- ---- --- --<br>------- ------,135245,135275,134911,134907,134928,135277,,37,the
screen,html.Screen,1_1_1_1_38,2021-04-13T13:32:37.429Z,,,,,,,,,,,,,,,,54,,,,,,,,,,,,,,302.0000000000291,,response,,,,100,,,,,,,Space,keypress(Space),,,,,,,,-- --- ---- --- ------ ----- ------- ---- -- --- ------- --<br>------- ---------- ------ -- ----- -- ----- -- ---- ------<br>--- ----- --- --- ------ -------- ----- --- ------ ----- --<br>----- ----- ---------- --- --- market ------ ---- -- ------<br>------- --- ------ ----- --- ---- ------- -- ---- --- --<br>------- ------,135531,135563.00000000003,135261,135245,135277,135560,,38,market
screen,html.Screen,1_1_1_1_39,2021-04-13T13:32:37.743Z,,,,,,,,,,,,,,,,54,,,,,,,,,,,,,,331,,response,,,,100,,,,,,,Space,keypress(Space),,,,,,,,-- --- ---- --- ------ ----- ------- ---- -- --- ------- --<br>------- ---------- ------ -- ----- -- ----- -- ---- ------<br>--- ----- --- --- ------ -------- ----- --- ------ ----- --<br>----- ----- ---------- --- --- ------ became ---- -- ------<br>------- --- ------ ----- --- ---- ------- -- ---- --- --<br>------- ------,135845,135874,135543,135531,135560,135876,,39,became
screen,html.Screen,1_1_1_1_40,2021-04-13T13:32:38.068Z,,,,,,,,,,,,,,,,54,,,,,,,,,,,,,,344,,response,,,,100,,,,,,,Space,keypress(Space),,,,,,,,-- --- ---- --- ------ ----- ------- ---- -- --- ------- --<br>------- ---------- ------ -- ----- -- ----- -- ---- ------<br>--- ----- --- --- ------ -------- ----- --- ------ ----- --<br>----- ----- ---------- --- --- ------ ------ wary -- ------<br>------- --- ------ ----- --- ---- ------- -- ---- --- --<br>------- ------,136170.00000000003,136203,135859,135845,135876,136192,,40,wary
screen,html.Screen,1_1_1_1_41,2021-04-13T13:32:38.455Z,,,,,,,,,,,,,,,,54,,,,,,,,,,,,,,412,,response,,,,100,,,,,,,Space,keypress(Space),,,,,,,,-- --- ---- --- ------ ----- ------- ---- -- --- ------- --<br>------- ---------- ------ -- ----- -- ----- -- ---- ------<br>--- ----- --- --- ------ -------- ----- --- ------ ----- --<br>----- ----- ---------- --- --- ------ ------ ---- of ------<br>------- --- ------ ----- --- ---- ------- -- ---- --- --<br>------- ------,136557.00000000003,136587,136175,136171,136192,136575,,41,of
screen,html.Screen,1_1_1_1_42,2021-04-13T13:32:38.788Z,,,,,,,,,,,,,,,,54,,,,,,,,,,,,,,365,,response,,,,100,,,,,,,Space,keypress(Space),,,,,,,,-- --- ---- --- ------ ----- ------- ---- -- --- ------- --<br>------- ---------- ------ -- ----- -- ----- -- ---- ------<br>--- ----- --- --- ------ -------- ----- --- ------ ----- --<br>----- ----- ---------- --- --- ------ ------ ---- -- French<br>------- --- ------ ----- --- ---- ------- -- ---- --- --<br>------- ------,136890.00000000003,136923,136558,136557.00000000003,136575,136923,,42,French
screen,html.Screen,1_1_1_1_43,2021-04-13T13:32:39.207Z,,,,,,,,,,,,,,,,54,,,,,,,,,,,,,,432,,response,,,,100,,,,,,,Space,keypress(Space),,,,,,,,-- --- ---- --- ------ ----- ------- ---- -- --- ------- --<br>------- ---------- ------ -- ----- -- ----- -- ---- ------<br>--- ----- --- --- ------ -------- ----- --- ------ ----- --<br>----- ----- ---------- --- --- ------ ------ ---- -- ------<br>credit. --- ------ ----- --- ---- ------- -- ---- --- --<br>------- ------,137310,137339,136907,136890.00000000003,136923,137339,,43,credit.
screen,html.Screen,1_1_1_1_44,2021-04-13T13:32:39.564Z,,,,,,,,,,,,,,,,54,,,,,,,,,,,,,,377,,response,,,,100,,,,,,,Space,keypress(Space),,,,,,,,-- --- ---- --- ------ ----- ------- ---- -- --- ------- --<br>------- ---------- ------ -- ----- -- ----- -- ---- ------<br>--- ----- --- --- ------ -------- ----- --- ------ ----- --<br>----- ----- ---------- --- --- ------ ------ ---- -- ------<br>------- The ------ ----- --- ---- ------- -- ---- --- --<br>------- ------,137666,137699,137322,137310,137339,137688,,44,The
screen,html.Screen,1_1_1_1_45,2021-04-13T13:32:39.919Z,,,,,,,,,,,,,,,,54,,,,,,,,,,,,,,379.0000000000291,,response,,,,100,,,,,,,Space,keypress(Space),,,,,,,,-- --- ---- --- ------ ----- ------- ---- -- --- ------- --<br>------- ---------- ------ -- ----- -- ----- -- ---- ------<br>--- ----- --- --- ------ -------- ----- --- ------ ----- --<br>----- ----- ---------- --- --- ------ ------ ---- -- ------<br>------- --- French ----- --- ---- ------- -- ---- --- --<br>------- ------,138021.00000000003,138051.00000000003,137672,137666,137688,138054,,45,French
screen,html.Screen,1_1_1_1_46,2021-04-13T13:32:40.252Z,,,,,,,,,,,,,,,,54,,,,,,,,,,,,,,349,,response,,,,100,,,,,,,Space,keypress(Space),,,,,,,,-- --- ---- --- ------ ----- ------- ---- -- --- ------- --<br>------- ---------- ------ -- ----- -- ----- -- ---- ------<br>--- ----- --- --- ------ -------- ----- --- ------ ----- --<br>----- ----- ---------- --- --- ------ ------ ---- -- ------<br>------- --- ------ state --- ---- ------- -- ---- --- --<br>------- ------,138354,138387,138038,138022,138054,138387,,46,state
screen,html.Screen,1_1_1_1_47,2021-04-13T13:32:40.615Z,,,,,,,,,,,,,,,,54,,,,,,,,,,,,,,377,,response,,,,100,,,,,,,Space,keypress(Space),,,,,,,,-- --- ---- --- ------ ----- ------- ---- -- --- ------- --<br>------- ---------- ------ -- ----- -- ----- -- ---- ------<br>--- ----- --- --- ------ -------- ----- --- ------ ----- --<br>----- ----- ---------- --- --- ------ ------ ---- -- ------<br>------- --- ------ ----- was ---- ------- -- ---- --- --<br>------- ------,138717,138747,138370,138354,138387,138736,,47,was
screen,html.Screen,1_1_1_1_48,2021-04-13T13:32:40.949Z,,,,,,,,,,,,,,,,54,,,,,,,,,,,,,,363,,response,,,,100,,,,,,,Space,keypress(Space),,,,,,,,-- --- ---- --- ------ ----- ------- ---- -- --- ------- --<br>------- ---------- ------ -- ----- -- ----- -- ---- ------<br>--- ----- --- --- ------ -------- ----- --- ------ ----- --<br>----- ----- ---------- --- --- ------ ------ ---- -- ------<br>------- --- ------ ----- --- left ------- -- ---- --- --<br>------- ------,139051.00000000003,139082,138719,138717,138736,139069,,48,left
screen,html.Screen,1_1_1_1_49,2021-04-13T13:32:41.271Z,,,,,,,,,,,,,,,,54,,,,,,,,,,,,,,351,,response,,,,100,,,,,,,Space,keypress(Space),,,,,,,,-- --- ---- --- ------ ----- ------- ---- -- --- ------- --<br>------- ---------- ------ -- ----- -- ----- -- ---- ------<br>--- ----- --- --- ------ -------- ----- --- ------ ----- --<br>----- ----- ---------- --- --- ------ ------ ---- -- ------<br>------- --- ------ ----- --- ---- without -- ---- --- --<br>------- ------,139373,139403,139052,139051.00000000003,139069,139402,,49,without
screen,html.Screen,1_1_1_1_50,2021-04-13T13:32:41.644Z,,,,,,,,,,,,,,,,54,,,,,,,,,,,,,,394,,response,,,,100,,,,,,,Space,keypress(Space),,,,,,,,-- --- ---- --- ------ ----- ------- ---- -- --- ------- --<br>------- ---------- ------ -- ----- -- ----- -- ---- ------<br>--- ----- --- --- ------ -------- ----- --- ------ ----- --<br>----- ----- ---------- --- --- ------ ------ ---- -- ------<br>------- --- ------ ----- --- ---- ------- an ---- --- --<br>------- ------,139746,139778,139384,139373,139402,139767,,50,an
screen,html.Screen,1_1_1_1_51,2021-04-13T13:32:42.006Z,,,,,,,,,,,,,,,,54,,,,,,,,,,,,,,388,,response,,,,100,,,,,,,Space,keypress(Space),,,,,,,,-- --- ---- --- ------ ----- ------- ---- -- --- ------- --<br>------- ---------- ------ -- ----- -- ----- -- ---- ------<br>--- ----- --- --- ------ -------- ----- --- ------ ----- --<br>----- ----- ---------- --- --- ------ ------ ---- -- ------<br>------- --- ------ ----- --- ---- ------- -- easy --- --<br>------- ------,140109,140139,139751,139747,139767,140133,,51,easy
screen,html.Screen,1_1_1_1_52,2021-04-13T13:32:42.316Z,,,,,,,,,,,,,,,,54,,,,,,,,,,,,,,334,,response,,,,100,,,,,,,Space,keypress(Space),,,,,,,,-- --- ---- --- ------ ----- ------- ---- -- --- ------- --<br>------- ---------- ------ -- ----- -- ----- -- ---- ------<br>--- ----- --- --- ------ -------- ----- --- ------ ----- --<br>----- ----- ---------- --- --- ------ ------ ---- -- ------<br>------- --- ------ ----- --- ---- ------- -- ---- way --<br>------- ------,140418,140451,140117,140109,140133,140448,,52,way
screen,html.Screen,1_1_1_1_53,2021-04-13T13:32:42.704Z,,,,,,,,,,,,,,,,54,,,,,,,,,,,,,,403,,response,,,,100,,,,,,,Space,keypress(Space),,,,,,,,-- --- ---- --- ------ ----- ------- ---- -- --- ------- --<br>------- ---------- ------ -- ----- -- ----- -- ---- ------<br>--- ----- --- --- ------ -------- ----- --- ------ ----- --<br>----- ----- ---------- --- --- ------ ------ ---- -- ------<br>------- --- ------ ----- --- ---- ------- -- ---- --- of<br>------- ------,140806,140835,140432,140419,140448,140832,,53,of
screen,html.Screen,1_1_1_1_54,2021-04-13T13:32:43.036Z,,,,,,,,,,,,,,,,54,,,,,,,,,,,,,,356,,response,,,,100,,,,,,,Space,keypress(Space),,,,,,,,-- --- ---- --- ------ ----- ------- ---- -- --- ------- --<br>------- ---------- ------ -- ----- -- ----- -- ---- ------<br>--- ----- --- --- ------ -------- ----- --- ------ ----- --<br>----- ----- ---------- --- --- ------ ------ ---- -- ------<br>------- --- ------ ----- --- ---- ------- -- ---- --- --<br>raising ------,141139,141171,140815,140806,140832,141164,,54,raising
screen,html.Screen,1_1_1_1_55,2021-04-13T13:32:43.423Z,,,,,,,,,,,,,,,,54,,,,,,,,,,,,,,408,,response,,,,100,,,,,,,Space,keypress(Space),,,,,,,,-- --- ---- --- ------ ----- ------- ---- -- --- ------- --<br>------- ---------- ------ -- ----- -- ----- -- ---- ------<br>--- ----- --- --- ------ -------- ----- --- ------ ----- --<br>----- ----- ---------- --- --- ------ ------ ---- -- ------<br>------- --- ------ ----- --- ---- ------- -- ---- --- --<br>------- money.,141525,141555,141147,141139,141164,141546,,55,money.
Item 100,flow.Loop,1_1_1_1,2021-04-13T13:32:43.423Z,,,,,,,,,,,,,,,,,,,,,,,,,,,,,,21575,,completion,,,,,B,,,,,,,,,,,silence,,,,,141525,141555,119964,119965,119980,141546,,,
Question 1,html.Screen,1_1_1_2,2021-04-13T13:32:48.278Z,,,,,,,,,,,,,,,,,,,,,,,,,,,true,TRUE,,4884.000000000029,,response,,,,100,B,,,,,,TRUE,click #choice-1,,,,silence,,,,,146380,146414.00000000003,141530,141525,141546,146402,,,
Question 2,html.Screen,1_1_1_3,2021-04-13T13:32:51.416Z,,,,,,,,,,,,,,,,,,,,,,,,,,,true,FALSE,,3168,,response,,,,100,B,,,,,,FALSE,click #choice-2,,,,silence,,,,,149519,149552,146384,146380,146402,149543,,,
Item 100,flow.Sequence,1_1_1,2021-04-13T13:32:51.417Z,,,,,,,,,,,,,,,,,,,,,,,,,,,,,,39565,,completion,,,,,,,,,,,,,,,,,,,,,149519,149552,109970,109963.00000000001,109987,149543,,,
End of Practice,html.Page,1_1_2,2021-04-13T13:32:55.289Z,,,,,,,,,,,,,,,,,,,,,,,,,,,,,,3848,,form submission,,,,,,,,,,,,,,,,,,,,,153392,153391,149527,149519,149543,153418,,,
Practice,flow.Sequence,1_1,2021-04-13T13:32:55.289Z,,,,,,,,,,,,,,,,,,,,,,,,,,,,,,103263,,completion,,,,,,,,,,,,,,,,,,,,,153392,153391,50112,50108.00000000001,50128,153418,,,
Trap_instruction,html.Page,1_2_0,2021-04-13T13:32:56.669Z,,,,,,,,,,,,,,,,,,,,,,,,,,,,,,1353.000000000029,,form submission,,,,,,,,,,,,,,,,,,,,,154771.00000000003,154771.00000000003,153401,153392,153418,154802,,,
trap_trial,html.Screen,1_2_1,2021-04-13T13:33:01.095Z,,,,,,,,,,,,,,,,,,,,,,,,,,,true,1,,4435,,response,,,,,,,,,,,1,click #choice-1,,,,,,,,,159198,159232,154797,154772,154802,159237,,,
end of trap trial,html.Page,1_2_2,2021-04-13T13:33:02.665Z,,,,,,,,,,,,,,,,,,,,,,,,,,,,,,1531,,form submission,,,,,,,,,,,,,,,,,,,,,160768,160768,159229,159198,159237,160785,,,
Trap 1,flow.Sequence,1_2,2021-04-13T13:33:02.666Z,,,,,,,,,,,,,,,,,,,,,,,,,,,,,,7350,,completion,,,,,,,,,,,,,,,,,,,,,160768,160768,153401,153392,153418,160785,,,
Standby,html.Page,1_3_0,2021-04-13T13:33:10.663Z,,,,,,,,,,,,,,,,,,,,,,,,,,,,,,7997,,timeout,,,,,,,,,,,,,,,,,,,,,168765.00000000003,168765,160770,160768,160785,168782,,,
Holding screen,html.Screen,1_3_1_0_0,2021-04-13T13:33:17.664Z,,,,,,,,,,,,,,,,,,,,,,,,,,,,,,7001,,timeout,,,,,,,,,,,,,,,,,,,,,175766,175766,168765,168766,168782,175783,,,
screen,html.Screen,1_3_1_0_1_0,2021-04-13T13:33:18.541Z,,,,,,,,,,,,,,,,15,,,,,,,,,,,,,,909,,response,,,,7,B,,,,,,Space,keypress(Space),,,,lyrical,,,,Greg --------- ---------- - --- ------- -- --- ------------<br>----- -- -------- ------- ---- ------ - -------- ---- -----<br>--- ------- ---- -- --- -------- --- - ----- ------ ---- --<br>-------- --- -------- -------- --- -------- ---- -- ----- -<br>-------- ---- --- ---------- --------- -- ------- ------ -<br>--------- ----- -----,176644,176675,175766,175767,175783,176680,,0,Greg
screen,html.Screen,1_3_1_0_1_1,2021-04-13T13:33:19.406Z,,,,,,,,,,,,,,,,15,,,,,,,,,,,,,,876.0000000000291,,response,,,,7,B,,,,,,Space,keypress(Space),,,,lyrical,,,,"---- Anderson, ---------- - --- ------- -- --- ------------<br>----- -- -------- ------- ---- ------ - -------- ---- -----<br>--- ------- ---- -- --- -------- --- - ----- ------ ---- --<br>-------- --- -------- -------- --- -------- ---- -- ----- -<br>-------- ---- --- ---------- --------- -- ------- ------ -<br>--------- ----- -----",177509,177539.00000000003,176663,176644,176680,177545,,1,"Anderson,"
screen,html.Screen,1_3_1_0_1_2,2021-04-13T13:33:20.228Z,,,,,,,,,,,,,,,,15,,,,,,,,,,,,,,835,,response,,,,7,B,,,,,,Space,keypress(Space),,,,lyrical,,,,---- --------- considered - --- ------- -- --- ------------<br>----- -- -------- ------- ---- ------ - -------- ---- -----<br>--- ------- ---- -- --- -------- --- - ----- ------ ---- --<br>-------- --- -------- -------- --- -------- ---- -- ----- -<br>-------- ---- --- ---------- --------- -- ------- ------ -<br>--------- ----- -----,178331.00000000003,178363,177528,177509,177545,178359,,2,considered
screen,html.Screen,1_3_1_0_1_3,2021-04-13T13:33:21.932Z,,,,,,,,,,,,,,,,15,,,,,,,,,,,,,,1716,,response,,,,7,B,,,,,,Space,keypress(Space),,,,lyrical,,,,---- --------- ---------- a --- ------- -- --- ------------<br>----- -- -------- ------- ---- ------ - -------- ---- -----<br>--- ------- ---- -- --- -------- --- - ----- ------ ---- --<br>-------- --- -------- -------- --- -------- ---- -- ----- -<br>-------- ---- --- ---------- --------- -- ------- ------ -<br>--------- ----- -----,180035,180059,178343,178331.00000000003,178359,180071,,3,a
screen,html.Screen,1_3_1_0_1_4,2021-04-13T13:33:24.006Z,,,,,,,,,,,,,,,,15,,,,,,,,,,,,,,2083,,response,,,,7,B,,,,,,Space,keypress(Space),,,,lyrical,,,,---- --------- ---------- - key ------- -- --- ------------<br>----- -- -------- ------- ---- ------ - -------- ---- -----<br>--- ------- ---- -- --- -------- --- - ----- ------ ---- --<br>-------- --- -------- -------- --- -------- ---- -- ----- -<br>-------- ---- --- ---------- --------- -- ------- ------ -<br>--------- ----- -----,182109,182139,180056,180035,180071,182150,,4,key
screen,html.Screen,1_3_1_0_1_5,2021-04-13T13:33:24.494Z,,,,,,,,,,,,,,,,15,,,,,,,,,,,,,,494,,response,,,,7,B,,,,,,Space,keypress(Space),,,,lyrical,,,,---- --------- ---------- - --- witness -- --- ------------<br>----- -- -------- ------- ---- ------ - -------- ---- -----<br>--- ------- ---- -- --- -------- --- - ----- ------ ---- --<br>-------- --- -------- -------- --- -------- ---- -- ----- -<br>-------- ---- --- ---------- --------- -- ------- ------ -<br>--------- ----- -----,182597,182628,182134,182109,182150,182633,,5,witness
screen,html.Screen,1_3_1_0_1_6,2021-04-13T13:33:25.211Z,,,,,,,,,,,,,,,,15,,,,,,,,,,,,,,732,,response,,,,7,B,,,,,,Space,keypress(Space),,,,lyrical,,,,---- --------- ---------- - --- ------- by --- ------------<br>----- -- -------- ------- ---- ------ - -------- ---- -----<br>--- ------- ---- -- --- -------- --- - ----- ------ ---- --<br>-------- --- -------- -------- --- -------- ---- -- ----- -<br>-------- ---- --- ---------- --------- -- ------- ------ -<br>--------- ----- -----,183315,183348,182616,182598,182633,183348,,6,by
screen,html.Screen,1_3_1_0_1_7,2021-04-13T13:33:26.430Z,,,,,,,,,,,,,,,,15,,,,,,,,,,,,,,1233,,response,,,,7,B,,,,,,Space,keypress(Space),,,,lyrical,,,,---- --------- ---------- - --- ------- -- the ------------<br>----- -- -------- ------- ---- ------ - -------- ---- -----<br>--- ------- ---- -- --- -------- --- - ----- ------ ---- --<br>-------- --- -------- -------- --- -------- ---- -- ----- -<br>-------- ---- --- ---------- --------- -- ------- ------ -<br>--------- ----- -----,184533.00000000003,184564,183331,183315,183348,184562,,7,the
screen,html.Screen,1_3_1_0_1_8,2021-04-13T13:33:26.851Z,,,,,,,,,,,,,,,,15,,,,,,,,,,,,,,443,,response,,,,7,B,,,,,,Space,keypress(Space),,,,lyrical,,,,"---- --------- ---------- - --- ------- -- --- prosecution,<br>----- -- -------- ------- ---- ------ - -------- ---- -----<br>--- ------- ---- -- --- -------- --- - ----- ------ ---- --<br>-------- --- -------- -------- --- -------- ---- -- ----- -<br>-------- ---- --- ---------- --------- -- ------- ------ -<br>--------- ----- -----",184954,184988,184545,184533.00000000003,184562,184993,,8,"prosecution,"
screen,html.Screen,1_3_1_0_1_9,2021-04-13T13:33:27.462Z,,,,,,,,,,,,,,,,15,,,,,,,,,,,,,,618,,response,,,,7,B,,,,,,Space,keypress(Space),,,,lyrical,,,,---- --------- ---------- - --- ------- -- --- ------------<br>vowed -- -------- ------- ---- ------ - -------- ---- -----<br>--- ------- ---- -- --- -------- --- - ----- ------ ---- --<br>-------- --- -------- -------- --- -------- ---- -- ----- -<br>-------- ---- --- ---------- --------- -- ------- ------ -<br>--------- ----- -----,185565,185596,184978,184955,184993,185593,,9,vowed
screen,html.Screen,1_3_1_0_1_10,2021-04-13T13:33:27.907Z,,,,,,,,,,,,,,,,15,,,,,,,,,,,,,,468,,response,,,,7,B,,,,,,Space,keypress(Space),,,,lyrical,,,,---- --------- ---------- - --- ------- -- --- ------------<br>----- he -------- ------- ---- ------ - -------- ---- -----<br>--- ------- ---- -- --- -------- --- - ----- ------ ---- --<br>-------- --- -------- -------- --- -------- ---- -- ----- -<br>-------- ---- --- ---------- --------- -- ------- ------ -<br>--------- ----- -----,186011,186044,185576,185565,185593,186042,,10,he
screen,html.Screen,1_3_1_0_1_11,2021-04-13T13:33:28.366Z,,,,,,,,,,,,,,,,15,,,,,,,,,,,,,,475,,response,,,,7,B,,,,,,Space,keypress(Space),,,,lyrical,,,,---- --------- ---------- - --- ------- -- --- ------------<br>----- -- wouldn't ------- ---- ------ - -------- ---- -----<br>--- ------- ---- -- --- -------- --- - ----- ------ ---- --<br>-------- --- -------- -------- --- -------- ---- -- ----- -<br>-------- ---- --- ---------- --------- -- ------- ------ -<br>--------- ----- -----,186469,186500,186025,186011,186042,186506,,11,wouldn't
screen,html.Screen,1_3_1_0_1_12,2021-04-13T13:33:30.251Z,,,,,,,,,,,,,,,,15,,,,,,,,,,,,,,1898,,response,,,,7,B,,,,,,Space,keypress(Space),,,,lyrical,,,,---- --------- ---------- - --- ------- -- --- ------------<br>----- -- -------- testify ---- ------ - -------- ---- -----<br>--- ------- ---- -- --- -------- --- - ----- ------ ---- --<br>-------- --- -------- -------- --- -------- ---- -- ----- -<br>-------- ---- --- ---------- --------- -- ------- ------ -<br>--------- ----- -----,188355,188388,186490,186469,186506,188386,,12,testify
screen,html.Screen,1_3_1_0_1_13,2021-04-13T13:33:30.806Z,,,,,,,,,,,,,,,,15,,,,,,,,,,,,,,570,,response,,,,7,B,,,,,,Space,keypress(Space),,,,lyrical,,,,---- --------- ---------- - --- ------- -- --- ------------<br>----- -- -------- ------- when ------ - -------- ---- -----<br>--- ------- ---- -- --- -------- --- - ----- ------ ---- --<br>-------- --- -------- -------- --- -------- ---- -- ----- -<br>-------- ---- --- ---------- --------- -- ------- ------ -<br>--------- ----- -----,188909,188940,188370,188355,188386,188952,,13,when
screen,html.Screen,1_3_1_0_1_14,2021-04-13T13:33:31.275Z,,,,,,,,,,,,,,,,15,,,,,,,,,,,,,,477,,response,,,,7,B,,,,,,Space,keypress(Space),,,,lyrical,,,,---- --------- ---------- - --- ------- -- --- ------------<br>----- -- -------- ------- ---- served - -------- ---- -----<br>--- ------- ---- -- --- -------- --- - ----- ------ ---- --<br>-------- --- -------- -------- --- -------- ---- -- ----- -<br>-------- ---- --- ---------- --------- -- ------- ------ -<br>--------- ----- -----,189378,189412,188935,188909,188952,189417,,14,served
screen,html.Screen,1_3_1_0_1_15,2021-04-13T13:33:31.709Z,,,,,,,,,,,,,,,,15,,,,,,,,,,,,,,444,,response,,,,7,B,,,,,,Space,keypress(Space),,,,lyrical,,,,---- --------- ---------- - --- ------- -- --- ------------<br>----- -- -------- ------- ---- ------ a -------- ---- -----<br>--- ------- ---- -- --- -------- --- - ----- ------ ---- --<br>-------- --- -------- -------- --- -------- ---- -- ----- -<br>-------- ---- --- ---------- --------- -- ------- ------ -<br>--------- ----- -----,189812,189844,189400,189379,189417,189849,,15,a
screen,html.Screen,1_3_1_0_1_16,2021-04-13T13:33:32.403Z,,,,,,,,,,,,,,,,15,,,,,,,,,,,,,,707,,response,,,,7,B,,,,,,Space,keypress(Space),,,,lyrical,,,,---- --------- ---------- - --- ------- -- --- ------------<br>----- -- -------- ------- ---- ------ - subpoena ---- -----<br>--- ------- ---- -- --- -------- --- - ----- ------ ---- --<br>-------- --- -------- -------- --- -------- ---- -- ----- -<br>-------- ---- --- ---------- --------- -- ------- ------ -<br>--------- ----- -----,190507,190540,189833,189813.00000000003,189849,190548,,16,subpoena
screen,html.Screen,1_3_1_0_1_17,2021-04-13T13:33:32.886Z,,,,,,,,,,,,,,,,15,,,,,,,,,,,,,,490,,response,,,,7,B,,,,,,Space,keypress(Space),,,,lyrical,,,,---- --------- ---------- - --- ------- -- --- ------------<br>----- -- -------- ------- ---- ------ - -------- last -----<br>--- ------- ---- -- --- -------- --- - ----- ------ ---- --<br>-------- --- -------- -------- --- -------- ---- -- ----- -<br>-------- ---- --- ---------- --------- -- ------- ------ -<br>--------- ----- -----,190989,191020,190530,190507,190548,191032,,17,last
screen,html.Screen,1_3_1_0_1_18,2021-04-13T13:33:33.443Z,,,,,,,,,,,,,,,,15,,,,,,,,,,,,,,567,,response,,,,7,B,,,,,,Space,keypress(Space),,,,lyrical,,,,---- --------- ---------- - --- ------- -- --- ------------<br>----- -- -------- ------- ---- ------ - -------- ---- week.<br>--- ------- ---- -- --- -------- --- - ----- ------ ---- --<br>-------- --- -------- -------- --- -------- ---- -- ----- -<br>-------- ---- --- ---------- --------- -- ------- ------ -<br>--------- ----- -----,191546,191580,191013,190989,191032,191578,,18,week.
screen,html.Screen,1_3_1_0_1_19,2021-04-13T13:33:34.022Z,,,,,,,,,,,,,,,,15,,,,,,,,,,,,,,594,,response,,,,7,B,,,,,,Space,keypress(Space),,,,lyrical,,,,---- --------- ---------- - --- ------- -- --- ------------<br>----- -- -------- ------- ---- ------ - -------- ---- -----<br>His ------- ---- -- --- -------- --- - ----- ------ ---- --<br>-------- --- -------- -------- --- -------- ---- -- ----- -<br>-------- ---- --- ---------- --------- -- ------- ------ -<br>--------- ----- -----,192125,192156,191562,191547,191578,192161,,19,His
screen,html.Screen,1_3_1_0_1_20,2021-04-13T13:33:34.355Z,,,,,,,,,,,,,,,,15,,,,,,,,,,,,,,348,,response,,,,7,B,,,,,,Space,keypress(Space),,,,lyrical,,,,---- --------- ---------- - --- ------- -- --- ------------<br>----- -- -------- ------- ---- ------ - -------- ---- -----<br>--- lawyers ---- -- --- -------- --- - ----- ------ ---- --<br>-------- --- -------- -------- --- -------- ---- -- ----- -<br>-------- ---- --- ---------- --------- -- ------- ------ -<br>--------- ----- -----,192458,192492,192144,192126,192161,192493,,20,lawyers
screen,html.Screen,1_3_1_0_1_21,2021-04-13T13:33:34.813Z,,,,,,,,,,,,,,,,15,,,,,,,,,,,,,,472,,response,,,,7,B,,,,,,Space,keypress(Space),,,,lyrical,,,,---- --------- ---------- - --- ------- -- --- ------------<br>----- -- -------- ------- ---- ------ - -------- ---- -----<br>--- ------- said -- --- -------- --- - ----- ------ ---- --<br>-------- --- -------- -------- --- -------- ---- -- ----- -<br>-------- ---- --- ---------- --------- -- ------- ------ -<br>--------- ----- -----,192917,192948,192476,192459,192493,192959,,21,said
screen,html.Screen,1_3_1_0_1_22,2021-04-13T13:33:35.115Z,,,,,,,,,,,,,,,,15,,,,,,,,,,,,,,310,,response,,,,7,B,,,,,,Space,keypress(Space),,,,lyrical,,,,---- --------- ---------- - --- ------- -- --- ------------<br>----- -- -------- ------- ---- ------ - -------- ---- -----<br>--- ------- ---- he --- -------- --- - ----- ------ ---- --<br>-------- --- -------- -------- --- -------- ---- -- ----- -<br>-------- ---- --- ---------- --------- -- ------- ------ -<br>--------- ----- -----,193218.00000000003,193252,192942,192917,192959,193241,,22,he
screen,html.Screen,1_3_1_0_1_23,2021-04-13T13:33:35.431Z,,,,,,,,,,,,,,,,15,,,,,,,,,,,,,,339,,response,,,,7,B,,,,,,Space,keypress(Space),,,,lyrical,,,,---- --------- ---------- - --- ------- -- --- ------------<br>----- -- -------- ------- ---- ------ - -------- ---- -----<br>--- ------- ---- -- was -------- --- - ----- ------ ---- --<br>-------- --- -------- -------- --- -------- ---- -- ----- -<br>-------- ---- --- ---------- --------- -- ------- ------ -<br>--------- ----- -----,193534,193564,193225,193219,193241,193557,,23,was
screen,html.Screen,1_3_1_0_1_24,2021-04-13T13:33:35.835Z,,,,,,,,,,,,,,,,15,,,,,,,,,,,,,,432,,response,,,,7,B,,,,,,Space,keypress(Space),,,,lyrical,,,,---- --------- ---------- - --- ------- -- --- ------------<br>----- -- -------- ------- ---- ------ - -------- ---- -----<br>--- ------- ---- -- --- prepared --- - ----- ------ ---- --<br>-------- --- -------- -------- --- -------- ---- -- ----- -<br>-------- ---- --- ---------- --------- -- ------- ------ -<br>--------- ----- -----,193939,193972,193540,193534,193557,193973,,24,prepared
screen,html.Screen,1_3_1_0_1_25,2021-04-13T13:33:36.222Z,,,,,,,,,,,,,,,,15,,,,,,,,,,,,,,399,,response,,,,7,B,,,,,,Space,keypress(Space),,,,lyrical,,,,---- --------- ---------- - --- ------- -- --- ------------<br>----- -- -------- ------- ---- ------ - -------- ---- -----<br>--- ------- ---- -- --- -------- for - ----- ------ ---- --<br>-------- --- -------- -------- --- -------- ---- -- ----- -<br>-------- ---- --- ---------- --------- -- ------- ------ -<br>--------- ----- -----,194325.00000000003,194356,193957,193939,193973,194355,,25,for
screen,html.Screen,1_3_1_0_1_26,2021-04-13T13:33:36.523Z,,,,,,,,,,,,,,,,15,,,,,,,,,,,,,,322,,response,,,,7,B,,,,,,Space,keypress(Space),,,,lyrical,,,,---- --------- ---------- - --- ------- -- --- ------------<br>----- -- -------- ------- ---- ------ - -------- ---- -----<br>--- ------- ---- -- --- -------- --- a ----- ------ ---- --<br>-------- --- -------- -------- --- -------- ---- -- ----- -<br>-------- ---- --- ---------- --------- -- ------- ------ -<br>--------- ----- -----,194626,194660,194338,194325.00000000003,194355,194655,,26,a
screen,html.Screen,1_3_1_0_1_27,2021-04-13T13:33:36.862Z,,,,,,,,,,,,,,,,15,,,,,,,,,,,,,,359,,response,,,,7,B,,,,,,Space,keypress(Space),,,,lyrical,,,,---- --------- ---------- - --- ------- -- --- ------------<br>----- -- -------- ------- ---- ------ - -------- ---- -----<br>--- ------- ---- -- --- -------- --- - third ------ ---- --<br>-------- --- -------- -------- --- -------- ---- -- ----- -<br>-------- ---- --- ---------- --------- -- ------- ------ -<br>--------- ----- -----,194965,194996,194637,194627,194655,194986,,27,third
screen,html.Screen,1_3_1_0_1_28,2021-04-13T13:33:37.339Z,,,,,,,,,,,,,,,,15,,,,,,,,,,,,,,506,,response,,,,7,B,,,,,,Space,keypress(Space),,,,lyrical,,,,---- --------- ---------- - --- ------- -- --- ------------<br>----- -- -------- ------- ---- ------ - -------- ---- -----<br>--- ------- ---- -- --- -------- --- - ----- prison ---- --<br>-------- --- -------- -------- --- -------- ---- -- ----- -<br>-------- ---- --- ---------- --------- -- ------- ------ -<br>--------- ----- -----,195442,195476,194970,194965,194986,195469,,28,prison
screen,html.Screen,1_3_1_0_1_29,2021-04-13T13:33:37.831Z,,,,,,,,,,,,,,,,15,,,,,,,,,,,,,,511,,response,,,,7,B,,,,,,Space,keypress(Space),,,,lyrical,,,,---- --------- ---------- - --- ------- -- --- ------------<br>----- -- -------- ------- ---- ------ - -------- ---- -----<br>--- ------- ---- -- --- -------- --- - ----- ------ stay --<br>-------- --- -------- -------- --- -------- ---- -- ----- -<br>-------- ---- --- ---------- --------- -- ------- ------ -<br>--------- ----- -----,195934,195964,195453,195442,195469,195968,,29,stay
screen,html.Screen,1_3_1_0_1_30,2021-04-13T13:33:38.251Z,,,,,,,,,,,,,,,,15,,,,,,,,,,,,,,437,,response,,,,7,B,,,,,,Space,keypress(Space),,,,lyrical,,,,---- --------- ---------- - --- ------- -- --- ------------<br>----- -- -------- ------- ---- ------ - -------- ---- -----<br>--- ------- ---- -- --- -------- --- - ----- ------ ---- to<br>-------- --- -------- -------- --- -------- ---- -- ----- -<br>-------- ---- --- ---------- --------- -- ------- ------ -<br>--------- ----- -----,196355.00000000003,196388,195951,195934,195968,196384,,30,to
screen,html.Screen,1_3_1_0_1_31,2021-04-13T13:33:38.726Z,,,,,,,,,,,,,,,,15,,,,,,,,,,,,,,493,,response,,,,7,B,,,,,,Space,keypress(Space),,,,lyrical,,,,---- --------- ---------- - --- ------- -- --- ------------<br>----- -- -------- ------- ---- ------ - -------- ---- -----<br>--- ------- ---- -- --- -------- --- - ----- ------ ---- --<br>maintain --- -------- -------- --- -------- ---- -- ----- -<br>-------- ---- --- ---------- --------- -- ------- ------ -<br>--------- ----- -----,196829,196860,196367,196355.00000000003,196384,196866,,31,maintain
screen,html.Screen,1_3_1_0_1_32,2021-04-13T13:33:39.075Z,,,,,,,,,,,,,,,,15,,,,,,,,,,,,,,362.0000000000291,,response,,,,7,B,,,,,,Space,keypress(Space),,,,lyrical,,,,---- --------- ---------- - --- ------- -- --- ------------<br>----- -- -------- ------- ---- ------ - -------- ---- -----<br>--- ------- ---- -- --- -------- --- - ----- ------ ---- --<br>-------- his -------- -------- --- -------- ---- -- ----- -<br>-------- ---- --- ---------- --------- -- ------- ------ -<br>--------- ----- -----,197179,197212.00000000003,196850,196829,196866,197199,,32,his
screen,html.Screen,1_3_1_0_1_33,2021-04-13T13:33:39.461Z,,,,,,,,,,,,,,,,15,,,,,,,,,,,,,,415,,response,,,,7,B,,,,,,Space,keypress(Space),,,,lyrical,,,,---- --------- ---------- - --- ------- -- --- ------------<br>----- -- -------- ------- ---- ------ - -------- ---- -----<br>--- ------- ---- -- --- -------- --- - ----- ------ ---- --<br>-------- --- silence. -------- --- -------- ---- -- ----- -<br>-------- ---- --- ---------- --------- -- ------- ------ -<br>--------- ----- -----,197565,197596,197181,197179,197199,197597,,33,silence.
screen,html.Screen,1_3_1_0_1_34,2021-04-13T13:33:39.867Z,,,,,,,,,,,,,,,,15,,,,,,,,,,,,,,423,,response,,,,7,B,,,,,,Space,keypress(Space),,,,lyrical,,,,---- --------- ---------- - --- ------- -- --- ------------<br>----- -- -------- ------- ---- ------ - -------- ---- -----<br>--- ------- ---- -- --- -------- --- - ----- ------ ---- --<br>-------- --- -------- Anderson --- -------- ---- -- ----- -<br>-------- ---- --- ---------- --------- -- ------- ------ -<br>--------- ----- -----,197971,198004,197581,197565,197597,198013,,34,Anderson
screen,html.Screen,1_3_1_0_1_35,2021-04-13T13:33:40.262Z,,,,,,,,,,,,,,,,15,,,,,,,,,,,,,,399.0000000000291,,response,,,,7,B,,,,,,Space,keypress(Space),,,,lyrical,,,,---- --------- ---------- - --- ------- -- --- ------------<br>----- -- -------- ------- ---- ------ - -------- ---- -----<br>--- ------- ---- -- --- -------- --- - ----- ------ ---- --<br>-------- --- -------- -------- was -------- ---- -- ----- -<br>-------- ---- --- ---------- --------- -- ------- ------ -<br>--------- ----- -----,198365,198396.00000000003,197997,197971,198013,198396,,35,was
screen,html.Screen,1_3_1_0_1_36,2021-04-13T13:33:40.619Z,,,,,,,,,,,,,,,,15,,,,,,,,,,,,,,377,,response,,,,7,B,,,,,,Space,keypress(Space),,,,lyrical,,,,---- --------- ---------- - --- ------- -- --- ------------<br>----- -- -------- ------- ---- ------ - -------- ---- -----<br>--- ------- ---- -- --- -------- --- - ----- ------ ---- --<br>-------- --- -------- -------- --- released ---- -- ----- -<br>-------- ---- --- ---------- --------- -- ------- ------ -<br>--------- ----- -----,198723,198756,198379,198365,198396,198745,,36,released
screen,html.Screen,1_3_1_0_1_37,2021-04-13T13:33:41.013Z,,,,,,,,,,,,,,,,15,,,,,,,,,,,,,,421,,response,,,,7,B,,,,,,Space,keypress(Space),,,,lyrical,,,,---- --------- ---------- - --- ------- -- --- ------------<br>----- -- -------- ------- ---- ------ - -------- ---- -----<br>--- ------- ---- -- --- -------- --- - ----- ------ ---- --<br>-------- --- -------- -------- --- -------- July -- ----- -<br>-------- ---- --- ---------- --------- -- ------- ------ -<br>--------- ----- -----,199117,199148,198727,198723,198745,199144,,37,July
screen,html.Screen,1_3_1_0_1_38,2021-04-13T13:33:41.355Z,,,,,,,,,,,,,,,,15,,,,,,,,,,,,,,364,,response,,,,7,B,,,,,,Space,keypress(Space),,,,lyrical,,,,---- --------- ---------- - --- ------- -- --- ------------<br>----- -- -------- ------- ---- ------ - -------- ---- -----<br>--- ------- ---- -- --- -------- --- - ----- ------ ---- --<br>-------- --- -------- -------- --- -------- ---- 20 ----- -<br>-------- ---- --- ---------- --------- -- ------- ------ -<br>--------- ----- -----,199458,199492,199128,199117,199144,199477,,38,20
screen,html.Screen,1_3_1_0_1_39,2021-04-13T13:33:41.678Z,,,,,,,,,,,,,,,,15,,,,,,,,,,,,,,352,,response,,,,7,B,,,,,,Space,keypress(Space),,,,lyrical,,,,---- --------- ---------- - --- ------- -- --- ------------<br>----- -- -------- ------- ---- ------ - -------- ---- -----<br>--- ------- ---- -- --- -------- --- - ----- ------ ---- --<br>-------- --- -------- -------- --- -------- ---- -- after -<br>-------- ---- --- ---------- --------- -- ------- ------ -<br>--------- ----- -----,199781,199812,199460,199459,199477,199808,,39,after
screen,html.Screen,1_3_1_0_1_40,2021-04-13T13:33:42.091Z,,,,,,,,,,,,,,,,15,,,,,,,,,,,,,,436,,response,,,,7,B,,,,,,Space,keypress(Space),,,,lyrical,,,,---- --------- ---------- - --- ------- -- --- ------------<br>----- -- -------- ------- ---- ------ - -------- ---- -----<br>--- ------- ---- -- --- -------- --- - ----- ------ ---- --<br>-------- --- -------- -------- --- -------- ---- -- ----- a<br>-------- ---- --- ---------- --------- -- ------- ------ -<br>--------- ----- -----,200195,200228,199792,199782,199808,200225,,40,a
screen,html.Screen,1_3_1_0_1_41,2021-04-13T13:33:42.470Z,,,,,,,,,,,,,,,,15,,,,,,,,,,,,,,397,,response,,,,7,B,,,,,,Space,keypress(Space),,,,lyrical,,,,---- --------- ---------- - --- ------- -- --- ------------<br>----- -- -------- ------- ---- ------ - -------- ---- -----<br>--- ------- ---- -- --- -------- --- - ----- ------ ---- --<br>-------- --- -------- -------- --- -------- ---- -- ----- -<br>two-week ---- --- ---------- --------- -- ------- ------ -<br>--------- ----- -----,200573,200604,200207,200195,200225,200607,,41,two-week
screen,html.Screen,1_3_1_0_1_42,2021-04-13T13:33:42.899Z,,,,,,,,,,,,,,,,15,,,,,,,,,,,,,,445,,response,,,,7,B,,,,,,Space,keypress(Space),,,,lyrical,,,,---- --------- ---------- - --- ------- -- --- ------------<br>----- -- -------- ------- ---- ------ - -------- ---- -----<br>--- ------- ---- -- --- -------- --- - ----- ------ ---- --<br>-------- --- -------- -------- --- -------- ---- -- ----- -<br>-------- stay --- ---------- --------- -- ------- ------ -<br>--------- ----- -----,201003,201036,200591,200573,200607,201040,,42,stay
screen,html.Screen,1_3_1_0_1_43,2021-04-13T13:33:43.381Z,,,,,,,,,,,,,,,,15,,,,,,,,,,,,,,493,,response,,,,7,B,,,,,,Space,keypress(Space),,,,lyrical,,,,---- --------- ---------- - --- ------- -- --- ------------<br>----- -- -------- ------- ---- ------ - -------- ---- -----<br>--- ------- ---- -- --- -------- --- - ----- ------ ---- --<br>-------- --- -------- -------- --- -------- ---- -- ----- -<br>-------- ---- for ---------- --------- -- ------- ------ -<br>--------- ----- -----,201485,201516,201023,201003,201040,201521,,43,for
screen,html.Screen,1_3_1_0_1_44,2021-04-13T13:33:43.963Z,,,,,,,,,,,,,,,,15,,,,,,,,,,,,,,595,,response,,,,7,B,,,,,,Space,keypress(Space),,,,lyrical,,,,---- --------- ---------- - --- ------- -- --- ------------<br>----- -- -------- ------- ---- ------ - -------- ---- -----<br>--- ------- ---- -- --- -------- --- - ----- ------ ---- --<br>-------- --- -------- -------- --- -------- ---- -- ----- -<br>-------- ---- --- previously --------- -- ------- ------ -<br>--------- ----- -----,202067,202100,201505,201485,201521,202104,,44,previously
screen,html.Screen,1_3_1_0_1_45,2021-04-13T13:33:44.462Z,,,,,,,,,,,,,,,,15,,,,,,,,,,,,,,510,,response,,,,7,B,,,,,,Space,keypress(Space),,,,lyrical,,,,---- --------- ---------- - --- ------- -- --- ------------<br>----- -- -------- ------- ---- ------ - -------- ---- -----<br>--- ------- ---- -- --- -------- --- - ----- ------ ---- --<br>-------- --- -------- -------- --- -------- ---- -- ----- -<br>-------- ---- --- ---------- declining -- ------- ------ -<br>--------- ----- -----,202566,202596,202086,202067,202104,202602,,45,declining
screen,html.Screen,1_3_1_0_1_46,2021-04-13T13:33:44.907Z,,,,,,,,,,,,,,,,15,,,,,,,,,,,,,,458,,response,,,,7,B,,,,,,Space,keypress(Space),,,,lyrical,,,,---- --------- ---------- - --- ------- -- --- ------------<br>----- -- -------- ------- ---- ------ - -------- ---- -----<br>--- ------- ---- -- --- -------- --- - ----- ------ ---- --<br>-------- --- -------- -------- --- -------- ---- -- ----- -<br>-------- ---- --- ---------- --------- to ------- ------ -<br>--------- ----- -----,203010,203044,202586,202566,202602,203051,,46,to
screen,html.Screen,1_3_1_0_1_47,2021-04-13T13:33:45.270Z,,,,,,,,,,,,,,,,15,,,,,,,,,,,,,,370,,response,,,,7,B,,,,,,Space,keypress(Space),,,,lyrical,,,,---- --------- ---------- - --- ------- -- --- ------------<br>----- -- -------- ------- ---- ------ - -------- ---- -----<br>--- ------- ---- -- --- -------- --- - ----- ------ ---- --<br>-------- --- -------- -------- --- -------- ---- -- ----- -<br>-------- ---- --- ---------- --------- -- testify ------ -<br>--------- ----- -----,203373,203404,203034,203011,203051,203401,,47,testify
screen,html.Screen,1_3_1_0_1_48,2021-04-13T13:33:45.723Z,,,,,,,,,,,,,,,,15,,,,,,,,,,,,,,476,,response,,,,7,B,,,,,,Space,keypress(Space),,,,lyrical,,,,---- --------- ---------- - --- ------- -- --- ------------<br>----- -- -------- ------- ---- ------ - -------- ---- -----<br>--- ------- ---- -- --- -------- --- - ----- ------ ---- --<br>-------- --- -------- -------- --- -------- ---- -- ----- -<br>-------- ---- --- ---------- --------- -- ------- before -<br>--------- ----- -----,203826,203860,203384,203373,203401,203866,,48,before
screen,html.Screen,1_3_1_0_1_49,2021-04-13T13:33:46.317Z,,,,,,,,,,,,,,,,15,,,,,,,,,,,,,,602,,response,,,,7,B,,,,,,Space,keypress(Space),,,,lyrical,,,,---- --------- ---------- - --- ------- -- --- ------------<br>----- -- -------- ------- ---- ------ - -------- ---- -----<br>--- ------- ---- -- --- -------- --- - ----- ------ ---- --<br>-------- --- -------- -------- --- -------- ---- -- ----- -<br>-------- ---- --- ---------- --------- -- ------- ------ a<br>--------- ----- -----,204421,204452,203850,203826,203866,204447,,49,a
screen,html.Screen,1_3_1_0_1_50,2021-04-13T13:33:46.819Z,,,,,,,,,,,,,,,,15,,,,,,,,,,,,,,524.0000000000291,,response,,,,7,B,,,,,,Space,keypress(Space),,,,lyrical,,,,---- --------- ---------- - --- ------- -- --- ------------<br>----- -- -------- ------- ---- ------ - -------- ---- -----<br>--- ------- ---- -- --- -------- --- - ----- ------ ---- --<br>-------- --- -------- -------- --- -------- ---- -- ----- -<br>-------- ---- --- ---------- --------- -- ------- ------ -<br>different ----- -----,204922,204956.00000000003,204432,204421,204447,204964,,50,different
screen,html.Screen,1_3_1_0_1_51,2021-04-13T13:33:47.125Z,,,,,,,,,,,,,,,,15,,,,,,,,,,,,,,314,,response,,,,7,B,,,,,,Space,keypress(Space),,,,lyrical,,,,---- --------- ---------- - --- ------- -- --- ------------<br>----- -- -------- ------- ---- ------ - -------- ---- -----<br>--- ------- ---- -- --- -------- --- - ----- ------ ---- --<br>-------- --- -------- -------- --- -------- ---- -- ----- -<br>-------- ---- --- ---------- --------- -- ------- ------ -<br>--------- grand -----,205229,205260,204946,204922,204964,205262,,51,grand
screen,html.Screen,1_3_1_0_1_52,2021-04-13T13:33:47.531Z,,,,,,,,,,,,,,,,15,,,,,,,,,,,,,,422,,response,,,,7,B,,,,,,Space,keypress(Space),,,,lyrical,,,,---- --------- ---------- - --- ------- -- --- ------------<br>----- -- -------- ------- ---- ------ - -------- ---- -----<br>--- ------- ---- -- --- -------- --- - ----- ------ ---- --<br>-------- --- -------- -------- --- -------- ---- -- ----- -<br>-------- ---- --- ---------- --------- -- ------- ------ -<br>--------- ----- jury.,205634,205668,205246,205229,205262,205662,,52,jury.
Item 7,flow.Loop,1_3_1_0_1,2021-04-13T13:33:47.531Z,,,,,,,,,,,,,,,,,,,,,,,,,,,,,,29885,,completion,,,,,,,,,,,,,,,,,,,,,205635,205668,175766,175767,175783,205662,,,
Question 1,html.Screen,1_3_1_0_2,2021-04-13T13:33:49.632Z,,,,,,,,,,,,,,,,,,,,,,,,,,,false,FALSE,,2126.000000000029,,response,,,,7,B,,,,,,TRUE,click #choice-1,,,,lyrical,,,,,207736.00000000003,207771.00000000003,205645,205635,205662,207757,,,
Question 2,html.Screen,1_3_1_0_3,2021-04-13T13:33:51.439Z,,,,,,,,,,,,,,,,,,,,,,,,,,,true,TRUE,,1837,,response,,,,7,B,,,,,,TRUE,click #choice-1,,,,lyrical,,,,,209542,209577,207740,207736.00000000003,207757,209570,,,
Item 7,flow.Sequence,1_3_1_0,2021-04-13T13:33:51.439Z,,,,,,,,,,,,,,,,,,,,,,,,,,,,,,40795,,completion,,,,,,,,,,,,,,,,,,,,,209543,209577,168765,168766,168782,209570,,,
Holding screen,html.Screen,1_3_1_1_0,2021-04-13T13:33:58.449Z,,,,,,,,,,,,,,,,,,,,,,,,,,,,,,7000,,timeout,,,,,,,,,,,,,,,,,,,,,216553,216552,209553,209543,209570,216570,,,
screen,html.Screen,1_3_1_1_1_0,2021-04-13T13:34:01.409Z,,,,,,,,,,,,,,,,11,,,,,,,,,,,,,,2988,,response,,,,4,B,,,,,,Space,keypress(Space),,,,lyrical,,,,Known -- ---- --- -- --- -------- ------------ ---------- --<br>- ------- ------ --------- -- ------------ -- --- ---- -----<br>------ ---- ---- ------ ------ ------- --- ----- ---------<br>---- --- -------- -------- --- --- -- ------- --- --- -----<br>-- --- ------ ------- --- --- -------- ---- --------- --<br>---------- -- -------- ----------------,219513,219540,216552,216553,216570,219546,,0,Known
screen,html.Screen,1_3_1_1_1_1,2021-04-13T13:34:01.938Z,,,,,,,,,,,,,,,,11,,,,,,,,,,,,,,548,,response,,,,4,B,,,,,,Space,keypress(Space),,,,lyrical,,,,----- as ---- --- -- --- -------- ------------ ---------- --<br>- ------- ------ --------- -- ------------ -- --- ---- -----<br>------ ---- ---- ------ ------ ------- --- ----- ---------<br>---- --- -------- -------- --- --- -- ------- --- --- -----<br>-- --- ------ ------- --- --- -------- ---- --------- --<br>---------- -- -------- ----------------,220042,220076,219528,219513,219546,220078,,1,as
screen,html.Screen,1_3_1_1_1_2,2021-04-13T13:34:02.813Z,,,,,,,,,,,,,,,,11,,,,,,,,,,,,,,887,,response,,,,4,B,,,,,,Space,keypress(Space),,,,lyrical,,,,----- -- Rapa --- -- --- -------- ------------ ---------- --<br>- ------- ------ --------- -- ------------ -- --- ---- -----<br>------ ---- ---- ------ ------ ------- --- ----- ---------<br>---- --- -------- -------- --- --- -- ------- --- --- -----<br>-- --- ------ ------- --- --- -------- ---- --------- --<br>---------- -- -------- ----------------,220917,220948,220061,220043,220078,220959,,2,Rapa
screen,html.Screen,1_3_1_1_1_3,2021-04-13T13:34:03.322Z,,,,,,,,,,,,,,,,11,,,,,,,,,,,,,,517,,response,,,,4,B,,,,,,Space,keypress(Space),,,,lyrical,,,,----- -- ---- Nui -- --- -------- ------------ ---------- --<br>- ------- ------ --------- -- ------------ -- --- ---- -----<br>------ ---- ---- ------ ------ ------- --- ----- ---------<br>---- --- -------- -------- --- --- -- ------- --- --- -----<br>-- --- ------ ------- --- --- -------- ---- --------- --<br>---------- -- -------- ----------------,221426.00000000003,221460,220943,220917,220959,221458,,3,Nui
screen,html.Screen,1_3_1_1_1_4,2021-04-13T13:34:03.886Z,,,,,,,,,,,,,,,,11,,,,,,,,,,,,,,578,,response,,,,4,B,,,,,,Space,keypress(Space),,,,lyrical,,,,----- -- ---- --- to --- -------- ------------ ---------- --<br>- ------- ------ --------- -- ------------ -- --- ---- -----<br>------ ---- ---- ------ ------ ------- --- ----- ---------<br>---- --- -------- -------- --- --- -- ------- --- --- -----<br>-- --- ------ ------- --- --- -------- ---- --------- --<br>---------- -- -------- ----------------,221990,222020,221442,221426.00000000003,221458,222024,,4,to
