sender,sender_type,sender_id,timestamp,meta,,Blues,Classical,Country,Dance,Electronic,Folk,Gospel,Hip-Hop,Jazz,Latin,Musical/Film,New-age,Pop,Provo_ID,R&B,Rap,Reggae,Religious,Rock,Soul,Swing,Traditional,age,artist_name,correct,correctResponse,distraction,duration,education,ended_on,familiarity,gender,headphone_check_performance,item,list,music_frequency,offensiveness,pleasantness,position_correct,preference,response,response_action,snippet_file,song_name,song_rating,sound,stimulus_1,stimulus_2,stimulus_3,text,time_commit,time_end,time_render,time_run,time_show,time_switch,url,word,word_ID
Introduction,html.Screen,0_0,2021-04-18T14:11:09.782Z,"{""labjs_version"":""20.2.2"",""labjs_build"":{""flavor"":""production"",""commit"":""a25486e0c714a0ae2ce03ff94b7bb6896854dcfa""},""location"":""https://run.pavlovia.org/mvasilev/music_f/"",""userAgent"":""Mozilla/5.0 (Windows NT 10.0; Win64; x64) AppleWebKit/537.36 (KHTML, like Gecko) Chrome/89.0.4389.128 Safari/537.36"",""platform"":""Win32"",""language"":""en-GB"",""locale"":""en-GB"",""timeZone"":""Europe/London"",""timezoneOffset"":-60,""screen_width"":1536,""screen_height"":864,""scroll_width"":1536,""scroll_height"":674,""window_innerWidth"":1536,""window_innerHeight"":722,""devicePixelRatio"":1.25}",,,,,,,,,,,,,,,,,,,,,,,,,,,,,5369.086000000052,,response,,,,,,,,,,,continue,click button,,,,,,,,,18535.235000000284,18532.670000000053,13130.263,13136.720000000423,13163.584,18561.011,{},,
Volume calibration,html.Screen,0_1,2021-04-18T14:11:37.599Z,,,,,,,,,,,,,,,,,,,,,,,,,,,,,,27786.789000000004,,response,,,,,,,,,,,continue,click button,,,,,,,,,46352.00000000032,46347.8,18544.385,18535.71000000011,18561.011,46356.318,,,
Task instructions,html.Screen,0_2,2021-04-18T14:11:56.131Z,,,,,,,,,,,,,,,,,,,,,,,,,,,,,,18531.042000000176,,response,,,,,,,,,,,continue,click button,,,,,,,,,64888.9250000002,64887.360000000175,46340.129,46352.250000000364,46356.318,64914.485,,,
Sounds,html.Screen,0_3_0_0,2021-04-18T14:12:00.395Z,,,,,,,,,,,,,,,,,,,,,,,,,,,,,,4250.923999999999,,timeout,,,,,,,,,1,,,,,,,,S,O,I,,69152.89500000016,69149.455,64897.506,64889.25500000005,64914.485,69165.409,,,
Judgement,html.Screen,0_3_0_1,2021-04-18T14:12:01.743Z,,,,,,,,,,,,,,,,,,,,,,,,,,,true,1,,1334.4860000003828,,response,,,,,,,,,1,,1,click #choice-1,,,,,S,O,I,,70501.26500000033,70499.89500000038,69149.455,69153.15500000042,69165.409,70502.146,,,
Trial,flow.Sequence,0_3_0,2021-04-18T14:12:01.744Z,,,,,,,,,,,,,,,,,,,,,,,,,,,,,,5585.410000000382,,completion,,,,,,,,,1,,,,,,,,S,O,I,,70501.75500000024,70499.89500000038,64897.506,64889.17500000025,64914.485,70502.146,,,
Sounds,html.Screen,0_3_1_0,2021-04-18T14:12:05.984Z,,,,,,,,,,,,,,,,,,,,,,,,,,,,,,4256.202000000005,,timeout,,,,,,,,,1,,,,,,,,S,I,O,,74742.63500000007,74741.834,70485.801,70501.97500000012,70502.146,74758.348,,,
Judgement,html.Screen,0_3_1_1,2021-04-18T14:12:07.153Z,,,,,,,,,,,,,,,,,,,,,,,,,,,true,1,,1151.127000000386,,response,,,,,,,,,1,,1,click #choice-1,,,,,S,I,O,,75910.77500000029,75909.47500000038,74741.834,74742.81000000019,74758.348,75916.028,,,
Trial,flow.Sequence,0_3_1,2021-04-18T14:12:07.153Z,,,,,,,,,,,,,,,,,,,,,,,,,,,,,,5407.329000000391,,completion,,,,,,,,,1,,,,,,,,S,I,O,,75911.06500000024,75909.47500000038,70485.801,70501.92000000016,70502.146,75916.028,,,
Sounds,html.Screen,0_3_2_0,2021-04-18T14:12:11.391Z,,,,,,,,,,,,,,,,,,,,,,,,,,,,,,4248.050999999992,,timeout,,,,,,,,,3,,,,,,,,I,O,S,,80149.17500000002,80147.803,75894.747,75911.27500000039,75916.028,80164.079,,,
Judgement,html.Screen,0_3_2_1,2021-04-18T14:12:12.342Z,,,,,,,,,,,,,,,,,,,,,,,,,,,true,3,,934.2760000000853,,response,,,,,,,,,3,,3,click #choice-3,,,,,I,O,S,,81099.73500000023,81098.35500000008,80147.803,80149.37000000008,80164.079,81104.222,,,
Trial,flow.Sequence,0_3_2,2021-04-18T14:12:12.342Z,,,,,,,,,,,,,,,,,,,,,,,,,,,,,,5182.3270000000775,,completion,,,,,,,,,3,,,,,,,,I,O,S,,81100.01000000011,81098.35500000008,75894.747,75911.21500000008,75916.028,81104.222,,,
Sounds,html.Screen,0_3_3_0,2021-04-18T14:12:16.579Z,,,,,,,,,,,,,,,,,,,,,,,,,,,,,,4248.578000000009,,timeout,,,,,,,,,3,,,,,,,,O,I,S,,85336.87500000042,85336.073,81098.293,81100.20000000032,81104.222,85352.8,,,
Judgement,html.Screen,0_3_3_1,2021-04-18T14:12:17.286Z,,,,,,,,,,,,,,,,,,,,,,,,,,,true,3,,689.7850000001345,,response,,,,,,,,,3,,3,click #choice-3,,,,,O,I,S,,86044.03000000003,86042.58500000014,85336.073,85337.05000000009,85352.8,86048.391,,,
Trial,flow.Sequence,0_3_3,2021-04-18T14:12:17.286Z,,,,,,,,,,,,,,,,,,,,,,,,,,,,,,4938.363000000143,,completion,,,,,,,,,3,,,,,,,,O,I,S,,86044.31000000023,86042.58500000014,81098.293,81100.13500000014,81104.222,86048.391,,,
Sounds,html.Screen,0_3_4_0,2021-04-18T14:12:21.523Z,,,,,,,,,,,,,,,,,,,,,,,,,,,,,,4248.080999999991,,timeout,,,,,,,,,2,,,,,,,,I,S,O,,90281.34000000046,90279.811,86041.721,86044.48000000003,86048.391,90296.472,,,
Judgement,html.Screen,0_3_4_1,2021-04-18T14:12:22.232Z,,,,,,,,,,,,,,,,,,,,,,,,,,,true,2,,693.0180000003893,,response,,,,,,,,,2,,2,click #choice-2,,,,,I,S,O,,90990.66000000038,90989.49000000038,90279.811,90281.51000000026,90296.472,90995.304,,,
Trial,flow.Sequence,0_3_4,2021-04-18T14:12:22.233Z,,,,,,,,,,,,,,,,,,,,,,,,,,,,,,4941.09900000038,,completion,,,,,,,,,2,,,,,,,,I,S,O,,90990.96500000042,90989.49000000038,86041.721,86044.43500000025,86048.391,90995.304,,,
Sounds,html.Screen,0_3_5_0,2021-04-18T14:12:26.472Z,,,,,,,,,,,,,,,,,,,,,,,,,,,,,,4250.216,,timeout,,,,,,,,,2,,,,,,,,O,S,I,,95230.2450000002,95229.291,90979.605,90991.13000000034,90995.304,95245.52,,,
Judgement,html.Screen,0_3_5_1,2021-04-18T14:12:27.173Z,,,,,,,,,,,,,,,,,,,,,,,,,,,true,2,,684.0350000001636,,response,,,,,,,,,2,,2,click #choice-2,,,,,O,S,I,,95931.03000000019,95929.55500000017,95229.291,95230.41000000012,95245.52,95935.434,,,
Trial,flow.Sequence,0_3_5,2021-04-18T14:12:27.173Z,,,,,,,,,,,,,,,,,,,,,,,,,,,,,,4934.251000000164,,completion,,,,,,,,,2,,,,,,,,O,S,I,,95931.28000000025,95929.55500000017,90979.605,90991.08000000023,90995.304,95935.434,,,
Task,flow.Loop,0_3,2021-04-18T14:12:27.179Z,,,,,,,,,,,,,,,,,,,,,,,,,,,,,,31015.070000000167,,completion,,,1,,,,,,,,,,,,,,,,,,95937.65500000017,95929.55500000017,64897.506,64889.1050000002,64914.485,95935.434,,,
Trap,html.Screen,0_4,2021-04-18T14:12:27.182Z,,,,,,,,,,,,,,,,,,,,,,,,,,,,,,NaN,,skipped,,,,,,,,,,,,,,,,,,,,,95939.75000000047,95929.55500000017,,95939.50000000041,,95935.434,,,
Thanks,html.Screen,0_5,2021-04-18T14:12:31.614Z,,,,,,,,,,,,,,,,,,,,,,,,,,,,,,4435.711000000083,,response,,,,,,,,,,,continue,click button,,,,,,,,,100372.28500000038,100371.14500000008,95928.756,95939.9400000002,95935.434,116617.483,,,
Headphone screening,flow.Sequence,0,2021-04-18T14:12:31.614Z,,,,,,,,,,,,,,,,,,,,,,,,,,,,,,87207.56100000007,,completion,,,,,,,,,,,,,,,,,,,,,100372.6300000003,100371.14500000008,13130.263,13136.695000000145,13163.584,116617.483,,,
Instructions,html.Page,1_0,2021-04-18T14:13:16.287Z,,,,,,,,,,,,,,,,,,,,,,,,,,,,,,28423.662000000142,,form submission,,,,,,,,,,,,,,,,,,,,,145041.50500000015,145041.14500000014,116600.781,116619.50500000012,116617.483,145042.557,,,
Holding screen,html.Screen,1_1_0_0,2021-04-18T14:13:26.274Z,,,,,,,,,,,,,,,,,,,,,,,,,,,,,,10060.597999999998,,timeout,,,,,,,,,,,,,,,,,,,,,155028.2100000004,155019.741,145026.508,145041.83500000046,145042.557,155103.155,,,
screen,html.Screen,1_1_0_1_0,2021-04-18T14:13:27.190Z,,,,,,,,,,,,,,,,53,,,,,,,,,,,,,,837.1750000003667,,response,,,,99,,,,,,,Space,keypress(Space),,,,,,,,When -- ----- -- ------ - ------- --- ----------<br>------------- ------ ------ ---- ---- ------- ----- -- ----<br>-------- ------- -- ---------- --- - --- ----- ----- ----<br>---- --- --- ----- --- ---- ---- ------- ----- ---- -------<br>--- --- -- ----- -- --- ---- -- --- ---- -- ------ ------<br>--- ----- -- ----,155944.02000000037,155940.33000000037,155019.741,155028.4800000004,155103.155,155947.106,,0,When
screen,html.Screen,1_1_0_1_1,2021-04-18T14:13:27.873Z,,,,,,,,,,,,,,,,53,,,,,,,,,,,,,,679.9190000002272,,response,,,,99,,,,,,,Space,keypress(Space),,,,,,,,---- it ----- -- ------ - ------- --- ----------<br>------------- ------ ------ ---- ---- ------- ----- -- ----<br>-------- ------- -- ---------- --- - --- ----- ----- ----<br>---- --- --- ----- --- ---- ---- ------- ----- ---- -------<br>--- --- -- ----- -- --- ---- -- --- ---- -- ------ ------<br>--- ----- -- ----,156627.88000000047,156627.02500000023,155936.546,155944.22000000032,155947.106,156635.096,,1,it
screen,html.Screen,1_1_0_1_2,2021-04-18T14:13:28.443Z,,,,,,,,,,,,,,,,53,,,,,,,,,,,,,,561.2440000004426,,response,,,,99,,,,,,,Space,keypress(Space),,,,,,,,---- -- comes -- ------ - ------- --- ----------<br>------------- ------ ------ ---- ---- ------- ----- -- ----<br>-------- ------- -- ---------- --- - --- ----- ----- ----<br>---- --- --- ----- --- ---- ---- ------- ----- ---- -------<br>--- --- -- ----- -- --- ---- -- --- ---- -- ------ ------<br>--- ----- -- ----,157197.2050000004,157196.34000000043,156614.233,156628.03500000018,156635.096,157203.869,,2,comes
screen,html.Screen,1_1_0_1_3,2021-04-18T14:13:28.841Z,,,,,,,,,,,,,,,,53,,,,,,,,,,,,,,391.0410000002594,,response,,,,99,,,,,,,Space,keypress(Space),,,,,,,,---- -- ----- to ------ - ------- --- ----------<br>------------- ------ ------ ---- ---- ------- ----- -- ----<br>-------- ------- -- ---------- --- - --- ----- ----- ----<br>---- --- --- ----- --- ---- ---- ------- ----- ---- -------<br>--- --- -- ----- -- --- ---- -- --- ---- -- ------ ------<br>--- ----- -- ----,157595.71000000005,157594.91000000027,157185.024,157197.36500000046,157203.869,157602.382,,3,to
screen,html.Screen,1_1_0_1_4,2021-04-18T14:13:29.272Z,,,,,,,,,,,,,,,,53,,,,,,,,,,,,,,422.73800000021583,,response,,,,99,,,,,,,Space,keypress(Space),,,,,,,,---- -- ----- -- having - ------- --- ----------<br>------------- ------ ------ ---- ---- ------- ----- -- ----<br>-------- ------- -- ---------- --- - --- ----- ----- ----<br>---- --- --- ----- --- ---- ---- ------- ----- ---- -------<br>--- --- -- ----- -- --- ---- -- --- ---- -- ------ ------<br>--- ----- -- ----,158025.93000000025,158025.12000000023,157587.76,157595.87500000044,157602.382,158032.647,,4,having
screen,html.Screen,1_1_0_1_5,2021-04-18T14:13:29.655Z,,,,,,,,,,,,,,,,53,,,,,,,,,,,,,,375.7530000002589,,response,,,,99,,,,,,,Space,keypress(Space),,,,,,,,---- -- ----- -- ------ a ------- --- ----------<br>------------- ------ ------ ---- ---- ------- ----- -- ----<br>-------- ------- -- ---------- --- - --- ----- ----- ----<br>---- --- --- ----- --- ---- ---- ------- ----- ---- -------<br>--- --- -- ----- -- --- ---- -- --- ---- -- ------ ------<br>--- ----- -- ----,158409.19500000018,158408.40000000026,158019.602,158026.10000000003,158032.647,158415.884,,5,a
screen,html.Screen,1_1_0_1_6,2021-04-18T14:13:30.240Z,,,,,,,,,,,,,,,,53,,,,,,,,,,,,,,578.091000000335,,response,,,,99,,,,,,,Space,keypress(Space),,,,,,,,---- -- ----- -- ------ - lasting --- ----------<br>------------- ------ ------ ---- ---- ------- ----- -- ----<br>-------- ------- -- ---------- --- - --- ----- ----- ----<br>---- --- --- ----- --- ---- ---- ------- ----- ---- -------<br>--- --- -- ----- -- --- ---- -- --- ---- -- ------ ------<br>--- ----- -- ----,158994.76500000036,158993.97500000033,158399.659,158409.36500000043,158415.884,159001.439,,6,lasting
screen,html.Screen,1_1_0_1_7,2021-04-18T14:13:30.668Z,,,,,,,,,,,,,,,,53,,,,,,,,,,,,,,420.53100000030827,,response,,,,99,,,,,,,Space,keypress(Space),,,,,,,,---- -- ----- -- ------ - ------- and ----------<br>------------- ------ ------ ---- ---- ------- ----- -- ----<br>-------- ------- -- ---------- --- - --- ----- ----- ----<br>---- --- --- ----- --- ---- ---- ------- ----- ---- -------<br>--- --- -- ----- -- --- ---- -- --- ---- -- ------ ------<br>--- ----- -- ----,159422.7350000001,159421.97000000032,158983.028,158994.93000000028,159001.439,159429.53,,7,and
screen,html.Screen,1_1_0_1_8,2021-04-18T14:13:31.223Z,,,,,,,,,,,,,,,,53,,,,,,,,,,,,,,547.3000000000757,,response,,,,99,,,,,,,Space,keypress(Space),,,,,,,,---- -- ----- -- ------ - ------- --- fulfilling<br>------------- ------ ------ ---- ---- ------- ----- -- ----<br>-------- ------- -- ---------- --- - --- ----- ----- ----<br>---- --- --- ----- --- ---- ---- ------- ----- ---- -------<br>--- --- -- ----- -- --- ---- -- --- ---- -- ------ ------<br>--- ----- -- ----,159977.63000000032,159976.83000000007,159418.636,159422.93000000017,159429.53,159984.871,,8,fulfilling
screen,html.Screen,1_1_0_1_9,2021-04-18T14:13:31.625Z,,,,,,,,,,,,,,,,53,,,,,,,,,,,,,,393.06900000027963,,response,,,,99,,,,,,,Space,keypress(Space),,,,,,,,"---- -- ----- -- ------ - ------- --- ----------<br>relationship, ------ ------ ---- ---- ------- ----- -- ----<br>-------- ------- -- ---------- --- - --- ----- ----- ----<br>---- --- --- ----- --- ---- ---- ------- ----- ---- -------<br>--- --- -- ----- -- --- ---- -- --- ---- -- ------ ------<br>--- ----- -- ----",160379.17000000016,160377.9400000003,159963.21,159977.8000000001,159984.871,160386.619,,9,"relationship,"
screen,html.Screen,1_1_0_1_10,2021-04-18T14:13:32.031Z,,,,,,,,,,,,,,,,53,,,,,,,,,,,,,,398.5410000003467,,response,,,,99,,,,,,,Space,keypress(Space),,,,,,,,---- -- ----- -- ------ - ------- --- ----------<br>------------- common ------ ---- ---- ------- ----- -- ----<br>-------- ------- -- ---------- --- - --- ----- ----- ----<br>---- --- --- ----- --- ---- ---- ------- ----- ---- -------<br>--- --- -- ----- -- --- ---- -- --- ---- -- ------ ------<br>--- ----- -- ----,160785.87500000003,160785.16000000035,160368.149,160379.3450000003,160386.619,160809.826,,10,common
screen,html.Screen,1_1_0_1_11,2021-04-18T14:13:32.375Z,,,,,,,,,,,,,,,,53,,,,,,,,,,,,,,318.75400000004447,,response,,,,99,,,,,,,Space,keypress(Space),,,,,,,,---- -- ----- -- ------ - ------- --- ----------<br>------------- ------ wisdom ---- ---- ------- ----- -- ----<br>-------- ------- -- ---------- --- - --- ----- ----- ----<br>---- --- --- ----- --- ---- ---- ------- ----- ---- -------<br>--- --- -- ----- -- --- ---- -- --- ---- -- ------ ------<br>--- ----- -- ----,161129.3050000004,161128.58000000005,160793.245,160786.05000000016,160809.826,161135.944,,11,wisdom
screen,html.Screen,1_1_0_1_12,2021-04-18T14:13:32.736Z,,,,,,,,,,,,,,,,53,,,,,,,,,,,,,,353.4260000002396,,response,,,,99,,,,,,,Space,keypress(Space),,,,,,,,---- -- ----- -- ------ - ------- --- ----------<br>------------- ------ ------ says ---- ------- ----- -- ----<br>-------- ------- -- ---------- --- - --- ----- ----- ----<br>---- --- --- ----- --- ---- ---- ------- ----- ---- -------<br>--- --- -- ----- -- --- ---- -- --- ---- -- ------ ------<br>--- ----- -- ----,161490.23000000033,161489.37000000023,161126.322,161129.49000000025,161135.944,161497.01,,12,says
screen,html.Screen,1_1_0_1_13,2021-04-18T14:13:33.068Z,,,,,,,,,,,,,,,,53,,,,,,,,,,,,,,324.25500000003376,,response,,,,99,,,,,,,Space,keypress(Space),,,,,,,,---- -- ----- -- ------ - ------- --- ----------<br>------------- ------ ------ ---- that ------- ----- -- ----<br>-------- ------- -- ---------- --- - --- ----- ----- ----<br>---- --- --- ----- --- ---- ---- ------- ----- ---- -------<br>--- --- -- ----- -- --- ---- -- --- ---- -- ------ ------<br>--- ----- -- ----,161822.04,161821.26500000004,161486.183,161490.44500000036,161497.01,161828.785,,13,that
screen,html.Screen,1_1_0_1_14,2021-04-18T14:13:33.484Z,,,,,,,,,,,,,,,,53,,,,,,,,,,,,,,408.77000000016415,,response,,,,99,,,,,,,Space,keypress(Space),,,,,,,,---- -- ----- -- ------ - ------- --- ----------<br>------------- ------ ------ ---- ---- feeling ----- -- ----<br>-------- ------- -- ---------- --- - --- ----- ----- ----<br>---- --- --- ----- --- ---- ---- ------- ----- ---- -------<br>--- --- -- ----- -- --- ---- -- --- ---- -- ------ ------<br>--- ----- -- ----,162238.4900000002,162237.55500000017,161813.638,161822.21000000025,161828.785,162245.154,,14,feeling
screen,html.Screen,1_1_0_1_15,2021-04-18T14:13:33.802Z,,,,,,,,,,,,,,,,53,,,,,,,,,,,,,,310.70600000038394,,response,,,,99,,,,,,,Space,keypress(Space),,,,,,,,---- -- ----- -- ------ - ------- --- ----------<br>------------- ------ ------ ---- ---- ------- close -- ----<br>-------- ------- -- ---------- --- - --- ----- ----- ----<br>---- --- --- ----- --- ---- ---- ------- ----- ---- -------<br>--- --- -- ----- -- --- ---- -- --- ---- -- ------ ------<br>--- ----- -- ----,162556.6450000001,162555.8600000004,162229.251,162238.66000000044,162245.154,162563.384,,15,close
screen,html.Screen,1_1_0_1_16,2021-04-18T14:13:34.119Z,,,,,,,,,,,,,,,,53,,,,,,,,,,,,,,308.9660000001022,,response,,,,99,,,,,,,Space,keypress(Space),,,,,,,,---- -- ----- -- ------ - ------- --- ----------<br>------------- ------ ------ ---- ---- ------- ----- to ----<br>-------- ------- -- ---------- --- - --- ----- ----- ----<br>---- --- --- ----- --- ---- ---- ------- ----- ---- -------<br>--- --- -- ----- -- --- ---- -- --- ---- -- ------ ------<br>--- ----- -- ----,162873.2500000001,162872.3500000001,162545.214,162556.81500000038,162563.384,162879.889,,16,to
screen,html.Screen,1_1_0_1_17,2021-04-18T14:13:34.580Z,,,,,,,,,,,,,,,,53,,,,,,,,,,,,,,454.1010000000824,,response,,,,99,,,,,,,Space,keypress(Space),,,,,,,,---- -- ----- -- ------ - ------- --- ----------<br>------------- ------ ------ ---- ---- ------- ----- -- your<br>-------- ------- -- ---------- --- - --- ----- ----- ----<br>---- --- --- ----- --- ---- ---- ------- ----- ---- -------<br>--- --- -- ----- -- --- ---- -- --- ---- -- ------ ------<br>--- ----- -- ----,163334.8600000004,163333.99000000008,162863.246,162873.42500000022,162879.889,163341.583,,17,your
screen,html.Screen,1_1_0_1_18,2021-04-18T14:13:34.877Z,,,,,,,,,,,,,,,,53,,,,,,,,,,,,,,289.12700000035693,,response,,,,99,,,,,,,Space,keypress(Space),,,,,,,,---- -- ----- -- ------ - ------- --- ----------<br>------------- ------ ------ ---- ---- ------- ----- -- ----<br>romantic ------- -- ---------- --- - --- ----- ----- ----<br>---- --- --- ----- --- ---- ---- ------- ----- ---- -------<br>--- --- -- ----- -- --- ---- -- --- ---- -- ------ ------<br>--- ----- -- ----,163631.51000000015,163630.71000000037,163330.065,163335.0250000003,163341.583,163638.276,,18,romantic
screen,html.Screen,1_1_0_1_19,2021-04-18T14:13:35.129Z,,,,,,,,,,,,,,,,53,,,,,,,,,,,,,,244.5540000004694,,response,,,,99,,,,,,,Space,keypress(Space),,,,,,,,---- -- ----- -- ------ - ------- --- ----------<br>------------- ------ ------ ---- ---- ------- ----- -- ----<br>-------- partner -- ---------- --- - --- ----- ----- ----<br>---- --- --- ----- --- ---- ---- ------- ----- ---- -------<br>--- --- -- ----- -- --- ---- -- --- ---- -- ------ ------<br>--- ----- -- ----,163883.6550000001,163882.83000000048,163625.127,163631.67000000022,163638.276,163890.382,,19,partner
screen,html.Screen,1_1_0_1_20,2021-04-18T14:13:35.510Z,,,,,,,,,,,,,,,,53,,,,,,,,,,,,,,373.4280000003637,,response,,,,99,,,,,,,Space,keypress(Space),,,,,,,,---- -- ----- -- ------ - ------- --- ----------<br>------------- ------ ------ ---- ---- ------- ----- -- ----<br>-------- ------- is ---------- --- - --- ----- ----- ----<br>---- --- --- ----- --- ---- ---- ------- ----- ---- -------<br>--- --- -- ----- -- --- ---- -- --- ---- -- ------ ------<br>--- ----- -- ----,164264.60000000044,164263.81000000038,163871.846,163883.82,163890.382,164271.495,,20,is
screen,html.Screen,1_1_0_1_21,2021-04-18T14:13:35.795Z,,,,,,,,,,,,,,,,53,,,,,,,,,,,,,,276.84000000040396,,response,,,,99,,,,,,,Space,keypress(Space),,,,,,,,---- -- ----- -- ------ - ------- --- ----------<br>------------- ------ ------ ---- ---- ------- ----- -- ----<br>-------- ------- -- paramount. --- - --- ----- ----- ----<br>---- --- --- ----- --- ---- ---- ------- ----- ---- -------<br>--- --- -- ----- -- --- ---- -- --- ---- -- ------ ------<br>--- ----- -- ----,164549.0050000003,164548.3350000004,164257.557,164264.76,164271.495,164555.582,,21,paramount.
screen,html.Screen,1_1_0_1_22,2021-04-18T14:13:35.956Z,,,,,,,,,,,,,,,,53,,,,,,,,,,,,,,153.4830000004731,,response,,,,99,,,,,,,Space,keypress(Space),,,,,,,,---- -- ----- -- ------ - ------- --- ----------<br>------------- ------ ------ ---- ---- ------- ----- -- ----<br>-------- ------- -- ---------- But - --- ----- ----- ----<br>---- --- --- ----- --- ---- ---- ------- ----- ---- -------<br>--- --- -- ----- -- --- ---- -- --- ---- -- ------ ------<br>--- ----- -- ----,164709.96000000014,164709.06500000047,164538.497,164549.18000000043,164555.582,164722.906,,22,But
screen,html.Screen,1_1_0_1_23,2021-04-18T14:13:36.443Z,,,,,,,,,,,,,,,,53,,,,,,,,,,,,,,474.1290000001609,,response,,,,99,,,,,,,Space,keypress(Space),,,,,,,,---- -- ----- -- ------ - ------- --- ----------<br>------------- ------ ------ ---- ---- ------- ----- -- ----<br>-------- ------- -- ---------- --- a --- ----- ----- ----<br>---- --- --- ----- --- ---- ---- ------- ----- ---- -------<br>--- --- -- ----- -- --- ---- -- --- ---- -- ------ ------<br>--- ----- -- ----,165197.89500000025,165197.03500000015,164706.018,164710.33500000022,164722.906,165204.696,,23,a
screen,html.Screen,1_1_0_1_24,2021-04-18T14:13:36.696Z,,,,,,,,,,,,,,,,53,,,,,,,,,,,,,,245.13400000002002,,response,,,,99,,,,,,,Space,keypress(Space),,,,,,,,---- -- ----- -- ------ - ------- --- ----------<br>------------- ------ ------ ---- ---- ------- ----- -- ----<br>-------- ------- -- ---------- --- - new ----- ----- ----<br>---- --- --- ----- --- ---- ---- ------- ----- ---- -------<br>--- --- -- ----- -- --- ---- -- --- ---- -- ------ ------<br>--- ----- -- ----,165450.6650000003,165449.83000000002,165194.618,165198.0950000002,165204.696,165457.33,,24,new
screen,html.Screen,1_1_0_1_25,2021-04-18T14:13:36.869Z,,,,,,,,,,,,,,,,53,,,,,,,,,,,,,,165.41500000012456,,response,,,,99,,,,,,,Space,keypress(Space),,,,,,,,---- -- ----- -- ------ - ------- --- ----------<br>------------- ------ ------ ---- ---- ------- ----- -- ----<br>-------- ------- -- ---------- --- - --- study ----- ----<br>---- --- --- ----- --- ---- ---- ------- ----- ---- -------<br>--- --- -- ----- -- --- ---- -- --- ---- -- ------ ------<br>--- ----- -- ----,165623.61500000043,165622.7450000001,165438.433,165450.82500000036,165457.33,165630.913,,25,study
screen,html.Screen,1_1_0_1_26,2021-04-18T14:13:37.271Z,,,,,,,,,,,,,,,,53,,,,,,,,,,,,,,393.3720000004105,,response,,,,99,,,,,,,Space,keypress(Space),,,,,,,,---- -- ----- -- ------ - ------- --- ----------<br>------------- ------ ------ ---- ---- ------- ----- -- ----<br>-------- ------- -- ---------- --- - --- ----- finds ----<br>---- --- --- ----- --- ---- ---- ------- ----- ---- -------<br>--- --- -- ----- -- --- ---- -- --- ---- -- ------ ------<br>--- ----- -- ----,166025.1400000002,166024.2850000004,165607.921,165623.78000000035,165630.913,166031.99,,26,finds
screen,html.Screen,1_1_0_1_27,2021-04-18T14:13:37.494Z,,,,,,,,,,,,,,,,53,,,,,,,,,,,,,,215.89000000036322,,response,,,,99,,,,,,,Space,keypress(Space),,,,,,,,---- -- ----- -- ------ - ------- --- ----------<br>------------- ------ ------ ---- ---- ------- ----- -- ----<br>-------- ------- -- ---------- --- - --- ----- ----- that<br>---- --- --- ----- --- ---- ---- ------- ----- ---- -------<br>--- --- -- ----- -- --- ---- -- --- ---- -- ------ ------<br>--- ----- -- ----,166248.7000000001,166247.88000000035,166014.205,166025.3050000001,166031.99,166255.552,,27,that
screen,html.Screen,1_1_0_1_28,2021-04-18T14:13:37.916Z,,,,,,,,,,,,,,,,53,,,,,,,,,,,,,,414.0630000002566,,response,,,,99,,,,,,,Space,keypress(Space),,,,,,,,---- -- ----- -- ------ - ------- --- ----------<br>------------- ------ ------ ---- ---- ------- ----- -- ----<br>-------- ------- -- ---------- --- - --- ----- ----- ----<br>it's --- --- ----- --- ---- ---- ------- ----- ---- -------<br>--- --- -- ----- -- --- ---- -- --- ---- -- ------ ------<br>--- ----- -- ----,166670.4200000004,166669.61500000025,166249.257,166248.86500000002,166255.552,166677.161,,28,it's
screen,html.Screen,1_1_0_1_29,2021-04-18T14:13:38.084Z,,,,,,,,,,,,,,,,53,,,,,,,,,,,,,,160.34900000030757,,response,,,,99,,,,,,,Space,keypress(Space),,,,,,,,---- -- ----- -- ------ - ------- --- ----------<br>------------- ------ ------ ---- ---- ------- ----- -- ----<br>-------- ------- -- ---------- --- - --- ----- ----- ----<br>---- not --- ----- --- ---- ---- ------- ----- ---- -------<br>--- --- -- ----- -- --- ---- -- --- ---- -- ------ ------<br>--- ----- -- ----,166838.69000000003,166837.5100000003,166655.741,166670.59000000017,166677.161,166843.742,,29,not
screen,html.Screen,1_1_0_1_30,2021-04-18T14:13:38.388Z,,,,,,,,,,,,,,,,53,,,,,,,,,,,,,,297.7430000001041,,response,,,,99,,,,,,,Space,keypress(Space),,,,,,,,---- -- ----- -- ------ - ------- --- ----------<br>------------- ------ ------ ---- ---- ------- ----- -- ----<br>-------- ------- -- ---------- --- - --- ----- ----- ----<br>---- --- how ----- --- ---- ---- ------- ----- ---- -------<br>--- --- -- ----- -- --- ---- -- --- ---- -- ------ ------<br>--- ----- -- ----,167142.35500000042,167141.4850000001,166827.732,166838.8450000002,166843.742,167149.057,,30,how
screen,html.Screen,1_1_0_1_31,2021-04-18T14:13:38.566Z,,,,,,,,,,,,,,,,53,,,,,,,,,,,,,,170.31300000016927,,response,,,,99,,,,,,,Space,keypress(Space),,,,,,,,---- -- ----- -- ------ - ------- --- ----------<br>------------- ------ ------ ---- ---- ------- ----- -- ----<br>-------- ------- -- ---------- --- - --- ----- ----- ----<br>---- --- --- close --- ---- ---- ------- ----- ---- -------<br>--- --- -- ----- -- --- ---- -- --- ---- -- ------ ------<br>--- ----- -- ----,167320.27500000002,167319.37000000017,167132.918,167142.5300000001,167149.057,167326.96,,31,close
screen,html.Screen,1_1_0_1_32,2021-04-18T14:13:38.899Z,,,,,,,,,,,,,,,,53,,,,,,,,,,,,,,326.0800000001618,,response,,,,99,,,,,,,Space,keypress(Space),,,,,,,,---- -- ----- -- ------ - ------- --- ----------<br>------------- ------ ------ ---- ---- ------- ----- -- ----<br>-------- ------- -- ---------- --- - --- ----- ----- ----<br>---- --- --- ----- you ---- ---- ------- ----- ---- -------<br>--- --- -- ----- -- --- ---- -- --- ---- -- ------ ------<br>--- ----- -- ----,167653.80500000037,167653.04000000015,167315.977,167320.43000000023,167326.96,167660.442,,32,you
screen,html.Screen,1_1_0_1_33,2021-04-18T14:13:39.512Z,,,,,,,,,,,,,,,,53,,,,,,,,,,,,,,604.7580000002636,,response,,,,99,,,,,,,Space,keypress(Space),,,,,,,,---- -- ----- -- ------ - ------- --- ----------<br>------------- ------ ------ ---- ---- ------- ----- -- ----<br>-------- ------- -- ---------- --- - --- ----- ----- ----<br>---- --- --- ----- --- feel ---- ------- ----- ---- -------<br>--- --- -- ----- -- --- ---- -- --- ---- -- ------ ------<br>--- ----- -- ----,168265.9950000002,168265.20000000027,167644.163,167653.96500000043,167660.442,168272.77,,33,feel
screen,html.Screen,1_1_0_1_34,2021-04-18T14:13:39.869Z,,,,,,,,,,,,,,,,53,,,,,,,,,,,,,,349.6750000004249,,response,,,,99,,,,,,,Space,keypress(Space),,,,,,,,---- -- ----- -- ------ - ------- --- ----------<br>------------- ------ ------ ---- ---- ------- ----- -- ----<br>-------- ------- -- ---------- --- - --- ----- ----- ----<br>---- --- --- ----- --- ---- that ------- ----- ---- -------<br>--- --- -- ----- -- --- ---- -- --- ---- -- ------ ------<br>--- ----- -- ----,168623.28000000026,168622.4450000004,168260.573,168266.14500000005,168272.77,168629.99,,34,that
screen,html.Screen,1_1_0_1_35,2021-04-18T14:13:40.122Z,,,,,,,,,,,,,,,,53,,,,,,,,,,,,,,245.23000000035972,,response,,,,99,,,,,,,Space,keypress(Space),,,,,,,,---- -- ----- -- ------ - ------- --- ----------<br>------------- ------ ------ ---- ---- ------- ----- -- ----<br>-------- ------- -- ---------- --- - --- ----- ----- ----<br>---- --- --- ----- --- ---- ---- matters ----- ---- -------<br>--- --- -- ----- -- --- ---- -- --- ---- -- ------ ------<br>--- ----- -- ----,168876.01500000028,168875.22000000035,168622.754,168623.44500000018,168629.99,168882.613,,35,matters
screen,html.Screen,1_1_0_1_36,2021-04-18T14:13:40.260Z,,,,,,,,,,,,,,,,53,,,,,,,,,,,,,,130.49200000043493,,response,,,,99,,,,,,,Space,keypress(Space),,,,,,,,"---- -- ----- -- ------ - ------- --- ----------<br>------------- ------ ------ ---- ---- ------- ----- -- ----<br>-------- ------- -- ---------- --- - --- ----- ----- ----<br>---- --- --- ----- --- ---- ---- ------- most, ---- -------<br>--- --- -- ----- -- --- ---- -- --- ---- -- ------ ------<br>--- ----- -- ----",169013.98500000004,169013.10500000045,168863.363,168876.17000000045,168882.613,169015.934,,36,"most,"
screen,html.Screen,1_1_0_1_37,2021-04-18T14:13:40.671Z,,,,,,,,,,,,,,,,53,,,,,,,,,,,,,,408.25100000030943,,response,,,,99,,,,,,,Space,keypress(Space),,,,,,,,---- -- ----- -- ------ - ------- --- ----------<br>------------- ------ ------ ---- ---- ------- ----- -- ----<br>-------- ------- -- ---------- --- - --- ----- ----- ----<br>---- --- --- ----- --- ---- ---- ------- ----- it's -------<br>--- --- -- ----- -- --- ---- -- --- ---- -- ------ ------<br>--- ----- -- ----,169424.95000000007,169424.18500000032,168999.93,169014.14000000022,169015.934,169431.803,,37,it's
screen,html.Screen,1_1_0_1_38,2021-04-18T14:13:40.997Z,,,,,,,,,,,,,,,,53,,,,,,,,,,,,,,318.3820000003034,,response,,,,99,,,,,,,Space,keypress(Space),,,,,,,,---- -- ----- -- ------ - ------- --- ----------<br>------------- ------ ------ ---- ---- ------- ----- -- ----<br>-------- ------- -- ---------- --- - --- ----- ----- ----<br>---- --- --- ----- --- ---- ---- ------- ----- ---- whether<br>--- --- -- ----- -- --- ---- -- --- ---- -- ------ ------<br>--- ----- -- ----,169751.08000000045,169750.18500000032,169416.499,169425.11500000046,169431.803,169757.867,,38,whether
screen,html.Screen,1_1_0_1_39,2021-04-18T14:13:41.345Z,,,,,,,,,,,,,,,,53,,,,,,,,,,,,,,340.2230000004056,,response,,,,99,,,,,,,Space,keypress(Space),,,,,,,,---- -- ----- -- ------ - ------- --- ----------<br>------------- ------ ------ ---- ---- ------- ----- -- ----<br>-------- ------- -- ---------- --- - --- ----- ----- ----<br>---- --- --- ----- --- ---- ---- ------- ----- ---- -------<br>you --- -- ----- -- --- ---- -- --- ---- -- ------ ------<br>--- ----- -- ----,170098.94000000032,170098.0900000004,169748.843,169751.2350000002,169757.867,170105.683,,39,you
screen,html.Screen,1_1_0_1_40,2021-04-18T14:13:41.806Z,,,,,,,,,,,,,,,,53,,,,,,,,,,,,,,453.6670000004524,,response,,,,99,,,,,,,Space,keypress(Space),,,,,,,,---- -- ----- -- ------ - ------- --- ----------<br>------------- ------ ------ ---- ---- ------- ----- -- ----<br>-------- ------- -- ---------- --- - --- ----- ----- ----<br>---- --- --- ----- --- ---- ---- ------- ----- ---- -------<br>--- are -- ----- -- --- ---- -- --- ---- -- ------ ------<br>--- ----- -- ----,170560.19000000015,170559.35000000044,170091.609,170099.09500000003,170105.683,170566.871,,40,are
screen,html.Screen,1_1_0_1_41,2021-04-18T14:13:41.967Z,,,,,,,,,,,,,,,,53,,,,,,,,,,,,,,153.9140000004263,,response,,,,99,,,,,,,Space,keypress(Space),,,,,,,,---- -- ----- -- ------ - ------- --- ----------<br>------------- ------ ------ ---- ---- ------- ----- -- ----<br>-------- ------- -- ---------- --- - --- ----- ----- ----<br>---- --- --- ----- --- ---- ---- ------- ----- ---- -------<br>--- --- as ----- -- --- ---- -- --- ---- -- ------ ------<br>--- ----- -- ----,170721.58000000037,170720.78500000044,170556.146,170560.34500000032,170566.871,170734.093,,41,as
screen,html.Screen,1_1_0_1_42,2021-04-18T14:13:42.328Z,,,,,,,,,,,,,,,,53,,,,,,,,,,,,,,346.98200000007637,,response,,,,99,,,,,,,Space,keypress(Space),,,,,,,,---- -- ----- -- ------ - ------- --- ----------<br>------------- ------ ------ ---- ---- ------- ----- -- ----<br>-------- ------- -- ---------- --- - --- ----- ----- ----<br>---- --- --- ----- --- ---- ---- ------- ----- ---- -------<br>--- --- -- close -- --- ---- -- --- ---- -- ------ ------<br>--- ----- -- ----,171082.08000000013,171081.07500000007,170717.425,170721.73500000007,170734.093,171088.847,,42,close
screen,html.Screen,1_1_0_1_43,2021-04-18T14:13:42.467Z,,,,,,,,,,,,,,,,53,,,,,,,,,,,,,,131.98800000007031,,response,,,,99,,,,,,,Space,keypress(Space),,,,,,,,---- -- ----- -- ------ - ------- --- ----------<br>------------- ------ ------ ---- ---- ------- ----- -- ----<br>-------- ------- -- ---------- --- - --- ----- ----- ----<br>---- --- --- ----- --- ---- ---- ------- ----- ---- -------<br>--- --- -- ----- as --- ---- -- --- ---- -- ------ ------<br>--- ----- -- ----,171221.61000000004,171220.83500000008,171072.283,171082.24500000005,171088.847,171239.339,,43,as
screen,html.Screen,1_1_0_1_44,2021-04-18T14:13:42.680Z,,,,,,,,,,,,,,,,53,,,,,,,,,,,,,,194.03100000019185,,response,,,,99,,,,,,,Space,keypress(Space),,,,,,,,---- -- ----- -- ------ - ------- --- ----------<br>------------- ------ ------ ---- ---- ------- ----- -- ----<br>-------- ------- -- ---------- --- - --- ----- ----- ----<br>---- --- --- ----- --- ---- ---- ------- ----- ---- -------<br>--- --- -- ----- -- you ---- -- --- ---- -- ------ ------<br>--- ----- -- ----,171434.16000000024,171433.3700000002,171206.018,171221.76000000036,171239.339,171440.806,,44,you
screen,html.Screen,1_1_0_1_45,2021-04-18T14:13:42.901Z,,,,,,,,,,,,,,,,53,,,,,,,,,,,,,,213.48900000026333,,response,,,,99,,,,,,,Space,keypress(Space),,,,,,,,---- -- ----- -- ------ - ------- --- ----------<br>------------- ------ ------ ---- ---- ------- ----- -- ----<br>-------- ------- -- ---------- --- - --- ----- ----- ----<br>---- --- --- ----- --- ---- ---- ------- ----- ---- -------<br>--- --- -- ----- -- --- want -- --- ---- -- ------ ------<br>--- ----- -- ----,171655.16000000027,171654.29500000027,171422.626,171434.3150000004,171440.806,171661.819,,45,want
screen,html.Screen,1_1_0_1_46,2021-04-18T14:13:43.207Z,,,,,,,,,,,,,,,,53,,,,,,,,,,,,,,299.1010000004608,,response,,,,99,,,,,,,Space,keypress(Space),,,,,,,,---- -- ----- -- ------ - ------- --- ----------<br>------------- ------ ------ ---- ---- ------- ----- -- ----<br>-------- ------- -- ---------- --- - --- ----- ----- ----<br>---- --- --- ----- --- ---- ---- ------- ----- ---- -------<br>--- --- -- ----- -- --- ---- to --- ---- -- ------ ------<br>--- ----- -- ----,171961.855,171960.92000000045,171641.387,171655.3100000001,171661.819,171968.539,,46,to
screen,html.Screen,1_1_0_1_47,2021-04-18T14:13:43.481Z,,,,,,,,,,,,,,,,53,,,,,,,,,,,,,,266.25100000045495,,response,,,,99,,,,,,,Space,keypress(Space),,,,,,,,"---- -- ----- -- ------ - ------- --- ----------<br>------------- ------ ------ ---- ---- ------- ----- -- ----<br>-------- ------- -- ---------- --- - --- ----- ----- ----<br>---- --- --- ----- --- ---- ---- ------- ----- ---- -------<br>--- --- -- ----- -- --- ---- -- be, ---- -- ------ ------<br>--- ----- -- ----",172235.56000000008,172234.79000000044,171961.938,171962.03000000014,171968.539,172242.172,,47,"be,"
screen,html.Screen,1_1_0_1_48,2021-04-18T14:13:43.850Z,,,,,,,,,,,,,,,,53,,,,,,,,,,,,,,361.22300000008545,,response,,,,99,,,,,,,Space,keypress(Space),,,,,,,,---- -- ----- -- ------ - ------- --- ----------<br>------------- ------ ------ ---- ---- ------- ----- -- ----<br>-------- ------- -- ---------- --- - --- ----- ----- ----<br>---- --- --- ----- --- ---- ---- ------- ----- ---- -------<br>--- --- -- ----- -- --- ---- -- --- even -- ------ ------<br>--- ----- -- ----,172604.24500000046,172603.39500000008,172235.502,172235.71500000026,172242.172,172610.931,,48,even
screen,html.Screen,1_1_0_1_49,2021-04-18T14:13:44.029Z,,,,,,,,,,,,,,,,53,,,,,,,,,,,,,,172.12400000033085,,response,,,,99,,,,,,,Space,keypress(Space),,,,,,,,---- -- ----- -- ------ - ------- --- ----------<br>------------- ------ ------ ---- ---- ------- ----- -- ----<br>-------- ------- -- ---------- --- - --- ----- ----- ----<br>---- --- --- ----- --- ---- ---- ------- ----- ---- -------<br>--- --- -- ----- -- --- ---- -- --- ---- if ------ ------<br>--- ----- -- ----,172783.89000000016,172783.05500000034,172592.543,172604.40000000017,172610.931,172790.592,,49,if
screen,html.Screen,1_1_0_1_50,2021-04-18T14:13:44.190Z,,,,,,,,,,,,,,,,53,,,,,,,,,,,,,,153.34800000011455,,response,,,,99,,,,,,,Space,keypress(Space),,,,,,,,---- -- ----- -- ------ - ------- --- ----------<br>------------- ------ ------ ---- ---- ------- ----- -- ----<br>-------- ------- -- ---------- --- - --- ----- ----- ----<br>---- --- --- ----- --- ---- ---- ------- ----- ---- -------<br>--- --- -- ----- -- --- ---- -- --- ---- -- that's ------<br>--- ----- -- ----,172944.79500000033,172943.94000000012,172778.153,172784.03500000012,172790.592,172957.792,,50,that's
screen,html.Screen,1_1_0_1_51,2021-04-18T14:13:44.612Z,,,,,,,,,,,,,,,,53,,,,,,,,,,,,,,407.6380000002973,,response,,,,99,,,,,,,Space,keypress(Space),,,,,,,,---- -- ----- -- ------ - ------- --- ----------<br>------------- ------ ------ ---- ---- ------- ----- -- ----<br>-------- ------- -- ---------- --- - --- ----- ----- ----<br>---- --- --- ----- --- ---- ---- ------- ----- ---- -------<br>--- --- -- ----- -- --- ---- -- --- ---- -- ------ really<br>--- ----- -- ----,173366.2250000002,173365.43000000028,172941.112,172944.94000000032,172957.792,173372.821,,51,really
screen,html.Screen,1_1_0_1_52,2021-04-18T14:13:45.048Z,,,,,,,,,,,,,,,,53,,,,,,,,,,,,,,428.67900000003283,,response,,,,99,,,,,,,Space,keypress(Space),,,,,,,,---- -- ----- -- ------ - ------- --- ----------<br>------------- ------ ------ ---- ---- ------- ----- -- ----<br>-------- ------- -- ---------- --- - --- ----- ----- ----<br>---- --- --- ----- --- ---- ---- ------- ----- ---- -------<br>--- --- -- ----- -- --- ---- -- --- ---- -- ------ ------<br>not ----- -- ----,173802.35000000038,173801.50000000003,173362.564,173366.38000000038,173372.821,173809.084,,52,not
screen,html.Screen,1_1_0_1_53,2021-04-18T14:13:45.244Z,,,,,,,,,,,,,,,,53,,,,,,,,,,,,,,188.6060000001453,,response,,,,99,,,,,,,Space,keypress(Space),,,,,,,,---- -- ----- -- ------ - ------- --- ----------<br>------------- ------ ------ ---- ---- ------- ----- -- ----<br>-------- ------- -- ---------- --- - --- ----- ----- ----<br>---- --- --- ----- --- ---- ---- ------- ----- ---- -------<br>--- --- -- ----- -- --- ---- -- --- ---- -- ------ ------<br>--- close -- ----,173998.4650000001,173997.69000000015,173790.064,173802.49500000037,173809.084,174005.19,,53,close
screen,html.Screen,1_1_0_1_54,2021-04-18T14:13:45.425Z,,,,,,,,,,,,,,,,53,,,,,,,,,,,,,,172.92000000027474,,response,,,,99,,,,,,,Space,keypress(Space),,,,,,,,---- -- ----- -- ------ - ------- --- ----------<br>------------- ------ ------ ---- ---- ------- ----- -- ----<br>-------- ------- -- ---------- --- - --- ----- ----- ----<br>---- --- --- ----- --- ---- ---- ------- ----- ---- -------<br>--- --- -- ----- -- --- ---- -- --- ---- -- ------ ------<br>--- ----- at ----,174178.92000000027,174178.11000000028,173992.924,173998.61500000043,174005.19,174185.601,,54,at
screen,html.Screen,1_1_0_1_55,2021-04-18T14:13:45.955Z,,,,,,,,,,,,,,,,53,,,,,,,,,,,,,,523.514000000112,,response,,,,99,,,,,,,Space,keypress(Space),,,,,,,,---- -- ----- -- ------ - ------- --- ----------<br>------------- ------ ------ ---- ---- ------- ----- -- ----<br>-------- ------- -- ---------- --- - --- ----- ----- ----<br>---- --- --- ----- --- ---- ---- ------- ----- ---- -------<br>--- --- -- ----- -- --- ---- -- --- ---- -- ------ ------<br>--- ----- -- all.,174709.89500000043,174709.1150000001,174172.373,174179.0600000004,174185.601,174716.904,,55,all.
Item 99,flow.Loop,1_1_0_1,2021-04-18T14:13:45.956Z,,,,,,,,,,,,,,,,,,,,,,,,,,,,,,19605.96000000011,,completion,,,,,F,,,,,,,,,,,silence,,,,,174710.19500000012,174709.1150000001,155019.741,155028.41000000035,155103.155,174716.904,,,
Question 1,html.Screen,1_1_0_2,2021-04-18T14:13:49.807Z,,,,,,,,,,,,,,,,,,,,,,,,,,,false,FALSE,,3842.981000000116,,response,,,,99,F,,,,,,TRUE,click #choice-1,,,,silence,,,,,178561.54000000015,178559.88500000013,174702.085,174710.32500000048,174716.904,178565.796,,,
Question 2,html.Screen,1_1_0_3,2021-04-18T14:13:53.574Z,,,,,,,,,,,,,,,,,,,,,,,,,,,false,TRUE,,3764.184000000445,,response,,,,99,F,,,,,,FALSE,click #choice-2,,,,silence,,,,,182331.53000000038,182329.98000000045,178557.64,178561.75500000018,178565.796,182335.865,,,
Item 99,flow.Sequence,1_1_0,2021-04-18T14:13:53.574Z,,,,,,,,,,,,,,,,,,,,,,,,,,,,,,37287.423000000446,,completion,,,,,,,,,,,,,,,,,,,,,182331.76000000004,182329.98000000045,145026.508,145041.7900000002,145042.557,182335.865,,,
Holding screen,html.Screen,1_1_1_0,2021-04-18T14:14:03.556Z,,,,,,,,,,,,,,,,,,,,,,,,,,,,,,9994.040999999997,,timeout,,,,,,,,,,,,,,,,,,,,,192313.88000000015,192313.22,182324.832,182331.91000000032,182335.865,192329.906,,,
screen,html.Screen,1_1_1_1_0,2021-04-18T14:14:04.471Z,,,,,,,,,,,,,,,,54,,,,,,,,,,,,,,898.0990000003949,,response,,,,100,,,,,,,Space,keypress(Space),,,,,,,,At --- ---- --- ------ ----- ------- ---- -- --- ------- --<br>------- ---------- ------ -- ----- -- ----- -- ---- ------<br>--- ----- --- --- ------ -------- ----- --- ------ ----- --<br>----- ----- ---------- --- --- ------ ------ ---- -- ------<br>------- --- ------ ----- --- ---- ------- -- ---- --- --<br>------- ------,193228.87500000023,193228.00500000038,192313.22,192314.07000000036,192329.906,193235.327,,0,At
screen,html.Screen,1_1_1_1_1,2021-04-18T14:14:04.867Z,,,,,,,,,,,,,,,,54,,,,,,,,,,,,,,388.2530000004044,,response,,,,100,,,,,,,Space,keypress(Space),,,,,,,,-- the ---- --- ------ ----- ------- ---- -- --- ------- --<br>------- ---------- ------ -- ----- -- ----- -- ---- ------<br>--- ----- --- --- ------ -------- ----- --- ------ ----- --<br>----- ----- ---------- --- --- ------ ------ ---- -- ------<br>------- --- ------ ----- --- ---- ------- -- ---- --- --<br>------- ------,193624.35000000003,193623.5800000004,193212.967,193229.04000000015,193235.327,193631.634,,1,the
screen,html.Screen,1_1_1_1_2,2021-04-18T14:14:05.371Z,,,,,,,,,,,,,,,,54,,,,,,,,,,,,,,496.5410000002885,,response,,,,100,,,,,,,Space,keypress(Space),,,,,,,,-- --- time --- ------ ----- ------- ---- -- --- ------- --<br>------- ---------- ------ -- ----- -- ----- -- ---- ------<br>--- ----- --- --- ------ -------- ----- --- ------ ----- --<br>----- ----- ---------- --- --- ------ ------ ---- -- ------<br>------- --- ------ ----- --- ---- ------- -- ---- --- --<br>------- ------,194128.94500000039,194128.17500000028,193618.602,193624.5100000001,193631.634,194135.655,,2,time
screen,html.Screen,1_1_1_1_3,2021-04-18T14:14:05.706Z,,,,,,,,,,,,,,,,54,,,,,,,,,,,,,,327.52000000030966,,response,,,,100,,,,,,,Space,keypress(Space),,,,,,,,-- --- ---- the ------ ----- ------- ---- -- --- ------- --<br>------- ---------- ------ -- ----- -- ----- -- ---- ------<br>--- ----- --- --- ------ -------- ----- --- ------ ----- --<br>----- ----- ---------- --- --- ------ ------ ---- -- ------<br>------- --- ------ ----- --- ---- ------- -- ---- --- --<br>------- ------,194463.9400000001,194463.1750000003,194114.785,194129.09500000023,194135.655,194470.713,,3,the
screen,html.Screen,1_1_1_1_4,2021-04-18T14:14:06.128Z,,,,,,,,,,,,,,,,54,,,,,,,,,,,,,,413.9920000004058,,response,,,,100,,,,,,,Space,keypress(Space),,,,,,,,-- --- ---- --- French ----- ------- ---- -- --- ------- --<br>------- ---------- ------ -- ----- -- ----- -- ---- ------<br>--- ----- --- --- ------ -------- ----- --- ------ ----- --<br>----- ----- ---------- --- --- ------ ------ ---- -- ------<br>------- --- ------ ----- --- ---- ------- -- ---- --- --<br>------- ------,194885.47000000018,194884.7050000004,194452.214,194464.105,194470.713,194892.209,,4,French
screen,html.Screen,1_1_1_1_5,2021-04-18T14:14:06.322Z,,,,,,,,,,,,,,,,54,,,,,,,,,,,,,,186.56600000039907,,response,,,,100,,,,,,,Space,keypress(Space),,,,,,,,-- --- ---- --- ------ crown ------- ---- -- --- ------- --<br>------- ---------- ------ -- ----- -- ----- -- ---- ------<br>--- ----- --- --- ------ -------- ----- --- ------ ----- --<br>----- ----- ---------- --- --- ------ ------ ---- -- ------<br>------- --- ------ ----- --- ---- ------- -- ---- --- --<br>------- ------,195079.60000000003,195078.7750000004,194871.179,194885.62500000035,194892.209,195086.358,,5,crown
screen,html.Screen,1_1_1_1_6,2021-04-18T14:14:06.719Z,,,,,,,,,,,,,,,,54,,,,,,,,,,,,,,389.46200000011595,,response,,,,100,,,,,,,Space,keypress(Space),,,,,,,,-- --- ---- --- ------ ----- secured ---- -- --- ------- --<br>------- ---------- ------ -- ----- -- ----- -- ---- ------<br>--- ----- --- --- ------ -------- ----- --- ------ ----- --<br>----- ----- ---------- --- --- ------ ------ ---- -- ------<br>------- --- ------ ----- --- ---- ------- -- ---- --- --<br>------- ------,195476.70500000005,195475.82000000012,195075.651,195079.7550000002,195086.358,195484.051,,6,secured
screen,html.Screen,1_1_1_1_7,2021-04-18T14:14:07.155Z,,,,,,,,,,,,,,,,54,,,,,,,,,,,,,,427.2790000003588,,response,,,,100,,,,,,,Space,keypress(Space),,,,,,,,-- --- ---- --- ------ ----- ------- much -- --- ------- --<br>------- ---------- ------ -- ----- -- ----- -- ---- ------<br>--- ----- --- --- ------ -------- ----- --- ------ ----- --<br>----- ----- ---------- --- --- ------ ------ ---- -- ------<br>------- --- ------ ----- --- ---- ------- -- ---- --- --<br>------- ------,195912.14000000036,195911.33000000037,195469.76,195476.86000000022,195484.051,195918.922,,7,much
screen,html.Screen,1_1_1_1_8,2021-04-18T14:14:07.653Z,,,,,,,,,,,,,,,,54,,,,,,,,,,,,,,490.77300000030664,,response,,,,100,,,,,,,Space,keypress(Space),,,,,,,,-- --- ---- --- ------ ----- ------- ---- of --- ------- --<br>------- ---------- ------ -- ----- -- ----- -- ---- ------<br>--- ----- --- --- ------ -------- ----- --- ------ ----- --<br>----- ----- ---------- --- --- ------ ------ ---- -- ------<br>------- --- ------ ----- --- ---- ------- -- ---- --- --<br>------- ------,196410.53500000044,196409.6950000003,195900.039,195912.2950000001,195918.922,196417.926,,8,of
screen,html.Screen,1_1_1_1_9,2021-04-18T14:14:08.015Z,,,,,,,,,,,,,,,,54,,,,,,,,,,,,,,353.60400000042864,,response,,,,100,,,,,,,Space,keypress(Space),,,,,,,,-- --- ---- --- ------ ----- ------- ---- -- its ------- --<br>------- ---------- ------ -- ----- -- ----- -- ---- ------<br>--- ----- --- --- ------ -------- ----- --- ------ ----- --<br>----- ----- ---------- --- --- ------ ------ ---- -- ------<br>------- --- ------ ----- --- ---- ------- -- ---- --- --<br>------- ------,196772.39500000043,196771.53000000044,196402.578,196410.69500000004,196417.926,196779.089,,9,its
screen,html.Screen,1_1_1_1_10,2021-04-18T14:14:08.403Z,,,,,,,,,,,,,,,,54,,,,,,,,,,,,,,380.35100000034436,,response,,,,100,,,,,,,Space,keypress(Space),,,,,,,,-- --- ---- --- ------ ----- ------- ---- -- --- revenue --<br>------- ---------- ------ -- ----- -- ----- -- ---- ------<br>--- ----- --- --- ------ -------- ----- --- ------ ----- --<br>----- ----- ---------- --- --- ------ ------ ---- -- ------<br>------- --- ------ ----- --- ---- ------- -- ---- --- --<br>------- ------,197160.1800000003,197159.44000000035,196767.831,196772.54500000027,196779.089,197166.879,,10,revenue
screen,html.Screen,1_1_1_1_11,2021-04-18T14:14:08.865Z,,,,,,,,,,,,,,,,54,,,,,,,,,,,,,,454.9810000002035,,response,,,,100,,,,,,,Space,keypress(Space),,,,,,,,-- --- ---- --- ------ ----- ------- ---- -- --- ------- by<br>------- ---------- ------ -- ----- -- ----- -- ---- ------<br>--- ----- --- --- ------ -------- ----- --- ------ ----- --<br>----- ----- ---------- --- --- ------ ------ ---- -- ------<br>------- --- ------ ----- --- ---- ------- -- ---- --- --<br>------- ------,197622.63500000018,197621.8600000002,197145.94,197160.33000000016,197166.879,197629.232,,11,by
screen,html.Screen,1_1_1_1_12,2021-04-18T14:14:09.335Z,,,,,,,,,,,,,,,,54,,,,,,,,,,,,,,462.9030000003404,,response,,,,100,,,,,,,Space,keypress(Space),,,,,,,,-- --- ---- --- ------ ----- ------- ---- -- --- ------- --<br>issuing ---------- ------ -- ----- -- ----- -- ---- ------<br>--- ----- --- --- ------ -------- ----- --- ------ ----- --<br>----- ----- ---------- --- --- ------ ------ ---- -- ------<br>------- --- ------ ----- --- ---- ------- -- ---- --- --<br>------- ------,198092.91500000018,198092.13500000033,197617.013,197622.79000000036,197629.232,198099.739,,12,issuing
screen,html.Screen,1_1_1_1_13,2021-04-18T14:14:09.696Z,,,,,,,,,,,,,,,,54,,,,,,,,,,,,,,353.06100000001607,,response,,,,100,,,,,,,Space,keypress(Space),,,,,,,,-- --- ---- --- ------ ----- ------- ---- -- --- ------- --<br>------- government ------ -- ----- -- ----- -- ---- ------<br>--- ----- --- --- ------ -------- ----- --- ------ ----- --<br>----- ----- ---------- --- --- ------ ------ ---- -- ------<br>------- --- ------ ----- --- ---- ------- -- ---- --- --<br>------- ------,198453.6350000003,198452.80000000002,198079.237,198093.07000000036,198099.739,198460.357,,13,government
screen,html.Screen,1_1_1_1_14,2021-04-18T14:14:09.910Z,,,,,,,,,,,,,,,,54,,,,,,,,,,,,,,205.87300000028335,,response,,,,100,,,,,,,Space,keypress(Space),,,,,,,,-- --- ---- --- ------ ----- ------- ---- -- --- ------- --<br>------- ---------- bonds. -- ----- -- ----- -- ---- ------<br>--- ----- --- --- ------ -------- ----- --- ------ ----- --<br>----- ----- ---------- --- --- ------ ------ ---- -- ------<br>------- --- ------ ----- --- ---- ------- -- ---- --- --<br>------- ------,198667.0750000003,198666.23000000027,198450.131,198453.79000000004,198460.357,198673.684,,14,bonds.
screen,html.Screen,1_1_1_1_15,2021-04-18T14:14:11.106Z,,,,,,,,,,,,,,,,54,,,,,,,,,,,,,,1189.5110000003478,,response,,,,100,,,,,,,Space,keypress(Space),,,,,,,,-- --- ---- --- ------ ----- ------- ---- -- --- ------- --<br>------- ---------- ------ In ----- -- ----- -- ---- ------<br>--- ----- --- --- ------ -------- ----- --- ------ ----- --<br>----- ----- ---------- --- --- ------ ------ ---- -- ------<br>------- --- ------ ----- --- ---- ------- -- ---- --- --<br>------- ------,199863.97000000032,199863.19500000036,198660.55,198667.24000000022,198673.684,199870.575,,15,In
screen,html.Screen,1_1_1_1_16,2021-04-18T14:14:11.933Z,,,,,,,,,,,,,,,,54,,,,,,,,,,,,,,819.1350000000966,,response,,,,100,,,,,,,Space,keypress(Space),,,,,,,,"-- --- ---- --- ------ ----- ------- ---- -- --- ------- --<br>------- ---------- ------ -- 1727, -- ----- -- ---- ------<br>--- ----- --- --- ------ -------- ----- --- ------ ----- --<br>----- ----- ---------- --- --- ------ ------ ---- -- ------<br>------- --- ------ ----- --- ---- ------- -- ---- --- --<br>------- ------",200690.50500000003,200689.7100000001,199857.42,199864.12000000017,199870.575,200697.243,,16,"1727,"
screen,html.Screen,1_1_1_1_17,2021-04-18T14:14:12.371Z,,,,,,,,,,,,,,,,54,,,,,,,,,,,,,,430.22700000036275,,response,,,,100,,,,,,,Space,keypress(Space),,,,,,,,-- --- ---- --- ------ ----- ------- ---- -- --- ------- --<br>------- ---------- ------ -- ----- in ----- -- ---- ------<br>--- ----- --- --- ------ -------- ----- --- ------ ----- --<br>----- ----- ---------- --- --- ------ ------ ---- -- ------<br>------- --- ------ ----- --- ---- ------- -- ---- --- --<br>------- ------,201128.23000000027,201127.47000000035,200687.442,200690.68500000003,200697.243,201135.48,,17,in
screen,html.Screen,1_1_1_1_18,2021-04-18T14:14:12.836Z,,,,,,,,,,,,,,,,54,,,,,,,,,,,,,,457.49500000002445,,response,,,,100,,,,,,,Space,keypress(Space),,,,,,,,-- --- ---- --- ------ ----- ------- ---- -- --- ------- --<br>------- ---------- ------ -- ----- -- order -- ---- ------<br>--- ----- --- --- ------ -------- ----- --- ------ ----- --<br>----- ----- ---------- --- --- ------ ------ ---- -- ------<br>------- --- ------ ----- --- ---- ------- -- ---- --- --<br>------- ------,201593.75500000032,201592.97500000003,201114.209,201128.38000000012,201135.48,201600.564,,18,order
screen,html.Screen,1_1_1_1_19,2021-04-18T14:14:13.043Z,,,,,,,,,,,,,,,,54,,,,,,,,,,,,,,199.31100000013248,,response,,,,100,,,,,,,Space,keypress(Space),,,,,,,,-- --- ---- --- ------ ----- ------- ---- -- --- ------- --<br>------- ---------- ------ -- ----- -- ----- to ---- ------<br>--- ----- --- --- ------ -------- ----- --- ------ ----- --<br>----- ----- ---------- --- --- ------ ------ ---- -- ------<br>------- --- ------ ----- --- ---- ------- -- ---- --- --<br>------- ------,201800.65000000014,201799.87500000015,201584.906,201593.93500000032,201600.564,201807.36,,19,to
screen,html.Screen,1_1_1_1_20,2021-04-18T14:14:13.383Z,,,,,,,,,,,,,,,,54,,,,,,,,,,,,,,332.0950000004668,,response,,,,100,,,,,,,Space,keypress(Space),,,,,,,,-- --- ---- --- ------ ----- ------- ---- -- --- ------- --<br>------- ---------- ------ -- ----- -- ----- -- save ------<br>--- ----- --- --- ------ -------- ----- --- ------ ----- --<br>----- ----- ---------- --- --- ------ ------ ---- -- ------<br>------- --- ------ ----- --- ---- ------- -- ---- --- --<br>------- ------,202140.24000000017,202139.45500000045,201801.001,201800.8050000003,201807.36,202147.543,,20,save
screen,html.Screen,1_1_1_1_21,2021-04-18T14:14:13.771Z,,,,,,,,,,,,,,,,54,,,,,,,,,,,,,,380.0120000001043,,response,,,,100,,,,,,,Space,keypress(Space),,,,,,,,"-- --- ---- --- ------ ----- ------- ---- -- --- ------- --<br>------- ---------- ------ -- ----- -- ----- -- ---- money,<br>--- ----- --- --- ------ -------- ----- --- ------ ----- --<br>----- ----- ---------- --- --- ------ ------ ---- -- ------<br>------- --- ------ ----- --- ---- ------- -- ---- --- --<br>------- ------",202528.37000000046,202527.5550000001,202124.549,202140.39,202147.543,202534.994,,21,"money,"
screen,html.Screen,1_1_1_1_22,2021-04-18T14:14:14.158Z,,,,,,,,,,,,,,,,54,,,,,,,,,,,,,,379.7710000004445,,response,,,,100,,,,,,,Space,keypress(Space),,,,,,,,-- --- ---- --- ------ ----- ------- ---- -- --- ------- --<br>------- ---------- ------ -- ----- -- ----- -- ---- ------<br>the ----- --- --- ------ -------- ----- --- ------ ----- --<br>----- ----- ---------- --- --- ------ ------ ---- -- ------<br>------- --- ------ ----- --- ---- ------- -- ---- --- --<br>------- ------,202915.52500000034,202914.76500000045,202514.015,202528.51500000042,202534.994,202922.512,,22,the
screen,html.Screen,1_1_1_1_23,2021-04-18T14:14:14.511Z,,,,,,,,,,,,,,,,54,,,,,,,,,,,,,,345.1680000003835,,response,,,,100,,,,,,,Space,keypress(Space),,,,,,,,-- --- ---- --- ------ ----- ------- ---- -- --- ------- --<br>------- ---------- ------ -- ----- -- ----- -- ---- ------<br>--- state --- --- ------ -------- ----- --- ------ ----- --<br>----- ----- ---------- --- --- ------ ------ ---- -- ------<br>------- --- ------ ----- --- ---- ------- -- ---- --- --<br>------- ------,203268.4650000001,203267.68000000037,202902.129,202915.6750000002,202922.512,203275.146,,23,state
screen,html.Screen,1_1_1_1_24,2021-04-18T14:14:14.770Z,,,,,,,,,,,,,,,,54,,,,,,,,,,,,,,251.87400000044727,,response,,,,100,,,,,,,Space,keypress(Space),,,,,,,,-- --- ---- --- ------ ----- ------- ---- -- --- ------- --<br>------- ---------- ------ -- ----- -- ----- -- ---- ------<br>--- ----- cut --- ------ -------- ----- --- ------ ----- --<br>----- ----- ---------- --- --- ------ ------ ---- -- ------<br>------- --- ------ ----- --- ---- ------- -- ---- --- --<br>------- ------,203527.73500000013,203527.02000000046,203255.738,203268.6200000003,203275.146,203535.208,,24,cut
screen,html.Screen,1_1_1_1_25,2021-04-18T14:14:14.971Z,,,,,,,,,,,,,,,,54,,,,,,,,,,,,,,192.3070000000298,,response,,,,100,,,,,,,Space,keypress(Space),,,,,,,,-- --- ---- --- ------ ----- ------- ---- -- --- ------- --<br>------- ---------- ------ -- ----- -- ----- -- ---- ------<br>--- ----- --- the ------ -------- ----- --- ------ ----- --<br>----- ----- ---------- --- --- ------ ------ ---- -- ------<br>------- --- ------ ----- --- ---- ------- -- ---- --- --<br>------- ------,203728.35500000019,203727.51500000004,203525.656,203527.88500000042,203535.208,203734.999,,25,the
screen,html.Screen,1_1_1_1_26,2021-04-18T14:14:15.401Z,,,,,,,,,,,,,,,,54,,,,,,,,,,,,,,422.7060000000638,,response,,,,100,,,,,,,Space,keypress(Space),,,,,,,,-- --- ---- --- ------ ----- ------- ---- -- --- ------- --<br>------- ---------- ------ -- ----- -- ----- -- ---- ------<br>--- ----- --- --- bonds' -------- ----- --- ------ ----- --<br>----- ----- ---------- --- --- ------ ------ ---- -- ------<br>------- --- ------ ----- --- ---- ------- -- ---- --- --<br>------- ------,204158.49500000014,204157.70500000007,203717.914,203728.50500000003,203734.999,204165.753,,26,bonds'
screen,html.Screen,1_1_1_1_27,2021-04-18T14:14:15.913Z,,,,,,,,,,,,,,,,54,,,,,,,,,,,,,,503.9770000000717,,response,,,,100,,,,,,,Space,keypress(Space),,,,,,,,-- --- ---- --- ------ ----- ------- ---- -- --- ------- --<br>------- ---------- ------ -- ----- -- ----- -- ---- ------<br>--- ----- --- --- ------ interest ----- --- ------ ----- --<br>----- ----- ---------- --- --- ------ ------ ---- -- ------<br>------- --- ------ ----- --- ---- ------- -- ---- --- --<br>------- ------,204670.56000000003,204669.73000000007,204152.147,204158.6500000003,204165.753,204677.266,,27,interest
screen,html.Screen,1_1_1_1_28,2021-04-18T14:14:16.247Z,,,,,,,,,,,,,,,,54,,,,,,,,,,,,,,326.95400000025984,,response,,,,100,,,,,,,Space,keypress(Space),,,,,,,,-- --- ---- --- ------ ----- ------- ---- -- --- ------- --<br>------- ---------- ------ -- ----- -- ----- -- ---- ------<br>--- ----- --- --- ------ -------- rate. --- ------ ----- --<br>----- ----- ---------- --- --- ------ ------ ---- -- ------<br>------- --- ------ ----- --- ---- ------- -- ---- --- --<br>------- ------,205005.0100000003,205004.22000000026,204665.574,204670.7100000003,204677.266,205011.716,,28,rate.
screen,html.Screen,1_1_1_1_29,2021-04-18T14:14:16.617Z,,,,,,,,,,,,,,,,54,,,,,,,,,,,,,,362.2940000004601,,response,,,,100,,,,,,,Space,keypress(Space),,,,,,,,-- --- ---- --- ------ ----- ------- ---- -- --- ------- --<br>------- ---------- ------ -- ----- -- ----- -- ---- ------<br>--- ----- --- --- ------ -------- ----- The ------ ----- --<br>----- ----- ---------- --- --- ------ ------ ---- -- ------<br>------- --- ------ ----- --- ---- ------- -- ---- --- --<br>------- ------,205374.85500000004,205374.01000000045,204994.411,205005.16500000004,205011.716,205381.629,,29,The
screen,html.Screen,1_1_1_1_30,2021-04-18T14:14:16.808Z,,,,,,,,,,,,,,,,54,,,,,,,,,,,,,,183.23600000029546,,response,,,,100,,,,,,,Space,keypress(Space),,,,,,,,-- --- ---- --- ------ ----- ------- ---- -- --- ------- --<br>------- ---------- ------ -- ----- -- ----- -- ---- ------<br>--- ----- --- --- ------ -------- ----- --- market ----- --<br>----- ----- ---------- --- --- ------ ------ ---- -- ------<br>------- --- ------ ----- --- ---- ------- -- ---- --- --<br>------- ------,205565.71500000017,205564.86500000028,205361.575,205375.0100000002,205381.629,205572.357,,30,market
screen,html.Screen,1_1_1_1_31,2021-04-18T14:14:17.243Z,,,,,,,,,,,,,,,,54,,,,,,,,,,,,,,426.79800000044634,,response,,,,100,,,,,,,Space,keypress(Space),,,,,,,,-- --- ---- --- ------ ----- ------- ---- -- --- ------- --<br>------- ---------- ------ -- ----- -- ----- -- ---- ------<br>--- ----- --- --- ------ -------- ----- --- ------ value --<br>----- ----- ---------- --- --- ------ ------ ---- -- ------<br>------- --- ------ ----- --- ---- ------- -- ---- --- --<br>------- ------,206000.0200000004,205999.15500000044,205565.456,205565.88500000045,205572.357,206006.748,,31,value
screen,html.Screen,1_1_1_1_32,2021-04-18T14:14:17.418Z,,,,,,,,,,,,,,,,54,,,,,,,,,,,,,,167.932000000088,,response,,,,100,,,,,,,Space,keypress(Space),,,,,,,,-- --- ---- --- ------ ----- ------- ---- -- --- ------- --<br>------- ---------- ------ -- ----- -- ----- -- ---- ------<br>--- ----- --- --- ------ -------- ----- --- ------ ----- of<br>----- ----- ---------- --- --- ------ ------ ---- -- ------<br>------- --- ------ ----- --- ---- ------- -- ---- --- --<br>------- ------,206175.45500000005,206174.68000000008,205989.275,206000.17500000013,206006.748,206182.071,,32,of
screen,html.Screen,1_1_1_1_33,2021-04-18T14:14:17.799Z,,,,,,,,,,,,,,,,54,,,,,,,,,,,,,,373.999000000098,,response,,,,100,,,,,,,Space,keypress(Space),,,,,,,,-- --- ---- --- ------ ----- ------- ---- -- --- ------- --<br>------- ---------- ------ -- ----- -- ----- -- ---- ------<br>--- ----- --- --- ------ -------- ----- --- ------ ----- --<br>these ----- ---------- --- --- ------ ------ ---- -- ------<br>------- --- ------ ----- --- ---- ------- -- ---- --- --<br>------- ------,206556.8350000003,206556.0700000001,206173.38,206175.6150000001,206182.071,206563.61,,33,these
screen,html.Screen,1_1_1_1_34,2021-04-18T14:14:17.967Z,,,,,,,,,,,,,,,,54,,,,,,,,,,,,,,160.19000000023516,,response,,,,100,,,,,,,Space,keypress(Space),,,,,,,,-- --- ---- --- ------ ----- ------- ---- -- --- ------- --<br>------- ---------- ------ -- ----- -- ----- -- ---- ------<br>--- ----- --- --- ------ -------- ----- --- ------ ----- --<br>----- bonds ---------- --- --- ------ ------ ---- -- ------<br>------- --- ------ ----- --- ---- ------- -- ---- --- --<br>------- ------,206724.5850000004,206723.80000000022,206549.273,206556.99000000005,206563.61,206730.229,,34,bonds
screen,html.Screen,1_1_1_1_35,2021-04-18T14:14:18.132Z,,,,,,,,,,,,,,,,54,,,,,,,,,,,,,,158.58600000024308,,response,,,,100,,,,,,,Space,keypress(Space),,,,,,,,"-- --- ---- --- ------ ----- ------- ---- -- --- ------- --<br>------- ---------- ------ -- ----- -- ----- -- ---- ------<br>--- ----- --- --- ------ -------- ----- --- ------ ----- --<br>----- ----- plummeted, --- --- ------ ------ ---- -- ------<br>------- --- ------ ----- --- ---- ------- -- ---- --- --<br>------- ------",206889.65000000008,206888.81500000024,206714.108,206724.73500000025,206730.229,206902.872,,35,"plummeted,"
screen,html.Screen,1_1_1_1_36,2021-04-18T14:14:18.792Z,,,,,,,,,,,,,,,,54,,,,,,,,,,,,,,646.0180000000109,,response,,,,100,,,,,,,Space,keypress(Space),,,,,,,,-- --- ---- --- ------ ----- ------- ---- -- --- ------- --<br>------- ---------- ------ -- ----- -- ----- -- ---- ------<br>--- ----- --- --- ------ -------- ----- --- ------ ----- --<br>----- ----- ---------- and --- ------ ------ ---- -- ------<br>------- --- ------ ----- --- ---- ------- -- ---- --- --<br>------- ------,207549.6900000003,207548.89,206886.193,206889.79500000004,206902.872,207556.401,,36,and
screen,html.Screen,1_1_1_1_37,2021-04-18T14:14:18.962Z,,,,,,,,,,,,,,,,54,,,,,,,,,,,,,,162.58900000029826,,response,,,,100,,,,,,,Space,keypress(Space),,,,,,,,-- --- ---- --- ------ ----- ------- ---- -- --- ------- --<br>------- ---------- ------ -- ----- -- ----- -- ---- ------<br>--- ----- --- --- ------ -------- ----- --- ------ ----- --<br>----- ----- ---------- --- the ------ ------ ---- -- ------<br>------- --- ------ ----- --- ---- ------- -- ---- --- --<br>------- ------,207719.86000000016,207718.9900000003,207541.29,207549.83500000025,207556.401,207722.966,,37,the
screen,html.Screen,1_1_1_1_38,2021-04-18T14:14:19.113Z,,,,,,,,,,,,,,,,54,,,,,,,,,,,,,,147.15400000006775,,response,,,,100,,,,,,,Space,keypress(Space),,,,,,,,-- --- ---- --- ------ ----- ------- ---- -- --- ------- --<br>------- ---------- ------ -- ----- -- ----- -- ---- ------<br>--- ----- --- --- ------ -------- ----- --- ------ ----- --<br>----- ----- ---------- --- --- market ------ ---- -- ------<br>------- --- ------ ----- --- ---- ------- -- ---- --- --<br>------- ------,207870.96500000008,207870.12000000005,207706.8,207720.01500000033,207722.966,207878.726,,38,market
screen,html.Screen,1_1_1_1_39,2021-04-18T14:14:19.436Z,,,,,,,,,,,,,,,,54,,,,,,,,,,,,,,313.44400000027963,,response,,,,100,,,,,,,Space,keypress(Space),,,,,,,,-- --- ---- --- ------ ----- ------- ---- -- --- ------- --<br>------- ---------- ------ -- ----- -- ----- -- ---- ------<br>--- ----- --- --- ------ -------- ----- --- ------ ----- --<br>----- ----- ---------- --- --- ------ became ---- -- ------<br>------- --- ------ ----- --- ---- ------- -- ---- --- --<br>------- ------,208193.02500000002,208192.17000000027,207861.942,207871.11500000037,207878.726,208200.343,,39,became
screen,html.Screen,1_1_1_1_40,2021-04-18T14:14:19.737Z,,,,,,,,,,,,,,,,54,,,,,,,,,,,,,,293.0170000004,,response,,,,100,,,,,,,Space,keypress(Space),,,,,,,,-- --- ---- --- ------ ----- ------- ---- -- --- ------- --<br>------- ---------- ------ -- ----- -- ----- -- ---- ------<br>--- ----- --- --- ------ -------- ----- --- ------ ----- --<br>----- ----- ---------- --- --- ------ ------ wary -- ------<br>------- --- ------ ----- --- ---- ------- -- ---- --- --<br>------- ------,208494.11500000043,208493.3600000004,208178.619,208193.1950000003,208200.343,208500.771,,40,wary
screen,html.Screen,1_1_1_1_41,2021-04-18T14:14:19.913Z,,,,,,,,,,,,,,,,54,,,,,,,,,,,,,,169.0040000003064,,response,,,,100,,,,,,,Space,keypress(Space),,,,,,,,-- --- ---- --- ------ ----- ------- ---- -- --- ------- --<br>------- ---------- ------ -- ----- -- ----- -- ---- ------<br>--- ----- --- --- ------ -------- ----- --- ------ ----- --<br>----- ----- ---------- --- --- ------ ------ ---- of ------<br>------- --- ------ ----- --- ---- ------- -- ---- --- --<br>------- ------,208670.58000000042,208669.7750000003,208483.634,208494.27000000014,208500.771,208677.139,,41,of
screen,html.Screen,1_1_1_1_42,2021-04-18T14:14:20.278Z,,,,,,,,,,,,,,,,54,,,,,,,,,,,,,,357.6910000000498,,response,,,,100,,,,,,,Space,keypress(Space),,,,,,,,-- --- ---- --- ------ ----- ------- ---- -- --- ------- --<br>------- ---------- ------ -- ----- -- ----- -- ---- ------<br>--- ----- --- --- ------ -------- ----- --- ------ ----- --<br>----- ----- ---------- --- --- ------ ------ ---- -- French<br>------- --- ------ ----- --- ---- ------- -- ---- --- --<br>------- ------,209035.57500000033,209034.83000000005,208667.756,208670.7250000004,208677.139,209042.219,,42,French
screen,html.Screen,1_1_1_1_43,2021-04-18T14:14:20.468Z,,,,,,,,,,,,,,,,54,,,,,,,,,,,,,,182.85100000040256,,response,,,,100,,,,,,,Space,keypress(Space),,,,,,,,-- --- ---- --- ------ ----- ------- ---- -- --- ------- --<br>------- ---------- ------ -- ----- -- ----- -- ---- ------<br>--- ----- --- --- ------ -------- ----- --- ------ ----- --<br>----- ----- ---------- --- --- ------ ------ ---- -- ------<br>credit. --- ------ ----- --- ---- ------- -- ---- --- --<br>------- ------,209225.91500000044,209225.0700000004,209027.712,209035.7350000004,209042.219,209232.528,,43,credit.
screen,html.Screen,1_1_1_1_44,2021-04-18T14:14:20.653Z,,,,,,,,,,,,,,,,54,,,,,,,,,,,,,,176.75700000018696,,response,,,,100,,,,,,,Space,keypress(Space),,,,,,,,-- --- ---- --- ------ ----- ------- ---- -- --- ------- --<br>------- ---------- ------ -- ----- -- ----- -- ---- ------<br>--- ----- --- --- ------ -------- ----- --- ------ ----- --<br>----- ----- ---------- --- --- ------ ------ ---- -- ------<br>------- The ------ ----- --- ---- ------- -- ---- --- --<br>------- ------,209410.06500000003,209409.28500000018,209226.152,209226.0650000003,209232.528,209416.734,,44,The
screen,html.Screen,1_1_1_1_45,2021-04-18T14:14:21.170Z,,,,,,,,,,,,,,,,54,,,,,,,,,,,,,,510.2560000004014,,response,,,,100,,,,,,,Space,keypress(Space),,,,,,,,-- --- ---- --- ------ ----- ------- ---- -- --- ------- --<br>------- ---------- ------ -- ----- -- ----- -- ---- ------<br>--- ----- --- --- ------ -------- ----- --- ------ ----- --<br>----- ----- ---------- --- --- ------ ------ ---- -- ------<br>------- --- French ----- --- ---- ------- -- ---- --- --<br>------- ------,209927.77000000025,209926.9900000004,209399.705,209410.2200000002,209416.734,209934.419,,45,French
screen,html.Screen,1_1_1_1_46,2021-04-18T14:14:21.334Z,,,,,,,,,,,,,,,,54,,,,,,,,,,,,,,156.19100000019534,,response,,,,100,,,,,,,Space,keypress(Space),,,,,,,,-- --- ---- --- ------ ----- ------- ---- -- --- ------- --<br>------- ---------- ------ -- ----- -- ----- -- ---- ------<br>--- ----- --- --- ------ -------- ----- --- ------ ----- --<br>----- ----- ---------- --- --- ------ ------ ---- -- ------<br>------- --- ------ state --- ---- ------- -- ---- --- --<br>------- ------,210091.31500000012,210090.6100000002,209916.92,209927.9200000001,209934.419,210101.708,,46,state
screen,html.Screen,1_1_1_1_47,2021-04-18T14:14:21.692Z,,,,,,,,,,,,,,,,54,,,,,,,,,,,,,,347.0770000000193,,response,,,,100,,,,,,,Space,keypress(Space),,,,,,,,-- --- ---- --- ------ ----- ------- ---- -- --- ------- --<br>------- ---------- ------ -- ----- -- ----- -- ---- ------<br>--- ----- --- --- ------ -------- ----- --- ------ ----- --<br>----- ----- ---------- --- --- ------ ------ ---- -- ------<br>------- --- ------ ----- was ---- ------- -- ---- --- --<br>------- ------,210449.55000000028,210448.78500000003,210085.048,210091.4600000001,210101.708,210456.329,,47,was
screen,html.Screen,1_1_1_1_48,2021-04-18T14:14:21.870Z,,,,,,,,,,,,,,,,54,,,,,,,,,,,,,,170.67100000040955,,response,,,,100,,,,,,,Space,keypress(Space),,,,,,,,-- --- ---- --- ------ ----- ------- ---- -- --- ------- --<br>------- ---------- ------ -- ----- -- ----- -- ---- ------<br>--- ----- --- --- ------ -------- ----- --- ------ ----- --<br>----- ----- ---------- --- --- ------ ------ ---- -- ------<br>------- --- ------ ----- --- left ------- -- ---- --- --<br>------- ------,210627.79000000044,210627.0000000004,210440.346,210449.70500000045,210456.329,210634.358,,48,left
screen,html.Screen,1_1_1_1_49,2021-04-18T14:14:22.031Z,,,,,,,,,,,,,,,,54,,,,,,,,,,,,,,153.23700000022654,,response,,,,100,,,,,,,Space,keypress(Space),,,,,,,,-- --- ---- --- ------ ----- ------- ---- -- --- ------- --<br>------- ---------- ------ -- ----- -- ----- -- ---- ------<br>--- ----- --- --- ------ -------- ----- --- ------ ----- --<br>----- ----- ---------- --- --- ------ ------ ---- -- ------<br>------- --- ------ ----- --- ---- without -- ---- --- --<br>------- ------,210788.3850000003,210787.59500000023,210623.465,210627.9400000003,210634.358,210801.651,,49,without
screen,html.Screen,1_1_1_1_50,2021-04-18T14:14:22.404Z,,,,,,,,,,,,,,,,54,,,,,,,,,,,,,,358.9190000004601,,response,,,,100,,,,,,,Space,keypress(Space),,,,,,,,-- --- ---- --- ------ ----- ------- ---- -- --- ------- --<br>------- ---------- ------ -- ----- -- ----- -- ---- ------<br>--- ----- --- --- ------ -------- ----- --- ------ ----- --<br>----- ----- ---------- --- --- ------ ------ ---- -- ------<br>------- --- ------ ----- --- ---- ------- an ---- --- --<br>------- ------,211161.33000000037,211160.57000000047,210784.972,210788.53000000026,210801.651,211168.111,,50,an
screen,html.Screen,1_1_1_1_51,2021-04-18T14:14:22.581Z,,,,,,,,,,,,,,,,54,,,,,,,,,,,,,,169.3240000003716,,response,,,,100,,,,,,,Space,keypress(Space),,,,,,,,-- --- ---- --- ------ ----- ------- ---- -- --- ------- --<br>------- ---------- ------ -- ----- -- ----- -- ---- ------<br>--- ----- --- --- ------ -------- ----- --- ------ ----- --<br>----- ----- ---------- --- --- ------ ------ ---- -- ------<br>------- --- ------ ----- --- ---- ------- -- easy --- --<br>------- ------,211338.29500000048,211337.43500000038,211156.725,211161.47500000033,211168.111,211344.963,,51,easy
screen,html.Screen,1_1_1_1_52,2021-04-18T14:14:22.949Z,,,,,,,,,,,,,,,,54,,,,,,,,,,,,,,360.9570000003441,,response,,,,100,,,,,,,Space,keypress(Space),,,,,,,,-- --- ---- --- ------ ----- ------- ---- -- --- ------- --<br>------- ---------- ------ -- ----- -- ----- -- ---- ------<br>--- ----- --- --- ------ -------- ----- --- ------ ----- --<br>----- ----- ---------- --- --- ------ ------ ---- -- ------<br>------- --- ------ ----- --- ---- ------- -- ---- way --<br>------- ------,211706.68000000023,211705.92000000033,211335.255,211338.44500000033,211344.963,211713.392,,52,way
screen,html.Screen,1_1_1_1_53,2021-04-18T14:14:23.270Z,,,,,,,,,,,,,,,,54,,,,,,,,,,,,,,313.49800000010873,,response,,,,100,,,,,,,Space,keypress(Space),,,,,,,,-- --- ---- --- ------ ----- ------- ---- -- --- ------- --<br>------- ---------- ------ -- ----- -- ----- -- ---- ------<br>--- ----- --- --- ------ -------- ----- --- ------ ----- --<br>----- ----- ---------- --- --- ------ ------ ---- -- ------<br>------- --- ------ ----- --- ---- ------- -- ---- --- of<br>------- ------,212027.73000000024,212026.8900000001,211695.161,211706.8400000003,211713.392,212035.007,,53,of
screen,html.Screen,1_1_1_1_54,2021-04-18T14:14:23.615Z,,,,,,,,,,,,,,,,54,,,,,,,,,,,,,,336.3880000001227,,response,,,,100,,,,,,,Space,keypress(Space),,,,,,,,-- --- ---- --- ------ ----- ------- ---- -- --- ------- --<br>------- ---------- ------ -- ----- -- ----- -- ---- ------<br>--- ----- --- --- ------ -------- ----- --- ------ ----- --<br>----- ----- ---------- --- --- ------ ------ ---- -- ------<br>------- --- ------ ----- --- ---- ------- -- ---- --- --<br>raising ------,212372.1650000002,212371.39500000014,212013.923,212027.8800000001,212035.007,212379.588,,54,raising
screen,html.Screen,1_1_1_1_55,2021-04-18T14:14:23.826Z,,,,,,,,,,,,,,,,54,,,,,,,,,,,,,,203.2420000002894,,response,,,,100,,,,,,,Space,keypress(Space),,,,,,,,-- --- ---- --- ------ ----- ------- ---- -- --- ------- --<br>------- ---------- ------ -- ----- -- ----- -- ---- ------<br>--- ----- --- --- ------ -------- ----- --- ------ ----- --<br>----- ----- ---------- --- --- ------ ------ ---- -- ------<br>------- --- ------ ----- --- ---- ------- -- ---- --- --<br>------- money.,212583.64500000016,212582.83000000028,212368.037,212372.31500000006,212379.588,212590.644,,55,money.
Item 100,flow.Loop,1_1_1_1,2021-04-18T14:14:23.826Z,,,,,,,,,,,,,,,,,,,,,,,,,,,,,,20252.92400000029,,completion,,,,,F,,,,,,,,,,,silence,,,,,212583.90000000008,212582.83000000028,192313.22,192314.03000000046,192329.906,212590.644,,,
Question 1,html.Screen,1_1_1_2,2021-04-18T14:14:25.696Z,,,,,,,,,,,,,,,,,,,,,,,,,,,true,TRUE,,1861.1760000002396,,response,,,,100,F,,,,,,TRUE,click #choice-1,,,,silence,,,,,214453.34500000035,214451.82000000024,212579.086,212584.01000000004,212590.644,214457.709,,,
Question 2,html.Screen,1_1_1_3,2021-04-18T14:14:28.160Z,,,,,,,,,,,,,,,,,,,,,,,,,,,true,FALSE,,2458.4010000001,,response,,,,100,F,,,,,,FALSE,click #choice-2,,,,silence,,,,,216917.75000000006,216916.1100000001,214448.715,214453.51500000016,214457.709,216922.072,,,
Item 100,flow.Sequence,1_1_1,2021-04-18T14:14:28.160Z,,,,,,,,,,,,,,,,,,,,,,,,,,,,,,34580.24500000011,,completion,,,,,,,,,,,,,,,,,,,,,216918.0150000002,216916.1100000001,182324.832,182331.87000000043,182335.865,216922.072,,,
End of Practice,html.Page,1_1_2,2021-04-18T14:14:30.461Z,,,,,,,,,,,,,,,,,,,,,,,,,,,,,,2296.1580000004033,,form submission,,,,,,,,,,,,,,,,,,,,,219218.51000000015,219218.2300000004,216905.603,216918.12500000015,216922.072,219222.674,,,
Practice,flow.Sequence,1_1,2021-04-18T14:14:30.461Z,,,,,,,,,,,,,,,,,,,,,,,,,,,,,,74175.67300000039,,completion,,,,,,,,,,,,,,,,,,,,,219218.73000000004,219218.2300000004,145026.508,145041.73000000036,145042.557,219222.674,,,
Trap_instruction,html.Page,1_2_0,2021-04-18T14:14:36.611Z,,,,,,,,,,,,,,,,,,,,,,,,,,,,,,6145.661000000109,,form submission,,,,,,,,,,,,,,,,,,,,,225368.6600000001,225368.3350000001,219205.21,219218.88000000035,219222.674,225373.368,,,
trap_trial,html.Screen,1_2_1,2021-04-18T14:14:40.330Z,,,,,,,,,,,,,,,,,,,,,,,,,,,true,1,,3712.7670000004873,,response,,,,,,,,,,,1,click #choice-1,,,,,,,,,229087.3300000003,229086.13500000047,225356.973,225368.8000000002,225373.368,229091.573,,,
end of trap trial,html.Page,1_2_2,2021-04-18T14:14:42.475Z,,,,,,,,,,,,,,,,,,,,,,,,,,,,,,2141.097000000329,,form submission,,,,,,,,,,,,,,,,,,,,,231232.97500000036,231232.67000000033,229077.734,229087.54500000033,229091.573,231232.828,,,
Trap 1,flow.Sequence,1_2,2021-04-18T14:14:42.476Z,,,,,,,,,,,,,,,,,,,,,,,,,,,,,,12009.996000000334,,completion,,,,,,,,,,,,,,,,,,,,,231233.33000000002,231232.67000000033,219205.21,219218.84000000046,219222.674,231232.828,,,
Standby,html.Page,1_3_0,2021-04-18T14:14:50.453Z,,,,,,,,,,,,,,,,,,,,,,,,,,,,,,7992.992999999988,,timeout,,,,,,,,,,,,,,,,,,,,,239210.45000000004,239209.682,231216.243,231233.50500000015,231232.828,239225.821,,,
Holding screen,html.Screen,1_3_1_0_0,2021-04-18T14:14:57.466Z,,,,,,,,,,,,,,,,,,,,,,,,,,,,,,7007.189000000013,,timeout,,,,,,,,,,,,,,,,,,,,,246218.96500000003,246215.718,239209.682,239210.75500000006,239225.821,246233.01,,,
screen,html.Screen,1_3_1_0_1_0,2021-04-18T14:14:58.079Z,,,,,,,,,,,,,,,,51,,,,,,,,,,,,,,598.5550000004005,,response,,,,13,F,,,,,,Space,keypress(Space),,,,instrumental,,,,American -------- --- --- ---- --- --- ------ -- --------<br>---- --------- --- ------- ------------ ---------- ---------<br>--- ---------- ------- ---------- ------- -- -------- ----<br>---- --- ------ ----- ------ -- ---- --- ----- -- - -------<br>-------- -- --- --- -- ----- ----------- ----- -----------<br>---- --- ---------- --- ---- --- -- ----------,246832.42500000005,246831.5650000004,246215.718,246219.19000000026,246233.01,246838.519,,0,American
screen,html.Screen,1_3_1_0_1_1,2021-04-18T14:14:58.395Z,,,,,,,,,,,,,,,,51,,,,,,,,,,,,,,308.8310000001802,,response,,,,13,F,,,,,,Space,keypress(Space),,,,instrumental,,,,-------- industry --- --- ---- --- --- ------ -- --------<br>---- --------- --- ------- ------------ ---------- ---------<br>--- ---------- ------- ---------- ------- -- -------- ----<br>---- --- ------ ----- ------ -- ---- --- ----- -- - -------<br>-------- -- --- --- -- ----- ----------- ----- -----------<br>---- --- ---------- --- ---- --- -- ----------,247148.20500000042,247147.35000000018,246832.283,246832.61500000025,246838.519,247155.632,,1,industry
screen,html.Screen,1_3_1_0_1_2,2021-04-18T14:14:58.751Z,,,,,,,,,,,,,,,,51,,,,,,,,,,,,,,347.57800000029965,,response,,,,13,F,,,,,,Space,keypress(Space),,,,instrumental,,,,-------- -------- may --- ---- --- --- ------ -- --------<br>---- --------- --- ------- ------------ ---------- ---------<br>--- ---------- ------- ---------- ------- -- -------- ----<br>---- --- ------ ----- ------ -- ---- --- ----- -- - -------<br>-------- -- --- --- -- ----- ----------- ----- -----------<br>---- --- ---------- --- ---- --- -- ----------,247504.03500000038,247503.2100000003,247138.899,247148.41500000012,247155.632,247511.234,,2,may
screen,html.Screen,1_3_1_0_1_3,2021-04-18T14:14:59.125Z,,,,,,,,,,,,,,,,51,,,,,,,,,,,,,,366.24600000010105,,response,,,,13,F,,,,,,Space,keypress(Space),,,,instrumental,,,,-------- -------- --- not ---- --- --- ------ -- --------<br>---- --------- --- ------- ------------ ---------- ---------<br>--- ---------- ------- ---------- ------- -- -------- ----<br>---- --- ------ ----- ------ -- ---- --- ----- -- - -------<br>-------- -- --- --- -- ----- ----------- ----- -----------<br>---- --- ---------- --- ---- --- -- ----------,247878.3000000003,247877.4800000001,247488.776,247504.18500000023,247511.234,247884.951,,3,not
screen,html.Screen,1_3_1_0_1_4,2021-04-18T14:14:59.463Z,,,,,,,,,,,,,,,,51,,,,,,,,,,,,,,329.9490000004007,,response,,,,13,F,,,,,,Space,keypress(Space),,,,instrumental,,,,-------- -------- --- --- know --- --- ------ -- --------<br>---- --------- --- ------- ------------ ---------- ---------<br>--- ---------- ------- ---------- ------- -- -------- ----<br>---- --- ------ ----- ------ -- ---- --- ----- -- - -------<br>-------- -- --- --- -- ----- ----------- ----- -----------<br>---- --- ---------- --- ---- --- -- ----------,248215.70500000007,248214.9000000004,247877.869,247878.45000000016,247884.951,248222.528,,4,know
screen,html.Screen,1_3_1_0_1_5,2021-04-18T14:14:59.866Z,,,,,,,,,,,,,,,,51,,,,,,,,,,,,,,396.1070000002801,,response,,,,13,F,,,,,,Space,keypress(Space),,,,instrumental,,,,"-------- -------- --- --- ---- it, --- ------ -- --------<br>---- --------- --- ------- ------------ ---------- ---------<br>--- ---------- ------- ---------- ------- -- -------- ----<br>---- --- ------ ----- ------ -- ---- --- ----- -- - -------<br>-------- -- --- --- -- ----- ----------- ----- -----------<br>---- --- ---------- --- ---- --- -- ----------",248619.40500000038,248618.63500000027,248201.897,248215.86000000025,248222.528,248626.093,,5,"it,"
screen,html.Screen,1_3_1_0_1_6,2021-04-18T14:15:00.235Z,,,,,,,,,,,,,,,,51,,,,,,,,,,,,,,361.2620000002207,,response,,,,13,F,,,,,,Space,keypress(Space),,,,instrumental,,,,-------- -------- --- --- ---- --- but ------ -- --------<br>---- --------- --- ------- ------------ ---------- ---------<br>--- ---------- ------- ---------- ------- -- -------- ----<br>---- --- ------ ----- ------ -- ---- --- ----- -- - -------<br>-------- -- --- --- -- ----- ----------- ----- -----------<br>---- --- ---------- --- ---- --- -- ----------,248988.20000000024,248987.3550000002,248605.798,248619.56000000008,248626.093,248994.809,,6,but
screen,html.Screen,1_3_1_0_1_7,2021-04-18T14:15:00.438Z,,,,,,,,,,,,,,,,51,,,,,,,,,,,,,,195.23100000040722,,response,,,,13,F,,,,,,Space,keypress(Space),,,,instrumental,,,,-------- -------- --- --- ---- --- --- debate -- --------<br>---- --------- --- ------- ------------ ---------- ---------<br>--- ---------- ------- ---------- ------- -- -------- ----<br>---- --- ------ ----- ------ -- ---- --- ----- -- - -------<br>-------- -- --- --- -- ----- ----------- ----- -----------<br>---- --- ---------- --- ---- --- -- ----------,249190.87500000023,249190.04000000042,248976.286,248988.35500000042,248994.809,249197.617,,7,debate
screen,html.Screen,1_3_1_0_1_8,2021-04-18T14:15:00.809Z,,,,,,,,,,,,,,,,51,,,,,,,,,,,,,,363.57800000024145,,response,,,,13,F,,,,,,Space,keypress(Space),,,,instrumental,,,,-------- -------- --- --- ---- --- --- ------ in --------<br>---- --------- --- ------- ------------ ---------- ---------<br>--- ---------- ------- ---------- ------- -- -------- ----<br>---- --- ------ ----- ------ -- ---- --- ----- -- - -------<br>-------- -- --- --- -- ----- ----------- ----- -----------<br>---- --- ---------- --- ---- --- -- ----------,249561.99000000017,249561.19500000024,249178.427,249191.0350000003,249197.617,249568.757,,8,in
screen,html.Screen,1_3_1_0_1_9,2021-04-18T14:15:01.381Z,,,,,,,,,,,,,,,,51,,,,,,,,,,,,,,564.4930000003078,,response,,,,13,F,,,,,,Space,keypress(Space),,,,instrumental,,,,-------- -------- --- --- ---- --- --- ------ -- Congress<br>---- --------- --- ------- ------------ ---------- ---------<br>--- ---------- ------- ---------- ------- -- -------- ----<br>---- --- ------ ----- ------ -- ---- --- ----- -- - -------<br>-------- -- --- --- -- ----- ----------- ----- -----------<br>---- --- ---------- --- ---- --- -- ----------,250134.0150000001,250133.25000000032,249547.791,249562.14000000045,249568.757,250141.261,,9,Congress
screen,html.Screen,1_3_1_0_1_10,2021-04-18T14:15:01.707Z,,,,,,,,,,,,,,,,51,,,,,,,,,,,,,,318.14900000038324,,response,,,,13,F,,,,,,Space,keypress(Space),,,,instrumental,,,,-------- -------- --- --- ---- --- --- ------ -- --------<br>over --------- --- ------- ------------ ---------- ---------<br>--- ---------- ------- ---------- ------- -- -------- ----<br>---- --- ------ ----- ------ -- ---- --- ----- -- - -------<br>-------- -- --- --- -- ----- ----------- ----- -----------<br>---- --- ---------- --- ---- --- -- ----------,250460.17000000027,250459.41000000038,250119.189,250134.17000000027,250141.261,250466.841,,10,over
screen,html.Screen,1_3_1_0_1_11,2021-04-18T14:15:01.955Z,,,,,,,,,,,,,,,,51,,,,,,,,,,,,,,240.39900000020862,,response,,,,13,F,,,,,,Space,keypress(Space),,,,instrumental,,,,-------- -------- --- --- ---- --- --- ------ -- --------<br>---- reforming --- ------- ------------ ---------- ---------<br>--- ---------- ------- ---------- ------- -- -------- ----<br>---- --- ------ ----- ------ -- ---- --- ----- -- - -------<br>-------- -- --- --- -- ----- ----------- ----- -----------<br>---- --- ---------- --- ---- --- -- ----------,250708.02500000037,250707.2400000002,250457.88,250460.32000000012,250466.841,250714.645,,11,reforming
screen,html.Screen,1_3_1_0_1_12,2021-04-18T14:15:02.405Z,,,,,,,,,,,,,,,,51,,,,,,,,,,,,,,442.74000000042724,,response,,,,13,F,,,,,,Space,keypress(Space),,,,instrumental,,,,-------- -------- --- --- ---- --- --- ------ -- --------<br>---- --------- the ------- ------------ ---------- ---------<br>--- ---------- ------- ---------- ------- -- -------- ----<br>---- --- ------ ----- ------ -- ---- --- ----- -- - -------<br>-------- -- --- --- -- ----- ----------- ----- -----------<br>---- --- ---------- --- ---- --- -- ----------,251158.23500000034,251157.38500000042,250700.727,250708.18000000008,250714.645,251164.869,,12,the
screen,html.Screen,1_3_1_0_1_13,2021-04-18T14:15:02.600Z,,,,,,,,,,,,,,,,51,,,,,,,,,,,,,,187.06600000013714,,response,,,,13,F,,,,,,Space,keypress(Space),,,,instrumental,,,,-------- -------- --- --- ---- --- --- ------ -- --------<br>---- --------- --- federal ------------ ---------- ---------<br>--- ---------- ------- ---------- ------- -- -------- ----<br>---- --- ------ ----- ------ -- ---- --- ----- -- - -------<br>-------- -- --- --- -- ----- ----------- ----- -----------<br>---- --- ---------- --- ---- --- -- ----------,251352.68000000043,251351.93500000014,251148.411,251158.3800000003,251164.869,251359.482,,13,federal
screen,html.Screen,1_3_1_0_1_14,2021-04-18T14:15:03.212Z,,,,,,,,,,,,,,,,51,,,,,,,,,,,,,,605.1830000004265,,response,,,,13,F,,,,,,Space,keypress(Space),,,,instrumental,,,,-------- -------- --- --- ---- --- --- ------ -- --------<br>---- --------- --- ------- government's ---------- ---------<br>--- ---------- ------- ---------- ------- -- -------- ----<br>---- --- ------ ----- ------ -- ---- --- ----- -- - -------<br>-------- -- --- --- -- ----- ----------- ----- -----------<br>---- --- ---------- --- ---- --- -- ----------,251965.48500000016,251964.66500000042,251348.829,251352.83500000014,251359.482,251972.359,,14,government's
screen,html.Screen,1_3_1_0_1_15,2021-04-18T14:15:03.614Z,,,,,,,,,,,,,,,,51,,,,,,,,,,,,,,394.106000000058,,response,,,,13,F,,,,,,Space,keypress(Space),,,,instrumental,,,,-------- -------- --- --- ---- --- --- ------ -- --------<br>---- --------- --- ------- ------------ regulatory ---------<br>--- ---------- ------- ---------- ------- -- -------- ----<br>---- --- ------ ----- ------ -- ---- --- ----- -- - -------<br>-------- -- --- --- -- ----- ----------- ----- -----------<br>---- --- ---------- --- ---- --- -- ----------,252367.2200000001,252366.46500000005,251959.766,251965.61500000008,251972.359,252374.408,,15,regulatory
screen,html.Screen,1_3_1_0_1_16,2021-04-18T14:15:04.239Z,,,,,,,,,,,,,,,,51,,,,,,,,,,,,,,617.0920000000915,,response,,,,13,F,,,,,,Space,keypress(Space),,,,instrumental,,,,-------- -------- --- --- ---- --- --- ------ -- --------<br>---- --------- --- ------- ------------ ---------- apparatus<br>--- ---------- ------- ---------- ------- -- -------- ----<br>---- --- ------ ----- ------ -- ---- --- ----- -- - -------<br>-------- -- --- --- -- ----- ----------- ----- -----------<br>---- --- ---------- --- ---- --- -- ----------,252992.2700000002,252991.5000000001,252355.506,252367.37500000026,252374.408,252999.261,,16,apparatus
screen,html.Screen,1_3_1_0_1_17,2021-04-18T14:15:04.630Z,,,,,,,,,,,,,,,,51,,,,,,,,,,,,,,383.24900000035996,,response,,,,13,F,,,,,,Space,keypress(Space),,,,instrumental,,,,-------- -------- --- --- ---- --- --- ------ -- --------<br>---- --------- --- ------- ------------ ---------- ---------<br>may ---------- ------- ---------- ------- -- -------- ----<br>---- --- ------ ----- ------ -- ---- --- ----- -- - -------<br>-------- -- --- --- -- ----- ----------- ----- -----------<br>---- --- ---------- --- ---- --- -- ----------,253383.37000000046,253382.51000000036,252990.316,252992.42000000004,252999.261,253390.311,,17,may
screen,html.Screen,1_3_1_0_1_18,2021-04-18T14:15:04.836Z,,,,,,,,,,,,,,,,51,,,,,,,,,,,,,,197.52400000026682,,response,,,,13,F,,,,,,Space,keypress(Space),,,,instrumental,,,,-------- -------- --- --- ---- --- --- ------ -- --------<br>---- --------- --- ------- ------------ ---------- ---------<br>--- profoundly ------- ---------- ------- -- -------- ----<br>---- --- ------ ----- ------ -- ---- --- ----- -- - -------<br>-------- -- --- --- -- ----- ----------- ----- -----------<br>---- --- ---------- --- ---- --- -- ----------,253588.6700000001,253587.83500000025,253382.502,253383.51500000045,253390.311,253595.29,,18,profoundly
screen,html.Screen,1_3_1_0_1_19,2021-04-18T14:15:05.287Z,,,,,,,,,,,,,,,,51,,,,,,,,,,,,,,443.70500000033644,,response,,,,13,F,,,,,,Space,keypress(Space),,,,instrumental,,,,-------- -------- --- --- ---- --- --- ------ -- --------<br>---- --------- --- ------- ------------ ---------- ---------<br>--- ---------- improve ---------- ------- -- -------- ----<br>---- --- ------ ----- ------ -- ---- --- ----- -- - -------<br>-------- -- --- --- -- ----- ----------- ----- -----------<br>---- --- ---------- --- ---- --- -- ----------,254039.81000000023,254038.99500000034,253573.714,253588.82000000039,253595.29,254047.191,,19,improve
screen,html.Screen,1_3_1_0_1_20,2021-04-18T14:15:05.497Z,,,,,,,,,,,,,,,,51,,,,,,,,,,,,,,201.79400000016904,,response,,,,13,F,,,,,,Space,keypress(Space),,,,instrumental,,,,-------- -------- --- --- ---- --- --- ------ -- --------<br>---- --------- --- ------- ------------ ---------- ---------<br>--- ---------- ------- companies' ------- -- -------- ----<br>---- --- ------ ----- ------ -- ---- --- ----- -- - -------<br>-------- -- --- --- -- ----- ----------- ----- -----------<br>---- --- ---------- --- ---- --- -- ----------,254249.72500000012,254248.98500000016,254029.164,254039.9650000004,254047.191,254257.144,,20,companies'
screen,html.Screen,1_3_1_0_1_21,2021-04-18T14:15:06.141Z,,,,,,,,,,,,,,,,51,,,,,,,,,,,,,,636.001000000455,,response,,,,13,F,,,,,,Space,keypress(Space),,,,instrumental,,,,-------- -------- --- --- ---- --- --- ------ -- --------<br>---- --------- --- ------- ------------ ---------- ---------<br>--- ---------- ------- ---------- ability -- -------- ----<br>---- --- ------ ----- ------ -- ---- --- ----- -- - -------<br>-------- -- --- --- -- ----- ----------- ----- -----------<br>---- --- ---------- --- ---- --- -- ----------,254893.89000000028,254893.14500000046,254246.762,254249.89000000004,254257.144,254900.625,,21,ability
screen,html.Screen,1_3_1_0_1_22,2021-04-18T14:15:06.319Z,,,,,,,,,,,,,,,,51,,,,,,,,,,,,,,170.49500000005355,,response,,,,13,F,,,,,,Space,keypress(Space),,,,instrumental,,,,-------- -------- --- --- ---- --- --- ------ -- --------<br>---- --------- --- ------- ------------ ---------- ---------<br>--- ---------- ------- ---------- ------- to -------- ----<br>---- --- ------ ----- ------ -- ---- --- ----- -- - -------<br>-------- -- --- --- -- ----- ----------- ----- -----------<br>---- --- ---------- --- ---- --- -- ----------,255071.91000000012,255071.12000000005,254889.877,254894.04000000012,254900.625,255078.694,,22,to
screen,html.Screen,1_3_1_0_1_23,2021-04-18T14:15:06.684Z,,,,,,,,,,,,,,,,51,,,,,,,,,,,,,,357.1610000001965,,response,,,,13,F,,,,,,Space,keypress(Space),,,,instrumental,,,,-------- -------- --- --- ---- --- --- ------ -- --------<br>---- --------- --- ------- ------------ ---------- ---------<br>--- ---------- ------- ---------- ------- -- survive. ----<br>---- --- ------ ----- ------ -- ---- --- ----- -- - -------<br>-------- -- --- --- -- ----- ----------- ----- -----------<br>---- --- ---------- --- ---- --- -- ----------,255436.8000000004,255435.85500000019,255067.772,255072.0650000003,255078.694,255443.444,,23,survive.
screen,html.Screen,1_3_1_0_1_24,2021-04-18T14:15:07.105Z,,,,,,,,,,,,,,,,51,,,,,,,,,,,,,,414.11600000038743,,response,,,,13,F,,,,,,Space,keypress(Space),,,,instrumental,,,,-------- -------- --- --- ---- --- --- ------ -- --------<br>---- --------- --- ------- ------------ ---------- ---------<br>--- ---------- ------- ---------- ------- -- -------- This<br>---- --- ------ ----- ------ -- ---- --- ----- -- - -------<br>-------- -- --- --- -- ----- ----------- ----- -----------<br>---- --- ---------- --- ---- --- -- ----------,255858.33000000002,255857.56000000038,255428.912,255436.98500000028,255443.444,255865.592,,24,This
screen,html.Screen,1_3_1_0_1_25,2021-04-18T14:15:07.484Z,,,,,,,,,,,,,,,,51,,,,,,,,,,,,,,370.6080000002694,,response,,,,13,F,,,,,,Space,keypress(Space),,,,instrumental,,,,-------- -------- --- --- ---- --- --- ------ -- --------<br>---- --------- --- ------- ------------ ---------- ---------<br>--- ---------- ------- ---------- ------- -- -------- ----<br>week --- ------ ----- ------ -- ---- --- ----- -- - -------<br>-------- -- --- --- -- ----- ----------- ----- -----------<br>---- --- ---------- --- ---- --- -- ----------,256237.02000000002,256236.20000000027,255844.018,255858.49000000008,255865.592,256243.777,,25,week
screen,html.Screen,1_3_1_0_1_26,2021-04-18T14:15:07.669Z,,,,,,,,,,,,,,,,51,,,,,,,,,,,,,,177.45300000038696,,response,,,,13,F,,,,,,Space,keypress(Space),,,,instrumental,,,,-------- -------- --- --- ---- --- --- ------ -- --------<br>---- --------- --- ------- ------------ ---------- ---------<br>--- ---------- ------- ---------- ------- -- -------- ----<br>---- the ------ ----- ------ -- ---- --- ----- -- - -------<br>-------- -- --- --- -- ----- ----------- ----- -----------<br>---- --- ---------- --- ---- --- -- ----------,256422.09500000035,256421.2300000004,256232.214,256237.17500000022,256243.777,256428.886,,26,the
screen,html.Screen,1_3_1_0_1_27,2021-04-18T14:15:08.055Z,,,,,,,,,,,,,,,,51,,,,,,,,,,,,,,378.164000000339,,response,,,,13,F,,,,,,Space,keypress(Space),,,,instrumental,,,,-------- -------- --- --- ---- --- --- ------ -- --------<br>---- --------- --- ------- ------------ ---------- ---------<br>--- ---------- ------- ---------- ------- -- -------- ----<br>---- --- Senate ----- ------ -- ---- --- ----- -- - -------<br>-------- -- --- --- -- ----- ----------- ----- -----------<br>---- --- ---------- --- ---- --- -- ----------,256807.9300000004,256807.05000000034,256410.733,256422.2500000001,256428.886,256814.518,,27,Senate
screen,html.Screen,1_3_1_0_1_28,2021-04-18T14:15:08.227Z,,,,,,,,,,,,,,,,51,,,,,,,,,,,,,,164.42700000028708,,response,,,,13,F,,,,,,Space,keypress(Space),,,,instrumental,,,,-------- -------- --- --- ---- --- --- ------ -- --------<br>---- --------- --- ------- ------------ ---------- ---------<br>--- ---------- ------- ---------- ------- -- -------- ----<br>---- --- ------ seems ------ -- ---- --- ----- -- - -------<br>-------- -- --- --- -- ----- ----------- ----- -----------<br>---- --- ---------- --- ---- --- -- ----------,256979.81500000015,256978.9450000003,256796,256808.0850000001,256814.518,257005.157,,28,seems
screen,html.Screen,1_3_1_0_1_29,2021-04-18T14:15:10.361Z,,,,,,,,,,,,,,,,51,,,,,,,,,,,,,,2108.283000000083,,response,,,,13,F,,,,,,Space,keypress(Space),,,,instrumental,,,,-------- -------- --- --- ---- --- --- ------ -- --------<br>---- --------- --- ------- ------------ ---------- ---------<br>--- ---------- ------- ---------- ------- -- -------- ----<br>---- --- ------ ----- poised -- ---- --- ----- -- - -------<br>-------- -- --- --- -- ----- ----------- ----- -----------<br>---- --- ---------- --- ---- --- -- ----------,259114.2050000003,259113.4400000001,256965.066,256979.97000000032,257005.157,259120.869,,29,poised
screen,html.Screen,1_3_1_0_1_30,2021-04-18T14:15:10.694Z,,,,,,,,,,,,,,,,51,,,,,,,,,,,,,,325.4360000003944,,response,,,,13,F,,,,,,Space,keypress(Space),,,,instrumental,,,,-------- -------- --- --- ---- --- --- ------ -- --------<br>---- --------- --- ------- ------------ ---------- ---------<br>--- ---------- ------- ---------- ------- -- -------- ----<br>---- --- ------ ----- ------ to ---- --- ----- -- - -------<br>-------- -- --- --- -- ----- ----------- ----- -----------<br>---- --- ---------- --- ---- --- -- ----------,259447.0600000004,259446.3050000004,259103.507,259114.36000000004,259120.869,259453.739,,30,to
screen,html.Screen,1_3_1_0_1_31,2021-04-18T14:15:11.084Z,,,,,,,,,,,,,,,,51,,,,,,,,,,,,,,382.95600000041304,,response,,,,13,F,,,,,,Space,keypress(Space),,,,instrumental,,,,-------- -------- --- --- ---- --- --- ------ -- --------<br>---- --------- --- ------- ------------ ---------- ---------<br>--- ---------- ------- ---------- ------- -- -------- ----<br>---- --- ------ ----- ------ -- join --- ----- -- - -------<br>-------- -- --- --- -- ----- ----------- ----- -----------<br>---- --- ---------- --- ---- --- -- ----------,259837.52000000005,259836.6950000004,259438.089,259447.22500000036,259453.739,259844.188,,31,join
screen,html.Screen,1_3_1_0_1_32,2021-04-18T14:15:11.242Z,,,,,,,,,,,,,,,,51,,,,,,,,,,,,,,150.5820000002568,,response,,,,13,F,,,,,,Space,keypress(Space),,,,instrumental,,,,-------- -------- --- --- ---- --- --- ------ -- --------<br>---- --------- --- ------- ------------ ---------- ---------<br>--- ---------- ------- ---------- ------- -- -------- ----<br>---- --- ------ ----- ------ -- ---- the ----- -- - -------<br>-------- -- --- --- -- ----- ----------- ----- -----------<br>---- --- ---------- --- ---- --- -- ----------,259995.50000000044,259994.77000000025,259837.448,259837.67000000033,259844.188,260011.389,,32,the
screen,html.Screen,1_3_1_0_1_33,2021-04-18T14:15:11.641Z,,,,,,,,,,,,,,,,51,,,,,,,,,,,,,,381.5760000004666,,response,,,,13,F,,,,,,Space,keypress(Space),,,,instrumental,,,,-------- -------- --- --- ---- --- --- ------ -- --------<br>---- --------- --- ------- ------------ ---------- ---------<br>--- ---------- ------- ---------- ------- -- -------- ----<br>---- --- ------ ----- ------ -- ---- --- House -- - -------<br>-------- -- --- --- -- ----- ----------- ----- -----------<br>---- --- ---------- --- ---- --- -- ----------,260393.83000000042,260392.96500000046,259994.404,259995.65000000029,260011.389,260400.451,,33,House
screen,html.Screen,1_3_1_0_1_34,2021-04-18T14:15:12.006Z,,,,,,,,,,,,,,,,51,,,,,,,,,,,,,,357.9790000003122,,response,,,,13,F,,,,,,Space,keypress(Space),,,,instrumental,,,,-------- -------- --- --- ---- --- --- ------ -- --------<br>---- --------- --- ------- ------------ ---------- ---------<br>--- ---------- ------- ---------- ------- -- -------- ----<br>---- --- ------ ----- ------ -- ---- --- ----- in - -------<br>-------- -- --- --- -- ----- ----------- ----- -----------<br>---- --- ---------- --- ---- --- -- ----------,260759.3800000004,260758.4300000003,260383.332,260394.01000000045,260400.451,260765.986,,34,in
screen,html.Screen,1_3_1_0_1_35,2021-04-18T14:15:12.260Z,,,,,,,,,,,,,,,,51,,,,,,,,,,,,,,246.46400000018184,,response,,,,13,F,,,,,,Space,keypress(Space),,,,instrumental,,,,-------- -------- --- --- ---- --- --- ------ -- --------<br>---- --------- --- ------- ------------ ---------- ---------<br>--- ---------- ------- ---------- ------- -- -------- ----<br>---- --- ------ ----- ------ -- ---- --- ----- -- a -------<br>-------- -- --- --- -- ----- ----------- ----- -----------<br>---- --- ---------- --- ---- --- -- ----------,261013.23500000034,261012.4500000002,260751.069,260759.53500000015,260765.986,261019.909,,35,a
screen,html.Screen,1_3_1_0_1_36,2021-04-18T14:15:12.741Z,,,,,,,,,,,,,,,,51,,,,,,,,,,,,,,473.5060000003432,,response,,,,13,F,,,,,,Space,keypress(Space),,,,instrumental,,,,-------- -------- --- --- ---- --- --- ------ -- --------<br>---- --------- --- ------- ------------ ---------- ---------<br>--- ---------- ------- ---------- ------- -- -------- ----<br>---- --- ------ ----- ------ -- ---- --- ----- -- - massive<br>-------- -- --- --- -- ----- ----------- ----- -----------<br>---- --- ---------- --- ---- --- -- ----------,261494.1950000002,261493.41500000036,260999.946,261013.38500000018,261019.909,261500.97,,36,massive
screen,html.Screen,1_3_1_0_1_37,2021-04-18T14:15:13.121Z,,,,,,,,,,,,,,,,51,,,,,,,,,,,,,,372.6150000002817,,response,,,,13,F,,,,,,Space,keypress(Space),,,,instrumental,,,,-------- -------- --- --- ---- --- --- ------ -- --------<br>---- --------- --- ------- ------------ ---------- ---------<br>--- ---------- ------- ---------- ------- -- -------- ----<br>---- --- ------ ----- ------ -- ---- --- ----- -- - -------<br>overhaul -- --- --- -- ----- ----------- ----- -----------<br>---- --- ---------- --- ---- --- -- ----------,261874.41000000035,261873.58500000028,261486.759,261494.34500000006,261500.97,261881.408,,37,overhaul
