sender,sender_type,sender_id,timestamp,meta,,Blues,Classical,Country,Dance,Electronic,Folk,Gospel,Hip-Hop,Jazz,Latin,Musical/Film,New-age,Pop,Provo_ID,R&B,Rap,Reggae,Religious,Rock,Soul,Swing,Traditional,age,artist_name,correct,correctResponse,distraction,duration,education,ended_on,familiarity,gender,headphone_check_performance,item,list,music_frequency,offensiveness,pleasantness,position_correct,preference,response,response_action,snippet_file,song_name,song_rating,sound,stimulus_1,stimulus_2,stimulus_3,text,time_commit,time_end,time_render,time_run,time_show,time_switch,url,word,word_ID
Introduction,html.Screen,0_0,2021-04-16T19:40:03.544Z,"{""labjs_version"":""20.2.2"",""labjs_build"":{""flavor"":""production"",""commit"":""a25486e0c714a0ae2ce03ff94b7bb6896854dcfa""},""location"":""https://run.pavlovia.org/mvasilev/music_b/"",""userAgent"":""Mozilla/5.0 (Macintosh; Intel Mac OS X 10_15_6) AppleWebKit/605.1.15 (KHTML, like Gecko) Version/14.0.3 Safari/605.1.15"",""platform"":""MacIntel"",""language"":""en-gb"",""locale"":""en-GB"",""timeZone"":""Europe/London"",""timezoneOffset"":-60,""screen_width"":1440,""screen_height"":900,""scroll_width"":1440,""scroll_height"":772,""window_innerWidth"":1440,""window_innerHeight"":820,""devicePixelRatio"":2}",,,,,,,,,,,,,,,,,,,,,,,,,,,,,6151.000000000002,,response,,,,,,,,,,,continue,click button,,,,,,,,,16391,16147.000000000002,9996,9986,10013,16418,{},,
Volume calibration,html.Screen,0_1,2021-04-16T19:40:31.095Z,,,,,,,,,,,,,,,,,,,,,,,,,,,,,,27555,,response,,,,,,,,,,,continue,click button,,,,,,,,,43942,43956,16401,16391,16418,43961,,,
Task instructions,html.Screen,0_2,2021-04-16T19:40:44.053Z,,,,,,,,,,,,,,,,,,,,,,,,,,,,,,12971.000000000007,,response,,,,,,,,,,,continue,click button,,,,,,,,,56901,56916.00000000001,43945,43943,43961,56929,,,
Sounds,html.Screen,0_3_0_0,2021-04-16T19:40:48.321Z,,,,,,,,,,,,,,,,,,,,,,,,,,,,,,4256,,timeout,,,,,,,,,2,,,,,,,,O,S,I,,61169.00000000001,61168,56913,56901,56929,61185,,,
Judgement,html.Screen,0_3_0_1,2021-04-16T19:40:51.643Z,,,,,,,,,,,,,,,,,,,,,,,,,,,true,2,,3338,,response,,,,,,,,,2,,2,click #choice-2,,,,,O,S,I,,64491,64506,61168,61169.00000000001,61185,64511,,,
Trial,flow.Sequence,0_3_0,2021-04-16T19:40:51.644Z,,,,,,,,,,,,,,,,,,,,,,,,,,,,,,7577,,completion,,,,,,,,,2,,,,,,,,O,S,I,,64491,64506,56913,56901,56929,64511,,,
Sounds,html.Screen,0_3_1_0,2021-04-16T19:40:55.898Z,,,,,,,,,,,,,,,,,,,,,,,,,,,,,,4251,,timeout,,,,,,,,,3,,,,,,,,O,I,S,,68745,68745,64496,64491,64511,68762,,,
Judgement,html.Screen,0_3_1_1,2021-04-16T19:40:58.294Z,,,,,,,,,,,,,,,,,,,,,,,,,,,true,3,,2413,,response,,,,,,,,,3,,3,click #choice-3,,,,,O,I,S,,71142,71158,68745,68746,68762,71165,,,
Trial,flow.Sequence,0_3_1,2021-04-16T19:40:58.295Z,,,,,,,,,,,,,,,,,,,,,,,,,,,,,,6647,,completion,,,,,,,,,3,,,,,,,,O,I,S,,71142,71158,64496,64491,64511,71165,,,
Sounds,html.Screen,0_3_2_0,2021-04-16T19:41:02.552Z,,,,,,,,,,,,,,,,,,,,,,,,,,,,,,4251,,timeout,,,,,,,,,1,,,,,,,,S,O,I,,75400,75399,71147,71142,71165,75416,,,
Judgement,html.Screen,0_3_2_1,2021-04-16T19:41:03.890Z,,,,,,,,,,,,,,,,,,,,,,,,,,,true,1,,1353,,response,,,,,,,,,1,,1,click #choice-1,,,,,S,O,I,,76737,76752,75399,75400,75416,76759,,,
Trial,flow.Sequence,0_3_2,2021-04-16T19:41:03.890Z,,,,,,,,,,,,,,,,,,,,,,,,,,,,,,5587,,completion,,,,,,,,,1,,,,,,,,S,O,I,,76738,76752,71147,71142,71165,76759,,,
Sounds,html.Screen,0_3_3_0,2021-04-16T19:41:08.148Z,,,,,,,,,,,,,,,,,,,,,,,,,,,,,,4254,,timeout,,,,,,,,,3,,,,,,,,I,O,S,,80996,80995,76741,76738,76759,81013,,,
Judgement,html.Screen,0_3_3_1,2021-04-16T19:41:09.941Z,,,,,,,,,,,,,,,,,,,,,,,,,,,true,3,,1809,,response,,,,,,,,,3,,3,click #choice-3,,,,,I,O,S,,82789,82804,80995,80996,81013,82808,,,
Trial,flow.Sequence,0_3_3,2021-04-16T19:41:09.941Z,,,,,,,,,,,,,,,,,,,,,,,,,,,,,,6045,,completion,,,,,,,,,3,,,,,,,,I,O,S,,82789,82804,76741,76738,76759,82808,,,
Sounds,html.Screen,0_3_4_0,2021-04-16T19:41:14.195Z,,,,,,,,,,,,,,,,,,,,,,,,,,,,,,4252,,timeout,,,,,,,,,1,,,,,,,,S,I,O,,87043,87042,82791,82789,82808,87060,,,
Judgement,html.Screen,0_3_4_1,2021-04-16T19:41:16.190Z,,,,,,,,,,,,,,,,,,,,,,,,,,,true,1,,2012,,response,,,,,,,,,1,,1,click #choice-1,,,,,S,I,O,,89038,89054,87042,87043,87060,89061,,,
Trial,flow.Sequence,0_3_4,2021-04-16T19:41:16.190Z,,,,,,,,,,,,,,,,,,,,,,,,,,,,,,6246,,completion,,,,,,,,,1,,,,,,,,S,I,O,,89038,89054,82791,82789,82808,89061,,,
Sounds,html.Screen,0_3_5_0,2021-04-16T19:41:20.449Z,,,,,,,,,,,,,,,,,,,,,,,,,,,,,,4252,,timeout,,,,,,,,,2,,,,,,,,I,S,O,,93297,93297,89043,89038,89061,93313,,,
Judgement,html.Screen,0_3_5_1,2021-04-16T19:41:21.370Z,,,,,,,,,,,,,,,,,,,,,,,,,,,true,2,,937.0000000000146,,response,,,,,,,,,2,,2,click #choice-2,,,,,I,S,O,,94218,94234.00000000001,93297,93297,93313,94237,,,
Trial,flow.Sequence,0_3_5,2021-04-16T19:41:21.370Z,,,,,,,,,,,,,,,,,,,,,,,,,,,,,,5173.000000000015,,completion,,,,,,,,,2,,,,,,,,I,S,O,,94218,94234.00000000001,89043,89038,89061,94237,,,
Task,flow.Loop,0_3,2021-04-16T19:41:21.371Z,,,,,,,,,,,,,,,,,,,,,,,,,,,,,,37305.000000000015,,completion,,,1,,,,,,,,,,,,,,,,,,94219.00000000001,94234.00000000001,56913,56901,56929,94237,,,
Trap,html.Screen,0_4,2021-04-16T19:41:21.372Z,,,,,,,,,,,,,,,,,,,,,,,,,,,,,,NaN,,skipped,,,,,,,,,,,,,,,,,,,,,94220,94234.00000000001,,94220,,94237,,,
Thanks,html.Screen,0_5,2021-04-16T19:41:26.868Z,,,,,,,,,,,,,,,,,,,,,,,,,,,,,,5509.000000000015,,response,,,,,,,,,,,continue,click button,,,,,,,,,99716.00000000001,99731.00000000001,94222,94220,94237,102793,,,
Headphone screening,flow.Sequence,0,2021-04-16T19:41:26.868Z,,,,,,,,,,,,,,,,,,,,,,,,,,,,,,89718.00000000001,,completion,,,,,,,,,,,,,,,,,,,,,99716.00000000001,99731.00000000001,9996,9986,10013,102793,,,
Instructions,html.Page,1_0,2021-04-16T19:41:52.794Z,,,,,,,,,,,,,,,,,,,,,,,,,,,,,,22849,,form submission,,,,,,,,,,,,,,,,,,,,,125643,125642,102783,102772,102793,125666,,,
Holding screen,html.Screen,1_1_0_0,2021-04-16T19:42:02.801Z,,,,,,,,,,,,,,,,,,,,,,,,,,,,,,10006,,timeout,,,,,,,,,,,,,,,,,,,,,135650,135649,125649,125643,125666,135672,,,
screen,html.Screen,1_1_0_1_0,2021-04-16T19:42:04.544Z,,,,,,,,,,,,,,,,53,,,,,,,,,,,,,,1758,,response,,,,99,,,,,,,Space,keypress(Space),,,,,,,,When -- ----- -- ------ - ------- --- ----------<br>------------- ------ ------ ---- ---- ------- ----- -- ----<br>-------- ------- -- ---------- --- - --- ----- ----- ----<br>---- --- --- ----- --- ---- ---- ------- ----- ---- -------<br>--- --- -- ----- -- --- ---- -- --- ---- -- ------ ------<br>--- ----- -- ----,137393,137407,135649,135650,135672,137420,,0,When
screen,html.Screen,1_1_0_1_1,2021-04-16T19:42:05.428Z,,,,,,,,,,,,,,,,53,,,,,,,,,,,,,,888,,response,,,,99,,,,,,,Space,keypress(Space),,,,,,,,---- it ----- -- ------ - ------- --- ----------<br>------------- ------ ------ ---- ---- ------- ----- -- ----<br>-------- ------- -- ---------- --- - --- ----- ----- ----<br>---- --- --- ----- --- ---- ---- ------- ----- ---- -------<br>--- --- -- ----- -- --- ---- -- --- ---- -- ------ ------<br>--- ----- -- ----,138276,138291,137403,137393,137420,138306,,1,it
screen,html.Screen,1_1_0_1_2,2021-04-16T19:42:06.287Z,,,,,,,,,,,,,,,,53,,,,,,,,,,,,,,861,,response,,,,99,,,,,,,Space,keypress(Space),,,,,,,,---- -- comes -- ------ - ------- --- ----------<br>------------- ------ ------ ---- ---- ------- ----- -- ----<br>-------- ------- -- ---------- --- - --- ----- ----- ----<br>---- --- --- ----- --- ---- ---- ------- ----- ---- -------<br>--- --- -- ----- -- --- ---- -- --- ---- -- ------ ------<br>--- ----- -- ----,139136,139151,138290,138277.00000000003,138306,139176,,2,comes
screen,html.Screen,1_1_0_1_3,2021-04-16T19:42:07.007Z,,,,,,,,,,,,,,,,53,,,,,,,,,,,,,,712,,response,,,,99,,,,,,,Space,keypress(Space),,,,,,,,---- -- ----- to ------ - ------- --- ----------<br>------------- ------ ------ ---- ---- ------- ----- -- ----<br>-------- ------- -- ---------- --- - --- ----- ----- ----<br>---- --- --- ----- --- ---- ---- ------- ----- ---- -------<br>--- --- -- ----- -- --- ---- -- --- ---- -- ------ ------<br>--- ----- -- ----,139856,139871,139159,139136,139176,139896,,3,to
screen,html.Screen,1_1_0_1_4,2021-04-16T19:42:07.737Z,,,,,,,,,,,,,,,,53,,,,,,,,,,,,,,720,,response,,,,99,,,,,,,Space,keypress(Space),,,,,,,,---- -- ----- -- having - ------- --- ----------<br>------------- ------ ------ ---- ---- ------- ----- -- ----<br>-------- ------- -- ---------- --- - --- ----- ----- ----<br>---- --- --- ----- --- ---- ---- ------- ----- ---- -------<br>--- --- -- ----- -- --- ---- -- --- ---- -- ------ ------<br>--- ----- -- ----,140585,140600,139880,139856,139896,140615,,4,having
screen,html.Screen,1_1_0_1_5,2021-04-16T19:42:08.175Z,,,,,,,,,,,,,,,,53,,,,,,,,,,,,,,440.0000000000291,,response,,,,99,,,,,,,Space,keypress(Space),,,,,,,,---- -- ----- -- ------ a ------- --- ----------<br>------------- ------ ------ ---- ---- ------- ----- -- ----<br>-------- ------- -- ---------- --- - --- ----- ----- ----<br>---- --- --- ----- --- ---- ---- ------- ----- ---- -------<br>--- --- -- ----- -- --- ---- -- --- ---- -- ------ ------<br>--- ----- -- ----,141024,141039.00000000003,140599,140586,140615,141052,,5,a
screen,html.Screen,1_1_0_1_6,2021-04-16T19:42:08.702Z,,,,,,,,,,,,,,,,53,,,,,,,,,,,,,,531,,response,,,,99,,,,,,,Space,keypress(Space),,,,,,,,---- -- ----- -- ------ - lasting --- ----------<br>------------- ------ ------ ---- ---- ------- ----- -- ----<br>-------- ------- -- ---------- --- - --- ----- ----- ----<br>---- --- --- ----- --- ---- ---- ------- ----- ---- -------<br>--- --- -- ----- -- --- ---- -- --- ---- -- ------ ------<br>--- ----- -- ----,141551.00000000003,141566,141035,141024,141052,141589,,6,lasting
screen,html.Screen,1_1_0_1_7,2021-04-16T19:42:09.372Z,,,,,,,,,,,,,,,,53,,,,,,,,,,,,,,663,,response,,,,99,,,,,,,Space,keypress(Space),,,,,,,,---- -- ----- -- ------ - ------- and ----------<br>------------- ------ ------ ---- ---- ------- ----- -- ----<br>-------- ------- -- ---------- --- - --- ----- ----- ----<br>---- --- --- ----- --- ---- ---- ------- ----- ---- -------<br>--- --- -- ----- -- --- ---- -- --- ---- -- ------ ------<br>--- ----- -- ----,142220,142235,141572,141551.00000000003,141589,142258,,7,and
screen,html.Screen,1_1_0_1_8,2021-04-16T19:42:09.912Z,,,,,,,,,,,,,,,,53,,,,,,,,,,,,,,533,,response,,,,99,,,,,,,Space,keypress(Space),,,,,,,,---- -- ----- -- ------ - ------- --- fulfilling<br>------------- ------ ------ ---- ---- ------- ----- -- ----<br>-------- ------- -- ---------- --- - --- ----- ----- ----<br>---- --- --- ----- --- ---- ---- ------- ----- ---- -------<br>--- --- -- ----- -- --- ---- -- --- ---- -- ------ ------<br>--- ----- -- ----,142760,142775,142242,142220,142258,142795,,8,fulfilling
screen,html.Screen,1_1_0_1_9,2021-04-16T19:42:10.640Z,,,,,,,,,,,,,,,,53,,,,,,,,,,,,,,724,,response,,,,99,,,,,,,Space,keypress(Space),,,,,,,,"---- -- ----- -- ------ - ------- --- ----------<br>relationship, ------ ------ ---- ---- ------- ----- -- ----<br>-------- ------- -- ---------- --- - --- ----- ----- ----<br>---- --- --- ----- --- ---- ---- ------- ----- ---- -------<br>--- --- -- ----- -- --- ---- -- --- ---- -- ------ ------<br>--- ----- -- ----",143488,143503,142779,142760,142795,143532,,9,"relationship,"
screen,html.Screen,1_1_0_1_10,2021-04-16T19:42:11.424Z,,,,,,,,,,,,,,,,53,,,,,,,,,,,,,,774,,response,,,,99,,,,,,,Space,keypress(Space),,,,,,,,---- -- ----- -- ------ - ------- --- ----------<br>------------- common ------ ---- ---- ------- ----- -- ----<br>-------- ------- -- ---------- --- - --- ----- ----- ----<br>---- --- --- ----- --- ---- ---- ------- ----- ---- -------<br>--- --- -- ----- -- --- ---- -- --- ---- -- ------ ------<br>--- ----- -- ----,144273,144288,143514,143489,143532,144300,,10,common
screen,html.Screen,1_1_0_1_11,2021-04-16T19:42:12.035Z,,,,,,,,,,,,,,,,53,,,,,,,,,,,,,,614,,response,,,,99,,,,,,,Space,keypress(Space),,,,,,,,---- -- ----- -- ------ - ------- --- ----------<br>------------- ------ wisdom ---- ---- ------- ----- -- ----<br>-------- ------- -- ---------- --- - --- ----- ----- ----<br>---- --- --- ----- --- ---- ---- ------- ----- ---- -------<br>--- --- -- ----- -- --- ---- -- --- ---- -- ------ ------<br>--- ----- -- ----,144883,144898,144284,144273,144300,144921,,11,wisdom
screen,html.Screen,1_1_0_1_12,2021-04-16T19:42:12.524Z,,,,,,,,,,,,,,,,53,,,,,,,,,,,,,,484,,response,,,,99,,,,,,,Space,keypress(Space),,,,,,,,---- -- ----- -- ------ - ------- --- ----------<br>------------- ------ ------ says ---- ------- ----- -- ----<br>-------- ------- -- ---------- --- - --- ----- ----- ----<br>---- --- --- ----- --- ---- ---- ------- ----- ---- -------<br>--- --- -- ----- -- --- ---- -- --- ---- -- ------ ------<br>--- ----- -- ----,145373,145388,144904,144884,144921,145407,,12,says
screen,html.Screen,1_1_0_1_13,2021-04-16T19:42:13.219Z,,,,,,,,,,,,,,,,53,,,,,,,,,,,,,,692,,response,,,,99,,,,,,,Space,keypress(Space),,,,,,,,---- -- ----- -- ------ - ------- --- ----------<br>------------- ------ ------ ---- that ------- ----- -- ----<br>-------- ------- -- ---------- --- - --- ----- ----- ----<br>---- --- --- ----- --- ---- ---- ------- ----- ---- -------<br>--- --- -- ----- -- --- ---- -- --- ---- -- ------ ------<br>--- ----- -- ----,146068,146083,145391,145373,145407,146110,,13,that
screen,html.Screen,1_1_0_1_14,2021-04-16T19:42:13.750Z,,,,,,,,,,,,,,,,53,,,,,,,,,,,,,,522,,response,,,,99,,,,,,,Space,keypress(Space),,,,,,,,---- -- ----- -- ------ - ------- --- ----------<br>------------- ------ ------ ---- ---- feeling ----- -- ----<br>-------- ------- -- ---------- --- - --- ----- ----- ----<br>---- --- --- ----- --- ---- ---- ------- ----- ---- -------<br>--- --- -- ----- -- --- ---- -- --- ---- -- ------ ------<br>--- ----- -- ----,146599,146614,146092,146068,146110,146629,,14,feeling
screen,html.Screen,1_1_0_1_15,2021-04-16T19:42:14.456Z,,,,,,,,,,,,,,,,53,,,,,,,,,,,,,,708,,response,,,,99,,,,,,,Space,keypress(Space),,,,,,,,---- -- ----- -- ------ - ------- --- ----------<br>------------- ------ ------ ---- ---- ------- close -- ----<br>-------- ------- -- ---------- --- - --- ----- ----- ----<br>---- --- --- ----- --- ---- ---- ------- ----- ---- -------<br>--- --- -- ----- -- --- ---- -- --- ---- -- ------ ------<br>--- ----- -- ----,147305,147320,146612,146599,146629,147332,,15,close
screen,html.Screen,1_1_0_1_16,2021-04-16T19:42:14.906Z,,,,,,,,,,,,,,,,53,,,,,,,,,,,,,,454,,response,,,,99,,,,,,,Space,keypress(Space),,,,,,,,---- -- ----- -- ------ - ------- --- ----------<br>------------- ------ ------ ---- ---- ------- ----- to ----<br>-------- ------- -- ---------- --- - --- ----- ----- ----<br>---- --- --- ----- --- ---- ---- ------- ----- ---- -------<br>--- --- -- ----- -- --- ---- -- --- ---- -- ------ ------<br>--- ----- -- ----,147755,147770,147316,147305,147332,147785,,16,to
screen,html.Screen,1_1_0_1_17,2021-04-16T19:42:15.308Z,,,,,,,,,,,,,,,,53,,,,,,,,,,,,,,403,,response,,,,99,,,,,,,Space,keypress(Space),,,,,,,,---- -- ----- -- ------ - ------- --- ----------<br>------------- ------ ------ ---- ---- ------- ----- -- your<br>-------- ------- -- ---------- --- - --- ----- ----- ----<br>---- --- --- ----- --- ---- ---- ------- ----- ---- -------<br>--- --- -- ----- -- --- ---- -- --- ---- -- ------ ------<br>--- ----- -- ----,148157,148172,147769,147755,147785,148189,,17,your
screen,html.Screen,1_1_0_1_18,2021-04-16T19:42:15.954Z,,,,,,,,,,,,,,,,53,,,,,,,,,,,,,,643,,response,,,,99,,,,,,,Space,keypress(Space),,,,,,,,---- -- ----- -- ------ - ------- --- ----------<br>------------- ------ ------ ---- ---- ------- ----- -- ----<br>romantic ------- -- ---------- --- - --- ----- ----- ----<br>---- --- --- ----- --- ---- ---- ------- ----- ---- -------<br>--- --- -- ----- -- --- ---- -- --- ---- -- ------ ------<br>--- ----- -- ----,148803,148815,148172,148157,148189,148842,,18,romantic
screen,html.Screen,1_1_0_1_19,2021-04-16T19:42:16.657Z,,,,,,,,,,,,,,,,53,,,,,,,,,,,,,,697,,response,,,,99,,,,,,,Space,keypress(Space),,,,,,,,---- -- ----- -- ------ - ------- --- ----------<br>------------- ------ ------ ---- ---- ------- ----- -- ----<br>-------- partner -- ---------- --- - --- ----- ----- ----<br>---- --- --- ----- --- ---- ---- ------- ----- ---- -------<br>--- --- -- ----- -- --- ---- -- --- ---- -- ------ ------<br>--- ----- -- ----,149506,149522,148825,148803,148842,149546,,19,partner
screen,html.Screen,1_1_0_1_20,2021-04-16T19:42:17.033Z,,,,,,,,,,,,,,,,53,,,,,,,,,,,,,,368,,response,,,,99,,,,,,,Space,keypress(Space),,,,,,,,---- -- ----- -- ------ - ------- --- ----------<br>------------- ------ ------ ---- ---- ------- ----- -- ----<br>-------- ------- is ---------- --- - --- ----- ----- ----<br>---- --- --- ----- --- ---- ---- ------- ----- ---- -------<br>--- --- -- ----- -- --- ---- -- --- ---- -- ------ ------<br>--- ----- -- ----,149882,149897,149529,149507,149546,149900,,20,is
screen,html.Screen,1_1_0_1_21,2021-04-16T19:42:17.468Z,,,,,,,,,,,,,,,,53,,,,,,,,,,,,,,449,,response,,,,99,,,,,,,Space,keypress(Space),,,,,,,,---- -- ----- -- ------ - ------- --- ----------<br>------------- ------ ------ ---- ---- ------- ----- -- ----<br>-------- ------- -- paramount. --- - --- ----- ----- ----<br>---- --- --- ----- --- ---- ---- ------- ----- ---- -------<br>--- --- -- ----- -- --- ---- -- --- ---- -- ------ ------<br>--- ----- -- ----,150317,150332,149883,149882,149900,150354,,21,paramount.
screen,html.Screen,1_1_0_1_22,2021-04-16T19:42:17.869Z,,,,,,,,,,,,,,,,53,,,,,,,,,,,,,,396,,response,,,,99,,,,,,,Space,keypress(Space),,,,,,,,---- -- ----- -- ------ - ------- --- ----------<br>------------- ------ ------ ---- ---- ------- ----- -- ----<br>-------- ------- -- ---------- But - --- ----- ----- ----<br>---- --- --- ----- --- ---- ---- ------- ----- ---- -------<br>--- --- -- ----- -- --- ---- -- --- ---- -- ------ ------<br>--- ----- -- ----,150718,150733,150337,150317,150354,150740,,22,But
screen,html.Screen,1_1_0_1_23,2021-04-16T19:42:18.304Z,,,,,,,,,,,,,,,,53,,,,,,,,,,,,,,445,,response,,,,99,,,,,,,Space,keypress(Space),,,,,,,,---- -- ----- -- ------ - ------- --- ----------<br>------------- ------ ------ ---- ---- ------- ----- -- ----<br>-------- ------- -- ---------- --- a --- ----- ----- ----<br>---- --- --- ----- --- ---- ---- ------- ----- ---- -------<br>--- --- -- ----- -- --- ---- -- --- ---- -- ------ ------<br>--- ----- -- ----,151153,151168,150723,150718,150740,151193,,23,a
screen,html.Screen,1_1_0_1_24,2021-04-16T19:42:18.699Z,,,,,,,,,,,,,,,,53,,,,,,,,,,,,,,386.0000000000291,,response,,,,99,,,,,,,Space,keypress(Space),,,,,,,,---- -- ----- -- ------ - ------- --- ----------<br>------------- ------ ------ ---- ---- ------- ----- -- ----<br>-------- ------- -- ---------- --- - new ----- ----- ----<br>---- --- --- ----- --- ---- ---- ------- ----- ---- -------<br>--- --- -- ----- -- --- ---- -- --- ---- -- ------ ------<br>--- ----- -- ----,151548,151563.00000000003,151177,151153,151193,151580,,24,new
screen,html.Screen,1_1_0_1_25,2021-04-16T19:42:19.421Z,,,,,,,,,,,,,,,,53,,,,,,,,,,,,,,722,,response,,,,99,,,,,,,Space,keypress(Space),,,,,,,,---- -- ----- -- ------ - ------- --- ----------<br>------------- ------ ------ ---- ---- ------- ----- -- ----<br>-------- ------- -- ---------- --- - --- study ----- ----<br>---- --- --- ----- --- ---- ---- ------- ----- ---- -------<br>--- --- -- ----- -- --- ---- -- --- ---- -- ------ ------<br>--- ----- -- ----,152270,152285,151563,151548,151580,152300,,25,study
screen,html.Screen,1_1_0_1_26,2021-04-16T19:42:19.863Z,,,,,,,,,,,,,,,,53,,,,,,,,,,,,,,445,,response,,,,99,,,,,,,Space,keypress(Space),,,,,,,,---- -- ----- -- ------ - ------- --- ----------<br>------------- ------ ------ ---- ---- ------- ----- -- ----<br>-------- ------- -- ---------- --- - --- ----- finds ----<br>---- --- --- ----- --- ---- ---- ------- ----- ---- -------<br>--- --- -- ----- -- --- ---- -- --- ---- -- ------ ------<br>--- ----- -- ----,152712,152728,152283,152270,152300,152752,,26,finds
screen,html.Screen,1_1_0_1_27,2021-04-16T19:42:20.276Z,,,,,,,,,,,,,,,,53,,,,,,,,,,,,,,403.0000000000291,,response,,,,99,,,,,,,Space,keypress(Space),,,,,,,,---- -- ----- -- ------ - ------- --- ----------<br>------------- ------ ------ ---- ---- ------- ----- -- ----<br>-------- ------- -- ---------- --- - --- ----- ----- that<br>---- --- --- ----- --- ---- ---- ------- ----- ---- -------<br>--- --- -- ----- -- --- ---- -- --- ---- -- ------ ------<br>--- ----- -- ----,153125,153140.00000000003,152737,152713,152752,153156,,27,that
screen,html.Screen,1_1_0_1_28,2021-04-16T19:42:20.705Z,,,,,,,,,,,,,,,,53,,,,,,,,,,,,,,430,,response,,,,99,,,,,,,Space,keypress(Space),,,,,,,,---- -- ----- -- ------ - ------- --- ----------<br>------------- ------ ------ ---- ---- ------- ----- -- ----<br>-------- ------- -- ---------- --- - --- ----- ----- ----<br>it's --- --- ----- --- ---- ---- ------- ----- ---- -------<br>--- --- -- ----- -- --- ---- -- --- ---- -- ------ ------<br>--- ----- -- ----,153554,153570,153140,153125,153156,153592,,28,it's
screen,html.Screen,1_1_0_1_29,2021-04-16T19:42:21.120Z,,,,,,,,,,,,,,,,53,,,,,,,,,,,,,,408,,response,,,,99,,,,,,,Space,keypress(Space),,,,,,,,---- -- ----- -- ------ - ------- --- ----------<br>------------- ------ ------ ---- ---- ------- ----- -- ----<br>-------- ------- -- ---------- --- - --- ----- ----- ----<br>---- not --- ----- --- ---- ---- ------- ----- ---- -------<br>--- --- -- ----- -- --- ---- -- --- ---- -- ------ ------<br>--- ----- -- ----,153969,153984,153576,153554,153592,154012,,29,not
screen,html.Screen,1_1_0_1_30,2021-04-16T19:42:21.564Z,,,,,,,,,,,,,,,,53,,,,,,,,,,,,,,433,,response,,,,99,,,,,,,Space,keypress(Space),,,,,,,,---- -- ----- -- ------ - ------- --- ----------<br>------------- ------ ------ ---- ---- ------- ----- -- ----<br>-------- ------- -- ---------- --- - --- ----- ----- ----<br>---- --- how ----- --- ---- ---- ------- ----- ---- -------<br>--- --- -- ----- -- --- ---- -- --- ---- -- ------ ------<br>--- ----- -- ----,154413,154428,153995,153969,154012,154447,,30,how
screen,html.Screen,1_1_0_1_31,2021-04-16T19:42:22.032Z,,,,,,,,,,,,,,,,53,,,,,,,,,,,,,,465.0000000000291,,response,,,,99,,,,,,,Space,keypress(Space),,,,,,,,---- -- ----- -- ------ - ------- --- ----------<br>------------- ------ ------ ---- ---- ------- ----- -- ----<br>-------- ------- -- ---------- --- - --- ----- ----- ----<br>---- --- --- close --- ---- ---- ------- ----- ---- -------<br>--- --- -- ----- -- --- ---- -- --- ---- -- ------ ------<br>--- ----- -- ----,154881,154896.00000000003,154431,154413,154447,154916,,31,close
screen,html.Screen,1_1_0_1_32,2021-04-16T19:42:22.564Z,,,,,,,,,,,,,,,,53,,,,,,,,,,,,,,528,,response,,,,99,,,,,,,Space,keypress(Space),,,,,,,,---- -- ----- -- ------ - ------- --- ----------<br>------------- ------ ------ ---- ---- ------- ----- -- ----<br>-------- ------- -- ---------- --- - --- ----- ----- ----<br>---- --- --- ----- you ---- ---- ------- ----- ---- -------<br>--- --- -- ----- -- --- ---- -- --- ---- -- ------ ------<br>--- ----- -- ----,155413,155428,154900,154881,154916,155453,,32,you
screen,html.Screen,1_1_0_1_33,2021-04-16T19:42:22.938Z,,,,,,,,,,,,,,,,53,,,,,,,,,,,,,,365,,response,,,,99,,,,,,,Space,keypress(Space),,,,,,,,---- -- ----- -- ------ - ------- --- ----------<br>------------- ------ ------ ---- ---- ------- ----- -- ----<br>-------- ------- -- ---------- --- - --- ----- ----- ----<br>---- --- --- ----- --- feel ---- ------- ----- ---- -------<br>--- --- -- ----- -- --- ---- -- --- ---- -- ------ ------<br>--- ----- -- ----,155787,155802,155437,155413,155453,155806,,33,feel
screen,html.Screen,1_1_0_1_34,2021-04-16T19:42:23.363Z,,,,,,,,,,,,,,,,53,,,,,,,,,,,,,,438,,response,,,,99,,,,,,,Space,keypress(Space),,,,,,,,---- -- ----- -- ------ - ------- --- ----------<br>------------- ------ ------ ---- ---- ------- ----- -- ----<br>-------- ------- -- ---------- --- - --- ----- ----- ----<br>---- --- --- ----- --- ---- that ------- ----- ---- -------<br>--- --- -- ----- -- --- ---- -- --- ---- -- ------ ------<br>--- ----- -- ----,156212,156227,155789,155787,155806,156242,,34,that
screen,html.Screen,1_1_0_1_35,2021-04-16T19:42:23.808Z,,,,,,,,,,,,,,,,53,,,,,,,,,,,,,,447,,response,,,,99,,,,,,,Space,keypress(Space),,,,,,,,---- -- ----- -- ------ - ------- --- ----------<br>------------- ------ ------ ---- ---- ------- ----- -- ----<br>-------- ------- -- ---------- --- - --- ----- ----- ----<br>---- --- --- ----- --- ---- ---- matters ----- ---- -------<br>--- --- -- ----- -- --- ---- -- --- ---- -- ------ ------<br>--- ----- -- ----,156657,156672,156225,156212,156242,156695,,35,matters
screen,html.Screen,1_1_0_1_36,2021-04-16T19:42:24.224Z,,,,,,,,,,,,,,,,53,,,,,,,,,,,,,,409,,response,,,,99,,,,,,,Space,keypress(Space),,,,,,,,"---- -- ----- -- ------ - ------- --- ----------<br>------------- ------ ------ ---- ---- ------- ----- -- ----<br>-------- ------- -- ---------- --- - --- ----- ----- ----<br>---- --- --- ----- --- ---- ---- ------- most, ---- -------<br>--- --- -- ----- -- --- ---- -- --- ---- -- ------ ------<br>--- ----- -- ----",157073,157088,156679,156657,156695,157115,,36,"most,"
screen,html.Screen,1_1_0_1_37,2021-04-16T19:42:24.672Z,,,,,,,,,,,,,,,,53,,,,,,,,,,,,,,438,,response,,,,99,,,,,,,Space,keypress(Space),,,,,,,,---- -- ----- -- ------ - ------- --- ----------<br>------------- ------ ------ ---- ---- ------- ----- -- ----<br>-------- ------- -- ---------- --- - --- ----- ----- ----<br>---- --- --- ----- --- ---- ---- ------- ----- it's -------<br>--- --- -- ----- -- --- ---- -- --- ---- -- ------ ------<br>--- ----- -- ----,157521.00000000003,157536,157098,157073,157115,157551,,37,it's
screen,html.Screen,1_1_0_1_38,2021-04-16T19:42:25.061Z,,,,,,,,,,,,,,,,53,,,,,,,,,,,,,,390,,response,,,,99,,,,,,,Space,keypress(Space),,,,,,,,---- -- ----- -- ------ - ------- --- ----------<br>------------- ------ ------ ---- ---- ------- ----- -- ----<br>-------- ------- -- ---------- --- - --- ----- ----- ----<br>---- --- --- ----- --- ---- ---- ------- ----- ---- whether<br>--- --- -- ----- -- --- ---- -- --- ---- -- ------ ------<br>--- ----- -- ----,157910,157925,157535,157521.00000000003,157551,157937,,38,whether
screen,html.Screen,1_1_0_1_39,2021-04-16T19:42:25.437Z,,,,,,,,,,,,,,,,53,,,,,,,,,,,,,,380.0000000000291,,response,,,,99,,,,,,,Space,keypress(Space),,,,,,,,---- -- ----- -- ------ - ------- --- ----------<br>------------- ------ ------ ---- ---- ------- ----- -- ----<br>-------- ------- -- ---------- --- - --- ----- ----- ----<br>---- --- --- ----- --- ---- ---- ------- ----- ---- -------<br>you --- -- ----- -- --- ---- -- --- ---- -- ------ ------<br>--- ----- -- ----,158286,158301.00000000003,157921,157910,157937,158308,,39,you
screen,html.Screen,1_1_0_1_40,2021-04-16T19:42:25.793Z,,,,,,,,,,,,,,,,53,,,,,,,,,,,,,,366,,response,,,,99,,,,,,,Space,keypress(Space),,,,,,,,---- -- ----- -- ------ - ------- --- ----------<br>------------- ------ ------ ---- ---- ------- ----- -- ----<br>-------- ------- -- ---------- --- - --- ----- ----- ----<br>---- --- --- ----- --- ---- ---- ------- ----- ---- -------<br>--- are -- ----- -- --- ---- -- --- ---- -- ------ ------<br>--- ----- -- ----,158642,158657,158291,158286,158308,158660,,40,are
screen,html.Screen,1_1_0_1_41,2021-04-16T19:42:26.215Z,,,,,,,,,,,,,,,,53,,,,,,,,,,,,,,437,,response,,,,99,,,,,,,Space,keypress(Space),,,,,,,,---- -- ----- -- ------ - ------- --- ----------<br>------------- ------ ------ ---- ---- ------- ----- -- ----<br>-------- ------- -- ---------- --- - --- ----- ----- ----<br>---- --- --- ----- --- ---- ---- ------- ----- ---- -------<br>--- --- as ----- -- --- ---- -- --- ---- -- ------ ------<br>--- ----- -- ----,159064,159080,158643,158642,158660,159095,,41,as
screen,html.Screen,1_1_0_1_42,2021-04-16T19:42:26.593Z,,,,,,,,,,,,,,,,53,,,,,,,,,,,,,,379,,response,,,,99,,,,,,,Space,keypress(Space),,,,,,,,---- -- ----- -- ------ - ------- --- ----------<br>------------- ------ ------ ---- ---- ------- ----- -- ----<br>-------- ------- -- ---------- --- - --- ----- ----- ----<br>---- --- --- ----- --- ---- ---- ------- ----- ---- -------<br>--- --- -- close -- --- ---- -- --- ---- -- ------ ------<br>--- ----- -- ----,159442,159458,159079,159064,159095,159465,,42,close
screen,html.Screen,1_1_0_1_43,2021-04-16T19:42:26.950Z,,,,,,,,,,,,,,,,53,,,,,,,,,,,,,,366,,response,,,,99,,,,,,,Space,keypress(Space),,,,,,,,---- -- ----- -- ------ - ------- --- ----------<br>------------- ------ ------ ---- ---- ------- ----- -- ----<br>-------- ------- -- ---------- --- - --- ----- ----- ----<br>---- --- --- ----- --- ---- ---- ------- ----- ---- -------<br>--- --- -- ----- as --- ---- -- --- ---- -- ------ ------<br>--- ----- -- ----,159800,159815,159449,159443,159465,159819,,43,as
screen,html.Screen,1_1_0_1_44,2021-04-16T19:42:27.351Z,,,,,,,,,,,,,,,,53,,,,,,,,,,,,,,414,,response,,,,99,,,,,,,Space,keypress(Space),,,,,,,,---- -- ----- -- ------ - ------- --- ----------<br>------------- ------ ------ ---- ---- ------- ----- -- ----<br>-------- ------- -- ---------- --- - --- ----- ----- ----<br>---- --- --- ----- --- ---- ---- ------- ----- ---- -------<br>--- --- -- ----- -- you ---- -- --- ---- -- ------ ------<br>--- ----- -- ----,160201,160216,159802,159800,159819,160238,,44,you
screen,html.Screen,1_1_0_1_45,2021-04-16T19:42:27.760Z,,,,,,,,,,,,,,,,53,,,,,,,,,,,,,,404,,response,,,,99,,,,,,,Space,keypress(Space),,,,,,,,---- -- ----- -- ------ - ------- --- ----------<br>------------- ------ ------ ---- ---- ------- ----- -- ----<br>-------- ------- -- ---------- --- - --- ----- ----- ----<br>---- --- --- ----- --- ---- ---- ------- ----- ---- -------<br>--- --- -- ----- -- --- want -- --- ---- -- ------ ------<br>--- ----- -- ----,160609,160625,160221,160201,160238,160639,,45,want
screen,html.Screen,1_1_0_1_46,2021-04-16T19:42:28.159Z,,,,,,,,,,,,,,,,53,,,,,,,,,,,,,,401,,response,,,,99,,,,,,,Space,keypress(Space),,,,,,,,---- -- ----- -- ------ - ------- --- ----------<br>------------- ------ ------ ---- ---- ------- ----- -- ----<br>-------- ------- -- ---------- --- - --- ----- ----- ----<br>---- --- --- ----- --- ---- ---- ------- ----- ---- -------<br>--- --- -- ----- -- --- ---- to --- ---- -- ------ ------<br>--- ----- -- ----,161008,161024,160623,160610,160639,161027,,46,to
screen,html.Screen,1_1_0_1_47,2021-04-16T19:42:28.579Z,,,,,,,,,,,,,,,,53,,,,,,,,,,,,,,435.0000000000291,,response,,,,99,,,,,,,Space,keypress(Space),,,,,,,,"---- -- ----- -- ------ - ------- --- ----------<br>------------- ------ ------ ---- ---- ------- ----- -- ----<br>-------- ------- -- ---------- --- - --- ----- ----- ----<br>---- --- --- ----- --- ---- ---- ------- ----- ---- -------<br>--- --- -- ----- -- --- ---- -- be, ---- -- ------ ------<br>--- ----- -- ----",161428,161444.00000000003,161009,161008,161027,161463,,47,"be,"
screen,html.Screen,1_1_0_1_48,2021-04-16T19:42:29.001Z,,,,,,,,,,,,,,,,53,,,,,,,,,,,,,,420,,response,,,,99,,,,,,,Space,keypress(Space),,,,,,,,---- -- ----- -- ------ - ------- --- ----------<br>------------- ------ ------ ---- ---- ------- ----- -- ----<br>-------- ------- -- ---------- --- - --- ----- ----- ----<br>---- --- --- ----- --- ---- ---- ------- ----- ---- -------<br>--- --- -- ----- -- --- ---- -- --- even -- ------ ------<br>--- ----- -- ----,161850,161866,161446,161428,161463,161881,,48,even
screen,html.Screen,1_1_0_1_49,2021-04-16T19:42:29.421Z,,,,,,,,,,,,,,,,53,,,,,,,,,,,,,,420,,response,,,,99,,,,,,,Space,keypress(Space),,,,,,,,---- -- ----- -- ------ - ------- --- ----------<br>------------- ------ ------ ---- ---- ------- ----- -- ----<br>-------- ------- -- ---------- --- - --- ----- ----- ----<br>---- --- --- ----- --- ---- ---- ------- ----- ---- -------<br>--- --- -- ----- -- --- ---- -- --- ---- if ------ ------<br>--- ----- -- ----,162270,162285,161865,161850,161881,162302,,49,if
screen,html.Screen,1_1_0_1_50,2021-04-16T19:42:29.844Z,,,,,,,,,,,,,,,,53,,,,,,,,,,,,,,425,,response,,,,99,,,,,,,Space,keypress(Space),,,,,,,,---- -- ----- -- ------ - ------- --- ----------<br>------------- ------ ------ ---- ---- ------- ----- -- ----<br>-------- ------- -- ---------- --- - --- ----- ----- ----<br>---- --- --- ----- --- ---- ---- ------- ----- ---- -------<br>--- --- -- ----- -- --- ---- -- --- ---- -- that's ------<br>--- ----- -- ----,162693,162709,162284,162270,162302,162721,,50,that's
screen,html.Screen,1_1_0_1_51,2021-04-16T19:42:30.248Z,,,,,,,,,,,,,,,,53,,,,,,,,,,,,,,408,,response,,,,99,,,,,,,Space,keypress(Space),,,,,,,,---- -- ----- -- ------ - ------- --- ----------<br>------------- ------ ------ ---- ---- ------- ----- -- ----<br>-------- ------- -- ---------- --- - --- ----- ----- ----<br>---- --- --- ----- --- ---- ---- ------- ----- ---- -------<br>--- --- -- ----- -- --- ---- -- --- ---- -- ------ really<br>--- ----- -- ----,163097,163113,162705,162693,162721,163141,,51,really
screen,html.Screen,1_1_0_1_52,2021-04-16T19:42:30.705Z,,,,,,,,,,,,,,,,53,,,,,,,,,,,,,,447,,response,,,,99,,,,,,,Space,keypress(Space),,,,,,,,---- -- ----- -- ------ - ------- --- ----------<br>------------- ------ ------ ---- ---- ------- ----- -- ----<br>-------- ------- -- ---------- --- - --- ----- ----- ----<br>---- --- --- ----- --- ---- ---- ------- ----- ---- -------<br>--- --- -- ----- -- --- ---- -- --- ---- -- ------ ------<br>not ----- -- ----,163555,163570,163123,163098,163141,163594,,52,not
screen,html.Screen,1_1_0_1_53,2021-04-16T19:42:31.121Z,,,,,,,,,,,,,,,,53,,,,,,,,,,,,,,409,,response,,,,99,,,,,,,Space,keypress(Space),,,,,,,,---- -- ----- -- ------ - ------- --- ----------<br>------------- ------ ------ ---- ---- ------- ----- -- ----<br>-------- ------- -- ---------- --- - --- ----- ----- ----<br>---- --- --- ----- --- ---- ---- ------- ----- ---- -------<br>--- --- -- ----- -- --- ---- -- --- ---- -- ------ ------<br>--- close -- ----,163970,163986,163577,163555,163594,164012,,53,close
screen,html.Screen,1_1_0_1_54,2021-04-16T19:42:31.665Z,,,,,,,,,,,,,,,,53,,,,,,,,,,,,,,534,,response,,,,99,,,,,,,Space,keypress(Space),,,,,,,,---- -- ----- -- ------ - ------- --- ----------<br>------------- ------ ------ ---- ---- ------- ----- -- ----<br>-------- ------- -- ---------- --- - --- ----- ----- ----<br>---- --- --- ----- --- ---- ---- ------- ----- ---- -------<br>--- --- -- ----- -- --- ---- -- --- ---- -- ------ ------<br>--- ----- at ----,164514,164530,163996,163971,164012,164549,,54,at
screen,html.Screen,1_1_0_1_55,2021-04-16T19:42:32.031Z,,,,,,,,,,,,,,,,53,,,,,,,,,,,,,,363,,response,,,,99,,,,,,,Space,keypress(Space),,,,,,,,---- -- ----- -- ------ - ------- --- ----------<br>------------- ------ ------ ---- ---- ------- ----- -- ----<br>-------- ------- -- ---------- --- - --- ----- ----- ----<br>---- --- --- ----- --- ---- ---- ------- ----- ---- -------<br>--- --- -- ----- -- --- ---- -- --- ---- -- ------ ------<br>--- ----- -- all.,164880,164895,164532,164514,164549,164902,,55,all.
Item 99,flow.Loop,1_1_0_1,2021-04-16T19:42:32.031Z,,,,,,,,,,,,,,,,,,,,,,,,,,,,,,29223,,completion,,,,,B,,,,,,,,,,,silence,,,,,164880,164895,135649,135650,135672,164902,,,
Question 1,html.Screen,1_1_0_2,2021-04-16T19:42:37.429Z,,,,,,,,,,,,,,,,,,,,,,,,,,,false,FALSE,,5411.000000000029,,response,,,,99,B,,,,,,TRUE,click #choice-1,,,,silence,,,,,170279,170295.00000000003,164884,164880,164902,170300,,,
Question 2,html.Screen,1_1_0_3,2021-04-16T19:42:43.044Z,,,,,,,,,,,,,,,,,,,,,,,,,,,false,TRUE,,5629,,response,,,,99,B,,,,,,FALSE,click #choice-2,,,,silence,,,,,175894,175911,170282,170279,170300,175929,,,
Item 99,flow.Sequence,1_1_0,2021-04-16T19:42:43.045Z,,,,,,,,,,,,,,,,,,,,,,,,,,,,,,50245,,completion,,,,,,,,,,,,,,,,,,,,,175894,175911,125649,125643,125666,175929,,,
Holding screen,html.Screen,1_1_1_0,2021-04-16T19:42:53.070Z,,,,,,,,,,,,,,,,,,,,,,,,,,,,,,10007,,timeout,,,,,,,,,,,,,,,,,,,,,185919,185919,175905,175894,175929,185936,,,
screen,html.Screen,1_1_1_1_0,2021-04-16T19:42:54.471Z,,,,,,,,,,,,,,,,54,,,,,,,,,,,,,,1417,,response,,,,100,,,,,,,Space,keypress(Space),,,,,,,,At --- ---- --- ------ ----- ------- ---- -- --- ------- --<br>------- ---------- ------ -- ----- -- ----- -- ---- ------<br>--- ----- --- --- ------ -------- ----- --- ------ ----- --<br>----- ----- ---------- --- --- ------ ------ ---- -- ------<br>------- --- ------ ----- --- ---- ------- -- ---- --- --<br>------- ------,187320,187336,185919,185919,185936,187355,,0,At
screen,html.Screen,1_1_1_1_1,2021-04-16T19:42:55.934Z,,,,,,,,,,,,,,,,54,,,,,,,,,,,,,,1461,,response,,,,100,,,,,,,Space,keypress(Space),,,,,,,,-- the ---- --- ------ ----- ------- ---- -- --- ------- --<br>------- ---------- ------ -- ----- -- ----- -- ---- ------<br>--- ----- --- --- ------ -------- ----- --- ------ ----- --<br>----- ----- ---------- --- --- ------ ------ ---- -- ------<br>------- --- ------ ----- --- ---- ------- -- ---- --- --<br>------- ------,188783.00000000003,188799,187338,187320,187355,188817,,1,the
screen,html.Screen,1_1_1_1_2,2021-04-16T19:42:56.521Z,,,,,,,,,,,,,,,,54,,,,,,,,,,,,,,587,,response,,,,100,,,,,,,Space,keypress(Space),,,,,,,,-- --- time --- ------ ----- ------- ---- -- --- ------- --<br>------- ---------- ------ -- ----- -- ----- -- ---- ------<br>--- ----- --- --- ------ -------- ----- --- ------ ----- --<br>----- ----- ---------- --- --- ------ ------ ---- -- ------<br>------- --- ------ ----- --- ---- ------- -- ---- --- --<br>------- ------,189370,189386,188799,188784,188817,189403,,2,time
screen,html.Screen,1_1_1_1_3,2021-04-16T19:42:57.129Z,,,,,,,,,,,,,,,,54,,,,,,,,,,,,,,608,,response,,,,100,,,,,,,Space,keypress(Space),,,,,,,,-- --- ---- the ------ ----- ------- ---- -- --- ------- --<br>------- ---------- ------ -- ----- -- ----- -- ---- ------<br>--- ----- --- --- ------ -------- ----- --- ------ ----- --<br>----- ----- ---------- --- --- ------ ------ ---- -- ------<br>------- --- ------ ----- --- ---- ------- -- ---- --- --<br>------- ------,189979,189994,189386,189371,189403,190007,,3,the
screen,html.Screen,1_1_1_1_4,2021-04-16T19:42:57.963Z,,,,,,,,,,,,,,,,54,,,,,,,,,,,,,,839,,response,,,,100,,,,,,,Space,keypress(Space),,,,,,,,-- --- ---- --- French ----- ------- ---- -- --- ------- --<br>------- ---------- ------ -- ----- -- ----- -- ---- ------<br>--- ----- --- --- ------ -------- ----- --- ------ ----- --<br>----- ----- ---------- --- --- ------ ------ ---- -- ------<br>------- --- ------ ----- --- ---- ------- -- ---- --- --<br>------- ------,190813.00000000003,190829,189990,189979,190007,190843,,4,French
screen,html.Screen,1_1_1_1_5,2021-04-16T19:42:58.496Z,,,,,,,,,,,,,,,,54,,,,,,,,,,,,,,535,,response,,,,100,,,,,,,Space,keypress(Space),,,,,,,,-- --- ---- --- ------ crown ------- ---- -- --- ------- --<br>------- ---------- ------ -- ----- -- ----- -- ---- ------<br>--- ----- --- --- ------ -------- ----- --- ------ ----- --<br>----- ----- ---------- --- --- ------ ------ ---- -- ------<br>------- --- ------ ----- --- ---- ------- -- ---- --- --<br>------- ------,191345,191361,190826,190813.00000000003,190843,191379,,5,crown
screen,html.Screen,1_1_1_1_6,2021-04-16T19:42:59.043Z,,,,,,,,,,,,,,,,54,,,,,,,,,,,,,,545.0000000000291,,response,,,,100,,,,,,,Space,keypress(Space),,,,,,,,-- --- ---- --- ------ ----- secured ---- -- --- ------- --<br>------- ---------- ------ -- ----- -- ----- -- ---- ------<br>--- ----- --- --- ------ -------- ----- --- ------ ----- --<br>----- ----- ---------- --- --- ------ ------ ---- -- ------<br>------- --- ------ ----- --- ---- ------- -- ---- --- --<br>------- ------,191892,191908.00000000003,191363,191345,191379,191932,,6,secured
screen,html.Screen,1_1_1_1_7,2021-04-16T19:43:00.582Z,,,,,,,,,,,,,,,,54,,,,,,,,,,,,,,1532,,response,,,,100,,,,,,,Space,keypress(Space),,,,,,,,-- --- ---- --- ------ ----- ------- much -- --- ------- --<br>------- ---------- ------ -- ----- -- ----- -- ---- ------<br>--- ----- --- --- ------ -------- ----- --- ------ ----- --<br>----- ----- ---------- --- --- ------ ------ ---- -- ------<br>------- --- ------ ----- --- ---- ------- -- ---- --- --<br>------- ------,193432.00000000003,193448,191916,191893,191932,193468,,7,much
screen,html.Screen,1_1_1_1_8,2021-04-16T19:43:01.130Z,,,,,,,,,,,,,,,,54,,,,,,,,,,,,,,544,,response,,,,100,,,,,,,Space,keypress(Space),,,,,,,,-- --- ---- --- ------ ----- ------- ---- of --- ------- --<br>------- ---------- ------ -- ----- -- ----- -- ---- ------<br>--- ----- --- --- ------ -------- ----- --- ------ ----- --<br>----- ----- ---------- --- --- ------ ------ ---- -- ------<br>------- --- ------ ----- --- ---- ------- -- ---- --- --<br>------- ------,193980.00000000003,193996,193452,193432.00000000003,193468,194023,,8,of
screen,html.Screen,1_1_1_1_9,2021-04-16T19:43:01.615Z,,,,,,,,,,,,,,,,54,,,,,,,,,,,,,,476,,response,,,,100,,,,,,,Space,keypress(Space),,,,,,,,-- --- ---- --- ------ ----- ------- ---- -- its ------- --<br>------- ---------- ------ -- ----- -- ----- -- ---- ------<br>--- ----- --- --- ------ -------- ----- --- ------ ----- --<br>----- ----- ---------- --- --- ------ ------ ---- -- ------<br>------- --- ------ ----- --- ---- ------- -- ---- --- --<br>------- ------,194465,194481,194005,193980.00000000003,194023,194492,,9,its
screen,html.Screen,1_1_1_1_10,2021-04-16T19:43:02.046Z,,,,,,,,,,,,,,,,54,,,,,,,,,,,,,,436,,response,,,,100,,,,,,,Space,keypress(Space),,,,,,,,-- --- ---- --- ------ ----- ------- ---- -- --- revenue --<br>------- ---------- ------ -- ----- -- ----- -- ---- ------<br>--- ----- --- --- ------ -------- ----- --- ------ ----- --<br>----- ----- ---------- --- --- ------ ------ ---- -- ------<br>------- --- ------ ----- --- ---- ------- -- ---- --- --<br>------- ------,194895,194911,194475,194465,194492,194929,,10,revenue
screen,html.Screen,1_1_1_1_11,2021-04-16T19:43:02.503Z,,,,,,,,,,,,,,,,54,,,,,,,,,,,,,,457,,response,,,,100,,,,,,,Space,keypress(Space),,,,,,,,-- --- ---- --- ------ ----- ------- ---- -- --- ------- by<br>------- ---------- ------ -- ----- -- ----- -- ---- ------<br>--- ----- --- --- ------ -------- ----- --- ------ ----- --<br>----- ----- ---------- --- --- ------ ------ ---- -- ------<br>------- --- ------ ----- --- ---- ------- -- ---- --- --<br>------- ------,195353,195369,194912,194895,194929,195382,,11,by
screen,html.Screen,1_1_1_1_12,2021-04-16T19:43:03.120Z,,,,,,,,,,,,,,,,54,,,,,,,,,,,,,,621,,response,,,,100,,,,,,,Space,keypress(Space),,,,,,,,-- --- ---- --- ------ ----- ------- ---- -- --- ------- --<br>issuing ---------- ------ -- ----- -- ----- -- ---- ------<br>--- ----- --- --- ------ -------- ----- --- ------ ----- --<br>----- ----- ---------- --- --- ------ ------ ---- -- ------<br>------- --- ------ ----- --- ---- ------- -- ---- --- --<br>------- ------,195969,195985,195364,195353,195382,196000,,12,issuing
screen,html.Screen,1_1_1_1_13,2021-04-16T19:43:03.930Z,,,,,,,,,,,,,,,,54,,,,,,,,,,,,,,811.0000000000291,,response,,,,100,,,,,,,Space,keypress(Space),,,,,,,,-- --- ---- --- ------ ----- ------- ---- -- --- ------- --<br>------- government ------ -- ----- -- ----- -- ---- ------<br>--- ----- --- --- ------ -------- ----- --- ------ ----- --<br>----- ----- ---------- --- --- ------ ------ ---- -- ------<br>------- --- ------ ----- --- ---- ------- -- ---- --- --<br>------- ------,196779,196795.00000000003,195984,195970,196000,196821,,13,government
screen,html.Screen,1_1_1_1_14,2021-04-16T19:43:04.671Z,,,,,,,,,,,,,,,,54,,,,,,,,,,,,,,733,,response,,,,100,,,,,,,Space,keypress(Space),,,,,,,,-- --- ---- --- ------ ----- ------- ---- -- --- ------- --<br>------- ---------- bonds. -- ----- -- ----- -- ---- ------<br>--- ----- --- --- ------ -------- ----- --- ------ ----- --<br>----- ----- ---------- --- --- ------ ------ ---- -- ------<br>------- --- ------ ----- --- ---- ------- -- ---- --- --<br>------- ------,197521.00000000003,197537,196804,196779,196821,197556,,14,bonds.
screen,html.Screen,1_1_1_1_15,2021-04-16T19:43:06.484Z,,,,,,,,,,,,,,,,54,,,,,,,,,,,,,,1809.000000000029,,response,,,,100,,,,,,,Space,keypress(Space),,,,,,,,-- --- ---- --- ------ ----- ------- ---- -- --- ------- --<br>------- ---------- ------ In ----- -- ----- -- ---- ------<br>--- ----- --- --- ------ -------- ----- --- ------ ----- --<br>----- ----- ---------- --- --- ------ ------ ---- -- ------<br>------- --- ------ ----- --- ---- ------- -- ---- --- --<br>------- ------,199334,199349.00000000003,197540,197521.00000000003,197556,199377,,15,In
screen,html.Screen,1_1_1_1_16,2021-04-16T19:43:08.639Z,,,,,,,,,,,,,,,,54,,,,,,,,,,,,,,2145,,response,,,,100,,,,,,,Space,keypress(Space),,,,,,,,"-- --- ---- --- ------ ----- ------- ---- -- --- ------- --<br>------- ---------- ------ -- 1727, -- ----- -- ---- ------<br>--- ----- --- --- ------ -------- ----- --- ------ ----- --<br>----- ----- ---------- --- --- ------ ------ ---- -- ------<br>------- --- ------ ----- --- ---- ------- -- ---- --- --<br>------- ------",201489,201505,199360,199334,199377,201530,,16,"1727,"
screen,html.Screen,1_1_1_1_17,2021-04-16T19:43:09.186Z,,,,,,,,,,,,,,,,54,,,,,,,,,,,,,,539,,response,,,,100,,,,,,,Space,keypress(Space),,,,,,,,-- --- ---- --- ------ ----- ------- ---- -- --- ------- --<br>------- ---------- ------ -- ----- in ----- -- ---- ------<br>--- ----- --- --- ------ -------- ----- --- ------ ----- --<br>----- ----- ---------- --- --- ------ ------ ---- -- ------<br>------- --- ------ ----- --- ---- ------- -- ---- --- --<br>------- ------,202036,202052,201513,201489,201530,202066,,17,in
screen,html.Screen,1_1_1_1_18,2021-04-16T19:43:09.721Z,,,,,,,,,,,,,,,,54,,,,,,,,,,,,,,538.0000000000291,,response,,,,100,,,,,,,Space,keypress(Space),,,,,,,,-- --- ---- --- ------ ----- ------- ---- -- --- ------- --<br>------- ---------- ------ -- ----- -- order -- ---- ------<br>--- ----- --- --- ------ -------- ----- --- ------ ----- --<br>----- ----- ---------- --- --- ------ ------ ---- -- ------<br>------- --- ------ ----- --- ---- ------- -- ---- --- --<br>------- ------,202571,202587.00000000003,202049,202036,202066,202602,,18,order
screen,html.Screen,1_1_1_1_19,2021-04-16T19:43:10.192Z,,,,,,,,,,,,,,,,54,,,,,,,,,,,,,,472,,response,,,,100,,,,,,,Space,keypress(Space),,,,,,,,-- --- ---- --- ------ ----- ------- ---- -- --- ------- --<br>------- ---------- ------ -- ----- -- ----- to ---- ------<br>--- ----- --- --- ------ -------- ----- --- ------ ----- --<br>----- ----- ---------- --- --- ------ ------ ---- -- ------<br>------- --- ------ ----- --- ---- ------- -- ---- --- --<br>------- ------,203042,203058,202586,202571,202602,203072,,19,to
screen,html.Screen,1_1_1_1_20,2021-04-16T19:43:10.788Z,,,,,,,,,,,,,,,,54,,,,,,,,,,,,,,599,,response,,,,100,,,,,,,Space,keypress(Space),,,,,,,,-- --- ---- --- ------ ----- ------- ---- -- --- ------- --<br>------- ---------- ------ -- ----- -- ----- -- save ------<br>--- ----- --- --- ------ -------- ----- --- ------ ----- --<br>----- ----- ---------- --- --- ------ ------ ---- -- ------<br>------- --- ------ ----- --- ---- ------- -- ---- --- --<br>------- ------,203638,203655,203056,203042,203072,203675,,20,save
screen,html.Screen,1_1_1_1_21,2021-04-16T19:43:11.357Z,,,,,,,,,,,,,,,,54,,,,,,,,,,,,,,564,,response,,,,100,,,,,,,Space,keypress(Space),,,,,,,,"-- --- ---- --- ------ ----- ------- ---- -- --- ------- --<br>------- ---------- ------ -- ----- -- ----- -- ---- money,<br>--- ----- --- --- ------ -------- ----- --- ------ ----- --<br>----- ----- ---------- --- --- ------ ------ ---- -- ------<br>------- --- ------ ----- --- ---- ------- -- ---- --- --<br>------- ------",204207,204223,203659,203638,203675,204246,,21,"money,"
screen,html.Screen,1_1_1_1_22,2021-04-16T19:43:12.545Z,,,,,,,,,,,,,,,,54,,,,,,,,,,,,,,1183,,response,,,,100,,,,,,,Space,keypress(Space),,,,,,,,-- --- ---- --- ------ ----- ------- ---- -- --- ------- --<br>------- ---------- ------ -- ----- -- ----- -- ---- ------<br>the ----- --- --- ------ -------- ----- --- ------ ----- --<br>----- ----- ---------- --- --- ------ ------ ---- -- ------<br>------- --- ------ ----- --- ---- ------- -- ---- --- --<br>------- ------,205394,205411,204228,204207,204246,205432,,22,the
screen,html.Screen,1_1_1_1_23,2021-04-16T19:43:13.170Z,,,,,,,,,,,,,,,,54,,,,,,,,,,,,,,621,,response,,,,100,,,,,,,Space,keypress(Space),,,,,,,,-- --- ---- --- ------ ----- ------- ---- -- --- ------- --<br>------- ---------- ------ -- ----- -- ----- -- ---- ------<br>--- state --- --- ------ -------- ----- --- ------ ----- --<br>----- ----- ---------- --- --- ------ ------ ---- -- ------<br>------- --- ------ ----- --- ---- ------- -- ---- --- --<br>------- ------,206020,206036,205415,205394,205432,206052,,23,state
screen,html.Screen,1_1_1_1_24,2021-04-16T19:43:13.939Z,,,,,,,,,,,,,,,,54,,,,,,,,,,,,,,770,,response,,,,100,,,,,,,Space,keypress(Space),,,,,,,,-- --- ---- --- ------ ----- ------- ---- -- --- ------- --<br>------- ---------- ------ -- ----- -- ----- -- ---- ------<br>--- ----- cut --- ------ -------- ----- --- ------ ----- --<br>----- ----- ---------- --- --- ------ ------ ---- -- ------<br>------- --- ------ ----- --- ---- ------- -- ---- --- --<br>------- ------,206789.00000000003,206805,206035,206020,206052,206820,,24,cut
screen,html.Screen,1_1_1_1_25,2021-04-16T19:43:14.519Z,,,,,,,,,,,,,,,,54,,,,,,,,,,,,,,581,,response,,,,100,,,,,,,Space,keypress(Space),,,,,,,,-- --- ---- --- ------ ----- ------- ---- -- --- ------- --<br>------- ---------- ------ -- ----- -- ----- -- ---- ------<br>--- ----- --- the ------ -------- ----- --- ------ ----- --<br>----- ----- ---------- --- --- ------ ------ ---- -- ------<br>------- --- ------ ----- --- ---- ------- -- ---- --- --<br>------- ------,207368,207385,206804,206789.00000000003,206820,207407,,25,the
screen,html.Screen,1_1_1_1_26,2021-04-16T19:43:15.225Z,,,,,,,,,,,,,,,,54,,,,,,,,,,,,,,700,,response,,,,100,,,,,,,Space,keypress(Space),,,,,,,,-- --- ---- --- ------ ----- ------- ---- -- --- ------- --<br>------- ---------- ------ -- ----- -- ----- -- ---- ------<br>--- ----- --- --- bonds' -------- ----- --- ------ ----- --<br>----- ----- ---------- --- --- ------ ------ ---- -- ------<br>------- --- ------ ----- --- ---- ------- -- ---- --- --<br>------- ------,208074,208091,207391,207369,207407,208110,,26,bonds'
screen,html.Screen,1_1_1_1_27,2021-04-16T19:43:15.871Z,,,,,,,,,,,,,,,,54,,,,,,,,,,,,,,643,,response,,,,100,,,,,,,Space,keypress(Space),,,,,,,,-- --- ---- --- ------ ----- ------- ---- -- --- ------- --<br>------- ---------- ------ -- ----- -- ----- -- ---- ------<br>--- ----- --- --- ------ interest ----- --- ------ ----- --<br>----- ----- ---------- --- --- ------ ------ ---- -- ------<br>------- --- ------ ----- --- ---- ------- -- ---- --- --<br>------- ------,208721,208737,208094,208075.00000000003,208110,208764,,27,interest
screen,html.Screen,1_1_1_1_28,2021-04-16T19:43:16.311Z,,,,,,,,,,,,,,,,54,,,,,,,,,,,,,,431,,response,,,,100,,,,,,,Space,keypress(Space),,,,,,,,-- --- ---- --- ------ ----- ------- ---- -- --- ------- --<br>------- ---------- ------ -- ----- -- ----- -- ---- ------<br>--- ----- --- --- ------ -------- rate. --- ------ ----- --<br>----- ----- ---------- --- --- ------ ------ ---- -- ------<br>------- --- ------ ----- --- ---- ------- -- ---- --- --<br>------- ------,209160,209177,208746,208721,208764,209201,,28,rate.
screen,html.Screen,1_1_1_1_29,2021-04-16T19:43:19.203Z,,,,,,,,,,,,,,,,54,,,,,,,,,,,,,,2885.000000000029,,response,,,,100,,,,,,,Space,keypress(Space),,,,,,,,-- --- ---- --- ------ ----- ------- ---- -- --- ------- --<br>------- ---------- ------ -- ----- -- ----- -- ---- ------<br>--- ----- --- --- ------ -------- ----- The ------ ----- --<br>----- ----- ---------- --- --- ------ ------ ---- -- ------<br>------- --- ------ ----- --- ---- ------- -- ---- --- --<br>------- ------,212053,212069.00000000003,209184,209161,209201,212088,,29,The
screen,html.Screen,1_1_1_1_30,2021-04-16T19:43:20.026Z,,,,,,,,,,,,,,,,54,,,,,,,,,,,,,,822,,response,,,,100,,,,,,,Space,keypress(Space),,,,,,,,-- --- ---- --- ------ ----- ------- ---- -- --- ------- --<br>------- ---------- ------ -- ----- -- ----- -- ---- ------<br>--- ----- --- --- ------ -------- ----- --- market ----- --<br>----- ----- ---------- --- --- ------ ------ ---- -- ------<br>------- --- ------ ----- --- ---- ------- -- ---- --- --<br>------- ------,212876,212893,212071,212053,212088,212907,,30,market
screen,html.Screen,1_1_1_1_31,2021-04-16T19:43:20.660Z,,,,,,,,,,,,,,,,54,,,,,,,,,,,,,,637.0000000000291,,response,,,,100,,,,,,,Space,keypress(Space),,,,,,,,-- --- ---- --- ------ ----- ------- ---- -- --- ------- --<br>------- ---------- ------ -- ----- -- ----- -- ---- ------<br>--- ----- --- --- ------ -------- ----- --- ------ value --<br>----- ----- ---------- --- --- ------ ------ ---- -- ------<br>------- --- ------ ----- --- ---- ------- -- ---- --- --<br>------- ------,213510,213527.00000000003,212890,212876,212907,213544,,31,value
screen,html.Screen,1_1_1_1_32,2021-04-16T19:43:21.260Z,,,,,,,,,,,,,,,,54,,,,,,,,,,,,,,600,,response,,,,100,,,,,,,Space,keypress(Space),,,,,,,,-- --- ---- --- ------ ----- ------- ---- -- --- ------- --<br>------- ---------- ------ -- ----- -- ----- -- ---- ------<br>--- ----- --- --- ------ -------- ----- --- ------ ----- of<br>----- ----- ---------- --- --- ------ ------ ---- -- ------<br>------- --- ------ ----- --- ---- ------- -- ---- --- --<br>------- ------,214110,214127,213527,213510,213544,214146,,32,of
screen,html.Screen,1_1_1_1_33,2021-04-16T19:43:22.040Z,,,,,,,,,,,,,,,,54,,,,,,,,,,,,,,777,,response,,,,100,,,,,,,Space,keypress(Space),,,,,,,,-- --- ---- --- ------ ----- ------- ---- -- --- ------- --<br>------- ---------- ------ -- ----- -- ----- -- ---- ------<br>--- ----- --- --- ------ -------- ----- --- ------ ----- --<br>these ----- ---------- --- --- ------ ------ ---- -- ------<br>------- --- ------ ----- --- ---- ------- -- ---- --- --<br>------- ------,214890.00000000003,214907,214130,214110,214146,214932,,33,these
screen,html.Screen,1_1_1_1_34,2021-04-16T19:43:22.731Z,,,,,,,,,,,,,,,,54,,,,,,,,,,,,,,681,,response,,,,100,,,,,,,Space,keypress(Space),,,,,,,,-- --- ---- --- ------ ----- ------- ---- -- --- ------- --<br>------- ---------- ------ -- ----- -- ----- -- ---- ------<br>--- ----- --- --- ------ -------- ----- --- ------ ----- --<br>----- bonds ---------- --- --- ------ ------ ---- -- ------<br>------- --- ------ ----- --- ---- ------- -- ---- --- --<br>------- ------,215581.00000000003,215597,214916,214890.00000000003,214932,215618,,34,bonds
screen,html.Screen,1_1_1_1_35,2021-04-16T19:43:23.338Z,,,,,,,,,,,,,,,,54,,,,,,,,,,,,,,603,,response,,,,100,,,,,,,Space,keypress(Space),,,,,,,,"-- --- ---- --- ------ ----- ------- ---- -- --- ------- --<br>------- ---------- ------ -- ----- -- ----- -- ---- ------<br>--- ----- --- --- ------ -------- ----- --- ------ ----- --<br>----- ----- plummeted, --- --- ------ ------ ---- -- ------<br>------- --- ------ ----- --- ---- ------- -- ---- --- --<br>------- ------",216188.00000000003,216205,215602,215581.00000000003,215618,216223,,35,"plummeted,"
screen,html.Screen,1_1_1_1_36,2021-04-16T19:43:23.950Z,,,,,,,,,,,,,,,,54,,,,,,,,,,,,,,610,,response,,,,100,,,,,,,Space,keypress(Space),,,,,,,,-- --- ---- --- ------ ----- ------- ---- -- --- ------- --<br>------- ---------- ------ -- ----- -- ----- -- ---- ------<br>--- ----- --- --- ------ -------- ----- --- ------ ----- --<br>----- ----- ---------- and --- ------ ------ ---- -- ------<br>------- --- ------ ----- --- ---- ------- -- ---- --- --<br>------- ------,216800,216816,216206,216188.00000000003,216223,216842,,36,and
screen,html.Screen,1_1_1_1_37,2021-04-16T19:43:24.519Z,,,,,,,,,,,,,,,,54,,,,,,,,,,,,,,560,,response,,,,100,,,,,,,Space,keypress(Space),,,,,,,,-- --- ---- --- ------ ----- ------- ---- -- --- ------- --<br>------- ---------- ------ -- ----- -- ----- -- ---- ------<br>--- ----- --- --- ------ -------- ----- --- ------ ----- --<br>----- ----- ---------- --- the ------ ------ ---- -- ------<br>------- --- ------ ----- --- ---- ------- -- ---- --- --<br>------- ------,217369,217386,216826,216800,216842,217411,,37,the
screen,html.Screen,1_1_1_1_38,2021-04-16T19:43:25.188Z,,,,,,,,,,,,,,,,54,,,,,,,,,,,,,,660,,response,,,,100,,,,,,,Space,keypress(Space),,,,,,,,-- --- ---- --- ------ ----- ------- ---- -- --- ------- --<br>------- ---------- ------ -- ----- -- ----- -- ---- ------<br>--- ----- --- --- ------ -------- ----- --- ------ ----- --<br>----- ----- ---------- --- --- market ------ ---- -- ------<br>------- --- ------ ----- --- ---- ------- -- ---- --- --<br>------- ------,218038,218055,217395,217369,217411,218065,,38,market
screen,html.Screen,1_1_1_1_39,2021-04-16T19:43:25.696Z,,,,,,,,,,,,,,,,54,,,,,,,,,,,,,,515,,response,,,,100,,,,,,,Space,keypress(Space),,,,,,,,-- --- ---- --- ------ ----- ------- ---- -- --- ------- --<br>------- ---------- ------ -- ----- -- ----- -- ---- ------<br>--- ----- --- --- ------ -------- ----- --- ------ ----- --<br>----- ----- ---------- --- --- ------ became ---- -- ------<br>------- --- ------ ----- --- ---- ------- -- ---- --- --<br>------- ------,218546,218562,218047,218038,218065,218584,,39,became
screen,html.Screen,1_1_1_1_40,2021-04-16T19:43:27.268Z,,,,,,,,,,,,,,,,54,,,,,,,,,,,,,,1567,,response,,,,100,,,,,,,Space,keypress(Space),,,,,,,,-- --- ---- --- ------ ----- ------- ---- -- --- ------- --<br>------- ---------- ------ -- ----- -- ----- -- ---- ------<br>--- ----- --- --- ------ -------- ----- --- ------ ----- --<br>----- ----- ---------- --- --- ------ ------ wary -- ------<br>------- --- ------ ----- --- ---- ------- -- ---- --- --<br>------- ------,220118,220134,218567,218546,218584,220154,,40,wary
screen,html.Screen,1_1_1_1_41,2021-04-16T19:43:27.691Z,,,,,,,,,,,,,,,,54,,,,,,,,,,,,,,419.0000000000291,,response,,,,100,,,,,,,Space,keypress(Space),,,,,,,,-- --- ---- --- ------ ----- ------- ---- -- --- ------- --<br>------- ---------- ------ -- ----- -- ----- -- ---- ------<br>--- ----- --- --- ------ -------- ----- --- ------ ----- --<br>----- ----- ---------- --- --- ------ ------ ---- of ------<br>------- --- ------ ----- --- ---- ------- -- ---- --- --<br>------- ------,220541,220557.00000000003,220138,220118,220154,220574,,41,of
screen,html.Screen,1_1_1_1_42,2021-04-16T19:43:28.235Z,,,,,,,,,,,,,,,,54,,,,,,,,,,,,,,545,,response,,,,100,,,,,,,Space,keypress(Space),,,,,,,,-- --- ---- --- ------ ----- ------- ---- -- --- ------- --<br>------- ---------- ------ -- ----- -- ----- -- ---- ------<br>--- ----- --- --- ------ -------- ----- --- ------ ----- --<br>----- ----- ---------- --- --- ------ ------ ---- -- French<br>------- --- ------ ----- --- ---- ------- -- ---- --- --<br>------- ------,221085,221101,220556,220541,220574,221127,,42,French
screen,html.Screen,1_1_1_1_43,2021-04-16T19:43:28.711Z,,,,,,,,,,,,,,,,54,,,,,,,,,,,,,,467,,response,,,,100,,,,,,,Space,keypress(Space),,,,,,,,-- --- ---- --- ------ ----- ------- ---- -- --- ------- --<br>------- ---------- ------ -- ----- -- ----- -- ---- ------<br>--- ----- --- --- ------ -------- ----- --- ------ ----- --<br>----- ----- ---------- --- --- ------ ------ ---- -- ------<br>credit. --- ------ ----- --- ---- ------- -- ---- --- --<br>------- ------,221561,221577,221110,221085,221127,221596,,43,credit.
screen,html.Screen,1_1_1_1_44,2021-04-16T19:43:29.229Z,,,,,,,,,,,,,,,,54,,,,,,,,,,,,,,515,,response,,,,100,,,,,,,Space,keypress(Space),,,,,,,,-- --- ---- --- ------ ----- ------- ---- -- --- ------- --<br>------- ---------- ------ -- ----- -- ----- -- ---- ------<br>--- ----- --- --- ------ -------- ----- --- ------ ----- --<br>----- ----- ---------- --- --- ------ ------ ---- -- ------<br>------- The ------ ----- --- ---- ------- -- ---- --- --<br>------- ------,222079,222095,221580,221561,221596,222116,,44,The
screen,html.Screen,1_1_1_1_45,2021-04-16T19:43:29.901Z,,,,,,,,,,,,,,,,54,,,,,,,,,,,,,,669,,response,,,,100,,,,,,,Space,keypress(Space),,,,,,,,-- --- ---- --- ------ ----- ------- ---- -- --- ------- --<br>------- ---------- ------ -- ----- -- ----- -- ---- ------<br>--- ----- --- --- ------ -------- ----- --- ------ ----- --<br>----- ----- ---------- --- --- ------ ------ ---- -- ------<br>------- --- French ----- --- ---- ------- -- ---- --- --<br>------- ------,222751,222768,222099,222080,222116,222785,,45,French
screen,html.Screen,1_1_1_1_46,2021-04-16T19:43:30.412Z,,,,,,,,,,,,,,,,54,,,,,,,,,,,,,,511,,response,,,,100,,,,,,,Space,keypress(Space),,,,,,,,-- --- ---- --- ------ ----- ------- ---- -- --- ------- --<br>------- ---------- ------ -- ----- -- ----- -- ---- ------<br>--- ----- --- --- ------ -------- ----- --- ------ ----- --<br>----- ----- ---------- --- --- ------ ------ ---- -- ------<br>------- --- ------ state --- ---- ------- -- ---- --- --<br>------- ------,223263,223279,222768,222751,222785,223305,,46,state
screen,html.Screen,1_1_1_1_47,2021-04-16T19:43:30.959Z,,,,,,,,,,,,,,,,54,,,,,,,,,,,,,,536.0000000000291,,response,,,,100,,,,,,,Space,keypress(Space),,,,,,,,-- --- ---- --- ------ ----- ------- ---- -- --- ------- --<br>------- ---------- ------ -- ----- -- ----- -- ---- ------<br>--- ----- --- --- ------ -------- ----- --- ------ ----- --<br>----- ----- ---------- --- --- ------ ------ ---- -- ------<br>------- --- ------ ----- was ---- ------- -- ---- --- --<br>------- ------,223809,223825.00000000003,223289,223263,223305,223841,,47,was
screen,html.Screen,1_1_1_1_48,2021-04-16T19:43:31.426Z,,,,,,,,,,,,,,,,54,,,,,,,,,,,,,,467,,response,,,,100,,,,,,,Space,keypress(Space),,,,,,,,-- --- ---- --- ------ ----- ------- ---- -- --- ------- --<br>------- ---------- ------ -- ----- -- ----- -- ---- ------<br>--- ----- --- --- ------ -------- ----- --- ------ ----- --<br>----- ----- ---------- --- --- ------ ------ ---- -- ------<br>------- --- ------ ----- --- left ------- -- ---- --- --<br>------- ------,224276,224292,223825,223809,223841,224313,,48,left
screen,html.Screen,1_1_1_1_49,2021-04-16T19:43:31.856Z,,,,,,,,,,,,,,,,54,,,,,,,,,,,,,,426,,response,,,,100,,,,,,,Space,keypress(Space),,,,,,,,-- --- ---- --- ------ ----- ------- ---- -- --- ------- --<br>------- ---------- ------ -- ----- -- ----- -- ---- ------<br>--- ----- --- --- ------ -------- ----- --- ------ ----- --<br>----- ----- ---------- --- --- ------ ------ ---- -- ------<br>------- --- ------ ----- --- ---- without -- ---- --- --<br>------- ------,224706.00000000003,224722,224296,224276,224313,224732,,49,without
screen,html.Screen,1_1_1_1_50,2021-04-16T19:43:32.240Z,,,,,,,,,,,,,,,,54,,,,,,,,,,,,,,391,,response,,,,100,,,,,,,Space,keypress(Space),,,,,,,,-- --- ---- --- ------ ----- ------- ---- -- --- ------- --<br>------- ---------- ------ -- ----- -- ----- -- ---- ------<br>--- ----- --- --- ------ -------- ----- --- ------ ----- --<br>----- ----- ---------- --- --- ------ ------ ---- -- ------<br>------- --- ------ ----- --- ---- ------- an ---- --- --<br>------- ------,225090,225107,224716,224706.00000000003,224732,225119,,50,an
screen,html.Screen,1_1_1_1_51,2021-04-16T19:43:32.836Z,,,,,,,,,,,,,,,,54,,,,,,,,,,,,,,600,,response,,,,100,,,,,,,Space,keypress(Space),,,,,,,,-- --- ---- --- ------ ----- ------- ---- -- --- ------- --<br>------- ---------- ------ -- ----- -- ----- -- ---- ------<br>--- ----- --- --- ------ -------- ----- --- ------ ----- --<br>----- ----- ---------- --- --- ------ ------ ---- -- ------<br>------- --- ------ ----- --- ---- ------- -- easy --- --<br>------- ------,225686,225702,225102,225091,225119,225722,,51,easy
screen,html.Screen,1_1_1_1_52,2021-04-16T19:43:33.205Z,,,,,,,,,,,,,,,,54,,,,,,,,,,,,,,367,,response,,,,100,,,,,,,Space,keypress(Space),,,,,,,,-- --- ---- --- ------ ----- ------- ---- -- --- ------- --<br>------- ---------- ------ -- ----- -- ----- -- ---- ------<br>--- ----- --- --- ------ -------- ----- --- ------ ----- --<br>----- ----- ---------- --- --- ------ ------ ---- -- ------<br>------- --- ------ ----- --- ---- ------- -- ---- way --<br>------- ------,226055,226072,225705,225686,225722,226075,,52,way
screen,html.Screen,1_1_1_1_53,2021-04-16T19:43:33.597Z,,,,,,,,,,,,,,,,54,,,,,,,,,,,,,,405,,response,,,,100,,,,,,,Space,keypress(Space),,,,,,,,-- --- ---- --- ------ ----- ------- ---- -- --- ------- --<br>------- ---------- ------ -- ----- -- ----- -- ---- ------<br>--- ----- --- --- ------ -------- ----- --- ------ ----- --<br>----- ----- ---------- --- --- ------ ------ ---- -- ------<br>------- --- ------ ----- --- ---- ------- -- ---- --- of<br>------- ------,226447,226463,226058,226056,226075,226478,,53,of
screen,html.Screen,1_1_1_1_54,2021-04-16T19:43:34.018Z,,,,,,,,,,,,,,,,54,,,,,,,,,,,,,,424,,response,,,,100,,,,,,,Space,keypress(Space),,,,,,,,-- --- ---- --- ------ ----- ------- ---- -- --- ------- --<br>------- ---------- ------ -- ----- -- ----- -- ---- ------<br>--- ----- --- --- ------ -------- ----- --- ------ ----- --<br>----- ----- ---------- --- --- ------ ------ ---- -- ------<br>------- --- ------ ----- --- ---- ------- -- ---- --- --<br>raising ------,226868,226884,226460,226447,226478,226897,,54,raising
screen,html.Screen,1_1_1_1_55,2021-04-16T19:43:34.476Z,,,,,,,,,,,,,,,,54,,,,,,,,,,,,,,464.0000000000291,,response,,,,100,,,,,,,Space,keypress(Space),,,,,,,,-- --- ---- --- ------ ----- ------- ---- -- --- ------- --<br>------- ---------- ------ -- ----- -- ----- -- ---- ------<br>--- ----- --- --- ------ -------- ----- --- ------ ----- --<br>----- ----- ---------- --- --- ------ ------ ---- -- ------<br>------- --- ------ ----- --- ---- ------- -- ---- --- --<br>------- money.,227326,227343.00000000003,226879,226868,226897,227366,,55,money.
Item 100,flow.Loop,1_1_1_1,2021-04-16T19:43:34.477Z,,,,,,,,,,,,,,,,,,,,,,,,,,,,,,41407.00000000003,,completion,,,,,B,,,,,,,,,,,silence,,,,,227327,227343.00000000003,185919,185919,185936,227366,,,
Question 1,html.Screen,1_1_1_2,2021-04-16T19:43:38.713Z,,,,,,,,,,,,,,,,,,,,,,,,,,,true,TRUE,,4232.000000000029,,response,,,,100,B,,,,,,TRUE,click #choice-1,,,,silence,,,,,231564,231581.00000000003,227349,227327,227366,231594,,,
Question 2,html.Screen,1_1_1_3,2021-04-16T19:43:42.472Z,,,,,,,,,,,,,,,,,,,,,,,,,,,true,FALSE,,3763,,response,,,,100,B,,,,,,FALSE,click #choice-2,,,,silence,,,,,235323,235341,231578,231564,231594,235356,,,
Item 100,flow.Sequence,1_1_1,2021-04-16T19:43:42.473Z,,,,,,,,,,,,,,,,,,,,,,,,,,,,,,59412,,completion,,,,,,,,,,,,,,,,,,,,,235323,235341,175905,175894,175929,235356,,,
End of Practice,html.Page,1_1_2,2021-04-16T19:43:46.139Z,,,,,,,,,,,,,,,,,,,,,,,,,,,,,,3633,,form submission,,,,,,,,,,,,,,,,,,,,,238990,238989,235340,235323,235356,239018,,,
Practice,flow.Sequence,1_1,2021-04-16T19:43:46.139Z,,,,,,,,,,,,,,,,,,,,,,,,,,,,,,113323,,completion,,,,,,,,,,,,,,,,,,,,,238990,238989,125649,125643,125666,239018,,,
Trap_instruction,html.Page,1_2_0,2021-04-16T19:43:51.794Z,,,,,,,,,,,,,,,,,,,,,,,,,,,,,,5627,,form submission,,,,,,,,,,,,,,,,,,,,,244645,244645,239001,238990,239018,244674,,,
trap_trial,html.Screen,1_2_1,2021-04-16T19:43:55.736Z,,,,,,,,,,,,,,,,,,,,,,,,,,,true,1,,3948.000000000029,,response,,,,,,,,,,,1,click #choice-1,,,,,,,,,248587.00000000003,248605.00000000003,244657,244645,244674,248627,,,
end of trap trial,html.Page,1_2_2,2021-04-16T19:43:58.450Z,,,,,,,,,,,,,,,,,,,,,,,,,,,,,,2673,,form submission,,,,,,,,,,,,,,,,,,,,,251300,251300,248623,248587.00000000003,248627,251330,,,
Trap 1,flow.Sequence,1_2,2021-04-16T19:43:58.450Z,,,,,,,,,,,,,,,,,,,,,,,,,,,,,,12282,,completion,,,,,,,,,,,,,,,,,,,,,251300,251300,239001,238990,239018,251330,,,
Standby,html.Page,1_3_0,2021-04-16T19:44:06.469Z,,,,,,,,,,,,,,,,,,,,,,,,,,,,,,8006,,timeout,,,,,,,,,,,,,,,,,,,,,259320,259320,251314,251300,251330,259336,,,
Holding screen,html.Screen,1_3_1_0_0,2021-04-16T19:44:13.474Z,,,,,,,,,,,,,,,,,,,,,,,,,,,,,,7005,,timeout,,,,,,,,,,,,,,,,,,,,,266325,266324,259320,259320,259336,266341,,,
screen,html.Screen,1_3_1_0_1_0,2021-04-16T19:44:15.066Z,,,,,,,,,,,,,,,,2,,,,,,,,,,,,,,1610,,response,,,,1,B,,,,,,Space,keypress(Space),,,,lyrical,,,,Two ---- ------ --- ------- ---------- ------- ----------<br>--- --------- --- ----------- ------- ----- ------- ---<br>--------- ---- -- --- ---- -- --------- -- ---- -------<br>-- --------- ------ --- ----- ------ ---- --- --------- --<br>------ - ---- -- --- ----------- ------- ---- ----- -----<br>--- -------- - ------ ---- -- ----- ---- --- --- -----------<br>-- -------,267917.00000000006,267934,266324,266325,266341,267944,,0,Two
screen,html.Screen,1_3_1_0_1_1,2021-04-16T19:44:16.133Z,,,,,,,,,,,,,,,,2,,,,,,,,,,,,,,1074.0000000000582,,response,,,,1,B,,,,,,Space,keypress(Space),,,,lyrical,,,,--- days ------ --- ------- ---------- ------- ----------<br>--- --------- --- ----------- ------- ----- ------- ---<br>--------- ---- -- --- ---- -- --------- -- ---- -------<br>-- --------- ------ --- ----- ------ ---- --- --------- --<br>------ - ---- -- --- ----------- ------- ---- ----- -----<br>--- -------- - ------ ---- -- ----- ---- --- --- -----------<br>-- -------,268984,269001.00000000006,267927,267917.00000000006,267944,269013,,1,days
screen,html.Screen,1_3_1_0_1_2,2021-04-16T19:44:16.764Z,,,,,,,,,,,,,,,,2,,,,,,,,,,,,,,636,,response,,,,1,B,,,,,,Space,keypress(Space),,,,lyrical,,,,"--- ---- later, --- ------- ---------- ------- ----------<br>--- --------- --- ----------- ------- ----- ------- ---<br>--------- ---- -- --- ---- -- --------- -- ---- -------<br>-- --------- ------ --- ----- ------ ---- --- --------- --<br>------ - ---- -- --- ----------- ------- ---- ----- -----<br>--- -------- - ------ ---- -- ----- ---- --- --- -----------<br>-- -------",269615,269632,268996,268984,269013,269650,,2,"later,"
screen,html.Screen,1_3_1_0_1_3,2021-04-16T19:44:17.294Z,,,,,,,,,,,,,,,,2,,,,,,,,,,,,,,529,,response,,,,1,B,,,,,,Space,keypress(Space),,,,lyrical,,,,--- ---- ------ the ------- ---------- ------- ----------<br>--- --------- --- ----------- ------- ----- ------- ---<br>--------- ---- -- --- ---- -- --------- -- ---- -------<br>-- --------- ------ --- ----- ------ ---- --- --------- --<br>------ - ---- -- --- ----------- ------- ---- ----- -----<br>--- -------- - ------ ---- -- ----- ---- --- --- -----------<br>-- -------,270144,270161,269632,269615,269650,270186,,3,the
screen,html.Screen,1_3_1_0_1_4,2021-04-16T19:44:17.861Z,,,,,,,,,,,,,,,,2,,,,,,,,,,,,,,560,,response,,,,1,B,,,,,,Space,keypress(Space),,,,lyrical,,,,--- ---- ------ --- British ---------- ------- ----------<br>--- --------- --- ----------- ------- ----- ------- ---<br>--------- ---- -- --- ---- -- --------- -- ---- -------<br>-- --------- ------ --- ----- ------ ---- --- --------- --<br>------ - ---- -- --- ----------- ------- ---- ----- -----<br>--- -------- - ------ ---- -- ----- ---- --- --- -----------<br>-- -------,270712,270729,270169,270145,270186,270740,,4,British
screen,html.Screen,1_3_1_0_1_5,2021-04-16T19:44:18.749Z,,,,,,,,,,,,,,,,2,,,,,,,,,,,,,,894,,response,,,,1,B,,,,,,Space,keypress(Space),,,,lyrical,,,,--- ---- ------ --- ------- astronomer ------- ----------<br>--- --------- --- ----------- ------- ----- ------- ---<br>--------- ---- -- --- ---- -- --------- -- ---- -------<br>-- --------- ------ --- ----- ------ ---- --- --------- --<br>------ - ---- -- --- ----------- ------- ---- ----- -----<br>--- -------- - ------ ---- -- ----- ---- --- --- -----------<br>-- -------,271600,271617,270723,270712,270740,271643,,5,astronomer
screen,html.Screen,1_3_1_0_1_6,2021-04-16T19:44:19.284Z,,,,,,,,,,,,,,,,2,,,,,,,,,,,,,,525,,response,,,,1,B,,,,,,Space,keypress(Space),,,,lyrical,,,,--- ---- ------ --- ------- ---------- Richard ----------<br>--- --------- --- ----------- ------- ----- ------- ---<br>--------- ---- -- --- ---- -- --------- -- ---- -------<br>-- --------- ------ --- ----- ------ ---- --- --------- --<br>------ - ---- -- --- ----------- ------- ---- ----- -----<br>--- -------- - ------ ---- -- ----- ---- --- --- -----------<br>-- -------,272135,272152,271627,271600,271643,272163,,6,Richard
screen,html.Screen,1_3_1_0_1_7,2021-04-16T19:44:20.259Z,,,,,,,,,,,,,,,,2,,,,,,,,,,,,,,981,,response,,,,1,B,,,,,,Space,keypress(Space),,,,lyrical,,,,--- ---- ------ --- ------- ---------- ------- Carrington<br>--- --------- --- ----------- ------- ----- ------- ---<br>--------- ---- -- --- ---- -- --------- -- ---- -------<br>-- --------- ------ --- ----- ------ ---- --- --------- --<br>------ - ---- -- --- ----------- ------- ---- ----- -----<br>--- -------- - ------ ---- -- ----- ---- --- --- -----------<br>-- -------,273110,273127,272146,272135,272163,273149,,7,Carrington
screen,html.Screen,1_3_1_0_1_8,2021-04-16T19:44:20.921Z,,,,,,,,,,,,,,,,2,,,,,,,,,,,,,,657,,response,,,,1,B,,,,,,Space,keypress(Space),,,,lyrical,,,,--- ---- ------ --- ------- ---------- ------- ----------<br>was --------- --- ----------- ------- ----- ------- ---<br>--------- ---- -- --- ---- -- --------- -- ---- -------<br>-- --------- ------ --- ----- ------ ---- --- --------- --<br>------ - ---- -- --- ----------- ------- ---- ----- -----<br>--- -------- - ------ ---- -- ----- ---- --- --- -----------<br>-- -------,273772,273789,273132,273110,273149,273802,,8,was
screen,html.Screen,1_3_1_0_1_9,2021-04-16T19:44:24.156Z,,,,,,,,,,,,,,,,2,,,,,,,,,,,,,,3238,,response,,,,1,B,,,,,,Space,keypress(Space),,,,lyrical,,,,--- ---- ------ --- ------- ---------- ------- ----------<br>--- observing --- ----------- ------- ----- ------- ---<br>--------- ---- -- --- ---- -- --------- -- ---- -------<br>-- --------- ------ --- ----- ------ ---- --- --------- --<br>------ - ---- -- --- ----------- ------- ---- ----- -----<br>--- -------- - ------ ---- -- ----- ---- --- --- -----------<br>-- -------,277007,277023,273785,273772,273802,277037,,9,observing
screen,html.Screen,1_3_1_0_1_10,2021-04-16T19:44:25.403Z,,,,,,,,,,,,,,,,2,,,,,,,,,,,,,,1249,,response,,,,1,B,,,,,,Space,keypress(Space),,,,lyrical,,,,--- ---- ------ --- ------- ---------- ------- ----------<br>--- --------- the ----------- ------- ----- ------- ---<br>--------- ---- -- --- ---- -- --------- -- ---- -------<br>-- --------- ------ --- ----- ------ ---- --- --------- --<br>------ - ---- -- --- ----------- ------- ---- ----- -----<br>--- -------- - ------ ---- -- ----- ---- --- --- -----------<br>-- -------,278254,278271,277022,277007,277037,278292,,10,the
screen,html.Screen,1_3_1_0_1_11,2021-04-16T19:44:26.042Z,,,,,,,,,,,,,,,,2,,,,,,,,,,,,,,635,,response,,,,1,B,,,,,,Space,keypress(Space),,,,lyrical,,,,--- ---- ------ --- ------- ---------- ------- ----------<br>--- --------- --- interesting ------- ----- ------- ---<br>--------- ---- -- --- ---- -- --------- -- ---- -------<br>-- --------- ------ --- ----- ------ ---- --- --------- --<br>------ - ---- -- --- ----------- ------- ---- ----- -----<br>--- -------- - ------ ---- -- ----- ---- --- --- -----------<br>-- -------,278893,278910,278275,278254,278292,278928,,11,interesting
screen,html.Screen,1_3_1_0_1_12,2021-04-16T19:44:26.693Z,,,,,,,,,,,,,,,,2,,,,,,,,,,,,,,651,,response,,,,1,B,,,,,,Space,keypress(Space),,,,lyrical,,,,--- ---- ------ --- ------- ---------- ------- ----------<br>--- --------- --- ----------- sunspot ----- ------- ---<br>--------- ---- -- --- ---- -- --------- -- ---- -------<br>-- --------- ------ --- ----- ------ ---- --- --------- --<br>------ - ---- -- --- ----------- ------- ---- ----- -----<br>--- -------- - ------ ---- -- ----- ---- --- --- -----------<br>-- -------,279544,279561,278910,278893,278928,279580,,12,sunspot
screen,html.Screen,1_3_1_0_1_13,2021-04-16T19:44:27.236Z,,,,,,,,,,,,,,,,2,,,,,,,,,,,,,,540,,response,,,,1,B,,,,,,Space,keypress(Space),,,,lyrical,,,,--- ---- ------ --- ------- ---------- ------- ----------<br>--- --------- --- ----------- ------- group ------- ---<br>--------- ---- -- --- ---- -- --------- -- ---- -------<br>-- --------- ------ --- ----- ------ ---- --- --------- --<br>------ - ---- -- --- ----------- ------- ---- ----- -----<br>--- -------- - ------ ---- -- ----- ---- --- --- -----------<br>-- -------,280087,280104,279564,279544,279580,280116,,13,group
screen,html.Screen,1_3_1_0_1_14,2021-04-16T19:44:27.683Z,,,,,,,,,,,,,,,,2,,,,,,,,,,,,,,451,,response,,,,1,B,,,,,,Space,keypress(Space),,,,lyrical,,,,--- ---- ------ --- ------- ---------- ------- ----------<br>--- --------- --- ----------- ------- ----- through ---<br>--------- ---- -- --- ---- -- --------- -- ---- -------<br>-- --------- ------ --- ----- ------ ---- --- --------- --<br>------ - ---- -- --- ----------- ------- ---- ----- -----<br>--- -------- - ------ ---- -- ----- ---- --- --- -----------<br>-- -------,280534,280551,280100,280087,280116,280570,,14,through
screen,html.Screen,1_3_1_0_1_15,2021-04-16T19:44:28.067Z,,,,,,,,,,,,,,,,2,,,,,,,,,,,,,,381,,response,,,,1,B,,,,,,Space,keypress(Space),,,,lyrical,,,,--- ---- ------ --- ------- ---------- ------- ----------<br>--- --------- --- ----------- ------- ----- ------- his<br>--------- ---- -- --- ---- -- --------- -- ---- -------<br>-- --------- ------ --- ----- ------ ---- --- --------- --<br>------ - ---- -- --- ----------- ------- ---- ----- -----<br>--- -------- - ------ ---- -- ----- ---- --- --- -----------<br>-- -------,280918,280935,280554,280534,280570,280940,,15,his
screen,html.Screen,1_3_1_0_1_16,2021-04-16T19:44:28.927Z,,,,,,,,,,,,,,,,2,,,,,,,,,,,,,,873,,response,,,,1,B,,,,,,Space,keypress(Space),,,,lyrical,,,,--- ---- ------ --- ------- ---------- ------- ----------<br>--- --------- --- ----------- ------- ----- ------- ---<br>telescope ---- -- --- ---- -- --------- -- ---- -------<br>-- --------- ------ --- ----- ------ ---- --- --------- --<br>------ - ---- -- --- ----------- ------- ---- ----- -----<br>--- -------- - ------ ---- -- ----- ---- --- --- -----------<br>-- -------,281779,281796,280923,280918,280940,281810,,16,telescope
screen,html.Screen,1_3_1_0_1_17,2021-04-16T19:44:29.422Z,,,,,,,,,,,,,,,,2,,,,,,,,,,,,,,497,,response,,,,1,B,,,,,,Space,keypress(Space),,,,lyrical,,,,--- ---- ------ --- ------- ---------- ------- ----------<br>--- --------- --- ----------- ------- ----- ------- ---<br>--------- when -- --- ---- -- --------- -- ---- -------<br>-- --------- ------ --- ----- ------ ---- --- --------- --<br>------ - ---- -- --- ----------- ------- ---- ----- -----<br>--- -------- - ------ ---- -- ----- ---- --- --- -----------<br>-- -------,282273,282290,281793,281779,281810,282313,,17,when
screen,html.Screen,1_3_1_0_1_18,2021-04-16T19:44:30.116Z,,,,,,,,,,,,,,,,2,,,,,,,,,,,,,,688,,response,,,,1,B,,,,,,Space,keypress(Space),,,,lyrical,,,,--- ---- ------ --- ------- ---------- ------- ----------<br>--- --------- --- ----------- ------- ----- ------- ---<br>--------- ---- he --- ---- -- --------- -- ---- -------<br>-- --------- ------ --- ----- ------ ---- --- --------- --<br>------ - ---- -- --- ----------- ------- ---- ----- -----<br>--- -------- - ------ ---- -- ----- ---- --- --- -----------<br>-- -------,282967,282984,282296,282273,282313,282999,,18,he
screen,html.Screen,1_3_1_0_1_19,2021-04-16T19:44:30.619Z,,,,,,,,,,,,,,,,2,,,,,,,,,,,,,,504,,response,,,,1,B,,,,,,Space,keypress(Space),,,,lyrical,,,,--- ---- ------ --- ------- ---------- ------- ----------<br>--- --------- --- ----------- ------- ----- ------- ---<br>--------- ---- -- saw ---- -- --------- -- ---- -------<br>-- --------- ------ --- ----- ------ ---- --- --------- --<br>------ - ---- -- --- ----------- ------- ---- ----- -----<br>--- -------- - ------ ---- -- ----- ---- --- --- -----------<br>-- -------,283470,283487,282983,282967,282999,283502,,19,saw
screen,html.Screen,1_3_1_0_1_20,2021-04-16T19:44:31.140Z,,,,,,,,,,,,,,,,2,,,,,,,,,,,,,,523,,response,,,,1,B,,,,,,Space,keypress(Space),,,,lyrical,,,,--- ---- ------ --- ------- ---------- ------- ----------<br>--- --------- --- ----------- ------- ----- ------- ---<br>--------- ---- -- --- what -- --------- -- ---- -------<br>-- --------- ------ --- ----- ------ ---- --- --------- --<br>------ - ---- -- --- ----------- ------- ---- ----- -----<br>--- -------- - ------ ---- -- ----- ---- --- --- -----------<br>-- -------,283991,284009,283486,283470,283502,284022,,20,what
screen,html.Screen,1_3_1_0_1_21,2021-04-16T19:44:31.611Z,,,,,,,,,,,,,,,,2,,,,,,,,,,,,,,476,,response,,,,1,B,,,,,,Space,keypress(Space),,,,lyrical,,,,--- ---- ------ --- ------- ---------- ------- ----------<br>--- --------- --- ----------- ------- ----- ------- ---<br>--------- ---- -- --- ---- he --------- -- ---- -------<br>-- --------- ------ --- ----- ------ ---- --- --------- --<br>------ - ---- -- --- ----------- ------- ---- ----- -----<br>--- -------- - ------ ---- -- ----- ---- --- --- -----------<br>-- -------,284463,284480,284004,283991,284022,284491,,21,he
screen,html.Screen,1_3_1_0_1_22,2021-04-16T19:44:32.167Z,,,,,,,,,,,,,,,,2,,,,,,,,,,,,,,562,,response,,,,1,B,,,,,,Space,keypress(Space),,,,lyrical,,,,--- ---- ------ --- ------- ---------- ------- ----------<br>--- --------- --- ----------- ------- ----- ------- ---<br>--------- ---- -- --- ---- -- described -- ---- -------<br>-- --------- ------ --- ----- ------ ---- --- --------- --<br>------ - ---- -- --- ----------- ------- ---- ----- -----<br>--- -------- - ------ ---- -- ----- ---- --- --- -----------<br>-- -------,285018,285036,284474,284463,284491,285060,,22,described
screen,html.Screen,1_3_1_0_1_23,2021-04-16T19:44:32.692Z,,,,,,,,,,,,,,,,2,,,,,,,,,,,,,,516,,response,,,,1,B,,,,,,Space,keypress(Space),,,,lyrical,,,,--- ---- ------ --- ------- ---------- ------- ----------<br>--- --------- --- ----------- ------- ----- ------- ---<br>--------- ---- -- --- ---- -- --------- as ---- -------<br>-- --------- ------ --- ----- ------ ---- --- --------- --<br>------ - ---- -- --- ----------- ------- ---- ----- -----<br>--- -------- - ------ ---- -- ----- ---- --- --- -----------<br>-- -------,285543,285560,285044,285018,285060,285579,,23,as
screen,html.Screen,1_3_1_0_1_24,2021-04-16T19:44:33.188Z,,,,,,,,,,,,,,,,2,,,,,,,,,,,,,,493,,response,,,,1,B,,,,,,Space,keypress(Space),,,,lyrical,,,,"--- ---- ------ --- ------- ---------- ------- ----------<br>--- --------- --- ----------- ------- ----- ------- ---<br>--------- ---- -- --- ---- -- --------- -- ""two -------<br>-- --------- ------ --- ----- ------ ---- --- --------- --<br>------ - ---- -- --- ----------- ------- ---- ----- -----<br>--- -------- - ------ ---- -- ----- ---- --- --- -----------<br>-- -------",286040,286057,285564,285543,285579,286066,,24,"""two"
screen,html.Screen,1_3_1_0_1_25,2021-04-16T19:44:33.730Z,,,,,,,,,,,,,,,,2,,,,,,,,,,,,,,548,,response,,,,1,B,,,,,,Space,keypress(Space),,,,lyrical,,,,--- ---- ------ --- ------- ---------- ------- ----------<br>--- --------- --- ----------- ------- ----- ------- ---<br>--------- ---- -- --- ---- -- --------- -- ---- patches<br>-- --------- ------ --- ----- ------ ---- --- --------- --<br>------ - ---- -- --- ----------- ------- ---- ----- -----<br>--- -------- - ------ ---- -- ----- ---- --- --- -----------<br>-- -------,286581,286598,286050,286040,286066,286619,,25,patches
screen,html.Screen,1_3_1_0_1_26,2021-04-16T19:44:34.230Z,,,,,,,,,,,,,,,,2,,,,,,,,,,,,,,495,,response,,,,1,B,,,,,,Space,keypress(Space),,,,lyrical,,,,--- ---- ------ --- ------- ---------- ------- ----------<br>--- --------- --- ----------- ------- ----- ------- ---<br>--------- ---- -- --- ---- -- --------- -- ---- -------<br>of --------- ------ --- ----- ------ ---- --- --------- --<br>------ - ---- -- --- ----------- ------- ---- ----- -----<br>--- -------- - ------ ---- -- ----- ---- --- --- -----------<br>-- -------,287081,287098,286603,286581,286619,287122,,26,of
screen,html.Screen,1_3_1_0_1_27,2021-04-16T19:44:34.784Z,,,,,,,,,,,,,,,,2,,,,,,,,,,,,,,543,,response,,,,1,B,,,,,,Space,keypress(Space),,,,lyrical,,,,--- ---- ------ --- ------- ---------- ------- ----------<br>--- --------- --- ----------- ------- ----- ------- ---<br>--------- ---- -- --- ---- -- --------- -- ---- -------<br>-- intensely ------ --- ----- ------ ---- --- --------- --<br>------ - ---- -- --- ----------- ------- ---- ----- -----<br>--- -------- - ------ ---- -- ----- ---- --- --- -----------<br>-- -------,287635,287649,287106,287081,287122,287675,,27,intensely
screen,html.Screen,1_3_1_0_1_28,2021-04-16T19:44:35.475Z,,,,,,,,,,,,,,,,2,,,,,,,,,,,,,,685,,response,,,,1,B,,,,,,Space,keypress(Space),,,,lyrical,,,,--- ---- ------ --- ------- ---------- ------- ----------<br>--- --------- --- ----------- ------- ----- ------- ---<br>--------- ---- -- --- ---- -- --------- -- ---- -------<br>-- --------- bright --- ----- ------ ---- --- --------- --<br>------ - ---- -- --- ----------- ------- ---- ----- -----<br>--- -------- - ------ ---- -- ----- ---- --- --- -----------<br>-- -------,288327,288344,287659,287635,287675,288362,,28,bright
screen,html.Screen,1_3_1_0_1_29,2021-04-16T19:44:36.403Z,,,,,,,,,,,,,,,,2,,,,,,,,,,,,,,927,,response,,,,1,B,,,,,,Space,keypress(Space),,,,lyrical,,,,--- ---- ------ --- ------- ---------- ------- ----------<br>--- --------- --- ----------- ------- ----- ------- ---<br>--------- ---- -- --- ---- -- --------- -- ---- -------<br>-- --------- ------ and ----- ------ ---- --- --------- --<br>------ - ---- -- --- ----------- ------- ---- ----- -----<br>--- -------- - ------ ---- -- ----- ---- --- --- -----------<br>-- -------,289254,289272,288345,288327,288362,289282,,29,and
screen,html.Screen,1_3_1_0_1_30,2021-04-16T19:44:37.007Z,,,,,,,,,,,,,,,,2,,,,,,,,,,,,,,610.0000000000582,,response,,,,1,B,,,,,,Space,keypress(Space),,,,lyrical,,,,--- ---- ------ --- ------- ---------- ------- ----------<br>--- --------- --- ----------- ------- ----- ------- ---<br>--------- ---- -- --- ---- -- --------- -- ---- -------<br>-- --------- ------ --- white ------ ---- --- --------- --<br>------ - ---- -- --- ----------- ------- ---- ----- -----<br>--- -------- - ------ ---- -- ----- ---- --- --- -----------<br>-- -------,289858,289876.00000000006,289266,289254,289282,289884,,30,white
screen,html.Screen,1_3_1_0_1_31,2021-04-16T19:44:38.751Z,,,,,,,,,,,,,,,,2,,,,,,,,,,,,,,1752,,response,,,,1,B,,,,,,Space,keypress(Space),,,,lyrical,,,,"--- ---- ------ --- ------- ---------- ------- ----------<br>--- --------- --- ----------- ------- ----- ------- ---<br>--------- ---- -- --- ---- -- --------- -- ---- -------<br>-- --------- ------ --- ----- light"" ---- --- --------- --<br>------ - ---- -- --- ----------- ------- ---- ----- -----<br>--- -------- - ------ ---- -- ----- ---- --- --- -----------<br>-- -------",291602.00000000006,291620,289868,289858,289884,291638,,31,"light"""
screen,html.Screen,1_3_1_0_1_32,2021-04-16T19:44:39.371Z,,,,,,,,,,,,,,,,2,,,,,,,,,,,,,,618,,response,,,,1,B,,,,,,Space,keypress(Space),,,,lyrical,,,,--- ---- ------ --- ------- ---------- ------- ----------<br>--- --------- --- ----------- ------- ----- ------- ---<br>--------- ---- -- --- ---- -- --------- -- ---- -------<br>-- --------- ------ --- ----- ------ over --- --------- --<br>------ - ---- -- --- ----------- ------- ---- ----- -----<br>--- -------- - ------ ---- -- ----- ---- --- --- -----------<br>-- -------,292222,292240,291622,291603,291638,292258,,32,over
screen,html.Screen,1_3_1_0_1_33,2021-04-16T19:44:40.162Z,,,,,,,,,,,,,,,,2,,,,,,,,,,,,,,790,,response,,,,1,B,,,,,,Space,keypress(Space),,,,lyrical,,,,--- ---- ------ --- ------- ---------- ------- ----------<br>--- --------- --- ----------- ------- ----- ------- ---<br>--------- ---- -- --- ---- -- --------- -- ---- -------<br>-- --------- ------ --- ----- ------ ---- the --------- --<br>------ - ---- -- --- ----------- ------- ---- ----- -----<br>--- -------- - ------ ---- -- ----- ---- --- --- -----------<br>-- -------,293013.00000000006,293031,292241,292222,292258,293044,,33,the
screen,html.Screen,1_3_1_0_1_34,2021-04-16T19:44:40.642Z,,,,,,,,,,,,,,,,2,,,,,,,,,,,,,,483,,response,,,,1,B,,,,,,Space,keypress(Space),,,,lyrical,,,,--- ---- ------ --- ------- ---------- ------- ----------<br>--- --------- --- ----------- ------- ----- ------- ---<br>--------- ---- -- --- ---- -- --------- -- ---- -------<br>-- --------- ------ --- ----- ------ ---- --- sunspots. --<br>------ - ---- -- --- ----------- ------- ---- ----- -----<br>--- -------- - ------ ---- -- ----- ---- --- --- -----------<br>-- -------,293493,293511,293028,293013.00000000006,293044,293531,,34,sunspots.
screen,html.Screen,1_3_1_0_1_35,2021-04-16T19:44:41.415Z,,,,,,,,,,,,,,,,2,,,,,,,,,,,,,,769,,response,,,,1,B,,,,,,Space,keypress(Space),,,,lyrical,,,,--- ---- ------ --- ------- ---------- ------- ----------<br>--- --------- --- ----------- ------- ----- ------- ---<br>--------- ---- -- --- ---- -- --------- -- ---- -------<br>-- --------- ------ --- ----- ------ ---- --- --------- He<br>------ - ---- -- --- ----------- ------- ---- ----- -----<br>--- -------- - ------ ---- -- ----- ---- --- --- -----------<br>-- -------,294266,294283,293514,293493,293531,294300,,35,He
screen,html.Screen,1_3_1_0_1_36,2021-04-16T19:44:41.927Z,,,,,,,,,,,,,,,,2,,,,,,,,,,,,,,512,,response,,,,1,B,,,,,,Space,keypress(Space),,,,lyrical,,,,--- ---- ------ --- ------- ---------- ------- ----------<br>--- --------- --- ----------- ------- ----- ------- ---<br>--------- ---- -- --- ---- -- --------- -- ---- -------<br>-- --------- ------ --- ----- ------ ---- --- --------- --<br>jotted - ---- -- --- ----------- ------- ---- ----- -----<br>--- -------- - ------ ---- -- ----- ---- --- --- -----------<br>-- -------,294778,294796,294284,294266,294300,294820,,36,jotted
screen,html.Screen,1_3_1_0_1_37,2021-04-16T19:44:42.473Z,,,,,,,,,,,,,,,,2,,,,,,,,,,,,,,538,,response,,,,1,B,,,,,,Space,keypress(Space),,,,lyrical,,,,--- ---- ------ --- ------- ---------- ------- ----------<br>--- --------- --- ----------- ------- ----- ------- ---<br>--------- ---- -- --- ---- -- --------- -- ---- -------<br>-- --------- ------ --- ----- ------ ---- --- --------- --<br>------ a ---- -- --- ----------- ------- ---- ----- -----<br>--- -------- - ------ ---- -- ----- ---- --- --- -----------<br>-- -------,295324,295342,294804,294778,294820,295356,,37,a
screen,html.Screen,1_3_1_0_1_38,2021-04-16T19:44:42.934Z,,,,,,,,,,,,,,,,2,,,,,,,,,,,,,,463,,response,,,,1,B,,,,,,Space,keypress(Space),,,,lyrical,,,,--- ---- ------ --- ------- ---------- ------- ----------<br>--- --------- --- ----------- ------- ----- ------- ---<br>--------- ---- -- --- ---- -- --------- -- ---- -------<br>-- --------- ------ --- ----- ------ ---- --- --------- --<br>------ - note -- --- ----------- ------- ---- ----- -----<br>--- -------- - ------ ---- -- ----- ---- --- --- -----------<br>-- -------,295785,295803,295340,295324,295356,295828,,38,note
screen,html.Screen,1_3_1_0_1_39,2021-04-16T19:44:43.284Z,,,,,,,,,,,,,,,,2,,,,,,,,,,,,,,342,,response,,,,1,B,,,,,,Space,keypress(Space),,,,lyrical,,,,--- ---- ------ --- ------- ---------- ------- ----------<br>--- --------- --- ----------- ------- ----- ------- ---<br>--------- ---- -- --- ---- -- --------- -- ---- -------<br>-- --------- ------ --- ----- ------ ---- --- --------- --<br>------ - ---- in --- ----------- ------- ---- ----- -----<br>--- -------- - ------ ---- -- ----- ---- --- --- -----------<br>-- -------,296135,296153,295811,295785,295828,296164,,39,in
screen,html.Screen,1_3_1_0_1_40,2021-04-16T19:44:43.673Z,,,,,,,,,,,,,,,,2,,,,,,,,,,,,,,395.0000000000582,,response,,,,1,B,,,,,,Space,keypress(Space),,,,lyrical,,,,--- ---- ------ --- ------- ---------- ------- ----------<br>--- --------- --- ----------- ------- ----- ------- ---<br>--------- ---- -- --- ---- -- --------- -- ---- -------<br>-- --------- ------ --- ----- ------ ---- --- --------- --<br>------ - ---- -- his ----------- ------- ---- ----- -----<br>--- -------- - ------ ---- -- ----- ---- --- --- -----------<br>-- -------,296524,296542.00000000006,296147,296135,296164,296550,,40,his
screen,html.Screen,1_3_1_0_1_41,2021-04-16T19:44:45.407Z,,,,,,,,,,,,,,,,2,,,,,,,,,,,,,,1743,,response,,,,1,B,,,,,,Space,keypress(Space),,,,lyrical,,,,--- ---- ------ --- ------- ---------- ------- ----------<br>--- --------- --- ----------- ------- ----- ------- ---<br>--------- ---- -- --- ---- -- --------- -- ---- -------<br>-- --------- ------ --- ----- ------ ---- --- --------- --<br>------ - ---- -- --- painstaking ------- ---- ----- -----<br>--- -------- - ------ ---- -- ----- ---- --- --- -----------<br>-- -------,298259,298276,296533,296525.00000000006,296550,298286,,41,painstaking
screen,html.Screen,1_3_1_0_1_42,2021-04-16T19:44:45.979Z,,,,,,,,,,,,,,,,2,,,,,,,,,,,,,,580,,response,,,,1,B,,,,,,Space,keypress(Space),,,,lyrical,,,,--- ---- ------ --- ------- ---------- ------- ----------<br>--- --------- --- ----------- ------- ----- ------- ---<br>--------- ---- -- --- ---- -- --------- -- ---- -------<br>-- --------- ------ --- ----- ------ ---- --- --------- --<br>------ - ---- -- --- ----------- record. ---- ----- -----<br>--- -------- - ------ ---- -- ----- ---- --- --- -----------<br>-- -------,298830,298848,298268,298259,298286,298873,,42,record.
screen,html.Screen,1_3_1_0_1_43,2021-04-16T19:44:46.572Z,,,,,,,,,,,,,,,,2,,,,,,,,,,,,,,586.0000000000582,,response,,,,1,B,,,,,,Space,keypress(Space),,,,lyrical,,,,--- ---- ------ --- ------- ---------- ------- ----------<br>--- --------- --- ----------- ------- ----- ------- ---<br>--------- ---- -- --- ---- -- --------- -- ---- -------<br>-- --------- ------ --- ----- ------ ---- --- --------- --<br>------ - ---- -- --- ----------- ------- That ----- -----<br>--- -------- - ------ ---- -- ----- ---- --- --- -----------<br>-- -------,299423,299441.00000000006,298855,298830,298873,299459,,43,That
screen,html.Screen,1_3_1_0_1_44,2021-04-16T19:44:47.010Z,,,,,,,,,,,,,,,,2,,,,,,,,,,,,,,437,,response,,,,1,B,,,,,,Space,keypress(Space),,,,lyrical,,,,--- ---- ------ --- ------- ---------- ------- ----------<br>--- --------- --- ----------- ------- ----- ------- ---<br>--------- ---- -- --- ---- -- --------- -- ---- -------<br>-- --------- ------ --- ----- ------ ---- --- --------- --<br>------ - ---- -- --- ----------- ------- ---- night -----<br>--- -------- - ------ ---- -- ----- ---- --- --- -----------<br>-- -------,299861,299879,299442,299423,299459,299895,,44,night
screen,html.Screen,1_3_1_0_1_45,2021-04-16T19:44:47.489Z,,,,,,,,,,,,,,,,2,,,,,,,,,,,,,,479,,response,,,,1,B,,,,,,Space,keypress(Space),,,,lyrical,,,,--- ---- ------ --- ------- ---------- ------- ----------<br>--- --------- --- ----------- ------- ----- ------- ---<br>--------- ---- -- --- ---- -- --------- -- ---- -------<br>-- --------- ------ --- ----- ------ ---- --- --------- --<br>------ - ---- -- --- ----------- ------- ---- ----- there<br>--- -------- - ------ ---- -- ----- ---- --- --- -----------<br>-- -------,300340.00000000006,300358,299879,299861,299895,300380,,45,there
screen,html.Screen,1_3_1_0_1_46,2021-04-16T19:44:48.100Z,,,,,,,,,,,,,,,,2,,,,,,,,,,,,,,605,,response,,,,1,B,,,,,,Space,keypress(Space),,,,lyrical,,,,--- ---- ------ --- ------- ---------- ------- ----------<br>--- --------- --- ----------- ------- ----- ------- ---<br>--------- ---- -- --- ---- -- --------- -- ---- -------<br>-- --------- ------ --- ----- ------ ---- --- --------- --<br>------ - ---- -- --- ----------- ------- ---- ----- -----<br>was -------- - ------ ---- -- ----- ---- --- --- -----------<br>-- -------,300952,300969,300364,300340.00000000006,300380,300983,,46,was
screen,html.Screen,1_3_1_0_1_47,2021-04-16T19:44:48.670Z,,,,,,,,,,,,,,,,2,,,,,,,,,,,,,,572,,response,,,,1,B,,,,,,Space,keypress(Space),,,,lyrical,,,,--- ---- ------ --- ------- ---------- ------- ----------<br>--- --------- --- ----------- ------- ----- ------- ---<br>--------- ---- -- --- ---- -- --------- -- ---- -------<br>-- --------- ------ --- ----- ------ ---- --- --------- --<br>------ - ---- -- --- ----------- ------- ---- ----- -----<br>--- scarcely - ------ ---- -- ----- ---- --- --- -----------<br>-- -------,301522,301539,300967,300952,300983,301554,,47,scarcely
screen,html.Screen,1_3_1_0_1_48,2021-04-16T19:44:49.194Z,,,,,,,,,,,,,,,,2,,,,,,,,,,,,,,526,,response,,,,1,B,,,,,,Space,keypress(Space),,,,lyrical,,,,--- ---- ------ --- ------- ---------- ------- ----------<br>--- --------- --- ----------- ------- ----- ------- ---<br>--------- ---- -- --- ---- -- --------- -- ---- -------<br>-- --------- ------ --- ----- ------ ---- --- --------- --<br>------ - ---- -- --- ----------- ------- ---- ----- -----<br>--- -------- a ------ ---- -- ----- ---- --- --- -----------<br>-- -------,302045,302063,301537,301522,301554,302074,,48,a
screen,html.Screen,1_3_1_0_1_49,2021-04-16T19:44:49.636Z,,,,,,,,,,,,,,,,2,,,,,,,,,,,,,,448,,response,,,,1,B,,,,,,Space,keypress(Space),,,,lyrical,,,,--- ---- ------ --- ------- ---------- ------- ----------<br>--- --------- --- ----------- ------- ----- ------- ---<br>--------- ---- -- --- ---- -- --------- -- ---- -------<br>-- --------- ------ --- ----- ------ ---- --- --------- --<br>------ - ---- -- --- ----------- ------- ---- ----- -----<br>--- -------- - square ---- -- ----- ---- --- --- -----------<br>-- -------,302488,302505,302057,302045,302074,302527,,49,square
screen,html.Screen,1_3_1_0_1_50,2021-04-16T19:44:50.055Z,,,,,,,,,,,,,,,,2,,,,,,,,,,,,,,415,,response,,,,1,B,,,,,,Space,keypress(Space),,,,lyrical,,,,--- ---- ------ --- ------- ---------- ------- ----------<br>--- --------- --- ----------- ------- ----- ------- ---<br>--------- ---- -- --- ---- -- --------- -- ---- -------<br>-- --------- ------ --- ----- ------ ---- --- --------- --<br>------ - ---- -- --- ----------- ------- ---- ----- -----<br>--- -------- - ------ inch -- ----- ---- --- --- -----------<br>-- -------,302907,302925,302510,302488,302527,302945,,50,inch
screen,html.Screen,1_3_1_0_1_51,2021-04-16T19:44:50.486Z,,,,,,,,,,,,,,,,2,,,,,,,,,,,,,,426,,response,,,,1,B,,,,,,Space,keypress(Space),,,,lyrical,,,,--- ---- ------ --- ------- ---------- ------- ----------<br>--- --------- --- ----------- ------- ----- ------- ---<br>--------- ---- -- --- ---- -- --------- -- ---- -------<br>-- --------- ------ --- ----- ------ ---- --- --------- --<br>------ - ---- -- --- ----------- ------- ---- ----- -----<br>--- -------- - ------ ---- of ----- ---- --- --- -----------<br>-- -------,303337,303355,302929,302907,302945,303365,,51,of
screen,html.Screen,1_3_1_0_1_52,2021-04-16T19:44:51.032Z,,,,,,,,,,,,,,,,2,,,,,,,,,,,,,,553,,response,,,,1,B,,,,,,Space,keypress(Space),,,,lyrical,,,,--- ---- ------ --- ------- ---------- ------- ----------<br>--- --------- --- ----------- ------- ----- ------- ---<br>--------- ---- -- --- ---- -- --------- -- ---- -------<br>-- --------- ------ --- ----- ------ ---- --- --------- --<br>------ - ---- -- --- ----------- ------- ---- ----- -----<br>--- -------- - ------ ---- -- earth ---- --- --- -----------<br>-- -------,303883,303901,303348,303338,303365,303918,,52,earth
screen,html.Screen,1_3_1_0_1_53,2021-04-16T19:44:51.612Z,,,,,,,,,,,,,,,,2,,,,,,,,,,,,,,579,,response,,,,1,B,,,,,,Space,keypress(Space),,,,lyrical,,,,--- ---- ------ --- ------- ---------- ------- ----------<br>--- --------- --- ----------- ------- ----- ------- ---<br>--------- ---- -- --- ---- -- --------- -- ---- -------<br>-- --------- ------ --- ----- ------ ---- --- --------- --<br>------ - ---- -- --- ----------- ------- ---- ----- -----<br>--- -------- - ------ ---- -- ----- that --- --- -----------<br>-- -------,304464,304481,303902,303883,303918,304505,,53,that
screen,html.Screen,1_3_1_0_1_54,2021-04-16T19:44:51.996Z,,,,,,,,,,,,,,,,2,,,,,,,,,,,,,,377,,response,,,,1,B,,,,,,Space,keypress(Space),,,,lyrical,,,,--- ---- ------ --- ------- ---------- ------- ----------<br>--- --------- --- ----------- ------- ----- ------- ---<br>--------- ---- -- --- ---- -- --------- -- ---- -------<br>-- --------- ------ --- ----- ------ ---- --- --------- --<br>------ - ---- -- --- ----------- ------- ---- ----- -----<br>--- -------- - ------ ---- -- ----- ---- was --- -----------<br>-- -------,304848,304865,304488,304464,304505,304874,,54,was
