sender,sender_type,sender_id,timestamp,meta,,Blues,Classical,Country,Dance,Electronic,Folk,Gospel,Hip-Hop,Jazz,Latin,Musical/Film,New-age,Pop,Provo_ID,R&B,Rap,Reggae,Religious,Rock,Soul,Swing,Traditional,age,artist_name,correct,correctResponse,distraction,duration,education,ended_on,familiarity,gender,headphone_check_performance,item,list,music_frequency,offensiveness,pleasantness,position_correct,preference,response,response_action,snippet_file,song_name,song_rating,sound,stimulus_1,stimulus_2,stimulus_3,text,time_commit,time_end,time_render,time_run,time_show,time_switch,url,word,word_ID
Introduction,html.Screen,0_0,2021-04-19T10:30:27.048Z,"{""labjs_version"":""20.2.2"",""labjs_build"":{""flavor"":""production"",""commit"":""a25486e0c714a0ae2ce03ff94b7bb6896854dcfa""},""location"":""https://run.pavlovia.org/mvasilev/music_f/"",""userAgent"":""Mozilla/5.0 (Macintosh; Intel Mac OS X 10_15_6) AppleWebKit/605.1.15 (KHTML, like Gecko) Version/14.0.3 Safari/605.1.15"",""platform"":""MacIntel"",""language"":""en-gb"",""locale"":""en-GB"",""timeZone"":""Europe/London"",""timezoneOffset"":-60,""screen_width"":1440,""screen_height"":900,""scroll_width"":1440,""scroll_height"":772,""window_innerWidth"":1440,""window_innerHeight"":820,""devicePixelRatio"":2}",,,,,,,,,,,,,,,,,,,,,,,,,,,,,63373,,response,,,,,,,,,,,continue,click button,,,,,,,,,70702,70646,7273,7252,7293,70717,{},,
Volume calibration,html.Screen,0_1,2021-04-19T10:30:52.040Z,,,,,,,,,,,,,,,,,,,,,,,,,,,,,,25135.000000000015,,response,,,,,,,,,,,continue,click button,,,,,,,,,95695.00000000001,95841.00000000001,70706,70703,70717,95718,,,
Task instructions,html.Screen,0_2,2021-04-19T10:31:01.466Z,,,,,,,,,,,,,,,,,,,,,,,,,,,,,,9568,,response,,,,,,,,,,,continue,click button,,,,,,,,,105122,105271,95703,95695.00000000001,95718,105148,,,
Sounds,html.Screen,0_3_0_0,2021-04-19T10:31:05.720Z,,,,,,,,,,,,,,,,,,,,,,,,,,,,,,4244,,timeout,,,,,,,,,2,,,,,,,,I,S,O,,109376,109375,105130,105122,105148,109392,,,
Judgement,html.Screen,0_3_0_1,2021-04-19T10:31:07.000Z,,,,,,,,,,,,,,,,,,,,,,,,,,,true,2,,1430,,response,,,,,,,,,2,,2,click #choice-2,,,,,I,S,O,,110655,110805,109375,109376,109392,110681,,,
Trial,flow.Sequence,0_3_0,2021-04-19T10:31:07.000Z,,,,,,,,,,,,,,,,,,,,,,,,,,,,,,5657,,completion,,,,,,,,,2,,,,,,,,I,S,O,,110656,110805,105130,105122,105148,110681,,,
Sounds,html.Screen,0_3_1_0,2021-04-19T10:31:11.261Z,,,,,,,,,,,,,,,,,,,,,,,,,,,,,,4255,,timeout,,,,,,,,,3,,,,,,,,I,O,S,,114917,114917,110664,110656,110681,114936,,,
Judgement,html.Screen,0_3_1_1,2021-04-19T10:31:12.364Z,,,,,,,,,,,,,,,,,,,,,,,,,,,true,3,,1252,,response,,,,,,,,,3,,3,click #choice-3,,,,,I,O,S,,116019,116169,114917,114917,114936,116040,,,
Trial,flow.Sequence,0_3_1,2021-04-19T10:31:12.364Z,,,,,,,,,,,,,,,,,,,,,,,,,,,,,,5488,,completion,,,,,,,,,3,,,,,,,,I,O,S,,116020,116169,110664,110656,110681,116040,,,
Sounds,html.Screen,0_3_2_0,2021-04-19T10:31:16.603Z,,,,,,,,,,,,,,,,,,,,,,,,,,,,,,4243,,timeout,,,,,,,,,2,,,,,,,,O,S,I,,120259,120258,116021,116020,116040,120283,,,
Judgement,html.Screen,0_3_2_1,2021-04-19T10:31:17.423Z,,,,,,,,,,,,,,,,,,,,,,,,,,,true,2,,971,,response,,,,,,,,,2,,2,click #choice-2,,,,,O,S,I,,121080,121229,120258,120259,120283,121110,,,
Trial,flow.Sequence,0_3_2,2021-04-19T10:31:17.424Z,,,,,,,,,,,,,,,,,,,,,,,,,,,,,,5189,,completion,,,,,,,,,2,,,,,,,,O,S,I,,121080,121229,116021,116020,116040,121110,,,
Sounds,html.Screen,0_3_3_0,2021-04-19T10:31:21.686Z,,,,,,,,,,,,,,,,,,,,,,,,,,,,,,4248,,timeout,,,,,,,,,3,,,,,,,,O,I,S,,125342,125341,121094,121080,121110,125358,,,
Judgement,html.Screen,0_3_3_1,2021-04-19T10:31:22.264Z,,,,,,,,,,,,,,,,,,,,,,,,,,,true,3,,730,,response,,,,,,,,,3,,3,click #choice-3,,,,,O,I,S,,125921,126071,125341,125342,125358,125946,,,
Trial,flow.Sequence,0_3_3,2021-04-19T10:31:22.265Z,,,,,,,,,,,,,,,,,,,,,,,,,,,,,,4961,,completion,,,,,,,,,3,,,,,,,,O,I,S,,125921,126071,121094,121080,121110,125946,,,
Sounds,html.Screen,0_3_4_0,2021-04-19T10:31:26.527Z,,,,,,,,,,,,,,,,,,,,,,,,,,,,,,4253,,timeout,,,,,,,,,1,,,,,,,,S,I,O,,130184,130184,125933,125921,125946,130199,,,
Judgement,html.Screen,0_3_4_1,2021-04-19T10:31:27.149Z,,,,,,,,,,,,,,,,,,,,,,,,,,,true,1,,771.0000000000146,,response,,,,,,,,,1,,1,click #choice-1,,,,,S,I,O,,130806.00000000001,130955.00000000001,130184,130184,130199,130832,,,
Trial,flow.Sequence,0_3_4,2021-04-19T10:31:27.149Z,,,,,,,,,,,,,,,,,,,,,,,,,,,,,,5009.000000000015,,completion,,,,,,,,,1,,,,,,,,S,I,O,,130806.00000000001,130955.00000000001,125933,125921,125946,130832,,,
Sounds,html.Screen,0_3_5_0,2021-04-19T10:31:31.412Z,,,,,,,,,,,,,,,,,,,,,,,,,,,,,,4252,,timeout,,,,,,,,,1,,,,,,,,S,O,I,,135069.00000000003,135068,130818,130806.00000000001,130832,135084,,,
Judgement,html.Screen,0_3_5_1,2021-04-19T10:31:31.925Z,,,,,,,,,,,,,,,,,,,,,,,,,,,true,1,,664,,response,,,,,,,,,1,,1,click #choice-1,,,,,S,O,I,,135582,135732,135068,135069.00000000003,135084,135621,,,
Trial,flow.Sequence,0_3_5,2021-04-19T10:31:31.926Z,,,,,,,,,,,,,,,,,,,,,,,,,,,,,,4900,,completion,,,,,,,,,1,,,,,,,,S,O,I,,135582,135732,130818,130806.00000000001,130832,135621,,,
Task,flow.Loop,0_3,2021-04-19T10:31:31.928Z,,,,,,,,,,,,,,,,,,,,,,,,,,,,,,30584,,completion,,,1,,,,,,,,,,,,,,,,,,135584,135732,105130,105122,105148,135621,,,
Trap,html.Screen,0_4,2021-04-19T10:31:31.929Z,,,,,,,,,,,,,,,,,,,,,,,,,,,,,,NaN,,skipped,,,,,,,,,,,,,,,,,,,,,135586,135732,,135585,,135621,,,
Thanks,html.Screen,0_5,2021-04-19T10:31:35.815Z,,,,,,,,,,,,,,,,,,,,,,,,,,,,,,4017,,response,,,,,,,,,,,continue,click button,,,,,,,,,139472,139622,135605,135586,135621,146447,,,
Headphone screening,flow.Sequence,0,2021-04-19T10:31:35.815Z,,,,,,,,,,,,,,,,,,,,,,,,,,,,,,132329,,completion,,,,,,,,,,,,,,,,,,,,,139472,139622,7273,7252,7293,146447,,,
Instructions,html.Page,1_0,2021-04-19T10:32:07.540Z,,,,,,,,,,,,,,,,,,,,,,,,,,,,,,24751,,form submission,,,,,,,,,,,,,,,,,,,,,171199,171198,146435,146416,146447,171224,,,
Holding screen,html.Screen,1_1_0_0,2021-04-19T10:32:17.552Z,,,,,,,,,,,,,,,,,,,,,,,,,,,,,,10017,,timeout,,,,,,,,,,,,,,,,,,,,,181210,181210,171207,171199,171224,181241,,,
screen,html.Screen,1_1_0_1_0,2021-04-19T10:32:18.517Z,,,,,,,,,,,,,,,,53,,,,,,,,,,,,,,1113,,response,,,,99,,,,,,,Space,keypress(Space),,,,,,,,When -- ----- -- ------ - ------- --- ----------<br>------------- ------ ------ ---- ---- ------- ----- -- ----<br>-------- ------- -- ---------- --- - --- ----- ----- ----<br>---- --- --- ----- --- ---- ---- ------- ----- ---- -------<br>--- --- -- ----- -- --- ---- -- --- ---- -- ------ ------<br>--- ----- -- ----,182176.00000000003,182323,181210,181211,181241,182216,,0,When
screen,html.Screen,1_1_0_1_1,2021-04-19T10:32:18.924Z,,,,,,,,,,,,,,,,53,,,,,,,,,,,,,,534,,response,,,,99,,,,,,,Space,keypress(Space),,,,,,,,---- it ----- -- ------ - ------- --- ----------<br>------------- ------ ------ ---- ---- ------- ----- -- ----<br>-------- ------- -- ---------- --- - --- ----- ----- ----<br>---- --- --- ----- --- ---- ---- ------- ----- ---- -------<br>--- --- -- ----- -- --- ---- -- --- ---- -- ------ ------<br>--- ----- -- ----,182583,182733,182199,182176.00000000003,182216,182604,,1,it
screen,html.Screen,1_1_0_1_2,2021-04-19T10:32:19.318Z,,,,,,,,,,,,,,,,53,,,,,,,,,,,,,,536,,response,,,,99,,,,,,,Space,keypress(Space),,,,,,,,---- -- comes -- ------ - ------- --- ----------<br>------------- ------ ------ ---- ---- ------- ----- -- ----<br>-------- ------- -- ---------- --- - --- ----- ----- ----<br>---- --- --- ----- --- ---- ---- ------- ----- ---- -------<br>--- --- -- ----- -- --- ---- -- --- ---- -- ------ ------<br>--- ----- -- ----,182977,183125,182589,182583,182604,183014,,2,comes
screen,html.Screen,1_1_0_1_3,2021-04-19T10:32:19.717Z,,,,,,,,,,,,,,,,53,,,,,,,,,,,,,,527,,response,,,,99,,,,,,,Space,keypress(Space),,,,,,,,---- -- ----- to ------ - ------- --- ----------<br>------------- ------ ------ ---- ---- ------- ----- -- ----<br>-------- ------- -- ---------- --- - --- ----- ----- ----<br>---- --- --- ----- --- ---- ---- ------- ----- ---- -------<br>--- --- -- ----- -- --- ---- -- --- ---- -- ------ ------<br>--- ----- -- ----,183376,183524,182997,182977,183014,183404,,3,to
screen,html.Screen,1_1_0_1_4,2021-04-19T10:32:20.188Z,,,,,,,,,,,,,,,,53,,,,,,,,,,,,,,611,,response,,,,99,,,,,,,Space,keypress(Space),,,,,,,,---- -- ----- -- having - ------- --- ----------<br>------------- ------ ------ ---- ---- ------- ----- -- ----<br>-------- ------- -- ---------- --- - --- ----- ----- ----<br>---- --- --- ----- --- ---- ---- ------- ----- ---- -------<br>--- --- -- ----- -- --- ---- -- --- ---- -- ------ ------<br>--- ----- -- ----,183847,183997,183386,183376,183404,183874,,4,having
screen,html.Screen,1_1_0_1_5,2021-04-19T10:32:20.602Z,,,,,,,,,,,,,,,,53,,,,,,,,,,,,,,552,,response,,,,99,,,,,,,Space,keypress(Space),,,,,,,,---- -- ----- -- ------ a ------- --- ----------<br>------------- ------ ------ ---- ---- ------- ----- -- ----<br>-------- ------- -- ---------- --- - --- ----- ----- ----<br>---- --- --- ----- --- ---- ---- ------- ----- ---- -------<br>--- --- -- ----- -- --- ---- -- --- ---- -- ------ ------<br>--- ----- -- ----,184261,184410,183858,183847,183874,184295,,5,a
screen,html.Screen,1_1_0_1_6,2021-04-19T10:32:21.069Z,,,,,,,,,,,,,,,,53,,,,,,,,,,,,,,599,,response,,,,99,,,,,,,Space,keypress(Space),,,,,,,,---- -- ----- -- ------ - lasting --- ----------<br>------------- ------ ------ ---- ---- ------- ----- -- ----<br>-------- ------- -- ---------- --- - --- ----- ----- ----<br>---- --- --- ----- --- ---- ---- ------- ----- ---- -------<br>--- --- -- ----- -- --- ---- -- --- ---- -- ------ ------<br>--- ----- -- ----,184728,184878,184279,184261,184295,184767,,6,lasting
screen,html.Screen,1_1_0_1_7,2021-04-19T10:32:21.508Z,,,,,,,,,,,,,,,,53,,,,,,,,,,,,,,565,,response,,,,99,,,,,,,Space,keypress(Space),,,,,,,,---- -- ----- -- ------ - ------- and ----------<br>------------- ------ ------ ---- ---- ------- ----- -- ----<br>-------- ------- -- ---------- --- - --- ----- ----- ----<br>---- --- --- ----- --- ---- ---- ------- ----- ---- -------<br>--- --- -- ----- -- --- ---- -- --- ---- -- ------ ------<br>--- ----- -- ----,185167,185316,184751,184728,184767,185205,,7,and
screen,html.Screen,1_1_0_1_8,2021-04-19T10:32:21.992Z,,,,,,,,,,,,,,,,53,,,,,,,,,,,,,,612.0000000000291,,response,,,,99,,,,,,,Space,keypress(Space),,,,,,,,---- -- ----- -- ------ - ------- --- fulfilling<br>------------- ------ ------ ---- ---- ------- ----- -- ----<br>-------- ------- -- ---------- --- - --- ----- ----- ----<br>---- --- --- ----- --- ---- ---- ------- ----- ---- -------<br>--- --- -- ----- -- --- ---- -- --- ---- -- ------ ------<br>--- ----- -- ----,185651,185801.00000000003,185189,185167,185205,185694,,8,fulfilling
screen,html.Screen,1_1_0_1_9,2021-04-19T10:32:22.450Z,,,,,,,,,,,,,,,,53,,,,,,,,,,,,,,583,,response,,,,99,,,,,,,Space,keypress(Space),,,,,,,,"---- -- ----- -- ------ - ------- --- ----------<br>relationship, ------ ------ ---- ---- ------- ----- -- ----<br>-------- ------- -- ---------- --- - --- ----- ----- ----<br>---- --- --- ----- --- ---- ---- ------- ----- ---- -------<br>--- --- -- ----- -- --- ---- -- --- ---- -- ------ ------<br>--- ----- -- ----",186109,186260,185677,185651,185694,186148,,9,"relationship,"
screen,html.Screen,1_1_0_1_10,2021-04-19T10:32:22.918Z,,,,,,,,,,,,,,,,53,,,,,,,,,,,,,,594,,response,,,,99,,,,,,,Space,keypress(Space),,,,,,,,---- -- ----- -- ------ - ------- --- ----------<br>------------- common ------ ---- ---- ------- ----- -- ----<br>-------- ------- -- ---------- --- - --- ----- ----- ----<br>---- --- --- ----- --- ---- ---- ------- ----- ---- -------<br>--- --- -- ----- -- --- ---- -- --- ---- -- ------ ------<br>--- ----- -- ----,186577,186726,186132,186109,186148,186604,,10,common
screen,html.Screen,1_1_0_1_11,2021-04-19T10:32:23.354Z,,,,,,,,,,,,,,,,53,,,,,,,,,,,,,,577.0000000000291,,response,,,,99,,,,,,,Space,keypress(Space),,,,,,,,---- -- ----- -- ------ - ------- --- ----------<br>------------- ------ wisdom ---- ---- ------- ----- -- ----<br>-------- ------- -- ---------- --- - --- ----- ----- ----<br>---- --- --- ----- --- ---- ---- ------- ----- ---- -------<br>--- --- -- ----- -- --- ---- -- --- ---- -- ------ ------<br>--- ----- -- ----,187013,187164.00000000003,186587,186577,186604,187042,,11,wisdom
screen,html.Screen,1_1_0_1_12,2021-04-19T10:32:23.830Z,,,,,,,,,,,,,,,,53,,,,,,,,,,,,,,614,,response,,,,99,,,,,,,Space,keypress(Space),,,,,,,,---- -- ----- -- ------ - ------- --- ----------<br>------------- ------ ------ says ---- ------- ----- -- ----<br>-------- ------- -- ---------- --- - --- ----- ----- ----<br>---- --- --- ----- --- ---- ---- ------- ----- ---- -------<br>--- --- -- ----- -- --- ---- -- --- ---- -- ------ ------<br>--- ----- -- ----,187489,187639,187025,187014,187042,187530,,12,says
screen,html.Screen,1_1_0_1_13,2021-04-19T10:32:24.384Z,,,,,,,,,,,,,,,,53,,,,,,,,,,,,,,680.0000000000291,,response,,,,99,,,,,,,Space,keypress(Space),,,,,,,,---- -- ----- -- ------ - ------- --- ----------<br>------------- ------ ------ ---- that ------- ----- -- ----<br>-------- ------- -- ---------- --- - --- ----- ----- ----<br>---- --- --- ----- --- ---- ---- ------- ----- ---- -------<br>--- --- -- ----- -- --- ---- -- --- ---- -- ------ ------<br>--- ----- -- ----,188043,188194.00000000003,187514,187489,187530,188084,,13,that
screen,html.Screen,1_1_0_1_14,2021-04-19T10:32:24.772Z,,,,,,,,,,,,,,,,53,,,,,,,,,,,,,,513,,response,,,,99,,,,,,,Space,keypress(Space),,,,,,,,---- -- ----- -- ------ - ------- --- ----------<br>------------- ------ ------ ---- ---- feeling ----- -- ----<br>-------- ------- -- ---------- --- - --- ----- ----- ----<br>---- --- --- ----- --- ---- ---- ------- ----- ---- -------<br>--- --- -- ----- -- --- ---- -- --- ---- -- ------ ------<br>--- ----- -- ----,188431,188582,188069,188043,188084,188456,,14,feeling
screen,html.Screen,1_1_0_1_15,2021-04-19T10:32:25.232Z,,,,,,,,,,,,,,,,53,,,,,,,,,,,,,,594.0000000000291,,response,,,,99,,,,,,,Space,keypress(Space),,,,,,,,---- -- ----- -- ------ - ------- --- ----------<br>------------- ------ ------ ---- ---- ------- close -- ----<br>-------- ------- -- ---------- --- - --- ----- ----- ----<br>---- --- --- ----- --- ---- ---- ------- ----- ---- -------<br>--- --- -- ----- -- --- ---- -- --- ---- -- ------ ------<br>--- ----- -- ----,188891,189033.00000000003,188439,188431,188456,188927,,15,close
screen,html.Screen,1_1_0_1_16,2021-04-19T10:32:25.649Z,,,,,,,,,,,,,,,,53,,,,,,,,,,,,,,547,,response,,,,99,,,,,,,Space,keypress(Space),,,,,,,,---- -- ----- -- ------ - ------- --- ----------<br>------------- ------ ------ ---- ---- ------- ----- to ----<br>-------- ------- -- ---------- --- - --- ----- ----- ----<br>---- --- --- ----- --- ---- ---- ------- ----- ---- -------<br>--- --- -- ----- -- --- ---- -- --- ---- -- ------ ------<br>--- ----- -- ----,189308,189457,188910,188892,188927,189348,,16,to
screen,html.Screen,1_1_0_1_17,2021-04-19T10:32:26.085Z,,,,,,,,,,,,,,,,53,,,,,,,,,,,,,,563,,response,,,,99,,,,,,,Space,keypress(Space),,,,,,,,---- -- ----- -- ------ - ------- --- ----------<br>------------- ------ ------ ---- ---- ------- ----- -- your<br>-------- ------- -- ---------- --- - --- ----- ----- ----<br>---- --- --- ----- --- ---- ---- ------- ----- ---- -------<br>--- --- -- ----- -- --- ---- -- --- ---- -- ------ ------<br>--- ----- -- ----,189744,189895,189332,189308,189348,189788,,17,your
screen,html.Screen,1_1_0_1_18,2021-04-19T10:32:26.544Z,,,,,,,,,,,,,,,,53,,,,,,,,,,,,,,583,,response,,,,99,,,,,,,Space,keypress(Space),,,,,,,,---- -- ----- -- ------ - ------- --- ----------<br>------------- ------ ------ ---- ---- ------- ----- -- ----<br>romantic ------- -- ---------- --- - --- ----- ----- ----<br>---- --- --- ----- --- ---- ---- ------- ----- ---- -------<br>--- --- -- ----- -- --- ---- -- --- ---- -- ------ ------<br>--- ----- -- ----,190203,190354,189771,189744,189788,190242,,18,romantic
screen,html.Screen,1_1_0_1_19,2021-04-19T10:32:26.944Z,,,,,,,,,,,,,,,,53,,,,,,,,,,,,,,528,,response,,,,99,,,,,,,Space,keypress(Space),,,,,,,,---- -- ----- -- ------ - ------- --- ----------<br>------------- ------ ------ ---- ---- ------- ----- -- ----<br>-------- partner -- ---------- --- - --- ----- ----- ----<br>---- --- --- ----- --- ---- ---- ------- ----- ---- -------<br>--- --- -- ----- -- --- ---- -- --- ---- -- ------ ------<br>--- ----- -- ----,190603,190754,190226,190203,190242,190631,,19,partner
screen,html.Screen,1_1_0_1_20,2021-04-19T10:32:27.376Z,,,,,,,,,,,,,,,,53,,,,,,,,,,,,,,568.0000000000291,,response,,,,99,,,,,,,Space,keypress(Space),,,,,,,,---- -- ----- -- ------ - ------- --- ----------<br>------------- ------ ------ ---- ---- ------- ----- -- ----<br>-------- ------- is ---------- --- - --- ----- ----- ----<br>---- --- --- ----- --- ---- ---- ------- ----- ---- -------<br>--- --- -- ----- -- --- ---- -- --- ---- -- ------ ------<br>--- ----- -- ----,191035,191182.00000000003,190614,190603,190631,191068,,20,is
screen,html.Screen,1_1_0_1_21,2021-04-19T10:32:27.895Z,,,,,,,,,,,,,,,,53,,,,,,,,,,,,,,652,,response,,,,99,,,,,,,Space,keypress(Space),,,,,,,,---- -- ----- -- ------ - ------- --- ----------<br>------------- ------ ------ ---- ---- ------- ----- -- ----<br>-------- ------- -- paramount. --- - --- ----- ----- ----<br>---- --- --- ----- --- ---- ---- ------- ----- ---- -------<br>--- --- -- ----- -- --- ---- -- --- ---- -- ------ ------<br>--- ----- -- ----,191554,191703,191051,191035,191068,191591,,21,paramount.
screen,html.Screen,1_1_0_1_22,2021-04-19T10:32:28.489Z,,,,,,,,,,,,,,,,53,,,,,,,,,,,,,,726,,response,,,,99,,,,,,,Space,keypress(Space),,,,,,,,---- -- ----- -- ------ - ------- --- ----------<br>------------- ------ ------ ---- ---- ------- ----- -- ----<br>-------- ------- -- ---------- But - --- ----- ----- ----<br>---- --- --- ----- --- ---- ---- ------- ----- ---- -------<br>--- --- -- ----- -- --- ---- -- --- ---- -- ------ ------<br>--- ----- -- ----,192148,192299,191573,191554,191591,192178,,22,But
screen,html.Screen,1_1_0_1_23,2021-04-19T10:32:28.908Z,,,,,,,,,,,,,,,,53,,,,,,,,,,,,,,555,,response,,,,99,,,,,,,Space,keypress(Space),,,,,,,,---- -- ----- -- ------ - ------- --- ----------<br>------------- ------ ------ ---- ---- ------- ----- -- ----<br>-------- ------- -- ---------- --- a --- ----- ----- ----<br>---- --- --- ----- --- ---- ---- ------- ----- ---- -------<br>--- --- -- ----- -- --- ---- -- --- ---- -- ------ ------<br>--- ----- -- ----,192567,192717,192162,192149,192178,192599,,23,a
screen,html.Screen,1_1_0_1_24,2021-04-19T10:32:29.317Z,,,,,,,,,,,,,,,,53,,,,,,,,,,,,,,544,,response,,,,99,,,,,,,Space,keypress(Space),,,,,,,,---- -- ----- -- ------ - ------- --- ----------<br>------------- ------ ------ ---- ---- ------- ----- -- ----<br>-------- ------- -- ---------- --- - new ----- ----- ----<br>---- --- --- ----- --- ---- ---- ------- ----- ---- -------<br>--- --- -- ----- -- --- ---- -- --- ---- -- ------ ------<br>--- ----- -- ----,192976,193127,192583,192567,192599,193004,,24,new
screen,html.Screen,1_1_0_1_25,2021-04-19T10:32:29.716Z,,,,,,,,,,,,,,,,53,,,,,,,,,,,,,,538,,response,,,,99,,,,,,,Space,keypress(Space),,,,,,,,---- -- ----- -- ------ - ------- --- ----------<br>------------- ------ ------ ---- ---- ------- ----- -- ----<br>-------- ------- -- ---------- --- - --- study ----- ----<br>---- --- --- ----- --- ---- ---- ------- ----- ---- -------<br>--- --- -- ----- -- --- ---- -- --- ---- -- ------ ------<br>--- ----- -- ----,193375,193526,192988,192976,193004,193410,,25,study
screen,html.Screen,1_1_0_1_26,2021-04-19T10:32:30.183Z,,,,,,,,,,,,,,,,53,,,,,,,,,,,,,,600,,response,,,,99,,,,,,,Space,keypress(Space),,,,,,,,---- -- ----- -- ------ - ------- --- ----------<br>------------- ------ ------ ---- ---- ------- ----- -- ----<br>-------- ------- -- ---------- --- - --- ----- finds ----<br>---- --- --- ----- --- ---- ---- ------- ----- ---- -------<br>--- --- -- ----- -- --- ---- -- --- ---- -- ------ ------<br>--- ----- -- ----,193843.00000000003,193993,193393,193376,193410,193892,,26,finds
screen,html.Screen,1_1_0_1_27,2021-04-19T10:32:30.605Z,,,,,,,,,,,,,,,,53,,,,,,,,,,,,,,550,,response,,,,99,,,,,,,Space,keypress(Space),,,,,,,,---- -- ----- -- ------ - ------- --- ----------<br>------------- ------ ------ ---- ---- ------- ----- -- ----<br>-------- ------- -- ---------- --- - --- ----- ----- that<br>---- --- --- ----- --- ---- ---- ------- ----- ---- -------<br>--- --- -- ----- -- --- ---- -- --- ---- -- ------ ------<br>--- ----- -- ----,194264,194415,193865,193843.00000000003,193892,194303,,27,that
screen,html.Screen,1_1_0_1_28,2021-04-19T10:32:31.068Z,,,,,,,,,,,,,,,,53,,,,,,,,,,,,,,593,,response,,,,99,,,,,,,Space,keypress(Space),,,,,,,,---- -- ----- -- ------ - ------- --- ----------<br>------------- ------ ------ ---- ---- ------- ----- -- ----<br>-------- ------- -- ---------- --- - --- ----- ----- ----<br>it's --- --- ----- --- ---- ---- ------- ----- ---- -------<br>--- --- -- ----- -- --- ---- -- --- ---- -- ------ ------<br>--- ----- -- ----,194727,194879,194286,194264,194303,194757,,28,it's
screen,html.Screen,1_1_0_1_29,2021-04-19T10:32:31.554Z,,,,,,,,,,,,,,,,53,,,,,,,,,,,,,,624,,response,,,,99,,,,,,,Space,keypress(Space),,,,,,,,---- -- ----- -- ------ - ------- --- ----------<br>------------- ------ ------ ---- ---- ------- ----- -- ----<br>-------- ------- -- ---------- --- - --- ----- ----- ----<br>---- not --- ----- --- ---- ---- ------- ----- ---- -------<br>--- --- -- ----- -- --- ---- -- --- ---- -- ------ ------<br>--- ----- -- ----,195213,195364,194740,194727,194757,195244,,29,not
screen,html.Screen,1_1_0_1_30,2021-04-19T10:32:31.991Z,,,,,,,,,,,,,,,,53,,,,,,,,,,,,,,570,,response,,,,99,,,,,,,Space,keypress(Space),,,,,,,,---- -- ----- -- ------ - ------- --- ----------<br>------------- ------ ------ ---- ---- ------- ----- -- ----<br>-------- ------- -- ---------- --- - --- ----- ----- ----<br>---- --- how ----- --- ---- ---- ------- ----- ---- -------<br>--- --- -- ----- -- --- ---- -- --- ---- -- ------ ------<br>--- ----- -- ----,195650,195798,195228,195213,195244,195683,,30,how
screen,html.Screen,1_1_0_1_31,2021-04-19T10:32:32.364Z,,,,,,,,,,,,,,,,53,,,,,,,,,,,,,,507,,response,,,,99,,,,,,,Space,keypress(Space),,,,,,,,---- -- ----- -- ------ - ------- --- ----------<br>------------- ------ ------ ---- ---- ------- ----- -- ----<br>-------- ------- -- ---------- --- - --- ----- ----- ----<br>---- --- --- close --- ---- ---- ------- ----- ---- -------<br>--- --- -- ----- -- --- ---- -- --- ---- -- ------ ------<br>--- ----- -- ----,196023,196174,195667,195650,195683,196054,,31,close
screen,html.Screen,1_1_0_1_32,2021-04-19T10:32:32.749Z,,,,,,,,,,,,,,,,53,,,,,,,,,,,,,,522,,response,,,,99,,,,,,,Space,keypress(Space),,,,,,,,---- -- ----- -- ------ - ------- --- ----------<br>------------- ------ ------ ---- ---- ------- ----- -- ----<br>-------- ------- -- ---------- --- - --- ----- ----- ----<br>---- --- --- ----- you ---- ---- ------- ----- ---- -------<br>--- --- -- ----- -- --- ---- -- --- ---- -- ------ ------<br>--- ----- -- ----,196408.00000000003,196559,196037,196023,196054,196427,,32,you
screen,html.Screen,1_1_0_1_33,2021-04-19T10:32:33.196Z,,,,,,,,,,,,,,,,53,,,,,,,,,,,,,,596,,response,,,,99,,,,,,,Space,keypress(Space),,,,,,,,---- -- ----- -- ------ - ------- --- ----------<br>------------- ------ ------ ---- ---- ------- ----- -- ----<br>-------- ------- -- ---------- --- - --- ----- ----- ----<br>---- --- --- ----- --- feel ---- ------- ----- ---- -------<br>--- --- -- ----- -- --- ---- -- --- ---- -- ------ ------<br>--- ----- -- ----,196855.00000000003,197006,196410,196408.00000000003,196427,196897,,33,feel
screen,html.Screen,1_1_0_1_34,2021-04-19T10:32:33.615Z,,,,,,,,,,,,,,,,53,,,,,,,,,,,,,,546.0000000000291,,response,,,,99,,,,,,,Space,keypress(Space),,,,,,,,---- -- ----- -- ------ - ------- --- ----------<br>------------- ------ ------ ---- ---- ------- ----- -- ----<br>-------- ------- -- ---------- --- - --- ----- ----- ----<br>---- --- --- ----- --- ---- that ------- ----- ---- -------<br>--- --- -- ----- -- --- ---- -- --- ---- -- ------ ------<br>--- ----- -- ----,197274,197426.00000000003,196880,196855.00000000003,196897,197305,,34,that
screen,html.Screen,1_1_0_1_35,2021-04-19T10:32:34.095Z,,,,,,,,,,,,,,,,53,,,,,,,,,,,,,,616,,response,,,,99,,,,,,,Space,keypress(Space),,,,,,,,---- -- ----- -- ------ - ------- --- ----------<br>------------- ------ ------ ---- ---- ------- ----- -- ----<br>-------- ------- -- ---------- --- - --- ----- ----- ----<br>---- --- --- ----- --- ---- ---- matters ----- ---- -------<br>--- --- -- ----- -- --- ---- -- --- ---- -- ------ ------<br>--- ----- -- ----,197754,197905,197289,197275,197305,197794,,35,matters
screen,html.Screen,1_1_0_1_36,2021-04-19T10:32:34.563Z,,,,,,,,,,,,,,,,53,,,,,,,,,,,,,,596,,response,,,,99,,,,,,,Space,keypress(Space),,,,,,,,"---- -- ----- -- ------ - ------- --- ----------<br>------------- ------ ------ ---- ---- ------- ----- -- ----<br>-------- ------- -- ---------- --- - --- ----- ----- ----<br>---- --- --- ----- --- ---- ---- ------- most, ---- -------<br>--- --- -- ----- -- --- ---- -- --- ---- -- ------ ------<br>--- ----- -- ----",198222,198374,197778,197754,197794,198248,,36,"most,"
screen,html.Screen,1_1_0_1_37,2021-04-19T10:32:35.282Z,,,,,,,,,,,,,,,,53,,,,,,,,,,,,,,859,,response,,,,99,,,,,,,Space,keypress(Space),,,,,,,,---- -- ----- -- ------ - ------- --- ----------<br>------------- ------ ------ ---- ---- ------- ----- -- ----<br>-------- ------- -- ---------- --- - --- ----- ----- ----<br>---- --- --- ----- --- ---- ---- ------- ----- it's -------<br>--- --- -- ----- -- --- ---- -- --- ---- -- ------ ------<br>--- ----- -- ----,198941,199092,198233,198222,198248,198971,,37,it's
screen,html.Screen,1_1_0_1_38,2021-04-19T10:32:35.752Z,,,,,,,,,,,,,,,,53,,,,,,,,,,,,,,609.0000000000291,,response,,,,99,,,,,,,Space,keypress(Space),,,,,,,,---- -- ----- -- ------ - ------- --- ----------<br>------------- ------ ------ ---- ---- ------- ----- -- ----<br>-------- ------- -- ---------- --- - --- ----- ----- ----<br>---- --- --- ----- --- ---- ---- ------- ----- ---- whether<br>--- --- -- ----- -- --- ---- -- --- ---- -- ------ ------<br>--- ----- -- ----,199411,199563.00000000003,198954,198942,198971,199442,,38,whether
screen,html.Screen,1_1_0_1_39,2021-04-19T10:32:36.228Z,,,,,,,,,,,,,,,,53,,,,,,,,,,,,,,601.0000000000291,,response,,,,99,,,,,,,Space,keypress(Space),,,,,,,,---- -- ----- -- ------ - ------- --- ----------<br>------------- ------ ------ ---- ---- ------- ----- -- ----<br>-------- ------- -- ---------- --- - --- ----- ----- ----<br>---- --- --- ----- --- ---- ---- ------- ----- ---- -------<br>you --- -- ----- -- --- ---- -- --- ---- -- ------ ------<br>--- ----- -- ----,199888,200027.00000000003,199426,199411,199442,199915,,39,you
screen,html.Screen,1_1_0_1_40,2021-04-19T10:32:36.668Z,,,,,,,,,,,,,,,,53,,,,,,,,,,,,,,581,,response,,,,99,,,,,,,Space,keypress(Space),,,,,,,,---- -- ----- -- ------ - ------- --- ----------<br>------------- ------ ------ ---- ---- ------- ----- -- ----<br>-------- ------- -- ---------- --- - --- ----- ----- ----<br>---- --- --- ----- --- ---- ---- ------- ----- ---- -------<br>--- are -- ----- -- --- ---- -- --- ---- -- ------ ------<br>--- ----- -- ----,200328,200479,199898,199888,199915,200359,,40,are
screen,html.Screen,1_1_0_1_41,2021-04-19T10:32:37.145Z,,,,,,,,,,,,,,,,53,,,,,,,,,,,,,,615.0000000000291,,response,,,,99,,,,,,,Space,keypress(Space),,,,,,,,---- -- ----- -- ------ - ------- --- ----------<br>------------- ------ ------ ---- ---- ------- ----- -- ----<br>-------- ------- -- ---------- --- - --- ----- ----- ----<br>---- --- --- ----- --- ---- ---- ------- ----- ---- -------<br>--- --- as ----- -- --- ---- -- --- ---- -- ------ ------<br>--- ----- -- ----,200805,200956.00000000003,200341,200328,200359,200847,,41,as
screen,html.Screen,1_1_0_1_42,2021-04-19T10:32:37.578Z,,,,,,,,,,,,,,,,53,,,,,,,,,,,,,,556,,response,,,,99,,,,,,,Space,keypress(Space),,,,,,,,---- -- ----- -- ------ - ------- --- ----------<br>------------- ------ ------ ---- ---- ------- ----- -- ----<br>-------- ------- -- ---------- --- - --- ----- ----- ----<br>---- --- --- ----- --- ---- ---- ------- ----- ---- -------<br>--- --- -- close -- --- ---- -- --- ---- -- ------ ------<br>--- ----- -- ----,201237,201387,200831,200805,200847,201268,,42,close
screen,html.Screen,1_1_0_1_43,2021-04-19T10:32:38.039Z,,,,,,,,,,,,,,,,53,,,,,,,,,,,,,,598.0000000000291,,response,,,,99,,,,,,,Space,keypress(Space),,,,,,,,---- -- ----- -- ------ - ------- --- ----------<br>------------- ------ ------ ---- ---- ------- ----- -- ----<br>-------- ------- -- ---------- --- - --- ----- ----- ----<br>---- --- --- ----- --- ---- ---- ------- ----- ---- -------<br>--- --- -- ----- as --- ---- -- --- ---- -- ------ ------<br>--- ----- -- ----,201698,201849.00000000003,201251,201237,201268,201740,,43,as
screen,html.Screen,1_1_0_1_44,2021-04-19T10:32:38.505Z,,,,,,,,,,,,,,,,53,,,,,,,,,,,,,,592,,response,,,,99,,,,,,,Space,keypress(Space),,,,,,,,---- -- ----- -- ------ - ------- --- ----------<br>------------- ------ ------ ---- ---- ------- ----- -- ----<br>-------- ------- -- ---------- --- - --- ----- ----- ----<br>---- --- --- ----- --- ---- ---- ------- ----- ---- -------<br>--- --- -- ----- -- you ---- -- --- ---- -- ------ ------<br>--- ----- -- ----,202164.00000000003,202316,201724,201698,201740,202195,,44,you
screen,html.Screen,1_1_0_1_45,2021-04-19T10:32:38.956Z,,,,,,,,,,,,,,,,53,,,,,,,,,,,,,,588,,response,,,,99,,,,,,,Space,keypress(Space),,,,,,,,---- -- ----- -- ------ - ------- --- ----------<br>------------- ------ ------ ---- ---- ------- ----- -- ----<br>-------- ------- -- ---------- --- - --- ----- ----- ----<br>---- --- --- ----- --- ---- ---- ------- ----- ---- -------<br>--- --- -- ----- -- --- want -- --- ---- -- ------ ------<br>--- ----- -- ----,202616,202767,202179,202164.00000000003,202195,202650,,45,want
screen,html.Screen,1_1_0_1_46,2021-04-19T10:32:39.353Z,,,,,,,,,,,,,,,,53,,,,,,,,,,,,,,530.0000000000291,,response,,,,99,,,,,,,Space,keypress(Space),,,,,,,,---- -- ----- -- ------ - ------- --- ----------<br>------------- ------ ------ ---- ---- ------- ----- -- ----<br>-------- ------- -- ---------- --- - --- ----- ----- ----<br>---- --- --- ----- --- ---- ---- ------- ----- ---- -------<br>--- --- -- ----- -- --- ---- to --- ---- -- ------ ------<br>--- ----- -- ----,203013,203164.00000000003,202634,202616,202650,203039,,46,to
screen,html.Screen,1_1_0_1_47,2021-04-19T10:32:39.783Z,,,,,,,,,,,,,,,,53,,,,,,,,,,,,,,573,,response,,,,99,,,,,,,Space,keypress(Space),,,,,,,,"---- -- ----- -- ------ - ------- --- ----------<br>------------- ------ ------ ---- ---- ------- ----- -- ----<br>-------- ------- -- ---------- --- - --- ----- ----- ----<br>---- --- --- ----- --- ---- ---- ------- ----- ---- -------<br>--- --- -- ----- -- --- ---- -- be, ---- -- ------ ------<br>--- ----- -- ----",203442,203594,203021,203013,203039,203476,,47,"be,"
screen,html.Screen,1_1_0_1_48,2021-04-19T10:32:40.316Z,,,,,,,,,,,,,,,,53,,,,,,,,,,,,,,667,,response,,,,99,,,,,,,Space,keypress(Space),,,,,,,,---- -- ----- -- ------ - ------- --- ----------<br>------------- ------ ------ ---- ---- ------- ----- -- ----<br>-------- ------- -- ---------- --- - --- ----- ----- ----<br>---- --- --- ----- --- ---- ---- ------- ----- ---- -------<br>--- --- -- ----- -- --- ---- -- --- even -- ------ ------<br>--- ----- -- ----,203975,204127,203460,203442,203476,204015,,48,even
screen,html.Screen,1_1_0_1_49,2021-04-19T10:32:40.766Z,,,,,,,,,,,,,,,,53,,,,,,,,,,,,,,580,,response,,,,99,,,,,,,Space,keypress(Space),,,,,,,,---- -- ----- -- ------ - ------- --- ----------<br>------------- ------ ------ ---- ---- ------- ----- -- ----<br>-------- ------- -- ---------- --- - --- ----- ----- ----<br>---- --- --- ----- --- ---- ---- ------- ----- ---- -------<br>--- --- -- ----- -- --- ---- -- --- ---- if ------ ------<br>--- ----- -- ----,204426.00000000003,204577,203997,203976,204015,204452,,49,if
screen,html.Screen,1_1_0_1_50,2021-04-19T10:32:41.180Z,,,,,,,,,,,,,,,,53,,,,,,,,,,,,,,555,,response,,,,99,,,,,,,Space,keypress(Space),,,,,,,,---- -- ----- -- ------ - ------- --- ----------<br>------------- ------ ------ ---- ---- ------- ----- -- ----<br>-------- ------- -- ---------- --- - --- ----- ----- ----<br>---- --- --- ----- --- ---- ---- ------- ----- ---- -------<br>--- --- -- ----- -- --- ---- -- --- ---- -- that's ------<br>--- ----- -- ----,204840,204991,204436,204426.00000000003,204452,204874,,50,that's
screen,html.Screen,1_1_0_1_51,2021-04-19T10:32:41.653Z,,,,,,,,,,,,,,,,53,,,,,,,,,,,,,,607,,response,,,,99,,,,,,,Space,keypress(Space),,,,,,,,---- -- ----- -- ------ - ------- --- ----------<br>------------- ------ ------ ---- ---- ------- ----- -- ----<br>-------- ------- -- ---------- --- - --- ----- ----- ----<br>---- --- --- ----- --- ---- ---- ------- ----- ---- -------<br>--- --- -- ----- -- --- ---- -- --- ---- -- ------ really<br>--- ----- -- ----,205313.00000000003,205465,204858,204840,204874,205345,,51,really
screen,html.Screen,1_1_0_1_52,2021-04-19T10:32:42.079Z,,,,,,,,,,,,,,,,53,,,,,,,,,,,,,,560,,response,,,,99,,,,,,,Space,keypress(Space),,,,,,,,---- -- ----- -- ------ - ------- --- ----------<br>------------- ------ ------ ---- ---- ------- ----- -- ----<br>-------- ------- -- ---------- --- - --- ----- ----- ----<br>---- --- --- ----- --- ---- ---- ------- ----- ---- -------<br>--- --- -- ----- -- --- ---- -- --- ---- -- ------ ------<br>not ----- -- ----,205739,205889,205329,205313.00000000003,205345,205767,,52,not
screen,html.Screen,1_1_0_1_53,2021-04-19T10:32:42.526Z,,,,,,,,,,,,,,,,53,,,,,,,,,,,,,,587,,response,,,,99,,,,,,,Space,keypress(Space),,,,,,,,---- -- ----- -- ------ - ------- --- ----------<br>------------- ------ ------ ---- ---- ------- ----- -- ----<br>-------- ------- -- ---------- --- - --- ----- ----- ----<br>---- --- --- ----- --- ---- ---- ------- ----- ---- -------<br>--- --- -- ----- -- --- ---- -- --- ---- -- ------ ------<br>--- close -- ----,206186,206338,205751,205739,205767,206222,,53,close
screen,html.Screen,1_1_0_1_54,2021-04-19T10:32:42.897Z,,,,,,,,,,,,,,,,53,,,,,,,,,,,,,,502,,response,,,,99,,,,,,,Space,keypress(Space),,,,,,,,---- -- ----- -- ------ - ------- --- ----------<br>------------- ------ ------ ---- ---- ------- ----- -- ----<br>-------- ------- -- ---------- --- - --- ----- ----- ----<br>---- --- --- ----- --- ---- ---- ------- ----- ---- -------<br>--- --- -- ----- -- --- ---- -- --- ---- -- ------ ------<br>--- ----- at ----,206557.00000000003,206708,206206,206186,206222,206576,,54,at
screen,html.Screen,1_1_0_1_55,2021-04-19T10:32:43.196Z,,,,,,,,,,,,,,,,53,,,,,,,,,,,,,,446,,response,,,,99,,,,,,,Space,keypress(Space),,,,,,,,---- -- ----- -- ------ - ------- --- ----------<br>------------- ------ ------ ---- ---- ------- ----- -- ----<br>-------- ------- -- ---------- --- - --- ----- ----- ----<br>---- --- --- ----- --- ---- ---- ------- ----- ---- -------<br>--- --- -- ----- -- --- ---- -- --- ---- -- ------ ------<br>--- ----- -- all.,206856,207007,206561,206557.00000000003,206576,206888,,55,all.
Item 99,flow.Loop,1_1_0_1,2021-04-19T10:32:43.196Z,,,,,,,,,,,,,,,,,,,,,,,,,,,,,,25766,,completion,,,,,F,,,,,,,,,,,silence,,,,,206856,207007,181210,181211,181241,206888,,,
Question 1,html.Screen,1_1_0_2,2021-04-19T10:32:46.990Z,,,,,,,,,,,,,,,,,,,,,,,,,,,true,FALSE,,3938,,response,,,,99,F,,,,,,FALSE,click #choice-2,,,,silence,,,,,210650,210803,206865,206856,206888,210670,,,
Question 2,html.Screen,1_1_0_3,2021-04-19T10:32:52.741Z,,,,,,,,,,,,,,,,,,,,,,,,,,,true,TRUE,,5900,,response,,,,99,F,,,,,,TRUE,click #choice-1,,,,silence,,,,,216401,216554,210654,210650,210670,216446,,,
Item 99,flow.Sequence,1_1_0,2021-04-19T10:32:52.742Z,,,,,,,,,,,,,,,,,,,,,,,,,,,,,,45330,,completion,,,,,,,,,,,,,,,,,,,,,216402.00000000003,216554,171207,171199,171224,216446,,,
Holding screen,html.Screen,1_1_1_0,2021-04-19T10:33:02.773Z,,,,,,,,,,,,,,,,,,,,,,,,,,,,,,10003,,timeout,,,,,,,,,,,,,,,,,,,,,226433,226433,216411,216402.00000000003,216446,226449,,,
screen,html.Screen,1_1_1_1_0,2021-04-19T10:33:03.550Z,,,,,,,,,,,,,,,,54,,,,,,,,,,,,,,929,,response,,,,100,,,,,,,Space,keypress(Space),,,,,,,,At --- ---- --- ------ ----- ------- ---- -- --- ------- --<br>------- ---------- ------ -- ----- -- ----- -- ---- ------<br>--- ----- --- --- ------ -------- ----- --- ------ ----- --<br>----- ----- ---------- --- --- ------ ------ ---- -- ------<br>------- --- ------ ----- --- ---- ------- -- ---- --- --<br>------- ------,227210,227362,226433,226433,226449,227244,,0,At
screen,html.Screen,1_1_1_1_1,2021-04-19T10:33:03.944Z,,,,,,,,,,,,,,,,54,,,,,,,,,,,,,,531,,response,,,,100,,,,,,,Space,keypress(Space),,,,,,,,-- the ---- --- ------ ----- ------- ---- -- --- ------- --<br>------- ---------- ------ -- ----- -- ----- -- ---- ------<br>--- ----- --- --- ------ -------- ----- --- ------ ----- --<br>----- ----- ---------- --- --- ------ ------ ---- -- ------<br>------- --- ------ ----- --- ---- ------- -- ---- --- --<br>------- ------,227604,227757,227226,227210,227244,227632,,1,the
screen,html.Screen,1_1_1_1_2,2021-04-19T10:33:04.299Z,,,,,,,,,,,,,,,,54,,,,,,,,,,,,,,498,,response,,,,100,,,,,,,Space,keypress(Space),,,,,,,,-- --- time --- ------ ----- ------- ---- -- --- ------- --<br>------- ---------- ------ -- ----- -- ----- -- ---- ------<br>--- ----- --- --- ------ -------- ----- --- ------ ----- --<br>----- ----- ---------- --- --- ------ ------ ---- -- ------<br>------- --- ------ ----- --- ---- ------- -- ---- --- --<br>------- ------,227960,228112,227614,227605.00000000003,227632,227990,,2,time
screen,html.Screen,1_1_1_1_3,2021-04-19T10:33:04.702Z,,,,,,,,,,,,,,,,54,,,,,,,,,,,,,,541.0000000000291,,response,,,,100,,,,,,,Space,keypress(Space),,,,,,,,-- --- ---- the ------ ----- ------- ---- -- --- ------- --<br>------- ---------- ------ -- ----- -- ----- -- ---- ------<br>--- ----- --- --- ------ -------- ----- --- ------ ----- --<br>----- ----- ---------- --- --- ------ ------ ---- -- ------<br>------- --- ------ ----- --- ---- ------- -- ---- --- --<br>------- ------,228363,228515.00000000003,227974,227960,227990,228396,,3,the
screen,html.Screen,1_1_1_1_4,2021-04-19T10:33:05.165Z,,,,,,,,,,,,,,,,54,,,,,,,,,,,,,,598,,response,,,,100,,,,,,,Space,keypress(Space),,,,,,,,-- --- ---- --- French ----- ------- ---- -- --- ------- --<br>------- ---------- ------ -- ----- -- ----- -- ---- ------<br>--- ----- --- --- ------ -------- ----- --- ------ ----- --<br>----- ----- ---------- --- --- ------ ------ ---- -- ------<br>------- --- ------ ----- --- ---- ------- -- ---- --- --<br>------- ------,228825.00000000003,228978,228380,228363,228396,228868,,4,French
screen,html.Screen,1_1_1_1_5,2021-04-19T10:33:05.661Z,,,,,,,,,,,,,,,,54,,,,,,,,,,,,,,622.0000000000291,,response,,,,100,,,,,,,Space,keypress(Space),,,,,,,,-- --- ---- --- ------ crown ------- ---- -- --- ------- --<br>------- ---------- ------ -- ----- -- ----- -- ---- ------<br>--- ----- --- --- ------ -------- ----- --- ------ ----- --<br>----- ----- ---------- --- --- ------ ------ ---- -- ------<br>------- --- ------ ----- --- ---- ------- -- ---- --- --<br>------- ------,229322,229474.00000000003,228852,228826,228868,229356,,5,crown
screen,html.Screen,1_1_1_1_6,2021-04-19T10:33:06.149Z,,,,,,,,,,,,,,,,54,,,,,,,,,,,,,,623,,response,,,,100,,,,,,,Space,keypress(Space),,,,,,,,-- --- ---- --- ------ ----- secured ---- -- --- ------- --<br>------- ---------- ------ -- ----- -- ----- -- ---- ------<br>--- ----- --- --- ------ -------- ----- --- ------ ----- --<br>----- ----- ---------- --- --- ------ ------ ---- -- ------<br>------- --- ------ ----- --- ---- ------- -- ---- --- --<br>------- ------,229810,229963,229340,229322,229356,229844,,6,secured
screen,html.Screen,1_1_1_1_7,2021-04-19T10:33:06.633Z,,,,,,,,,,,,,,,,54,,,,,,,,,,,,,,617,,response,,,,100,,,,,,,Space,keypress(Space),,,,,,,,-- --- ---- --- ------ ----- ------- much -- --- ------- --<br>------- ---------- ------ -- ----- -- ----- -- ---- ------<br>--- ----- --- --- ------ -------- ----- --- ------ ----- --<br>----- ----- ---------- --- --- ------ ------ ---- -- ------<br>------- --- ------ ----- --- ---- ------- -- ---- --- --<br>------- ------,230293,230445,229828,229810,229844,230332,,7,much
screen,html.Screen,1_1_1_1_8,2021-04-19T10:33:07.072Z,,,,,,,,,,,,,,,,54,,,,,,,,,,,,,,570,,response,,,,100,,,,,,,Space,keypress(Space),,,,,,,,-- --- ---- --- ------ ----- ------- ---- of --- ------- --<br>------- ---------- ------ -- ----- -- ----- -- ---- ------<br>--- ----- --- --- ------ -------- ----- --- ------ ----- --<br>----- ----- ---------- --- --- ------ ------ ---- -- ------<br>------- --- ------ ----- --- ---- ------- -- ---- --- --<br>------- ------,230733,230886,230316,230293,230332,230770,,8,of
screen,html.Screen,1_1_1_1_9,2021-04-19T10:33:07.467Z,,,,,,,,,,,,,,,,54,,,,,,,,,,,,,,527,,response,,,,100,,,,,,,Space,keypress(Space),,,,,,,,-- --- ---- --- ------ ----- ------- ---- -- its ------- --<br>------- ---------- ------ -- ----- -- ----- -- ---- ------<br>--- ----- --- --- ------ -------- ----- --- ------ ----- --<br>----- ----- ---------- --- --- ------ ------ ---- -- ------<br>------- --- ------ ----- --- ---- ------- -- ---- --- --<br>------- ------,231128,231280,230753,230733,230770,231158,,9,its
screen,html.Screen,1_1_1_1_10,2021-04-19T10:33:07.920Z,,,,,,,,,,,,,,,,54,,,,,,,,,,,,,,591,,response,,,,100,,,,,,,Space,keypress(Space),,,,,,,,-- --- ---- --- ------ ----- ------- ---- -- --- revenue --<br>------- ---------- ------ -- ----- -- ----- -- ---- ------<br>--- ----- --- --- ------ -------- ----- --- ------ ----- --<br>----- ----- ---------- --- --- ------ ------ ---- -- ------<br>------- --- ------ ----- --- ---- ------- -- ---- --- --<br>------- ------,231581.00000000003,231733,231142,231128,231158,231614,,10,revenue
screen,html.Screen,1_1_1_1_11,2021-04-19T10:33:08.388Z,,,,,,,,,,,,,,,,54,,,,,,,,,,,,,,603.0000000000291,,response,,,,100,,,,,,,Space,keypress(Space),,,,,,,,-- --- ---- --- ------ ----- ------- ---- -- --- ------- by<br>------- ---------- ------ -- ----- -- ----- -- ---- ------<br>--- ----- --- --- ------ -------- ----- --- ------ ----- --<br>----- ----- ---------- --- --- ------ ------ ---- -- ------<br>------- --- ------ ----- --- ---- ------- -- ---- --- --<br>------- ------,232049,232200.00000000003,231597,231581.00000000003,231614,232085,,11,by
screen,html.Screen,1_1_1_1_12,2021-04-19T10:33:08.879Z,,,,,,,,,,,,,,,,54,,,,,,,,,,,,,,624,,response,,,,100,,,,,,,Space,keypress(Space),,,,,,,,-- --- ---- --- ------ ----- ------- ---- -- --- ------- --<br>issuing ---------- ------ -- ----- -- ----- -- ---- ------<br>--- ----- --- --- ------ -------- ----- --- ------ ----- --<br>----- ----- ---------- --- --- ------ ------ ---- -- ------<br>------- --- ------ ----- --- ---- ------- -- ---- --- --<br>------- ------,232540,232693,232069,232049,232085,232574,,12,issuing
screen,html.Screen,1_1_1_1_13,2021-04-19T10:33:09.404Z,,,,,,,,,,,,,,,,54,,,,,,,,,,,,,,660.0000000000291,,response,,,,100,,,,,,,Space,keypress(Space),,,,,,,,-- --- ---- --- ------ ----- ------- ---- -- --- ------- --<br>------- government ------ -- ----- -- ----- -- ---- ------<br>--- ----- --- --- ------ -------- ----- --- ------ ----- --<br>----- ----- ---------- --- --- ------ ------ ---- -- ------<br>------- --- ------ ----- --- ---- ------- -- ---- --- --<br>------- ------,233065,233218.00000000003,232558,232540,232574,233094,,13,government
screen,html.Screen,1_1_1_1_14,2021-04-19T10:33:09.891Z,,,,,,,,,,,,,,,,54,,,,,,,,,,,,,,626,,response,,,,100,,,,,,,Space,keypress(Space),,,,,,,,-- --- ---- --- ------ ----- ------- ---- -- --- ------- --<br>------- ---------- bonds. -- ----- -- ----- -- ---- ------<br>--- ----- --- --- ------ -------- ----- --- ------ ----- --<br>----- ----- ---------- --- --- ------ ------ ---- -- ------<br>------- --- ------ ----- --- ---- ------- -- ---- --- --<br>------- ------,233551.00000000003,233704,233078,233065,233094,233584,,14,bonds.
screen,html.Screen,1_1_1_1_15,2021-04-19T10:33:10.394Z,,,,,,,,,,,,,,,,54,,,,,,,,,,,,,,641,,response,,,,100,,,,,,,Space,keypress(Space),,,,,,,,-- --- ---- --- ------ ----- ------- ---- -- --- ------- --<br>------- ---------- ------ In ----- -- ----- -- ---- ------<br>--- ----- --- --- ------ -------- ----- --- ------ ----- --<br>----- ----- ---------- --- --- ------ ------ ---- -- ------<br>------- --- ------ ----- --- ---- ------- -- ---- --- --<br>------- ------,234055,234207,233566,233552,233584,234089,,15,In
screen,html.Screen,1_1_1_1_16,2021-04-19T10:33:10.885Z,,,,,,,,,,,,,,,,54,,,,,,,,,,,,,,627,,response,,,,100,,,,,,,Space,keypress(Space),,,,,,,,"-- --- ---- --- ------ ----- ------- ---- -- --- ------- --<br>------- ---------- ------ -- 1727, -- ----- -- ---- ------<br>--- ----- --- --- ------ -------- ----- --- ------ ----- --<br>----- ----- ---------- --- --- ------ ------ ---- -- ------<br>------- --- ------ ----- --- ---- ------- -- ---- --- --<br>------- ------",234546,234698,234071,234055,234089,234577,,16,"1727,"
screen,html.Screen,1_1_1_1_17,2021-04-19T10:33:11.426Z,,,,,,,,,,,,,,,,54,,,,,,,,,,,,,,679,,response,,,,100,,,,,,,Space,keypress(Space),,,,,,,,-- --- ---- --- ------ ----- ------- ---- -- --- ------- --<br>------- ---------- ------ -- ----- in ----- -- ---- ------<br>--- ----- --- --- ------ -------- ----- --- ------ ----- --<br>----- ----- ---------- --- --- ------ ------ ---- -- ------<br>------- --- ------ ----- --- ---- ------- -- ---- --- --<br>------- ------,235087.00000000003,235239,234560,234546,234577,235115,,17,in
screen,html.Screen,1_1_1_1_18,2021-04-19T10:33:12.026Z,,,,,,,,,,,,,,,,54,,,,,,,,,,,,,,742,,response,,,,100,,,,,,,Space,keypress(Space),,,,,,,,-- --- ---- --- ------ ----- ------- ---- -- --- ------- --<br>------- ---------- ------ -- ----- -- order -- ---- ------<br>--- ----- --- --- ------ -------- ----- --- ------ ----- --<br>----- ----- ---------- --- --- ------ ------ ---- -- ------<br>------- --- ------ ----- --- ---- ------- -- ---- --- --<br>------- ------,235687,235840,235098,235087.00000000003,235115,235720,,18,order
screen,html.Screen,1_1_1_1_19,2021-04-19T10:33:12.471Z,,,,,,,,,,,,,,,,54,,,,,,,,,,,,,,583,,response,,,,100,,,,,,,Space,keypress(Space),,,,,,,,-- --- ---- --- ------ ----- ------- ---- -- --- ------- --<br>------- ---------- ------ -- ----- -- ----- to ---- ------<br>--- ----- --- --- ------ -------- ----- --- ------ ----- --<br>----- ----- ---------- --- --- ------ ------ ---- -- ------<br>------- --- ------ ----- --- ---- ------- -- ---- --- --<br>------- ------,236132,236285,235702,235687,235720,236158,,19,to
screen,html.Screen,1_1_1_1_20,2021-04-19T10:33:12.884Z,,,,,,,,,,,,,,,,54,,,,,,,,,,,,,,556,,response,,,,100,,,,,,,Space,keypress(Space),,,,,,,,-- --- ---- --- ------ ----- ------- ---- -- --- ------- --<br>------- ---------- ------ -- ----- -- ----- -- save ------<br>--- ----- --- --- ------ -------- ----- --- ------ ----- --<br>----- ----- ---------- --- --- ------ ------ ---- -- ------<br>------- --- ------ ----- --- ---- ------- -- ---- --- --<br>------- ------,236545.00000000003,236698,236142,236132,236158,236581,,20,save
screen,html.Screen,1_1_1_1_21,2021-04-19T10:33:13.329Z,,,,,,,,,,,,,,,,54,,,,,,,,,,,,,,579,,response,,,,100,,,,,,,Space,keypress(Space),,,,,,,,"-- --- ---- --- ------ ----- ------- ---- -- --- ------- --<br>------- ---------- ------ -- ----- -- ----- -- ---- money,<br>--- ----- --- --- ------ -------- ----- --- ------ ----- --<br>----- ----- ---------- --- --- ------ ------ ---- -- ------<br>------- --- ------ ----- --- ---- ------- -- ---- --- --<br>------- ------",236990,237143,236564,236545.00000000003,236581,237018,,21,"money,"
screen,html.Screen,1_1_1_1_22,2021-04-19T10:33:13.783Z,,,,,,,,,,,,,,,,54,,,,,,,,,,,,,,595,,response,,,,100,,,,,,,Space,keypress(Space),,,,,,,,-- --- ---- --- ------ ----- ------- ---- -- --- ------- --<br>------- ---------- ------ -- ----- -- ----- -- ---- ------<br>the ----- --- --- ------ -------- ----- --- ------ ----- --<br>----- ----- ---------- --- --- ------ ------ ---- -- ------<br>------- --- ------ ----- --- ---- ------- -- ---- --- --<br>------- ------,237444.00000000003,237597,237002,236990,237018,237473,,22,the
screen,html.Screen,1_1_1_1_23,2021-04-19T10:33:14.171Z,,,,,,,,,,,,,,,,54,,,,,,,,,,,,,,526,,response,,,,100,,,,,,,Space,keypress(Space),,,,,,,,-- --- ---- --- ------ ----- ------- ---- -- --- ------- --<br>------- ---------- ------ -- ----- -- ----- -- ---- ------<br>--- state --- --- ------ -------- ----- --- ------ ----- --<br>----- ----- ---------- --- --- ------ ------ ---- -- ------<br>------- --- ------ ----- --- ---- ------- -- ---- --- --<br>------- ------,237832,237983,237457,237444.00000000003,237473,237862,,23,state
screen,html.Screen,1_1_1_1_24,2021-04-19T10:33:14.615Z,,,,,,,,,,,,,,,,54,,,,,,,,,,,,,,583,,response,,,,100,,,,,,,Space,keypress(Space),,,,,,,,-- --- ---- --- ------ ----- ------- ---- -- --- ------- --<br>------- ---------- ------ -- ----- -- ----- -- ---- ------<br>--- ----- cut --- ------ -------- ----- --- ------ ----- --<br>----- ----- ---------- --- --- ------ ------ ---- -- ------<br>------- --- ------ ----- --- ---- ------- -- ---- --- --<br>------- ------,238276,238429,237846,237832,237862,238317,,24,cut
screen,html.Screen,1_1_1_1_25,2021-04-19T10:33:15.042Z,,,,,,,,,,,,,,,,54,,,,,,,,,,,,,,556,,response,,,,100,,,,,,,Space,keypress(Space),,,,,,,,-- --- ---- --- ------ ----- ------- ---- -- --- ------- --<br>------- ---------- ------ -- ----- -- ----- -- ---- ------<br>--- ----- --- the ------ -------- ----- --- ------ ----- --<br>----- ----- ---------- --- --- ------ ------ ---- -- ------<br>------- --- ------ ----- --- ---- ------- -- ---- --- --<br>------- ------,238703,238856,238300,238276,238317,238739,,25,the
screen,html.Screen,1_1_1_1_26,2021-04-19T10:33:15.455Z,,,,,,,,,,,,,,,,54,,,,,,,,,,,,,,546,,response,,,,100,,,,,,,Space,keypress(Space),,,,,,,,-- --- ---- --- ------ ----- ------- ---- -- --- ------- --<br>------- ---------- ------ -- ----- -- ----- -- ---- ------<br>--- ----- --- --- bonds' -------- ----- --- ------ ----- --<br>----- ----- ---------- --- --- ------ ------ ---- -- ------<br>------- --- ------ ----- --- ---- ------- -- ---- --- --<br>------- ------,239116,239268,238722,238703,238739,239144,,26,bonds'
screen,html.Screen,1_1_1_1_27,2021-04-19T10:33:15.930Z,,,,,,,,,,,,,,,,54,,,,,,,,,,,,,,618,,response,,,,100,,,,,,,Space,keypress(Space),,,,,,,,-- --- ---- --- ------ ----- ------- ---- -- --- ------- --<br>------- ---------- ------ -- ----- -- ----- -- ---- ------<br>--- ----- --- --- ------ interest ----- --- ------ ----- --<br>----- ----- ---------- --- --- ------ ------ ---- -- ------<br>------- --- ------ ----- --- ---- ------- -- ---- --- --<br>------- ------,239591,239744,239126,239116,239144,239632,,27,interest
screen,html.Screen,1_1_1_1_28,2021-04-19T10:33:16.407Z,,,,,,,,,,,,,,,,54,,,,,,,,,,,,,,607,,response,,,,100,,,,,,,Space,keypress(Space),,,,,,,,-- --- ---- --- ------ ----- ------- ---- -- --- ------- --<br>------- ---------- ------ -- ----- -- ----- -- ---- ------<br>--- ----- --- --- ------ -------- rate. --- ------ ----- --<br>----- ----- ---------- --- --- ------ ------ ---- -- ------<br>------- --- ------ ----- --- ---- ------- -- ---- --- --<br>------- ------,240068,240221,239614,239592,239632,240103,,28,rate.
screen,html.Screen,1_1_1_1_29,2021-04-19T10:33:16.866Z,,,,,,,,,,,,,,,,54,,,,,,,,,,,,,,594,,response,,,,100,,,,,,,Space,keypress(Space),,,,,,,,-- --- ---- --- ------ ----- ------- ---- -- --- ------- --<br>------- ---------- ------ -- ----- -- ----- -- ---- ------<br>--- ----- --- --- ------ -------- ----- The ------ ----- --<br>----- ----- ---------- --- --- ------ ------ ---- -- ------<br>------- --- ------ ----- --- ---- ------- -- ---- --- --<br>------- ------,240527.00000000003,240680,240086,240068,240103,240558,,29,The
screen,html.Screen,1_1_1_1_30,2021-04-19T10:33:17.358Z,,,,,,,,,,,,,,,,54,,,,,,,,,,,,,,631,,response,,,,100,,,,,,,Space,keypress(Space),,,,,,,,-- --- ---- --- ------ ----- ------- ---- -- --- ------- --<br>------- ---------- ------ -- ----- -- ----- -- ---- ------<br>--- ----- --- --- ------ -------- ----- --- market ----- --<br>----- ----- ---------- --- --- ------ ------ ---- -- ------<br>------- --- ------ ----- --- ---- ------- -- ---- --- --<br>------- ------,241019,241172,240541,240527.00000000003,240558,241046,,30,market
screen,html.Screen,1_1_1_1_31,2021-04-19T10:33:17.870Z,,,,,,,,,,,,,,,,54,,,,,,,,,,,,,,655,,response,,,,100,,,,,,,Space,keypress(Space),,,,,,,,-- --- ---- --- ------ ----- ------- ---- -- --- ------- --<br>------- ---------- ------ -- ----- -- ----- -- ---- ------<br>--- ----- --- --- ------ -------- ----- --- ------ value --<br>----- ----- ---------- --- --- ------ ------ ---- -- ------<br>------- --- ------ ----- --- ---- ------- -- ---- --- --<br>------- ------,241531,241684,241029,241019,241046,241568,,31,value
screen,html.Screen,1_1_1_1_32,2021-04-19T10:33:18.290Z,,,,,,,,,,,,,,,,54,,,,,,,,,,,,,,554,,response,,,,100,,,,,,,Space,keypress(Space),,,,,,,,-- --- ---- --- ------ ----- ------- ---- -- --- ------- --<br>------- ---------- ------ -- ----- -- ----- -- ---- ------<br>--- ----- --- --- ------ -------- ----- --- ------ ----- of<br>----- ----- ---------- --- --- ------ ------ ---- -- ------<br>------- --- ------ ----- --- ---- ------- -- ---- --- --<br>------- ------,241951,242104,241550,241531,241568,241989,,32,of
screen,html.Screen,1_1_1_1_33,2021-04-19T10:33:18.733Z,,,,,,,,,,,,,,,,54,,,,,,,,,,,,,,576,,response,,,,100,,,,,,,Space,keypress(Space),,,,,,,,-- --- ---- --- ------ ----- ------- ---- -- --- ------- --<br>------- ---------- ------ -- ----- -- ----- -- ---- ------<br>--- ----- --- --- ------ -------- ----- --- ------ ----- --<br>these ----- ---------- --- --- ------ ------ ---- -- ------<br>------- --- ------ ----- --- ---- ------- -- ---- --- --<br>------- ------,242394,242548,241972,241952,241989,242427,,33,these
screen,html.Screen,1_1_1_1_34,2021-04-19T10:33:19.232Z,,,,,,,,,,,,,,,,54,,,,,,,,,,,,,,618,,response,,,,100,,,,,,,Space,keypress(Space),,,,,,,,-- --- ---- --- ------ ----- ------- ---- -- --- ------- --<br>------- ---------- ------ -- ----- -- ----- -- ---- ------<br>--- ----- --- --- ------ -------- ----- --- ------ ----- --<br>----- bonds ---------- --- --- ------ ------ ---- -- ------<br>------- --- ------ ----- --- ---- ------- -- ---- --- --<br>------- ------,242894,243029,242411,242395,242427,242933,,34,bonds
screen,html.Screen,1_1_1_1_35,2021-04-19T10:33:19.638Z,,,,,,,,,,,,,,,,54,,,,,,,,,,,,,,537,,response,,,,100,,,,,,,Space,keypress(Space),,,,,,,,"-- --- ---- --- ------ ----- ------- ---- -- --- ------- --<br>------- ---------- ------ -- ----- -- ----- -- ---- ------<br>--- ----- --- --- ------ -------- ----- --- ------ ----- --<br>----- ----- plummeted, --- --- ------ ------ ---- -- ------<br>------- --- ------ ----- --- ---- ------- -- ---- --- --<br>------- ------",243299,243453,242916,242894,242933,243321,,35,"plummeted,"
screen,html.Screen,1_1_1_1_36,2021-04-19T10:33:20.154Z,,,,,,,,,,,,,,,,54,,,,,,,,,,,,,,664,,response,,,,100,,,,,,,Space,keypress(Space),,,,,,,,-- --- ---- --- ------ ----- ------- ---- -- --- ------- --<br>------- ---------- ------ -- ----- -- ----- -- ---- ------<br>--- ----- --- --- ------ -------- ----- --- ------ ----- --<br>----- ----- ---------- and --- ------ ------ ---- -- ------<br>------- --- ------ ----- --- ---- ------- -- ---- --- --<br>------- ------,243815,243969,243305,243299,243321,243843,,36,and
screen,html.Screen,1_1_1_1_37,2021-04-19T10:33:20.617Z,,,,,,,,,,,,,,,,54,,,,,,,,,,,,,,605,,response,,,,100,,,,,,,Space,keypress(Space),,,,,,,,-- --- ---- --- ------ ----- ------- ---- -- --- ------- --<br>------- ---------- ------ -- ----- -- ----- -- ---- ------<br>--- ----- --- --- ------ -------- ----- --- ------ ----- --<br>----- ----- ---------- --- the ------ ------ ---- -- ------<br>------- --- ------ ----- --- ---- ------- -- ---- --- --<br>------- ------,244278,244431,243826,243815,243843,244315,,37,the
screen,html.Screen,1_1_1_1_38,2021-04-19T10:33:21.088Z,,,,,,,,,,,,,,,,54,,,,,,,,,,,,,,606,,response,,,,100,,,,,,,Space,keypress(Space),,,,,,,,-- --- ---- --- ------ ----- ------- ---- -- --- ------- --<br>------- ---------- ------ -- ----- -- ----- -- ---- ------<br>--- ----- --- --- ------ -------- ----- --- ------ ----- --<br>----- ----- ---------- --- --- market ------ ---- -- ------<br>------- --- ------ ----- --- ---- ------- -- ---- --- --<br>------- ------,244749,244903,244297,244278,244315,244785,,38,market
screen,html.Screen,1_1_1_1_39,2021-04-19T10:33:21.600Z,,,,,,,,,,,,,,,,54,,,,,,,,,,,,,,645.0000000000291,,response,,,,100,,,,,,,Space,keypress(Space),,,,,,,,-- --- ---- --- ------ ----- ------- ---- -- --- ------- --<br>------- ---------- ------ -- ----- -- ----- -- ---- ------<br>--- ----- --- --- ------ -------- ----- --- ------ ----- --<br>----- ----- ---------- --- --- ------ became ---- -- ------<br>------- --- ------ ----- --- ---- ------- -- ---- --- --<br>------- ------,245261,245414.00000000003,244769,244749,244785,245291,,39,became
screen,html.Screen,1_1_1_1_40,2021-04-19T10:33:22.108Z,,,,,,,,,,,,,,,,54,,,,,,,,,,,,,,649,,response,,,,100,,,,,,,Space,keypress(Space),,,,,,,,-- --- ---- --- ------ ----- ------- ---- -- --- ------- --<br>------- ---------- ------ -- ----- -- ----- -- ---- ------<br>--- ----- --- --- ------ -------- ----- --- ------ ----- --<br>----- ----- ---------- --- --- ------ ------ wary -- ------<br>------- --- ------ ----- --- ---- ------- -- ---- --- --<br>------- ------,245769,245922,245273,245262,245291,245811,,40,wary
screen,html.Screen,1_1_1_1_41,2021-04-19T10:33:22.561Z,,,,,,,,,,,,,,,,54,,,,,,,,,,,,,,581,,response,,,,100,,,,,,,Space,keypress(Space),,,,,,,,-- --- ---- --- ------ ----- ------- ---- -- --- ------- --<br>------- ---------- ------ -- ----- -- ----- -- ---- ------<br>--- ----- --- --- ------ -------- ----- --- ------ ----- --<br>----- ----- ---------- --- --- ------ ------ ---- of ------<br>------- --- ------ ----- --- ---- ------- -- ---- --- --<br>------- ------,246223,246376,245795,245769,245811,246250,,41,of
screen,html.Screen,1_1_1_1_42,2021-04-19T10:33:23.024Z,,,,,,,,,,,,,,,,54,,,,,,,,,,,,,,606,,response,,,,100,,,,,,,Space,keypress(Space),,,,,,,,-- --- ---- --- ------ ----- ------- ---- -- --- ------- --<br>------- ---------- ------ -- ----- -- ----- -- ---- ------<br>--- ----- --- --- ------ -------- ----- --- ------ ----- --<br>----- ----- ---------- --- --- ------ ------ ---- -- French<br>------- --- ------ ----- --- ---- ------- -- ---- --- --<br>------- ------,246686,246839,246233,246223,246250,246721,,42,French
screen,html.Screen,1_1_1_1_43,2021-04-19T10:33:23.568Z,,,,,,,,,,,,,,,,54,,,,,,,,,,,,,,678,,response,,,,100,,,,,,,Space,keypress(Space),,,,,,,,-- --- ---- --- ------ ----- ------- ---- -- --- ------- --<br>------- ---------- ------ -- ----- -- ----- -- ---- ------<br>--- ----- --- --- ------ -------- ----- --- ------ ----- --<br>----- ----- ---------- --- --- ------ ------ ---- -- ------<br>credit. --- ------ ----- --- ---- ------- -- ---- --- --<br>------- ------,247230.00000000003,247383,246705,246686,246721,247259,,43,credit.
screen,html.Screen,1_1_1_1_44,2021-04-19T10:33:24.224Z,,,,,,,,,,,,,,,,54,,,,,,,,,,,,,,792,,response,,,,100,,,,,,,Space,keypress(Space),,,,,,,,-- --- ---- --- ------ ----- ------- ---- -- --- ------- --<br>------- ---------- ------ -- ----- -- ----- -- ---- ------<br>--- ----- --- --- ------ -------- ----- --- ------ ----- --<br>----- ----- ---------- --- --- ------ ------ ---- -- ------<br>------- The ------ ----- --- ---- ------- -- ---- --- --<br>------- ------,247886,248034,247242,247230.00000000003,247259,247913,,44,The
screen,html.Screen,1_1_1_1_45,2021-04-19T10:33:24.714Z,,,,,,,,,,,,,,,,54,,,,,,,,,,,,,,632,,response,,,,100,,,,,,,Space,keypress(Space),,,,,,,,-- --- ---- --- ------ ----- ------- ---- -- --- ------- --<br>------- ---------- ------ -- ----- -- ----- -- ---- ------<br>--- ----- --- --- ------ -------- ----- --- ------ ----- --<br>----- ----- ---------- --- --- ------ ------ ---- -- ------<br>------- --- French ----- --- ---- ------- -- ---- --- --<br>------- ------,248375,248529,247897,247886,247913,248403,,45,French
screen,html.Screen,1_1_1_1_46,2021-04-19T10:33:25.253Z,,,,,,,,,,,,,,,,54,,,,,,,,,,,,,,681,,response,,,,100,,,,,,,Space,keypress(Space),,,,,,,,-- --- ---- --- ------ ----- ------- ---- -- --- ------- --<br>------- ---------- ------ -- ----- -- ----- -- ---- ------<br>--- ----- --- --- ------ -------- ----- --- ------ ----- --<br>----- ----- ---------- --- --- ------ ------ ---- -- ------<br>------- --- ------ state --- ---- ------- -- ---- --- --<br>------- ------,248914.00000000003,249068,248387,248375,248403,248942,,46,state
screen,html.Screen,1_1_1_1_47,2021-04-19T10:33:25.732Z,,,,,,,,,,,,,,,,54,,,,,,,,,,,,,,623,,response,,,,100,,,,,,,Space,keypress(Space),,,,,,,,-- --- ---- --- ------ ----- ------- ---- -- --- ------- --<br>------- ---------- ------ -- ----- -- ----- -- ---- ------<br>--- ----- --- --- ------ -------- ----- --- ------ ----- --<br>----- ----- ---------- --- --- ------ ------ ---- -- ------<br>------- --- ------ ----- was ---- ------- -- ---- --- --<br>------- ------,249394,249548,248925,248914.00000000003,248942,249430,,47,was
screen,html.Screen,1_1_1_1_48,2021-04-19T10:33:26.281Z,,,,,,,,,,,,,,,,54,,,,,,,,,,,,,,682,,response,,,,100,,,,,,,Space,keypress(Space),,,,,,,,-- --- ---- --- ------ ----- ------- ---- -- --- ------- --<br>------- ---------- ------ -- ----- -- ----- -- ---- ------<br>--- ----- --- --- ------ -------- ----- --- ------ ----- --<br>----- ----- ---------- --- --- ------ ------ ---- -- ------<br>------- --- ------ ----- --- left ------- -- ---- --- --<br>------- ------,249943,250096,249414,249394,249430,249986,,48,left
screen,html.Screen,1_1_1_1_49,2021-04-19T10:33:26.754Z,,,,,,,,,,,,,,,,54,,,,,,,,,,,,,,601,,response,,,,100,,,,,,,Space,keypress(Space),,,,,,,,-- --- ---- --- ------ ----- ------- ---- -- --- ------- --<br>------- ---------- ------ -- ----- -- ----- -- ---- ------<br>--- ----- --- --- ------ -------- ----- --- ------ ----- --<br>----- ----- ---------- --- --- ------ ------ ---- -- ------<br>------- --- ------ ----- --- ---- without -- ---- --- --<br>------- ------,250416,250570,249969,249943,249986,250457,,49,without
screen,html.Screen,1_1_1_1_50,2021-04-19T10:33:27.198Z,,,,,,,,,,,,,,,,54,,,,,,,,,,,,,,573,,response,,,,100,,,,,,,Space,keypress(Space),,,,,,,,-- --- ---- --- ------ ----- ------- ---- -- --- ------- --<br>------- ---------- ------ -- ----- -- ----- -- ---- ------<br>--- ----- --- --- ------ -------- ----- --- ------ ----- --<br>----- ----- ---------- --- --- ------ ------ ---- -- ------<br>------- --- ------ ----- --- ---- ------- an ---- --- --<br>------- ------,250860,251013,250440,250416,250457,250894,,50,an
screen,html.Screen,1_1_1_1_51,2021-04-19T10:33:27.620Z,,,,,,,,,,,,,,,,54,,,,,,,,,,,,,,546,,response,,,,100,,,,,,,Space,keypress(Space),,,,,,,,-- --- ---- --- ------ ----- ------- ---- -- --- ------- --<br>------- ---------- ------ -- ----- -- ----- -- ---- ------<br>--- ----- --- --- ------ -------- ----- --- ------ ----- --<br>----- ----- ---------- --- --- ------ ------ ---- -- ------<br>------- --- ------ ----- --- ---- ------- -- easy --- --<br>------- ------,251281,251435,250889,250860,250894,251322,,51,easy
screen,html.Screen,1_1_1_1_52,2021-04-19T10:33:28.078Z,,,,,,,,,,,,,,,,54,,,,,,,,,,,,,,588,,response,,,,100,,,,,,,Space,keypress(Space),,,,,,,,-- --- ---- --- ------ ----- ------- ---- -- --- ------- --<br>------- ---------- ------ -- ----- -- ----- -- ---- ------<br>--- ----- --- --- ------ -------- ----- --- ------ ----- --<br>----- ----- ---------- --- --- ------ ------ ---- -- ------<br>------- --- ------ ----- --- ---- ------- -- ---- way --<br>------- ------,251739,251893,251305,251281,251322,251777,,52,way
screen,html.Screen,1_1_1_1_53,2021-04-19T10:33:28.492Z,,,,,,,,,,,,,,,,54,,,,,,,,,,,,,,546.0000000000291,,response,,,,100,,,,,,,Space,keypress(Space),,,,,,,,-- --- ---- --- ------ ----- ------- ---- -- --- ------- --<br>------- ---------- ------ -- ----- -- ----- -- ---- ------<br>--- ----- --- --- ------ -------- ----- --- ------ ----- --<br>----- ----- ---------- --- --- ------ ------ ---- -- ------<br>------- --- ------ ----- --- ---- ------- -- ---- --- of<br>------- ------,252154,252307.00000000003,251761,251739,251777,252182,,53,of
screen,html.Screen,1_1_1_1_54,2021-04-19T10:33:28.934Z,,,,,,,,,,,,,,,,54,,,,,,,,,,,,,,583,,response,,,,100,,,,,,,Space,keypress(Space),,,,,,,,-- --- ---- --- ------ ----- ------- ---- -- --- ------- --<br>------- ---------- ------ -- ----- -- ----- -- ---- ------<br>--- ----- --- --- ------ -------- ----- --- ------ ----- --<br>----- ----- ---------- --- --- ------ ------ ---- -- ------<br>------- --- ------ ----- --- ---- ------- -- ---- --- --<br>raising ------,252596,252749,252166,252154,252182,252636,,54,raising
screen,html.Screen,1_1_1_1_55,2021-04-19T10:33:29.318Z,,,,,,,,,,,,,,,,54,,,,,,,,,,,,,,512,,response,,,,100,,,,,,,Space,keypress(Space),,,,,,,,-- --- ---- --- ------ ----- ------- ---- -- --- ------- --<br>------- ---------- ------ -- ----- -- ----- -- ---- ------<br>--- ----- --- --- ------ -------- ----- --- ------ ----- --<br>----- ----- ---------- --- --- ------ ------ ---- -- ------<br>------- --- ------ ----- --- ---- ------- -- ---- --- --<br>------- money.,252980.00000000003,253132,252620,252596,252636,253009,,55,money.
Item 100,flow.Loop,1_1_1_1,2021-04-19T10:33:29.318Z,,,,,,,,,,,,,,,,,,,,,,,,,,,,,,26683,,completion,,,,,F,,,,,,,,,,,silence,,,,,252980.00000000003,253132,226433,226433,226449,253009,,,
Question 1,html.Screen,1_1_1_2,2021-04-19T10:33:32.092Z,,,,,,,,,,,,,,,,,,,,,,,,,,,true,TRUE,,2916.000000000029,,response,,,,100,F,,,,,,TRUE,click #choice-1,,,,silence,,,,,255754.00000000003,255908.00000000003,252992,252980.00000000003,253009,255777,,,
Question 2,html.Screen,1_1_1_3,2021-04-19T10:33:36.019Z,,,,,,,,,,,,,,,,,,,,,,,,,,,true,FALSE,,4076,,response,,,,100,F,,,,,,FALSE,click #choice-2,,,,silence,,,,,259680.99999999997,259837,255761,255754.00000000003,255777,259704,,,
Item 100,flow.Sequence,1_1_1,2021-04-19T10:33:36.019Z,,,,,,,,,,,,,,,,,,,,,,,,,,,,,,43391,,completion,,,,,,,,,,,,,,,,,,,,,259680.99999999997,259837,216411,216402.00000000003,216446,259704,,,
End of Practice,html.Page,1_1_2,2021-04-19T10:33:41.633Z,,,,,,,,,,,,,,,,,,,,,,,,,,,,,,5591,,form submission,,,,,,,,,,,,,,,,,,,,,265295,265295,259689,259680.99999999997,259704,265315,,,
Practice,flow.Sequence,1_1,2021-04-19T10:33:41.633Z,,,,,,,,,,,,,,,,,,,,,,,,,,,,,,94071,,completion,,,,,,,,,,,,,,,,,,,,,265296,265295,171207,171199,171224,265315,,,
Trap_instruction,html.Page,1_2_0,2021-04-19T10:33:46.321Z,,,,,,,,,,,,,,,,,,,,,,,,,,,,,,4668,,form submission,,,,,,,,,,,,,,,,,,,,,269984,269983,265299,265296,265315,270016,,,
trap_trial,html.Screen,1_2_1,2021-04-19T10:33:49.087Z,,,,,,,,,,,,,,,,,,,,,,,,,,,true,1,,2907,,response,,,,,,,,,,,1,click #choice-1,,,,,,,,,272750,272906,269999,269984,270016,272794,,,
end of trap trial,html.Page,1_2_2,2021-04-19T10:33:50.624Z,,,,,,,,,,,,,,,,,,,,,,,,,,,,,,1492,,form submission,,,,,,,,,,,,,,,,,,,,,274287,274286,272791,272750,272794,274315,,,
Trap 1,flow.Sequence,1_2,2021-04-19T10:33:50.624Z,,,,,,,,,,,,,,,,,,,,,,,,,,,,,,8971,,completion,,,,,,,,,,,,,,,,,,,,,274287,274286,265299,265296,265315,274315,,,
Standby,html.Page,1_3_0,2021-04-19T10:33:58.635Z,,,,,,,,,,,,,,,,,,,,,,,,,,,,,,7999,,timeout,,,,,,,,,,,,,,,,,,,,,282298,282297,274297,274287,274315,282314,,,
Holding screen,html.Screen,1_3_1_0_0,2021-04-19T10:34:05.641Z,,,,,,,,,,,,,,,,,,,,,,,,,,,,,,7007,,timeout,,,,,,,,,,,,,,,,,,,,,289304.00000000006,289304,282297,282298,282314,289321,,,
screen,html.Screen,1_3_1_0_1_0,2021-04-19T10:34:06.428Z,,,,,,,,,,,,,,,,15,,,,,,,,,,,,,,941,,response,,,,7,F,,,,,,Space,keypress(Space),,,,instrumental,,,,Greg --------- ---------- - --- ------- -- --- ------------<br>----- -- -------- ------- ---- ------ - -------- ---- -----<br>--- ------- ---- -- --- -------- --- - ----- ------ ---- --<br>-------- --- -------- -------- --- -------- ---- -- ----- -<br>-------- ---- --- ---------- --------- -- ------- ------ -<br>--------- ----- -----,290091,290245,289304,289304.00000000006,289321,290126,,0,Greg
screen,html.Screen,1_3_1_0_1_1,2021-04-19T10:34:06.838Z,,,,,,,,,,,,,,,,15,,,,,,,,,,,,,,546,,response,,,,7,F,,,,,,Space,keypress(Space),,,,instrumental,,,,"---- Anderson, ---------- - --- ------- -- --- ------------<br>----- -- -------- ------- ---- ------ - -------- ---- -----<br>--- ------- ---- -- --- -------- --- - ----- ------ ---- --<br>-------- --- -------- -------- --- -------- ---- -- ----- -<br>-------- ---- --- ---------- --------- -- ------- ------ -<br>--------- ----- -----",290501.00000000006,290656,290110,290091,290126,290532,,1,"Anderson,"
screen,html.Screen,1_3_1_0_1_2,2021-04-19T10:34:07.297Z,,,,,,,,,,,,,,,,15,,,,,,,,,,,,,,601,,response,,,,7,F,,,,,,Space,keypress(Space),,,,instrumental,,,,---- --------- considered - --- ------- -- --- ------------<br>----- -- -------- ------- ---- ------ - -------- ---- -----<br>--- ------- ---- -- --- -------- --- - ----- ------ ---- --<br>-------- --- -------- -------- --- -------- ---- -- ----- -<br>-------- ---- --- ---------- --------- -- ------- ------ -<br>--------- ----- -----,290961,291116,290515,290501.00000000006,290532,290991,,2,considered
screen,html.Screen,1_3_1_0_1_3,2021-04-19T10:34:07.742Z,,,,,,,,,,,,,,,,15,,,,,,,,,,,,,,585,,response,,,,7,F,,,,,,Space,keypress(Space),,,,instrumental,,,,---- --------- ---------- a --- ------- -- --- ------------<br>----- -- -------- ------- ---- ------ - -------- ---- -----<br>--- ------- ---- -- --- -------- --- - ----- ------ ---- --<br>-------- --- -------- -------- --- -------- ---- -- ----- -<br>-------- ---- --- ---------- --------- -- ------- ------ -<br>--------- ----- -----,291405.00000000006,291560,290975,290961,290991,291445,,3,a
screen,html.Screen,1_3_1_0_1_4,2021-04-19T10:34:08.129Z,,,,,,,,,,,,,,,,15,,,,,,,,,,,,,,518,,response,,,,7,F,,,,,,Space,keypress(Space),,,,instrumental,,,,---- --------- ---------- - key ------- -- --- ------------<br>----- -- -------- ------- ---- ------ - -------- ---- -----<br>--- ------- ---- -- --- -------- --- - ----- ------ ---- --<br>-------- --- -------- -------- --- -------- ---- -- ----- -<br>-------- ---- --- ---------- --------- -- ------- ------ -<br>--------- ----- -----,291792.00000000006,291946,291428,291405.00000000006,291445,291817,,4,key
screen,html.Screen,1_3_1_0_1_5,2021-04-19T10:34:08.595Z,,,,,,,,,,,,,,,,15,,,,,,,,,,,,,,613,,response,,,,7,F,,,,,,Space,keypress(Space),,,,instrumental,,,,---- --------- ---------- - --- witness -- --- ------------<br>----- -- -------- ------- ---- ------ - -------- ---- -----<br>--- ------- ---- -- --- -------- --- - ----- ------ ---- --<br>-------- --- -------- -------- --- -------- ---- -- ----- -<br>-------- ---- --- ---------- --------- -- ------- ------ -<br>--------- ----- -----,292259,292414,291801,291792.00000000006,291817,292289,,5,witness
screen,html.Screen,1_3_1_0_1_6,2021-04-19T10:34:09.074Z,,,,,,,,,,,,,,,,15,,,,,,,,,,,,,,620,,response,,,,7,F,,,,,,Space,keypress(Space),,,,instrumental,,,,---- --------- ---------- - --- ------- by --- ------------<br>----- -- -------- ------- ---- ------ - -------- ---- -----<br>--- ------- ---- -- --- -------- --- - ----- ------ ---- --<br>-------- --- -------- -------- --- -------- ---- -- ----- -<br>-------- ---- --- ---------- --------- -- ------- ------ -<br>--------- ----- -----,292737,292892,292272,292259,292289,292777,,6,by
screen,html.Screen,1_3_1_0_1_7,2021-04-19T10:34:09.456Z,,,,,,,,,,,,,,,,15,,,,,,,,,,,,,,515.0000000000582,,response,,,,7,F,,,,,,Space,keypress(Space),,,,instrumental,,,,---- --------- ---------- - --- ------- -- the ------------<br>----- -- -------- ------- ---- ------ - -------- ---- -----<br>--- ------- ---- -- --- -------- --- - ----- ------ ---- --<br>-------- --- -------- -------- --- -------- ---- -- ----- -<br>-------- ---- --- ---------- --------- -- ------- ------ -<br>--------- ----- -----,293120,293275.00000000006,292760,292737,292777,293148,,7,the
screen,html.Screen,1_3_1_0_1_8,2021-04-19T10:34:09.891Z,,,,,,,,,,,,,,,,15,,,,,,,,,,,,,,578,,response,,,,7,F,,,,,,Space,keypress(Space),,,,instrumental,,,,"---- --------- ---------- - --- ------- -- --- prosecution,<br>----- -- -------- ------- ---- ------ - -------- ---- -----<br>--- ------- ---- -- --- -------- --- - ----- ------ ---- --<br>-------- --- -------- -------- --- -------- ---- -- ----- -<br>-------- ---- --- ---------- --------- -- ------- ------ -<br>--------- ----- -----",293554.00000000006,293709,293131,293120,293148,293586,,8,"prosecution,"
screen,html.Screen,1_3_1_0_1_9,2021-04-19T10:34:10.466Z,,,,,,,,,,,,,,,,15,,,,,,,,,,,,,,715,,response,,,,7,F,,,,,,Space,keypress(Space),,,,instrumental,,,,---- --------- ---------- - --- ------- -- --- ------------<br>vowed -- -------- ------- ---- ------ - -------- ---- -----<br>--- ------- ---- -- --- -------- --- - ----- ------ ---- --<br>-------- --- -------- -------- --- -------- ---- -- ----- -<br>-------- ---- --- ---------- --------- -- ------- ------ -<br>--------- ----- -----,294129,294284,293569,293554.00000000006,293586,294158,,9,vowed
screen,html.Screen,1_3_1_0_1_10,2021-04-19T10:34:10.928Z,,,,,,,,,,,,,,,,15,,,,,,,,,,,,,,607,,response,,,,7,F,,,,,,Space,keypress(Space),,,,instrumental,,,,---- --------- ---------- - --- ------- -- --- ------------<br>----- he -------- ------- ---- ------ - -------- ---- -----<br>--- ------- ---- -- --- -------- --- - ----- ------ ---- --<br>-------- --- -------- -------- --- -------- ---- -- ----- -<br>-------- ---- --- ---------- --------- -- ------- ------ -<br>--------- ----- -----,294592,294747,294140,294130,294158,294629,,10,he
screen,html.Screen,1_3_1_0_1_11,2021-04-19T10:34:11.472Z,,,,,,,,,,,,,,,,15,,,,,,,,,,,,,,677,,response,,,,7,F,,,,,,Space,keypress(Space),,,,instrumental,,,,---- --------- ---------- - --- ------- -- --- ------------<br>----- -- wouldn't ------- ---- ------ - -------- ---- -----<br>--- ------- ---- -- --- -------- --- - ----- ------ ---- --<br>-------- --- -------- -------- --- -------- ---- -- ----- -<br>-------- ---- --- ---------- --------- -- ------- ------ -<br>--------- ----- -----,295136,295291,294614,294592,294629,295169,,11,wouldn't
screen,html.Screen,1_3_1_0_1_12,2021-04-19T10:34:11.970Z,,,,,,,,,,,,,,,,15,,,,,,,,,,,,,,637,,response,,,,7,F,,,,,,Space,keypress(Space),,,,instrumental,,,,---- --------- ---------- - --- ------- -- --- ------------<br>----- -- -------- testify ---- ------ - -------- ---- -----<br>--- ------- ---- -- --- -------- --- - ----- ------ ---- --<br>-------- --- -------- -------- --- -------- ---- -- ----- -<br>-------- ---- --- ---------- --------- -- ------- ------ -<br>--------- ----- -----,295634,295789,295152,295136,295169,295675,,12,testify
screen,html.Screen,1_3_1_0_1_13,2021-04-19T10:34:12.361Z,,,,,,,,,,,,,,,,15,,,,,,,,,,,,,,523,,response,,,,7,F,,,,,,Space,keypress(Space),,,,instrumental,,,,---- --------- ---------- - --- ------- -- --- ------------<br>----- -- -------- ------- when ------ - -------- ---- -----<br>--- ------- ---- -- --- -------- --- - ----- ------ ---- --<br>-------- --- -------- -------- --- -------- ---- -- ----- -<br>-------- ---- --- ---------- --------- -- ------- ------ -<br>--------- ----- -----,296025.00000000006,296180,295657,295634,295675,296046,,13,when
screen,html.Screen,1_3_1_0_1_14,2021-04-19T10:34:12.775Z,,,,,,,,,,,,,,,,15,,,,,,,,,,,,,,563,,response,,,,7,F,,,,,,Space,keypress(Space),,,,instrumental,,,,---- --------- ---------- - --- ------- -- --- ------------<br>----- -- -------- ------- ---- served - -------- ---- -----<br>--- ------- ---- -- --- -------- --- - ----- ------ ---- --<br>-------- --- -------- -------- --- -------- ---- -- ----- -<br>-------- ---- --- ---------- --------- -- ------- ------ -<br>--------- ----- -----,296438,296593,296030,296025.00000000006,296046,296468,,14,served
screen,html.Screen,1_3_1_0_1_15,2021-04-19T10:34:13.232Z,,,,,,,,,,,,,,,,15,,,,,,,,,,,,,,584,,response,,,,7,F,,,,,,Space,keypress(Space),,,,instrumental,,,,---- --------- ---------- - --- ------- -- --- ------------<br>----- -- -------- ------- ---- ------ a -------- ---- -----<br>--- ------- ---- -- --- -------- --- - ----- ------ ---- --<br>-------- --- -------- -------- --- -------- ---- -- ----- -<br>-------- ---- --- ---------- --------- -- ------- ------ -<br>--------- ----- -----,296895,297035,296451,296438,296468,296923,,15,a
screen,html.Screen,1_3_1_0_1_16,2021-04-19T10:34:13.703Z,,,,,,,,,,,,,,,,15,,,,,,,,,,,,,,617,,response,,,,7,F,,,,,,Space,keypress(Space),,,,instrumental,,,,---- --------- ---------- - --- ------- -- --- ------------<br>----- -- -------- ------- ---- ------ - subpoena ---- -----<br>--- ------- ---- -- --- -------- --- - ----- ------ ---- --<br>-------- --- -------- -------- --- -------- ---- -- ----- -<br>-------- ---- --- ---------- --------- -- ------- ------ -<br>--------- ----- -----,297367,297522,296905,296896,296923,297393,,16,subpoena
screen,html.Screen,1_3_1_0_1_17,2021-04-19T10:34:14.167Z,,,,,,,,,,,,,,,,15,,,,,,,,,,,,,,609,,response,,,,7,F,,,,,,Space,keypress(Space),,,,instrumental,,,,---- --------- ---------- - --- ------- -- --- ------------<br>----- -- -------- ------- ---- ------ - -------- last -----<br>--- ------- ---- -- --- -------- --- - ----- ------ ---- --<br>-------- --- -------- -------- --- -------- ---- -- ----- -<br>-------- ---- --- ---------- --------- -- ------- ------ -<br>--------- ----- -----,297831,297986,297377,297367,297393,297865,,17,last
screen,html.Screen,1_3_1_0_1_18,2021-04-19T10:34:14.615Z,,,,,,,,,,,,,,,,15,,,,,,,,,,,,,,585,,response,,,,7,F,,,,,,Space,keypress(Space),,,,instrumental,,,,---- --------- ---------- - --- ------- -- --- ------------<br>----- -- -------- ------- ---- ------ - -------- ---- week.<br>--- ------- ---- -- --- -------- --- - ----- ------ ---- --<br>-------- --- -------- -------- --- -------- ---- -- ----- -<br>-------- ---- --- ---------- --------- -- ------- ------ -<br>--------- ----- -----,298279,298434,297849,297831,297865,298319,,18,week.
screen,html.Screen,1_3_1_0_1_19,2021-04-19T10:34:15.079Z,,,,,,,,,,,,,,,,15,,,,,,,,,,,,,,594,,response,,,,7,F,,,,,,Space,keypress(Space),,,,instrumental,,,,---- --------- ---------- - --- ------- -- --- ------------<br>----- -- -------- ------- ---- ------ - -------- ---- -----<br>His ------- ---- -- --- -------- --- - ----- ------ ---- --<br>-------- --- -------- -------- --- -------- ---- -- ----- -<br>-------- ---- --- ---------- --------- -- ------- ------ -<br>--------- ----- -----,298742,298897,298303,298279,298319,298775,,19,His
screen,html.Screen,1_3_1_0_1_20,2021-04-19T10:34:15.531Z,,,,,,,,,,,,,,,,15,,,,,,,,,,,,,,592,,response,,,,7,F,,,,,,Space,keypress(Space),,,,instrumental,,,,---- --------- ---------- - --- ------- -- --- ------------<br>----- -- -------- ------- ---- ------ - -------- ---- -----<br>--- lawyers ---- -- --- -------- --- - ----- ------ ---- --<br>-------- --- -------- -------- --- -------- ---- -- ----- -<br>-------- ---- --- ---------- --------- -- ------- ------ -<br>--------- ----- -----,299194,299350,298758,298743,298775,299230,,20,lawyers
screen,html.Screen,1_3_1_0_1_21,2021-04-19T10:34:15.996Z,,,,,,,,,,,,,,,,15,,,,,,,,,,,,,,601,,response,,,,7,F,,,,,,Space,keypress(Space),,,,instrumental,,,,---- --------- ---------- - --- ------- -- --- ------------<br>----- -- -------- ------- ---- ------ - -------- ---- -----<br>--- ------- said -- --- -------- --- - ----- ------ ---- --<br>-------- --- -------- -------- --- -------- ---- -- ----- -<br>-------- ---- --- ---------- --------- -- ------- ------ -<br>--------- ----- -----,299660,299815,299214,299194,299230,299702,,21,said
screen,html.Screen,1_3_1_0_1_22,2021-04-19T10:34:16.447Z,,,,,,,,,,,,,,,,15,,,,,,,,,,,,,,581,,response,,,,7,F,,,,,,Space,keypress(Space),,,,instrumental,,,,---- --------- ---------- - --- ------- -- --- ------------<br>----- -- -------- ------- ---- ------ - -------- ---- -----<br>--- ------- ---- he --- -------- --- - ----- ------ ---- --<br>-------- --- -------- -------- --- -------- ---- -- ----- -<br>-------- ---- --- ---------- --------- -- ------- ------ -<br>--------- ----- -----,300111,300266,299685,299660,299702,300140,,22,he
screen,html.Screen,1_3_1_0_1_23,2021-04-19T10:34:16.844Z,,,,,,,,,,,,,,,,15,,,,,,,,,,,,,,539,,response,,,,7,F,,,,,,Space,keypress(Space),,,,instrumental,,,,---- --------- ---------- - --- ------- -- --- ------------<br>----- -- -------- ------- ---- ------ - -------- ---- -----<br>--- ------- ---- -- was -------- --- - ----- ------ ---- --<br>-------- --- -------- -------- --- -------- ---- -- ----- -<br>-------- ---- --- ---------- --------- -- ------- ------ -<br>--------- ----- -----,300508,300663,300124,300111,300140,300529,,23,was
screen,html.Screen,1_3_1_0_1_24,2021-04-19T10:34:17.362Z,,,,,,,,,,,,,,,,15,,,,,,,,,,,,,,671,,response,,,,7,F,,,,,,Space,keypress(Space),,,,instrumental,,,,---- --------- ---------- - --- ------- -- --- ------------<br>----- -- -------- ------- ---- ------ - -------- ---- -----<br>--- ------- ---- -- --- prepared --- - ----- ------ ---- --<br>-------- --- -------- -------- --- -------- ---- -- ----- -<br>-------- ---- --- ---------- --------- -- ------- ------ -<br>--------- ----- -----,301026,301182,300511,300508,300529,301067,,24,prepared
screen,html.Screen,1_3_1_0_1_25,2021-04-19T10:34:17.815Z,,,,,,,,,,,,,,,,15,,,,,,,,,,,,,,584,,response,,,,7,F,,,,,,Space,keypress(Space),,,,instrumental,,,,---- --------- ---------- - --- ------- -- --- ------------<br>----- -- -------- ------- ---- ------ - -------- ---- -----<br>--- ------- ---- -- --- -------- for - ----- ------ ---- --<br>-------- --- -------- -------- --- -------- ---- -- ----- -<br>-------- ---- --- ---------- --------- -- ------- ------ -<br>--------- ----- -----,301479,301633,301049,301026,301067,301521,,25,for
screen,html.Screen,1_3_1_0_1_26,2021-04-19T10:34:18.248Z,,,,,,,,,,,,,,,,15,,,,,,,,,,,,,,553,,response,,,,7,F,,,,,,Space,keypress(Space),,,,instrumental,,,,---- --------- ---------- - --- ------- -- --- ------------<br>----- -- -------- ------- ---- ------ - -------- ---- -----<br>--- ------- ---- -- --- -------- --- a ----- ------ ---- --<br>-------- --- -------- -------- --- -------- ---- -- ----- -<br>-------- ---- --- ---------- --------- -- ------- ------ -<br>--------- ----- -----,301912.00000000006,302058,301505,301479,301521,301943,,26,a
screen,html.Screen,1_3_1_0_1_27,2021-04-19T10:34:18.731Z,,,,,,,,,,,,,,,,15,,,,,,,,,,,,,,624,,response,,,,7,F,,,,,,Space,keypress(Space),,,,instrumental,,,,---- --------- ---------- - --- ------- -- --- ------------<br>----- -- -------- ------- ---- ------ - -------- ---- -----<br>--- ------- ---- -- --- -------- --- - third ------ ---- --<br>-------- --- -------- -------- --- -------- ---- -- ----- -<br>-------- ---- --- ---------- --------- -- ------- ------ -<br>--------- ----- -----,302395,302550,301926,301912.00000000006,301943,302430,,27,third
screen,html.Screen,1_3_1_0_1_28,2021-04-19T10:34:19.179Z,,,,,,,,,,,,,,,,15,,,,,,,,,,,,,,583,,response,,,,7,F,,,,,,Space,keypress(Space),,,,instrumental,,,,---- --------- ---------- - --- ------- -- --- ------------<br>----- -- -------- ------- ---- ------ - -------- ---- -----<br>--- ------- ---- -- --- -------- --- - ----- prison ---- --<br>-------- --- -------- -------- --- -------- ---- -- ----- -<br>-------- ---- --- ---------- --------- -- ------- ------ -<br>--------- ----- -----,302843,302998,302415,302395,302430,302885,,28,prison
screen,html.Screen,1_3_1_0_1_29,2021-04-19T10:34:19.654Z,,,,,,,,,,,,,,,,15,,,,,,,,,,,,,,605,,response,,,,7,F,,,,,,Space,keypress(Space),,,,instrumental,,,,---- --------- ---------- - --- ------- -- --- ------------<br>----- -- -------- ------- ---- ------ - -------- ---- -----<br>--- ------- ---- -- --- -------- --- - ----- ------ stay --<br>-------- --- -------- -------- --- -------- ---- -- ----- -<br>-------- ---- --- ---------- --------- -- ------- ------ -<br>--------- ----- -----,303318,303473,302868,302843,302885,303352,,29,stay
screen,html.Screen,1_3_1_0_1_30,2021-04-19T10:34:20.142Z,,,,,,,,,,,,,,,,15,,,,,,,,,,,,,,626,,response,,,,7,F,,,,,,Space,keypress(Space),,,,instrumental,,,,---- --------- ---------- - --- ------- -- --- ------------<br>----- -- -------- ------- ---- ------ - -------- ---- -----<br>--- ------- ---- -- --- -------- --- - ----- ------ ---- to<br>-------- --- -------- -------- --- -------- ---- -- ----- -<br>-------- ---- --- ---------- --------- -- ------- ------ -<br>--------- ----- -----,303806,303961,303335,303318,303352,303840,,30,to
screen,html.Screen,1_3_1_0_1_31,2021-04-19T10:34:20.696Z,,,,,,,,,,,,,,,,15,,,,,,,,,,,,,,693,,response,,,,7,F,,,,,,Space,keypress(Space),,,,instrumental,,,,---- --------- ---------- - --- ------- -- --- ------------<br>----- -- -------- ------- ---- ------ - -------- ---- -----<br>--- ------- ---- -- --- -------- --- - ----- ------ ---- --<br>maintain --- -------- -------- --- -------- ---- -- ----- -<br>-------- ---- --- ---------- --------- -- ------- ------ -<br>--------- ----- -----,304360,304516,303823,303806,303840,304394,,31,maintain
screen,html.Screen,1_3_1_0_1_32,2021-04-19T10:34:21.083Z,,,,,,,,,,,,,,,,15,,,,,,,,,,,,,,524,,response,,,,7,F,,,,,,Space,keypress(Space),,,,instrumental,,,,---- --------- ---------- - --- ------- -- --- ------------<br>----- -- -------- ------- ---- ------ - -------- ---- -----<br>--- ------- ---- -- --- -------- --- - ----- ------ ---- --<br>-------- his -------- -------- --- -------- ---- -- ----- -<br>-------- ---- --- ---------- --------- -- ------- ------ -<br>--------- ----- -----,304747,304903,304379,304360,304394,304766,,32,his
screen,html.Screen,1_3_1_0_1_33,2021-04-19T10:34:21.613Z,,,,,,,,,,,,,,,,15,,,,,,,,,,,,,,683,,response,,,,7,F,,,,,,Space,keypress(Space),,,,instrumental,,,,---- --------- ---------- - --- ------- -- --- ------------<br>----- -- -------- ------- ---- ------ - -------- ---- -----<br>--- ------- ---- -- --- -------- --- - ----- ------ ---- --<br>-------- --- silence. -------- --- -------- ---- -- ----- -<br>-------- ---- --- ---------- --------- -- ------- ------ -<br>--------- ----- -----,305277,305433,304750,304748,304766,305305,,33,silence.
screen,html.Screen,1_3_1_0_1_34,2021-04-19T10:34:22.106Z,,,,,,,,,,,,,,,,15,,,,,,,,,,,,,,636,,response,,,,7,F,,,,,,Space,keypress(Space),,,,instrumental,,,,---- --------- ---------- - --- ------- -- --- ------------<br>----- -- -------- ------- ---- ------ - -------- ---- -----<br>--- ------- ---- -- --- -------- --- - ----- ------ ---- --<br>-------- --- -------- Anderson --- -------- ---- -- ----- -<br>-------- ---- --- ---------- --------- -- ------- ------ -<br>--------- ----- -----,305770,305925,305289,305277,305305,305809,,34,Anderson
screen,html.Screen,1_3_1_0_1_35,2021-04-19T10:34:22.549Z,,,,,,,,,,,,,,,,15,,,,,,,,,,,,,,575,,response,,,,7,F,,,,,,Space,keypress(Space),,,,instrumental,,,,---- --------- ---------- - --- ------- -- --- ------------<br>----- -- -------- ------- ---- ------ - -------- ---- -----<br>--- ------- ---- -- --- -------- --- - ----- ------ ---- --<br>-------- --- -------- -------- was -------- ---- -- ----- -<br>-------- ---- --- ---------- --------- -- ------- ------ -<br>--------- ----- -----,306213,306368,305793,305770,305809,306248,,35,was
screen,html.Screen,1_3_1_0_1_36,2021-04-19T10:34:23.129Z,,,,,,,,,,,,,,,,15,,,,,,,,,,,,,,716,,response,,,,7,F,,,,,,Space,keypress(Space),,,,instrumental,,,,---- --------- ---------- - --- ------- -- --- ------------<br>----- -- -------- ------- ---- ------ - -------- ---- -----<br>--- ------- ---- -- --- -------- --- - ----- ------ ---- --<br>-------- --- -------- -------- --- released ---- -- ----- -<br>-------- ---- --- ---------- --------- -- ------- ------ -<br>--------- ----- -----,306793,306948,306232,306213,306248,306821,,36,released
screen,html.Screen,1_3_1_0_1_37,2021-04-19T10:34:23.594Z,,,,,,,,,,,,,,,,15,,,,,,,,,,,,,,610,,response,,,,7,F,,,,,,Space,keypress(Space),,,,instrumental,,,,---- --------- ---------- - --- ------- -- --- ------------<br>----- -- -------- ------- ---- ------ - -------- ---- -----<br>--- ------- ---- -- --- -------- --- - ----- ------ ---- --<br>-------- --- -------- -------- --- -------- July -- ----- -<br>-------- ---- --- ---------- --------- -- ------- ------ -<br>--------- ----- -----,307258,307414,306804,306793,306821,307292,,37,July
screen,html.Screen,1_3_1_0_1_38,2021-04-19T10:34:24.045Z,,,,,,,,,,,,,,,,15,,,,,,,,,,,,,,589,,response,,,,7,F,,,,,,Space,keypress(Space),,,,instrumental,,,,---- --------- ---------- - --- ------- -- --- ------------<br>----- -- -------- ------- ---- ------ - -------- ---- -----<br>--- ------- ---- -- --- -------- --- - ----- ------ ---- --<br>-------- --- -------- -------- --- -------- ---- 20 ----- -<br>-------- ---- --- ---------- --------- -- ------- ------ -<br>--------- ----- -----,307709,307865,307276,307258,307292,307747,,38,20
screen,html.Screen,1_3_1_0_1_39,2021-04-19T10:34:24.540Z,,,,,,,,,,,,,,,,15,,,,,,,,,,,,,,629,,response,,,,7,F,,,,,,Space,keypress(Space),,,,instrumental,,,,---- --------- ---------- - --- ------- -- --- ------------<br>----- -- -------- ------- ---- ------ - -------- ---- -----<br>--- ------- ---- -- --- -------- --- - ----- ------ ---- --<br>-------- --- -------- -------- --- -------- ---- -- after -<br>-------- ---- --- ---------- --------- -- ------- ------ -<br>--------- ----- -----,308204,308359,307730,307709,307747,308236,,39,after
screen,html.Screen,1_3_1_0_1_40,2021-04-19T10:34:25.132Z,,,,,,,,,,,,,,,,15,,,,,,,,,,,,,,732,,response,,,,7,F,,,,,,Space,keypress(Space),,,,instrumental,,,,---- --------- ---------- - --- ------- -- --- ------------<br>----- -- -------- ------- ---- ------ - -------- ---- -----<br>--- ------- ---- -- --- -------- --- - ----- ------ ---- --<br>-------- --- -------- -------- --- -------- ---- -- ----- a<br>-------- ---- --- ---------- --------- -- ------- ------ -<br>--------- ----- -----,308796,308951,308219,308204,308236,308824,,40,a
screen,html.Screen,1_3_1_0_1_41,2021-04-19T10:34:25.755Z,,,,,,,,,,,,,,,,15,,,,,,,,,,,,,,768,,response,,,,7,F,,,,,,Space,keypress(Space),,,,instrumental,,,,---- --------- ---------- - --- ------- -- --- ------------<br>----- -- -------- ------- ---- ------ - -------- ---- -----<br>--- ------- ---- -- --- -------- --- - ----- ------ ---- --<br>-------- --- -------- -------- --- -------- ---- -- ----- -<br>two-week ---- --- ---------- --------- -- ------- ------ -<br>--------- ----- -----,309419,309575,308807,308796,308824,309447,,41,two-week
screen,html.Screen,1_3_1_0_1_42,2021-04-19T10:34:26.277Z,,,,,,,,,,,,,,,,15,,,,,,,,,,,,,,667,,response,,,,7,F,,,,,,Space,keypress(Space),,,,instrumental,,,,---- --------- ---------- - --- ------- -- --- ------------<br>----- -- -------- ------- ---- ------ - -------- ---- -----<br>--- ------- ---- -- --- -------- --- - ----- ------ ---- --<br>-------- --- -------- -------- --- -------- ---- -- ----- -<br>-------- stay --- ---------- --------- -- ------- ------ -<br>--------- ----- -----,309941.00000000006,310097,309430,309420,309447,309969,,42,stay
screen,html.Screen,1_3_1_0_1_43,2021-04-19T10:34:27.076Z,,,,,,,,,,,,,,,,15,,,,,,,,,,,,,,944,,response,,,,7,F,,,,,,Space,keypress(Space),,,,instrumental,,,,---- --------- ---------- - --- ------- -- --- ------------<br>----- -- -------- ------- ---- ------ - -------- ---- -----<br>--- ------- ---- -- --- -------- --- - ----- ------ ---- --<br>-------- --- -------- -------- --- -------- ---- -- ----- -<br>-------- ---- for ---------- --------- -- ------- ------ -<br>--------- ----- -----,310740,310896,309952,309941.00000000006,309969,310774,,43,for
screen,html.Screen,1_3_1_0_1_44,2021-04-19T10:34:27.542Z,,,,,,,,,,,,,,,,15,,,,,,,,,,,,,,603,,response,,,,7,F,,,,,,Space,keypress(Space),,,,instrumental,,,,---- --------- ---------- - --- ------- -- --- ------------<br>----- -- -------- ------- ---- ------ - -------- ---- -----<br>--- ------- ---- -- --- -------- --- - ----- ------ ---- --<br>-------- --- -------- -------- --- -------- ---- -- ----- -<br>-------- ---- --- previously --------- -- ------- ------ -<br>--------- ----- -----,311206,311361,310758,310740,310774,311246,,44,previously
screen,html.Screen,1_3_1_0_1_45,2021-04-19T10:34:28.103Z,,,,,,,,,,,,,,,,15,,,,,,,,,,,,,,693,,response,,,,7,F,,,,,,Space,keypress(Space),,,,instrumental,,,,---- --------- ---------- - --- ------- -- --- ------------<br>----- -- -------- ------- ---- ------ - -------- ---- -----<br>--- ------- ---- -- --- -------- --- - ----- ------ ---- --<br>-------- --- -------- -------- --- -------- ---- -- ----- -<br>-------- ---- --- ---------- declining -- ------- ------ -<br>--------- ----- -----,311767,311923,311230,311206,311246,311803,,45,declining
screen,html.Screen,1_3_1_0_1_46,2021-04-19T10:34:28.549Z,,,,,,,,,,,,,,,,15,,,,,,,,,,,,,,583,,response,,,,7,F,,,,,,Space,keypress(Space),,,,instrumental,,,,---- --------- ---------- - --- ------- -- --- ------------<br>----- -- -------- ------- ---- ------ - -------- ---- -----<br>--- ------- ---- -- --- -------- --- - ----- ------ ---- --<br>-------- --- -------- -------- --- -------- ---- -- ----- -<br>-------- ---- --- ---------- --------- to ------- ------ -<br>--------- ----- -----,312213,312369,311786,311768,311803,312240,,46,to
screen,html.Screen,1_3_1_0_1_47,2021-04-19T10:34:29.010Z,,,,,,,,,,,,,,,,15,,,,,,,,,,,,,,606,,response,,,,7,F,,,,,,Space,keypress(Space),,,,instrumental,,,,---- --------- ---------- - --- ------- -- --- ------------<br>----- -- -------- ------- ---- ------ - -------- ---- -----<br>--- ------- ---- -- --- -------- --- - ----- ------ ---- --<br>-------- --- -------- -------- --- -------- ---- -- ----- -<br>-------- ---- --- ---------- --------- -- testify ------ -<br>--------- ----- -----,312674,312830,312224,312213,312240,312711,,47,testify
screen,html.Screen,1_3_1_0_1_48,2021-04-19T10:34:29.462Z,,,,,,,,,,,,,,,,15,,,,,,,,,,,,,,587,,response,,,,7,F,,,,,,Space,keypress(Space),,,,instrumental,,,,---- --------- ---------- - --- ------- -- --- ------------<br>----- -- -------- ------- ---- ------ - -------- ---- -----<br>--- ------- ---- -- --- -------- --- - ----- ------ ---- --<br>-------- --- -------- -------- --- -------- ---- -- ----- -<br>-------- ---- --- ---------- --------- -- ------- before -<br>--------- ----- -----,313126.00000000006,313281,312694,312674,312711,313167,,48,before
screen,html.Screen,1_3_1_0_1_49,2021-04-19T10:34:29.924Z,,,,,,,,,,,,,,,,15,,,,,,,,,,,,,,594,,response,,,,7,F,,,,,,Space,keypress(Space),,,,instrumental,,,,---- --------- ---------- - --- ------- -- --- ------------<br>----- -- -------- ------- ---- ------ - -------- ---- -----<br>--- ------- ---- -- --- -------- --- - ----- ------ ---- --<br>-------- --- -------- -------- --- -------- ---- -- ----- -<br>-------- ---- --- ---------- --------- -- ------- ------ a<br>--------- ----- -----,313588,313744,313150,313126.00000000006,313167,313622,,49,a
screen,html.Screen,1_3_1_0_1_50,2021-04-19T10:34:30.416Z,,,,,,,,,,,,,,,,15,,,,,,,,,,,,,,631,,response,,,,7,F,,,,,,Space,keypress(Space),,,,instrumental,,,,---- --------- ---------- - --- ------- -- --- ------------<br>----- -- -------- ------- ---- ------ - -------- ---- -----<br>--- ------- ---- -- --- -------- --- - ----- ------ ---- --<br>-------- --- -------- -------- --- -------- ---- -- ----- -<br>-------- ---- --- ---------- --------- -- ------- ------ -<br>different ----- -----,314080,314236,313605,313588,313622,314110,,50,different
screen,html.Screen,1_3_1_0_1_51,2021-04-19T10:34:30.847Z,,,,,,,,,,,,,,,,15,,,,,,,,,,,,,,574.0000000000582,,response,,,,7,F,,,,,,Space,keypress(Space),,,,instrumental,,,,---- --------- ---------- - --- ------- -- --- ------------<br>----- -- -------- ------- ---- ------ - -------- ---- -----<br>--- ------- ---- -- --- -------- --- - ----- ------ ---- --<br>-------- --- -------- -------- --- -------- ---- -- ----- -<br>-------- ---- --- ---------- --------- -- ------- ------ -<br>--------- grand -----,314511,314667.00000000006,314093,314080,314110,314548,,51,grand
screen,html.Screen,1_3_1_0_1_52,2021-04-19T10:34:31.332Z,,,,,,,,,,,,,,,,15,,,,,,,,,,,,,,621,,response,,,,7,F,,,,,,Space,keypress(Space),,,,instrumental,,,,---- --------- ---------- - --- ------- -- --- ------------<br>----- -- -------- ------- ---- ------ - -------- ---- -----<br>--- ------- ---- -- --- -------- --- - ----- ------ ---- --<br>-------- --- -------- -------- --- -------- ---- -- ----- -<br>-------- ---- --- ---------- --------- -- ------- ------ -<br>--------- ----- jury.,314996,315152,314531,314511,314548,315036,,52,jury.
Item 7,flow.Loop,1_3_1_0_1,2021-04-19T10:34:31.332Z,,,,,,,,,,,,,,,,,,,,,,,,,,,,,,25831,,completion,,,,,,,,,,,,,,,,,,,,,314996,315152,289304,289304.00000000006,289321,315036,,,
Question 1,html.Screen,1_3_1_0_2,2021-04-19T10:34:33.777Z,,,,,,,,,,,,,,,,,,,,,,,,,,,true,FALSE,,2581,,response,,,,7,F,,,,,,FALSE,click #choice-2,,,,instrumental,,,,,317441.00000000006,317599,315018,314996,315036,317468,,,
Question 2,html.Screen,1_3_1_0_3,2021-04-19T10:34:36.812Z,,,,,,,,,,,,,,,,,,,,,,,,,,,true,TRUE,,3182,,response,,,,7,F,,,,,,TRUE,click #choice-1,,,,instrumental,,,,,320477.00000000006,320634,317452,317442,317468,320513,,,
Item 7,flow.Sequence,1_3_1_0,2021-04-19T10:34:36.812Z,,,,,,,,,,,,,,,,,,,,,,,,,,,,,,38320,,completion,,,,,,,,,,,,,,,,,,,,,320477.00000000006,320634,282297,282298,282314,320513,,,
Holding screen,html.Screen,1_3_1_1_0,2021-04-19T10:34:43.832Z,,,,,,,,,,,,,,,,,,,,,,,,,,,,,,7001,,timeout,,,,,,,,,,,,,,,,,,,,,327497,327497,320492,320477.00000000006,320513,327514,,,
screen,html.Screen,1_3_1_1_1_0,2021-04-19T10:34:44.635Z,,,,,,,,,,,,,,,,51,,,,,,,,,,,,,,959,,response,,,,13,F,,,,,,Space,keypress(Space),,,,instrumental,,,,American -------- --- --- ---- --- --- ------ -- --------<br>---- --------- --- ------- ------------ ---------- ---------<br>--- ---------- ------- ---------- ------- -- -------- ----<br>---- --- ------ ----- ------ -- ---- --- ----- -- - -------<br>-------- -- --- --- -- ----- ----------- ----- -----------<br>---- --- ---------- --- ---- --- -- ----------,328300,328456,327497,327497,327514,328337,,0,American
screen,html.Screen,1_3_1_1_1_1,2021-04-19T10:34:45.129Z,,,,,,,,,,,,,,,,51,,,,,,,,,,,,,,630,,response,,,,13,F,,,,,,Space,keypress(Space),,,,instrumental,,,,-------- industry --- --- ---- --- --- ------ -- --------<br>---- --------- --- ------- ------------ ---------- ---------<br>--- ---------- ------- ---------- ------- -- -------- ----<br>---- --- ------ ----- ------ -- ---- --- ----- -- - -------<br>-------- -- --- --- -- ----- ----------- ----- -----------<br>---- --- ---------- --- ---- --- -- ----------,328794,328950,328320,328300,328337,328825,,1,industry
screen,html.Screen,1_3_1_1_1_2,2021-04-19T10:34:45.646Z,,,,,,,,,,,,,,,,51,,,,,,,,,,,,,,659,,response,,,,13,F,,,,,,Space,keypress(Space),,,,instrumental,,,,-------- -------- may --- ---- --- --- ------ -- --------<br>---- --------- --- ------- ------------ ---------- ---------<br>--- ---------- ------- ---------- ------- -- -------- ----<br>---- --- ------ ----- ------ -- ---- --- ----- -- - -------<br>-------- -- --- --- -- ----- ----------- ----- -----------<br>---- --- ---------- --- ---- --- -- ----------,329311,329468,328809,328794,328825,329347,,2,may
screen,html.Screen,1_3_1_1_1_3,2021-04-19T10:34:46.098Z,,,,,,,,,,,,,,,,51,,,,,,,,,,,,,,589,,response,,,,13,F,,,,,,Space,keypress(Space),,,,instrumental,,,,-------- -------- --- not ---- --- --- ------ -- --------<br>---- --------- --- ------- ------------ ---------- ---------<br>--- ---------- ------- ---------- ------- -- -------- ----<br>---- --- ------ ----- ------ -- ---- --- ----- -- - -------<br>-------- -- --- --- -- ----- ----------- ----- -----------<br>---- --- ---------- --- ---- --- -- ----------,329763.00000000006,329920,329331,329311,329347,329803,,3,not
