sender,sender_type,sender_id,timestamp,meta,,Blues,Classical,Country,Dance,Electronic,Folk,Gospel,Hip-Hop,Jazz,Latin,Musical/Film,New-age,Pop,Provo_ID,R&B,Rap,Reggae,Religious,Rock,Soul,Swing,Traditional,age,artist_name,correct,correctResponse,distraction,duration,education,ended_on,familiarity,gender,headphone_check_performance,item,list,music_frequency,offensiveness,pleasantness,position_correct,preference,response,response_action,snippet_file,song_name,song_rating,sound,stimulus_1,stimulus_2,stimulus_3,text,time_commit,time_end,time_render,time_run,time_show,time_switch,url,word,word_ID
Introduction,html.Screen,0_0,2021-04-22T07:24:36.161Z,"{""labjs_version"":""20.2.2"",""labjs_build"":{""flavor"":""production"",""commit"":""a25486e0c714a0ae2ce03ff94b7bb6896854dcfa""},""location"":""https://run.pavlovia.org/mvasilev/music_d/"",""userAgent"":""Mozilla/5.0 (Windows NT 10.0; Win64; x64) AppleWebKit/537.36 (KHTML, like Gecko) Chrome/90.0.4430.72 Safari/537.36 Edg/90.0.818.42"",""platform"":""Win32"",""language"":""en-GB"",""locale"":""en-GB"",""timeZone"":""Europe/London"",""timezoneOffset"":-60,""screen_width"":1536,""screen_height"":864,""scroll_width"":1536,""scroll_height"":706,""window_innerWidth"":1536,""window_innerHeight"":754,""devicePixelRatio"":1.25}",,,,,,,,,,,,,,,,,,,,,,,,,,,,,5376.009000000002,,response,,,,,,,,,,,continue,click button,,,,,,,,,18018.685000000005,18016.120000000003,12580.165,12580.439999999953,12640.111,18025.263,{},,
Volume calibration,html.Screen,0_1,2021-04-22T07:25:14.734Z,,,,,,,,,,,,,,,,,,,,,,,,,,,,,,38562.10199999986,,response,,,,,,,,,,,continue,click button,,,,,,,,,56591.574999999924,56587.36499999986,18009.168,18019.664999999804,18025.263,56602.952,,,
Task instructions,html.Screen,0_2,2021-04-22T07:25:21.848Z,,,,,,,,,,,,,,,,,,,,,,,,,,,,,,7101.097999999831,,response,,,,,,,,,,,continue,click button,,,,,,,,,63705.57999999983,63704.04999999983,56587.475,56593.615,56602.952,63716.982,,,
Sounds,html.Screen,0_3_0_0,2021-04-22T07:25:26.102Z,,,,,,,,,,,,,,,,,,,,,,,,,,,,,,4254.831999999995,,timeout,,,,,,,,,3,,,,,,,,I,O,S,,67959.35999999984,67955.781,63700.889,63705.87,63716.982,67971.814,,,
Judgement,html.Screen,0_3_0_1,2021-04-22T07:25:28.579Z,,,,,,,,,,,,,,,,,,,,,,,,,,,true,3,,2462.526000000027,,response,,,,,,,,,3,,3,click #choice-3,,,,,I,O,S,,70436.12499999994,70434.34000000003,67955.781,67959.63499999994,67971.814,70448.468,,,
Trial,flow.Sequence,0_3_0,2021-04-22T07:25:28.579Z,,,,,,,,,,,,,,,,,,,,,,,,,,,,,,6717.358000000022,,completion,,,,,,,,,3,,,,,,,,I,O,S,,70436.54500000003,70434.34000000003,63700.889,63705.809999999925,63716.982,70448.468,,,
Sounds,html.Screen,0_3_1_0,2021-04-22T07:25:32.831Z,,,,,,,,,,,,,,,,,,,,,,,,,,,,,,4255.171000000002,,timeout,,,,,,,,,1,,,,,,,,S,I,O,,74688.18999999986,74687.27,70432.296,70436.71999999993,70448.468,74703.639,,,
Judgement,html.Screen,0_3_1_1,2021-04-22T07:25:34.354Z,,,,,,,,,,,,,,,,,,,,,,,,,,,true,1,,1502.8409999998403,,response,,,,,,,,,1,,1,click #choice-1,,,,,S,I,O,,76208.17999999986,76206.47999999984,74687.27,74688.41499999985,74703.639,76216.76,,,
Trial,flow.Sequence,0_3_1,2021-04-22T07:25:34.355Z,,,,,,,,,,,,,,,,,,,,,,,,,,,,,,5758.011999999842,,completion,,,,,,,,,1,,,,,,,,S,I,O,,76208.52999999988,76206.47999999984,70432.296,70436.66999999982,70448.468,76216.76,,,
Sounds,html.Screen,0_3_2_0,2021-04-22T07:25:38.602Z,,,,,,,,,,,,,,,,,,,,,,,,,,,,,,4254.880000000005,,timeout,,,,,,,,,3,,,,,,,,O,I,S,,80455.70499999986,80454.37,76200.275,76208.71999999986,76216.76,80471.64,,,
Judgement,html.Screen,0_3_2_1,2021-04-22T07:25:39.538Z,,,,,,,,,,,,,,,,,,,,,,,,,,,true,3,,918.3949999999022,,response,,,,,,,,,3,,3,click #choice-3,,,,,O,I,S,,81391.77999999993,81390.0349999999,80454.37,80455.9099999999,80471.64,81402.368,,,
Trial,flow.Sequence,0_3_2,2021-04-22T07:25:39.538Z,,,,,,,,,,,,,,,,,,,,,,,,,,,,,,5173.274999999907,,completion,,,,,,,,,3,,,,,,,,O,I,S,,81392.10000000003,81390.0349999999,76200.275,76208.67499999986,76216.76,81402.368,,,
Sounds,html.Screen,0_3_3_0,2021-04-22T07:25:43.792Z,,,,,,,,,,,,,,,,,,,,,,,,,,,,,,4255.0639999999985,,timeout,,,,,,,,,1,,,,,,,,S,O,I,,85646.46999999991,85640.151,81385.715,81392.335,81402.368,85657.432,,,
Judgement,html.Screen,0_3_3_1,2021-04-22T07:25:44.914Z,,,,,,,,,,,,,,,,,,,,,,,,,,,true,1,,1109.0929999999935,,response,,,,,,,,,1,,1,click #choice-1,,,,,S,O,I,,86768.29999999996,86766.525,85640.151,85646.66499999998,85657.432,86770.357,,,
Trial,flow.Sequence,0_3_3,2021-04-22T07:25:44.915Z,,,,,,,,,,,,,,,,,,,,,,,,,,,,,,5364.156999999992,,completion,,,,,,,,,1,,,,,,,,S,O,I,,86768.60999999986,86766.525,81385.715,81392.25499999998,81402.368,86770.357,,,
Sounds,html.Screen,0_3_4_0,2021-04-22T07:25:49.156Z,,,,,,,,,,,,,,,,,,,,,,,,,,,,,,4257.425000000003,,timeout,,,,,,,,,2,,,,,,,,O,S,I,,91009.76999999989,91008.793,86754.178,86768.7699999999,86770.357,91027.782,,,
Judgement,html.Screen,0_3_4_1,2021-04-22T07:25:50.011Z,,,,,,,,,,,,,,,,,,,,,,,,,,,true,2,,826.5430000000051,,response,,,,,,,,,2,,2,click #choice-2,,,,,O,S,I,,91865.42499999996,91854.32500000001,91008.793,91009.98499999991,91027.782,91873.109,,,
Trial,flow.Sequence,0_3_4,2021-04-22T07:25:50.012Z,,,,,,,,,,,,,,,,,,,,,,,,,,,,,,5083.968000000008,,completion,,,,,,,,,2,,,,,,,,O,S,I,,91865.77499999998,91854.32500000001,86754.178,86768.7249999999,86770.357,91873.109,,,
Sounds,html.Screen,0_3_5_0,2021-04-22T07:25:54.258Z,,,,,,,,,,,,,,,,,,,,,,,,,,,,,,4254.866999999998,,timeout,,,,,,,,,2,,,,,,,,I,S,O,,96112.3349999998,96111.487,91856.97,91865.99499999988,91873.109,96127.976,,,
Judgement,html.Screen,0_3_5_1,2021-04-22T07:25:55.154Z,,,,,,,,,,,,,,,,,,,,,,,,,,,true,2,,878.5940000000119,,response,,,,,,,,,2,,2,click #choice-2,,,,,I,S,O,,97008.25999999983,97006.57,96111.487,96112.53499999997,96127.976,97008.968,,,
Trial,flow.Sequence,0_3_5,2021-04-22T07:25:55.155Z,,,,,,,,,,,,,,,,,,,,,,,,,,,,,,5133.46100000001,,completion,,,,,,,,,2,,,,,,,,I,S,O,,97008.56499999986,97006.57,91856.97,91865.92999999993,91873.109,97008.968,,,
Task,flow.Loop,0_3,2021-04-22T07:25:55.160Z,,,,,,,,,,,,,,,,,,,,,,,,,,,,,,33289.588,,completion,,,1,,,,,,,,,,,,,,,,,,97013.79499999984,97006.57,63700.889,63705.754999999954,63716.982,97008.968,,,
Trap,html.Screen,0_4,2021-04-22T07:25:55.163Z,,,,,,,,,,,,,,,,,,,,,,,,,,,,,,NaN,,skipped,,,,,,,,,,,,,,,,,,,,,97016.68999999993,97006.57,,97016.45999999982,,97008.968,,,
Thanks,html.Screen,0_5,2021-04-22T07:26:00.775Z,,,,,,,,,,,,,,,,,,,,,,,,,,,,,,5618.456999999908,,response,,,,,,,,,,,continue,click button,,,,,,,,,102629.07499999984,102627.4249999999,96992.752,97016.84499999987,97008.968,106532.853,,,
Headphone screening,flow.Sequence,0,2021-04-22T07:26:00.775Z,,,,,,,,,,,,,,,,,,,,,,,,,,,,,,89987.3139999999,,completion,,,,,,,,,,,,,,,,,,,,,102629.36999999988,102627.4249999999,12580.165,12580.389999999852,12640.111,106532.853,,,
Instructions,html.Page,1_0,2021-04-22T07:26:06.548Z,,,,,,,,,,,,,,,,,,,,,,,,,,,,,,1868.3869999999151,,form submission,,,,,,,,,,,,,,,,,,,,,108401.56000000001,108401.23999999992,106336.417,106390.60999999993,106532.853,108411.066,,,
Holding screen,html.Screen,1_1_0_0,2021-04-22T07:26:16.548Z,,,,,,,,,,,,,,,,,,,,,,,,,,,,,,10039.178,,timeout,,,,,,,,,,,,,,,,,,,,,118401.83499999989,118401.009,108394.911,108401.80499999996,108411.066,118450.244,,,
screen,html.Screen,1_1_0_1_0,2021-04-22T07:26:17.802Z,,,,,,,,,,,,,,,,53,,,,,,,,,,,,,,1201.5509999999922,,response,,,,99,,,,,,,Space,keypress(Space),,,,,,,,When -- ----- -- ------ - ------- --- ----------<br>------------- ------ ------ ---- ---- ------- ----- -- ----<br>-------- ------- -- ---------- --- - --- ----- ----- ----<br>---- --- --- ----- --- ---- ---- ------- ----- ---- -------<br>--- --- -- ----- -- --- ---- -- --- ---- -- ------ ------<br>--- ----- -- ----,119656.07,119651.795,118401.009,118402.12999999995,118450.244,119663.876,,0,When
screen,html.Screen,1_1_0_1_1,2021-04-22T07:26:18.235Z,,,,,,,,,,,,,,,,53,,,,,,,,,,,,,,424.1639999998588,,response,,,,99,,,,,,,Space,keypress(Space),,,,,,,,---- it ----- -- ------ - ------- --- ----------<br>------------- ------ ------ ---- ---- ------- ----- -- ----<br>-------- ------- -- ---------- --- - --- ----- ----- ----<br>---- --- --- ----- --- ---- ---- ------- ----- ---- -------<br>--- --- -- ----- -- --- ---- -- --- ---- -- ------ ------<br>--- ----- -- ----,120088.93999999987,120088.03999999986,119650.737,119656.31499999994,119663.876,120095.745,,1,it
screen,html.Screen,1_1_0_1_2,2021-04-22T07:26:18.674Z,,,,,,,,,,,,,,,,53,,,,,,,,,,,,,,431.09999999987485,,response,,,,99,,,,,,,Space,keypress(Space),,,,,,,,---- -- comes -- ------ - ------- --- ----------<br>------------- ------ ------ ---- ---- ------- ----- -- ----<br>-------- ------- -- ---------- --- - --- ----- ----- ----<br>---- --- --- ----- --- ---- ---- ------- ----- ---- -------<br>--- --- -- ----- -- --- ---- -- --- ---- -- ------ ------<br>--- ----- -- ----,120528.34499999994,120526.84499999987,120080.792,120089.14499999992,120095.745,120544.573,,2,comes
screen,html.Screen,1_1_0_1_3,2021-04-22T07:26:19.106Z,,,,,,,,,,,,,,,,53,,,,,,,,,,,,,,414.84199999980046,,response,,,,99,,,,,,,Space,keypress(Space),,,,,,,,---- -- ----- to ------ - ------- --- ----------<br>------------- ------ ------ ---- ---- ------- ----- -- ----<br>-------- ------- -- ---------- --- - --- ----- ----- ----<br>---- --- --- ----- --- ---- ---- ------- ----- ---- -------<br>--- --- -- ----- -- --- ---- -- --- ---- -- ------ ------<br>--- ----- -- ----,120960.44499999993,120959.4149999998,120512.75,120528.54999999999,120544.573,120993.744,,3,to
screen,html.Screen,1_1_0_1_4,2021-04-22T07:26:19.572Z,,,,,,,,,,,,,,,,53,,,,,,,,,,,,,,431.08599999992293,,response,,,,99,,,,,,,Space,keypress(Space),,,,,,,,---- -- ----- -- having - ------- --- ----------<br>------------- ------ ------ ---- ---- ------- ----- -- ----<br>-------- ------- -- ---------- --- - --- ----- ----- ----<br>---- --- --- ----- --- ---- ---- ------- ----- ---- -------<br>--- --- -- ----- -- --- ---- -- --- ---- -- ------ ------<br>--- ----- -- ----,121426.37999999989,121424.82999999993,120976.725,120960.64000000001,120993.744,121459.134,,4,having
screen,html.Screen,1_1_0_1_5,2021-04-22T07:26:20.015Z,,,,,,,,,,,,,,,,53,,,,,,,,,,,,,,408.05099999983213,,response,,,,99,,,,,,,Space,keypress(Space),,,,,,,,---- -- ----- -- ------ a ------- --- ----------<br>------------- ------ ------ ---- ---- ------- ----- -- ----<br>-------- ------- -- ---------- --- - --- ----- ----- ----<br>---- --- --- ----- --- ---- ---- ------- ----- ---- -------<br>--- --- -- ----- -- --- ---- -- --- ---- -- ------ ------<br>--- ----- -- ----,121868.68499999991,121867.18499999984,121442.698,121426.57499999995,121459.134,121874.93,,5,a
screen,html.Screen,1_1_0_1_6,2021-04-22T07:26:20.450Z,,,,,,,,,,,,,,,,53,,,,,,,,,,,,,,427.3450000000157,,response,,,,99,,,,,,,Space,keypress(Space),,,,,,,,---- -- ----- -- ------ - lasting --- ----------<br>------------- ------ ------ ---- ---- ------- ----- -- ----<br>-------- ------- -- ---------- --- - --- ----- ----- ----<br>---- --- --- ----- --- ---- ---- ------- ----- ---- -------<br>--- --- -- ----- -- --- ---- -- --- ---- -- ------ ------<br>--- ----- -- ----,122303.85,122302.27500000001,121858.644,121868.88999999997,121874.93,122306.313,,6,lasting
screen,html.Screen,1_1_0_1_7,2021-04-22T07:26:20.908Z,,,,,,,,,,,,,,,,53,,,,,,,,,,,,,,454.0319999999192,,response,,,,99,,,,,,,Space,keypress(Space),,,,,,,,---- -- ----- -- ------ - ------- and ----------<br>------------- ------ ------ ---- ---- ------- ----- -- ----<br>-------- ------- -- ---------- --- - --- ----- ----- ----<br>---- --- --- ----- --- ---- ---- ------- ----- ---- -------<br>--- --- -- ----- -- --- ---- -- --- ---- -- ------ ------<br>--- ----- -- ----,122761.88000000002,122760.34499999991,122291.374,122304.04999999996,122306.313,122771.692,,7,and
screen,html.Screen,1_1_0_1_8,2021-04-22T07:26:21.371Z,,,,,,,,,,,,,,,,53,,,,,,,,,,,,,,451.1679999998596,,response,,,,99,,,,,,,Space,keypress(Space),,,,,,,,---- -- ----- -- ------ - ------- --- fulfilling<br>------------- ------ ------ ---- ---- ------- ----- -- ----<br>-------- ------- -- ---------- --- - --- ----- ----- ----<br>---- --- --- ----- --- ---- ---- ------- ----- ---- -------<br>--- --- -- ----- -- --- ---- -- --- ---- -- ------ ------<br>--- ----- -- ----,123225.05499999988,123222.85999999986,122756.238,122762.07999999997,122771.692,123237.135,,8,fulfilling
screen,html.Screen,1_1_0_1_9,2021-04-22T07:26:21.785Z,,,,,,,,,,,,,,,,53,,,,,,,,,,,,,,400.08499999984633,,response,,,,99,,,,,,,Space,keypress(Space),,,,,,,,"---- -- ----- -- ------ - ------- --- ----------<br>relationship, ------ ------ ---- ---- ------- ----- -- ----<br>-------- ------- -- ---------- --- - --- ----- ----- ----<br>---- --- --- ----- --- ---- ---- ------- ----- ---- -------<br>--- --- -- ----- -- --- ---- -- --- ---- -- ------ ------<br>--- ----- -- ----",123638.72500000002,123637.21999999984,123222.093,123225.25999999994,123237.135,123652.689,,9,"relationship,"
screen,html.Screen,1_1_0_1_10,2021-04-22T07:26:22.188Z,,,,,,,,,,,,,,,,53,,,,,,,,,,,,,,387.9609999999084,,response,,,,99,,,,,,,Space,keypress(Space),,,,,,,,---- -- ----- -- ------ - ------- --- ----------<br>------------- common ------ ---- ---- ------- ----- -- ----<br>-------- ------- -- ---------- --- - --- ----- ----- ----<br>---- --- --- ----- --- ---- ---- ------- ----- ---- -------<br>--- --- -- ----- -- --- ---- -- --- ---- -- ------ ------<br>--- ----- -- ----,124042.15999999997,124040.6499999999,123637.023,123638.92499999997,123652.689,124051.564,,10,common
screen,html.Screen,1_1_0_1_11,2021-04-22T07:26:22.567Z,,,,,,,,,,,,,,,,53,,,,,,,,,,,,,,368.47599999998056,,response,,,,99,,,,,,,Space,keypress(Space),,,,,,,,---- -- ----- -- ------ - ------- --- ----------<br>------------- ------ wisdom ---- ---- ------- ----- -- ----<br>-------- ------- -- ---------- --- - --- ----- ----- ----<br>---- --- --- ----- --- ---- ---- ------- ----- ---- -------<br>--- --- -- ----- -- --- ---- -- --- ---- -- ------ ------<br>--- ----- -- ----,124421.03499999984,124420.03999999998,124036.51,124042.36500000002,124051.564,124434.339,,11,wisdom
screen,html.Screen,1_1_0_1_12,2021-04-22T07:26:22.957Z,,,,,,,,,,,,,,,,53,,,,,,,,,,,,,,374.9659999999858,,response,,,,99,,,,,,,Space,keypress(Space),,,,,,,,---- -- ----- -- ------ - ------- --- ----------<br>------------- ------ ------ says ---- ------- ----- -- ----<br>-------- ------- -- ---------- --- - --- ----- ----- ----<br>---- --- --- ----- --- ---- ---- ------- ----- ---- -------<br>--- --- -- ----- -- --- ---- -- --- ---- -- ------ ------<br>--- ----- -- ----,124811.02999999985,124809.305,124418.164,124421.23500000003,124434.339,124816.134,,12,says
screen,html.Screen,1_1_0_1_13,2021-04-22T07:26:23.293Z,,,,,,,,,,,,,,,,53,,,,,,,,,,,,,,329.25599999990663,,response,,,,99,,,,,,,Space,keypress(Space),,,,,,,,---- -- ----- -- ------ - ------- --- ----------<br>------------- ------ ------ ---- that ------- ----- -- ----<br>-------- ------- -- ---------- --- - --- ----- ----- ----<br>---- --- --- ----- --- ---- ---- ------- ----- ---- -------<br>--- --- -- ----- -- --- ---- -- --- ---- -- ------ ------<br>--- ----- -- ----,125146.90999999993,125145.38999999991,124800.514,124811.22499999992,124816.134,125187.463,,13,that
screen,html.Screen,1_1_0_1_14,2021-04-22T07:26:23.564Z,,,,,,,,,,,,,,,,53,,,,,,,,,,,,,,229.21699999981502,,response,,,,99,,,,,,,Space,keypress(Space),,,,,,,,---- -- ----- -- ------ - ------- --- ----------<br>------------- ------ ------ ---- ---- feeling ----- -- ----<br>-------- ------- -- ---------- --- - --- ----- ----- ----<br>---- --- --- ----- --- ---- ---- ------- ----- ---- -------<br>--- --- -- ----- -- --- ---- -- --- ---- -- ------ ------<br>--- ----- -- ----,125417.68000000002,125416.67999999982,125133.173,125147.11499999999,125187.463,125431.189,,14,feeling
screen,html.Screen,1_1_0_1_15,2021-04-22T07:26:23.895Z,,,,,,,,,,,,,,,,53,,,,,,,,,,,,,,316.2509999998729,,response,,,,99,,,,,,,Space,keypress(Space),,,,,,,,---- -- ----- -- ------ - ------- --- ----------<br>------------- ------ ------ ---- ---- ------- close -- ----<br>-------- ------- -- ---------- --- - --- ----- ----- ----<br>---- --- --- ----- --- ---- ---- ------- ----- ---- -------<br>--- --- -- ----- -- --- ---- -- --- ---- -- ------ ------<br>--- ----- -- ----,125748.9599999999,125747.43999999987,125415.293,125417.87499999987,125431.189,125764.152,,15,close
screen,html.Screen,1_1_0_1_16,2021-04-22T07:26:24.220Z,,,,,,,,,,,,,,,,53,,,,,,,,,,,,,,309.1379999998171,,response,,,,99,,,,,,,Space,keypress(Space),,,,,,,,---- -- ----- -- ------ - ------- --- ----------<br>------------- ------ ------ ---- ---- ------- ----- to ----<br>-------- ------- -- ---------- --- - --- ----- ----- ----<br>---- --- --- ----- --- ---- ---- ------- ----- ---- -------<br>--- --- -- ----- -- --- ---- -- --- ---- -- ------ ------<br>--- ----- -- ----,126074.25999999986,126073.28999999982,125747.696,125749.15999999984,125764.152,126079.367,,16,to
screen,html.Screen,1_1_0_1_17,2021-04-22T07:26:24.558Z,,,,,,,,,,,,,,,,53,,,,,,,,,,,,,,331.12299999997776,,response,,,,99,,,,,,,Space,keypress(Space),,,,,,,,---- -- ----- -- ------ - ------- --- ----------<br>------------- ------ ------ ---- ---- ------- ----- -- your<br>-------- ------- -- ---------- --- - --- ----- ----- ----<br>---- --- --- ----- --- ---- ---- ------- ----- ---- -------<br>--- --- -- ----- -- --- ---- -- --- ---- -- ------ ------<br>--- ----- -- ----,126411.98499999996,126410.48999999998,126063.502,126074.45999999982,126079.367,126429.058,,17,your
screen,html.Screen,1_1_0_1_18,2021-04-22T07:26:24.883Z,,,,,,,,,,,,,,,,53,,,,,,,,,,,,,,306.0319999998901,,response,,,,99,,,,,,,Space,keypress(Space),,,,,,,,---- -- ----- -- ------ - ------- --- ----------<br>------------- ------ ------ ---- ---- ------- ----- -- ----<br>romantic ------- -- ---------- --- - --- ----- ----- ----<br>---- --- --- ----- --- ---- ---- ------- ----- ---- -------<br>--- --- -- ----- -- --- ---- -- --- ---- -- ------ ------<br>--- ----- -- ----,126736.5749999999,126735.0899999999,126396.283,126412.19,126429.058,126744.164,,18,romantic
screen,html.Screen,1_1_0_1_19,2021-04-22T07:26:25.199Z,,,,,,,,,,,,,,,,53,,,,,,,,,,,,,,307.5909999999567,,response,,,,99,,,,,,,Space,keypress(Space),,,,,,,,---- -- ----- -- ------ - ------- --- ----------<br>------------- ------ ------ ---- ---- ------- ----- -- ----<br>-------- partner -- ---------- --- - --- ----- ----- ----<br>---- --- --- ----- --- ---- ---- ------- ----- ---- -------<br>--- --- -- ----- -- --- ---- -- --- ---- -- ------ ------<br>--- ----- -- ----,127052.70999999993,127051.75499999996,126728.603,126736.77499999985,126744.164,127060.019,,19,partner
screen,html.Screen,1_1_0_1_20,2021-04-22T07:26:25.472Z,,,,,,,,,,,,,,,,53,,,,,,,,,,,,,,264.7709999998915,,response,,,,99,,,,,,,Space,keypress(Space),,,,,,,,---- -- ----- -- ------ - ------- --- ----------<br>------------- ------ ------ ---- ---- ------- ----- -- ----<br>-------- ------- is ---------- --- - --- ----- ----- ----<br>---- --- --- ----- --- ---- ---- ------- ----- ---- -------<br>--- --- -- ----- -- --- ---- -- --- ---- -- ------ ------<br>--- ----- -- ----,127325.785,127324.78999999989,127044.545,127052.90999999989,127060.019,127343.244,,20,is
screen,html.Screen,1_1_0_1_21,2021-04-22T07:26:25.778Z,,,,,,,,,,,,,,,,53,,,,,,,,,,,,,,286.8259999999282,,response,,,,99,,,,,,,Space,keypress(Space),,,,,,,,---- -- ----- -- ------ - ------- --- ----------<br>------------- ------ ------ ---- ---- ------- ----- -- ----<br>-------- ------- -- paramount. --- - --- ----- ----- ----<br>---- --- --- ----- --- ---- ---- ------- ----- ---- -------<br>--- --- -- ----- -- --- ---- -- --- ---- -- ------ ------<br>--- ----- -- ----,127631.58499999986,127630.06999999993,127310.347,127326.00000000003,127343.244,127641.987,,21,paramount.
screen,html.Screen,1_1_0_1_22,2021-04-22T07:26:26.095Z,,,,,,,,,,,,,,,,53,,,,,,,,,,,,,,304.9779999998718,,response,,,,99,,,,,,,Space,keypress(Space),,,,,,,,---- -- ----- -- ------ - ------- --- ----------<br>------------- ------ ------ ---- ---- ------- ----- -- ----<br>-------- ------- -- ---------- But - --- ----- ----- ----<br>---- --- --- ----- --- ---- ---- ------- ----- ---- -------<br>--- --- -- ----- -- --- ---- -- --- ---- -- ------ ------<br>--- ----- -- ----,127948.69999999992,127946.96499999987,127626.263,127631.77999999994,127641.987,127957.524,,22,But
screen,html.Screen,1_1_0_1_23,2021-04-22T07:26:26.399Z,,,,,,,,,,,,,,,,53,,,,,,,,,,,,,,294.9709999999468,,response,,,,99,,,,,,,Space,keypress(Space),,,,,,,,---- -- ----- -- ------ - ------- --- ----------<br>------------- ------ ------ ---- ---- ------- ----- -- ----<br>-------- ------- -- ---------- --- a --- ----- ----- ----<br>---- --- --- ----- --- ---- ---- ------- ----- ---- -------<br>--- --- -- ----- -- --- ---- -- --- ---- -- ------ ------<br>--- ----- -- ----,128253.33499999988,128252.49499999995,127942.235,127948.90499999997,127957.524,128256.758,,23,a
screen,html.Screen,1_1_0_1_24,2021-04-22T07:26:26.658Z,,,,,,,,,,,,,,,,53,,,,,,,,,,,,,,254.0669999998354,,response,,,,99,,,,,,,Space,keypress(Space),,,,,,,,---- -- ----- -- ------ - ------- --- ----------<br>------------- ------ ------ ---- ---- ------- ----- -- ----<br>-------- ------- -- ---------- --- - new ----- ----- ----<br>---- --- --- ----- --- ---- ---- ------- ----- ---- -------<br>--- --- -- ----- -- --- ---- -- --- ---- -- ------ ------<br>--- ----- -- ----,128511.81499999984,128510.82499999984,128241.453,128253.52999999996,128256.758,128522.711,,24,new
screen,html.Screen,1_1_0_1_25,2021-04-22T07:26:26.907Z,,,,,,,,,,,,,,,,53,,,,,,,,,,,,,,236.6040000000212,,response,,,,99,,,,,,,Space,keypress(Space),,,,,,,,---- -- ----- -- ------ - ------- --- ----------<br>------------- ------ ------ ---- ---- ------- ----- -- ----<br>-------- ------- -- ---------- --- - --- study ----- ----<br>---- --- --- ----- --- ---- ---- ------- ----- ---- -------<br>--- --- -- ----- -- --- ---- -- --- ---- -- ------ ------<br>--- ----- -- ----,128760.83999999991,128759.31500000002,128506.649,128512.01500000001,128522.711,128772.575,,25,study
screen,html.Screen,1_1_0_1_26,2021-04-22T07:26:27.172Z,,,,,,,,,,,,,,,,53,,,,,,,,,,,,,,252.38499999996566,,response,,,,99,,,,,,,Space,keypress(Space),,,,,,,,---- -- ----- -- ------ - ------- --- ----------<br>------------- ------ ------ ---- ---- ------- ----- -- ----<br>-------- ------- -- ---------- --- - --- ----- finds ----<br>---- --- --- ----- --- ---- ---- ------- ----- ---- -------<br>--- --- -- ----- -- --- ---- -- --- ---- -- ------ ------<br>--- ----- -- ----,129025.94999999997,129024.95999999996,128755.89,128761.04499999997,128772.575,129038.375,,26,finds
screen,html.Screen,1_1_0_1_27,2021-04-22T07:26:27.443Z,,,,,,,,,,,,,,,,53,,,,,,,,,,,,,,256.6699999998382,,response,,,,99,,,,,,,Space,keypress(Space),,,,,,,,---- -- ----- -- ------ - ------- --- ----------<br>------------- ------ ------ ---- ---- ------- ----- -- ----<br>-------- ------- -- ---------- --- - --- ----- ----- that<br>---- --- --- ----- --- ---- ---- ------- ----- ---- -------<br>--- --- -- ----- -- --- ---- -- --- ---- -- ------ ------<br>--- ----- -- ----,129296.53999999982,129295.04499999984,129022.59,129026.15500000001,129038.375,129303.812,,27,that
screen,html.Screen,1_1_0_1_28,2021-04-22T07:26:27.710Z,,,,,,,,,,,,,,,,53,,,,,,,,,,,,,,259.48299999992014,,response,,,,99,,,,,,,Space,keypress(Space),,,,,,,,---- -- ----- -- ------ - ------- --- ----------<br>------------- ------ ------ ---- ---- ------- ----- -- ----<br>-------- ------- -- ---------- --- - --- ----- ----- ----<br>it's --- --- ----- --- ---- ---- ------- ----- ---- -------<br>--- --- -- ----- -- --- ---- -- --- ---- -- ------ ------<br>--- ----- -- ----,129564.26999999984,129563.29499999993,129287.871,129296.74499999988,129303.812,129569.745,,28,it's
screen,html.Screen,1_1_0_1_29,2021-04-22T07:26:28.007Z,,,,,,,,,,,,,,,,53,,,,,,,,,,,,,,289.93999999990046,,response,,,,99,,,,,,,Space,keypress(Space),,,,,,,,---- -- ----- -- ------ - ------- --- ----------<br>------------- ------ ------ ---- ---- ------- ----- -- ----<br>-------- ------- -- ---------- --- - --- ----- ----- ----<br>---- not --- ----- --- ---- ---- ------- ----- ---- -------<br>--- --- -- ----- -- --- ---- -- --- ---- -- ------ ------<br>--- ----- -- ----,129861.22499999987,129859.6849999999,129554.322,129564.47000000003,129569.745,129868.916,,29,not
screen,html.Screen,1_1_0_1_30,2021-04-22T07:26:28.261Z,,,,,,,,,,,,,,,,53,,,,,,,,,,,,,,245.1739999998099,,response,,,,99,,,,,,,Space,keypress(Space),,,,,,,,---- -- ----- -- ------ - ------- --- ----------<br>------------- ------ ------ ---- ---- ------- ----- -- ----<br>-------- ------- -- ---------- --- - --- ----- ----- ----<br>---- --- how ----- --- ---- ---- ------- ----- ---- -------<br>--- --- -- ----- -- --- ---- -- --- ---- -- ------ ------<br>--- ----- -- ----,130115.07999999981,130114.08999999981,129853.468,129861.42999999993,129868.916,130118.307,,30,how
screen,html.Screen,1_1_0_1_31,2021-04-22T07:26:28.521Z,,,,,,,,,,,,,,,,53,,,,,,,,,,,,,,255.4780000000028,,response,,,,99,,,,,,,Space,keypress(Space),,,,,,,,---- -- ----- -- ------ - ------- --- ----------<br>------------- ------ ------ ---- ---- ------- ----- -- ----<br>-------- ------- -- ---------- --- - --- ----- ----- ----<br>---- --- --- close --- ---- ---- ------- ----- ---- -------<br>--- --- -- ----- -- --- ---- -- --- ---- -- ------ ------<br>--- ----- -- ----,130374.62499999993,130373.785,130102.777,130115.28999999996,130118.307,130384.287,,31,close
screen,html.Screen,1_1_0_1_32,2021-04-22T07:26:28.799Z,,,,,,,,,,,,,,,,53,,,,,,,,,,,,,,267.3729999999923,,response,,,,99,,,,,,,Space,keypress(Space),,,,,,,,---- -- ----- -- ------ - ------- --- ----------<br>------------- ------ ------ ---- ---- ------- ----- -- ----<br>-------- ------- -- ---------- --- - --- ----- ----- ----<br>---- --- --- ----- you ---- ---- ------- ----- ---- -------<br>--- --- -- ----- -- --- ---- -- --- ---- -- ------ ------<br>--- ----- -- ----,130653.18000000002,130651.65999999999,130368.598,130374.82499999987,130384.287,130666.933,,32,you
screen,html.Screen,1_1_0_1_33,2021-04-22T07:26:29.058Z,,,,,,,,,,,,,,,,53,,,,,,,,,,,,,,243.84199999982957,,response,,,,99,,,,,,,Space,keypress(Space),,,,,,,,---- -- ----- -- ------ - ------- --- ----------<br>------------- ------ ------ ---- ---- ------- ----- -- ----<br>-------- ------- -- ---------- --- - --- ----- ----- ----<br>---- --- --- ----- --- feel ---- ------- ----- ---- -------<br>--- --- -- ----- -- --- ---- -- --- ---- -- ------ ------<br>--- ----- -- ----,130911.54499999993,130910.77499999983,130651.306,130653.38499999985,130666.933,130916.134,,33,feel
screen,html.Screen,1_1_0_1_34,2021-04-22T07:26:29.316Z,,,,,,,,,,,,,,,,53,,,,,,,,,,,,,,252.91099999986182,,response,,,,99,,,,,,,Space,keypress(Space),,,,,,,,---- -- ----- -- ------ - ------- --- ----------<br>------------- ------ ------ ---- ---- ------- ----- -- ----<br>-------- ------- -- ---------- --- - --- ----- ----- ----<br>---- --- --- ----- --- ---- that ------- ----- ---- -------<br>--- --- -- ----- -- --- ---- -- --- ---- -- ------ ------<br>--- ----- -- ----,131169.91499999995,131169.04499999987,130900.7,130911.74999999999,130916.134,131182.034,,34,that
screen,html.Screen,1_1_0_1_35,2021-04-22T07:26:29.556Z,,,,,,,,,,,,,,,,53,,,,,,,,,,,,,,226.32599999988452,,response,,,,99,,,,,,,Space,keypress(Space),,,,,,,,---- -- ----- -- ------ - ------- --- ----------<br>------------- ------ ------ ---- ---- ------- ----- -- ----<br>-------- ------- -- ---------- --- - --- ----- ----- ----<br>---- --- --- ----- --- ---- ---- matters ----- ---- -------<br>--- --- -- ----- -- --- ---- -- --- ---- -- ------ ------<br>--- ----- -- ----,131409.58499999988,131408.3599999999,131166.486,131170.12,131182.034,131414.746,,35,matters
screen,html.Screen,1_1_0_1_36,2021-04-22T07:26:29.816Z,,,,,,,,,,,,,,,,53,,,,,,,,,,,,,,254.02899999986403,,response,,,,99,,,,,,,Space,keypress(Space),,,,,,,,"---- -- ----- -- ------ - ------- --- ----------<br>------------- ------ ------ ---- ---- ------- ----- -- ----<br>-------- ------- -- ---------- --- - --- ----- ----- ----<br>---- --- --- ----- --- ---- ---- ------- most, ---- -------<br>--- --- -- ----- -- --- ---- -- --- ---- -- ------ ------<br>--- ----- -- ----",131670.3399999999,131668.77499999988,131399.254,131409.78499999983,131414.746,131680.651,,36,"most,"
screen,html.Screen,1_1_0_1_37,2021-04-22T07:26:30.083Z,,,,,,,,,,,,,,,,53,,,,,,,,,,,,,,255.0339999998978,,response,,,,99,,,,,,,Space,keypress(Space),,,,,,,,---- -- ----- -- ------ - ------- --- ----------<br>------------- ------ ------ ---- ---- ------- ----- -- ----<br>-------- ------- -- ---------- --- - --- ----- ----- ----<br>---- --- --- ----- --- ---- ---- ------- ----- it's -------<br>--- --- -- ----- -- --- ---- -- --- ---- -- ------ ------<br>--- ----- -- ----,131937.17500000002,131935.6849999999,131665.112,131670.54499999995,131680.651,131946.628,,37,it's
screen,html.Screen,1_1_0_1_38,2021-04-22T07:26:30.344Z,,,,,,,,,,,,,,,,53,,,,,,,,,,,,,,250.61699999985285,,response,,,,99,,,,,,,Space,keypress(Space),,,,,,,,---- -- ----- -- ------ - ------- --- ----------<br>------------- ------ ------ ---- ---- ------- ----- -- ----<br>-------- ------- -- ---------- --- - --- ----- ----- ----<br>---- --- --- ----- --- ---- ---- ------- ----- ---- whether<br>--- --- -- ----- -- --- ---- -- --- ---- -- ------ ------<br>--- ----- -- ----,132198.21499999988,132197.24499999985,131931.023,131937.36999999988,131946.628,132213.034,,38,whether
screen,html.Screen,1_1_0_1_39,2021-04-22T07:26:30.686Z,,,,,,,,,,,,,,,,53,,,,,,,,,,,,,,325.9109999999928,,response,,,,99,,,,,,,Space,keypress(Space),,,,,,,,---- -- ----- -- ------ - ------- --- ----------<br>------------- ------ ------ ---- ---- ------- ----- -- ----<br>-------- ------- -- ---------- --- - --- ----- ----- ----<br>---- --- --- ----- --- ---- ---- ------- ----- ---- -------<br>you --- -- ----- -- --- ---- -- --- ---- -- ------ ------<br>--- ----- -- ----,132539.9249999998,132538.945,132197.097,132198.40999999997,132213.034,132544.953,,39,you
screen,html.Screen,1_1_0_1_40,2021-04-22T07:26:30.969Z,,,,,,,,,,,,,,,,53,,,,,,,,,,,,,,276.91199999986566,,response,,,,99,,,,,,,Space,keypress(Space),,,,,,,,---- -- ----- -- ------ - ------- --- ----------<br>------------- ------ ------ ---- ---- ------- ----- -- ----<br>-------- ------- -- ---------- --- - --- ----- ----- ----<br>---- --- --- ----- --- ---- ---- ------- ----- ---- -------<br>--- are -- ----- -- --- ---- -- --- ---- -- ------ ------<br>--- ----- -- ----,132823.3499999999,132821.86499999987,132529.796,132540.12999999986,132544.953,132827.535,,40,are
screen,html.Screen,1_1_0_1_41,2021-04-22T07:26:31.205Z,,,,,,,,,,,,,,,,53,,,,,,,,,,,,,,231.03499999991618,,response,,,,99,,,,,,,Space,keypress(Space),,,,,,,,---- -- ----- -- ------ - ------- --- ----------<br>------------- ------ ------ ---- ---- ------- ----- -- ----<br>-------- ------- -- ---------- --- - --- ----- ----- ----<br>---- --- --- ----- --- ---- ---- ------- ----- ---- -------<br>--- --- as ----- -- --- ---- -- --- ---- -- ------ ------<br>--- ----- -- ----,133059.51499999993,133058.56999999992,132812.013,132823.54499999995,132827.535,133077.52,,41,as
screen,html.Screen,1_1_0_1_42,2021-04-22T07:26:31.453Z,,,,,,,,,,,,,,,,53,,,,,,,,,,,,,,228.49499999990803,,response,,,,99,,,,,,,Space,keypress(Space),,,,,,,,---- -- ----- -- ------ - ------- --- ----------<br>------------- ------ ------ ---- ---- ------- ----- -- ----<br>-------- ------- -- ---------- --- - --- ----- ----- ----<br>---- --- --- ----- --- ---- ---- ------- ----- ---- -------<br>--- --- -- close -- --- ---- -- --- ---- -- ------ ------<br>--- ----- -- ----,133307.4899999999,133306.0149999999,133044.174,133059.71,133077.52,133309.506,,42,close
screen,html.Screen,1_1_0_1_43,2021-04-22T07:26:31.738Z,,,,,,,,,,,,,,,,53,,,,,,,,,,,,,,281.7039999998233,,response,,,,99,,,,,,,Space,keypress(Space),,,,,,,,---- -- ----- -- ------ - ------- --- ----------<br>------------- ------ ------ ---- ---- ------- ----- -- ----<br>-------- ------- -- ---------- --- - --- ----- ----- ----<br>---- --- --- ----- --- ---- ---- ------- ----- ---- -------<br>--- --- -- ----- as --- ---- -- --- ---- -- ------ ------<br>--- ----- -- ----,133592.18499999997,133591.20999999982,133293.489,133307.7149999999,133309.506,133625.868,,43,as
screen,html.Screen,1_1_0_1_44,2021-04-22T07:26:31.979Z,,,,,,,,,,,,,,,,53,,,,,,,,,,,,,,205.0570000000007,,response,,,,99,,,,,,,Space,keypress(Space),,,,,,,,---- -- ----- -- ------ - ------- --- ----------<br>------------- ------ ------ ---- ---- ------- ----- -- ----<br>-------- ------- -- ---------- --- - --- ----- ----- ----<br>---- --- --- ----- --- ---- ---- ------- ----- ---- -------<br>--- --- -- ----- -- you ---- -- --- ---- -- ------ ------<br>--- ----- -- ----,133832.58999999997,133830.925,133609.224,133592.37999999983,133625.868,133841.377,,44,you
screen,html.Screen,1_1_0_1_45,2021-04-22T07:26:32.229Z,,,,,,,,,,,,,,,,53,,,,,,,,,,,,,,240.9780000000028,,response,,,,99,,,,,,,Space,keypress(Space),,,,,,,,---- -- ----- -- ------ - ------- --- ----------<br>------------- ------ ------ ---- ---- ------- ----- -- ----<br>-------- ------- -- ---------- --- - --- ----- ----- ----<br>---- --- --- ----- --- ---- ---- ------- ----- ---- -------<br>--- --- -- ----- -- --- want -- --- ---- -- ------ ------<br>--- ----- -- ----,134083.32499999984,134082.355,133825.726,133832.78999999992,133841.377,134090.982,,45,want
screen,html.Screen,1_1_0_1_46,2021-04-22T07:26:32.489Z,,,,,,,,,,,,,,,,53,,,,,,,,,,,,,,250.65300000002026,,response,,,,99,,,,,,,Space,keypress(Space),,,,,,,,---- -- ----- -- ------ - ------- --- ----------<br>------------- ------ ------ ---- ---- ------- ----- -- ----<br>-------- ------- -- ---------- --- - --- ----- ----- ----<br>---- --- --- ----- --- ---- ---- ------- ----- ---- -------<br>--- --- -- ----- -- --- ---- to --- ---- -- ------ ------<br>--- ----- -- ----,134343.36999999982,134341.635,134074.716,134083.5199999999,134090.982,134356.702,,46,to
screen,html.Screen,1_1_0_1_47,2021-04-22T07:26:32.729Z,,,,,,,,,,,,,,,,53,,,,,,,,,,,,,,224.8530000000028,,response,,,,99,,,,,,,Space,keypress(Space),,,,,,,,"---- -- ----- -- ------ - ------- --- ----------<br>------------- ------ ------ ---- ---- ------- ----- -- ----<br>-------- ------- -- ---------- --- - --- ----- ----- ----<br>---- --- --- ----- --- ---- ---- ------- ----- ---- -------<br>--- --- -- ----- -- --- ---- -- be, ---- -- ------ ------<br>--- ----- -- ----",134582.535,134581.555,134341.484,134343.55499999993,134356.702,134589.451,,47,"be,"
screen,html.Screen,1_1_0_1_48,2021-04-22T07:26:32.952Z,,,,,,,,,,,,,,,,53,,,,,,,,,,,,,,215.29899999999907,,response,,,,99,,,,,,,Space,keypress(Space),,,,,,,,---- -- ----- -- ------ - ------- --- ----------<br>------------- ------ ------ ---- ---- ------- ----- -- ----<br>-------- ------- -- ---------- --- - --- ----- ----- ----<br>---- --- --- ----- --- ---- ---- ------- ----- ---- -------<br>--- --- -- ----- -- --- ---- -- --- even -- ------ ------<br>--- ----- -- ----,134806.26999999981,134804.75,134573.285,134582.71999999988,134589.451,134822.678,,48,even
screen,html.Screen,1_1_0_1_49,2021-04-22T07:26:33.186Z,,,,,,,,,,,,,,,,53,,,,,,,,,,,,,,216.52699999979814,,response,,,,99,,,,,,,Space,keypress(Space),,,,,,,,---- -- ----- -- ------ - ------- --- ----------<br>------------- ------ ------ ---- ---- ------- ----- -- ----<br>-------- ------- -- ---------- --- - --- ----- ----- ----<br>---- --- --- ----- --- ---- ---- ------- ----- ---- -------<br>--- --- -- ----- -- --- ---- -- --- ---- if ------ ------<br>--- ----- -- ----,135040.1649999999,135039.2049999998,134806.013,134806.4549999999,134822.678,135054.735,,49,if
screen,html.Screen,1_1_0_1_50,2021-04-22T07:26:33.420Z,,,,,,,,,,,,,,,,53,,,,,,,,,,,,,,220.43499999991036,,response,,,,99,,,,,,,Space,keypress(Space),,,,,,,,---- -- ----- -- ------ - ------- --- ----------<br>------------- ------ ------ ---- ---- ------- ----- -- ----<br>-------- ------- -- ---------- --- - --- ----- ----- ----<br>---- --- --- ----- --- ---- ---- ------- ----- ---- -------<br>--- --- -- ----- -- --- ---- -- --- ---- -- that's ------<br>--- ----- -- ----,135276.02000000002,135275.1699999999,135038.688,135040.34499999988,135054.735,135287.532,,50,that's
screen,html.Screen,1_1_0_1_51,2021-04-22T07:26:33.683Z,,,,,,,,,,,,,,,,53,,,,,,,,,,,,,,249.43799999987823,,response,,,,99,,,,,,,Space,keypress(Space),,,,,,,,---- -- ----- -- ------ - ------- --- ----------<br>------------- ------ ------ ---- ---- ------- ----- -- ----<br>-------- ------- -- ---------- --- - --- ----- ----- ----<br>---- --- --- ----- --- ---- ---- ------- ----- ---- -------<br>--- --- -- ----- -- --- ---- -- --- ---- -- ------ really<br>--- ----- -- ----,135538.44499999992,135536.96999999988,135272.615,135276.2,135287.532,135553.938,,51,really
screen,html.Screen,1_1_0_1_52,2021-04-22T07:26:33.971Z,,,,,,,,,,,,,,,,53,,,,,,,,,,,,,,271.8869999999006,,response,,,,99,,,,,,,Space,keypress(Space),,,,,,,,---- -- ----- -- ------ - ------- --- ----------<br>------------- ------ ------ ---- ---- ------- ----- -- ----<br>-------- ------- -- ---------- --- - --- ----- ----- ----<br>---- --- --- ----- --- ---- ---- ------- ----- ---- -------<br>--- --- -- ----- -- --- ---- -- --- ---- -- ------ ------<br>not ----- -- ----,135826.81000000003,135825.8249999999,135537.888,135538.6249999999,135553.938,135836.327,,52,not
screen,html.Screen,1_1_0_1_53,2021-04-22T07:26:34.206Z,,,,,,,,,,,,,,,,53,,,,,,,,,,,,,,223.55799999990268,,response,,,,99,,,,,,,Space,keypress(Space),,,,,,,,---- -- ----- -- ------ - ------- --- ----------<br>------------- ------ ------ ---- ---- ------- ----- -- ----<br>-------- ------- -- ---------- --- - --- ----- ----- ----<br>---- --- --- ----- --- ---- ---- ------- ----- ---- -------<br>--- --- -- ----- -- --- ---- -- --- ---- -- ------ ------<br>--- close -- ----,136062.02499999994,136059.8849999999,135820.034,135826.98499999993,135836.327,136068.75,,53,close
screen,html.Screen,1_1_0_1_54,2021-04-22T07:26:34.435Z,,,,,,,,,,,,,,,,53,,,,,,,,,,,,,,220.67499999993015,,response,,,,99,,,,,,,Space,keypress(Space),,,,,,,,---- -- ----- -- ------ - ------- --- ----------<br>------------- ------ ------ ---- ---- ------- ----- -- ----<br>-------- ------- -- ---------- --- - --- ----- ----- ----<br>---- --- --- ----- --- ---- ---- ------- ----- ---- -------<br>--- --- -- ----- -- --- ---- -- --- ---- -- ------ ------<br>--- ----- at ----,136290.4199999998,136289.42499999993,136053.198,136062.20999999982,136068.75,136301.383,,54,at
screen,html.Screen,1_1_0_1_55,2021-04-22T07:26:34.798Z,,,,,,,,,,,,,,,,53,,,,,,,,,,,,,,350.9769999998098,,response,,,,99,,,,,,,Space,keypress(Space),,,,,,,,---- -- ----- -- ------ - ------- --- ----------<br>------------- ------ ------ ---- ---- ------- ----- -- ----<br>-------- ------- -- ---------- --- - --- ----- ----- ----<br>---- --- --- ----- --- ---- ---- ------- ----- ---- -------<br>--- --- -- ----- -- --- ---- -- --- ---- -- ------ ------<br>--- ----- -- all.,136653.7999999998,136652.3599999998,136285.278,136290.5999999998,136301.383,136667.015,,55,all.
Item 99,flow.Loop,1_1_0_1,2021-04-22T07:26:34.798Z,,,,,,,,,,,,,,,,,,,,,,,,,,,,,,18202.115999999805,,completion,,,,,D,,,,,,,,,,,silence,,,,,136654.15999999983,136652.3599999998,118401.009,118402.04999999992,118450.244,136667.015,,,
Question 1,html.Screen,1_1_0_2,2021-04-22T07:26:41.862Z,,,,,,,,,,,,,,,,,,,,,,,,,,,true,FALSE,,7048.669999999867,,response,,,,99,D,,,,,,FALSE,click #choice-2,,,,silence,,,,,143717.4249999998,143715.68499999988,136651.785,136654.32499999998,136667.015,143747.792,,,
Question 2,html.Screen,1_1_0_3,2021-04-22T07:26:47.245Z,,,,,,,,,,,,,,,,,,,,,,,,,,,true,TRUE,,5350.583000000042,,response,,,,99,D,,,,,,TRUE,click #choice-1,,,,silence,,,,,149100.43999999994,149098.37500000003,143731.224,143717.58999999997,143747.792,149123.149,,,
Item 99,flow.Sequence,1_1_0,2021-04-22T07:26:47.245Z,,,,,,,,,,,,,,,,,,,,,,,,,,,,,,40687.30900000002,,completion,,,,,,,,,,,,,,,,,,,,,149100.725,149098.37500000003,108394.911,108401.76999999995,108411.066,149123.149,,,
Holding screen,html.Screen,1_1_1_0,2021-04-22T07:26:57.251Z,,,,,,,,,,,,,,,,,,,,,,,,,,,,,,9999.008000000002,,timeout,,,,,,,,,,,,,,,,,,,,,159107.08499999988,159106.213,149084.104,149100.905,149123.149,159122.157,,,
screen,html.Screen,1_1_1_1_0,2021-04-22T07:26:59.434Z,,,,,,,,,,,,,,,,54,,,,,,,,,,,,,,2165.1779999999853,,response,,,,100,,,,,,,Space,keypress(Space),,,,,,,,At --- ---- --- ------ ----- ------- ---- -- --- ------- --<br>------- ---------- ------ -- ----- -- ----- -- ---- ------<br>--- ----- --- --- ------ -------- ----- --- ------ ----- --<br>----- ----- ---------- --- --- ------ ------ ---- -- ------<br>------- --- ------ ----- --- ---- ------- -- ---- --- --<br>------- ------,161289.94499999998,161287.335,159106.213,159107.3299999998,159122.157,161316.654,,0,At
screen,html.Screen,1_1_1_1_1,2021-04-22T07:27:00.028Z,,,,,,,,,,,,,,,,54,,,,,,,,,,,,,,566.2309999999707,,response,,,,100,,,,,,,Space,keypress(Space),,,,,,,,-- the ---- --- ------ ----- ------- ---- -- --- ------- --<br>------- ---------- ------ -- ----- -- ----- -- ---- ------<br>--- ----- --- --- ------ -------- ----- --- ------ ----- --<br>----- ----- ---------- --- --- ------ ------ ---- -- ------<br>------- --- ------ ----- --- ---- ------- -- ---- --- --<br>------- ------,161883.86999999988,161882.88499999998,161300.233,161290.13499999995,161316.654,161898.591,,1,the
screen,html.Screen,1_1_1_1_2,2021-04-22T07:27:00.436Z,,,,,,,,,,,,,,,,54,,,,,,,,,,,,,,391.87899999992806,,response,,,,100,,,,,,,Space,keypress(Space),,,,,,,,-- --- time --- ------ ----- ------- ---- -- --- ------- --<br>------- ---------- ------ -- ----- -- ----- -- ---- ------<br>--- ----- --- --- ------ -------- ----- --- ------ ----- --<br>----- ----- ---------- --- --- ------ ------ ---- -- ------<br>------- --- ------ ----- --- ---- ------- -- ---- --- --<br>------- ------,162291.925,162290.4699999999,161882.963,161884.0499999999,161898.591,162297.281,,2,time
screen,html.Screen,1_1_1_1_3,2021-04-22T07:27:00.787Z,,,,,,,,,,,,,,,,54,,,,,,,,,,,,,,344.09399999992456,,response,,,,100,,,,,,,Space,keypress(Space),,,,,,,,-- --- ---- the ------ ----- ------- ---- -- --- ------- --<br>------- ---------- ------ -- ----- -- ----- -- ---- ------<br>--- ----- --- --- ------ -------- ----- --- ------ ----- --<br>----- ----- ---------- --- --- ------ ------ ---- -- ------<br>------- --- ------ ----- --- ---- ------- -- ---- --- --<br>------- ------,162642.83499999988,162641.3749999999,162281.798,162292.11999999985,162297.281,162645.841,,3,the
screen,html.Screen,1_1_1_1_4,2021-04-22T07:27:01.040Z,,,,,,,,,,,,,,,,54,,,,,,,,,,,,,,248.93400000000838,,response,,,,100,,,,,,,Space,keypress(Space),,,,,,,,-- --- ---- --- French ----- ------- ---- -- --- ------- --<br>------- ---------- ------ -- ----- -- ----- -- ---- ------<br>--- ----- --- --- ------ -------- ----- --- ------ ----- --<br>----- ----- ---------- --- --- ------ ------ ---- -- ------<br>------- --- ------ ----- --- ---- ------- -- ---- --- --<br>------- ------,162895.7949999999,162894.775,162630.538,162643.02,162645.841,162912.3,,4,French
screen,html.Screen,1_1_1_1_5,2021-04-22T07:27:01.299Z,,,,,,,,,,,,,,,,54,,,,,,,,,,,,,,241.18499999982305,,response,,,,100,,,,,,,Space,keypress(Space),,,,,,,,-- --- ---- --- ------ crown ------- ---- -- --- ------- --<br>------- ---------- ------ -- ----- -- ----- -- ---- ------<br>--- ----- --- --- ------ -------- ----- --- ------ ----- --<br>----- ----- ---------- --- --- ------ ------ ---- -- ------<br>------- --- ------ ----- --- ---- ------- -- ---- --- --<br>------- ------,163154.945,163153.4849999998,162895.845,162895.98499999987,162912.3,163161.371,,5,crown
screen,html.Screen,1_1_1_1_6,2021-04-22T07:27:01.554Z,,,,,,,,,,,,,,,,54,,,,,,,,,,,,,,247.2689999998547,,response,,,,100,,,,,,,Space,keypress(Space),,,,,,,,-- --- ---- --- ------ ----- secured ---- -- --- ------- --<br>------- ---------- ------ -- ----- -- ----- -- ---- ------<br>--- ----- --- --- ------ -------- ----- --- ------ ----- --<br>----- ----- ---------- --- --- ------ ------ ---- -- ------<br>------- --- ------ ----- --- ---- ------- -- ---- --- --<br>------- ------,163410.09499999994,163408.63999999987,163145.026,163155.12999999986,163161.371,163427.718,,6,secured
screen,html.Screen,1_1_1_1_7,2021-04-22T07:27:02.341Z,,,,,,,,,,,,,,,,54,,,,,,,,,,,,,,767.5819999998785,,response,,,,100,,,,,,,Space,keypress(Space),,,,,,,,-- --- ---- --- ------ ----- ------- much -- --- ------- --<br>------- ---------- ------ -- ----- -- ----- -- ---- ------<br>--- ----- --- --- ------ -------- ----- --- ------ ----- --<br>----- ----- ---------- --- --- ------ ------ ---- -- ------<br>------- --- ------ ----- --- ---- ------- -- ---- --- --<br>------- ------,164196.82499999998,164195.29999999987,163394.426,163410.33500000002,163427.718,164208.318,,7,much
screen,html.Screen,1_1_1_1_8,2021-04-22T07:27:02.597Z,,,,,,,,,,,,,,,,54,,,,,,,,,,,,,,243.15199999997276,,response,,,,100,,,,,,,Space,keypress(Space),,,,,,,,-- --- ---- --- ------ ----- ------- ---- of --- ------- --<br>------- ---------- ------ -- ----- -- ----- -- ---- ------<br>--- ----- --- --- ------ -------- ----- --- ------ ----- --<br>----- ----- ---------- --- --- ------ ------ ---- -- ------<br>------- --- ------ ----- --- ---- ------- -- ---- --- --<br>------- ------,164452.45,164451.46999999997,164194.085,164197.00999999986,164208.318,164457.55,,8,of
screen,html.Screen,1_1_1_1_9,2021-04-22T07:27:02.858Z,,,,,,,,,,,,,,,,54,,,,,,,,,,,,,,255.7799999998242,,response,,,,100,,,,,,,Space,keypress(Space),,,,,,,,-- --- ---- --- ------ ----- ------- ---- -- its ------- --<br>------- ---------- ------ -- ----- -- ----- -- ---- ------<br>--- ----- --- --- ------ -------- ----- --- ------ ----- --<br>----- ----- ---------- --- --- ------ ------ ---- -- ------<br>------- --- ------ ----- --- ---- ------- -- ---- --- --<br>------- ------,164714.3349999999,164713.3299999998,164442.151,164452.63499999986,164457.55,164724.013,,9,its
screen,html.Screen,1_1_1_1_10,2021-04-22T07:27:03.138Z,,,,,,,,,,,,,,,,54,,,,,,,,,,,,,,268.49199999994016,,response,,,,100,,,,,,,Space,keypress(Space),,,,,,,,-- --- ---- --- ------ ----- ------- ---- -- --- revenue --<br>------- ---------- ------ -- ----- -- ----- -- ---- ------<br>--- ----- --- --- ------ -------- ----- --- ------ ----- --<br>----- ----- ---------- --- --- ------ ------ ---- -- ------<br>------- --- ------ ----- --- ---- ------- -- ---- --- --<br>------- ------,164993.96000000002,164992.50499999995,164707.95,164714.52,164724.013,165006.015,,10,revenue
screen,html.Screen,1_1_1_1_11,2021-04-22T07:27:03.643Z,,,,,,,,,,,,,,,,54,,,,,,,,,,,,,,491.8049999998184,,response,,,,100,,,,,,,Space,keypress(Space),,,,,,,,-- --- ---- --- ------ ----- ------- ---- -- --- ------- by<br>------- ---------- ------ -- ----- -- ----- -- ---- ------<br>--- ----- --- --- ------ -------- ----- --- ------ ----- --<br>----- ----- ---------- --- --- ------ ------ ---- -- ------<br>------- --- ------ ----- --- ---- ------- -- ---- --- --<br>------- ------,165499.37499999988,165497.81999999983,164990.59,164994.1449999999,165006.015,165504.693,,11,by
screen,html.Screen,1_1_1_1_12,2021-04-22T07:27:04.063Z,,,,,,,,,,,,,,,,54,,,,,,,,,,,,,,412.3819999998377,,response,,,,100,,,,,,,Space,keypress(Space),,,,,,,,-- --- ---- --- ------ ----- ------- ---- -- --- ------- --<br>issuing ---------- ------ -- ----- -- ----- -- ---- ------<br>--- ----- --- --- ------ -------- ----- --- ------ ----- --<br>----- ----- ---------- --- --- ------ ------ ---- -- ------<br>------- --- ------ ----- --- ---- ------- -- ---- --- --<br>------- ------,165918.54999999987,165917.07499999984,165489.292,165499.56499999986,165504.693,165937.481,,12,issuing
screen,html.Screen,1_1_1_1_13,2021-04-22T07:27:04.464Z,,,,,,,,,,,,,,,,54,,,,,,,,,,,,,,381.1039999999921,,response,,,,100,,,,,,,Space,keypress(Space),,,,,,,,-- --- ---- --- ------ ----- ------- ---- -- --- ------- --<br>------- government ------ -- ----- -- ----- -- ---- ------<br>--- ----- --- --- ------ -------- ----- --- ------ ----- --<br>----- ----- ---------- --- --- ------ ------ ---- -- ------<br>------- --- ------ ----- --- ---- ------- -- ---- --- --<br>------- ------,166320.04499999993,166318.585,165904.572,165918.74499999994,165937.481,166352.85,,13,government
screen,html.Screen,1_1_1_1_14,2021-04-22T07:27:04.927Z,,,,,,,,,,,,,,,,54,,,,,,,,,,,,,,429.6699999999837,,response,,,,100,,,,,,,Space,keypress(Space),,,,,,,,-- --- ---- --- ------ ----- ------- ---- -- --- ------- --<br>------- ---------- bonds. -- ----- -- ----- -- ---- ------<br>--- ----- --- --- ------ -------- ----- --- ------ ----- --<br>----- ----- ---------- --- --- ------ ------ ---- -- ------<br>------- --- ------ ----- --- ---- ------- -- ---- --- --<br>------- ------,166783.33999999997,166782.52,166336.425,166320.22499999995,166352.85,166802.623,,14,bonds.
screen,html.Screen,1_1_1_1_15,2021-04-22T07:27:05.552Z,,,,,,,,,,,,,,,,54,,,,,,,,,,,,,,603.5619999998307,,response,,,,100,,,,,,,Space,keypress(Space),,,,,,,,-- --- ---- --- ------ ----- ------- ---- -- --- ------- --<br>------- ---------- ------ In ----- -- ----- -- ---- ------<br>--- ----- --- --- ------ -------- ----- --- ------ ----- --<br>----- ----- ---------- --- --- ------ ------ ---- -- ------<br>------- --- ------ ----- --- ---- ------- -- ---- --- --<br>------- ------,167407.64999999988,167406.18499999982,166769.004,166783.52499999982,166802.623,167416.145,,15,In
screen,html.Screen,1_1_1_1_16,2021-04-22T07:27:05.970Z,,,,,,,,,,,,,,,,54,,,,,,,,,,,,,,407.97999999986496,,response,,,,100,,,,,,,Space,keypress(Space),,,,,,,,"-- --- ---- --- ------ ----- ------- ---- -- --- ------- --<br>------- ---------- ------ -- 1727, -- ----- -- ---- ------<br>--- ----- --- --- ------ -------- ----- --- ------ ----- --<br>----- ----- ---------- --- --- ------ ------ ---- -- ------<br>------- --- ------ ----- --- ---- ------- -- ---- --- --<br>------- ------",167825.59500000003,167824.12499999985,167401.509,167407.82999999987,167416.145,167832.053,,16,"1727,"
screen,html.Screen,1_1_1_1_17,2021-04-22T07:27:06.498Z,,,,,,,,,,,,,,,,54,,,,,,,,,,,,,,520.5469999999332,,response,,,,100,,,,,,,Space,keypress(Space),,,,,,,,-- --- ---- --- ------ ----- ------- ---- -- --- ------- --<br>------- ---------- ------ -- ----- in ----- -- ---- ------<br>--- ----- --- --- ------ -------- ----- --- ------ ----- --<br>----- ----- ---------- --- --- ------ ------ ---- -- ------<br>------- --- ------ ----- --- ---- ------- -- ---- --- --<br>------- ------,168354.06999999986,168352.59999999995,167816.502,167825.77500000002,167832.053,168363.558,,17,in
screen,html.Screen,1_1_1_1_18,2021-04-22T07:27:07.639Z,,,,,,,,,,,,,,,,54,,,,,,,,,,,,,,1130.106999999989,,response,,,,100,,,,,,,Space,keypress(Space),,,,,,,,-- --- ---- --- ------ ----- ------- ---- -- --- ------- --<br>------- ---------- ------ -- ----- -- order -- ---- ------<br>--- ----- --- --- ------ -------- ----- --- ------ ----- --<br>----- ----- ---------- --- --- ------ ------ ---- -- ------<br>------- --- ------ ----- --- ---- ------- -- ---- --- --<br>------- ------,169495.20499999993,169493.66499999998,168348.681,168354.25499999998,168363.558,169511.043,,18,order
screen,html.Screen,1_1_1_1_19,2021-04-22T07:27:07.982Z,,,,,,,,,,,,,,,,54,,,,,,,,,,,,,,325.24199999985285,,response,,,,100,,,,,,,Space,keypress(Space),,,,,,,,-- --- ---- --- ------ ----- ------- ---- -- --- ------- --<br>------- ---------- ------ -- ----- -- ----- to ---- ------<br>--- ----- --- --- ------ -------- ----- --- ------ ----- --<br>----- ----- ---------- --- --- ------ ------ ---- -- ------<br>------- --- ------ ----- --- ---- ------- -- ---- --- --<br>------- ------,169837.78499999995,169836.28499999986,169480.638,169495.3899999998,169511.043,169842.832,,19,to
screen,html.Screen,1_1_1_1_20,2021-04-22T07:27:08.276Z,,,,,,,,,,,,,,,,54,,,,,,,,,,,,,,287.52799999987474,,response,,,,100,,,,,,,Space,keypress(Space),,,,,,,,-- --- ---- --- ------ ----- ------- ---- -- --- ------- --<br>------- ---------- ------ -- ----- -- ----- -- save ------<br>--- ----- --- --- ------ -------- ----- --- ------ ----- --<br>----- ----- ---------- --- --- ------ ------ ---- -- ------<br>------- --- ------ ----- --- ---- ------- -- ---- --- --<br>------- ------,170131.895,170130.35999999987,169827.424,169837.96999999983,169842.832,170141.994,,20,save
screen,html.Screen,1_1_1_1_21,2021-04-22T07:27:08.575Z,,,,,,,,,,,,,,,,54,,,,,,,,,,,,,,287.66599999999744,,response,,,,100,,,,,,,Space,keypress(Space),,,,,,,,"-- --- ---- --- ------ ----- ------- ---- -- --- ------- --<br>------- ---------- ------ -- ----- -- ----- -- ---- money,<br>--- ----- --- --- ------ -------- ----- --- ------ ----- --<br>----- ----- ---------- --- --- ------ ------ ---- -- ------<br>------- --- ------ ----- --- ---- ------- -- ---- --- --<br>------- ------",170430.73499999993,170429.66,170126.517,170132.08499999996,170141.994,170441.198,,21,"money,"
screen,html.Screen,1_1_1_1_22,2021-04-22T07:27:08.966Z,,,,,,,,,,,,,,,,54,,,,,,,,,,,,,,380.226999999868,,response,,,,100,,,,,,,Space,keypress(Space),,,,,,,,-- --- ---- --- ------ ----- ------- ---- -- --- ------- --<br>------- ---------- ------ -- ----- -- ----- -- ---- ------<br>the ----- --- --- ------ -------- ----- --- ------ ----- --<br>----- ----- ---------- --- --- ------ ------ ---- -- ------<br>------- --- ------ ----- --- ---- ------- -- ---- --- --<br>------- ------,170822.38499999995,170821.42499999987,170425.251,170430.96999999988,170441.198,170844.869,,22,the
screen,html.Screen,1_1_1_1_23,2021-04-22T07:27:09.211Z,,,,,,,,,,,,,,,,54,,,,,,,,,,,,,,220.57099999985076,,response,,,,100,,,,,,,Space,keypress(Space),,,,,,,,-- --- ---- --- ------ ----- ------- ---- -- --- ------- --<br>------- ---------- ------ -- ----- -- ----- -- ---- ------<br>--- state --- --- ------ -------- ----- --- ------ ----- --<br>----- ----- ---------- --- --- ------ ------ ---- -- ------<br>------- --- ------ ----- --- ---- ------- -- ---- --- --<br>------- ------,171066.96999999986,171065.43999999986,170808.453,170822.56499999994,170844.869,171073.171,,23,state
screen,html.Screen,1_1_1_1_24,2021-04-22T07:27:11.199Z,,,,,,,,,,,,,,,,54,,,,,,,,,,,,,,1981.2039999999397,,response,,,,100,,,,,,,Space,keypress(Space),,,,,,,,-- --- ---- --- ------ ----- ------- ---- -- --- ------- --<br>------- ---------- ------ -- ----- -- ----- -- ---- ------<br>--- ----- cut --- ------ -------- ----- --- ------ ----- --<br>----- ----- ---------- --- --- ------ ------ ---- -- ------<br>------- --- ------ ----- --- ---- ------- -- ---- --- --<br>------- ------,173055.31999999995,173054.37499999994,171057.114,171067.14999999985,171073.171,173067.983,,24,cut
screen,html.Screen,1_1_1_1_25,2021-04-22T07:27:11.544Z,,,,,,,,,,,,,,,,54,,,,,,,,,,,,,,331.1669999999576,,response,,,,100,,,,,,,Space,keypress(Space),,,,,,,,-- --- ---- --- ------ ----- ------- ---- -- --- ------- --<br>------- ---------- ------ -- ----- -- ----- -- ---- ------<br>--- ----- --- the ------ -------- ----- --- ------ ----- --<br>----- ----- ---------- --- --- ------ ------ ---- -- ------<br>------- --- ------ ----- --- ---- ------- -- ---- --- --<br>------- ------,173400.12000000002,173399.14999999997,173039.723,173055.49999999994,173067.983,173417.045,,25,the
screen,html.Screen,1_1_1_1_26,2021-04-22T07:27:11.940Z,,,,,,,,,,,,,,,,54,,,,,,,,,,,,,,377.3949999998731,,response,,,,100,,,,,,,Space,keypress(Space),,,,,,,,-- --- ---- --- ------ ----- ------- ---- -- --- ------- --<br>------- ---------- ------ -- ----- -- ----- -- ---- ------<br>--- ----- --- --- bonds' -------- ----- --- ------ ----- --<br>----- ----- ---------- --- --- ------ ------ ---- -- ------<br>------- --- ------ ----- --- ---- ------- -- ---- --- --<br>------- ------,173795.40499999985,173794.4399999999,173384.352,173400.30499999988,173417.045,173798.652,,26,bonds'
screen,html.Screen,1_1_1_1_27,2021-04-22T07:27:12.344Z,,,,,,,,,,,,,,,,54,,,,,,,,,,,,,,399.9180000000051,,response,,,,100,,,,,,,Space,keypress(Space),,,,,,,,-- --- ---- --- ------ ----- ------- ---- -- --- ------- --<br>------- ---------- ------ -- ----- -- ----- -- ---- ------<br>--- ----- --- --- ------ interest ----- --- ------ ----- --<br>----- ----- ---------- --- --- ------ ------ ---- -- ------<br>------- --- ------ ----- --- ---- ------- -- ---- --- --<br>------- ------,174200.0949999999,174198.57,173783.394,173795.58499999985,173798.652,174214.746,,27,interest
screen,html.Screen,1_1_1_1_28,2021-04-22T07:27:12.708Z,,,,,,,,,,,,,,,,54,,,,,,,,,,,,,,347.19399999981397,,response,,,,100,,,,,,,Space,keypress(Space),,,,,,,,-- --- ---- --- ------ ----- ------- ---- -- --- ------- --<br>------- ---------- ------ -- ----- -- ----- -- ---- ------<br>--- ----- --- --- ------ -------- rate. --- ------ ----- --<br>----- ----- ---------- --- --- ------ ------ ---- -- ------<br>------- --- ------ ----- --- ---- ------- -- ---- --- --<br>------- ------,174563.41499999986,174561.93999999983,174198.826,174200.28000000003,174214.746,174596.548,,28,rate.
screen,html.Screen,1_1_1_1_29,2021-04-22T07:27:13.029Z,,,,,,,,,,,,,,,,54,,,,,,,,,,,,,,287.10699999984354,,response,,,,100,,,,,,,Space,keypress(Space),,,,,,,,-- --- ---- --- ------ ----- ------- ---- -- --- ------- --<br>------- ---------- ------ -- ----- -- ----- -- ---- ------<br>--- ----- --- --- ------ -------- ----- The ------ ----- --<br>----- ----- ---------- --- --- ------ ------ ---- -- ------<br>------- --- ------ ----- --- ---- ------- -- ---- --- --<br>------- ------,174884.63,174883.65499999985,174580.424,174563.59999999995,174596.548,174896.133,,29,The
screen,html.Screen,1_1_1_1_30,2021-04-22T07:27:13.296Z,,,,,,,,,,,,,,,,54,,,,,,,,,,,,,,254.5919999999751,,response,,,,100,,,,,,,Space,keypress(Space),,,,,,,,-- --- ---- --- ------ ----- ------- ---- -- --- ------- --<br>------- ---------- ------ -- ----- -- ----- -- ---- ------<br>--- ----- --- --- ------ -------- ----- --- market ----- --<br>----- ----- ---------- --- --- ------ ------ ---- -- ------<br>------- --- ------ ----- --- ---- ------- -- ---- --- --<br>------- ------,175151.695,175150.72499999998,174879.777,174884.8149999999,174896.133,175161.562,,30,market
screen,html.Screen,1_1_1_1_31,2021-04-22T07:27:13.552Z,,,,,,,,,,,,,,,,54,,,,,,,,,,,,,,244.7129999998142,,response,,,,100,,,,,,,Space,keypress(Space),,,,,,,,-- --- ---- --- ------ ----- ------- ---- -- --- ------- --<br>------- ---------- ------ -- ----- -- ----- -- ---- ------<br>--- ----- --- --- ------ -------- ----- --- ------ value --<br>----- ----- ---------- --- --- ------ ------ ---- -- ------<br>------- --- ------ ----- --- ---- ------- -- ---- --- --<br>------- ------,175407.98999999993,175406.27499999982,175146.245,175151.88499999998,175161.562,175410.881,,31,value
screen,html.Screen,1_1_1_1_32,2021-04-22T07:27:13.795Z,,,,,,,,,,,,,,,,54,,,,,,,,,,,,,,238.76399999996647,,response,,,,100,,,,,,,Space,keypress(Space),,,,,,,,-- --- ---- --- ------ ----- ------- ---- -- --- ------- --<br>------- ---------- ------ -- ----- -- ----- -- ---- ------<br>--- ----- --- --- ------ -------- ----- --- ------ ----- of<br>----- ----- ---------- --- --- ------ ------ ---- -- ------<br>------- --- ------ ----- --- ---- ------- -- ---- --- --<br>------- ------,175651.12,175649.64499999996,175394.692,175408.17500000002,175410.881,175660.242,,32,of
screen,html.Screen,1_1_1_1_33,2021-04-22T07:27:14.044Z,,,,,,,,,,,,,,,,54,,,,,,,,,,,,,,239.0680000000284,,response,,,,100,,,,,,,Space,keypress(Space),,,,,,,,-- --- ---- --- ------ ----- ------- ---- -- --- ------- --<br>------- ---------- ------ -- ----- -- ----- -- ---- ------<br>--- ----- --- --- ------ -------- ----- --- ------ ----- --<br>these ----- ---------- --- --- ------ ------ ---- -- ------<br>------- --- ------ ----- --- ---- ------- -- ---- --- --<br>------- ------,175900.24499999982,175899.31000000003,175644.237,175651.3,175660.242,175909.518,,33,these
screen,html.Screen,1_1_1_1_34,2021-04-22T07:27:14.289Z,,,,,,,,,,,,,,,,54,,,,,,,,,,,,,,234.10199999980978,,response,,,,100,,,,,,,Space,keypress(Space),,,,,,,,-- --- ---- --- ------ ----- ------- ---- -- --- ------- --<br>------- ---------- ------ -- ----- -- ----- -- ---- ------<br>--- ----- --- --- ------ -------- ----- --- ------ ----- --<br>----- bonds ---------- --- --- ------ ------ ---- -- ------<br>------- --- ------ ----- --- ---- ------- -- ---- --- --<br>------- ------,176144.44000000003,176143.61999999982,175894.162,175900.4249999998,175909.518,176159.482,,34,bonds
screen,html.Screen,1_1_1_1_35,2021-04-22T07:27:14.493Z,,,,,,,,,,,,,,,,54,,,,,,,,,,,,,,188.85800000000745,,response,,,,100,,,,,,,Space,keypress(Space),,,,,,,,"-- --- ---- --- ------ ----- ------- ---- -- --- ------- --<br>------- ---------- ------ -- ----- -- ----- -- ---- ------<br>--- ----- --- --- ------ -------- ----- --- ------ ----- --<br>----- ----- plummeted, --- --- ------ ------ ---- -- ------<br>------- --- ------ ----- --- ---- ------- -- ---- --- --<br>------- ------",176349.32000000004,176348.34,176143.427,176144.6249999999,176159.482,176358.315,,35,"plummeted,"
screen,html.Screen,1_1_1_1_36,2021-04-22T07:27:14.719Z,,,,,,,,,,,,,,,,54,,,,,,,,,,,,,,215.14999999993597,,response,,,,100,,,,,,,Space,keypress(Space),,,,,,,,-- --- ---- --- ------ ----- ------- ---- -- --- ------- --<br>------- ---------- ------ -- ----- -- ----- -- ---- ------<br>--- ----- --- --- ------ -------- ----- --- ------ ----- --<br>----- ----- ---------- and --- ------ ------ ---- -- ------<br>------- --- ------ ----- --- ---- ------- -- ---- --- --<br>------- ------,176575.01,176573.46499999994,176342.805,176349.50000000003,176358.315,176608.168,,36,and
screen,html.Screen,1_1_1_1_37,2021-04-22T07:27:15.071Z,,,,,,,,,,,,,,,,54,,,,,,,,,,,,,,316.6819999998843,,response,,,,100,,,,,,,Space,keypress(Space),,,,,,,,-- --- ---- --- ------ ----- ------- ---- -- --- ------- --<br>------- ---------- ------ -- ----- -- ----- -- ---- ------<br>--- ----- --- --- ------ -------- ----- --- ------ ----- --<br>----- ----- ---------- --- the ------ ------ ---- -- ------<br>------- --- ------ ----- --- ---- ------- -- ---- --- --<br>------- ------,176926.39499999996,176924.8499999999,176591.659,176575.1949999999,176608.168,176940.591,,37,the
screen,html.Screen,1_1_1_1_38,2021-04-22T07:27:15.331Z,,,,,,,,,,,,,,,,54,,,,,,,,,,,,,,245.30899999995017,,response,,,,100,,,,,,,Space,keypress(Space),,,,,,,,-- --- ---- --- ------ ----- ------- ---- -- --- ------- --<br>------- ---------- ------ -- ----- -- ----- -- ---- ------<br>--- ----- --- --- ------ -------- ----- --- ------ ----- --<br>----- ----- ---------- --- --- market ------ ---- -- ------<br>------- --- ------ ----- --- ---- ------- -- ---- --- --<br>------- ------,177186.84999999983,177185.89999999994,176924.204,176926.57499999995,176940.591,177189.389,,38,market
screen,html.Screen,1_1_1_1_39,2021-04-22T07:27:15.592Z,,,,,,,,,,,,,,,,54,,,,,,,,,,,,,,257.26599999997416,,response,,,,100,,,,,,,Space,keypress(Space),,,,,,,,-- --- ---- --- ------ ----- ------- ---- -- --- ------- --<br>------- ---------- ------ -- ----- -- ----- -- ---- ------<br>--- ----- --- --- ------ -------- ----- --- ------ ----- --<br>----- ----- ---------- --- --- ------ became ---- -- ------<br>------- --- ------ ----- --- ---- ------- -- ---- --- --<br>------- ------,177448.12499999988,177446.65499999997,177173.942,177187.02499999994,177189.389,177455.261,,39,became
screen,html.Screen,1_1_1_1_40,2021-04-22T07:27:15.843Z,,,,,,,,,,,,,,,,54,,,,,,,,,,,,,,242.39399999994203,,response,,,,100,,,,,,,Space,keypress(Space),,,,,,,,-- --- ---- --- ------ ----- ------- ---- -- --- ------- --<br>------- ---------- ------ -- ----- -- ----- -- ---- ------<br>--- ----- --- --- ------ -------- ----- --- ------ ----- --<br>----- ----- ---------- --- --- ------ ------ wary -- ------<br>------- --- ------ ----- --- ---- ------- -- ---- --- --<br>------- ------,177698.63999999984,177697.65499999994,177439.717,177448.30499999988,177455.261,177704.653,,40,wary
screen,html.Screen,1_1_1_1_41,2021-04-22T07:27:16.124Z,,,,,,,,,,,,,,,,54,,,,,,,,,,,,,,273.70699999984936,,response,,,,100,,,,,,,Space,keypress(Space),,,,,,,,-- --- ---- --- ------ ----- ------- ---- -- --- ------- --<br>------- ---------- ------ -- ----- -- ----- -- ---- ------<br>--- ----- --- --- ------ -------- ----- --- ------ ----- --<br>----- ----- ---------- --- --- ------ ------ ---- of ------<br>------- --- ------ ----- --- ---- ------- -- ---- --- --<br>------- ------,177979.965,177978.35999999984,177689.131,177698.82499999995,177704.653,177987.23,,41,of
screen,html.Screen,1_1_1_1_42,2021-04-22T07:27:16.365Z,,,,,,,,,,,,,,,,54,,,,,,,,,,,,,,232.55999999985215,,response,,,,100,,,,,,,Space,keypress(Space),,,,,,,,-- --- ---- --- ------ ----- ------- ---- -- --- ------- --<br>------- ---------- ------ -- ----- -- ----- -- ---- ------<br>--- ----- --- --- ------ -------- ----- --- ------ ----- --<br>----- ----- ---------- --- --- ------ ------ ---- -- French<br>------- --- ------ ----- --- ---- ------- -- ---- --- --<br>------- ------,178220.75999999992,178219.78999999986,177971.632,177980.14999999988,177987.23,178236.966,,42,French
screen,html.Screen,1_1_1_1_43,2021-04-22T07:27:16.679Z,,,,,,,,,,,,,,,,54,,,,,,,,,,,,,,295.98400000005495,,response,,,,100,,,,,,,Space,keypress(Space),,,,,,,,-- --- ---- --- ------ ----- ------- ---- -- --- ------- --<br>------- ---------- ------ -- ----- -- ----- -- ---- ------<br>--- ----- --- --- ------ -------- ----- --- ------ ----- --<br>----- ----- ---------- --- --- ------ ------ ---- -- ------<br>credit. --- ------ ----- --- ---- ------- -- ---- --- --<br>------- ------,178534.455,178532.95000000004,178220.426,178220.93499999982,178236.966,178558.526,,43,credit.
screen,html.Screen,1_1_1_1_44,2021-04-22T07:27:17.226Z,,,,,,,,,,,,,,,,54,,,,,,,,,,,,,,521.8089999998629,,response,,,,100,,,,,,,Space,keypress(Space),,,,,,,,-- --- ---- --- ------ ----- ------- ---- -- --- ------- --<br>------- ---------- ------ -- ----- -- ----- -- ---- ------<br>--- ----- --- --- ------ -------- ----- --- ------ ----- --<br>----- ----- ---------- --- --- ------ ------ ---- -- ------<br>------- The ------ ----- --- ---- ------- -- ---- --- --<br>------- ------,179081.83499999996,179080.33499999988,178520.363,178534.68,178558.526,179084.147,,44,The
screen,html.Screen,1_1_1_1_45,2021-04-22T07:27:17.469Z,,,,,,,,,,,,,,,,54,,,,,,,,,,,,,,239.6030000000319,,response,,,,100,,,,,,,Space,keypress(Space),,,,,,,,-- --- ---- --- ------ ----- ------- ---- -- --- ------- --<br>------- ---------- ------ -- ----- -- ----- -- ---- ------<br>--- ----- --- --- ------ -------- ----- --- ------ ----- --<br>----- ----- ---------- --- --- ------ ------ ---- -- ------<br>------- --- French ----- --- ---- ------- -- ---- --- --<br>------- ------,179324.74499999988,179323.75000000003,179069.338,179082.01999999984,179084.147,179333.968,,45,French
screen,html.Screen,1_1_1_1_46,2021-04-22T07:27:17.698Z,,,,,,,,,,,,,,,,54,,,,,,,,,,,,,,219.1019999999553,,response,,,,100,,,,,,,Space,keypress(Space),,,,,,,,-- --- ---- --- ------ ----- ------- ---- -- --- ------- --<br>------- ---------- ------ -- ----- -- ----- -- ---- ------<br>--- ----- --- --- ------ -------- ----- --- ------ ----- --<br>----- ----- ---------- --- --- ------ ------ ---- -- ------<br>------- --- ------ state --- ---- ------- -- ---- --- --<br>------- ------,179553.89500000002,179553.06999999995,179317.878,179324.9249999999,179333.968,179566.674,,46,state
screen,html.Screen,1_1_1_1_47,2021-04-22T07:27:17.931Z,,,,,,,,,,,,,,,,54,,,,,,,,,,,,,,219.42600000003586,,response,,,,100,,,,,,,Space,keypress(Space),,,,,,,,-- --- ---- --- ------ ----- ------- ---- -- --- ------- --<br>------- ---------- ------ -- ----- -- ----- -- ---- ------<br>--- ----- --- --- ------ -------- ----- --- ------ ----- --<br>----- ----- ---------- --- --- ------ ------ ---- -- ------<br>------- --- ------ ----- was ---- ------- -- ---- --- --<br>------- ------,179787.05999999988,179786.10000000003,179550.592,179554.12499999988,179566.674,179799.355,,47,was
screen,html.Screen,1_1_1_1_48,2021-04-22T07:27:18.212Z,,,,,,,,,,,,,,,,54,,,,,,,,,,,,,,267.0799999999581,,response,,,,100,,,,,,,Space,keypress(Space),,,,,,,,-- --- ---- --- ------ ----- ------- ---- -- --- ------- --<br>------- ---------- ------ -- ----- -- ----- -- ---- ------<br>--- ----- --- --- ------ -------- ----- --- ------ ----- --<br>----- ----- ---------- --- --- ------ ------ ---- -- ------<br>------- --- ------ ----- --- left ------- -- ---- --- --<br>------- ------,180067.8949999999,180066.43499999997,179783.45,179787.24999999985,179799.355,180081.995,,48,left
screen,html.Screen,1_1_1_1_49,2021-04-22T07:27:18.445Z,,,,,,,,,,,,,,,,54,,,,,,,,,,,,,,218.20000000004075,,response,,,,100,,,,,,,Space,keypress(Space),,,,,,,,-- --- ---- --- ------ ----- ------- ---- -- --- ------- --<br>------- ---------- ------ -- ----- -- ----- -- ---- ------<br>--- ----- --- --- ------ -------- ----- --- ------ ----- --<br>----- ----- ---------- --- --- ------ ------ ---- -- ------<br>------- --- ------ ----- --- ---- without -- ---- --- --<br>------- ------,180301.18500000003,180300.19500000004,180066.112,180068.0749999999,180081.995,180314.692,,49,without
screen,html.Screen,1_1_1_1_50,2021-04-22T07:27:18.670Z,,,,,,,,,,,,,,,,54,,,,,,,,,,,,,,209.51799999980722,,response,,,,100,,,,,,,Space,keypress(Space),,,,,,,,-- --- ---- --- ------ ----- ------- ---- -- --- ------- --<br>------- ---------- ------ -- ----- -- ----- -- ---- ------<br>--- ----- --- --- ------ -------- ----- --- ------ ----- --<br>----- ----- ---------- --- --- ------ ------ ---- -- ------<br>------- --- ------ ----- --- ---- ------- an ---- --- --<br>------- ------,180525.67499999987,180524.20999999982,180298.701,180301.35999999993,180314.692,180530.731,,50,an
screen,html.Screen,1_1_1_1_51,2021-04-22T07:27:18.903Z,,,,,,,,,,,,,,,,54,,,,,,,,,,,,,,227.54900000002817,,response,,,,100,,,,,,,Space,keypress(Space),,,,,,,,-- --- ---- --- ------ ----- ------- ---- -- --- ------- --<br>------- ---------- ------ -- ----- -- ----- -- ---- ------<br>--- ----- --- --- ------ -------- ----- --- ------ ----- --<br>----- ----- ---------- --- --- ------ ------ ---- -- ------<br>------- --- ------ ----- --- ---- ------- -- easy --- --<br>------- ------,180759.32999999987,180758.28000000003,180514.654,180525.85499999986,180530.731,180762.947,,51,easy
screen,html.Screen,1_1_1_1_52,2021-04-22T07:27:19.110Z,,,,,,,,,,,,,,,,54,,,,,,,,,,,,,,201.0680000000284,,response,,,,100,,,,,,,Space,keypress(Space),,,,,,,,-- --- ---- --- ------ ----- ------- ---- -- --- ------- --<br>------- ---------- ------ -- ----- -- ----- -- ---- ------<br>--- ----- --- --- ------ -------- ----- --- ------ ----- --<br>----- ----- ---------- --- --- ------ ------ ---- -- ------<br>------- --- ------ ----- --- ---- ------- -- ---- way --<br>------- ------,180965.59000000003,180964.015,180747.285,180759.51499999996,180762.947,180979.529,,52,way
screen,html.Screen,1_1_1_1_53,2021-04-22T07:27:19.352Z,,,,,,,,,,,,,,,,54,,,,,,,,,,,,,,227.4309999999823,,response,,,,100,,,,,,,Space,keypress(Space),,,,,,,,-- --- ---- --- ------ ----- ------- ---- -- --- ------- --<br>------- ---------- ------ -- ----- -- ----- -- ---- ------<br>--- ----- --- --- ------ -------- ----- --- ------ ----- --<br>----- ----- ---------- --- --- ------ ------ ---- -- ------<br>------- --- ------ ----- --- ---- ------- -- ---- --- of<br>------- ------,181207.91999999984,181206.96,180963.28,180965.7749999999,180979.529,181211.75,,53,of
screen,html.Screen,1_1_1_1_54,2021-04-22T07:27:19.849Z,,,,,,,,,,,,,,,,54,,,,,,,,,,,,,,491.3949999999604,,response,,,,100,,,,,,,Space,keypress(Space),,,,,,,,-- --- ---- --- ------ ----- ------- ---- -- --- ------- --<br>------- ---------- ------ -- ----- -- ----- -- ---- ------<br>--- ----- --- --- ------ -------- ----- --- ------ ----- --<br>----- ----- ---------- --- --- ------ ------ ---- -- ------<br>------- --- ------ ----- --- ---- ------- -- ---- --- --<br>raising ------,181704.61000000002,181703.14499999996,181196.246,181208.09999999983,181211.75,181710.298,,54,raising
screen,html.Screen,1_1_1_1_55,2021-04-22T07:27:20.088Z,,,,,,,,,,,,,,,,54,,,,,,,,,,,,,,232.66699999995762,,response,,,,100,,,,,,,Space,keypress(Space),,,,,,,,-- --- ---- --- ------ ----- ------- ---- -- --- ------- --<br>------- ---------- ------ -- ----- -- ----- -- ---- ------<br>--- ----- --- --- ------ -------- ----- --- ------ ----- --<br>----- ----- ---------- --- --- ------ ------ ---- -- ------<br>------- --- ------ ----- --- ---- ------- -- ---- --- --<br>------- money.,181943.95499999996,181942.96499999997,181695.366,181704.79499999987,181710.298,181959.678,,55,money.
Item 100,flow.Loop,1_1_1_1,2021-04-22T07:27:20.088Z,,,,,,,,,,,,,,,,,,,,,,,,,,,,,,22820.80799999996,,completion,,,,,D,,,,,,,,,,,silence,,,,,181944.27999999994,181942.96499999997,159106.213,159107.26999999996,159122.157,181959.678,,,
Question 1,html.Screen,1_1_1_2,2021-04-22T07:27:23.858Z,,,,,,,,,,,,,,,,,,,,,,,,,,,true,TRUE,,3753.006999999954,,response,,,,100,D,,,,,,TRUE,click #choice-1,,,,silence,,,,,185714.31499999994,185712.68499999997,181944.047,181944.4249999999,181959.678,185716.043,,,
Question 2,html.Screen,1_1_1_3,2021-04-22T07:27:26.645Z,,,,,,,,,,,,,,,,,,,,,,,,,,,true,FALSE,,2783.092000000004,,response,,,,100,D,,,,,,FALSE,click #choice-2,,,,silence,,,,,188500.78499999995,188499.135,185700.487,185714.5149999999,185716.043,188508.362,,,
Item 100,flow.Sequence,1_1_1,2021-04-22T07:27:26.645Z,,,,,,,,,,,,,,,,,,,,,,,,,,,,,,39375.986000000004,,completion,,,,,,,,,,,,,,,,,,,,,188501.08000000002,188499.135,149084.104,149100.86000000002,149123.149,188508.362,,,
End of Practice,html.Page,1_1_2,2021-04-22T07:27:30.619Z,,,,,,,,,,,,,,,,,,,,,,,,,,,,,,3966.2679999999527,,form submission,,,,,,,,,,,,,,,,,,,,,192474.96999999997,192474.62999999995,188492.247,188501.21999999988,188508.362,192482.006,,,
Practice,flow.Sequence,1_1,2021-04-22T07:27:30.620Z,,,,,,,,,,,,,,,,,,,,,,,,,,,,,,84063.56399999994,,completion,,,,,,,,,,,,,,,,,,,,,192475.89500000005,192474.62999999995,108394.911,108401.71999999984,108411.066,192482.006,,,
Trap_instruction,html.Page,1_2_0,2021-04-22T07:27:31.968Z,,,,,,,,,,,,,,,,,,,,,,,,,,,,,,1341.4039999999804,,form submission,,,,,,,,,,,,,,,,,,,,,193823.71999999986,193823.40999999997,192465.317,192476.03000000003,192482.006,193843.777,,,
trap_trial,html.Screen,1_2_1,2021-04-22T07:27:36.431Z,,,,,,,,,,,,,,,,,,,,,,,,,,,true,1,,4439.007999999885,,response,,,,,,,,,,,1,click #choice-1,,,,,,,,,198284.445,198282.7849999999,193811.517,193823.85999999996,193843.777,198298.282,,,
end of trap trial,html.Page,1_2_2,2021-04-22T07:27:38.804Z,,,,,,,,,,,,,,,,,,,,,,,,,,,,,,2359.2229999998817,,form submission,,,,,,,,,,,,,,,,,,,,,200657.83499999996,200657.5049999999,198282.677,198284.64499999996,198298.282,200658.432,,,
Trap 1,flow.Sequence,1_2,2021-04-22T07:27:38.804Z,,,,,,,,,,,,,,,,,,,,,,,,,,,,,,8175.498999999894,,completion,,,,,,,,,,,,,,,,,,,,,200658.05,200657.5049999999,192465.317,192475.9899999999,192482.006,200658.432,,,
Standby,html.Page,1_3_0,2021-04-22T07:27:46.784Z,,,,,,,,,,,,,,,,,,,,,,,,,,,,,,7994.945999999996,,timeout,,,,,,,,,,,,,,,,,,,,,208637.50499999992,208636.636,200642.44,200658.17500000002,200658.432,208653.378,,,
Holding screen,html.Screen,1_3_1_0_0,2021-04-22T07:27:53.782Z,,,,,,,,,,,,,,,,,,,,,,,,,,,,,,6997.535999999993,,timeout,,,,,,,,,,,,,,,,,,,,,215635.495,215634.607,208636.636,208637.79499999987,208653.378,215650.914,,,
screen,html.Screen,1_3_1_0_1_0,2021-04-22T07:27:55.906Z,,,,,,,,,,,,,,,,2,,,,,,,,,,,,,,2105.8959999998624,,response,,,,1,D,,,,,,Space,keypress(Space),,,,silence,,,,Two ---- ------ --- ------- ---------- ------- ----------<br>--- --------- --- ----------- ------- ----- ------- ---<br>--------- ---- -- --- ---- -- --------- -- ---- -------<br>-- --------- ------ --- ----- ------ ---- --- --------- --<br>------ - ---- -- --- ----------- ------- ---- ----- -----<br>--- -------- - ------ ---- -- ----- ---- --- --- -----------<br>-- -------,217759.38999999993,217756.80999999985,215634.607,215635.7599999999,215650.914,217761.57,,0,Two
screen,html.Screen,1_3_1_0_1_1,2021-04-22T07:27:56.375Z,,,,,,,,,,,,,,,,2,,,,,,,,,,,,,,466.27999999996973,,response,,,,1,D,,,,,,Space,keypress(Space),,,,silence,,,,--- days ------ --- ------- ---------- ------- ----------<br>--- --------- --- ----------- ------- ----- ------- ---<br>--------- ---- -- --- ---- -- --------- -- ---- -------<br>-- --------- ------ --- ----- ------ ---- --- --------- --<br>------ - ---- -- --- ----------- ------- ---- ----- -----<br>--- -------- - ------ ---- -- ----- ---- --- --- -----------<br>-- -------,218229.07499999995,218227.84999999998,217750.524,217759.595,217761.57,218243.759,,1,days
screen,html.Screen,1_3_1_0_1_2,2021-04-22T07:27:56.734Z,,,,,,,,,,,,,,,,2,,,,,,,,,,,,,,343.3859999999695,,response,,,,1,D,,,,,,Space,keypress(Space),,,,silence,,,,"--- ---- later, --- ------- ---------- ------- ----------<br>--- --------- --- ----------- ------- ----- ------- ---<br>--------- ---- -- --- ---- -- --------- -- ---- -------<br>-- --------- ------ --- ----- ------ ---- --- --------- --<br>------ - ---- -- --- ----------- ------- ---- ----- -----<br>--- -------- - ------ ---- -- ----- ---- --- --- -----------<br>-- -------",218588.1049999998,218587.14499999996,218228.256,218229.25999999983,218243.759,218592.634,,2,"later,"
screen,html.Screen,1_3_1_0_1_3,2021-04-22T07:27:57.262Z,,,,,,,,,,,,,,,,2,,,,,,,,,,,,,,521.8059999998368,,response,,,,1,D,,,,,,Space,keypress(Space),,,,silence,,,,--- ---- ------ the ------- ---------- ------- ----------<br>--- --------- --- ----------- ------- ----- ------- ---<br>--------- ---- -- --- ---- -- --------- -- ---- -------<br>-- --------- ------ --- ----- ------ ---- --- --------- --<br>------ - ---- -- --- ----------- ------- ---- ----- -----<br>--- -------- - ------ ---- -- ----- ---- --- --- -----------<br>-- -------,219115.93500000003,219114.43999999983,218577.47,218588.28999999992,218592.634,219124.578,,3,the
screen,html.Screen,1_3_1_0_1_4,2021-04-22T07:27:57.676Z,,,,,,,,,,,,,,,,2,,,,,,,,,,,,,,404.3619999999064,,response,,,,1,D,,,,,,Space,keypress(Space),,,,silence,,,,--- ---- ------ --- British ---------- ------- ----------<br>--- --------- --- ----------- ------- ----- ------- ---<br>--------- ---- -- --- ---- -- --------- -- ---- -------<br>-- --------- ------ --- ----- ------ ---- --- --------- --<br>------ - ---- -- --- ----------- ------- ---- ----- -----<br>--- -------- - ------ ---- -- ----- ---- --- --- -----------<br>-- -------,219529.77999999985,219528.93999999992,219109.44,219116.1199999999,219124.578,219540.512,,4,British
screen,html.Screen,1_3_1_0_1_5,2021-04-22T07:27:58.172Z,,,,,,,,,,,,,,,,2,,,,,,,,,,,,,,484.7329999998328,,response,,,,1,D,,,,,,Space,keypress(Space),,,,silence,,,,--- ---- ------ --- ------- astronomer ------- ----------<br>--- --------- --- ----------- ------- ----- ------- ---<br>--------- ---- -- --- ---- -- --------- -- ---- -------<br>-- --------- ------ --- ----- ------ ---- --- --------- --<br>------ - ---- -- --- ----------- ------- ---- ----- -----<br>--- -------- - ------ ---- -- ----- ---- --- --- -----------<br>-- -------,220026.2049999999,220025.24499999982,219524.455,219529.95999999985,219540.512,220039.166,,5,astronomer
screen,html.Screen,1_3_1_0_1_6,2021-04-22T07:27:58.684Z,,,,,,,,,,,,,,,,2,,,,,,,,,,,,,,497.2239999999874,,response,,,,1,D,,,,,,Space,keypress(Space),,,,silence,,,,--- ---- ------ --- ------- ---------- Richard ----------<br>--- --------- --- ----------- ------- ----- ------- ---<br>--------- ---- -- --- ---- -- --------- -- ---- -------<br>-- --------- ------ --- ----- ------ ---- --- --------- --<br>------ - ---- -- --- ----------- ------- ---- ----- -----<br>--- -------- - ------ ---- -- ----- ---- --- --- -----------<br>-- -------,220537.86500000002,220536.38999999998,220023.339,220026.3849999999,220039.166,220554.646,,6,Richard
screen,html.Screen,1_3_1_0_1_7,2021-04-22T07:27:59.035Z,,,,,,,,,,,,,,,,2,,,,,,,,,,,,,,333.17399999991176,,response,,,,1,D,,,,,,Space,keypress(Space),,,,silence,,,,--- ---- ------ --- ------- ---------- ------- Carrington<br>--- --------- --- ----------- ------- ----- ------- ---<br>--------- ---- -- --- ---- -- --------- -- ---- -------<br>-- --------- ------ --- ----- ------ ---- --- --------- --<br>------ - ---- -- --- ----------- ------- ---- ----- -----<br>--- -------- - ------ ---- -- ----- ---- --- --- -----------<br>-- -------,220888.79999999996,220887.81999999992,220522.579,220538.045,220554.646,220903.014,,7,Carrington
screen,html.Screen,1_3_1_0_1_8,2021-04-22T07:27:59.427Z,,,,,,,,,,,,,,,,2,,,,,,,,,,,,,,377.24099999989267,,response,,,,1,D,,,,,,Space,keypress(Space),,,,silence,,,,--- ---- ------ --- ------- ---------- ------- ----------<br>was --------- --- ----------- ------- ----- ------- ---<br>--------- ---- -- --- ---- -- --------- -- ---- -------<br>-- --------- ------ --- ----- ------ ---- --- --------- --<br>------ - ---- -- --- ----------- ------- ---- ----- -----<br>--- -------- - ------ ---- -- ----- ---- --- --- -----------<br>-- -------,221281.20999999988,221280.2549999999,220887.713,220888.97999999995,220903.014,221285.246,,8,was
screen,html.Screen,1_3_1_0_1_9,2021-04-22T07:27:59.756Z,,,,,,,,,,,,,,,,2,,,,,,,,,,,,,,323.4989999999816,,response,,,,1,D,,,,,,Space,keypress(Space),,,,silence,,,,--- ---- ------ --- ------- ---------- ------- ----------<br>--- observing --- ----------- ------- ----- ------- ---<br>--------- ---- -- --- ---- -- --------- -- ---- -------<br>-- --------- ------ --- ----- ------ ---- --- --------- --<br>------ - ---- -- --- ----------- ------- ---- ----- -----<br>--- -------- - ------ ---- -- ----- ---- --- --- -----------<br>-- -------,221610.23,221608.745,221269.621,221281.385,221285.246,221617.885,,9,observing
screen,html.Screen,1_3_1_0_1_10,2021-04-22T07:28:00.160Z,,,,,,,,,,,,,,,,2,,,,,,,,,,,,,,394.909999999858,,response,,,,1,D,,,,,,Space,keypress(Space),,,,silence,,,,--- ---- ------ --- ------- ---------- ------- ----------<br>--- --------- the ----------- ------- ----- ------- ---<br>--------- ---- -- --- ---- -- --------- -- ---- -------<br>-- --------- ------ --- ----- ------ ---- --- --------- --<br>------ - ---- -- --- ----------- ------- ---- ----- -----<br>--- -------- - ------ ---- -- ----- ---- --- --- -----------<br>-- -------,222013.62999999992,222012.79499999987,221602.415,221610.4049999999,221617.885,222016.599,,10,the
screen,html.Screen,1_3_1_0_1_11,2021-04-22T07:28:00.501Z,,,,,,,,,,,,,,,,2,,,,,,,,,,,,,,336.2009999999136,,response,,,,1,D,,,,,,Space,keypress(Space),,,,silence,,,,--- ---- ------ --- ------- ---------- ------- ----------<br>--- --------- --- interesting ------- ----- ------- ---<br>--------- ---- -- --- ---- -- --------- -- ---- -------<br>-- --------- ------ --- ----- ------ ---- --- --------- --<br>------ - ---- -- --- ----------- ------- ---- ----- -----<br>--- -------- - ------ ---- -- ----- ---- --- --- -----------<br>-- -------,222354.335,222352.7999999999,222001.493,222013.8199999999,222016.599,222365.721,,11,interesting
screen,html.Screen,1_3_1_0_1_12,2021-04-22T07:28:00.791Z,,,,,,,,,,,,,,,,2,,,,,,,,,,,,,,278.44900000005146,,response,,,,1,D,,,,,,Space,keypress(Space),,,,silence,,,,--- ---- ------ --- ------- ---------- ------- ----------<br>--- --------- --- ----------- sunspot ----- ------- ---<br>--------- ---- -- --- ---- -- --------- -- ---- -------<br>-- --------- ------ --- ----- ------ ---- --- --------- --<br>------ - ---- -- --- ----------- ------- ---- ----- -----<br>--- -------- - ------ ---- -- ----- ---- --- --- -----------<br>-- -------,222645.21999999988,222644.17000000004,222349.905,222354.51499999998,222365.721,222648.226,,12,sunspot
screen,html.Screen,1_3_1_0_1_13,2021-04-22T07:28:01.090Z,,,,,,,,,,,,,,,,2,,,,,,,,,,,,,,294.5089999998745,,response,,,,1,D,,,,,,Space,keypress(Space),,,,silence,,,,--- ---- ------ --- ------- ---------- ------- ----------<br>--- --------- --- ----------- ------- group ------- ---<br>--------- ---- -- --- ---- -- --------- -- ---- -------<br>-- --------- ------ --- ----- ------ ---- --- --------- --<br>------ - ---- -- --- ----------- ------- ---- ----- -----<br>--- -------- - ------ ---- -- ----- ---- --- --- -----------<br>-- -------,222943.71999999997,222942.73499999987,222632.909,222645.4349999999,222648.226,222947.381,,13,group
screen,html.Screen,1_3_1_0_1_14,2021-04-22T07:28:01.656Z,,,,,,,,,,,,,,,,2,,,,,,,,,,,,,,561.0890000000072,,response,,,,1,D,,,,,,Space,keypress(Space),,,,silence,,,,--- ---- ------ --- ------- ---------- ------- ----------<br>--- --------- --- ----------- ------- ----- through ---<br>--------- ---- -- --- ---- -- --------- -- ---- -------<br>-- --------- ------ --- ----- ------ ---- --- --------- --<br>------ - ---- -- --- ----------- ------- ---- ----- -----<br>--- -------- - ------ ---- -- ----- ---- --- --- -----------<br>-- -------,223509.955,223508.47,222931.899,222943.90499999985,222947.381,223512.472,,14,through
screen,html.Screen,1_3_1_0_1_15,2021-04-22T07:28:02.063Z,,,,,,,,,,,,,,,,2,,,,,,,,,,,,,,403.40299999990384,,response,,,,1,D,,,,,,Space,keypress(Space),,,,silence,,,,--- ---- ------ --- ------- ---------- ------- ----------<br>--- --------- --- ----------- ------- ----- ------- his<br>--------- ---- -- --- ---- -- --------- -- ---- -------<br>-- --------- ------ --- ----- ------ ---- --- --------- --<br>------ - ---- -- --- ----------- ------- ---- ----- -----<br>--- -------- - ------ ---- -- ----- ---- --- --- -----------<br>-- -------,223916.87499999988,223915.8749999999,223497.765,223510.1299999999,223512.472,223928.52,,15,his
screen,html.Screen,1_3_1_0_1_16,2021-04-22T07:28:02.391Z,,,,,,,,,,,,,,,,2,,,,,,,,,,,,,,314.3649999999034,,response,,,,1,D,,,,,,Space,keypress(Space),,,,silence,,,,--- ---- ------ --- ------- ---------- ------- ----------<br>--- --------- --- ----------- ------- ----- ------- ---<br>telescope ---- -- --- ---- -- --------- -- ---- -------<br>-- --------- ------ --- ----- ------ ---- --- --------- --<br>------ - ---- -- --- ----------- ------- ---- ----- -----<br>--- -------- - ------ ---- -- ----- ---- --- --- -----------<br>-- -------,224244.68000000002,224242.8849999999,223912.494,223917.06,223928.52,224277.628,,16,telescope
screen,html.Screen,1_3_1_0_1_17,2021-04-22T07:28:02.699Z,,,,,,,,,,,,,,,,2,,,,,,,,,,,,,,274.1019999998971,,response,,,,1,D,,,,,,Space,keypress(Space),,,,silence,,,,--- ---- ------ --- ------- ---------- ------- ----------<br>--- --------- --- ----------- ------- ----- ------- ---<br>--------- when -- --- ---- -- --------- -- ---- -------<br>-- --------- ------ --- ----- ------ ---- --- --------- --<br>------ - ---- -- --- ----------- ------- ---- ----- -----<br>--- -------- - ------ ---- -- ----- ---- --- --- -----------<br>-- -------,224553.20499999993,224551.7299999999,224261.11,224244.8649999999,224277.628,224561.521,,17,when
screen,html.Screen,1_3_1_0_1_18,2021-04-22T07:28:03.032Z,,,,,,,,,,,,,,,,2,,,,,,,,,,,,,,323.15400000000955,,response,,,,1,D,,,,,,Space,keypress(Space),,,,silence,,,,--- ---- ------ --- ------- ---------- ------- ----------<br>--- --------- --- ----------- ------- ----- ------- ---<br>--------- ---- he --- ---- -- --------- -- ---- -------<br>-- --------- ------ --- ----- ------ ---- --- --------- --<br>------ - ---- -- --- ----------- ------- ---- ----- -----<br>--- -------- - ------ ---- -- ----- ---- --- --- -----------<br>-- -------,224885.665,224884.67500000002,224544.293,224553.39000000004,224561.521,224892.063,,18,he
screen,html.Screen,1_3_1_0_1_19,2021-04-22T07:28:03.286Z,,,,,,,,,,,,,,,,2,,,,,,,,,,,,,,247.21699999988778,,response,,,,1,D,,,,,,Space,keypress(Space),,,,silence,,,,--- ---- ------ --- ------- ---------- ------- ----------<br>--- --------- --- ----------- ------- ----- ------- ---<br>--------- ---- -- saw ---- -- --------- -- ---- -------<br>-- --------- ------ --- ----- ------ ---- --- --------- --<br>------ - ---- -- --- ----------- ------- ---- ----- -----<br>--- -------- - ------ ---- -- ----- ---- --- --- -----------<br>-- -------,225140.075,225139.27999999988,224876.714,224885.81999999998,224892.063,225159.655,,19,saw
screen,html.Screen,1_3_1_0_1_20,2021-04-22T07:28:03.553Z,,,,,,,,,,,,,,,,2,,,,,,,,,,,,,,245.96999999988475,,response,,,,1,D,,,,,,Space,keypress(Space),,,,silence,,,,--- ---- ------ --- ------- ---------- ------- ----------<br>--- --------- --- ----------- ------- ----- ------- ---<br>--------- ---- -- --- what -- --------- -- ---- -------<br>-- --------- ------ --- ----- ------ ---- --- --------- --<br>------ - ---- -- --- ----------- ------- ---- ----- -----<br>--- -------- - ------ ---- -- ----- ---- --- --- -----------<br>-- -------,225406.42,225405.62499999988,225125.322,225140.22999999998,225159.655,225430.086,,20,what
screen,html.Screen,1_3_1_0_1_21,2021-04-22T07:28:03.808Z,,,,,,,,,,,,,,,,2,,,,,,,,,,,,,,230.6889999998093,,response,,,,1,D,,,,,,Space,keypress(Space),,,,silence,,,,--- ---- ------ --- ------- ---------- ------- ----------<br>--- --------- --- ----------- ------- ----- ------- ---<br>--------- ---- -- --- ---- he --------- -- ---- -------<br>-- --------- ------ --- ----- ------ ---- --- --------- --<br>------ - ---- -- --- ----------- ------- ---- ----- -----<br>--- -------- - ------ ---- -- ----- ---- --- --- -----------<br>-- -------,225661.61999999985,225660.77499999982,225391.232,225406.57999999984,225430.086,225673.22,,21,he
screen,html.Screen,1_3_1_0_1_22,2021-04-22T07:28:04.047Z,,,,,,,,,,,,,,,,2,,,,,,,,,,,,,,226.56999999994878,,response,,,,1,D,,,,,,Space,keypress(Space),,,,silence,,,,--- ---- ------ --- ------- ---------- ------- ----------<br>--- --------- --- ----------- ------- ----- ------- ---<br>--------- ---- -- --- ---- -- described -- ---- -------<br>-- --------- ------ --- ----- ------ ---- --- --------- --<br>------ - ---- -- --- ----------- ------- ---- ----- -----<br>--- -------- - ------ ---- -- ----- ---- --- --- -----------<br>-- -------,225900.58999999997,225899.78999999995,225657.216,225661.76999999993,225673.22,225905.91,,22,described
screen,html.Screen,1_3_1_0_1_23,2021-04-22T07:28:04.384Z,,,,,,,,,,,,,,,,2,,,,,,,,,,,,,,331.2149999998801,,response,,,,1,D,,,,,,Space,keypress(Space),,,,silence,,,,--- ---- ------ --- ------- ---------- ------- ----------<br>--- --------- --- ----------- ------- ----- ------- ---<br>--------- ---- -- --- ---- -- --------- as ---- -------<br>-- --------- ------ --- ----- ------ ---- --- --------- --<br>------ - ---- -- --- ----------- ------- ---- ----- -----<br>--- -------- - ------ ---- -- ----- ---- --- --- -----------<br>-- -------,226238.02499999988,226237.12499999988,225889.83,225900.73499999993,225905.91,226255.01,,23,as
screen,html.Screen,1_3_1_0_1_24,2021-04-22T07:28:04.645Z,,,,,,,,,,,,,,,,2,,,,,,,,,,,,,,242.9550000000163,,response,,,,1,D,,,,,,Space,keypress(Space),,,,silence,,,,"--- ---- ------ --- ------- ---------- ------- ----------<br>--- --------- --- ----------- ------- ----- ------- ---<br>--------- ---- -- --- ---- -- --------- -- ""two -------<br>-- --------- ------ --- ----- ------ ---- --- --------- --<br>------ - ---- -- --- ----------- ------- ---- ----- -----<br>--- -------- - ------ ---- -- ----- ---- --- --- -----------<br>-- -------",226498.87999999986,226497.96500000003,226222.757,226238.18499999994,226255.01,226504.252,,24,"""two"
screen,html.Screen,1_3_1_0_1_25,2021-04-22T07:28:04.900Z,,,,,,,,,,,,,,,,2,,,,,,,,,,,,,,248.56299999982002,,response,,,,1,D,,,,,,Space,keypress(Space),,,,silence,,,,--- ---- ------ --- ------- ---------- ------- ----------<br>--- --------- --- ----------- ------- ----- ------- ---<br>--------- ---- -- --- ---- -- --------- -- ---- patches<br>-- --------- ------ --- ----- ------ ---- --- --------- --<br>------ - ---- -- --- ----------- ------- ---- ----- -----<br>--- -------- - ------ ---- -- ----- ---- --- --- -----------<br>-- -------,226753.65999999986,226752.81499999983,226488.244,226499.055,226504.252,226770.295,,25,patches
screen,html.Screen,1_3_1_0_1_26,2021-04-22T07:28:05.276Z,,,,,,,,,,,,,,,,2,,,,,,,,,,,,,,358.71999999997206,,response,,,,1,D,,,,,,Space,keypress(Space),,,,silence,,,,--- ---- ------ --- ------- ---------- ------- ----------<br>--- --------- --- ----------- ------- ----- ------- ---<br>--------- ---- -- --- ---- -- --------- -- ---- -------<br>of --------- ------ --- ----- ------ ---- --- --------- --<br>------ - ---- -- --- ----------- ------- ---- ----- -----<br>--- -------- - ------ ---- -- ----- ---- --- --- -----------<br>-- -------,227129.97499999983,227129.01499999998,226737.603,226753.80499999982,226770.295,227135.892,,26,of
screen,html.Screen,1_3_1_0_1_27,2021-04-22T07:28:05.608Z,,,,,,,,,,,,,,,,2,,,,,,,,,,,,,,325.57299999985844,,response,,,,1,D,,,,,,Space,keypress(Space),,,,silence,,,,--- ---- ------ --- ------- ---------- ------- ----------<br>--- --------- --- ----------- ------- ----- ------- ---<br>--------- ---- -- --- ---- -- --------- -- ---- -------<br>-- intensely ------ --- ----- ------ ---- --- --------- --<br>------ - ---- -- --- ----------- ------- ---- ----- -----<br>--- -------- - ------ ---- -- ----- ---- --- --- -----------<br>-- -------,227462.29500000004,227461.46499999985,227120.167,227130.1249999999,227135.892,227468.39,,27,intensely
screen,html.Screen,1_3_1_0_1_28,2021-04-22T07:28:05.905Z,,,,,,,,,,,,,,,,2,,,,,,,,,,,,,,289.44499999986147,,response,,,,1,D,,,,,,Space,keypress(Space),,,,silence,,,,--- ---- ------ --- ------- ---------- ------- ----------<br>--- --------- --- ----------- ------- ----- ------- ---<br>--------- ---- -- --- ---- -- --------- -- ---- -------<br>-- --------- bright --- ----- ------ ---- --- --------- --<br>------ - ---- -- --- ----------- ------- ---- ----- -----<br>--- -------- - ------ ---- -- ----- ---- --- --- -----------<br>-- -------,227758.60499999998,227757.83499999988,227452.524,227462.45499999987,227468.39,227767.448,,28,bright
screen,html.Screen,1_3_1_0_1_29,2021-04-22T07:28:06.182Z,,,,,,,,,,,,,,,,2,,,,,,,,,,,,,,267.6319999998668,,response,,,,1,D,,,,,,Space,keypress(Space),,,,silence,,,,--- ---- ------ --- ------- ---------- ------- ----------<br>--- --------- --- ----------- ------- ----- ------- ---<br>--------- ---- -- --- ---- -- --------- -- ---- -------<br>-- --------- ------ and ----- ------ ---- --- --------- --<br>------ - ---- -- --- ----------- ------- ---- ----- -----<br>--- -------- - ------ ---- -- ----- ---- --- --- -----------<br>-- -------,228036.01000000004,228035.07999999987,227751.577,227758.74499999985,227767.448,228050.625,,29,and
screen,html.Screen,1_3_1_0_1_30,2021-04-22T07:28:06.490Z,,,,,,,,,,,,,,,,2,,,,,,,,,,,,,,291.41500000000815,,response,,,,1,D,,,,,,Space,keypress(Space),,,,silence,,,,--- ---- ------ --- ------- ---------- ------- ----------<br>--- --------- --- ----------- ------- ----- ------- ---<br>--------- ---- -- --- ---- -- --------- -- ---- -------<br>-- --------- ------ --- white ------ ---- --- --------- --<br>------ - ---- -- --- ----------- ------- ---- ----- -----<br>--- -------- - ------ ---- -- ----- ---- --- --- -----------<br>-- -------,228343.57499999987,228342.04,228034.001,228036.19499999992,228050.625,228349.342,,30,white
screen,html.Screen,1_3_1_0_1_31,2021-04-22T07:28:06.812Z,,,,,,,,,,,,,,,,2,,,,,,,,,,,,,,315.31300000002375,,response,,,,1,D,,,,,,Space,keypress(Space),,,,silence,,,,"--- ---- ------ --- ------- ---------- ------- ----------<br>--- --------- --- ----------- ------- ----- ------- ---<br>--------- ---- -- --- ---- -- --------- -- ---- -------<br>-- --------- ------ --- ----- light"" ---- --- --------- --<br>------ - ---- -- --- ----------- ------- ---- ----- -----<br>--- -------- - ------ ---- -- ----- ---- --- --- -----------<br>-- -------",228665.71,228664.65500000003,228333.309,228343.80999999985,228349.342,228698.791,,31,"light"""
screen,html.Screen,1_3_1_0_1_32,2021-04-22T07:28:07.158Z,,,,,,,,,,,,,,,,2,,,,,,,,,,,,,,312.4389999998384,,response,,,,1,D,,,,,,Space,keypress(Space),,,,silence,,,,--- ---- ------ --- ------- ---------- ------- ----------<br>--- --------- --- ----------- ------- ----- ------- ---<br>--------- ---- -- --- ---- -- --------- -- ---- -------<br>-- --------- ------ --- ----- ------ over --- --------- --<br>------ - ---- -- --- ----------- ------- ---- ----- -----<br>--- -------- - ------ ---- -- ----- ---- --- --- -----------<br>-- -------,229012.21999999986,229011.22999999984,228682.364,228665.89499999987,228698.791,229014.119,,32,over
screen,html.Screen,1_3_1_0_1_33,2021-04-22T07:28:07.508Z,,,,,,,,,,,,,,,,2,,,,,,,,,,,,,,346.99099999980535,,response,,,,1,D,,,,,,Space,keypress(Space),,,,silence,,,,--- ---- ------ --- ------- ---------- ------- ----------<br>--- --------- --- ----------- ------- ----- ------- ---<br>--------- ---- -- --- ---- -- --------- -- ---- -------<br>-- --------- ------ --- ----- ------ ---- the --------- --<br>------ - ---- -- --- ----------- ------- ---- ----- -----<br>--- -------- - ------ ---- -- ----- ---- --- --- -----------<br>-- -------,229362.09499999994,229361.1099999998,228998.256,229012.40499999994,229014.119,229387.642,,33,the
screen,html.Screen,1_3_1_0_1_34,2021-04-22T07:28:07.782Z,,,,,,,,,,,,,,,,2,,,,,,,,,,,,,,247.5079999998561,,response,,,,1,D,,,,,,Space,keypress(Space),,,,silence,,,,--- ---- ------ --- ------- ---------- ------- ----------<br>--- --------- --- ----------- ------- ----- ------- ---<br>--------- ---- -- --- ---- -- --------- -- ---- -------<br>-- --------- ------ --- ----- ------ ---- --- sunspots. --<br>------ - ---- -- --- ----------- ------- ---- ----- -----<br>--- -------- - ------ ---- -- ----- ---- --- --- -----------<br>-- -------,229636.00499999983,229635.14999999985,229347.813,229362.27999999982,229387.642,229645.768,,34,sunspots.
screen,html.Screen,1_3_1_0_1_35,2021-04-22T07:28:08.507Z,,,,,,,,,,,,,,,,2,,,,,,,,,,,,,,714.31700000001,,response,,,,1,D,,,,,,Space,keypress(Space),,,,silence,,,,--- ---- ------ --- ------- ---------- ------- ----------<br>--- --------- --- ----------- ------- ----- ------- ---<br>--------- ---- -- --- ---- -- --------- -- ---- -------<br>-- --------- ------ --- ----- ------ ---- --- --------- He<br>------ - ---- -- --- ----------- ------- ---- ----- -----<br>--- -------- - ------ ---- -- ----- ---- --- --- -----------<br>-- -------,230361.10499999995,230360.08500000002,229630.149,229636.1549999999,229645.768,230377.733,,35,He
screen,html.Screen,1_3_1_0_1_36,2021-04-22T07:28:09.087Z,,,,,,,,,,,,,,,,2,,,,,,,,,,,,,,561.2619999999588,,response,,,,1,D,,,,,,Space,keypress(Space),,,,silence,,,,--- ---- ------ --- ------- ---------- ------- ----------<br>--- --------- --- ----------- ------- ----- ------- ---<br>--------- ---- -- --- ---- -- --------- -- ---- -------<br>-- --------- ------ --- ----- ------ ---- --- --------- --<br>jotted - ---- -- --- ----------- ------- ---- ----- -----<br>--- -------- - ------ ---- -- ----- ---- --- --- -----------<br>-- -------,230940.4749999999,230938.99499999997,230345.707,230361.28999999983,230377.733,230942.179,,36,jotted
screen,html.Screen,1_3_1_0_1_37,2021-04-22T07:28:09.417Z,,,,,,,,,,,,,,,,2,,,,,,,,,,,,,,326.7609999999404,,response,,,,1,D,,,,,,Space,keypress(Space),,,,silence,,,,--- ---- ------ --- ------- ---------- ------- ----------<br>--- --------- --- ----------- ------- ----- ------- ---<br>--------- ---- -- --- ---- -- --------- -- ---- -------<br>-- --------- ------ --- ----- ------ ---- --- --------- --<br>------ a ---- -- --- ----------- ------- ---- ----- -----<br>--- -------- - ------ ---- -- ----- ---- --- --- -----------<br>-- -------,231270.41499999995,231268.93999999994,230927.395,230940.65499999988,230942.179,231274.583,,37,a
