sender,sender_type,sender_id,timestamp,meta,,Blues,Classical,Country,Dance,Electronic,Folk,Gospel,Hip-Hop,Jazz,Latin,Musical/Film,New-age,Pop,Provo_ID,R&B,Rap,Reggae,Religious,Rock,Soul,Swing,Traditional,age,artist_name,correct,correctResponse,distraction,duration,education,ended_on,familiarity,gender,headphone_check_performance,item,list,music_frequency,offensiveness,pleasantness,position_correct,preference,response,response_action,snippet_file,song_name,song_rating,sound,stimulus_1,stimulus_2,stimulus_3,text,time_commit,time_end,time_render,time_run,time_show,time_switch,url,word,word_ID
Introduction,html.Screen,0_0,2021-04-20T15:56:07.365Z,"{""labjs_version"":""20.2.2"",""labjs_build"":{""flavor"":""production"",""commit"":""a25486e0c714a0ae2ce03ff94b7bb6896854dcfa""},""location"":""https://run.pavlovia.org/mvasilev/music_f/"",""userAgent"":""Mozilla/5.0 (Windows NT 10.0; Win64; x64) AppleWebKit/537.36 (KHTML, like Gecko) Chrome/90.0.4430.72 Safari/537.36 Edg/90.0.818.39"",""platform"":""Win32"",""language"":""en-GB"",""locale"":""en-GB"",""timeZone"":""Europe/London"",""timezoneOffset"":-60,""screen_width"":1280,""screen_height"":720,""scroll_width"":1280,""scroll_height"":562,""window_innerWidth"":1280,""window_innerHeight"":610,""devicePixelRatio"":1.5}",,,,,,,,,,,,,,,,,,,,,,,,,,,,,28523.95799995155,,response,,,,,,,,,,,continue,click button,,,,,,,,,43211.72999998089,43208.35499995155,14234.502,14184.594999998808,14684.397,43225.037,{},,
Volume calibration,html.Screen,0_1,2021-04-20T15:57:03.859Z,,,,,,,,,,,,,,,,,,,,,,,,,,,,,,56476.462999966476,,response,,,,,,,,,,,continue,click button,,,,,,,,,99705.40999999503,99701.49999996647,43208.398,43212.049999972805,43225.037,99706.579,,,
Task instructions,html.Screen,0_2,2021-04-20T15:57:32.985Z,,,,,,,,,,,,,,,,,,,,,,,,,,,,,,29123.225999986666,,response,,,,,,,,,,,continue,click button,,,,,,,,,128830.89499996277,128829.80499998666,99690.012,99705.59999998659,99706.579,128863.717,,,
Sounds,html.Screen,0_3_0_0,2021-04-20T15:57:37.258Z,,,,,,,,,,,,,,,,,,,,,,,,,,,,,,4248.698999999993,,timeout,,,,,,,,,2,,,,,,,,I,S,O,,133104.33999996167,133095.888,128847.141,128831.20999997482,128863.717,133112.416,,,
Judgement,html.Screen,0_3_0_1,2021-04-20T15:57:38.692Z,,,,,,,,,,,,,,,,,,,,,,,,,,,true,2,,1425.1339999499905,,response,,,,,,,,,2,,2,click #choice-2,,,,,I,S,O,,134538.73499995098,134537.54999995,133095.888,133104.7350000008,133112.416,134545.205,,,
Trial,flow.Sequence,0_3_0,2021-04-20T15:57:38.693Z,,,,,,,,,,,,,,,,,,,,,,,,,,,,,,5673.832999949984,,completion,,,,,,,,,2,,,,,,,,I,S,O,,134539.13499996997,134537.54999995,128847.141,128831.14999998361,128863.717,134545.205,,,
Sounds,html.Screen,0_3_1_0,2021-04-20T15:57:42.932Z,,,,,,,,,,,,,,,,,,,,,,,,,,,,,,4248.741000000009,,timeout,,,,,,,,,3,,,,,,,,O,I,S,,138778.5449999501,138777.345,134528.618,134539.30999996373,134545.205,138793.946,,,
Judgement,html.Screen,0_3_1_1,2021-04-20T15:57:44.052Z,,,,,,,,,,,,,,,,,,,,,,,,,,,true,3,,1102.9289999767207,,response,,,,,,,,,3,,3,click #choice-3,,,,,O,I,S,,139897.874999966,139896.87499997672,138777.345,138778.88999995776,138793.946,139910.134,,,
Trial,flow.Sequence,0_3_1,2021-04-20T15:57:44.052Z,,,,,,,,,,,,,,,,,,,,,,,,,,,,,,5351.66999997673,,completion,,,,,,,,,3,,,,,,,,O,I,S,,139898.10999995098,139896.87499997672,134528.618,134539.25999999046,134545.205,139910.134,,,
Sounds,html.Screen,0_3_2_0,2021-04-20T15:57:48.297Z,,,,,,,,,,,,,,,,,,,,,,,,,,,,,,4248.683000000019,,timeout,,,,,,,,,1,,,,,,,,S,I,O,,144143.4349999763,144142.2,139893.653,139898.2599999872,139910.134,144158.817,,,
Judgement,html.Screen,0_3_2_1,2021-04-20T15:57:49.287Z,,,,,,,,,,,,,,,,,,,,,,,,,,,true,1,,974.0129999586206,,response,,,,,,,,,1,,1,click #choice-1,,,,,S,I,O,,145133.8049999904,145132.82999995863,144142.2,144143.72999995248,144158.817,145141.755,,,
Trial,flow.Sequence,0_3_2,2021-04-20T15:57:49.288Z,,,,,,,,,,,,,,,,,,,,,,,,,,,,,,5222.69599995864,,completion,,,,,,,,,1,,,,,,,,S,I,O,,145134.02999995742,145132.82999995863,139893.653,139898.2149999938,139910.134,145141.755,,,
Sounds,html.Screen,0_3_3_0,2021-04-20T15:57:53.530Z,,,,,,,,,,,,,,,,,,,,,,,,,,,,,,4248.652000000002,,timeout,,,,,,,,,3,,,,,,,,I,O,S,,149375.86999998894,149373.855,145125.155,145134.16499999585,145141.755,149390.407,,,
Judgement,html.Screen,0_3_3_1,2021-04-20T15:57:54.254Z,,,,,,,,,,,,,,,,,,,,,,,,,,,true,3,,708.667999976431,,response,,,,,,,,,3,,3,click #choice-3,,,,,I,O,S,,150100.14499997487,150099.07499997644,149373.855,149376.3799999724,149390.407,150106.8,,,
Trial,flow.Sequence,0_3_3,2021-04-20T15:57:54.254Z,,,,,,,,,,,,,,,,,,,,,,,,,,,,,,4957.319999976433,,completion,,,,,,,,,3,,,,,,,,I,O,S,,150100.43499997118,150099.07499997644,145125.155,145134.1249999823,145141.755,150106.8,,,
Sounds,html.Screen,0_3_4_0,2021-04-20T15:57:58.494Z,,,,,,,,,,,,,,,,,,,,,,,,,,,,,,4248.619000000006,,timeout,,,,,,,,,1,,,,,,,,S,O,I,,154340.11499996996,154338.918,150090.271,150100.5699999514,150106.8,154355.419,,,
Judgement,html.Screen,0_3_4_1,2021-04-20T15:57:59.883Z,,,,,,,,,,,,,,,,,,,,,,,,,,,true,1,,1372.4709999801125,,response,,,,,,,,,1,,1,click #choice-1,,,,,S,O,I,,155728.96999999648,155727.8899999801,154338.918,154340.3999999864,154355.419,155738.31,,,
Trial,flow.Sequence,0_3_4,2021-04-20T15:57:59.883Z,,,,,,,,,,,,,,,,,,,,,,,,,,,,,,5621.089999980119,,completion,,,,,,,,,1,,,,,,,,S,O,I,,155729.244999995,155727.8899999801,150090.271,150100.53499997593,150106.8,155738.31,,,
Sounds,html.Screen,0_3_5_0,2021-04-20T15:58:04.126Z,,,,,,,,,,,,,,,,,,,,,,,,,,,,,,4248.600000000006,,timeout,,,,,,,,,2,,,,,,,,O,S,I,,159972.41499996744,159970.448,155721.735,155729.43499998655,155738.31,159986.91,,,
Judgement,html.Screen,0_3_5_1,2021-04-20T15:58:04.808Z,,,,,,,,,,,,,,,,,,,,,,,,,,,true,2,,665.2699999754841,,response,,,,,,,,,2,,2,click #choice-2,,,,,O,S,I,,160654.07499996945,160652.1799999755,159970.448,159972.71999996156,159986.91,160686.676,,,
Trial,flow.Sequence,0_3_5,2021-04-20T15:58:04.808Z,,,,,,,,,,,,,,,,,,,,,,,,,,,,,,4913.86999997549,,completion,,,,,,,,,2,,,,,,,,O,S,I,,160654.29499995662,160652.1799999755,155721.735,155729.3799999752,155738.31,160686.676,,,
Task,flow.Loop,0_3,2021-04-20T15:58:04.815Z,,,,,,,,,,,,,,,,,,,,,,,,,,,,,,31788.462999975483,,completion,,,1,,,,,,,,,,,,,,,,,,160661.13999998197,160652.1799999755,128847.141,128831.07999997446,128863.717,160686.676,,,
Trap,html.Screen,0_4,2021-04-20T15:58:04.818Z,,,,,,,,,,,,,,,,,,,,,,,,,,,,,,NaN,,skipped,,,,,,,,,,,,,,,,,,,,,160664.8049999494,160652.1799999755,,160664.64999999152,,160686.676,,,
Thanks,html.Screen,0_5,2021-04-20T15:58:14.688Z,,,,,,,,,,,,,,,,,,,,,,,,,,,,,,9846.443999978219,,response,,,,,,,,,,,continue,click button,,,,,,,,,170534.2149999924,170533.11999997823,160670.055,160664.9449999677,160686.676,177114.74,,,
Headphone screening,flow.Sequence,0,2021-04-20T15:58:14.688Z,,,,,,,,,,,,,,,,,,,,,,,,,,,,,,155848.72299997823,,completion,,,,,,,,,,,,,,,,,,,,,170534.39499996603,170533.11999997823,14234.502,14183.294999995269,14684.397,177114.74,,,
Instructions,html.Page,1_0,2021-04-20T15:59:18.501Z,,,,,,,,,,,,,,,,,,,,,,,,,,,,,,57232.27499994845,,form submission,,,,,,,,,,,,,,,,,,,,,234347.40999998758,234347.01499994844,177048.251,177075.48999995925,177114.74,234345.89,,,
Holding screen,html.Screen,1_1_0_0,2021-04-20T15:59:28.480Z,,,,,,,,,,,,,,,,,,,,,,,,,,,,,,10013.521999999997,,timeout,,,,,,,,,,,,,,,,,,,,,244327.21499999752,244326.113,234329.239,234347.60999999708,234345.89,244359.412,,,
screen,html.Screen,1_1_0_1_0,2021-04-20T15:59:29.173Z,,,,,,,,,,,,,,,,53,,,,,,,,,,,,,,652.7430000039749,,response,,,,99,,,,,,,Space,keypress(Space),,,,,,,,When -- ----- -- ------ - ------- --- ----------<br>------------- ------ ------ ---- ---- ------- ----- -- ----<br>-------- ------- -- ---------- --- - --- ----- ----- ----<br>---- --- --- ----- --- ---- ---- ------- ----- ---- -------<br>--- --- -- ----- -- --- ---- -- --- ---- -- ------ ------<br>--- ----- -- ----,245020.0949999853,245012.155000004,244326.113,244327.5999999605,244359.412,245025.763,,0,When
screen,html.Screen,1_1_0_1_1,2021-04-20T15:59:29.652Z,,,,,,,,,,,,,,,,53,,,,,,,,,,,,,,472.26699995881063,,response,,,,99,,,,,,,Space,keypress(Space),,,,,,,,---- it ----- -- ------ - ------- --- ----------<br>------------- ------ ------ ---- ---- ------- ----- -- ----<br>-------- ------- -- ---------- --- - --- ----- ----- ----<br>---- --- --- ----- --- ---- ---- ------- ----- ---- -------<br>--- --- -- ----- -- --- ---- -- --- ---- -- ------ ------<br>--- ----- -- ----,245498.88499994995,245498.02999995882,245009.135,245020.41999995708,245025.763,245508.958,,1,it
screen,html.Screen,1_1_0_1_2,2021-04-20T15:59:30.221Z,,,,,,,,,,,,,,,,53,,,,,,,,,,,,,,557.9119999805407,,response,,,,99,,,,,,,Space,keypress(Space),,,,,,,,---- -- comes -- ------ - ------- --- ----------<br>------------- ------ ------ ---- ---- ------- ----- -- ----<br>-------- ------- -- ---------- --- - --- ----- ----- ----<br>---- --- --- ----- --- ---- ---- ------- ----- ---- -------<br>--- --- -- ----- -- --- ---- -- --- ---- -- ------ ------<br>--- ----- -- ----,246068.15999996616,246066.86999998055,245492.448,245499.08999999752,245508.958,246075.444,,2,comes
screen,html.Screen,1_1_0_1_3,2021-04-20T15:59:30.745Z,,,,,,,,,,,,,,,,53,,,,,,,,,,,,,,515.265999960393,,response,,,,99,,,,,,,Space,keypress(Space),,,,,,,,---- -- ----- to ------ - ------- --- ----------<br>------------- ------ ------ ---- ---- ------- ----- -- ----<br>-------- ------- -- ---------- --- - --- ----- ----- ----<br>---- --- --- ----- --- ---- ---- ------- ----- ---- -------<br>--- --- -- ----- -- --- ---- -- --- ---- -- ------ ------<br>--- ----- -- ----,246592.02499996172,246590.70999996038,246058.952,246068.48499999614,246075.444,246608.717,,3,to
screen,html.Screen,1_1_0_1_4,2021-04-20T15:59:31.274Z,,,,,,,,,,,,,,,,53,,,,,,,,,,,,,,511.2979999931413,,response,,,,99,,,,,,,Space,keypress(Space),,,,,,,,---- -- ----- -- having - ------- --- ----------<br>------------- ------ ------ ---- ---- ------- ----- -- ----<br>-------- ------- -- ---------- --- - --- ----- ----- ----<br>---- --- --- ----- --- ---- ---- ------- ----- ---- -------<br>--- --- -- ----- -- --- ---- -- --- ---- -- ------ ------<br>--- ----- -- ----,247121.1899999762,247120.01499999315,246592.024,246592.31499995803,246608.717,247125.108,,4,having
screen,html.Screen,1_1_0_1_5,2021-04-20T15:59:31.689Z,,,,,,,,,,,,,,,,53,,,,,,,,,,,,,,409.4719999777153,,response,,,,99,,,,,,,Space,keypress(Space),,,,,,,,---- -- ----- -- ------ a ------- --- ----------<br>------------- ------ ------ ---- ---- ------- ----- -- ----<br>-------- ------- -- ---------- --- - --- ----- ----- ----<br>---- --- --- ----- --- ---- ---- ------- ----- ---- -------<br>--- --- -- ----- -- --- ---- -- --- ---- -- ------ ------<br>--- ----- -- ----,247535.92999995453,247534.57999997772,247108.678,247121.48499995237,247125.108,247541.636,,5,a
screen,html.Screen,1_1_0_1_6,2021-04-20T15:59:32.168Z,,,,,,,,,,,,,,,,53,,,,,,,,,,,,,,472.4039999800152,,response,,,,99,,,,,,,Space,keypress(Space),,,,,,,,---- -- ----- -- ------ - lasting --- ----------<br>------------- ------ ------ ---- ---- ------- ----- -- ----<br>-------- ------- -- ---------- --- - --- ----- ----- ----<br>---- --- --- ----- --- ---- ---- ------- ----- ---- -------<br>--- --- -- ----- -- --- ---- -- --- ---- -- ------ ------<br>--- ----- -- ----,248015.07999998285,248014.03999998,247525.1,247536.23499994865,247541.636,248024.88,,6,lasting
screen,html.Screen,1_1_0_1_7,2021-04-20T15:59:32.602Z,,,,,,,,,,,,,,,,53,,,,,,,,,,,,,,423.0649999635061,,response,,,,99,,,,,,,Space,keypress(Space),,,,,,,,---- -- ----- -- ------ - ------- and ----------<br>------------- ------ ------ ---- ---- ------- ----- -- ----<br>-------- ------- -- ---------- --- - --- ----- ----- ----<br>---- --- --- ----- --- ---- ---- ------- ----- ---- -------<br>--- --- -- ----- -- --- ---- -- --- ---- -- ------ ------<br>--- ----- -- ----,248449.26500000292,248447.9449999635,248008.282,248015.43499995023,248024.88,248457.999,,7,and
screen,html.Screen,1_1_0_1_8,2021-04-20T15:59:32.964Z,,,,,,,,,,,,,,,,53,,,,,,,,,,,,,,351.7909999702242,,response,,,,99,,,,,,,Space,keypress(Space),,,,,,,,---- -- ----- -- ------ - ------- --- fulfilling<br>------------- ------ ------ ---- ---- ------- ----- -- ----<br>-------- ------- -- ---------- --- - --- ----- ----- ----<br>---- --- --- ----- --- ---- ---- ------- ----- ---- -------<br>--- --- -- ----- -- --- ---- -- --- ---- -- ------ ------<br>--- ----- -- ----,248810.87499996647,248809.78999997023,248441.542,248449.63999994798,248457.999,248824.732,,8,fulfilling
screen,html.Screen,1_1_0_1_9,2021-04-20T15:59:33.409Z,,,,,,,,,,,,,,,,53,,,,,,,,,,,,,,429.42799995312816,,response,,,,99,,,,,,,Space,keypress(Space),,,,,,,,"---- -- ----- -- ------ - ------- --- ----------<br>relationship, ------ ------ ---- ---- ------- ----- -- ----<br>-------- ------- -- ---------- --- - --- ----- ----- ----<br>---- --- --- ----- --- ---- ---- ------- ----- ---- -------<br>--- --- -- ----- -- --- ---- -- --- ---- -- ------ ------<br>--- ----- -- ----",249255.46499999473,249254.15999995312,248808.012,248811.1949999584,248824.732,249257.769,,9,"relationship,"
screen,html.Screen,1_1_0_1_10,2021-04-20T15:59:33.909Z,,,,,,,,,,,,,,,,53,,,,,,,,,,,,,,497.1059999841673,,response,,,,99,,,,,,,Space,keypress(Space),,,,,,,,---- -- ----- -- ------ - ------- --- ----------<br>------------- common ------ ---- ---- ------- ----- -- ----<br>-------- ------- -- ---------- --- - --- ----- ----- ----<br>---- --- --- ----- --- ---- ---- ------- ----- ---- -------<br>--- --- -- ----- -- --- ---- -- --- ---- -- ------ ------<br>--- ----- -- ----,249756.07999996282,249754.87499998417,249241.332,249255.77999994857,249257.769,249785.041,,10,common
screen,html.Screen,1_1_0_1_11,2021-04-20T15:59:34.993Z,,,,,,,,,,,,,,,,53,,,,,,,,,,,,,,1053.3939999832946,,response,,,,99,,,,,,,Space,keypress(Space),,,,,,,,---- -- ----- -- ------ - ------- --- ----------<br>------------- ------ wisdom ---- ---- ------- ----- -- ----<br>-------- ------- -- ---------- --- - --- ----- ----- ----<br>---- --- --- ----- --- ---- ---- ------- ----- ---- -------<br>--- --- -- ----- -- --- ---- -- --- ---- -- ------ ------<br>--- ----- -- ----,250839.7249999689,250838.4349999833,249741.088,249756.42999995034,249785.041,250873.887,,11,wisdom
screen,html.Screen,1_1_0_1_12,2021-04-20T15:59:35.841Z,,,,,,,,,,,,,,,,53,,,,,,,,,,,,,,812.9929999938468,,response,,,,99,,,,,,,Space,keypress(Space),,,,,,,,---- -- ----- -- ------ - ------- --- ----------<br>------------- ------ ------ says ---- ------- ----- -- ----<br>-------- ------- -- ---------- --- - --- ----- ----- ----<br>---- --- --- ----- --- ---- ---- ------- ----- ---- -------<br>--- --- -- ----- -- --- ---- -- --- ---- -- ------ ------<br>--- ----- -- ----,251688.07499995455,251686.87999999383,250857.407,250840.05499997875,250873.887,251690.306,,12,says
screen,html.Screen,1_1_0_1_13,2021-04-20T15:59:36.418Z,,,,,,,,,,,,,,,,53,,,,,,,,,,,,,,573.2289999763889,,response,,,,99,,,,,,,Space,keypress(Space),,,,,,,,---- -- ----- -- ------ - ------- --- ----------<br>------------- ------ ------ ---- that ------- ----- -- ----<br>-------- ------- -- ---------- --- - --- ----- ----- ----<br>---- --- --- ----- --- ---- ---- ------- ----- ---- -------<br>--- --- -- ----- -- --- ---- -- --- ---- -- ------ ------<br>--- ----- -- ----,252264.73999995505,252263.5349999764,251673.807,251688.34999995306,251690.306,252273.497,,13,that
screen,html.Screen,1_1_0_1_14,2021-04-20T15:59:37.118Z,,,,,,,,,,,,,,,,53,,,,,,,,,,,,,,690.338000002288,,response,,,,99,,,,,,,Space,keypress(Space),,,,,,,,---- -- ----- -- ------ - ------- --- ----------<br>------------- ------ ------ ---- ---- feeling ----- -- ----<br>-------- ------- -- ---------- --- - --- ----- ----- ----<br>---- --- --- ----- --- ---- ---- ------- ----- ---- -------<br>--- --- -- ----- -- --- ---- -- --- ---- -- ------ ------<br>--- ----- -- ----,252965.10499995202,252963.8350000023,252256.942,252265.07500000298,252273.497,252973.182,,14,feeling
screen,html.Screen,1_1_0_1_15,2021-04-20T15:59:37.849Z,,,,,,,,,,,,,,,,53,,,,,,,,,,,,,,721.4829999590584,,response,,,,99,,,,,,,Space,keypress(Space),,,,,,,,---- -- ----- -- ------ - ------- --- ----------<br>------------- ------ ------ ---- ---- ------- close -- ----<br>-------- ------- -- ---------- --- - --- ----- ----- ----<br>---- --- --- ----- --- ---- ---- ------- ----- ---- -------<br>--- --- -- ----- -- --- ---- -- --- ---- -- ------ ------<br>--- ----- -- ----,253695.7649999531,253694.66499995906,252956.74,252965.42500000214,252973.182,253706.409,,15,close
screen,html.Screen,1_1_0_1_16,2021-04-20T15:59:38.466Z,,,,,,,,,,,,,,,,53,,,,,,,,,,,,,,605.6609999853827,,response,,,,99,,,,,,,Space,keypress(Space),,,,,,,,---- -- ----- -- ------ - ------- --- ----------<br>------------- ------ ------ ---- ---- ------- ----- to ----<br>-------- ------- -- ---------- --- - --- ----- ----- ----<br>---- --- --- ----- --- ---- ---- ------- ----- ---- -------<br>--- --- -- ----- -- --- ---- -- --- ---- -- ------ ------<br>--- ----- -- ----,254313.1449999637,254312.0699999854,253689.858,253696.05999998748,253706.409,254322.792,,16,to
screen,html.Screen,1_1_0_1_17,2021-04-20T15:59:39.098Z,,,,,,,,,,,,,,,,53,,,,,,,,,,,,,,620.6429999646789,,response,,,,99,,,,,,,Space,keypress(Space),,,,,,,,---- -- ----- -- ------ - ------- --- ----------<br>------------- ------ ------ ---- ---- ------- ----- -- your<br>-------- ------- -- ---------- --- - --- ----- ----- ----<br>---- --- --- ----- --- ---- ---- ------- ----- ---- -------<br>--- --- -- ----- -- --- ---- -- --- ---- -- ------ ------<br>--- ----- -- ----,254944.6149999858,254943.43499996467,254306.315,254313.42999998014,254322.792,254956.055,,17,your
screen,html.Screen,1_1_0_1_18,2021-04-20T15:59:39.858Z,,,,,,,,,,,,,,,,53,,,,,,,,,,,,,,747.3549999582465,,response,,,,99,,,,,,,Space,keypress(Space),,,,,,,,---- -- ----- -- ------ - ------- --- ----------<br>------------- ------ ------ ---- ---- ------- ----- -- ----<br>romantic ------- -- ---------- --- - --- ----- ----- ----<br>---- --- --- ----- --- ---- ---- ------- ----- ---- -------<br>--- --- -- ----- -- --- ---- -- --- ---- -- ------ ------<br>--- ----- -- ----,255704.5999999973,255703.40999995824,254939.313,254944.9199999799,254956.055,255739,,18,romantic
screen,html.Screen,1_1_0_1_19,2021-04-20T15:59:40.573Z,,,,,,,,,,,,,,,,53,,,,,,,,,,,,,,679.9400000032037,,response,,,,99,,,,,,,Space,keypress(Space),,,,,,,,---- -- ----- -- ------ - ------- --- ----------<br>------------- ------ ------ ---- ---- ------- ----- -- ----<br>-------- partner -- ---------- --- - --- ----- ----- ----<br>---- --- --- ----- --- ---- ---- ------- ----- ---- -------<br>--- --- -- ----- -- --- ---- -- --- ---- -- ------ ------<br>--- ----- -- ----,256420.07999995258,256418.9400000032,255722.307,255704.93499998702,255739,256448.035,,19,partner
screen,html.Screen,1_1_0_1_20,2021-04-20T15:59:41.049Z,,,,,,,,,,,,,,,,53,,,,,,,,,,,,,,446.34499995424994,,response,,,,99,,,,,,,Space,keypress(Space),,,,,,,,---- -- ----- -- ------ - ------- --- ----------<br>------------- ------ ------ ---- ---- ------- ----- -- ----<br>-------- ------- is ---------- --- - --- ----- ----- ----<br>---- --- --- ----- --- ---- ---- ------- ----- ---- -------<br>--- --- -- ----- -- --- ---- -- --- ---- -- ------ ------<br>--- ----- -- ----,256895.54999995744,256894.37999995425,256405.499,256420.38999998476,256448.035,256905.275,,20,is
screen,html.Screen,1_1_0_1_21,2021-04-20T15:59:41.694Z,,,,,,,,,,,,,,,,53,,,,,,,,,,,,,,634.9899999596237,,response,,,,99,,,,,,,Space,keypress(Space),,,,,,,,---- -- ----- -- ------ - ------- --- ----------<br>------------- ------ ------ ---- ---- ------- ----- -- ----<br>-------- ------- -- paramount. --- - --- ----- ----- ----<br>---- --- --- ----- --- ---- ---- ------- ----- ---- -------<br>--- --- -- ----- -- --- ---- -- --- ---- -- ------ ------<br>--- ----- -- ----,257541.344999976,257540.26499995962,256888.794,256895.87499998743,256905.275,257555.179,,21,paramount.
screen,html.Screen,1_1_0_1_22,2021-04-20T15:59:42.572Z,,,,,,,,,,,,,,,,53,,,,,,,,,,,,,,862.385999952443,,response,,,,99,,,,,,,Space,keypress(Space),,,,,,,,---- -- ----- -- ------ - ------- --- ----------<br>------------- ------ ------ ---- ---- ------- ----- -- ----<br>-------- ------- -- ---------- But - --- ----- ----- ----<br>---- --- --- ----- --- ---- ---- ------- ----- ---- -------<br>--- --- -- ----- -- --- ---- -- --- ---- -- ------ ------<br>--- ----- -- ----,258418.7399999937,258417.56499995245,257538.566,257541.68999998365,257555.179,258421.439,,22,But
screen,html.Screen,1_1_0_1_23,2021-04-20T15:59:43.057Z,,,,,,,,,,,,,,,,53,,,,,,,,,,,,,,481.2859999926295,,response,,,,99,,,,,,,Space,keypress(Space),,,,,,,,---- -- ----- -- ------ - ------- --- ----------<br>------------- ------ ------ ---- ---- ------- ----- -- ----<br>-------- ------- -- ---------- --- a --- ----- ----- ----<br>---- --- --- ----- --- ---- ---- ------- ----- ---- -------<br>--- --- -- ----- -- --- ---- -- --- ---- -- ------ ------<br>--- ----- -- ----,258903.89499999583,258902.72499999264,258404.933,258419.01999997208,258421.439,258921.447,,23,a
screen,html.Screen,1_1_0_1_24,2021-04-20T15:59:43.749Z,,,,,,,,,,,,,,,,53,,,,,,,,,,,,,,672.90799995017,,response,,,,99,,,,,,,Space,keypress(Space),,,,,,,,---- -- ----- -- ------ - ------- --- ----------<br>------------- ------ ------ ---- ---- ------- ----- -- ----<br>-------- ------- -- ---------- --- - new ----- ----- ----<br>---- --- --- ----- --- ---- ---- ------- ----- ---- -------<br>--- --- -- ----- -- --- ---- -- --- ---- -- ------ ------<br>--- ----- -- ----,259595.6249999581,259594.35499995016,258904.766,258904.34999996796,258921.447,259604.374,,24,new
screen,html.Screen,1_1_0_1_25,2021-04-20T15:59:44.357Z,,,,,,,,,,,,,,,,53,,,,,,,,,,,,,,598.5209999948856,,response,,,,99,,,,,,,Space,keypress(Space),,,,,,,,---- -- ----- -- ------ - ------- --- ----------<br>------------- ------ ------ ---- ---- ------- ----- -- ----<br>-------- ------- -- ---------- --- - --- study ----- ----<br>---- --- --- ----- --- ---- ---- ------- ----- ---- -------<br>--- --- -- ----- -- --- ---- -- --- ---- -- ------ ------<br>--- ----- -- ----,260204.18999996036,260202.8949999949,259587.874,259595.95499996794,259604.374,260220.824,,25,study
screen,html.Screen,1_1_0_1_26,2021-04-20T15:59:44.927Z,,,,,,,,,,,,,,,,53,,,,,,,,,,,,,,551.7409999920346,,response,,,,99,,,,,,,Space,keypress(Space),,,,,,,,---- -- ----- -- ------ - ------- --- ----------<br>------------- ------ ------ ---- ---- ------- ----- -- ----<br>-------- ------- -- ---------- --- - --- ----- finds ----<br>---- --- --- ----- --- ---- ---- ------- ----- ---- -------<br>--- --- -- ----- -- --- ---- -- --- ---- -- ------ ------<br>--- ----- -- ----,260773.78999994835,260772.56499999203,260204.399,260204.48499999475,260220.824,260787.442,,26,finds
screen,html.Screen,1_1_0_1_27,2021-04-20T15:59:45.423Z,,,,,,,,,,,,,,,,53,,,,,,,,,,,,,,480.34799995439244,,response,,,,99,,,,,,,Space,keypress(Space),,,,,,,,---- -- ----- -- ------ - ------- --- ----------<br>------------- ------ ------ ---- ---- ------- ----- -- ----<br>-------- ------- -- ---------- --- - --- ----- ----- that<br>---- --- --- ----- --- ---- ---- ------- ----- ---- -------<br>--- --- -- ----- -- --- ---- -- --- ---- -- ------ ------<br>--- ----- -- ----,261269.4949999568,261267.7899999544,260770.757,260774.08000000287,260787.442,261287.178,,27,that
screen,html.Screen,1_1_0_1_28,2021-04-20T15:59:45.990Z,,,,,,,,,,,,,,,,53,,,,,,,,,,,,,,548.0819999634405,,response,,,,99,,,,,,,Space,keypress(Space),,,,,,,,---- -- ----- -- ------ - ------- --- ----------<br>------------- ------ ------ ---- ---- ------- ----- -- ----<br>-------- ------- -- ---------- --- - --- ----- ----- ----<br>it's --- --- ----- --- ---- ---- ------- ----- ---- -------<br>--- --- -- ----- -- --- ---- -- --- ---- -- ------ ------<br>--- ----- -- ----,261836.48499997798,261835.25999996345,261253.953,261269.71999998204,261287.178,261853.674,,28,it's
screen,html.Screen,1_1_0_1_29,2021-04-20T15:59:46.772Z,,,,,,,,,,,,,,,,53,,,,,,,,,,,,,,763.4809999853605,,response,,,,99,,,,,,,Space,keypress(Space),,,,,,,,---- -- ----- -- ------ - ------- --- ----------<br>------------- ------ ------ ---- ---- ------- ----- -- ----<br>-------- ------- -- ---------- --- - --- ----- ----- ----<br>---- not --- ----- --- ---- ---- ------- ----- ---- -------<br>--- --- -- ----- -- --- ---- -- --- ---- -- ------ ------<br>--- ----- -- ----,262618.39999997756,262617.15499998536,261837.088,261836.79499995196,261853.674,262647.146,,29,not
screen,html.Screen,1_1_0_1_30,2021-04-20T15:59:47.405Z,,,,,,,,,,,,,,,,53,,,,,,,,,,,,,,603.433999992616,,response,,,,99,,,,,,,Space,keypress(Space),,,,,,,,---- -- ----- -- ------ - ------- --- ----------<br>------------- ------ ------ ---- ---- ------- ----- -- ----<br>-------- ------- -- ---------- --- - --- ----- ----- ----<br>---- --- how ----- --- ---- ---- ------- ----- ---- -------<br>--- --- -- ----- -- --- ---- -- --- ---- -- ------ ------<br>--- ----- -- ----,263251.9949999987,263250.5799999926,262603.602,262618.72499994934,262647.146,263269.91,,30,how
screen,html.Screen,1_1_0_1_31,2021-04-20T15:59:48.026Z,,,,,,,,,,,,,,,,53,,,,,,,,,,,,,,601.8149999754387,,response,,,,99,,,,,,,Space,keypress(Space),,,,,,,,---- -- ----- -- ------ - ------- --- ----------<br>------------- ------ ------ ---- ---- ------- ----- -- ----<br>-------- ------- -- ---------- --- - --- ----- ----- ----<br>---- --- --- close --- ---- ---- ------- ----- ---- -------<br>--- --- -- ----- -- --- ---- -- --- ---- -- ------ ------<br>--- ----- -- ----,263873.3249999932,263871.7249999754,263236.766,263252.40499997744,263269.91,263886.361,,31,close
screen,html.Screen,1_1_0_1_32,2021-04-20T15:59:48.641Z,,,,,,,,,,,,,,,,53,,,,,,,,,,,,,,600.2839999972493,,response,,,,99,,,,,,,Space,keypress(Space),,,,,,,,---- -- ----- -- ------ - ------- --- ----------<br>------------- ------ ------ ---- ---- ------- ----- -- ----<br>-------- ------- -- ---------- --- - --- ----- ----- ----<br>---- --- --- ----- you ---- ---- ------- ----- ---- -------<br>--- --- -- ----- -- --- ---- -- --- ---- -- ------ ------<br>--- ----- -- ----,264487.754999951,264486.6449999972,263869.681,263873.46999999136,263886.361,264502.961,,32,you
screen,html.Screen,1_1_0_1_33,2021-04-20T15:59:49.318Z,,,,,,,,,,,,,,,,53,,,,,,,,,,,,,,661.7039999893168,,response,,,,99,,,,,,,Space,keypress(Space),,,,,,,,---- -- ----- -- ------ - ------- --- ----------<br>------------- ------ ------ ---- ---- ------- ----- -- ----<br>-------- ------- -- ---------- --- - --- ----- ----- ----<br>---- --- --- ----- --- feel ---- ------- ----- ---- -------<br>--- --- -- ----- -- --- ---- -- --- ---- -- ------ ------<br>--- ----- -- ----,265165.2849999955,265164.6649999893,264486.276,264488.079999981,264502.961,265169.158,,33,feel
screen,html.Screen,1_1_0_1_34,2021-04-20T15:59:49.878Z,,,,,,,,,,,,,,,,53,,,,,,,,,,,,,,554.2969999702764,,response,,,,99,,,,,,,Space,keypress(Space),,,,,,,,---- -- ----- -- ------ - ------- --- ----------<br>------------- ------ ------ ---- ---- ------- ----- -- ----<br>-------- ------- -- ---------- --- - --- ----- ----- ----<br>---- --- --- ----- --- ---- that ------- ----- ---- -------<br>--- --- -- ----- -- --- ---- -- --- ---- -- ------ ------<br>--- ----- -- ----,265724.57999998005,265723.4549999703,265152.839,265165.4349999735,265169.158,265752.347,,34,that
screen,html.Screen,1_1_0_1_35,2021-04-20T15:59:50.563Z,,,,,,,,,,,,,,,,53,,,,,,,,,,,,,,655.0529999673017,,response,,,,99,,,,,,,Space,keypress(Space),,,,,,,,---- -- ----- -- ------ - ------- --- ----------<br>------------- ------ ------ ---- ---- ------- ----- -- ----<br>-------- ------- -- ---------- --- - --- ----- ----- ----<br>---- --- --- ----- --- ---- ---- matters ----- ---- -------<br>--- --- -- ----- -- --- ---- -- --- ---- -- ------ ------<br>--- ----- -- ----,266410.1549999905,266407.3999999673,265735.716,265738.5049999575,265752.347,266418.853,,35,matters
screen,html.Screen,1_1_0_1_36,2021-04-20T15:59:51.177Z,,,,,,,,,,,,,,,,53,,,,,,,,,,,,,,604.0669999594102,,response,,,,99,,,,,,,Space,keypress(Space),,,,,,,,"---- -- ----- -- ------ - ------- --- ----------<br>------------- ------ ------ ---- ---- ------- ----- -- ----<br>-------- ------- -- ---------- --- - --- ----- ----- ----<br>---- --- --- ----- --- ---- ---- ------- most, ---- -------<br>--- --- -- ----- -- --- ---- -- --- ---- -- ------ ------<br>--- ----- -- ----",267024.1099999985,267022.9199999594,266402.281,266410.2899999707,266418.853,267035.207,,36,"most,"
screen,html.Screen,1_1_0_1_37,2021-04-20T15:59:51.727Z,,,,,,,,,,,,,,,,53,,,,,,,,,,,,,,537.0229999906733,,response,,,,99,,,,,,,Space,keypress(Space),,,,,,,,---- -- ----- -- ------ - ------- --- ----------<br>------------- ------ ------ ---- ---- ------- ----- -- ----<br>-------- ------- -- ---------- --- - --- ----- ----- ----<br>---- --- --- ----- --- ---- ---- ------- ----- it's -------<br>--- --- -- ----- -- --- ---- -- --- ---- -- ------ ------<br>--- ----- -- ----,267573.55499995174,267572.22999999067,267018.781,267024.4149999926,267035.207,267585.262,,37,it's
screen,html.Screen,1_1_0_1_38,2021-04-20T15:59:52.329Z,,,,,,,,,,,,,,,,53,,,,,,,,,,,,,,589.6779999971623,,response,,,,99,,,,,,,Space,keypress(Space),,,,,,,,---- -- ----- -- ------ - ------- --- ----------<br>------------- ------ ------ ---- ---- ------- ----- -- ----<br>-------- ------- -- ---------- --- - --- ----- ----- ----<br>---- --- --- ----- --- ---- ---- ------- ----- ---- whether<br>--- --- -- ----- -- --- ---- -- --- ---- -- ------ ------<br>--- ----- -- ----,268176.08999996446,268174.93999999715,267568.566,267574.0999999689,267585.262,268184.876,,38,whether
screen,html.Screen,1_1_0_1_39,2021-04-20T15:59:52.979Z,,,,,,,,,,,,,,,,53,,,,,,,,,,,,,,639.4889999494771,,response,,,,99,,,,,,,Space,keypress(Space),,,,,,,,---- -- ----- -- ------ - ------- --- ----------<br>------------- ------ ------ ---- ---- ------- ----- -- ----<br>-------- ------- -- ---------- --- - --- ----- ----- ----<br>---- --- --- ----- --- ---- ---- ------- ----- ---- -------<br>you --- -- ----- -- --- ---- -- --- ---- -- ------ ------<br>--- ----- -- ----,268825.514999975,268824.36499994947,268168.534,268176.4049999765,268184.876,268834.653,,39,you
screen,html.Screen,1_1_0_1_40,2021-04-20T15:59:53.421Z,,,,,,,,,,,,,,,,53,,,,,,,,,,,,,,431.85199994867435,,response,,,,99,,,,,,,Space,keypress(Space),,,,,,,,---- -- ----- -- ------ - ------- --- ----------<br>------------- ------ ------ ---- ---- ------- ----- -- ----<br>-------- ------- -- ---------- --- - --- ----- ----- ----<br>---- --- --- ----- --- ---- ---- ------- ----- ---- -------<br>--- are -- ----- -- --- ---- -- --- ---- -- ------ ------<br>--- ----- -- ----,269267.85999996355,269266.50499994867,268818.181,268825.82999998704,268834.653,269284.588,,40,are
screen,html.Screen,1_1_0_1_41,2021-04-20T15:59:54.009Z,,,,,,,,,,,,,,,,53,,,,,,,,,,,,,,570.201999953948,,response,,,,99,,,,,,,Space,keypress(Space),,,,,,,,---- -- ----- -- ------ - ------- --- ----------<br>------------- ------ ------ ---- ---- ------- ----- -- ----<br>-------- ------- -- ---------- --- - --- ----- ----- ----<br>---- --- --- ----- --- ---- ---- ------- ----- ---- -------<br>--- --- as ----- -- --- ---- -- --- ---- -- ------ ------<br>--- ----- -- ----,269856.0399999842,269854.78999995394,269267.947,269268.1899999734,269284.588,269867.822,,41,as
screen,html.Screen,1_1_0_1_42,2021-04-20T15:59:54.657Z,,,,,,,,,,,,,,,,53,,,,,,,,,,,,,,635.6779999916325,,response,,,,99,,,,,,,Space,keypress(Space),,,,,,,,---- -- ----- -- ------ - ------- --- ----------<br>------------- ------ ------ ---- ---- ------- ----- -- ----<br>-------- ------- -- ---------- --- - --- ----- ----- ----<br>---- --- --- ----- --- ---- ---- ------- ----- ---- -------<br>--- --- -- close -- --- ---- -- --- ---- -- ------ ------<br>--- ----- -- ----,270504.0549999685,270503.4999999916,269851.201,269856.3499999582,269867.822,270517.5,,42,close
screen,html.Screen,1_1_0_1_43,2021-04-20T15:59:55.154Z,,,,,,,,,,,,,,,,53,,,,,,,,,,,,,,482.244999979157,,response,,,,99,,,,,,,Space,keypress(Space),,,,,,,,---- -- ----- -- ------ - ------- --- ----------<br>------------- ------ ------ ---- ---- ------- ----- -- ----<br>-------- ------- -- ---------- --- - --- ----- ----- ----<br>---- --- --- ----- --- ---- ---- ------- ----- ---- -------<br>--- --- -- ----- as --- ---- -- --- ---- -- ------ ------<br>--- ----- -- ----,271000.8099999977,270999.74499997916,270500.897,270504.1899999487,270517.5,271017.448,,43,as
screen,html.Screen,1_1_0_1_44,2021-04-20T15:59:55.624Z,,,,,,,,,,,,,,,,53,,,,,,,,,,,,,,451.6269999718061,,response,,,,99,,,,,,,Space,keypress(Space),,,,,,,,---- -- ----- -- ------ - ------- --- ----------<br>------------- ------ ------ ---- ---- ------- ----- -- ----<br>-------- ------- -- ---------- --- - --- ----- ----- ----<br>---- --- --- ----- --- ---- ---- ------- ----- ---- -------<br>--- --- -- ----- -- you ---- -- --- ---- -- ------ ------<br>--- ----- -- ----,271470.3749999753,271469.0749999718,271000.762,271001.0749999783,271017.448,271484.008,,44,you
screen,html.Screen,1_1_0_1_45,2021-04-20T15:59:56.116Z,,,,,,,,,,,,,,,,53,,,,,,,,,,,,,,477.38199995312607,,response,,,,99,,,,,,,Space,keypress(Space),,,,,,,,---- -- ----- -- ------ - ------- --- ----------<br>------------- ------ ------ ---- ---- ------- ----- -- ----<br>-------- ------- -- ---------- --- - --- ----- ----- ----<br>---- --- --- ----- --- ---- ---- ------- ----- ---- -------<br>--- --- -- ----- -- --- want -- --- ---- -- ------ ------<br>--- ----- -- ----,271962.5249999808,271961.3899999531,271467.293,271470.76999995625,271484.008,271966.948,,45,want
screen,html.Screen,1_1_0_1_46,2021-04-20T15:59:56.647Z,,,,,,,,,,,,,,,,53,,,,,,,,,,,,,,524.9519999645418,,response,,,,99,,,,,,,Space,keypress(Space),,,,,,,,---- -- ----- -- ------ - ------- --- ----------<br>------------- ------ ------ ---- ---- ------- ----- -- ----<br>-------- ------- -- ---------- --- - --- ----- ----- ----<br>---- --- --- ----- --- ---- ---- ------- ----- ---- -------<br>--- --- -- ----- -- --- ---- to --- ---- -- ------ ------<br>--- ----- -- ----,272493.5749999713,272491.8999999645,271950.435,271965.4149999842,271966.948,272500.082,,46,to
screen,html.Screen,1_1_0_1_47,2021-04-20T15:59:57.147Z,,,,,,,,,,,,,,,,53,,,,,,,,,,,,,,492.9629999519675,,response,,,,99,,,,,,,Space,keypress(Space),,,,,,,,"---- -- ----- -- ------ - ------- --- ----------<br>------------- ------ ------ ---- ---- ------- ----- -- ----<br>-------- ------- -- ---------- --- - --- ----- ----- ----<br>---- --- --- ----- --- ---- ---- ------- ----- ---- -------<br>--- --- -- ----- -- --- ---- -- be, ---- -- ------ ------<br>--- ----- -- ----",272994.22999995295,272993.04499995196,272483.479,272493.84499998996,272500.082,272999.97,,47,"be,"
screen,html.Screen,1_1_0_1_48,2021-04-20T15:59:57.772Z,,,,,,,,,,,,,,,,53,,,,,,,,,,,,,,618.1549999790732,,response,,,,99,,,,,,,Space,keypress(Space),,,,,,,,---- -- ----- -- ------ - ------- --- ----------<br>------------- ------ ------ ---- ---- ------- ----- -- ----<br>-------- ------- -- ---------- --- - --- ----- ----- ----<br>---- --- --- ----- --- ---- ---- ------- ----- ---- -------<br>--- --- -- ----- -- --- ---- -- --- even -- ------ ------<br>--- ----- -- ----,273619.1799999797,273618.12499997905,272983.389,272994.4799999939,272999.97,273633.179,,48,even
screen,html.Screen,1_1_0_1_49,2021-04-20T15:59:58.256Z,,,,,,,,,,,,,,,,53,,,,,,,,,,,,,,469.0559999984689,,response,,,,99,,,,,,,Space,keypress(Space),,,,,,,,---- -- ----- -- ------ - ------- --- ----------<br>------------- ------ ------ ---- ---- ------- ----- -- ----<br>-------- ------- -- ---------- --- - --- ----- ----- ----<br>---- --- --- ----- --- ---- ---- ------- ----- ---- -------<br>--- --- -- ----- -- --- ---- -- --- ---- if ------ ------<br>--- ----- -- ----,274103.26499998337,274102.2349999985,273616.534,273619.44499996025,273633.179,274116.428,,49,if
screen,html.Screen,1_1_0_1_50,2021-04-20T15:59:58.778Z,,,,,,,,,,,,,,,,53,,,,,,,,,,,,,,507.87699994660215,,response,,,,99,,,,,,,Space,keypress(Space),,,,,,,,---- -- ----- -- ------ - ------- --- ----------<br>------------- ------ ------ ---- ---- ------- ----- -- ----<br>-------- ------- -- ---------- --- - --- ----- ----- ----<br>---- --- --- ----- --- ---- ---- ------- ----- ---- -------<br>--- --- -- ----- -- --- ---- -- --- ---- -- that's ------<br>--- ----- -- ----,274625.03499997547,274624.3049999466,274099.864,274103.5249999841,274116.428,274632.795,,50,that's
screen,html.Screen,1_1_0_1_51,2021-04-20T15:59:59.209Z,,,,,,,,,,,,,,,,53,,,,,,,,,,,,,,421.7949999560951,,response,,,,99,,,,,,,Space,keypress(Space),,,,,,,,---- -- ----- -- ------ - ------- --- ----------<br>------------- ------ ------ ---- ---- ------- ----- -- ----<br>-------- ------- -- ---------- --- - --- ----- ----- ----<br>---- --- --- ----- --- ---- ---- ------- ----- ---- -------<br>--- --- -- ----- -- --- ---- -- --- ---- -- ------ really<br>--- ----- -- ----,275055.69999996806,275054.5899999561,274616.337,274625.2099999692,274632.795,275066.04,,51,really
screen,html.Screen,1_1_0_1_52,2021-04-20T15:59:59.689Z,,,,,,,,,,,,,,,,53,,,,,,,,,,,,,,468.4649999887333,,response,,,,99,,,,,,,Space,keypress(Space),,,,,,,,---- -- ----- -- ------ - ------- --- ----------<br>------------- ------ ------ ---- ---- ------- ----- -- ----<br>-------- ------- -- ---------- --- - --- ----- ----- ----<br>---- --- --- ----- --- ---- ---- ------- ----- ---- -------<br>--- --- -- ----- -- --- ---- -- --- ---- -- ------ ------<br>not ----- -- ----,275535.6099999626,275534.5049999887,275049.487,275055.9699999867,275066.04,275549.286,,52,not
screen,html.Screen,1_1_0_1_53,2021-04-20T16:00:00.169Z,,,,,,,,,,,,,,,,53,,,,,,,,,,,,,,466.3539999977802,,response,,,,99,,,,,,,Space,keypress(Space),,,,,,,,---- -- ----- -- ------ - ------- --- ----------<br>------------- ------ ------ ---- ---- ------- ----- -- ----<br>-------- ------- -- ---------- --- - --- ----- ----- ----<br>---- --- --- ----- --- ---- ---- ------- ----- ---- -------<br>--- --- -- ----- -- --- ---- -- --- ---- -- ------ ------<br>--- close -- ----,276016.18499995675,276015.6399999978,275532.652,275535.8999999589,275549.286,276032.33,,53,close
screen,html.Screen,1_1_0_1_54,2021-04-20T16:00:00.633Z,,,,,,,,,,,,,,,,53,,,,,,,,,,,,,,446.2649999932037,,response,,,,99,,,,,,,Space,keypress(Space),,,,,,,,---- -- ----- -- ------ - ------- --- ----------<br>------------- ------ ------ ---- ---- ------- ----- -- ----<br>-------- ------- -- ---------- --- - --- ----- ----- ----<br>---- --- --- ----- --- ---- ---- ------- ----- ---- -------<br>--- --- -- ----- -- --- ---- -- --- ---- -- ------ ------<br>--- ----- at ----,276479.63499999605,276478.5949999932,276015.845,276016.3149999571,276032.33,276482.13,,54,at
screen,html.Screen,1_1_0_1_55,2021-04-20T16:00:03.034Z,,,,,,,,,,,,,,,,53,,,,,,,,,,,,,,2397.469999985653,,response,,,,99,,,,,,,Space,keypress(Space),,,,,,,,---- -- ----- -- ------ - ------- --- ----------<br>------------- ------ ------ ---- ---- ------- ----- -- ----<br>-------- ------- -- ---------- --- - --- ----- ----- ----<br>---- --- --- ----- --- ---- ---- ------- ----- ---- -------<br>--- --- -- ----- -- --- ---- -- --- ---- -- ------ ------<br>--- ----- -- all.,278880.8699999936,278879.59999998566,276465.491,276479.8849999788,276482.13,278898.089,,55,all.
Item 99,flow.Loop,1_1_0_1,2021-04-20T16:00:03.035Z,,,,,,,,,,,,,,,,,,,,,,,,,,,,,,34520.18799998565,,completion,,,,,F,,,,,,,,,,,silence,,,,,278881.4499999862,278879.59999998566,244326.113,244327.47499999823,244359.412,278898.089,,,
Question 1,html.Screen,1_1_0_2,2021-04-20T16:00:11.628Z,,,,,,,,,,,,,,,,,,,,,,,,,,,true,FALSE,,8575.890999951574,,response,,,,99,F,,,,,,FALSE,click #choice-2,,,,silence,,,,,287475.31499998877,287473.97999995155,278881.611,278881.6949999891,278898.089,287478.573,,,
Question 2,html.Screen,1_1_0_3,2021-04-20T16:00:17.411Z,,,,,,,,,,,,,,,,,,,,,,,,,,,true,TRUE,,5778.576999961282,,response,,,,99,F,,,,,,TRUE,click #choice-1,,,,silence,,,,,293258.0799999996,293257.14999996126,287461.923,287475.4349999712,287478.573,293259.989,,,
Item 99,flow.Sequence,1_1_0,2021-04-20T16:00:17.411Z,,,,,,,,,,,,,,,,,,,,,,,,,,,,,,58911.25999996124,,completion,,,,,,,,,,,,,,,,,,,,,293258.27499997104,293257.14999996126,234329.239,234347.5749999634,234345.89,293259.989,,,
Holding screen,html.Screen,1_1_1_0,2021-04-20T16:00:27.395Z,,,,,,,,,,,,,,,,,,,,,,,,,,,,,,9996.842000000004,,timeout,,,,,,,,,,,,,,,,,,,,,303241.3049999741,303240.266,293243.364,293258.42499994906,293259.989,303256.831,,,
screen,html.Screen,1_1_1_1_0,2021-04-20T16:00:27.973Z,,,,,,,,,,,,,,,,54,,,,,,,,,,,,,,560.3289999768604,,response,,,,100,,,,,,,Space,keypress(Space),,,,,,,,At --- ---- --- ------ ----- ------- ---- -- --- ------- --<br>------- ---------- ------ -- ----- -- ----- -- ---- ------<br>--- ----- --- --- ------ -------- ----- --- ------ ----- --<br>----- ----- ---------- --- --- ------ ------ ---- -- ------<br>------- --- ------ ----- --- ---- ------- -- ---- --- --<br>------- ------,303819.1050000023,303817.15999997687,303240.266,303241.6599999997,303256.831,303823.261,,0,At
screen,html.Screen,1_1_1_1_1,2021-04-20T16:00:28.585Z,,,,,,,,,,,,,,,,54,,,,,,,,,,,,,,606.8039999640896,,response,,,,100,,,,,,,Space,keypress(Space),,,,,,,,-- the ---- --- ------ ----- ------- ---- -- --- ------- --<br>------- ---------- ------ -- ----- -- ----- -- ---- ------<br>--- ----- --- --- ------ -------- ----- --- ------ ----- --<br>----- ----- ---------- --- --- ------ ------ ---- -- ------<br>------- --- ------ ----- --- ---- ------- -- ---- --- --<br>------- ------,304431.40499998117,304430.0649999641,303806.811,303819.55999997444,303823.261,304439.666,,1,the
screen,html.Screen,1_1_1_1_2,2021-04-20T16:00:29.159Z,,,,,,,,,,,,,,,,54,,,,,,,,,,,,,,564.5339999666321,,response,,,,100,,,,,,,Space,keypress(Space),,,,,,,,-- --- time --- ------ ----- ------- ---- -- --- ------- --<br>------- ---------- ------ -- ----- -- ----- -- ---- ------<br>--- ----- --- --- ------ -------- ----- --- ------ ----- --<br>----- ----- ---------- --- --- ------ ------ ---- -- ------<br>------- --- ------ ----- --- ---- ------- -- ---- --- --<br>------- ------,305005.09499997133,305004.19999996666,304423.23,304431.9049999467,304439.666,305027.385,,2,time
screen,html.Screen,1_1_1_1_3,2021-04-20T16:00:29.822Z,,,,,,,,,,,,,,,,54,,,,,,,,,,,,,,639.9099999919999,,response,,,,100,,,,,,,Space,keypress(Space),,,,,,,,-- --- ---- the ------ ----- ------- ---- -- --- ------- --<br>------- ---------- ------ -- ----- -- ----- -- ---- ------<br>--- ----- --- --- ------ -------- ----- --- ------ ----- --<br>----- ----- ---------- --- --- ------ ------ ---- -- ------<br>------- --- ------ ----- --- ---- ------- -- ---- --- --<br>------- ------,305668.2599999476,305667.294999992,304989.564,305005.30999997864,305027.385,305672.614,,3,the
screen,html.Screen,1_1_1_1_4,2021-04-20T16:00:30.372Z,,,,,,,,,,,,,,,,54,,,,,,,,,,,,,,543.6559999753372,,response,,,,100,,,,,,,Space,keypress(Space),,,,,,,,-- --- ---- --- French ----- ------- ---- -- --- ------- --<br>------- ---------- ------ -- ----- -- ----- -- ---- ------<br>--- ----- --- --- ------ -------- ----- --- ------ ----- --<br>----- ----- ---------- --- --- ------ ------ ---- -- ------<br>------- --- ------ ----- --- ---- ------- -- ---- --- --<br>------- ------,306218.09499996016,306216.26999997534,305656.194,305668.48499997286,305672.614,306222.428,,4,French
screen,html.Screen,1_1_1_1_5,2021-04-20T16:00:31.254Z,,,,,,,,,,,,,,,,54,,,,,,,,,,,,,,876.616999980819,,response,,,,100,,,,,,,Space,keypress(Space),,,,,,,,-- --- ---- --- ------ crown ------- ---- -- --- ------- --<br>------- ---------- ------ -- ----- -- ----- -- ---- ------<br>--- ----- --- --- ------ -------- ----- --- ------ ----- --<br>----- ----- ---------- --- --- ------ ------ ---- -- ------<br>------- --- ------ ----- --- ---- ------- -- ---- --- --<br>------- ------,307100.0599999679,307099.04499998083,306205.986,306218.40499999234,306222.428,307105.517,,5,crown
screen,html.Screen,1_1_1_1_6,2021-04-20T16:00:32.022Z,,,,,,,,,,,,,,,,54,,,,,,,,,,,,,,761.7379999901168,,response,,,,100,,,,,,,Space,keypress(Space),,,,,,,,-- --- ---- --- ------ ----- secured ---- -- --- ------- --<br>------- ---------- ------ -- ----- -- ----- -- ---- ------<br>--- ----- --- --- ------ -------- ----- --- ------ ----- --<br>----- ----- ---------- --- --- ------ ------ ---- -- ------<br>------- --- ------ ----- --- ---- ------- -- ---- --- --<br>------- ------,307868.0049999966,307867.2549999901,307088.878,307100.2949999529,307105.517,307871.919,,6,secured
screen,html.Screen,1_1_1_1_7,2021-04-20T16:00:32.525Z,,,,,,,,,,,,,,,,54,,,,,,,,,,,,,,497.57599999173544,,response,,,,100,,,,,,,Space,keypress(Space),,,,,,,,-- --- ---- --- ------ ----- ------- much -- --- ------- --<br>------- ---------- ------ -- ----- -- ----- -- ---- ------<br>--- ----- --- --- ------ -------- ----- --- ------ ----- --<br>----- ----- ---------- --- --- ------ ------ ---- -- ------<br>------- --- ------ ----- --- ---- ------- -- ---- --- --<br>------- ------,308370.84499996854,308369.49499999173,307855.299,307868.1749999523,307871.919,308405.263,,7,much
screen,html.Screen,1_1_1_1_8,2021-04-20T16:00:32.917Z,,,,,,,,,,,,,,,,54,,,,,,,,,,,,,,356.79699997912394,,response,,,,100,,,,,,,Space,keypress(Space),,,,,,,,-- --- ---- --- ------ ----- ------- ---- of --- ------- --<br>------- ---------- ------ -- ----- -- ----- -- ---- ------<br>--- ----- --- --- ------ -------- ----- --- ------ ----- --<br>----- ----- ---------- --- --- ------ ------ ---- -- ------<br>------- --- ------ ----- --- ---- ------- -- ---- --- --<br>------- ------,308763.254999998,308762.0599999791,308388.562,308371.1249999469,308405.263,308771.682,,8,of
screen,html.Screen,1_1_1_1_9,2021-04-20T16:00:33.328Z,,,,,,,,,,,,,,,,54,,,,,,,,,,,,,,401.14799999591196,,response,,,,100,,,,,,,Space,keypress(Space),,,,,,,,-- --- ---- --- ------ ----- ------- ---- -- its ------- --<br>------- ---------- ------ -- ----- -- ----- -- ---- ------<br>--- ----- --- --- ------ -------- ----- --- ------ ----- --<br>----- ----- ---------- --- --- ------ ------ ---- -- ------<br>------- --- ------ ----- --- ---- ------- -- ---- --- --<br>------- ------,309173.9299999899,309172.8299999959,308755.205,308763.52499995846,308771.682,309188.308,,9,its
screen,html.Screen,1_1_1_1_10,2021-04-20T16:00:34.072Z,,,,,,,,,,,,,,,,54,,,,,,,,,,,,,,728.4269999770331,,response,,,,100,,,,,,,Space,keypress(Space),,,,,,,,-- --- ---- --- ------ ----- ------- ---- -- --- revenue --<br>------- ---------- ------ -- ----- -- ----- -- ---- ------<br>--- ----- --- --- ------ -------- ----- --- ------ ----- --<br>----- ----- ---------- --- --- ------ ------ ---- -- ------<br>------- --- ------ ----- --- ---- ------- -- ---- --- --<br>------- ------,309917.9399999557,309916.73499997705,309171.643,309174.18999999063,309188.308,309921.288,,10,revenue
screen,html.Screen,1_1_1_1_11,2021-04-20T16:00:34.762Z,,,,,,,,,,,,,,,,54,,,,,,,,,,,,,,686.6619999759714,,response,,,,100,,,,,,,Space,keypress(Space),,,,,,,,-- --- ---- --- ------ ----- ------- ---- -- --- ------- by<br>------- ---------- ------ -- ----- -- ----- -- ---- ------<br>--- ----- --- --- ------ -------- ----- --- ------ ----- --<br>----- ----- ---------- --- --- ------ ------ ---- -- ------<br>------- --- ------ ----- --- ---- ------- -- ---- --- --<br>------- ------,310608.499999973,310607.949999976,309904.753,309918.229999952,309921.288,310621.047,,11,by
screen,html.Screen,1_1_1_1_12,2021-04-20T16:00:35.510Z,,,,,,,,,,,,,,,,54,,,,,,,,,,,,,,734.7329999834765,,response,,,,100,,,,,,,Space,keypress(Space),,,,,,,,-- --- ---- --- ------ ----- ------- ---- -- --- ------- --<br>issuing ---------- ------ -- ----- -- ----- -- ---- ------<br>--- ----- --- --- ------ -------- ----- --- ------ ----- --<br>----- ----- ---------- --- --- ------ ------ ---- -- ------<br>------- --- ------ ----- --- ---- ------- -- ---- --- --<br>------- ------,311356.7150000017,311355.7799999835,310604.472,310608.65999996895,310621.047,311370.933,,12,issuing
screen,html.Screen,1_1_1_1_13,2021-04-20T16:00:36.168Z,,,,,,,,,,,,,,,,54,,,,,,,,,,,,,,642.3619999533403,,response,,,,100,,,,,,,Space,keypress(Space),,,,,,,,-- --- ---- --- ------ ----- ------- ---- -- --- ------- --<br>------- government ------ -- ----- -- ----- -- ---- ------<br>--- ----- --- --- ------ -------- ----- --- ------ ----- --<br>----- ----- ---------- --- --- ------ ------ ---- -- ------<br>------- --- ------ ----- --- ---- ------- -- ---- --- --<br>------- ------,312014.5049999701,312013.29499995336,311354.306,311356.9349999889,311370.933,312020.558,,13,government
screen,html.Screen,1_1_1_1_14,2021-04-20T16:00:37.073Z,,,,,,,,,,,,,,,,54,,,,,,,,,,,,,,897.9669999863836,,response,,,,100,,,,,,,Space,keypress(Space),,,,,,,,-- --- ---- --- ------ ----- ------- ---- -- --- ------- --<br>------- ---------- bonds. -- ----- -- ----- -- ---- ------<br>--- ----- --- --- ------ -------- ----- --- ------ ----- --<br>----- ----- ---------- --- --- ------ ------ ---- -- ------<br>------- --- ------ ----- --- ---- ------- -- ---- --- --<br>------- ------,312919.75999996066,312918.5249999864,312004.131,312014.81999998214,312020.558,312937.018,,14,bonds.
screen,html.Screen,1_1_1_1_15,2021-04-20T16:00:37.630Z,,,,,,,,,,,,,,,,54,,,,,,,,,,,,,,537.7669999694335,,response,,,,100,,,,,,,Space,keypress(Space),,,,,,,,-- --- ---- --- ------ ----- ------- ---- -- --- ------- --<br>------- ---------- ------ In ----- -- ----- -- ---- ------<br>--- ----- --- --- ------ -------- ----- --- ------ ----- --<br>----- ----- ---------- --- --- ------ ------ ---- -- ------<br>------- --- ------ ----- --- ---- ------- -- ---- --- --<br>------- ------,313476.02499998175,313474.7849999694,312920.489,312920.0449999771,312937.018,313486.785,,15,In
screen,html.Screen,1_1_1_1_16,2021-04-20T16:00:39.431Z,,,,,,,,,,,,,,,,54,,,,,,,,,,,,,,1788.8049999756622,,response,,,,100,,,,,,,Space,keypress(Space),,,,,,,,"-- --- ---- --- ------ ----- ------- ---- -- --- ------- --<br>------- ---------- ------ -- 1727, -- ----- -- ---- ------<br>--- ----- --- --- ------ -------- ----- --- ------ ----- --<br>----- ----- ---------- --- --- ------ ------ ---- -- ------<br>------- --- ------ ----- --- ---- ------- -- ---- --- --<br>------- ------",315276.7599999788,315275.58999997564,313470.275,313476.32999997586,313486.785,315286.138,,16,"1727,"
screen,html.Screen,1_1_1_1_17,2021-04-20T16:00:40.290Z,,,,,,,,,,,,,,,,54,,,,,,,,,,,,,,848.7269999709097,,response,,,,100,,,,,,,Space,keypress(Space),,,,,,,,-- --- ---- --- ------ ----- ------- ---- -- --- ------- --<br>------- ---------- ------ -- ----- in ----- -- ---- ------<br>--- ----- --- --- ------ -------- ----- --- ------ ----- --<br>----- ----- ---------- --- --- ------ ------ ---- -- ------<br>------- --- ------ ----- --- ---- ------- -- ---- --- --<br>------- ------,316136.10000000335,316134.8649999709,315269.843,315277.02999999747,315286.138,316152.528,,17,in
screen,html.Screen,1_1_1_1_18,2021-04-20T16:00:41.084Z,,,,,,,,,,,,,,,,54,,,,,,,,,,,,,,776.2319999806932,,response,,,,100,,,,,,,Space,keypress(Space),,,,,,,,-- --- ---- --- ------ ----- ------- ---- -- --- ------- --<br>------- ---------- ------ -- ----- -- order -- ---- ------<br>--- ----- --- --- ------ -------- ----- --- ------ ----- --<br>----- ----- ---------- --- --- ------ ------ ---- -- ------<br>------- --- ------ ----- --- ---- ------- -- ---- --- --<br>------- ------,316929.834999959,316928.7599999807,316136.142,316136.3799999817,316152.528,316935.621,,18,order
screen,html.Screen,1_1_1_1_19,2021-04-20T16:00:41.699Z,,,,,,,,,,,,,,,,54,,,,,,,,,,,,,,608.7789999552188,,response,,,,100,,,,,,,Space,keypress(Space),,,,,,,,-- --- ---- --- ------ ----- ------- ---- -- --- ------- --<br>------- ---------- ------ -- ----- -- ----- to ---- ------<br>--- ----- --- --- ------ -------- ----- --- ------ ----- --<br>----- ----- ---------- --- --- ------ ------ ---- -- ------<br>------- --- ------ ----- --- ---- ------- -- ---- --- --<br>------- ------,317545.6299999496,317544.3999999552,316919.124,316930.09999999776,316935.621,317552.13,,19,to
screen,html.Screen,1_1_1_1_20,2021-04-20T16:00:42.266Z,,,,,,,,,,,,,,,,54,,,,,,,,,,,,,,559.3599999811267,,response,,,,100,,,,,,,Space,keypress(Space),,,,,,,,-- --- ---- --- ------ ----- ------- ---- -- --- ------- --<br>------- ---------- ------ -- ----- -- ----- -- save ------<br>--- ----- --- --- ------ -------- ----- --- ------ ----- --<br>----- ----- ---------- --- --- ------ ------ ---- -- ------<br>------- --- ------ ----- --- ---- ------- -- ---- --- --<br>------- ------,318112.5549999997,318111.48999998113,317535.616,317545.9049999481,317552.13,318118.586,,20,save
screen,html.Screen,1_1_1_1_21,2021-04-20T16:00:42.979Z,,,,,,,,,,,,,,,,54,,,,,,,,,,,,,,705.8039999651955,,response,,,,100,,,,,,,Space,keypress(Space),,,,,,,,"-- --- ---- --- ------ ----- ------- ---- -- --- ------- --<br>------- ---------- ------ -- ----- -- ----- -- ---- money,<br>--- ----- --- --- ------ -------- ----- --- ------ ----- --<br>----- ----- ---------- --- --- ------ ------ ---- -- ------<br>------- --- ------ ----- --- ---- ------- -- ---- --- --<br>------- ------",318825.2349999966,318824.3899999652,318102.009,318113.06999996305,318118.586,318835.017,,21,"money,"
screen,html.Screen,1_1_1_1_22,2021-04-20T16:00:44.036Z,,,,,,,,,,,,,,,,54,,,,,,,,,,,,,,1045.867999991402,,response,,,,100,,,,,,,Space,keypress(Space),,,,,,,,-- --- ---- --- ------ ----- ------- ---- -- --- ------- --<br>------- ---------- ------ -- ----- -- ----- -- ---- ------<br>the ----- --- --- ------ -------- ----- --- ------ ----- --<br>----- ----- ---------- --- --- ------ ------ ---- -- ------<br>------- --- ------ ----- --- ---- ------- -- ---- --- --<br>------- ------,319882.2550000041,319880.8849999914,318818.554,318825.4049999523,318835.017,319884.697,,22,the
screen,html.Screen,1_1_1_1_23,2021-04-20T16:00:44.472Z,,,,,,,,,,,,,,,,54,,,,,,,,,,,,,,431.84799995057983,,response,,,,100,,,,,,,Space,keypress(Space),,,,,,,,-- --- ---- --- ------ ----- ------- ---- -- --- ------- --<br>------- ---------- ------ -- ----- -- ----- -- ---- ------<br>--- state --- --- ------ -------- ----- --- ------ ----- --<br>----- ----- ---------- --- --- ------ ------ ---- -- ------<br>------- --- ------ ----- --- ---- ------- -- ---- --- --<br>------- ------,320317.7999999607,320316.54499995057,319868.266,319882.66000000294,319884.697,320334.726,,23,state
screen,html.Screen,1_1_1_1_24,2021-04-20T16:00:44.823Z,,,,,,,,,,,,,,,,54,,,,,,,,,,,,,,333.31399996043183,,response,,,,100,,,,,,,Space,keypress(Space),,,,,,,,-- --- ---- --- ------ ----- ------- ---- -- --- ------- --<br>------- ---------- ------ -- ----- -- ----- -- ---- ------<br>--- ----- cut --- ------ -------- ----- --- ------ ----- --<br>----- ----- ---------- --- --- ------ ------ ---- -- ------<br>------- --- ------ ----- --- ---- ------- -- ---- --- --<br>------- ------,320669.0499999677,320668.03999996046,320317.99,320318.0799999973,320334.726,320684.586,,24,cut
screen,html.Screen,1_1_1_1_25,2021-04-20T16:00:45.397Z,,,,,,,,,,,,,,,,54,,,,,,,,,,,,,,557.8589999816613,,response,,,,100,,,,,,,Space,keypress(Space),,,,,,,,-- --- ---- --- ------ ----- ------- ---- -- --- ------- --<br>------- ---------- ------ -- ----- -- ----- -- ---- ------<br>--- ----- --- the ------ -------- ----- --- ------ ----- --<br>----- ----- ---------- --- --- ------ ------ ---- -- ------<br>------- --- ------ ----- --- ---- ------- -- ---- --- --<br>------- ------,321243.6549999984,321242.4449999817,320667.93,320669.3099999684,320684.586,321250.914,,25,the
screen,html.Screen,1_1_1_1_26,2021-04-20T16:00:46.141Z,,,,,,,,,,,,,,,,54,,,,,,,,,,,,,,735.0609999595908,,response,,,,100,,,,,,,Space,keypress(Space),,,,,,,,-- --- ---- --- ------ ----- ------- ---- -- --- ------- --<br>------- ---------- ------ -- ----- -- ----- -- ---- ------<br>--- ----- --- --- bonds' -------- ----- --- ------ ----- --<br>----- ----- ---------- --- --- ------ ------ ---- -- ------<br>------- --- ------ ----- --- ---- ------- -- ---- --- --<br>------- ------,321987.1849999763,321985.9749999596,321234.424,321243.96999995224,321250.914,322000.865,,26,bonds'
screen,html.Screen,1_1_1_1_27,2021-04-20T16:00:47.235Z,,,,,,,,,,,,,,,,54,,,,,,,,,,,,,,1079.0399999914225,,response,,,,100,,,,,,,Space,keypress(Space),,,,,,,,-- --- ---- --- ------ ----- ------- ---- -- --- ------- --<br>------- ---------- ------ -- ----- -- ----- -- ---- ------<br>--- ----- --- --- ------ interest ----- --- ------ ----- --<br>----- ----- ---------- --- --- ------ ------ ---- -- ------<br>------- --- ------ ----- --- ---- ------- -- ---- --- --<br>------- ------,323080.97499998985,323079.9049999914,321984.152,321987.4649999547,322000.865,323083.639,,27,interest
screen,html.Screen,1_1_1_1_28,2021-04-20T16:00:48.033Z,,,,,,,,,,,,,,,,54,,,,,,,,,,,,,,795.1209999923012,,response,,,,100,,,,,,,Space,keypress(Space),,,,,,,,-- --- ---- --- ------ ----- ------- ---- -- --- ------- --<br>------- ---------- ------ -- ----- -- ----- -- ---- ------<br>--- ----- --- --- ------ -------- rate. --- ------ ----- --<br>----- ----- ---------- --- --- ------ ------ ---- -- ------<br>------- --- ------ ----- --- ---- ------- -- ---- --- --<br>------- ------,323879.49500000104,323878.7599999923,323067.074,323081.2299999525,323083.639,323883.313,,28,rate.
screen,html.Screen,1_1_1_1_29,2021-04-20T16:00:48.723Z,,,,,,,,,,,,,,,,54,,,,,,,,,,,,,,685.0569999935688,,response,,,,100,,,,,,,Space,keypress(Space),,,,,,,,-- --- ---- --- ------ ----- ------- ---- -- --- ------- --<br>------- ---------- ------ -- ----- -- ----- -- ---- ------<br>--- ----- --- --- ------ -------- ----- The ------ ----- --<br>----- ----- ---------- --- --- ------ ------ ---- -- ------<br>------- --- ------ ----- --- ---- ------- -- ---- --- --<br>------- ------,324569.51499998104,324568.3699999936,323866.929,323879.65999997687,323883.313,324583.127,,29,The
screen,html.Screen,1_1_1_1_30,2021-04-20T16:00:49.350Z,,,,,,,,,,,,,,,,54,,,,,,,,,,,,,,611.592999970424,,response,,,,100,,,,,,,Space,keypress(Space),,,,,,,,-- --- ---- --- ------ ----- ------- ---- -- --- ------- --<br>------- ---------- ------ -- ----- -- ----- -- ---- ------<br>--- ----- --- --- ------ -------- ----- --- market ----- --<br>----- ----- ---------- --- --- ------ ------ ---- -- ------<br>------- --- ------ ----- --- ---- ------- -- ---- --- --<br>------- ------,325195.9199999692,325194.7199999704,324566.579,324569.7949999594,324583.127,325199.617,,30,market
screen,html.Screen,1_1_1_1_31,2021-04-20T16:00:49.830Z,,,,,,,,,,,,,,,,54,,,,,,,,,,,,,,475.9029999897466,,response,,,,100,,,,,,,Space,keypress(Space),,,,,,,,-- --- ---- --- ------ ----- ------- ---- -- --- ------- --<br>------- ---------- ------ -- ----- -- ----- -- ---- ------<br>--- ----- --- --- ------ -------- ----- --- ------ value --<br>----- ----- ---------- --- --- ------ ------ ---- -- ------<br>------- --- ------ ----- --- ---- ------- -- ---- --- --<br>------- ------,325676.6549999593,325675.5199999898,325183.126,325196.19999994757,325199.617,325682.766,,31,value
screen,html.Screen,1_1_1_1_32,2021-04-20T16:00:50.341Z,,,,,,,,,,,,,,,,54,,,,,,,,,,,,,,503.15899999794783,,response,,,,100,,,,,,,Space,keypress(Space),,,,,,,,-- --- ---- --- ------ ----- ------- ---- -- --- ------- --<br>------- ---------- ------ -- ----- -- ----- -- ---- ------<br>--- ----- --- --- ------ -------- ----- --- ------ ----- of<br>----- ----- ---------- --- --- ------ ------ ---- -- ------<br>------- --- ------ ----- --- ---- ------- -- ---- --- --<br>------- ------,326187.08999996306,326185.92499999795,325666.141,325676.7949999776,325682.766,326199.463,,32,of
screen,html.Screen,1_1_1_1_33,2021-04-20T16:00:50.869Z,,,,,,,,,,,,,,,,54,,,,,,,,,,,,,,515.0469999616034,,response,,,,100,,,,,,,Space,keypress(Space),,,,,,,,-- --- ---- --- ------ ----- ------- ---- -- --- ------- --<br>------- ---------- ------ -- ----- -- ----- -- ---- ------<br>--- ----- --- --- ------ -------- ----- --- ------ ----- --<br>these ----- ---------- --- --- ------ ------ ---- -- ------<br>------- --- ------ ----- --- ---- ------- -- ---- --- --<br>------- ------,326715.1699999813,326714.5099999616,326182.729,326187.3749999795,326199.463,326732.381,,33,these
screen,html.Screen,1_1_1_1_34,2021-04-20T16:00:51.476Z,,,,,,,,,,,,,,,,54,,,,,,,,,,,,,,589.1189999618218,,response,,,,100,,,,,,,Space,keypress(Space),,,,,,,,-- --- ---- --- ------ ----- ------- ---- -- --- ------- --<br>------- ---------- ------ -- ----- -- ----- -- ---- ------<br>--- ----- --- --- ------ -------- ----- --- ------ ----- --<br>----- bonds ---------- --- --- ------ ------ ---- -- ------<br>------- --- ------ ----- --- ---- ------- -- ---- --- --<br>------- ------,327322.6549999672,327321.4999999618,326699.169,326715.31499997946,326732.381,327332.342,,34,bonds
screen,html.Screen,1_1_1_1_35,2021-04-20T16:00:52.339Z,,,,,,,,,,,,,,,,54,,,,,,,,,,,,,,851.9379999867524,,response,,,,100,,,,,,,Space,keypress(Space),,,,,,,,"-- --- ---- --- ------ ----- ------- ---- -- --- ------- --<br>------- ---------- ------ -- ----- -- ----- -- ---- ------<br>--- ----- --- --- ------ -------- ----- --- ------ ----- --<br>----- ----- plummeted, --- --- ------ ------ ---- -- ------<br>------- --- ------ ----- --- ---- ------- -- ---- --- --<br>------- ------",328185.7149999705,328184.27999998676,327315.627,327322.9350000038,327332.342,328198.813,,35,"plummeted,"
screen,html.Screen,1_1_1_1_36,2021-04-20T16:00:52.800Z,,,,,,,,,,,,,,,,54,,,,,,,,,,,,,,446.48199999477947,,response,,,,100,,,,,,,Space,keypress(Space),,,,,,,,-- --- ---- --- ------ ----- ------- ---- -- --- ------- --<br>------- ---------- ------ -- ----- -- ----- -- ---- ------<br>--- ----- --- --- ------ -------- ----- --- ------ ----- --<br>----- ----- ---------- and --- ------ ------ ---- -- ------<br>------- --- ------ ----- --- ---- ------- -- ---- --- --<br>------- ------,328646.43999998225,328645.2949999948,328182.164,328185.99999998696,328198.813,328648.467,,36,and
screen,html.Screen,1_1_1_1_37,2021-04-20T16:00:53.190Z,,,,,,,,,,,,,,,,54,,,,,,,,,,,,,,387.3579999699141,,response,,,,100,,,,,,,Space,keypress(Space),,,,,,,,-- --- ---- --- ------ ----- ------- ---- -- --- ------- --<br>------- ---------- ------ -- ----- -- ----- -- ---- ------<br>--- ----- --- --- ------ -------- ----- --- ------ ----- --<br>----- ----- ---------- --- the ------ ------ ---- -- ------<br>------- --- ------ ----- --- ---- ------- -- ---- --- --<br>------- ------,329036.72499995446,329035.8249999699,328631.892,328646.72999997856,328648.467,329048.314,,37,the
screen,html.Screen,1_1_1_1_38,2021-04-20T16:00:53.629Z,,,,,,,,,,,,,,,,54,,,,,,,,,,,,,,425.7809999540914,,response,,,,100,,,,,,,Space,keypress(Space),,,,,,,,-- --- ---- --- ------ ----- ------- ---- -- --- ------- --<br>------- ---------- ------ -- ----- -- ----- -- ---- ------<br>--- ----- --- --- ------ -------- ----- --- ------ ----- --<br>----- ----- ---------- --- --- market ------ ---- -- ------<br>------- --- ------ ----- --- ---- ------- -- ---- --- --<br>------- ------,329475.3399999463,329474.0949999541,329031.784,329036.8749999907,329048.314,329481.52,,38,market
screen,html.Screen,1_1_1_1_39,2021-04-20T16:00:54.187Z,,,,,,,,,,,,,,,,54,,,,,,,,,,,,,,550.7049999735318,,response,,,,100,,,,,,,Space,keypress(Space),,,,,,,,-- --- ---- --- ------ ----- ------- ---- -- --- ------- --<br>------- ---------- ------ -- ----- -- ----- -- ---- ------<br>--- ----- --- --- ------ -------- ----- --- ------ ----- --<br>----- ----- ---------- --- --- ------ became ---- -- ------<br>------- --- ------ ----- --- ---- ------- -- ---- --- --<br>------- ------,330033.45499996794,330032.22499997355,329464.961,329475.65499995835,329481.52,330048.222,,39,became
screen,html.Screen,1_1_1_1_40,2021-04-20T16:00:54.792Z,,,,,,,,,,,,,,,,54,,,,,,,,,,,,,,588.5430000029155,,response,,,,100,,,,,,,Space,keypress(Space),,,,,,,,-- --- ---- --- ------ ----- ------- ---- -- --- ------- --<br>------- ---------- ------ -- ----- -- ----- -- ---- ------<br>--- ----- --- --- ------ -------- ----- --- ------ ----- --<br>----- ----- ---------- --- --- ------ ------ wary -- ------<br>------- --- ------ ----- --- ---- ------- -- ---- --- --<br>------- ------,330637.9799999995,330636.7650000029,330031.509,330033.71499996865,330048.222,330647.779,,40,wary
screen,html.Screen,1_1_1_1_41,2021-04-20T16:00:55.337Z,,,,,,,,,,,,,,,,54,,,,,,,,,,,,,,534.7109999774257,,response,,,,100,,,,,,,Space,keypress(Space),,,,,,,,-- --- ---- --- ------ ----- ------- ---- -- --- ------- --<br>------- ---------- ------ -- ----- -- ----- -- ---- ------<br>--- ----- --- --- ------ -------- ----- --- ------ ----- --<br>----- ----- ---------- --- --- ------ ------ ---- of ------<br>------- --- ------ ----- --- ---- ------- -- ---- --- --<br>------- ------,331183.69499995606,331182.4899999774,330631.293,330638.29499995336,330647.779,331197.841,,41,of
screen,html.Screen,1_1_1_1_42,2021-04-20T16:00:55.960Z,,,,,,,,,,,,,,,,54,,,,,,,,,,,,,,606.5339999487624,,response,,,,100,,,,,,,Space,keypress(Space),,,,,,,,-- --- ---- --- ------ ----- ------- ---- -- --- ------- --<br>------- ---------- ------ -- ----- -- ----- -- ---- ------<br>--- ----- --- --- ------ -------- ----- --- ------ ----- --<br>----- ----- ---------- --- --- ------ ------ ---- -- French<br>------- --- ------ ----- --- ---- ------- -- ---- --- --<br>------- ------,331806.15999997826,331804.3749999488,331181.108,331183.9349999791,331197.841,331814.11,,42,French
screen,html.Screen,1_1_1_1_43,2021-04-20T16:00:56.579Z,,,,,,,,,,,,,,,,54,,,,,,,,,,,,,,609.7199999851873,,response,,,,100,,,,,,,Space,keypress(Space),,,,,,,,-- --- ---- --- ------ ----- ------- ---- -- --- ------- --<br>------- ---------- ------ -- ----- -- ----- -- ---- ------<br>--- ----- --- --- ------ -------- ----- --- ------ ----- --<br>----- ----- ---------- --- --- ------ ------ ---- -- ------<br>credit. --- ------ ----- --- ---- ------- -- ---- --- --<br>------- ------,332424.96999999275,332423.8299999852,331797.668,331806.42499995884,331814.11,332430.527,,43,credit.
screen,html.Screen,1_1_1_1_44,2021-04-20T16:00:57.170Z,,,,,,,,,,,,,,,,54,,,,,,,,,,,,,,584.5079999894369,,response,,,,100,,,,,,,Space,keypress(Space),,,,,,,,-- --- ---- --- ------ ----- ------- ---- -- --- ------- --<br>------- ---------- ------ -- ----- -- ----- -- ---- ------<br>--- ----- --- --- ------ -------- ----- --- ------ ----- --<br>----- ----- ---------- --- --- ------ ------ ---- -- ------<br>------- The ------ ----- --- ---- ------- -- ---- --- --<br>------- ------,333016.12499996554,333015.03499998944,332414.119,332425.2349999733,332430.527,333030.437,,44,The
screen,html.Screen,1_1_1_1_45,2021-04-20T16:00:58.118Z,,,,,,,,,,,,,,,,54,,,,,,,,,,,,,,932.8179999514832,,response,,,,100,,,,,,,Space,keypress(Space),,,,,,,,-- --- ---- --- ------ ----- ------- ---- -- --- ------- --<br>------- ---------- ------ -- ----- -- ----- -- ---- ------<br>--- ----- --- --- ------ -------- ----- --- ------ ----- --<br>----- ----- ---------- --- --- ------ ------ ---- -- ------<br>------- --- French ----- --- ---- ------- -- ---- --- --<br>------- ------,333964.5399999572,333963.25499995146,333013.823,333016.41499996185,333030.437,333980.127,,45,French
screen,html.Screen,1_1_1_1_46,2021-04-20T16:00:58.977Z,,,,,,,,,,,,,,,,54,,,,,,,,,,,,,,841.6679999962216,,response,,,,100,,,,,,,Space,keypress(Space),,,,,,,,-- --- ---- --- ------ ----- ------- ---- -- --- ------- --<br>------- ---------- ------ -- ----- -- ----- -- ---- ------<br>--- ----- --- --- ------ -------- ----- --- ------ ----- --<br>----- ----- ---------- --- --- ------ ------ ---- -- ------<br>------- --- ------ state --- ---- ------- -- ---- --- --<br>------- ------,334822.8699999745,334821.7949999962,333963.65,333964.8649999872,333980.127,334829.809,,46,state
screen,html.Screen,1_1_1_1_47,2021-04-20T16:00:59.684Z,,,,,,,,,,,,,,,,54,,,,,,,,,,,,,,699.0809999577468,,response,,,,100,,,,,,,Space,keypress(Space),,,,,,,,-- --- ---- --- ------ ----- ------- ---- -- --- ------- --<br>------- ---------- ------ -- ----- -- ----- -- ---- ------<br>--- ----- --- --- ------ -------- ----- --- ------ ----- --<br>----- ----- ---------- --- --- ------ ------ ---- -- ------<br>------- --- ------ ----- was ---- ------- -- ---- --- --<br>------- ------,335530.0849999767,335528.88999995776,334813.199,334823.1799999485,334829.809,335546.258,,47,was
screen,html.Screen,1_1_1_1_48,2021-04-20T16:01:00.183Z,,,,,,,,,,,,,,,,54,,,,,,,,,,,,,,481.9469999805442,,response,,,,100,,,,,,,Space,keypress(Space),,,,,,,,-- --- ---- --- ------ ----- ------- ---- -- --- ------- --<br>------- ---------- ------ -- ----- -- ----- -- ---- ------<br>--- ----- --- --- ------ -------- ----- --- ------ ----- --<br>----- ----- ---------- --- --- ------ ------ ---- -- ------<br>------- --- ------ ----- --- left ------- -- ---- --- --<br>------- ------,336028.82999996655,336028.2049999805,335529.719,335530.3899999708,335546.258,336045.98,,48,left
screen,html.Screen,1_1_1_1_49,2021-04-20T16:01:00.706Z,,,,,,,,,,,,,,,,54,,,,,,,,,,,,,,505.7800000021234,,response,,,,100,,,,,,,Space,keypress(Space),,,,,,,,-- --- ---- --- ------ ----- ------- ---- -- --- ------- --<br>------- ---------- ------ -- ----- -- ----- -- ---- ------<br>--- ----- --- --- ------ -------- ----- --- ------ ----- --<br>----- ----- ---------- --- --- ------ ------ ---- -- ------<br>------- --- ------ ----- --- ---- without -- ---- --- --<br>------- ------,336552.36999999033,336551.7600000021,336012.871,336029.02999997605,336045.98,336562.521,,49,without
screen,html.Screen,1_1_1_1_50,2021-04-20T16:01:01.233Z,,,,,,,,,,,,,,,,54,,,,,,,,,,,,,,515.4590000018361,,response,,,,100,,,,,,,Space,keypress(Space),,,,,,,,-- --- ---- --- ------ ----- ------- ---- -- --- ------- --<br>------- ---------- ------ -- ----- -- ----- -- ---- ------<br>--- ----- --- --- ------ -------- ----- --- ------ ----- --<br>----- ----- ---------- --- --- ------ ------ ---- -- ------<br>------- --- ------ ----- --- ---- ------- an ---- --- --<br>------- ------,337078.97999999113,337077.98000000184,336545.975,336552.51999996835,336562.521,337095.682,,50,an
screen,html.Screen,1_1_1_1_51,2021-04-20T16:01:01.633Z,,,,,,,,,,,,,,,,54,,,,,,,,,,,,,,382.39299999183277,,response,,,,100,,,,,,,Space,keypress(Space),,,,,,,,-- --- ---- --- ------ ----- ------- ---- -- --- ------- --<br>------- ---------- ------ -- ----- -- ----- -- ---- ------<br>--- ----- --- --- ------ -------- ----- --- ------ ----- --<br>----- ----- ---------- --- --- ------ ------ ---- -- ------<br>------- --- ------ ----- --- ---- ------- -- easy --- --<br>------- ------,337479.3049999862,337478.0749999918,337079.029,337079.2299999739,337095.682,337495.619,,51,easy
screen,html.Screen,1_1_1_1_52,2021-04-20T16:01:02.106Z,,,,,,,,,,,,,,,,54,,,,,,,,,,,,,,456.25099998986116,,response,,,,100,,,,,,,Space,keypress(Space),,,,,,,,-- --- ---- --- ------ ----- ------- ---- -- --- ------- --<br>------- ---------- ------ -- ----- -- ----- -- ---- ------<br>--- ----- --- --- ------ -------- ----- --- ------ ----- --<br>----- ----- ---------- --- --- ------ ------ ---- -- ------<br>------- --- ------ ----- --- ---- ------- -- ---- way --<br>------- ------,337952.4299999466,337951.86999998987,337478.919,337479.5999999624,337495.619,337962.084,,52,way
screen,html.Screen,1_1_1_1_53,2021-04-20T16:01:02.450Z,,,,,,,,,,,,,,,,54,,,,,,,,,,,,,,332.8609999723849,,response,,,,100,,,,,,,Space,keypress(Space),,,,,,,,-- --- ---- --- ------ ----- ------- ---- -- --- ------- --<br>------- ---------- ------ -- ----- -- ----- -- ---- ------<br>--- ----- --- --- ------ -------- ----- --- ------ ----- --<br>----- ----- ---------- --- --- ------ ------ ---- -- ------<br>------- --- ------ ----- --- ---- ------- -- ---- --- of<br>------- ------,338296.2149999803,338294.94499997236,337945.508,337952.56499998504,337962.084,338311.98,,53,of
screen,html.Screen,1_1_1_1_54,2021-04-20T16:01:02.854Z,,,,,,,,,,,,,,,,54,,,,,,,,,,,,,,386.78999995905906,,response,,,,100,,,,,,,Space,keypress(Space),,,,,,,,-- --- ---- --- ------ ----- ------- ---- -- --- ------- --<br>------- ---------- ------ -- ----- -- ----- -- ---- ------<br>--- ----- --- --- ------ -------- ----- --- ------ ----- --<br>----- ----- ---------- --- --- ------ ------ ---- -- ------<br>------- --- ------ ----- --- ---- ------- -- ---- --- --<br>raising ------,338700.1399999717,338698.76999995904,338295.299,338296.4899999788,338311.98,338712.044,,54,raising
screen,html.Screen,1_1_1_1_55,2021-04-20T16:01:03.594Z,,,,,,,,,,,,,,,,54,,,,,,,,,,,,,,726.3109999911394,,response,,,,100,,,,,,,Space,keypress(Space),,,,,,,,-- --- ---- --- ------ ----- ------- ---- -- --- ------- --<br>------- ---------- ------ -- ----- -- ----- -- ---- ------<br>--- ----- --- --- ------ -------- ----- --- ------ ----- --<br>----- ----- ---------- --- --- ------ ------ ---- -- ------<br>------- --- ------ ----- --- ---- ------- -- ---- --- --<br>------- money.,339439.7699999972,339438.35499999113,338695.307,338700.47499996144,338712.044,339444.99,,55,money.
Item 100,flow.Loop,1_1_1_1,2021-04-20T16:01:03.594Z,,,,,,,,,,,,,,,,,,,,,,,,,,,,,,36181.52399999113,,completion,,,,,F,,,,,,,,,,,silence,,,,,339440.47499995213,339438.35499999113,303240.266,303241.56999995466,303256.831,339444.99,,,
Question 1,html.Screen,1_1_1_2,2021-04-20T16:01:06.989Z,,,,,,,,,,,,,,,,,,,,,,,,,,,true,TRUE,,3389.599999984028,,response,,,,100,F,,,,,,TRUE,click #choice-1,,,,silence,,,,,342835.6349999667,342834.589999984,339428.485,339440.7249999931,339444.99,342843.794,,,
Question 2,html.Screen,1_1_1_3,2021-04-20T16:01:09.488Z,,,,,,,,,,,,,,,,,,,,,,,,,,,true,FALSE,,2489.000999994809,,response,,,,100,F,,,,,,FALSE,click #choice-2,,,,silence,,,,,345333.96999997785,345332.7949999948,342827.221,342835.75499994913,342843.794,345342.995,,,
Item 100,flow.Sequence,1_1_1,2021-04-20T16:01:09.488Z,,,,,,,,,,,,,,,,,,,,,,,,,,,,,,52072.8059999948,,completion,,,,,,,,,,,,,,,,,,,,,345334.189999965,345332.7949999948,293243.364,293258.3849999937,293259.989,345342.995,,,
End of Practice,html.Page,1_1_2,2021-04-20T16:01:17.708Z,,,,,,,,,,,,,,,,,,,,,,,,,,,,,,8210.404999975231,,form submission,,,,,,,,,,,,,,,,,,,,,353553.7849999964,353553.3999999752,345326.454,345334.3749999767,345342.995,353556.96,,,
Practice,flow.Sequence,1_1,2021-04-20T16:01:17.708Z,,,,,,,,,,,,,,,,,,,,,,,,,,,,,,119207.50999997521,,completion,,,,,,,,,,,,,,,,,,,,,353553.9599999902,353553.3999999752,234329.239,234347.53499994986,234345.89,353556.96,,,
Trap_instruction,html.Page,1_2_0,2021-04-20T16:01:26.314Z,,,,,,,,,,,,,,,,,,,,,,,,,,,,,,8603.069999969972,,form submission,,,,,,,,,,,,,,,,,,,,,362160.37499997765,362160.02999997,353540.538,353554.05999999493,353556.96,362204.097,,,
trap_trial,html.Screen,1_2_1,2021-04-20T16:01:29.941Z,,,,,,,,,,,,,,,,,,,,,,,,,,,true,1,,3582.107999953034,,response,,,,,,,,,,,1,click #choice-1,,,,,,,,,365787.50999999465,365786.20499995304,362154.295,362160.47999996226,362204.097,365803.266,,,
end of trap trial,html.Page,1_2_2,2021-04-20T16:01:34.585Z,,,,,,,,,,,,,,,,,,,,,,,,,,,,,,4622.493999954604,,form submission,,,,,,,,,,,,,,,,,,,,,370432.23499995656,370425.7599999546,365786.387,365787.71000000415,365803.266,370434.779,,,
Trap 1,flow.Sequence,1_2,2021-04-20T16:01:34.586Z,,,,,,,,,,,,,,,,,,,,,,,,,,,,,,16868.799999954586,,completion,,,,,,,,,,,,,,,,,,,,,370432.4749999796,370425.7599999546,353540.538,353554.02999999933,353556.96,370434.779,,,
Standby,html.Page,1_3_0,2021-04-20T16:01:42.569Z,,,,,,,,,,,,,,,,,,,,,,,,,,,,,,7997.389000000025,,timeout,,,,,,,,,,,,,,,,,,,,,378416.1249999888,378415.515,370418.268,370432.60499997996,370434.779,378432.168,,,
Holding screen,html.Screen,1_3_1_0_0,2021-04-20T16:01:49.567Z,,,,,,,,,,,,,,,,,,,,,,,,,,,,,,6997.79800000001,,timeout,,,,,,,,,,,,,,,,,,,,,385413.6999999755,385413.204,378415.515,378416.3149999804,378432.168,385429.966,,,
screen,html.Screen,1_3_1_0_1_0,2021-04-20T16:01:50.185Z,,,,,,,,,,,,,,,,11,,,,,,,,,,,,,,600.6190000004135,,response,,,,4,F,,,,,,Space,keypress(Space),,,,instrumental,,,,Known -- ---- --- -- --- -------- ------------ ---------- --<br>- ------- ------ --------- -- ------------ -- --- ---- -----<br>------ ---- ---- ------ ------ ------- --- ----- ---------<br>---- --- -------- -------- --- --- -- ------- --- --- -----<br>-- --- ------ ------- --- --- -------- ---- --------- --<br>---------- -- -------- ----------------,386031.8449999904,386030.5850000004,385413.204,385413.8699999894,385429.966,386046.551,,0,Known
screen,html.Screen,1_3_1_0_1_1,2021-04-20T16:01:50.677Z,,,,,,,,,,,,,,,,11,,,,,,,,,,,,,,476.12899999460205,,response,,,,4,F,,,,,,Space,keypress(Space),,,,instrumental,,,,----- as ---- --- -- --- -------- ------------ ---------- --<br>- ------- ------ --------- -- ------------ -- --- ---- -----<br>------ ---- ---- ------ ------ ------- --- ----- ---------<br>---- --- -------- -------- --- --- -- ------- --- --- -----<br>-- --- ------ ------- --- --- -------- ---- --------- --<br>---------- -- -------- ----------------,386523.909999989,386522.6799999946,386029.861,386032.03999996185,386046.551,386529.503,,1,as
screen,html.Screen,1_3_1_0_1_2,2021-04-20T16:01:51.029Z,,,,,,,,,,,,,,,,11,,,,,,,,,,,,,,345.24699995899573,,response,,,,4,F,,,,,,Space,keypress(Space),,,,instrumental,,,,----- -- Rapa --- -- --- -------- ------------ ---------- --<br>- ------- ------ --------- -- ------------ -- --- ---- -----<br>------ ---- ---- ------ ------ ------- --- ----- ---------<br>---- --- -------- -------- --- --- -- ------- --- --- -----<br>-- --- ------ ------- --- --- -------- ---- --------- --<br>---------- -- -------- ----------------,386875.9199999622,386874.749999959,386513.017,386524.1949999472,386529.503,386879.498,,2,Rapa
screen,html.Screen,1_3_1_0_1_3,2021-04-20T16:01:51.523Z,,,,,,,,,,,,,,,,11,,,,,,,,,,,,,,489.3819999654079,,response,,,,4,F,,,,,,Space,keypress(Space),,,,instrumental,,,,----- -- ---- Nui -- --- -------- ------------ ---------- --<br>- ------- ------ --------- -- ------------ -- --- ---- -----<br>------ ---- ---- ------ ------ ------- --- ----- ---------<br>---- --- -------- -------- --- --- -- ------- --- --- -----<br>-- --- ------ ------- --- --- -------- ---- --------- --<br>---------- -- -------- ----------------,387370.0850000023,387368.87999996543,386862.862,386876.1999999988,386879.498,387379.302,,3,Nui
screen,html.Screen,1_3_1_0_1_4,2021-04-20T16:01:52.049Z,,,,,,,,,,,,,,,,11,,,,,,,,,,,,,,515.3429999930086,,response,,,,4,F,,,,,,Space,keypress(Space),,,,instrumental,,,,----- -- ---- --- to --- -------- ------------ ---------- --<br>- ------- ------ --------- -- ------------ -- --- ---- -----<br>------ ---- ---- ------ ------ ------- --- ----- ---------<br>---- --- -------- -------- --- --- -- ------- --- --- -----<br>-- --- ------ ------- --- --- -------- ---- --------- --<br>---------- -- -------- ----------------,387895.9449999966,387894.64499999303,387362.783,387370.38499995833,387379.302,387912.502,,4,to
screen,html.Screen,1_3_1_0_1_5,2021-04-20T16:01:52.443Z,,,,,,,,,,,,,,,,11,,,,,,,,,,,,,,376.1480000022566,,response,,,,4,F,,,,,,Space,keypress(Space),,,,instrumental,,,,----- -- ---- --- -- the -------- ------------ ---------- --<br>- ------- ------ --------- -- ------------ -- --- ---- -----<br>------ ---- ---- ------ ------ ------- --- ----- ---------<br>---- --- -------- -------- --- --- -- ------- --- --- -----<br>-- --- ------ ------- --- --- -------- ---- --------- --<br>---------- -- -------- ----------------,388289.90499995416,388288.65000000224,387895.971,387896.2199999951,387912.502,388295.63,,5,the
screen,html.Screen,1_3_1_0_1_6,2021-04-20T16:01:52.908Z,,,,,,,,,,,,,,,,11,,,,,,,,,,,,,,458.2149999992689,,response,,,,4,F,,,,,,Space,keypress(Space),,,,instrumental,,,,----- -- ---- --- -- --- island's ------------ ---------- --<br>- ------- ------ --------- -- ------------ -- --- ---- -----<br>------ ---- ---- ------ ------ ------- --- ----- ---------<br>---- --- -------- -------- --- --- -- ------- --- --- -----<br>-- --- ------ ------- --- --- -------- ---- --------- --<br>---------- -- -------- ----------------,388755.0249999622,388753.8449999993,388279.161,388290.16999999294,388295.63,388762.192,,6,island's
screen,html.Screen,1_3_1_0_1_7,2021-04-20T16:01:53.463Z,,,,,,,,,,,,,,,,11,,,,,,,,,,,,,,546.3279999623192,,response,,,,4,F,,,,,,Space,keypress(Space),,,,instrumental,,,,"----- -- ---- --- -- --- -------- inhabitants, ---------- --<br>- ------- ------ --------- -- ------------ -- --- ---- -----<br>------ ---- ---- ------ ------ ------- --- ----- ---------<br>---- --- -------- -------- --- --- -- ------- --- --- -----<br>-- --- ------ ------- --- --- -------- ---- --------- --<br>---------- -- -------- ----------------",389309.76999999257,389308.5199999623,388745.593,388755.2999999607,388762.192,389312.004,,7,"inhabitants,"
screen,html.Screen,1_3_1_0_1_8,2021-04-20T16:01:54.261Z,,,,,,,,,,,,,,,,11,,,,,,,,,,,,,,794.3659999940428,,response,,,,4,F,,,,,,Space,keypress(Space),,,,instrumental,,,,----- -- ---- --- -- --- -------- ------------ Rongorongo --<br>- ------- ------ --------- -- ------------ -- --- ---- -----<br>------ ---- ---- ------ ------ ------- --- ----- ---------<br>---- --- -------- -------- --- --- -- ------- --- --- -----<br>-- --- ------ ------- --- --- -------- ---- --------- --<br>---------- -- -------- ----------------,390107.6799999573,390106.36999999406,389295.501,389310.0699999486,389312.004,390111.761,,8,Rongorongo
screen,html.Screen,1_3_1_0_1_9,2021-04-20T16:01:54.738Z,,,,,,,,,,,,,,,,11,,,,,,,,,,,,,,471.81899997679284,,response,,,,4,F,,,,,,Space,keypress(Space),,,,instrumental,,,,----- -- ---- --- -- --- -------- ------------ ---------- is<br>- ------- ------ --------- -- ------------ -- --- ---- -----<br>------ ---- ---- ------ ------ ------- --- ----- ---------<br>---- --- -------- -------- --- --- -- ------- --- --- -----<br>-- --- ------ ------- --- --- -------- ---- --------- --<br>---------- -- -------- ----------------,390584.8199999891,390583.5799999768,390095.225,390108.099999954,390111.761,390594.908,,9,is
screen,html.Screen,1_3_1_0_1_10,2021-04-20T16:01:55.281Z,,,,,,,,,,,,,,,,11,,,,,,,,,,,,,,530.5419999922742,,response,,,,4,F,,,,,,Space,keypress(Space),,,,instrumental,,,,----- -- ---- --- -- --- -------- ------------ ---------- --<br>a ------- ------ --------- -- ------------ -- --- ---- -----<br>------ ---- ---- ------ ------ ------- --- ----- ---------<br>---- --- -------- -------- --- --- -- ------- --- --- -----<br>-- --- ------ ------- --- --- -------- ---- --------- --<br>---------- -- -------- ----------------,391127.3499999661,391125.44999999227,390578.301,390585.10999998543,390594.908,391144.771,,10,a
screen,html.Screen,1_3_1_0_1_11,2021-04-20T16:01:56.040Z,,,,,,,,,,,,,,,,11,,,,,,,,,,,,,,740.7689999883878,,response,,,,4,F,,,,,,Space,keypress(Space),,,,instrumental,,,,----- -- ---- --- -- --- -------- ------------ ---------- --<br>- writing ------ --------- -- ------------ -- --- ---- -----<br>------ ---- ---- ------ ------ ------- --- ----- ---------<br>---- --- -------- -------- --- --- -- ------- --- --- -----<br>-- --- ------ ------- --- --- -------- ---- --------- --<br>---------- -- -------- ----------------,391886.7049999535,391885.5399999884,391128.168,391127.7349999873,391144.771,391894.462,,11,writing
screen,html.Screen,1_3_1_0_1_12,2021-04-20T16:01:56.714Z,,,,,,,,,,,,,,,,11,,,,,,,,,,,,,,664.6879999864032,,response,,,,4,F,,,,,,Space,keypress(Space),,,,instrumental,,,,----- -- ---- --- -- --- -------- ------------ ---------- --<br>- ------- system --------- -- ------------ -- --- ---- -----<br>------ ---- ---- ------ ------ ------- --- ----- ---------<br>---- --- -------- -------- --- --- -- ------- --- --- -----<br>-- --- ------ ------- --- --- -------- ---- --------- --<br>---------- -- -------- ----------------,392560.41499995627,392559.1499999864,391877.937,391886.979999952,391894.462,392577.714,,12,system
screen,html.Screen,1_3_1_0_1_13,2021-04-20T16:01:57.292Z,,,,,,,,,,,,,,,,11,,,,,,,,,,,,,,559.8259999669972,,response,,,,4,F,,,,,,Space,keypress(Space),,,,instrumental,,,,----- -- ---- --- -- --- -------- ------------ ---------- --<br>- ------- ------ comprised -- ------------ -- --- ---- -----<br>------ ---- ---- ------ ------ ------- --- ----- ---------<br>---- --- -------- -------- --- --- -- ------- --- --- -----<br>-- --- ------ ------- --- --- -------- ---- --------- --<br>---------- -- -------- ----------------,393139.0099999844,393137.539999967,392560.957,392560.72499998845,392577.714,393144.106,,13,comprised
screen,html.Screen,1_3_1_0_1_14,2021-04-20T16:01:57.728Z,,,,,,,,,,,,,,,,11,,,,,,,,,,,,,,429.9439999955939,,response,,,,4,F,,,,,,Space,keypress(Space),,,,instrumental,,,,----- -- ---- --- -- --- -------- ------------ ---------- --<br>- ------- ------ --------- of ------------ -- --- ---- -----<br>------ ---- ---- ------ ------ ------- --- ----- ---------<br>---- --- -------- -------- --- --- -- ------- --- --- -----<br>-- --- ------ ------- --- --- -------- ---- --------- --<br>---------- -- -------- ----------------,393575.2399999765,393574.0499999956,393127.446,393139.3049999606,393144.106,393577.242,,14,of
screen,html.Screen,1_3_1_0_1_15,2021-04-20T16:01:58.888Z,,,,,,,,,,,,,,,,11,,,,,,,,,,,,,,1156.0779999993392,,response,,,,4,F,,,,,,Space,keypress(Space),,,,instrumental,,,,----- -- ---- --- -- --- -------- ------------ ---------- --<br>- ------- ------ --------- -- pictographs. -- --- ---- -----<br>------ ---- ---- ------ ------ ------- --- ----- ---------<br>---- --- -------- -------- --- --- -- ------- --- --- -----<br>-- --- ------ ------- --- --- -------- ---- --------- --<br>---------- -- -------- ----------------,394734.51999999816,394733.31999999937,393560.777,393575.5249999929,393577.242,394743.53,,15,pictographs.
screen,html.Screen,1_3_1_0_1_16,2021-04-20T16:01:59.416Z,,,,,,,,,,,,,,,,11,,,,,,,,,,,,,,518.3749999629799,,response,,,,4,F,,,,,,Space,keypress(Space),,,,instrumental,,,,----- -- ---- --- -- --- -------- ------------ ---------- --<br>- ------- ------ --------- -- ------------ It --- ---- -----<br>------ ---- ---- ------ ------ ------- --- ----- ---------<br>---- --- -------- -------- --- --- -- ------- --- --- -----<br>-- --- ------ ------- --- --- -------- ---- --------- --<br>---------- -- -------- ----------------,395263.09999998193,395261.904999963,394727.078,394734.7899999586,394743.53,395276.899,,16,It
screen,html.Screen,1_3_1_0_1_17,2021-04-20T16:01:59.984Z,,,,,,,,,,,,,,,,11,,,,,,,,,,,,,,552.8959999687504,,response,,,,4,F,,,,,,Space,keypress(Space),,,,instrumental,,,,----- -- ---- --- -- --- -------- ------------ ---------- --<br>- ------- ------ --------- -- ------------ -- has ---- -----<br>------ ---- ---- ------ ------ ------- --- ----- ---------<br>---- --- -------- -------- --- --- -- ------- --- --- -----<br>-- --- ------ ------- --- --- -------- ---- --------- --<br>---------- -- -------- ----------------,395830.954999954,395829.7949999687,395260.171,395263.37499998044,395276.899,395843.126,,17,has
screen,html.Screen,1_3_1_0_1_18,2021-04-20T16:02:00.355Z,,,,,,,,,,,,,,,,11,,,,,,,,,,,,,,357.85900000313995,,response,,,,4,F,,,,,,Space,keypress(Space),,,,instrumental,,,,----- -- ---- --- -- --- -------- ------------ ---------- --<br>- ------- ------ --------- -- ------------ -- --- been -----<br>------ ---- ---- ------ ------ ------- --- ----- ---------<br>---- --- -------- -------- --- --- -- ------- --- --- -----<br>-- --- ------ ------- --- --- -------- ---- --------- --<br>---------- -- -------- ----------------,396202.2199999774,396200.98500000313,395826.673,395831.2399999704,395843.126,396209.756,,18,been
screen,html.Screen,1_3_1_0_1_19,2021-04-20T16:02:00.830Z,,,,,,,,,,,,,,,,11,,,,,,,,,,,,,,465.8589999564574,,response,,,,4,F,,,,,,Space,keypress(Space),,,,instrumental,,,,----- -- ---- --- -- --- -------- ------------ ---------- --<br>- ------- ------ --------- -- ------------ -- --- ---- found<br>------ ---- ---- ------ ------ ------- --- ----- ---------<br>---- --- -------- -------- --- --- -- ------- --- --- -----<br>-- --- ------ ------- --- --- -------- ---- --------- --<br>---------- -- -------- ----------------,396676.8999999622,396675.61499995645,396193.039,396202.48499995796,396209.756,396692.971,,19,found
screen,html.Screen,1_3_1_0_1_20,2021-04-20T16:02:01.463Z,,,,,,,,,,,,,,,,11,,,,,,,,,,,,,,615.2239999904996,,response,,,,4,F,,,,,,Space,keypress(Space),,,,instrumental,,,,----- -- ---- --- -- --- -------- ------------ ---------- --<br>- ------- ------ --------- -- ------------ -- --- ---- -----<br>carved ---- ---- ------ ------ ------- --- ----- ---------<br>---- --- -------- -------- --- --- -- ------- --- --- -----<br>-- --- ------ ------- --- --- -------- ---- --------- --<br>---------- -- -------- ----------------,397309.4849999761,397308.1949999905,396676.328,396677.18499997864,396692.971,397326.116,,20,carved
screen,html.Screen,1_3_1_0_1_21,2021-04-20T16:02:01.951Z,,,,,,,,,,,,,,,,11,,,,,,,,,,,,,,470.2989999898127,,response,,,,4,F,,,,,,Space,keypress(Space),,,,instrumental,,,,----- -- ---- --- -- --- -------- ------------ ---------- --<br>- ------- ------ --------- -- ------------ -- --- ---- -----<br>------ into ---- ------ ------ ------- --- ----- ---------<br>---- --- -------- -------- --- --- -- ------- --- --- -----<br>-- --- ------ ------- --- --- -------- ---- --------- --<br>---------- -- -------- ----------------,397798.2249999768,397796.4149999898,397309.58,397309.8299999838,397326.116,397809.24,,21,into
screen,html.Screen,1_3_1_0_1_22,2021-04-20T16:02:02.571Z,,,,,,,,,,,,,,,,11,,,,,,,,,,,,,,607.8249999869149,,response,,,,4,F,,,,,,Space,keypress(Space),,,,instrumental,,,,----- -- ---- --- -- --- -------- ------------ ---------- --<br>- ------- ------ --------- -- ------------ -- --- ---- -----<br>------ ---- many ------ ------ ------- --- ----- ---------<br>---- --- -------- -------- --- --- -- ------- --- --- -----<br>-- --- ------ ------- --- --- -------- ---- --------- --<br>---------- -- -------- ----------------,398417.85499994876,398417.0649999869,397792.685,397798.71000000276,397809.24,398425.612,,22,many
screen,html.Screen,1_3_1_0_1_23,2021-04-20T16:02:03.025Z,,,,,,,,,,,,,,,,11,,,,,,,,,,,,,,445.6329999875161,,response,,,,4,F,,,,,,Space,keypress(Space),,,,instrumental,,,,----- -- ---- --- -- --- -------- ------------ ---------- --<br>- ------- ------ --------- -- ------------ -- --- ---- -----<br>------ ---- ---- oblong ------ ------- --- ----- ---------<br>---- --- -------- -------- --- --- -- ------- --- --- -----<br>-- --- ------ ------- --- --- -------- ---- --------- --<br>---------- -- -------- ----------------,398872.1749999677,398871.24499998754,398409.16,398418.1099999696,398425.612,398875.512,,23,oblong
screen,html.Screen,1_3_1_0_1_24,2021-04-20T16:02:03.676Z,,,,,,,,,,,,,,,,11,,,,,,,,,,,,,,646.1729999851668,,response,,,,4,F,,,,,,Space,keypress(Space),,,,instrumental,,,,----- -- ---- --- -- --- -------- ------------ ---------- --<br>- ------- ------ --------- -- ------------ -- --- ---- -----<br>------ ---- ---- ------ wooden ------- --- ----- ---------<br>---- --- -------- -------- --- --- -- ------- --- --- -----<br>-- --- ------ ------- --- --- -------- ---- --------- --<br>---------- -- -------- ----------------,399522.949999955,399521.68499998515,398858.865,398872.3999999929,398875.512,399542.041,,24,wooden
screen,html.Screen,1_3_1_0_1_25,2021-04-20T16:02:04.227Z,,,,,,,,,,,,,,,,11,,,,,,,,,,,,,,530.5839999715681,,response,,,,4,F,,,,,,Space,keypress(Space),,,,instrumental,,,,----- -- ---- --- -- --- -------- ------------ ---------- --<br>- ------- ------ --------- -- ------------ -- --- ---- -----<br>------ ---- ---- ------ ------ tablets --- ----- ---------<br>---- --- -------- -------- --- --- -- ------- --- --- -----<br>-- --- ------ ------- --- --- -------- ---- --------- --<br>---------- -- -------- ----------------,400073.86000000406,400072.6249999716,399525.458,399524.83499998925,399542.041,400097.379,,25,tablets
screen,html.Screen,1_3_1_0_1_26,2021-04-20T16:02:04.830Z,,,,,,,,,,,,,,,,11,,,,,,,,,,,,,,578.9760000032256,,response,,,,4,F,,,,,,Space,keypress(Space),,,,instrumental,,,,----- -- ---- --- -- --- -------- ------------ ---------- --<br>- ------- ------ --------- -- ------------ -- --- ---- -----<br>------ ---- ---- ------ ------ ------- and ----- ---------<br>---- --- -------- -------- --- --- -- ------- --- --- -----<br>-- --- ------ ------- --- --- -------- ---- --------- --<br>---------- -- -------- ----------------,400676.9949999871,400676.35500000324,400058.728,400074.13500000257,400097.379,400691.655,,26,and
screen,html.Screen,1_3_1_0_1_27,2021-04-20T16:02:05.268Z,,,,,,,,,,,,,,,,11,,,,,,,,,,,,,,421.94499998237006,,response,,,,4,F,,,,,,Space,keypress(Space),,,,instrumental,,,,----- -- ---- --- -- --- -------- ------------ ---------- --<br>- ------- ------ --------- -- ------------ -- --- ---- -----<br>------ ---- ---- ------ ------ ------- --- other ---------<br>---- --- -------- -------- --- --- -- ------- --- --- -----<br>-- --- ------ ------- --- --- -------- ---- --------- --<br>---------- -- -------- ----------------,401114.83499995666,401113.5999999824,400675.15,400677.16500000097,400691.655,401124.822,,27,other
screen,html.Screen,1_3_1_0_1_28,2021-04-20T16:02:05.914Z,,,,,,,,,,,,,,,,11,,,,,,,,,,,,,,634.3529999555903,,response,,,,4,F,,,,,,Space,keypress(Space),,,,instrumental,,,,----- -- ---- --- -- --- -------- ------------ ---------- --<br>- ------- ------ --------- -- ------------ -- --- ---- -----<br>------ ---- ---- ------ ------ ------- --- ----- artifacts<br>---- --- -------- -------- --- --- -- ------- --- --- -----<br>-- --- ------ ------- --- --- -------- ---- --------- --<br>---------- -- -------- ----------------,401760.40999998804,401759.1749999556,401108.285,401115.12499995297,401124.822,401774.773,,28,artifacts
screen,html.Screen,1_3_1_0_1_29,2021-04-20T16:02:06.614Z,,,,,,,,,,,,,,,,11,,,,,,,,,,,,,,684.5019999719807,,response,,,,4,F,,,,,,Space,keypress(Space),,,,instrumental,,,,----- -- ---- --- -- --- -------- ------------ ---------- --<br>- ------- ------ --------- -- ------------ -- --- ---- -----<br>------ ---- ---- ------ ------ ------- --- ----- ---------<br>from --- -------- -------- --- --- -- ------- --- --- -----<br>-- --- ------ ------- --- --- -------- ---- --------- --<br>---------- -- -------- ----------------,402460.44499997515,402459.27499997197,401758.018,401760.719999962,401774.773,402474.549,,29,from
screen,html.Screen,1_3_1_0_1_30,2021-04-20T16:02:07.047Z,,,,,,,,,,,,,,,,11,,,,,,,,,,,,,,417.84599997347686,,response,,,,4,F,,,,,,Space,keypress(Space),,,,instrumental,,,,----- -- ---- --- -- --- -------- ------------ ---------- --<br>- ------- ------ --------- -- ------------ -- --- ---- -----<br>------ ---- ---- ------ ------ ------- --- ----- ---------<br>---- the -------- -------- --- --- -- ------- --- --- -----<br>-- --- ------ ------- --- --- -------- ---- --------- --<br>---------- -- -------- ----------------,402893.6399999657,402892.3949999735,402457.922,402460.7399999513,402474.549,402907.568,,30,the
screen,html.Screen,1_3_1_0_1_31,2021-04-20T16:02:07.661Z,,,,,,,,,,,,,,,,11,,,,,,,,,,,,,,598.7169999521575,,response,,,,4,F,,,,,,Space,keypress(Space),,,,instrumental,,,,----- -- ---- --- -- --- -------- ------------ ---------- --<br>- ------- ------ --------- -- ------------ -- --- ---- -----<br>------ ---- ---- ------ ------ ------- --- ----- ---------<br>---- --- island's -------- --- --- -- ------- --- --- -----<br>-- --- ------ ------- --- --- -------- ---- --------- --<br>---------- -- -------- ----------------,403507.6649999828,403506.2849999522,402891.131,402893.9249999821,402907.568,403524.156,,31,island's
screen,html.Screen,1_3_1_0_1_32,2021-04-20T16:02:08.255Z,,,,,,,,,,,,,,,,11,,,,,,,,,,,,,,577.1139999846346,,response,,,,4,F,,,,,,Space,keypress(Space),,,,instrumental,,,,----- -- ---- --- -- --- -------- ------------ ---------- --<br>- ------- ------ --------- -- ------------ -- --- ---- -----<br>------ ---- ---- ------ ------ ------- --- ----- ---------<br>---- --- -------- history. --- --- -- ------- --- --- -----<br>-- --- ------ ------- --- --- -------- ---- --------- --<br>---------- -- -------- ----------------,404101.8799999729,404101.26999998465,403507.519,403508.05499998387,403524.156,404107.11,,32,history.
screen,html.Screen,1_3_1_0_1_33,2021-04-20T16:02:09.091Z,,,,,,,,,,,,,,,,11,,,,,,,,,,,,,,829.4549999817973,,response,,,,4,F,,,,,,Space,keypress(Space),,,,instrumental,,,,----- -- ---- --- -- --- -------- ------------ ---------- --<br>- ------- ------ --------- -- ------------ -- --- ---- -----<br>------ ---- ---- ------ ------ ------- --- ----- ---------<br>---- --- -------- -------- The --- -- ------- --- --- -----<br>-- --- ------ ------- --- --- -------- ---- --------- --<br>---------- -- -------- ----------------,404938.0200000014,404936.5649999818,404090.664,404102.0149999531,404107.11,404977.406,,33,The
screen,html.Screen,1_3_1_0_1_34,2021-04-20T16:02:09.775Z,,,,,,,,,,,,,,,,11,,,,,,,,,,,,,,643.1689999498776,,response,,,,4,F,,,,,,Space,keypress(Space),,,,instrumental,,,,----- -- ---- --- -- --- -------- ------------ ---------- --<br>- ------- ------ --------- -- ------------ -- --- ---- -----<br>------ ---- ---- ------ ------ ------- --- ----- ---------<br>---- --- -------- -------- --- art -- ------- --- --- -----<br>-- --- ------ ------- --- --- -------- ---- --------- --<br>---------- -- -------- ----------------,405621.7699999688,405620.5749999499,404923.681,404938.685000001,404977.406,405646.644,,34,art
screen,html.Screen,1_3_1_0_1_35,2021-04-20T16:02:10.230Z,,,,,,,,,,,,,,,,11,,,,,,,,,,,,,,429.14599997352343,,response,,,,4,F,,,,,,Space,keypress(Space),,,,instrumental,,,,----- -- ---- --- -- --- -------- ------------ ---------- --<br>- ------- ------ --------- -- ------------ -- --- ---- -----<br>------ ---- ---- ------ ------ ------- --- ----- ---------<br>---- --- -------- -------- --- --- of ------- --- --- -----<br>-- --- ------ ------- --- --- -------- ---- --------- --<br>---------- -- -------- ----------------,406076.9849999924,406075.7899999735,405606.884,405622.04499996733,405646.644,406089.852,,35,of
screen,html.Screen,1_3_1_0_1_36,2021-04-20T16:02:11.425Z,,,,,,,,,,,,,,,,11,,,,,,,,,,,,,,1180.3329999721027,,response,,,,4,F,,,,,,Space,keypress(Space),,,,instrumental,,,,----- -- ---- --- -- --- -------- ------------ ---------- --<br>- ------- ------ --------- -- ------------ -- --- ---- -----<br>------ ---- ---- ------ ------ ------- --- ----- ---------<br>---- --- -------- -------- --- --- -- writing --- --- -----<br>-- --- ------ ------- --- --- -------- ---- --------- --<br>---------- -- -------- ----------------,407271.48499997566,407270.1849999721,406073.336,406077.28499994846,406089.852,407273.407,,36,writing
screen,html.Screen,1_3_1_0_1_37,2021-04-20T16:02:11.815Z,,,,,,,,,,,,,,,,11,,,,,,,,,,,,,,387.56799994793255,,response,,,,4,F,,,,,,Space,keypress(Space),,,,instrumental,,,,----- -- ---- --- -- --- -------- ------------ ---------- --<br>- ------- ------ --------- -- ------------ -- --- ---- -----<br>------ ---- ---- ------ ------ ------- --- ----- ---------<br>---- --- -------- -------- --- --- -- ------- was --- -----<br>-- --- ------ ------- --- --- -------- ---- --------- --<br>---------- -- -------- ----------------,407662.16999996686,407660.97499994794,407256.367,407271.7349999584,407273.407,407672.643,,37,was
screen,html.Screen,1_3_1_0_1_38,2021-04-20T16:02:12.260Z,,,,,,,,,,,,,,,,11,,,,,,,,,,,,,,432.93199999415083,,response,,,,4,F,,,,,,Space,keypress(Space),,,,instrumental,,,,----- -- ---- --- -- --- -------- ------------ ---------- --<br>- ------- ------ --------- -- ------------ -- --- ---- -----<br>------ ---- ---- ------ ------ ------- --- ----- ---------<br>---- --- -------- -------- --- --- -- ------- --- not -----<br>-- --- ------ ------- --- --- -------- ---- --------- --<br>---------- -- -------- ----------------,408106.8699999596,408105.57499999413,407656.131,407662.4449999654,407672.643,408122.578,,38,not
