sender,sender_type,sender_id,timestamp,meta,,Blues,Classical,Country,Dance,Electronic,Folk,Gospel,Hip-Hop,Jazz,Latin,Musical/Film,New-age,Pop,Provo_ID,R&B,Rap,Reggae,Religious,Rock,Soul,Swing,Traditional,age,artist_name,correct,correctResponse,distraction,duration,education,ended_on,familiarity,gender,headphone_check_performance,item,list,music_frequency,offensiveness,pleasantness,position_correct,preference,response,response_action,snippet_file,song_name,song_rating,sound,stimulus_1,stimulus_2,stimulus_3,text,time_commit,time_end,time_render,time_run,time_show,time_switch,url,word,word_ID
Introduction,html.Screen,0_0,2021-04-21T18:20:27.525Z,"{""labjs_version"":""20.2.2"",""labjs_build"":{""flavor"":""production"",""commit"":""a25486e0c714a0ae2ce03ff94b7bb6896854dcfa""},""location"":""https://run.pavlovia.org/mvasilev/music_d/"",""userAgent"":""Mozilla/5.0 (Macintosh; Intel Mac OS X 11_2_3) AppleWebKit/537.36 (KHTML, like Gecko) Chrome/89.0.4389.90 Safari/537.36"",""platform"":""MacIntel"",""language"":""en-GB"",""locale"":""en-GB"",""timeZone"":""Europe/London"",""timezoneOffset"":-60,""screen_width"":1440,""screen_height"":900,""scroll_width"":1440,""scroll_height"":741,""window_innerWidth"":1440,""window_innerHeight"":789,""devicePixelRatio"":2}",,,,,,,,,,,,,,,,,,,,,,,,,,,,,7302.151999991469,,response,,,,,,,,,,,continue,click button,,,,,,,,,23126.0300000431,23114.46499999147,15762.315,15776.47500007879,15812.313,23139.069,{},,
Volume calibration,html.Screen,0_1,2021-04-21T18:22:04.882Z,,,,,,,,,,,,,,,,,,,,,,,,,,,,,,97325.78600002745,,response,,,,,,,,,,,continue,click button,,,,,,,,,120480.16500007361,120464.85500002746,23105.737,23128.3650000114,23139.069,120478.125,,,
Task instructions,html.Screen,0_2,2021-04-21T18:22:19.454Z,,,,,,,,,,,,,,,,,,,,,,,,,,,,,,14565.755000011995,,response,,,,,,,,,,,continue,click button,,,,,,,,,135051.20500002522,135043.880000012,120461.459,120480.38000008091,120478.125,135072.544,,,
Sounds,html.Screen,0_3_0_0,2021-04-21T18:22:23.716Z,,,,,,,,,,,,,,,,,,,,,,,,,,,,,,4249.830000000016,,timeout,,,,,,,,,1,,,,,,,,S,O,I,,139313.2100000512,139305.708,135055.878,135051.5150000574,135072.544,139322.374,,,
Judgement,html.Screen,0_3_0_1,2021-04-21T18:22:25.163Z,,,,,,,,,,,,,,,,,,,,,,,,,,,true,1,,1434.2260000806418,,response,,,,,,,,,1,,1,click #choice-1,,,,,S,O,I,,140760.49000001512,140756.60000008065,139305.708,139313.5300000431,139322.374,140772.316,,,
Trial,flow.Sequence,0_3_0,2021-04-21T18:22:25.164Z,,,,,,,,,,,,,,,,,,,,,,,,,,,,,,5684.056000080658,,completion,,,,,,,,,1,,,,,,,,S,O,I,,140760.82500000484,140756.60000008065,135055.878,135051.4400000684,135072.544,140772.316,,,
Sounds,html.Screen,0_3_1_0,2021-04-21T18:22:29.410Z,,,,,,,,,,,,,,,,,,,,,,,,,,,,,,4249.830000000016,,timeout,,,,,,,,,1,,,,,,,,S,I,O,,145007.5000000652,145005.48,140755.65,140761.0150000546,140772.316,145022.146,,,
Judgement,html.Screen,0_3_1_1,2021-04-21T18:22:30.563Z,,,,,,,,,,,,,,,,,,,,,,,,,,,true,1,,1131.7590000719647,,response,,,,,,,,,1,,1,click #choice-1,,,,,S,I,O,,146160.6150000589,146153.90500007197,145005.48,145007.73499999195,145022.146,146163.624,,,
Trial,flow.Sequence,0_3_1,2021-04-21T18:22:30.564Z,,,,,,,,,,,,,,,,,,,,,,,,,,,,,,5381.589000071981,,completion,,,,,,,,,1,,,,,,,,S,I,O,,146161.12500010058,146153.90500007197,140755.65,140760.97500009928,140772.316,146163.624,,,
Sounds,html.Screen,0_3_2_0,2021-04-21T18:22:34.802Z,,,,,,,,,,,,,,,,,,,,,,,,,,,,,,4249.829999999987,,timeout,,,,,,,,,2,,,,,,,,O,S,I,,150399.03500000946,150396.788,146146.958,146161.33000003174,146163.624,150413.454,,,
Judgement,html.Screen,0_3_2_1,2021-04-21T18:22:35.494Z,,,,,,,,,,,,,,,,,,,,,,,,,,,true,2,,666.7210000100604,,response,,,,,,,,,2,,2,click #choice-2,,,,,O,S,I,,151090.65000002738,151080.17500001006,150396.788,150399.2000001017,150413.454,151096.76,,,
Trial,flow.Sequence,0_3_2,2021-04-21T18:22:35.496Z,,,,,,,,,,,,,,,,,,,,,,,,,,,,,,4916.551000010048,,completion,,,,,,,,,2,,,,,,,,O,S,I,,151093.17500004545,151080.17500001006,146146.958,146161.26500000246,146163.624,151096.76,,,
Sounds,html.Screen,0_3_3_0,2021-04-21T18:22:39.736Z,,,,,,,,,,,,,,,,,,,,,,,,,,,,,,4249.829999999987,,timeout,,,,,,,,,3,,,,,,,,O,I,S,,155332.8900000779,155329.924,151080.094,151093.35000009742,151096.76,155346.59,,,
Judgement,html.Screen,0_3_3_1,2021-04-21T18:22:40.345Z,,,,,,,,,,,,,,,,,,,,,,,,,,,true,3,,588.7800000792777,,response,,,,,,,,,3,,3,click #choice-3,,,,,O,I,S,,155942.0350000728,155935.37000007927,155329.924,155333.02000002004,155346.59,155953.517,,,
Trial,flow.Sequence,0_3_3,2021-04-21T18:22:40.346Z,,,,,,,,,,,,,,,,,,,,,,,,,,,,,,4838.610000079265,,completion,,,,,,,,,3,,,,,,,,O,I,S,,155942.6050001057,155935.37000007927,151080.094,151093.29500002787,151096.76,155953.517,,,
Sounds,html.Screen,0_3_4_0,2021-04-21T18:22:44.593Z,,,,,,,,,,,,,,,,,,,,,,,,,,,,,,4249.830000000016,,timeout,,,,,,,,,2,,,,,,,,I,S,O,,160189.75000001956,160186.681,155936.851,155943.2000000961,155953.517,160203.347,,,
Judgement,html.Screen,0_3_4_1,2021-04-21T18:22:45.289Z,,,,,,,,,,,,,,,,,,,,,,,,,,,true,2,,678.603000068164,,response,,,,,,,,,2,,2,click #choice-2,,,,,I,S,O,,160885.6800000649,160881.95000006817,160186.681,160189.97000006493,160203.347,160886.653,,,
Trial,flow.Sequence,0_3_4,2021-04-21T18:22:45.289Z,,,,,,,,,,,,,,,,,,,,,,,,,,,,,,4928.43300006818,,completion,,,,,,,,,2,,,,,,,,I,S,O,,160885.835000081,160881.95000006817,155936.851,155943.15000006463,155953.517,160886.653,,,
Sounds,html.Screen,0_3_5_0,2021-04-21T18:22:49.525Z,,,,,,,,,,,,,,,,,,,,,,,,,,,,,,4249.830000000016,,timeout,,,,,,,,,3,,,,,,,,I,O,S,,165121.92000006326,165119.817,160869.987,160885.92000002973,160886.653,165136.483,,,
Judgement,html.Screen,0_3_5_1,2021-04-21T18:22:50.145Z,,,,,,,,,,,,,,,,,,,,,,,,,,,true,3,,600.772000043653,,response,,,,,,,,,3,,3,click #choice-3,,,,,I,O,S,,165741.08500010334,165737.25500004366,165119.817,165122.0500000054,165136.483,165750.153,,,
Trial,flow.Sequence,0_3_5,2021-04-21T18:22:50.145Z,,,,,,,,,,,,,,,,,,,,,,,,,,,,,,4850.602000043669,,completion,,,,,,,,,3,,,,,,,,I,O,S,,165741.2600000389,165737.25500004366,160869.987,160885.8950000722,160886.653,165750.153,,,
Task,flow.Loop,0_3,2021-04-21T18:22:50.153Z,,,,,,,,,,,,,,,,,,,,,,,,,,,,,,30664.711000043666,,completion,,,1,,,,,,,,,,,,,,,,,,165749.76000003517,165737.25500004366,135055.878,135051.37000000104,135072.544,165750.153,,,
Trap,html.Screen,0_4,2021-04-21T18:22:50.154Z,,,,,,,,,,,,,,,,,,,,,,,,,,,,,,NaN,,skipped,,,,,,,,,,,,,,,,,,,,,165750.95000001602,165737.25500004366,,165750.83999999333,,165750.153,,,
Thanks,html.Screen,0_5,2021-04-21T18:22:55.302Z,,,,,,,,,,,,,,,,,,,,,,,,,,,,,,5141.687000054808,,response,,,,,,,,,,,continue,click button,,,,,,,,,170898.8300000783,170891.8400000548,165733.487,165751.04000000283,165750.153,174699.795,,,
Headphone screening,flow.Sequence,0,2021-04-21T18:22:55.303Z,,,,,,,,,,,,,,,,,,,,,,,,,,,,,,155079.5270000548,,completion,,,,,,,,,,,,,,,,,,,,,170899.15499999188,170891.8400000548,15762.315,15776.420000009239,15812.313,174699.795,,,
Instructions,html.Page,1_0,2021-04-21T18:23:23.715Z,,,,,,,,,,,,,,,,,,,,,,,,,,,,,,24610.055000077846,,form submission,,,,,,,,,,,,,,,,,,,,,199310.21500006318,199309.85000007786,174683.129,174698.45000002533,174699.795,199318.681,,,
Holding screen,html.Screen,1_1_0_0,2021-04-21T18:23:33.708Z,,,,,,,,,,,,,,,,,,,,,,,,,,,,,,10049.597999999998,,timeout,,,,,,,,,,,,,,,,,,,,,209303.30000002868,209301.615,199285.349,199310.38999999873,199318.681,209368.279,,,
screen,html.Screen,1_1_0_1_0,2021-04-21T18:23:34.569Z,,,,,,,,,,,,,,,,53,,,,,,,,,,,,,,780.4810000109428,,response,,,,99,,,,,,,Space,keypress(Space),,,,,,,,When -- ----- -- ------ - ------- --- ----------<br>------------- ------ ------ ---- ---- ------- ----- -- ----<br>-------- ------- -- ---------- --- - --- ----- ----- ----<br>---- --- --- ----- --- ---- ---- ------- ----- ---- -------<br>--- --- -- ----- -- --- ---- -- --- ---- -- ------ ------<br>--- ----- -- ----,210164.09500001464,210148.76000001095,209301.615,209303.7750000367,209368.279,210168.247,,0,When
screen,html.Screen,1_1_0_1_1,2021-04-21T18:23:34.988Z,,,,,,,,,,,,,,,,53,,,,,,,,,,,,,,407.01300007055397,,response,,,,99,,,,,,,Space,keypress(Space),,,,,,,,---- it ----- -- ------ - ------- --- ----------<br>------------- ------ ------ ---- ---- ------- ----- -- ----<br>-------- ------- -- ---------- --- - --- ----- ----- ----<br>---- --- --- ----- --- ---- ---- ------- ----- ---- -------<br>--- --- -- ----- -- --- ---- -- --- ---- -- ------ ------<br>--- ----- -- ----,210583.66500004195,210575.26000007056,210151.581,210164.240000071,210168.247,210587.149,,1,it
screen,html.Screen,1_1_0_1_2,2021-04-21T18:23:35.340Z,,,,,,,,,,,,,,,,53,,,,,,,,,,,,,,339.09100005889195,,response,,,,99,,,,,,,Space,keypress(Space),,,,,,,,---- -- comes -- ------ - ------- --- ----------<br>------------- ------ ------ ---- ---- ------- ----- -- ----<br>-------- ------- -- ---------- --- - --- ----- ----- ----<br>---- --- --- ----- --- ---- ---- ------- ----- ---- -------<br>--- --- -- ----- -- --- ---- -- --- ---- -- ------ ------<br>--- ----- -- ----,210935.2600000566,210926.2400000589,210570.483,210583.80500006024,210587.149,210953.801,,2,comes
screen,html.Screen,1_1_0_1_3,2021-04-21T18:23:35.635Z,,,,,,,,,,,,,,,,53,,,,,,,,,,,,,,267.4640000583313,,response,,,,99,,,,,,,Space,keypress(Space),,,,,,,,---- -- ----- to ------ - ------- --- ----------<br>------------- ------ ------ ---- ---- ------- ----- -- ----<br>-------- ------- -- ---------- --- - --- ----- ----- ----<br>---- --- --- ----- --- ---- ---- ------- ----- ---- -------<br>--- --- -- ----- -- --- ---- -- --- ---- -- ------ ------<br>--- ----- -- ----,211230.0150000956,211221.26500005834,210937.135,210935.3950000368,210953.801,211237.123,,3,to
screen,html.Screen,1_1_0_1_4,2021-04-21T18:23:35.905Z,,,,,,,,,,,,,,,,53,,,,,,,,,,,,,,254.0770000476914,,response,,,,99,,,,,,,Space,keypress(Space),,,,,,,,---- -- ----- -- having - ------- --- ----------<br>------------- ------ ------ ---- ---- ------- ----- -- ----<br>-------- ------- -- ---------- --- - --- ----- ----- ----<br>---- --- --- ----- --- ---- ---- ------- ----- ---- -------<br>--- --- -- ----- -- --- ---- -- --- ---- -- ------ ------<br>--- ----- -- ----,211499.73000003956,211491.20000004768,211220.457,211230.1500000758,211237.123,211503.779,,4,having
screen,html.Screen,1_1_0_1_5,2021-04-21T18:23:36.145Z,,,,,,,,,,,,,,,,53,,,,,,,,,,,,,,226.49100005821674,,response,,,,99,,,,,,,Space,keypress(Space),,,,,,,,---- -- ----- -- ------ a ------- --- ----------<br>------------- ------ ------ ---- ---- ------- ----- -- ----<br>-------- ------- -- ---------- --- - --- ----- ----- ----<br>---- --- --- ----- --- ---- ---- ------- ----- ---- -------<br>--- --- -- ----- -- --- ---- -- --- ---- -- ------ ------<br>--- ----- -- ----,211739.72499999218,211730.27000005823,211487.113,211499.88500005566,211503.779,211753.769,,5,a
screen,html.Screen,1_1_0_1_6,2021-04-21T18:23:36.425Z,,,,,,,,,,,,,,,,53,,,,,,,,,,,,,,257.50100001724786,,response,,,,99,,,,,,,Space,keypress(Space),,,,,,,,---- -- ----- -- ------ - lasting --- ----------<br>------------- ------ ------ ---- ---- ------- ----- -- ----<br>-------- ------- -- ---------- --- - --- ----- ----- ----<br>---- --- --- ----- --- ---- ---- ------- ----- ---- -------<br>--- --- -- ----- -- --- ---- -- --- ---- -- ------ ------<br>--- ----- -- ----,212019.7150000604,212011.27000001725,211737.103,211739.90500008222,211753.769,212037.091,,6,lasting
screen,html.Screen,1_1_0_1_7,2021-04-21T18:23:36.734Z,,,,,,,,,,,,,,,,53,,,,,,,,,,,,,,284.0840000482567,,response,,,,99,,,,,,,Space,keypress(Space),,,,,,,,---- -- ----- -- ------ - ------- and ----------<br>------------- ------ ------ ---- ---- ------- ----- -- ----<br>-------- ------- -- ---------- --- - --- ----- ----- ----<br>---- --- --- ----- --- ---- ---- ------- ----- ---- -------<br>--- --- -- ----- -- --- ---- -- --- ---- -- ------ ------<br>--- ----- -- ----,212329.58000001963,212321.17500004824,212020.425,212019.8650000384,212037.091,212337.079,,7,and
screen,html.Screen,1_1_0_1_8,2021-04-21T18:23:37.052Z,,,,,,,,,,,,,,,,53,,,,,,,,,,,,,,301.15600007856847,,response,,,,99,,,,,,,Space,keypress(Space),,,,,,,,---- -- ----- -- ------ - ------- --- fulfilling<br>------------- ------ ------ ---- ---- ------- ----- -- ----<br>-------- ------- -- ---------- --- - --- ----- ----- ----<br>---- --- --- ----- --- ---- ---- ------- ----- ---- -------<br>--- --- -- ----- -- --- ---- -- --- ---- -- ------ ------<br>--- ----- -- ----,212647.4300000118,212638.23500007857,212320.413,212329.725000076,212337.079,212653.733,,8,fulfilling
screen,html.Screen,1_1_0_1_9,2021-04-21T18:23:37.392Z,,,,,,,,,,,,,,,,53,,,,,,,,,,,,,,324.41200005915016,,response,,,,99,,,,,,,Space,keypress(Space),,,,,,,,"---- -- ----- -- ------ - ------- --- ----------<br>relationship, ------ ------ ---- ---- ------- ----- -- ----<br>-------- ------- -- ---------- --- - --- ----- ----- ----<br>---- --- --- ----- --- ---- ---- ------- ----- ---- -------<br>--- --- -- ----- -- --- ---- -- --- ---- -- ------ ------<br>--- ----- -- ----",212986.6950000869,212978.14500005916,212637.067,212647.57500006817,212653.733,213003.719,,9,"relationship,"
screen,html.Screen,1_1_0_1_10,2021-04-21T18:23:37.690Z,,,,,,,,,,,,,,,,53,,,,,,,,,,,,,,273.39600006261026,,response,,,,99,,,,,,,Space,keypress(Space),,,,,,,,---- -- ----- -- ------ - ------- --- ----------<br>------------- common ------ ---- ---- ------- ----- -- ----<br>-------- ------- -- ---------- --- - --- ----- ----- ----<br>---- --- --- ----- --- ---- ---- ------- ----- ---- -------<br>--- --- -- ----- -- --- ---- -- --- ---- -- ------ ------<br>--- ----- -- ----,213285.3200000245,213277.11500006262,212987.053,212986.84000002686,213003.719,213287.041,,10,common
screen,html.Screen,1_1_0_1_11,2021-04-21T18:23:38.020Z,,,,,,,,,,,,,,,,53,,,,,,,,,,,,,,319.07400008963305,,response,,,,99,,,,,,,Space,keypress(Space),,,,,,,,---- -- ----- -- ------ - ------- --- ----------<br>------------- ------ wisdom ---- ---- ------- ----- -- ----<br>-------- ------- -- ---------- --- - --- ----- ----- ----<br>---- --- --- ----- --- ---- ---- ------- ----- ---- -------<br>--- --- -- ----- -- --- ---- -- --- ---- -- ------ ------<br>--- ----- -- ----,213614.73500006832,213606.11500008963,213270.375,213285.4600000428,213287.041,213620.361,,11,wisdom
screen,html.Screen,1_1_0_1_12,2021-04-21T18:23:38.318Z,,,,,,,,,,,,,,,,53,,,,,,,,,,,,,,283.6890000119165,,response,,,,99,,,,,,,Space,keypress(Space),,,,,,,,---- -- ----- -- ------ - ------- --- ----------<br>------------- ------ ------ says ---- ------- ----- -- ----<br>-------- ------- -- ---------- --- - --- ----- ----- ----<br>---- --- --- ----- --- ---- ---- ------- ----- ---- -------<br>--- --- -- ----- -- --- ---- -- --- ---- -- ------ ------<br>--- ----- -- ----,213912.99000009894,213904.05000001192,213603.695,213614.88000000827,213620.361,213920.349,,12,says
screen,html.Screen,1_1_0_1_13,2021-04-21T18:23:38.633Z,,,,,,,,,,,,,,,,53,,,,,,,,,,,,,,297.9560001040227,,response,,,,99,,,,,,,Space,keypress(Space),,,,,,,,---- -- ----- -- ------ - ------- --- ----------<br>------------- ------ ------ ---- that ------- ----- -- ----<br>-------- ------- -- ---------- --- - --- ----- ----- ----<br>---- --- --- ----- --- ---- ---- ------- ----- ---- -------<br>--- --- -- ----- -- --- ---- -- --- ---- -- ------ ------<br>--- ----- -- ----,214227.8149999911,214218.305000104,213903.683,213913.1350000389,213920.349,214237.003,,13,that
screen,html.Screen,1_1_0_1_14,2021-04-21T18:23:38.904Z,,,,,,,,,,,,,,,,53,,,,,,,,,,,,,,253.1820000023872,,response,,,,99,,,,,,,Space,keypress(Space),,,,,,,,---- -- ----- -- ------ - ------- --- ----------<br>------------- ------ ------ ---- ---- feeling ----- -- ----<br>-------- ------- -- ---------- --- - --- ----- ----- ----<br>---- --- --- ----- --- ---- ---- ------- ----- ---- -------<br>--- --- -- ----- -- --- ---- -- --- ---- -- ------ ------<br>--- ----- -- ----,214498.98000003304,214490.18500000238,214220.337,214227.96000004746,214237.003,214503.659,,14,feeling
screen,html.Screen,1_1_0_1_15,2021-04-21T18:23:39.215Z,,,,,,,,,,,,,,,,53,,,,,,,,,,,,,,298.4660000456206,,response,,,,99,,,,,,,Space,keypress(Space),,,,,,,,---- -- ----- -- ------ - ------- --- ----------<br>------------- ------ ------ ---- ---- ------- close -- ----<br>-------- ------- -- ---------- --- - --- ----- ----- ----<br>---- --- --- ----- --- ---- ---- ------- ----- ---- -------<br>--- --- -- ----- -- --- ---- -- --- ---- -- ------ ------<br>--- ----- -- ----,214810.56000001263,214802.12500004563,214486.993,214499.1250000894,214503.659,214820.313,,15,close
screen,html.Screen,1_1_0_1_16,2021-04-21T18:23:39.514Z,,,,,,,,,,,,,,,,53,,,,,,,,,,,,,,278.8420000617334,,response,,,,99,,,,,,,Space,keypress(Space),,,,,,,,---- -- ----- -- ------ - ------- --- ----------<br>------------- ------ ------ ---- ---- ------- ----- to ----<br>-------- ------- -- ---------- --- - --- ----- ----- ----<br>---- --- --- ----- --- ---- ---- ------- ----- ---- -------<br>--- --- -- ----- -- --- ---- -- --- ---- -- ------ ------<br>--- ----- -- ----,215108.68000006303,215099.15500006173,214803.647,214810.70999999065,214820.313,215120.301,,16,to
screen,html.Screen,1_1_0_1_17,2021-04-21T18:23:39.802Z,,,,,,,,,,,,,,,,53,,,,,,,,,,,,,,265.7040000948764,,response,,,,99,,,,,,,Space,keypress(Space),,,,,,,,---- -- ----- -- ------ - ------- --- ----------<br>------------- ------ ------ ---- ---- ------- ----- -- your<br>-------- ------- -- ---------- --- - --- ----- ----- ----<br>---- --- --- ----- --- ---- ---- ------- ----- ---- -------<br>--- --- -- ----- -- --- ---- -- --- ---- -- ------ ------<br>--- ----- -- ----,215396.76500007045,215386.00500009488,215103.635,215108.82500000298,215120.301,215403.623,,17,your
screen,html.Screen,1_1_0_1_18,2021-04-21T18:23:40.111Z,,,,,,,,,,,,,,,,53,,,,,,,,,,,,,,294.3870000510069,,response,,,,99,,,,,,,Space,keypress(Space),,,,,,,,---- -- ----- -- ------ - ------- --- ----------<br>------------- ------ ------ ---- ---- ------- ----- -- ----<br>romantic ------- -- ---------- --- - --- ----- ----- ----<br>---- --- --- ----- --- ---- ---- ------- ----- ---- -------<br>--- --- -- ----- -- --- ---- -- --- ---- -- ------ ------<br>--- ----- -- ----,215706.39000006486,215698.010000051,215386.957,215396.9100000104,215403.623,215720.277,,18,romantic
screen,html.Screen,1_1_0_1_19,2021-04-21T18:23:40.370Z,,,,,,,,,,,,,,,,53,,,,,,,,,,,,,,235.86300002387725,,response,,,,99,,,,,,,Space,keypress(Space),,,,,,,,---- -- ----- -- ------ - ------- --- ----------<br>------------- ------ ------ ---- ---- ------- ----- -- ----<br>-------- partner -- ---------- --- - --- ----- ----- ----<br>---- --- --- ----- --- ---- ---- ------- ----- ---- -------<br>--- --- -- ----- -- --- ---- -- --- ---- -- ------ ------<br>--- ----- -- ----,215964.76000000257,215956.14000002388,215703.611,215706.54000004288,215720.277,215970.267,,19,partner
screen,html.Screen,1_1_0_1_20,2021-04-21T18:23:40.644Z,,,,,,,,,,,,,,,,53,,,,,,,,,,,,,,259.8729999996722,,response,,,,99,,,,,,,Space,keypress(Space),,,,,,,,---- -- ----- -- ------ - ------- --- ----------<br>------------- ------ ------ ---- ---- ------- ----- -- ----<br>-------- ------- is ---------- --- - --- ----- ----- ----<br>---- --- --- ----- --- ---- ---- ------- ----- ---- -------<br>--- --- -- ----- -- --- ---- -- --- ---- -- ------ ------<br>--- ----- -- ----,216239.0300000552,216230.13999999966,215953.601,215964.92000005674,215970.267,216253.589,,20,is
screen,html.Screen,1_1_0_1_21,2021-04-21T18:23:40.951Z,,,,,,,,,,,,,,,,53,,,,,,,,,,,,,,284.3760000249895,,response,,,,99,,,,,,,Space,keypress(Space),,,,,,,,---- -- ----- -- ------ - ------- --- ----------<br>------------- ------ ------ ---- ---- ------- ----- -- ----<br>-------- ------- -- paramount. --- - --- ----- ----- ----<br>---- --- --- ----- --- ---- ---- ------- ----- ---- -------<br>--- --- -- ----- -- --- ---- -- --- ---- -- ------ ------<br>--- ----- -- ----,216546.10999999568,216537.965000025,216236.923,216239.22000010498,216253.589,216553.577,,21,paramount.
screen,html.Screen,1_1_0_1_22,2021-04-21T18:23:41.199Z,,,,,,,,,,,,,,,,53,,,,,,,,,,,,,,232.45300007570768,,response,,,,99,,,,,,,Space,keypress(Space),,,,,,,,---- -- ----- -- ------ - ------- --- ----------<br>------------- ------ ------ ---- ---- ------- ----- -- ----<br>-------- ------- -- ---------- But - --- ----- ----- ----<br>---- --- --- ----- --- ---- ---- ------- ----- ---- -------<br>--- --- -- ----- -- --- ---- -- --- ---- -- ------ ------<br>--- ----- -- ----,216794.2650000332,216786.0300000757,216536.911,216546.27500008792,216553.577,216803.567,,22,But
screen,html.Screen,1_1_0_1_23,2021-04-21T18:23:41.489Z,,,,,,,,,,,,,,,,53,,,,,,,,,,,,,,271.46300006544334,,response,,,,99,,,,,,,Space,keypress(Space),,,,,,,,---- -- ----- -- ------ - ------- --- ----------<br>------------- ------ ------ ---- ---- ------- ----- -- ----<br>-------- ------- -- ---------- --- a --- ----- ----- ----<br>---- --- --- ----- --- ---- ---- ------- ----- ---- -------<br>--- --- -- ----- -- --- ---- -- --- ---- -- ------ ------<br>--- ----- -- ----,217084.49000003748,217075.03000006545,216786.901,216794.40500005148,216803.567,217086.889,,23,a
screen,html.Screen,1_1_0_1_24,2021-04-21T18:23:41.748Z,,,,,,,,,,,,,,,,53,,,,,,,,,,,,,,248.1910001062497,,response,,,,99,,,,,,,Space,keypress(Space),,,,,,,,---- -- ----- -- ------ - ------- --- ----------<br>------------- ------ ------ ---- ---- ------- ----- -- ----<br>-------- ------- -- ---------- --- - new ----- ----- ----<br>---- --- --- ----- --- ---- ---- ------- ----- ---- -------<br>--- --- -- ----- -- --- ---- -- --- ---- -- ------ ------<br>--- ----- -- ----,217343.42500008643,217335.08000010625,217070.223,217084.6400000155,217086.889,217353.545,,24,new
screen,html.Screen,1_1_0_1_25,2021-04-21T18:23:41.991Z,,,,,,,,,,,,,,,,53,,,,,,,,,,,,,,223.5849999905622,,response,,,,99,,,,,,,Space,keypress(Space),,,,,,,,---- -- ----- -- ------ - ------- --- ----------<br>------------- ------ ------ ---- ---- ------- ----- -- ----<br>-------- ------- -- ---------- --- - --- study ----- ----<br>---- --- --- ----- --- ---- ---- ------- ----- ---- -------<br>--- --- -- ----- -- --- ---- -- --- ---- -- ------ ------<br>--- ----- -- ----,217586.06000000145,217577.12999999058,217336.879,217343.56500010472,217353.545,217586.869,,25,study
screen,html.Screen,1_1_0_1_26,2021-04-21T18:23:42.263Z,,,,,,,,,,,,,,,,53,,,,,,,,,,,,,,262.1260000075563,,response,,,,99,,,,,,,Space,keypress(Space),,,,,,,,---- -- ----- -- ------ - ------- --- ----------<br>------------- ------ ------ ---- ---- ------- ----- -- ----<br>-------- ------- -- ---------- --- - --- ----- finds ----<br>---- --- --- ----- --- ---- ---- ------- ----- ---- -------<br>--- --- -- ----- -- --- ---- -- --- ---- -- ------ ------<br>--- ----- -- ----,217857.91000002064,217848.99500000756,217570.203,217586.21500001755,217586.869,217870.191,,26,finds
screen,html.Screen,1_1_0_1_27,2021-04-21T18:23:42.505Z,,,,,,,,,,,,,,,,53,,,,,,,,,,,,,,221.6840000419179,,response,,,,99,,,,,,,Space,keypress(Space),,,,,,,,---- -- ----- -- ------ - ------- --- ----------<br>------------- ------ ------ ---- ---- ------- ----- -- ----<br>-------- ------- -- ---------- --- - --- ----- ----- that<br>---- --- --- ----- --- ---- ---- ------- ----- ---- -------<br>--- --- -- ----- -- --- ---- -- --- ---- -- ------ ------<br>--- ----- -- ----,218100.20000010263,218091.8750000419,217853.525,217858.055000077,217870.191,218103.515,,27,that
screen,html.Screen,1_1_0_1_28,2021-04-21T18:23:42.777Z,,,,,,,,,,,,,,,,53,,,,,,,,,,,,,,259.50500004796777,,response,,,,99,,,,,,,Space,keypress(Space),,,,,,,,---- -- ----- -- ------ - ------- --- ----------<br>------------- ------ ------ ---- ---- ------- ----- -- ----<br>-------- ------- -- ---------- --- - --- ----- ----- ----<br>it's --- --- ----- --- ---- ---- ------- ----- ---- -------<br>--- --- -- ----- -- --- ---- -- --- ---- -- ------ ------<br>--- ----- -- ----,218371.59500003327,218363.02000004798,218086.849,218100.34500004258,218103.515,218386.837,,28,it's
screen,html.Screen,1_1_0_1_29,2021-04-21T18:23:43.006Z,,,,,,,,,,,,,,,,53,,,,,,,,,,,,,,205.2230000536074,,response,,,,99,,,,,,,Space,keypress(Space),,,,,,,,---- -- ----- -- ------ - ------- --- ----------<br>------------- ------ ------ ---- ---- ------- ----- -- ----<br>-------- ------- -- ---------- --- - --- ----- ----- ----<br>---- not --- ----- --- ---- ---- ------- ----- ---- -------<br>--- --- -- ----- -- --- ---- -- --- ---- -- ------ ------<br>--- ----- -- ----,218600.80000001471,218592.0600000536,218370.171,218371.7900000047,218386.837,218603.495,,29,not
screen,html.Screen,1_1_0_1_30,2021-04-21T18:23:43.224Z,,,,,,,,,,,,,,,,53,,,,,,,,,,,,,,203.59500001661945,,response,,,,99,,,,,,,Space,keypress(Space),,,,,,,,---- -- ----- -- ------ - ------- --- ----------<br>------------- ------ ------ ---- ---- ------- ----- -- ----<br>-------- ------- -- ---------- --- - --- ----- ----- ----<br>---- --- how ----- --- ---- ---- ------- ----- ---- -------<br>--- --- -- ----- -- --- ---- -- --- ---- -- ------ ------<br>--- ----- -- ----,218819.1550000338,218807.09000001661,218586.829,218600.96499999054,218603.495,218836.819,,30,how
screen,html.Screen,1_1_0_1_31,2021-04-21T18:23:43.491Z,,,,,,,,,,,,,,,,53,,,,,,,,,,,,,,240.20100008431473,,response,,,,99,,,,,,,Space,keypress(Space),,,,,,,,---- -- ----- -- ------ - ------- --- ----------<br>------------- ------ ------ ---- ---- ------- ----- -- ----<br>-------- ------- -- ---------- --- - --- ----- ----- ----<br>---- --- --- close --- ---- ---- ------- ----- ---- -------<br>--- --- -- ----- -- --- ---- -- --- ---- -- ------ ------<br>--- ----- -- ----,219085.80500003882,219077.0200000843,218820.153,218819.32500004768,218836.819,219086.809,,31,close
screen,html.Screen,1_1_0_1_32,2021-04-21T18:23:43.732Z,,,,,,,,,,,,,,,,53,,,,,,,,,,,,,,232.20600001548883,,response,,,,99,,,,,,,Space,keypress(Space),,,,,,,,---- -- ----- -- ------ - ------- --- ----------<br>------------- ------ ------ ---- ---- ------- ----- -- ----<br>-------- ------- -- ---------- --- - --- ----- ----- ----<br>---- --- --- ----- you ---- ---- ------- ----- ---- -------<br>--- --- -- ----- -- --- ---- -- --- ---- -- ------ ------<br>--- ----- -- ----,219327.2200000938,219319.0150000155,219070.143,219085.96500009298,219086.809,219336.799,,32,you
screen,html.Screen,1_1_0_1_33,2021-04-21T18:23:43.970Z,,,,,,,,,,,,,,,,53,,,,,,,,,,,,,,219.21100005845074,,response,,,,99,,,,,,,Space,keypress(Space),,,,,,,,---- -- ----- -- ------ - ------- --- ----------<br>------------- ------ ------ ---- ---- ------- ----- -- ----<br>-------- ------- -- ---------- --- - --- ----- ----- ----<br>---- --- --- ----- --- feel ---- ------- ----- ---- -------<br>--- --- -- ----- -- --- ---- -- --- ---- -- ------ ------<br>--- ----- -- ----,219564.63000003714,219556.01000005845,219320.133,219327.35000003595,219336.799,219570.123,,33,feel
screen,html.Screen,1_1_0_1_34,2021-04-21T18:23:44.416Z,,,,,,,,,,,,,,,,53,,,,,,,,,,,,,,431.9570000056701,,response,,,,99,,,,,,,Space,keypress(Space),,,,,,,,---- -- ----- -- ------ - ------- --- ----------<br>------------- ------ ------ ---- ---- ------- ----- -- ----<br>-------- ------- -- ---------- --- - --- ----- ----- ----<br>---- --- --- ----- --- ---- that ------- ----- ---- -------<br>--- --- -- ----- -- --- ---- -- --- ---- -- ------ ------<br>--- ----- -- ----,220010.53000008687,220002.08000000566,219553.457,219564.7600000957,219570.123,220020.105,,34,that
screen,html.Screen,1_1_0_1_35,2021-04-21T18:23:44.597Z,,,,,,,,,,,,,,,,53,,,,,,,,,,,,,,159.66500004610862,,response,,,,99,,,,,,,Space,keypress(Space),,,,,,,,---- -- ----- -- ------ - ------- --- ----------<br>------------- ------ ------ ---- ---- ------- ----- -- ----<br>-------- ------- -- ---------- --- - --- ----- ----- ----<br>---- --- --- ----- --- ---- ---- matters ----- ---- -------<br>--- --- -- ----- -- --- ---- -- --- ---- -- ------ ------<br>--- ----- -- ----,220191.88500009477,220179.77000004612,220003.439,220010.68500010297,220020.105,220204.728,,35,matters
screen,html.Screen,1_1_0_1_36,2021-04-21T18:23:44.784Z,,,,,,,,,,,,,,,,53,,,,,,,,,,,,,,166.30700007651467,,response,,,,99,,,,,,,Space,keypress(Space),,,,,,,,"---- -- ----- -- ------ - ------- --- ----------<br>------------- ------ ------ ---- ---- ------- ----- -- ----<br>-------- ------- -- ---------- --- - --- ----- ----- ----<br>---- --- --- ----- --- ---- ---- ------- most, ---- -------<br>--- --- -- ----- -- --- ---- -- --- ---- -- ------ ------<br>--- ----- -- ----",220379.22000000253,220371.03500007652,220188.062,220192.020000075,220204.728,220388.054,,36,"most,"
screen,html.Screen,1_1_0_1_37,2021-04-21T18:23:45.020Z,,,,,,,,,,,,,,,,53,,,,,,,,,,,,,,218.86600004928187,,response,,,,99,,,,,,,Space,keypress(Space),,,,,,,,---- -- ----- -- ------ - ------- --- ----------<br>------------- ------ ------ ---- ---- ------- ----- -- ----<br>-------- ------- -- ---------- --- - --- ----- ----- ----<br>---- --- --- ----- --- ---- ---- ------- ----- it's -------<br>--- --- -- ----- -- --- ---- -- --- ---- -- ------ ------<br>--- ----- -- ----,220615.2449999936,220606.9200000493,220371.388,220379.7200000845,220388.054,220621.378,,37,it's
screen,html.Screen,1_1_0_1_38,2021-04-21T18:23:45.259Z,,,,,,,,,,,,,,,,53,,,,,,,,,,,,,,223.59700001453166,,response,,,,99,,,,,,,Space,keypress(Space),,,,,,,,---- -- ----- -- ------ - ------- --- ----------<br>------------- ------ ------ ---- ---- ------- ----- -- ----<br>-------- ------- -- ---------- --- - --- ----- ----- ----<br>---- --- --- ----- --- ---- ---- ------- ----- ---- whether<br>--- --- -- ----- -- --- ---- -- --- ---- -- ------ ------<br>--- ----- -- ----,220853.53000008035,220844.97500001453,220604.712,220615.38000009023,220621.378,220871.368,,38,whether
screen,html.Screen,1_1_0_1_39,2021-04-21T18:23:45.545Z,,,,,,,,,,,,,,,,53,,,,,,,,,,,,,,260.4370000118215,,response,,,,99,,,,,,,Space,keypress(Space),,,,,,,,---- -- ----- -- ------ - ------- --- ----------<br>------------- ------ ------ ---- ---- ------- ----- -- ----<br>-------- ------- -- ---------- --- - --- ----- ----- ----<br>---- --- --- ----- --- ---- ---- ------- ----- ---- -------<br>you --- -- ----- -- --- ---- -- --- ---- -- ------ ------<br>--- ----- -- ----,221140.07500000298,221131.8050000118,220854.702,220853.67000009865,220871.368,221154.69,,39,you
screen,html.Screen,1_1_0_1_40,2021-04-21T18:23:45.766Z,,,,,,,,,,,,,,,,53,,,,,,,,,,,,,,195.2250000279746,,response,,,,99,,,,,,,Space,keypress(Space),,,,,,,,---- -- ----- -- ------ - ------- --- ----------<br>------------- ------ ------ ---- ---- ------- ----- -- ----<br>-------- ------- -- ---------- --- - --- ----- ----- ----<br>---- --- --- ----- --- ---- ---- ------- ----- ---- -------<br>--- are -- ----- -- --- ---- -- --- ---- -- ------ ------<br>--- ----- -- ----,221361.18000000715,221349.91500002798,221138.024,221140.26000001468,221154.69,221371.348,,40,are
screen,html.Screen,1_1_0_1_41,2021-04-21T18:23:45.974Z,,,,,,,,,,,,,,,,53,,,,,,,,,,,,,,188.4170000127051,,response,,,,99,,,,,,,Space,keypress(Space),,,,,,,,---- -- ----- -- ------ - ------- --- ----------<br>------------- ------ ------ ---- ---- ------- ----- -- ----<br>-------- ------- -- ---------- --- - --- ----- ----- ----<br>---- --- --- ----- --- ---- ---- ------- ----- ---- -------<br>--- --- as ----- -- --- ---- -- --- ---- -- ------ ------<br>--- ----- -- ----,221569.00500005577,221559.7650000127,221354.682,221361.32000002544,221371.348,221571.34,,41,as
screen,html.Screen,1_1_0_1_42,2021-04-21T18:23:46.362Z,,,,,,,,,,,,,,,,53,,,,,,,,,,,,,,376.50500007517985,,response,,,,99,,,,,,,Space,keypress(Space),,,,,,,,---- -- ----- -- ------ - ------- --- ----------<br>------------- ------ ------ ---- ---- ------- ----- -- ----<br>-------- ------- -- ---------- --- - --- ----- ----- ----<br>---- --- --- ----- --- ---- ---- ------- ----- ---- -------<br>--- --- -- close -- --- ---- -- --- ---- -- ------ ------<br>--- ----- -- ----,221956.4600000158,221947.84500007518,221554.674,221569.14500007406,221571.34,221971.324,,42,close
screen,html.Screen,1_1_0_1_43,2021-04-21T18:23:46.581Z,,,,,,,,,,,,,,,,53,,,,,,,,,,,,,,196.44100002016057,,response,,,,99,,,,,,,Space,keypress(Space),,,,,,,,---- -- ----- -- ------ - ------- --- ----------<br>------------- ------ ------ ---- ---- ------- ----- -- ----<br>-------- ------- -- ---------- --- - --- ----- ----- ----<br>---- --- --- ----- --- ---- ---- ------- ----- ---- -------<br>--- --- -- ----- as --- ---- -- --- ---- -- ------ ------<br>--- ----- -- ----,222176.26500001643,222167.76500002015,221954.658,221956.59000007436,221971.324,222187.982,,43,as
screen,html.Screen,1_1_0_1_44,2021-04-21T18:23:46.789Z,,,,,,,,,,,,,,,,53,,,,,,,,,,,,,,186.85300002418808,,response,,,,99,,,,,,,Space,keypress(Space),,,,,,,,---- -- ----- -- ------ - ------- --- ----------<br>------------- ------ ------ ---- ---- ------- ----- -- ----<br>-------- ------- -- ---------- --- - --- ----- ----- ----<br>---- --- --- ----- --- ---- ---- ------- ----- ---- -------<br>--- --- -- ----- -- you ---- -- --- ---- -- ------ ------<br>--- ----- -- ----,222383.91500001308,222374.83500002418,222171.316,222176.41499999445,222187.982,222387.974,,44,you
screen,html.Screen,1_1_0_1_45,2021-04-21T18:23:46.948Z,,,,,,,,,,,,,,,,53,,,,,,,,,,,,,,146.80100006557768,,response,,,,99,,,,,,,Space,keypress(Space),,,,,,,,---- -- ----- -- ------ - ------- --- ----------<br>------------- ------ ------ ---- ---- ------- ----- -- ----<br>-------- ------- -- ---------- --- - --- ----- ----- ----<br>---- --- --- ----- --- ---- ---- ------- ----- ---- -------<br>--- --- -- ----- -- --- want -- --- ---- -- ------ ------<br>--- ----- -- ----,222543.27500006184,222534.77500006557,222371.308,222384.04000003356,222387.974,222554.634,,45,want
screen,html.Screen,1_1_0_1_46,2021-04-21T18:23:47.327Z,,,,,,,,,,,,,,,,53,,,,,,,,,,,,,,358.3060000674741,,response,,,,99,,,,,,,Space,keypress(Space),,,,,,,,---- -- ----- -- ------ - ------- --- ----------<br>------------- ------ ------ ---- ---- ------- ----- -- ----<br>-------- ------- -- ---------- --- - --- ----- ----- ----<br>---- --- --- ----- --- ---- ---- ------- ----- ---- -------<br>--- --- -- ----- -- --- ---- to --- ---- -- ------ ------<br>--- ----- -- ----,222921.76500009373,222912.94000006747,222537.968,222543.41000004206,222554.634,222937.952,,46,to
screen,html.Screen,1_1_0_1_47,2021-04-21T18:23:47.534Z,,,,,,,,,,,,,,,,53,,,,,,,,,,,,,,183.81300004717195,,response,,,,99,,,,,,,Space,keypress(Space),,,,,,,,"---- -- ----- -- ------ - ------- --- ----------<br>------------- ------ ------ ---- ---- ------- ----- -- ----<br>-------- ------- -- ---------- --- - --- ----- ----- ----<br>---- --- --- ----- --- ---- ---- ------- ----- ---- -------<br>--- --- -- ----- -- --- ---- -- be, ---- -- ------ ------<br>--- ----- -- ----",223128.52500006557,223121.76500004716,222921.286,222921.89500003587,222937.952,223137.944,,47,"be,"
screen,html.Screen,1_1_0_1_48,2021-04-21T18:23:47.716Z,,,,,,,,,,,,,,,,53,,,,,,,,,,,,,,163.90100000906386,,response,,,,99,,,,,,,Space,keypress(Space),,,,,,,,---- -- ----- -- ------ - ------- --- ----------<br>------------- ------ ------ ---- ---- ------- ----- -- ----<br>-------- ------- -- ---------- --- - --- ----- ----- ----<br>---- --- --- ----- --- ---- ---- ------- ----- ---- -------<br>--- --- -- ----- -- --- ---- -- --- even -- ------ ------<br>--- ----- -- ----,223310.41999999434,223301.84500000905,223121.278,223128.64500004798,223137.944,223321.27,,48,even
screen,html.Screen,1_1_0_1_49,2021-04-21T18:23:47.929Z,,,,,,,,,,,,,,,,53,,,,,,,,,,,,,,194.52000009224867,,response,,,,99,,,,,,,Space,keypress(Space),,,,,,,,---- -- ----- -- ------ - ------- --- ----------<br>------------- ------ ------ ---- ---- ------- ----- -- ----<br>-------- ------- -- ---------- --- - --- ----- ----- ----<br>---- --- --- ----- --- ---- ---- ------- ----- ---- -------<br>--- --- -- ----- -- --- ---- -- --- ---- if ------ ------<br>--- ----- -- ----,223523.99500005413,223515.79000009224,223304.604,223310.55500009097,223321.27,223537.928,,49,if
screen,html.Screen,1_1_0_1_50,2021-04-21T18:23:48.108Z,,,,,,,,,,,,,,,,53,,,,,,,,,,,,,,155.90200000378536,,response,,,,99,,,,,,,Space,keypress(Space),,,,,,,,---- -- ----- -- ------ - ------- --- ----------<br>------------- ------ ------ ---- ---- ------- ----- -- ----<br>-------- ------- -- ---------- --- - --- ----- ----- ----<br>---- --- --- ----- --- ---- ---- ------- ----- ---- -------<br>--- --- -- ----- -- --- ---- -- --- ---- -- that's ------<br>--- ----- -- ----,223702.56000000518,223693.8300000038,223521.262,223524.12000007462,223537.928,223704.588,,50,that's
screen,html.Screen,1_1_0_1_51,2021-04-21T18:23:48.286Z,,,,,,,,,,,,,,,,53,,,,,,,,,,,,,,167.30200006766245,,response,,,,99,,,,,,,Space,keypress(Space),,,,,,,,---- -- ----- -- ------ - ------- --- ----------<br>------------- ------ ------ ---- ---- ------- ----- -- ----<br>-------- ------- -- ---------- --- - --- ----- ----- ----<br>---- --- --- ----- --- ---- ---- ------- ----- ---- -------<br>--- --- -- ----- -- --- ---- -- --- ---- -- ------ really<br>--- ----- -- ----,223880.69000001997,223871.89000006765,223687.922,223702.69000006374,223704.588,223887.914,,51,really
screen,html.Screen,1_1_0_1_52,2021-04-21T18:23:48.465Z,,,,,,,,,,,,,,,,53,,,,,,,,,,,,,,162.78100009995978,,response,,,,99,,,,,,,Space,keypress(Space),,,,,,,,---- -- ----- -- ------ - ------- --- ----------<br>------------- ------ ------ ---- ---- ------- ----- -- ----<br>-------- ------- -- ---------- --- - --- ----- ----- ----<br>---- --- --- ----- --- ---- ---- ------- ----- ---- -------<br>--- --- -- ----- -- --- ---- -- --- ---- -- ------ ------<br>not ----- -- ----,224059.63000003248,224050.69500009995,223871.248,223880.81500004046,223887.914,224071.24,,52,not
screen,html.Screen,1_1_0_1_53,2021-04-21T18:23:48.649Z,,,,,,,,,,,,,,,,53,,,,,,,,,,,,,,164.44500007969327,,response,,,,99,,,,,,,Space,keypress(Space),,,,,,,,---- -- ----- -- ------ - ------- --- ----------<br>------------- ------ ------ ---- ---- ------- ----- -- ----<br>-------- ------- -- ---------- --- - --- ----- ----- ----<br>---- --- --- ----- --- ---- ---- ------- ----- ---- -------<br>--- --- -- ----- -- --- ---- -- --- ---- -- ------ ------<br>--- close -- ----,224244.0550000174,224235.68500007968,224054.574,224059.77500008885,224071.24,224254.566,,53,close
screen,html.Screen,1_1_0_1_54,2021-04-21T18:23:48.829Z,,,,,,,,,,,,,,,,53,,,,,,,,,,,,,,160.24900002556387,,response,,,,99,,,,,,,Space,keypress(Space),,,,,,,,---- -- ----- -- ------ - ------- --- ----------<br>------------- ------ ------ ---- ---- ------- ----- -- ----<br>-------- ------- -- ---------- --- - --- ----- ----- ----<br>---- --- --- ----- --- ---- ---- ------- ----- ---- -------<br>--- --- -- ----- -- --- ---- -- --- ---- -- ------ ------<br>--- ----- at ----,224423.45500004012,224414.81500002556,224237.9,224244.1800000379,224254.566,224437.892,,54,at
screen,html.Screen,1_1_0_1_55,2021-04-21T18:23:49.035Z,,,,,,,,,,,,,,,,53,,,,,,,,,,,,,,183.94299999810755,,response,,,,99,,,,,,,Space,keypress(Space),,,,,,,,---- -- ----- -- ------ - ------- --- ----------<br>------------- ------ ------ ---- ---- ------- ----- -- ----<br>-------- ------- -- ---------- --- - --- ----- ----- ----<br>---- --- --- ----- --- ---- ---- ------- ----- ---- -------<br>--- --- -- ----- -- --- ---- -- --- ---- -- ------ ------<br>--- ----- -- all.,224630.2100000903,224621.8349999981,224421.226,224423.60000009649,224437.892,224637.884,,55,all.
Item 99,flow.Loop,1_1_0_1,2021-04-21T18:23:49.036Z,,,,,,,,,,,,,,,,,,,,,,,,,,,,,,15253.55599999809,,completion,,,,,D,,,,,,,,,,,silence,,,,,224630.5000000866,224621.8349999981,209301.615,209303.6350000184,209368.279,224637.884,,,
Question 1,html.Screen,1_1_0_2,2021-04-21T18:23:52.496Z,,,,,,,,,,,,,,,,,,,,,,,,,,,true,FALSE,,3447.2460000213177,,response,,,,99,D,,,,,,FALSE,click #choice-2,,,,silence,,,,,228090.81000008155,228085.1300000213,224621.218,224630.61500003096,224637.884,228104.412,,,
Question 2,html.Screen,1_1_0_3,2021-04-21T18:24:03.221Z,,,,,,,,,,,,,,,,,,,,,,,,,,,false,TRUE,,10704.718000066932,,response,,,,99,D,,,,,,FALSE,click #choice-2,,,,silence,,,,,238814.99500002246,238809.13000006694,228087.746,228090.94500006177,228104.412,238822.735,,,
Item 99,flow.Sequence,1_1_0,2021-04-21T18:24:03.221Z,,,,,,,,,,,,,,,,,,,,,,,,,,,,,,39490.44900006693,,completion,,,,,,,,,,,,,,,,,,,,,238815.1899999939,238809.13000006694,199285.349,199310.3650000412,199318.681,238822.735,,,
Holding screen,html.Screen,1_1_1_0,2021-04-21T18:24:13.222Z,,,,,,,,,,,,,,,,,,,,,,,,,,,,,,10006.803000000014,,timeout,,,,,,,,,,,,,,,,,,,,,248815.58500009123,248812.872,238806.069,238815.32500009052,238822.735,248829.538,,,
screen,html.Screen,1_1_1_1_0,2021-04-21T18:24:13.840Z,,,,,,,,,,,,,,,,54,,,,,,,,,,,,,,592.1970000981237,,response,,,,100,,,,,,,Space,keypress(Space),,,,,,,,At --- ---- --- ------ ----- ------- ---- -- --- ------- --<br>------- ---------- ------ -- ----- -- ----- -- ---- ------<br>--- ----- --- --- ------ -------- ----- --- ------ ----- --<br>----- ----- ---------- --- --- ------ ------ ---- -- ------<br>------- --- ------ ----- --- ---- ------- -- ---- --- --<br>------- ------,249434.45000005886,249421.73500009812,248812.872,248815.83000009414,248829.538,249446.18,,0,At
screen,html.Screen,1_1_1_1_1,2021-04-21T18:24:14.119Z,,,,,,,,,,,,,,,,54,,,,,,,,,,,,,,258.160000054806,,response,,,,100,,,,,,,Space,keypress(Space),,,,,,,,-- the ---- --- ------ ----- ------- ---- -- --- ------- --<br>------- ---------- ------ -- ----- -- ----- -- ---- ------<br>--- ----- --- --- ------ -------- ----- --- ------ ----- --<br>----- ----- ---------- --- --- ------ ------ ---- -- ------<br>------- --- ------ ----- --- ---- ------- -- ---- --- --<br>------- ------,249712.79500005767,249704.3400000548,249429.514,249434.5650000032,249446.18,249729.502,,1,the
screen,html.Screen,1_1_1_1_2,2021-04-21T18:24:14.383Z,,,,,,,,,,,,,,,,54,,,,,,,,,,,,,,236.88300003609038,,response,,,,100,,,,,,,Space,keypress(Space),,,,,,,,-- --- time --- ------ ----- ------- ---- -- --- ------- --<br>------- ---------- ------ -- ----- -- ----- -- ---- ------<br>--- ----- --- --- ------ -------- ----- --- ------ ----- --<br>----- ----- ---------- --- --- ------ ------ ---- -- ------<br>------- --- ------ ----- --- ---- ------- -- ---- --- --<br>------- ------,249976.69999999925,249966.3850000361,249712.836,249712.9249999998,249729.502,249979.492,,2,time
screen,html.Screen,1_1_1_1_3,2021-04-21T18:24:14.594Z,,,,,,,,,,,,,,,,54,,,,,,,,,,,,,,200.72300005852594,,response,,,,100,,,,,,,Space,keypress(Space),,,,,,,,-- --- ---- the ------ ----- ------- ---- -- --- ------- --<br>------- ---------- ------ -- ----- -- ----- -- ---- ------<br>--- ----- --- --- ------ -------- ----- --- ------ ----- --<br>----- ----- ---------- --- --- ------ ------ ---- -- ------<br>------- --- ------ ----- --- ---- ------- -- ---- --- --<br>------- ------,250188.38000006508,250180.21500005852,249962.826,249976.82500001974,249979.492,250196.15,,3,the
screen,html.Screen,1_1_1_1_4,2021-04-21T18:24:14.815Z,,,,,,,,,,,,,,,,54,,,,,,,,,,,,,,204.18000009134994,,response,,,,100,,,,,,,Space,keypress(Space),,,,,,,,-- --- ---- --- French ----- ------- ---- -- --- ------- --<br>------- ---------- ------ -- ----- -- ----- -- ---- ------<br>--- ----- --- --- ------ -------- ----- --- ------ ----- --<br>----- ----- ---------- --- --- ------ ------ ---- -- ------<br>------- --- ------ ----- --- ---- ------- -- ---- --- --<br>------- ------,250409.29500001948,250400.33000009134,250179.484,250188.5150000453,250196.15,250412.808,,4,French
screen,html.Screen,1_1_1_1_5,2021-04-21T18:24:15.060Z,,,,,,,,,,,,,,,,54,,,,,,,,,,,,,,232.61699999516713,,response,,,,100,,,,,,,Space,keypress(Space),,,,,,,,-- --- ---- --- ------ crown ------- ---- -- --- ------- --<br>------- ---------- ------ -- ----- -- ----- -- ---- ------<br>--- ----- --- --- ------ -------- ----- --- ------ ----- --<br>----- ----- ---------- --- --- ------ ------ ---- -- ------<br>------- --- ------ ----- --- ---- ------- -- ---- --- --<br>------- ------,250654.10500008147,250645.42499999516,250396.142,250409.48500006925,250412.808,250662.798,,5,crown
screen,html.Screen,1_1_1_1_6,2021-04-21T18:24:15.285Z,,,,,,,,,,,,,,,,54,,,,,,,,,,,,,,208.47200000326848,,response,,,,100,,,,,,,Space,keypress(Space),,,,,,,,-- --- ---- --- ------ ----- secured ---- -- --- ------- --<br>------- ---------- ------ -- ----- -- ----- -- ---- ------<br>--- ----- --- --- ------ -------- ----- --- ------ ----- --<br>----- ----- ---------- --- --- ------ ------ ---- -- ------<br>------- --- ------ ----- --- ---- ------- -- ---- --- --<br>------- ------,250879.34000010137,250871.27000000328,250646.132,250654.23000010196,250662.798,250896.122,,6,secured
screen,html.Screen,1_1_1_1_7,2021-04-21T18:24:15.541Z,,,,,,,,,,,,,,,,54,,,,,,,,,,,,,,230.07800005699391,,response,,,,100,,,,,,,Space,keypress(Space),,,,,,,,-- --- ---- --- ------ ----- ------- much -- --- ------- --<br>------- ---------- ------ -- ----- -- ----- -- ---- ------<br>--- ----- --- --- ------ -------- ----- --- ------ ----- --<br>----- ----- ---------- --- --- ------ ------ ---- -- ------<br>------- --- ------ ----- --- ---- ------- -- ---- --- --<br>------- ------,251134.61500010453,251126.200000057,250879.456,250879.46500000544,250896.122,251146.112,,7,much
screen,html.Screen,1_1_1_1_8,2021-04-21T18:24:15.770Z,,,,,,,,,,,,,,,,54,,,,,,,,,,,,,,209.16300009630504,,response,,,,100,,,,,,,Space,keypress(Space),,,,,,,,-- --- ---- --- ------ ----- ------- ---- of --- ------- --<br>------- ---------- ------ -- ----- -- ----- -- ---- ------<br>--- ----- --- --- ------ -------- ----- --- ------ ----- --<br>----- ----- ---------- --- --- ------ ------ ---- -- ------<br>------- --- ------ ----- --- ---- ------- -- ---- --- --<br>------- ------,251363.60500007868,251355.2750000963,251129.446,251134.74500004668,251146.112,251369.833,,8,of
screen,html.Screen,1_1_1_1_9,2021-04-21T18:24:15.999Z,,,,,,,,,,,,,,,,54,,,,,,,,,,,,,,214.54700001477613,,response,,,,100,,,,,,,Space,keypress(Space),,,,,,,,-- --- ---- --- ------ ----- ------- ---- -- its ------- --<br>------- ---------- ------ -- ----- -- ----- -- ---- ------<br>--- ----- --- --- ------ -------- ----- --- ------ ----- --<br>----- ----- ---------- --- --- ------ ------ ---- -- ------<br>------- --- ------ ----- --- ---- ------- -- ---- --- --<br>------- ------,251593.35000009742,251584.3800000148,251353.167,251363.73000009917,251369.833,251603.157,,9,its
screen,html.Screen,1_1_1_1_10,2021-04-21T18:24:16.232Z,,,,,,,,,,,,,,,,54,,,,,,,,,,,,,,214.16800006909762,,response,,,,100,,,,,,,Space,keypress(Space),,,,,,,,-- --- ---- --- ------ ----- ------- ---- -- --- revenue --<br>------- ---------- ------ -- ----- -- ----- -- ---- ------<br>--- ----- --- --- ------ -------- ----- --- ------ ----- --<br>----- ----- ---------- --- --- ------ ------ ---- -- ------<br>------- --- ------ ----- --- ---- ------- -- ---- --- --<br>------- ------,251826.12000009976,251817.3250000691,251586.491,251593.48000003956,251603.157,251836.481,,10,revenue
screen,html.Screen,1_1_1_1_11,2021-04-21T18:24:16.630Z,,,,,,,,,,,,,,,,54,,,,,,,,,,,,,,378.82899999959045,,response,,,,100,,,,,,,Space,keypress(Space),,,,,,,,-- --- ---- --- ------ ----- ------- ---- -- --- ------- by<br>------- ---------- ------ -- ----- -- ----- -- ---- ------<br>--- ----- --- --- ------ -------- ----- --- ------ ----- --<br>----- ----- ---------- --- --- ------ ------ ---- -- ------<br>------- --- ------ ----- --- ---- ------- -- ---- --- --<br>------- ------,252223.75500004273,252215.3099999996,251819.815,251826.2500000419,251836.481,252236.465,,11,by
screen,html.Screen,1_1_1_1_12,2021-04-21T18:24:16.920Z,,,,,,,,,,,,,,,,54,,,,,,,,,,,,,,268.8849999921804,,response,,,,100,,,,,,,Space,keypress(Space),,,,,,,,-- --- ---- --- ------ ----- ------- ---- -- --- ------- --<br>issuing ---------- ------ -- ----- -- ----- -- ---- ------<br>--- ----- --- --- ------ -------- ----- --- ------ ----- --<br>----- ----- ---------- --- --- ------ ------ ---- -- ------<br>------- --- ------ ----- --- ---- ------- -- ---- --- --<br>------- ------,252514.0000000829,252505.34999999218,252219.799,252223.8850001013,252236.465,252519.787,,12,issuing
screen,html.Screen,1_1_1_1_13,2021-04-21T18:24:17.190Z,,,,,,,,,,,,,,,,54,,,,,,,,,,,,,,255.3480000034906,,response,,,,100,,,,,,,Space,keypress(Space),,,,,,,,-- --- ---- --- ------ ----- ------- ---- -- --- ------- --<br>------- government ------ -- ----- -- ----- -- ---- ------<br>--- ----- --- --- ------ -------- ----- --- ------ ----- --<br>----- ----- ---------- --- --- ------ ------ ---- -- ------<br>------- --- ------ ----- --- ---- ------- -- ---- --- --<br>------- ------,252783.61000004224,252775.1350000035,252503.121,252514.14000010118,252519.787,252786.443,,13,government
screen,html.Screen,1_1_1_1_14,2021-04-21T18:24:17.454Z,,,,,,,,,,,,,,,,54,,,,,,,,,,,,,,252.88200001974474,,response,,,,100,,,,,,,Space,keypress(Space),,,,,,,,-- --- ---- --- ------ ----- ------- ---- -- --- ------- --<br>------- ---------- bonds. -- ----- -- ----- -- ---- ------<br>--- ----- --- --- ------ -------- ----- --- ------ ----- --<br>----- ----- ---------- --- --- ------ ------ ---- -- ------<br>------- --- ------ ----- --- ---- ------- -- ---- --- --<br>------- ------,253048.05000009947,253039.32500001974,252769.777,252783.79000001587,252786.443,253053.099,,14,bonds.
screen,html.Screen,1_1_1_1_15,2021-04-21T18:24:17.762Z,,,,,,,,,,,,,,,,54,,,,,,,,,,,,,,294.2010000231094,,response,,,,100,,,,,,,Space,keypress(Space),,,,,,,,-- --- ---- --- ------ ----- ------- ---- -- --- ------- --<br>------- ---------- ------ In ----- -- ----- -- ---- ------<br>--- ----- --- --- ------ -------- ----- --- ------ ----- --<br>----- ----- ---------- --- --- ------ ------ ---- -- ------<br>------- --- ------ ----- --- ---- ------- -- ---- --- --<br>------- ------,253356.07000009622,253347.3000000231,253036.433,253048.1800000416,253053.099,253369.753,,15,In
screen,html.Screen,1_1_1_1_16,2021-04-21T18:24:18.031Z,,,,,,,,,,,,,,,,54,,,,,,,,,,,,,,246.4870000030205,,response,,,,100,,,,,,,Space,keypress(Space),,,,,,,,"-- --- ---- --- ------ ----- ------- ---- -- --- ------- --<br>------- ---------- ------ -- 1727, -- ----- -- ---- ------<br>--- ----- --- --- ------ -------- ----- --- ------ ----- --<br>----- ----- ---------- --- --- ------ ------ ---- -- ------<br>------- --- ------ ----- --- ---- ------- -- ---- --- --<br>------- ------",253624.5400001062,253616.24000000302,253353.087,253356.19000007864,253369.753,253636.409,,16,"1727,"
screen,html.Screen,1_1_1_1_17,2021-04-21T18:24:18.298Z,,,,,,,,,,,,,,,,54,,,,,,,,,,,,,,246.806000038021,,response,,,,100,,,,,,,Space,keypress(Space),,,,,,,,-- --- ---- --- ------ ----- ------- ---- -- --- ------- --<br>------- ---------- ------ -- ----- in ----- -- ---- ------<br>--- ----- --- --- ------ -------- ----- --- ------ ----- --<br>----- ----- ---------- --- --- ------ ------ ---- -- ------<br>------- --- ------ ----- --- ---- ------- -- ---- --- --<br>------- ------,253891.46499999333,253883.21500003804,253619.743,253624.66500001028,253636.409,253903.065,,17,in
screen,html.Screen,1_1_1_1_18,2021-04-21T18:24:18.573Z,,,,,,,,,,,,,,,,54,,,,,,,,,,,,,,255.98000009491807,,response,,,,100,,,,,,,Space,keypress(Space),,,,,,,,-- --- ---- --- ------ ----- ------- ---- -- --- ------- --<br>------- ---------- ------ -- ----- -- order -- ---- ------<br>--- ----- --- --- ------ -------- ----- --- ------ ----- --<br>----- ----- ---------- --- --- ------ ------ ---- -- ------<br>------- --- ------ ----- --- ---- ------- -- ---- --- --<br>------- ------,254166.6200000327,254159.04500009492,253886.399,253891.59000001382,253903.065,254169.721,,18,order
screen,html.Screen,1_1_1_1_19,2021-04-21T18:24:18.935Z,,,,,,,,,,,,,,,,54,,,,,,,,,,,,,,350.64400000395835,,response,,,,100,,,,,,,Space,keypress(Space),,,,,,,,-- --- ---- --- ------ ----- ------- ---- -- --- ------- --<br>------- ---------- ------ -- ----- -- ----- to ---- ------<br>--- ----- --- --- ------ -------- ----- --- ------ ----- --<br>----- ----- ---------- --- --- ------ ------ ---- -- ------<br>------- --- ------ ----- --- ---- ------- -- ---- --- --<br>------- ------,254529.32000008877,254520.36500000395,254153.055,254166.81000008248,254169.721,254536.373,,19,to
screen,html.Screen,1_1_1_1_20,2021-04-21T18:24:19.263Z,,,,,,,,,,,,,,,,54,,,,,,,,,,,,,,311.9319999922591,,response,,,,100,,,,,,,Space,keypress(Space),,,,,,,,-- --- ---- --- ------ ----- ------- ---- -- --- ------- --<br>------- ---------- ------ -- ----- -- ----- -- save ------<br>--- ----- --- --- ------ -------- ----- --- ------ ----- --<br>----- ----- ---------- --- --- ------ ------ ---- -- ------<br>------- --- ------ ----- --- ---- ------- -- ---- --- --<br>------- ------,254857.2850000346,254848.30499999225,254519.707,254529.4400000712,254536.373,254869.693,,20,save
screen,html.Screen,1_1_1_1_21,2021-04-21T18:24:19.560Z,,,,,,,,,,,,,,,,54,,,,,,,,,,,,,,274.55200009045075,,response,,,,100,,,,,,,Space,keypress(Space),,,,,,,,"-- --- ---- --- ------ ----- ------- ---- -- --- ------- --<br>------- ---------- ------ -- ----- -- ----- -- ---- money,<br>--- ----- --- --- ------ -------- ----- --- ------ ----- --<br>----- ----- ---------- --- --- ------ ------ ---- -- ------<br>------- --- ------ ----- --- ---- ------- -- ---- --- --<br>------- ------",255153.68000010494,255144.24500009045,254853.027,254857.4100000551,254869.693,255169.681,,21,"money,"
screen,html.Screen,1_1_1_1_22,2021-04-21T18:24:19.952Z,,,,,,,,,,,,,,,,54,,,,,,,,,,,,,,367.69400007263175,,response,,,,100,,,,,,,Space,keypress(Space),,,,,,,,-- --- ---- --- ------ ----- ------- ---- -- --- ------- --<br>------- ---------- ------ -- ----- -- ----- -- ---- ------<br>the ----- --- --- ------ -------- ----- --- ------ ----- --<br>----- ----- ---------- --- --- ------ ------ ---- -- ------<br>------- --- ------ ----- --- ---- ------- -- ---- --- --<br>------- ------,255545.65500002354,255537.37500007264,255153.015,255153.80500000902,255169.681,255552.999,,22,the
screen,html.Screen,1_1_1_1_23,2021-04-21T18:24:20.246Z,,,,,,,,,,,,,,,,54,,,,,,,,,,,,,,278.2260000890237,,response,,,,100,,,,,,,Space,keypress(Space),,,,,,,,-- --- ---- --- ------ ----- ------- ---- -- --- ------- --<br>------- ---------- ------ -- ----- -- ----- -- ---- ------<br>--- state --- --- ------ -------- ----- --- ------ ----- --<br>----- ----- ---------- --- --- ------ ------ ---- -- ------<br>------- --- ------ ----- --- ---- ------- -- ---- --- --<br>------- ------,255839.41000001505,255831.22500008903,255536.333,255545.7850000821,255552.999,255852.987,,23,state
screen,html.Screen,1_1_1_1_24,2021-04-21T18:24:20.506Z,,,,,,,,,,,,,,,,54,,,,,,,,,,,,,,240.23300003886106,,response,,,,100,,,,,,,Space,keypress(Space),,,,,,,,-- --- ---- --- ------ ----- ------- ---- -- --- ------- --<br>------- ---------- ------ -- ----- -- ----- -- ---- ------<br>--- ----- cut --- ------ -------- ----- --- ------ ----- --<br>----- ----- ---------- --- --- ------ ------ ---- -- ------<br>------- --- ------ ----- --- ---- ------- -- ---- --- --<br>------- ------,256100.19500006456,256093.22000003885,255836.321,255839.54499999527,255852.987,256119.643,,24,cut
screen,html.Screen,1_1_1_1_25,2021-04-21T18:24:20.756Z,,,,,,,,,,,,,,,,54,,,,,,,,,,,,,,221.56700010053464,,response,,,,100,,,,,,,Space,keypress(Space),,,,,,,,-- --- ---- --- ------ ----- ------- ---- -- --- ------- --<br>------- ---------- ------ -- ----- -- ----- -- ---- ------<br>--- ----- --- the ------ -------- ----- --- ------ ----- --<br>----- ----- ---------- --- --- ------ ------ ---- -- ------<br>------- --- ------ ----- --- ---- ------- -- ---- --- --<br>------- ------,256350.09000007994,256341.21000010055,256102.977,256100.44500010554,256119.643,256369.633,,25,the
screen,html.Screen,1_1_1_1_26,2021-04-21T18:24:21.041Z,,,,,,,,,,,,,,,,54,,,,,,,,,,,,,,256.54700002112077,,response,,,,100,,,,,,,Space,keypress(Space),,,,,,,,-- --- ---- --- ------ ----- ------- ---- -- --- ------- --<br>------- ---------- ------ -- ----- -- ----- -- ---- ------<br>--- ----- --- --- bonds' -------- ----- --- ------ ----- --<br>----- ----- ---------- --- --- ------ ------ ---- -- ------<br>------- --- ------ ----- --- ---- ------- -- ---- --- --<br>------- ------,256634.7250000108,256626.18000002112,256352.967,256350.2200000221,256369.633,256636.289,,26,bonds'
screen,html.Screen,1_1_1_1_27,2021-04-21T18:24:21.311Z,,,,,,,,,,,,,,,,54,,,,,,,,,,,,,,259.8910000397591,,response,,,,100,,,,,,,Space,keypress(Space),,,,,,,,-- --- ---- --- ------ ----- ------- ---- -- --- ------- --<br>------- ---------- ------ -- ----- -- ----- -- ---- ------<br>--- ----- --- --- ------ interest ----- --- ------ ----- --<br>----- ----- ---------- --- --- ------ ------ ---- -- ------<br>------- --- ------ ----- --- ---- ------- -- ---- --- --<br>------- ------,256905.32500005793,256896.18000003975,256619.623,256635.24000009056,256636.289,256919.611,,27,interest
screen,html.Screen,1_1_1_1_28,2021-04-21T18:24:21.850Z,,,,,,,,,,,,,,,,54,,,,,,,,,,,,,,515.5740000675723,,response,,,,100,,,,,,,Space,keypress(Space),,,,,,,,-- --- ---- --- ------ ----- ------- ---- -- --- ------- --<br>------- ---------- ------ -- ----- -- ----- -- ---- ------<br>--- ----- --- --- ------ -------- rate. --- ------ ----- --<br>----- ----- ---------- --- --- ------ ------ ---- -- ------<br>------- --- ------ ----- --- ---- ------- -- ---- --- --<br>------- ------,257443.6149999965,257435.18500006758,256902.945,256905.45000007842,256919.611,257452.923,,28,rate.
screen,html.Screen,1_1_1_1_29,2021-04-21T18:24:22.109Z,,,,,,,,,,,,,,,,54,,,,,,,,,,,,,,241.2820000652573,,response,,,,100,,,,,,,Space,keypress(Space),,,,,,,,-- --- ---- --- ------ ----- ------- ---- -- --- ------- --<br>------- ---------- ------ -- ----- -- ----- -- ---- ------<br>--- ----- --- --- ------ -------- ----- The ------ ----- --<br>----- ----- ---------- --- --- ------ ------ ---- -- ------<br>------- --- ------ ----- --- ---- ------- -- ---- --- --<br>------- ------,257703.10000004247,257694.20500006527,257436.257,257443.78000008874,257452.923,257719.579,,29,The
screen,html.Screen,1_1_1_1_30,2021-04-21T18:24:22.472Z,,,,,,,,,,,,,,,,54,,,,,,,,,,,,,,337.50600009495975,,response,,,,100,,,,,,,Space,keypress(Space),,,,,,,,-- --- ---- --- ------ ----- ------- ---- -- --- ------- --<br>------- ---------- ------ -- ----- -- ----- -- ---- ------<br>--- ----- --- --- ------ -------- ----- --- market ----- --<br>----- ----- ---------- --- --- ------ ------ ---- -- ------<br>------- --- ------ ----- --- ---- ------- -- ---- --- --<br>------- ------,258065.46000007074,258057.08500009496,257702.913,257703.22500006296,257719.579,258069.565,,30,market
screen,html.Screen,1_1_1_1_31,2021-04-21T18:24:22.738Z,,,,,,,,,,,,,,,,54,,,,,,,,,,,,,,253.54499999753898,,response,,,,100,,,,,,,Space,keypress(Space),,,,,,,,-- --- ---- --- ------ ----- ------- ---- -- --- ------- --<br>------- ---------- ------ -- ----- -- ----- -- ---- ------<br>--- ----- --- --- ------ -------- ----- --- ------ value --<br>----- ----- ---------- --- --- ------ ------ ---- -- ------<br>------- --- ------ ----- --- ---- ------- -- ---- --- --<br>------- ------,258331.6600000253,258323.10999999754,258052.899,258065.58500009123,258069.565,258336.221,,31,value
screen,html.Screen,1_1_1_1_32,2021-04-21T18:24:23.101Z,,,,,,,,,,,,,,,,54,,,,,,,,,,,,,,349.8690000901988,,response,,,,100,,,,,,,Space,keypress(Space),,,,,,,,-- --- ---- --- ------ ----- ------- ---- -- --- ------- --<br>------- ---------- ------ -- ----- -- ----- -- ---- ------<br>--- ----- --- --- ------ -------- ----- --- ------ ----- of<br>----- ----- ---------- --- --- ------ ------ ---- -- ------<br>------- --- ------ ----- --- ---- ------- -- ---- --- --<br>------- ------,258694.64000000153,258686.0900000902,258319.555,258331.79000008386,258336.221,258702.873,,32,of
screen,html.Screen,1_1_1_1_33,2021-04-21T18:24:23.380Z,,,,,,,,,,,,,,,,54,,,,,,,,,,,,,,262.20699999449425,,response,,,,100,,,,,,,Space,keypress(Space),,,,,,,,-- --- ---- --- ------ ----- ------- ---- -- --- ------- --<br>------- ---------- ------ -- ----- -- ----- -- ---- ------<br>--- ----- --- --- ------ -------- ----- --- ------ ----- --<br>these ----- ---------- --- --- ------ ------ ---- -- ------<br>------- --- ------ ----- --- ---- ------- -- ---- --- --<br>------- ------,258974.04500003904,258965.0799999945,258686.207,258694.7700000601,258702.873,258986.195,,33,these
screen,html.Screen,1_1_1_1_34,2021-04-21T18:24:23.656Z,,,,,,,,,,,,,,,,54,,,,,,,,,,,,,,255.77000005199807,,response,,,,100,,,,,,,Space,keypress(Space),,,,,,,,-- --- ---- --- ------ ----- ------- ---- -- --- ------- --<br>------- ---------- ------ -- ----- -- ----- -- ---- ------<br>--- ----- --- --- ------ -------- ----- --- ------ ----- --<br>----- bonds ---------- --- --- ------ ------ ---- -- ------<br>------- --- ------ ----- --- ---- ------- -- ---- --- --<br>------- ------,259249.61000005715,259241.965000052,258969.529,258974.21500005294,258986.195,259252.851,,34,bonds
screen,html.Screen,1_1_1_1_35,2021-04-21T18:24:23.991Z,,,,,,,,,,,,,,,,54,,,,,,,,,,,,,,320.31900010516983,,response,,,,100,,,,,,,Space,keypress(Space),,,,,,,,"-- --- ---- --- ------ ----- ------- ---- -- --- ------- --<br>------- ---------- ------ -- ----- -- ----- -- ---- ------<br>--- ----- --- --- ------ -------- ----- --- ------ ----- --<br>----- ----- plummeted, --- --- ------ ------ ---- -- ------<br>------- --- ------ ----- --- ---- ------- -- ---- --- --<br>------- ------",259585.23000008427,259573.17000010516,259236.185,259249.73500007764,259252.851,259586.171,,35,"plummeted,"
screen,html.Screen,1_1_1_1_36,2021-04-21T18:24:24.312Z,,,,,,,,,,,,,,,,54,,,,,,,,,,,,,,310.91900010043173,,response,,,,100,,,,,,,Space,keypress(Space),,,,,,,,-- --- ---- --- ------ ----- ------- ---- -- --- ------- --<br>------- ---------- ------ -- ----- -- ----- -- ---- ------<br>--- ----- --- --- ------ -------- ----- --- ------ ----- --<br>----- ----- ---------- and --- ------ ------ ---- -- ------<br>------- --- ------ ----- --- ---- ------- -- ---- --- --<br>------- ------,259905.49000003375,259897.09000010043,259569.505,259585.3600000264,259586.171,259919.491,,36,and
screen,html.Screen,1_1_1_1_37,2021-04-21T18:24:24.656Z,,,,,,,,,,,,,,,,54,,,,,,,,,,,,,,325.4140000868647,,response,,,,100,,,,,,,Space,keypress(Space),,,,,,,,-- --- ---- --- ------ ----- ------- ---- -- --- ------- --<br>------- ---------- ------ -- ----- -- ----- -- ---- ------<br>--- ----- --- --- ------ -------- ----- --- ------ ----- --<br>----- ----- ---------- --- the ------ ------ ---- -- ------<br>------- --- ------ ----- --- ---- ------- -- ---- --- --<br>------- ------,260249.91500005126,260244.90500008687,259902.825,259905.61500005424,259919.491,260252.811,,37,the
screen,html.Screen,1_1_1_1_38,2021-04-21T18:24:25.017Z,,,,,,,,,,,,,,,,54,,,,,,,,,,,,,,349.12900008051656,,response,,,,100,,,,,,,Space,keypress(Space),,,,,,,,-- --- ---- --- ------ ----- ------- ---- -- --- ------- --<br>------- ---------- ------ -- ----- -- ----- -- ---- ------<br>--- ----- --- --- ------ -------- ----- --- ------ ----- --<br>----- ----- ---------- --- --- market ------ ---- -- ------<br>------- --- ------ ----- --- ---- ------- -- ---- --- --<br>------- ------,260610.36500008777,260601.9400000805,260236.145,260249.99000004027,260252.811,260619.463,,38,market
screen,html.Screen,1_1_1_1_39,2021-04-21T18:24:25.396Z,,,,,,,,,,,,,,,,54,,,,,,,,,,,,,,361.74200007645413,,response,,,,100,,,,,,,Space,keypress(Space),,,,,,,,-- --- ---- --- ------ ----- ------- ---- -- --- ------- --<br>------- ---------- ------ -- ----- -- ----- -- ---- ------<br>--- ----- --- --- ------ -------- ----- --- ------ ----- --<br>----- ----- ---------- --- --- ------ became ---- -- ------<br>------- --- ------ ----- --- ---- ------- -- ---- --- --<br>------- ------,260989.6000000881,260981.20500007644,260602.797,260610.48999999184,260619.463,261002.781,,39,became
screen,html.Screen,1_1_1_1_40,2021-04-21T18:24:25.706Z,,,,,,,,,,,,,,,,54,,,,,,,,,,,,,,288.31399999323185,,response,,,,100,,,,,,,Space,keypress(Space),,,,,,,,-- --- ---- --- ------ ----- ------- ---- -- --- ------- --<br>------- ---------- ------ -- ----- -- ----- -- ---- ------<br>--- ----- --- --- ------ -------- ----- --- ------ ----- --<br>----- ----- ---------- --- --- ------ ------ wary -- ------<br>------- --- ------ ----- --- ---- ------- -- ---- --- --<br>------- ------,261299.68000005465,261291.09499999322,260986.115,260989.72499999218,261002.781,261319.435,,40,wary
screen,html.Screen,1_1_1_1_41,2021-04-21T18:24:26.069Z,,,,,,,,,,,,,,,,54,,,,,,,,,,,,,,334.6250000880682,,response,,,,100,,,,,,,Space,keypress(Space),,,,,,,,-- --- ---- --- ------ ----- ------- ---- -- --- ------- --<br>------- ---------- ------ -- ----- -- ----- -- ---- ------<br>--- ----- --- --- ------ -------- ----- --- ------ ----- --<br>----- ----- ---------- --- --- ------ ------ ---- of ------<br>------- --- ------ ----- --- ---- ------- -- ---- --- --<br>------- ------,261662.59000007994,261654.06000008807,261302.769,261299.8249999946,261319.435,261669.549,,41,of
screen,html.Screen,1_1_1_1_42,2021-04-21T18:24:26.389Z,,,,,,,,,,,,,,,,54,,,,,,,,,,,,,,304.36600009689573,,response,,,,100,,,,,,,Space,keypress(Space),,,,,,,,-- --- ---- --- ------ ----- ------- ---- -- --- ------- --<br>------- ---------- ------ -- ----- -- ----- -- ---- ------<br>--- ----- --- --- ------ -------- ----- --- ------ ----- --<br>----- ----- ---------- --- --- ------ ------ ---- -- French<br>------- --- ------ ----- --- ---- ------- -- ---- --- --<br>------- ------,261982.4100000551,261973.9150000969,261652.883,261662.71500010043,261669.549,261986.203,,42,French
screen,html.Screen,1_1_1_1_43,2021-04-21T18:24:26.753Z,,,,,,,,,,,,,,,,54,,,,,,,,,,,,,,349.82200008418295,,response,,,,100,,,,,,,Space,keypress(Space),,,,,,,,-- --- ---- --- ------ ----- ------- ---- -- --- ------- --<br>------- ---------- ------ -- ----- -- ----- -- ---- ------<br>--- ----- --- --- ------ -------- ----- --- ------ ----- --<br>----- ----- ---------- --- --- ------ ------ ---- -- ------<br>credit. --- ------ ----- --- ---- ------- -- ---- --- --<br>------- ------,262347.1350000473,262336.0250000842,261969.537,261982.5650000712,261986.203,262352.855,,43,credit.
screen,html.Screen,1_1_1_1_44,2021-04-21T18:24:27.230Z,,,,,,,,,,,,,,,,54,,,,,,,,,,,,,,462.1400000224821,,response,,,,100,,,,,,,Space,keypress(Space),,,,,,,,-- --- ---- --- ------ ----- ------- ---- -- --- ------- --<br>------- ---------- ------ -- ----- -- ----- -- ---- ------<br>--- ----- --- --- ------ -------- ----- --- ------ ----- --<br>----- ----- ---------- --- --- ------ ------ ---- -- ------<br>------- The ------ ----- --- ---- ------- -- ---- --- --<br>------- ------,262823.88999999966,262814.99500002246,262336.189,262347.28000010364,262352.855,262836.169,,44,The
screen,html.Screen,1_1_1_1_45,2021-04-21T18:24:27.521Z,,,,,,,,,,,,,,,,54,,,,,,,,,,,,,,269.8760000222828,,response,,,,100,,,,,,,Space,keypress(Space),,,,,,,,-- --- ---- --- ------ ----- ------- ---- -- --- ------- --<br>------- ---------- ------ -- ----- -- ----- -- ---- ------<br>--- ----- --- --- ------ -------- ----- --- ------ ----- --<br>----- ----- ---------- --- --- ------ ------ ---- -- ------<br>------- --- French ----- --- ---- ------- -- ---- --- --<br>------- ------,263115.0150001049,263106.0450000223,262819.503,262824.10500000697,262836.169,263119.491,,45,French
screen,html.Screen,1_1_1_1_46,2021-04-21T18:24:27.863Z,,,,,,,,,,,,,,,,54,,,,,,,,,,,,,,328.31900004151976,,response,,,,100,,,,,,,Space,keypress(Space),,,,,,,,-- --- ---- --- ------ ----- ------- ---- -- --- ------- --<br>------- ---------- ------ -- ----- -- ----- -- ---- ------<br>--- ----- --- --- ------ -------- ----- --- ------ ----- --<br>----- ----- ---------- --- --- ------ ------ ---- -- ------<br>------- --- ------ state --- ---- ------- -- ---- --- --<br>------- ------,263456.594999996,263447.8100000415,263102.825,263115.17500004265,263119.491,263469.477,,46,state
screen,html.Screen,1_1_1_1_47,2021-04-21T18:24:28.222Z,,,,,,,,,,,,,,,,54,,,,,,,,,,,,,,337.51799999171635,,response,,,,100,,,,,,,Space,keypress(Space),,,,,,,,-- --- ---- --- ------ ----- ------- ---- -- --- ------- --<br>------- ---------- ------ -- ----- -- ----- -- ---- ------<br>--- ----- --- --- ------ -------- ----- --- ------ ----- --<br>----- ----- ---------- --- --- ------ ------ ---- -- ------<br>------- --- ------ ----- was ---- ------- -- ---- --- --<br>------- ------,263815.99500006996,263806.99499999173,263452.811,263456.7250000546,263469.477,263819.463,,47,was
screen,html.Screen,1_1_1_1_48,2021-04-21T18:24:28.544Z,,,,,,,,,,,,,,,,54,,,,,,,,,,,,,,309.6320000984706,,response,,,,100,,,,,,,Space,keypress(Space),,,,,,,,-- --- ---- --- ------ ----- ------- ---- -- --- ------- --<br>------- ---------- ------ -- ----- -- ----- -- ---- ------<br>--- ----- --- --- ------ -------- ----- --- ------ ----- --<br>----- ----- ---------- --- --- ------ ------ ---- -- ------<br>------- --- ------ ----- --- left ------- -- ---- --- --<br>------- ------,264137.4899999937,264129.09500009846,263802.797,263816.12000009045,263819.463,264152.783,,48,left
screen,html.Screen,1_1_1_1_49,2021-04-21T18:24:28.879Z,,,,,,,,,,,,,,,,54,,,,,,,,,,,,,,311.2020000385237,,response,,,,100,,,,,,,Space,keypress(Space),,,,,,,,-- --- ---- --- ------ ----- ------- ---- -- --- ------- --<br>------- ---------- ------ -- ----- -- ----- -- ---- ------<br>--- ----- --- --- ------ -------- ----- --- ------ ----- --<br>----- ----- ---------- --- --- ------ ------ ---- -- ------<br>------- --- ------ ----- --- ---- without -- ---- --- --<br>------- ------,264472.7350000758,264463.9850000385,264136.117,264137.6150000142,264152.783,264486.103,,49,without
screen,html.Screen,1_1_1_1_50,2021-04-21T18:24:29.183Z,,,,,,,,,,,,,,,,54,,,,,,,,,,,,,,281.91200003784616,,response,,,,100,,,,,,,Space,keypress(Space),,,,,,,,-- --- ---- --- ------ ----- ------- ---- -- --- ------- --<br>------- ---------- ------ -- ----- -- ----- -- ---- ------<br>--- ----- --- --- ------ -------- ----- --- ------ ----- --<br>----- ----- ---------- --- --- ------ ------ ---- -- ------<br>------- --- ------ ----- --- ---- ------- an ---- --- --<br>------- ------,264777.0700000692,264768.01500003785,264469.437,264472.86000009626,264486.103,264786.091,,50,an
screen,html.Screen,1_1_1_1_51,2021-04-21T18:24:29.466Z,,,,,,,,,,,,,,,,54,,,,,,,,,,,,,,264.7440000018105,,response,,,,100,,,,,,,Space,keypress(Space),,,,,,,,-- --- ---- --- ------ ----- ------- ---- -- --- ------- --<br>------- ---------- ------ -- ----- -- ----- -- ---- ------<br>--- ----- --- --- ------ -------- ----- --- ------ ----- --<br>----- ----- ---------- --- --- ------ ------ ---- -- ------<br>------- --- ------ ----- --- ---- ------- -- easy --- --<br>------- ------,265059.6000000369,265050.8350000018,264769.425,264777.23500004504,264786.091,265069.413,,51,easy
screen,html.Screen,1_1_1_1_52,2021-04-21T18:24:29.773Z,,,,,,,,,,,,,,,,54,,,,,,,,,,,,,,288.4920000989805,,response,,,,100,,,,,,,Space,keypress(Space),,,,,,,,-- --- ---- --- ------ ----- ------- ---- -- --- ------- --<br>------- ---------- ------ -- ----- -- ----- -- ---- ------<br>--- ----- --- --- ------ -------- ----- --- ------ ----- --<br>----- ----- ---------- --- --- ------ ------ ---- -- ------<br>------- --- ------ ----- --- ---- ------- -- ---- way --<br>------- ------,265366.10000010114,265357.905000099,265052.747,265059.7650000127,265069.413,265369.401,,52,way
screen,html.Screen,1_1_1_1_53,2021-04-21T18:24:30.057Z,,,,,,,,,,,,,,,,54,,,,,,,,,,,,,,273.44400002394104,,response,,,,100,,,,,,,Space,keypress(Space),,,,,,,,-- --- ---- --- ------ ----- ------- ---- -- --- ------- --<br>------- ---------- ------ -- ----- -- ----- -- ---- ------<br>--- ----- --- --- ------ -------- ----- --- ------ ----- --<br>----- ----- ---------- --- --- ------ ------ ---- -- ------<br>------- --- ------ ----- --- ---- ------- -- ---- --- of<br>------- ------,265650.4750000313,265642.84500002395,265352.735,265366.2250000052,265369.401,265669.389,,53,of
screen,html.Screen,1_1_1_1_54,2021-04-21T18:24:30.399Z,,,,,,,,,,,,,,,,54,,,,,,,,,,,,,,313.5260000586859,,response,,,,100,,,,,,,Space,keypress(Space),,,,,,,,-- --- ---- --- ------ ----- ------- ---- -- --- ------- --<br>------- ---------- ------ -- ----- -- ----- -- ---- ------<br>--- ----- --- --- ------ -------- ----- --- ------ ----- --<br>----- ----- ---------- --- --- ------ ------ ---- -- ------<br>------- --- ------ ----- --- ---- ------- -- ---- --- --<br>raising ------,265992.3200000776,265982.9150000587,265652.723,265650.59000009205,265669.389,266002.709,,54,raising
screen,html.Screen,1_1_1_1_55,2021-04-21T18:24:30.806Z,,,,,,,,,,,,,,,,54,,,,,,,,,,,,,,388.99600007460685,,response,,,,100,,,,,,,Space,keypress(Space),,,,,,,,-- --- ---- --- ------ ----- ------- ---- -- --- ------- --<br>------- ---------- ------ -- ----- -- ----- -- ---- ------<br>--- ----- --- --- ------ -------- ----- --- ------ ----- --<br>----- ----- ---------- --- --- ------ ------ ---- -- ------<br>------- --- ------ ----- --- ---- ------- -- ---- --- --<br>------- money.,266399.8750000028,266391.7050000746,265986.043,265992.44000006,266002.709,266402.693,,55,money.
Item 100,flow.Loop,1_1_1_1,2021-04-21T18:24:30.807Z,,,,,,,,,,,,,,,,,,,,,,,,,,,,,,17562.16700007458,,completion,,,,,D,,,,,,,,,,,silence,,,,,266400.4750000313,266391.7050000746,248812.872,248815.7750000246,248829.538,266402.693,,,
Question 1,html.Screen,1_1_1_2,2021-04-21T18:24:33.597Z,,,,,,,,,,,,,,,,,,,,,,,,,,,true,TRUE,,2782.2320000668406,,response,,,,100,D,,,,,,TRUE,click #choice-1,,,,silence,,,,,269190.44500007294,269184.92500006687,266386.027,266400.59000009205,266402.693,269202.581,,,
Question 2,html.Screen,1_1_1_3,2021-04-21T18:24:35.545Z,,,,,,,,,,,,,,,,,,,,,,,,,,,true,FALSE,,1929.7640000490937,,response,,,,100,D,,,,,,FALSE,click #choice-2,,,,silence,,,,,271138.3100000676,271132.3450000491,269185.915,269190.58000005316,269202.581,271152.503,,,
Item 100,flow.Sequence,1_1_1,2021-04-21T18:24:35.545Z,,,,,,,,,,,,,,,,,,,,,,,,,,,,,,32309.610000049113,,completion,,,,,,,,,,,,,,,,,,,,,271138.5200000368,271132.3450000491,238806.069,238815.28500001878,238822.735,271152.503,,,
End of Practice,html.Page,1_1_2,2021-04-21T18:24:39.186Z,,,,,,,,,,,,,,,,,,,,,,,,,,,,,,3625.702000096906,,form submission,,,,,,,,,,,,,,,,,,,,,274779.2200000258,274778.20500009693,271135.837,271138.6250000214,271152.503,274790.263,,,
Practice,flow.Sequence,1_1,2021-04-21T18:24:39.186Z,,,,,,,,,,,,,,,,,,,,,,,,,,,,,,75459.52400009692,,completion,,,,,,,,,,,,,,,,,,,,,274779.6100000851,274778.20500009693,199285.349,199310.32500008587,199318.681,274790.263,,,
Trap_instruction,html.Page,1_2_0,2021-04-21T18:24:44.117Z,,,,,,,,,,,,,,,,,,,,,,,,,,,,,,4919.7569999986445,,form submission,,,,,,,,,,,,,,,,,,,,,279710.3650000645,279710.0199999986,274773.597,274779.7600000631,274790.263,279723.399,,,
trap_trial,html.Screen,1_2_1,2021-04-21T18:24:46.816Z,,,,,,,,,,,,,,,,,,,,,,,,,,,true,1,,2678.641000073636,,response,,,,,,,,,,,1,click #choice-1,,,,,,,,,282409.4449999975,282402.0400000736,279706.733,279710.4850000469,279723.399,282423.291,,,
end of trap trial,html.Page,1_2_2,2021-04-21T18:24:48.884Z,,,,,,,,,,,,,,,,,,,,,,,,,,,,,,2053.4940000643837,,form submission,,,,,,,,,,,,,,,,,,,,,284477.19000000507,284476.7850000644,282406.625,282409.59500009194,282423.291,284488.572,,,
Trap 1,flow.Sequence,1_2,2021-04-21T18:24:48.884Z,,,,,,,,,,,,,,,,,,,,,,,,,,,,,,9686.522000064433,,completion,,,,,,,,,,,,,,,,,,,,,284477.39000001457,284476.7850000644,274773.597,274779.7150000697,274790.263,284488.572,,,
Standby,html.Page,1_3_0,2021-04-21T18:24:56.882Z,,,,,,,,,,,,,,,,,,,,,,,,,,,,,,7999.679999999993,,timeout,,,,,,,,,,,,,,,,,,,,,292474.3599999929,292471.586,284471.906,284477.5249999948,284488.572,292488.252,,,
Holding screen,html.Screen,1_3_1_0_0,2021-04-21T18:25:03.878Z,,,,,,,,,,,,,,,,,,,,,,,,,,,,,,6997.183000000019,,timeout,,,,,,,,,,,,,,,,,,,,,299471.0400000913,299468.769,292471.586,292474.9400001019,292488.252,299485.435,,,
screen,html.Screen,1_3_1_0_1_0,2021-04-21T18:25:04.516Z,,,,,,,,,,,,,,,,15,,,,,,,,,,,,,,608.875000073167,,response,,,,7,D,,,,,,Space,keypress(Space),,,,silence,,,,Greg --------- ---------- - --- ------- -- --- ------------<br>----- -- -------- ------- ---- ------ - -------- ---- -----<br>--- ------- ---- -- --- -------- --- - ----- ------ ---- --<br>-------- --- -------- -------- --- -------- ---- -- ----- -<br>-------- ---- --- ---------- --------- -- ------- ------ -<br>--------- ----- -----,300108.1750000594,300094.31000007316,299468.769,299471.3300000876,299485.435,300118.743,,0,Greg
screen,html.Screen,1_3_1_0_1_1,2021-04-21T18:25:04.849Z,,,,,,,,,,,,,,,,15,,,,,,,,,,,,,,314.2970000326168,,response,,,,7,D,,,,,,Space,keypress(Space),,,,silence,,,,"---- Anderson, ---------- - --- ------- -- --- ------------<br>----- -- -------- ------- ---- ------ - -------- ---- -----<br>--- ------- ---- -- --- -------- --- - ----- ------ ---- --<br>-------- --- -------- -------- --- -------- ---- -- ----- -<br>-------- ---- --- ---------- --------- -- ------- ------ -<br>--------- ----- -----",300441.370000015,300433.04000003263,300102.077,300108.3150000777,300118.743,300452.063,,1,"Anderson,"
screen,html.Screen,1_3_1_0_1_2,2021-04-21T18:25:05.212Z,,,,,,,,,,,,,,,,15,,,,,,,,,,,,,,343.8620001003728,,response,,,,7,D,,,,,,Space,keypress(Space),,,,silence,,,,---- --------- considered - --- ------- -- --- ------------<br>----- -- -------- ------- ---- ------ - -------- ---- -----<br>--- ------- ---- -- --- -------- --- - ----- ------ ---- --<br>-------- --- -------- -------- --- -------- ---- -- ----- -<br>-------- ---- --- ---------- --------- -- ------- ------ -<br>--------- ----- -----,300804.4500000542,300795.9250001004,300435.397,300441.5000000736,300452.063,300818.715,,2,considered
screen,html.Screen,1_3_1_0_1_3,2021-04-21T18:25:05.627Z,,,,,,,,,,,,,,,,15,,,,,,,,,,,,,,392.07500004098983,,response,,,,7,D,,,,,,Space,keypress(Space),,,,silence,,,,---- --------- ---------- a --- ------- -- --- ------------<br>----- -- -------- ------- ---- ------ - -------- ---- -----<br>--- ------- ---- -- --- -------- --- - ----- ------ ---- --<br>-------- --- -------- -------- --- -------- ---- -- ----- -<br>-------- ---- --- ---------- --------- -- ------- ------ -<br>--------- ----- -----,301219.4900000468,301210.790000041,300802.049,300804.5700000366,300818.715,301235.365,,3,a
screen,html.Screen,1_3_1_0_1_4,2021-04-21T18:25:05.864Z,,,,,,,,,,,,,,,,15,,,,,,,,,,,,,,213.59000002895482,,response,,,,7,D,,,,,,Space,keypress(Space),,,,silence,,,,---- --------- ---------- - key ------- -- --- ------------<br>----- -- -------- ------- ---- ------ - -------- ---- -----<br>--- ------- ---- -- --- -------- --- - ----- ------ ---- --<br>-------- --- -------- -------- --- -------- ---- -- ----- -<br>-------- ---- --- ---------- --------- -- ------- ------ -<br>--------- ----- -----,301456.9800000172,301448.95500002895,301218.699,301219.65000010096,301235.365,301468.689,,4,key
screen,html.Screen,1_3_1_0_1_5,2021-04-21T18:25:06.140Z,,,,,,,,,,,,,,,,15,,,,,,,,,,,,,,255.13599999365397,,response,,,,7,D,,,,,,Space,keypress(Space),,,,silence,,,,---- --------- ---------- - --- witness -- --- ------------<br>----- -- -------- ------- ---- ------ - -------- ---- -----<br>--- ------- ---- -- --- -------- --- - ----- ------ ---- --<br>-------- --- -------- -------- --- -------- ---- -- ----- -<br>-------- ---- --- ---------- --------- -- ------- ------ -<br>--------- ----- -----,301732.6450000983,301723.82499999367,301452.023,301457.1050000377,301468.689,301735.345,,5,witness
screen,html.Screen,1_3_1_0_1_6,2021-04-21T18:25:06.381Z,,,,,,,,,,,,,,,,15,,,,,,,,,,,,,,229.48999999160878,,response,,,,7,D,,,,,,Space,keypress(Space),,,,silence,,,,---- --------- ---------- - --- ------- by --- ------------<br>----- -- -------- ------- ---- ------ - -------- ---- -----<br>--- ------- ---- -- --- -------- --- - ----- ------ ---- --<br>-------- --- -------- -------- --- -------- ---- -- ----- -<br>-------- ---- --- ---------- --------- -- ------- ------ -<br>--------- ----- -----,301973.5150000779,301964.8349999916,301718.679,301732.7650000807,301735.345,301985.335,,6,by
screen,html.Screen,1_3_1_0_1_7,2021-04-21T18:25:06.657Z,,,,,,,,,,,,,,,,15,,,,,,,,,,,,,,255.56000005354872,,response,,,,7,D,,,,,,Space,keypress(Space),,,,silence,,,,---- --------- ---------- - --- ------- -- the ------------<br>----- -- -------- ------- ---- ------ - -------- ---- -----<br>--- ------- ---- -- --- -------- --- - ----- ------ ---- --<br>-------- --- -------- -------- --- -------- ---- -- ----- -<br>-------- ---- --- ---------- --------- -- ------- ------ -<br>--------- ----- -----,302249.21000003815,302240.89500005357,301968.669,301973.6400000984,301985.335,302251.991,,7,the
screen,html.Screen,1_3_1_0_1_8,2021-04-21T18:25:06.949Z,,,,,,,,,,,,,,,,15,,,,,,,,,,,,,,280.85900007601595,,response,,,,7,D,,,,,,Space,keypress(Space),,,,silence,,,,"---- --------- ---------- - --- ------- -- --- prosecution,<br>----- -- -------- ------- ---- ------ - -------- ---- -----<br>--- ------- ---- -- --- -------- --- - ----- ------ ---- --<br>-------- --- -------- -------- --- -------- ---- -- ----- -<br>-------- ---- --- ---------- --------- -- ------- ------ -<br>--------- ----- -----",302541.32000007667,302532.850000076,302235.325,302249.3400000967,302251.991,302551.979,,8,"prosecution,"
screen,html.Screen,1_3_1_0_1_9,2021-04-21T18:25:07.242Z,,,,,,,,,,,,,,,,15,,,,,,,,,,,,,,273.8410000273143,,response,,,,7,D,,,,,,Space,keypress(Space),,,,silence,,,,---- --------- ---------- - --- ------- -- --- ------------<br>vowed -- -------- ------- ---- ------ - -------- ---- -----<br>--- ------- ---- -- --- -------- --- - ----- ------ ---- --<br>-------- --- -------- -------- --- -------- ---- -- ----- -<br>-------- ---- --- ---------- --------- -- ------- ------ -<br>--------- ----- -----,302834.5800000243,302825.8200000273,302535.313,302541.44500009716,302551.979,302851.967,,9,vowed
screen,html.Screen,1_3_1_0_1_10,2021-04-21T18:25:07.567Z,,,,,,,,,,,,,,,,15,,,,,,,,,,,,,,297.90300008113263,,response,,,,7,D,,,,,,Space,keypress(Space),,,,silence,,,,---- --------- ---------- - --- ------- -- --- ------------<br>----- he -------- ------- ---- ------ - -------- ---- -----<br>--- ------- ---- -- --- -------- --- - ----- ------ ---- --<br>-------- --- -------- -------- --- -------- ---- -- ----- -<br>-------- ---- --- ---------- --------- -- ------- ------ -<br>--------- ----- -----,303159.0050000232,303149.87000008114,302835.301,302834.71000008285,302851.967,303171.235,,10,he
screen,html.Screen,1_3_1_0_1_11,2021-04-21T18:25:07.780Z,,,,,,,,,,,,,,,,15,,,,,,,,,,,,,,192.54500001424458,,response,,,,7,D,,,,,,Space,keypress(Space),,,,silence,,,,---- --------- ---------- - --- ------- -- --- ------------<br>----- -- wouldn't ------- ---- ------ - -------- ---- -----<br>--- ------- ---- -- --- -------- --- - ----- ------ ---- --<br>-------- --- -------- -------- --- -------- ---- -- ----- -<br>-------- ---- --- ---------- --------- -- ------- ------ -<br>--------- ----- -----,303372.2050000215,303363.78000001423,303154.569,303159.13000004366,303171.235,303387.893,,11,wouldn't
screen,html.Screen,1_3_1_0_1_12,2021-04-21T18:25:08.042Z,,,,,,,,,,,,,,,,15,,,,,,,,,,,,,,237.90700003801612,,response,,,,7,D,,,,,,Space,keypress(Space),,,,silence,,,,---- --------- ---------- - --- ------- -- --- ------------<br>----- -- -------- testify ---- ------ - -------- ---- -----<br>--- ------- ---- -- --- -------- --- - ----- ------ ---- --<br>-------- --- -------- -------- --- -------- ---- -- ----- -<br>-------- ---- --- ---------- --------- -- ------- ------ -<br>--------- ----- -----,303634.65500005987,303625.800000038,303371.227,303372.330000042,303387.893,303637.883,,12,testify
screen,html.Screen,1_3_1_0_1_13,2021-04-21T18:25:08.308Z,,,,,,,,,,,,,,,,15,,,,,,,,,,,,,,253.8569999918691,,response,,,,7,D,,,,,,Space,keypress(Space),,,,silence,,,,---- --------- ---------- - --- ------- -- --- ------------<br>----- -- -------- ------- when ------ - -------- ---- -----<br>--- ------- ---- -- --- -------- --- - ----- ------ ---- --<br>-------- --- -------- -------- --- -------- ---- -- ----- -<br>-------- ---- --- ---------- --------- -- ------- ------ -<br>--------- ----- -----,303900.88000008836,303891.73999999184,303621.217,303634.785000002,303637.883,303904.539,,13,when
screen,html.Screen,1_3_1_0_1_14,2021-04-21T18:25:08.577Z,,,,,,,,,,,,,,,,15,,,,,,,,,,,,,,256.44100004422944,,response,,,,7,D,,,,,,Space,keypress(Space),,,,silence,,,,---- --------- ---------- - --- ------- -- --- ------------<br>----- -- -------- ------- ---- served - -------- ---- -----<br>--- ------- ---- -- --- -------- --- - ----- ------ ---- --<br>-------- --- -------- -------- --- -------- ---- -- ----- -<br>-------- ---- --- ---------- --------- -- ------- ------ -<br>--------- ----- -----,304169.36500009615,304160.9800000442,303887.873,303901.0100000305,303904.539,304171.195,,14,served
screen,html.Screen,1_3_1_0_1_15,2021-04-21T18:25:08.837Z,,,,,,,,,,,,,,,,15,,,,,,,,,,,,,,249.58000000595348,,response,,,,7,D,,,,,,Space,keypress(Space),,,,silence,,,,---- --------- ---------- - --- ------- -- --- ------------<br>----- -- -------- ------- ---- ------ a -------- ---- -----<br>--- ------- ---- -- --- -------- --- - ----- ------ ---- --<br>-------- --- -------- -------- --- -------- ---- -- ----- -<br>-------- ---- --- ---------- --------- -- ------- ------ -<br>--------- ----- -----,304429.86999999266,304420.77500000596,304154.529,304169.504999998,304171.195,304437.851,,15,a
screen,html.Screen,1_3_1_0_1_16,2021-04-21T18:25:09.097Z,,,,,,,,,,,,,,,,15,,,,,,,,,,,,,,242.8840000599157,,response,,,,7,D,,,,,,Space,keypress(Space),,,,silence,,,,---- --------- ---------- - --- ------- -- --- ------------<br>----- -- -------- ------- ---- ------ - subpoena ---- -----<br>--- ------- ---- -- --- -------- --- - ----- ------ ---- --<br>-------- --- -------- -------- --- -------- ---- -- ----- -<br>-------- ---- --- ---------- --------- -- ------- ------ -<br>--------- ----- -----,304688.9150000643,304680.73500005994,304421.185,304429.99500001315,304437.851,304704.507,,16,subpoena
screen,html.Screen,1_3_1_0_1_17,2021-04-21T18:25:09.392Z,,,,,,,,,,,,,,,,15,,,,,,,,,,,,,,271.1880000301171,,response,,,,7,D,,,,,,Space,keypress(Space),,,,silence,,,,---- --------- ---------- - --- ------- -- --- ------------<br>----- -- -------- ------- ---- ------ - -------- last -----<br>--- ------- ---- -- --- -------- --- - ----- ------ ---- --<br>-------- --- -------- -------- --- -------- ---- -- ----- -<br>-------- ---- --- ---------- --------- -- ------- ------ -<br>--------- ----- -----,304984.7600000212,304975.6950000301,304687.841,304689.0400000848,304704.507,304987.829,,17,last
screen,html.Screen,1_3_1_0_1_18,2021-04-21T18:25:09.673Z,,,,,,,,,,,,,,,,15,,,,,,,,,,,,,,269.01600008353125,,response,,,,7,D,,,,,,Space,keypress(Space),,,,silence,,,,---- --------- ---------- - --- ------- -- --- ------------<br>----- -- -------- ------- ---- ------ - -------- ---- week.<br>--- ------- ---- -- --- -------- --- - ----- ------ ---- --<br>-------- --- -------- -------- --- -------- ---- -- ----- -<br>-------- ---- --- ---------- --------- -- ------- ------ -<br>--------- ----- -----,305265.4450000264,305256.84500008356,304971.163,304984.89000007976,304987.829,305271.151,,18,week.
screen,html.Screen,1_3_1_0_1_19,2021-04-21T18:25:10.043Z,,,,,,,,,,,,,,,,15,,,,,,,,,,,,,,355.5390000627958,,response,,,,7,D,,,,,,Space,keypress(Space),,,,silence,,,,---- --------- ---------- - --- ------- -- --- ------------<br>----- -- -------- ------- ---- ------ - -------- ---- -----<br>His ------- ---- -- --- -------- --- - ----- ------ ---- --<br>-------- --- -------- -------- --- -------- ---- -- ----- -<br>-------- ---- --- ---------- --------- -- ------- ------ -<br>--------- ----- -----,305635.16500010155,305626.6900000628,305254.485,305265.57500008494,305271.151,305637.803,,19,His
screen,html.Screen,1_3_1_0_1_20,2021-04-21T18:25:10.311Z,,,,,,,,,,,,,,,,15,,,,,,,,,,,,,,256.9770000896533,,response,,,,7,D,,,,,,Space,keypress(Space),,,,silence,,,,---- --------- ---------- - --- ------- -- --- ------------<br>----- -- -------- ------- ---- ------ - -------- ---- -----<br>--- lawyers ---- -- --- -------- --- - ----- ------ ---- --<br>-------- --- -------- -------- --- -------- ---- -- ----- -<br>-------- ---- --- ---------- --------- -- ------- ------ -<br>--------- ----- -----,305903.0550000025,305894.78000008967,305621.137,305635.2900000056,305637.803,305921.125,,20,lawyers
screen,html.Screen,1_3_1_0_1_21,2021-04-21T18:25:10.545Z,,,,,,,,,,,,,,,,15,,,,,,,,,,,,,,207.60499999672174,,response,,,,7,D,,,,,,Space,keypress(Space),,,,silence,,,,---- --------- ---------- - --- ------- -- --- ------------<br>----- -- -------- ------- ---- ------ - -------- ---- -----<br>--- ------- said -- --- -------- --- - ----- ------ ---- --<br>-------- --- -------- -------- --- -------- ---- -- ----- -<br>-------- ---- --- ---------- --------- -- ------- ------ -<br>--------- ----- -----,306137.705000001,306128.7299999967,305904.459,305903.19000009913,305921.125,306154.449,,21,said
screen,html.Screen,1_3_1_0_1_22,2021-04-21T18:25:10.773Z,,,,,,,,,,,,,,,,15,,,,,,,,,,,,,,203.20600005798042,,response,,,,7,D,,,,,,Space,keypress(Space),,,,silence,,,,---- --------- ---------- - --- ------- -- --- ------------<br>----- -- -------- ------- ---- ------ - -------- ---- -----<br>--- ------- ---- he --- -------- --- - ----- ------ ---- --<br>-------- --- -------- -------- --- -------- ---- -- ----- -<br>-------- ---- --- ---------- --------- -- ------- ------ -<br>--------- ----- -----,306365.7499999972,306357.655000058,306137.783,306137.83500005957,306154.449,306371.107,,22,he
screen,html.Screen,1_3_1_0_1_23,2021-04-21T18:25:11.209Z,,,,,,,,,,,,,,,,15,,,,,,,,,,,,,,421.6530000984785,,response,,,,7,D,,,,,,Space,keypress(Space),,,,silence,,,,---- --------- ---------- - --- ------- -- --- ------------<br>----- -- -------- ------- ---- ------ - -------- ---- -----<br>--- ------- ---- -- was -------- --- - ----- ------ ---- --<br>-------- --- -------- -------- --- -------- ---- -- ----- -<br>-------- ---- --- ---------- --------- -- ------- ------ -<br>--------- ----- -----,306801.795000094,306792.7600000985,306354.441,306365.88000005577,306371.107,306804.423,,23,was
screen,html.Screen,1_3_1_0_1_24,2021-04-21T18:25:11.478Z,,,,,,,,,,,,,,,,15,,,,,,,,,,,,,,257.15700009599095,,response,,,,7,D,,,,,,Space,keypress(Space),,,,silence,,,,---- --------- ---------- - --- ------- -- --- ------------<br>----- -- -------- ------- ---- ------ - -------- ---- -----<br>--- ------- ---- -- --- prepared --- - ----- ------ ---- --<br>-------- --- -------- -------- --- -------- ---- -- ----- -<br>-------- ---- --- ---------- --------- -- ------- ------ -<br>--------- ----- -----,307069.9800000293,307061.580000096,306787.757,306801.91999999806,306804.423,307087.745,,24,prepared
screen,html.Screen,1_3_1_0_1_25,2021-04-21T18:25:11.779Z,,,,,,,,,,,,,,,,15,,,,,,,,,,,,,,274.85499999311287,,response,,,,7,D,,,,,,Space,keypress(Space),,,,silence,,,,---- --------- ---------- - --- ------- -- --- ------------<br>----- -- -------- ------- ---- ------ - -------- ---- -----<br>--- ------- ---- -- --- -------- for - ----- ------ ---- --<br>-------- --- -------- -------- --- -------- ---- -- ----- -<br>-------- ---- --- ---------- --------- -- ------- ------ -<br>--------- ----- -----,307371.14000006113,307362.5999999931,307071.079,307070.36000001244,307087.745,307387.733,,25,for
screen,html.Screen,1_3_1_0_1_26,2021-04-21T18:25:12.043Z,,,,,,,,,,,,,,,,15,,,,,,,,,,,,,,238.8869999954477,,response,,,,7,D,,,,,,Space,keypress(Space),,,,silence,,,,---- --------- ---------- - --- ------- -- --- ------------<br>----- -- -------- ------- ---- ------ - -------- ---- -----<br>--- ------- ---- -- --- -------- --- a ----- ------ ---- --<br>-------- --- -------- -------- --- -------- ---- -- ----- -<br>-------- ---- --- ---------- --------- -- ------- ------ -<br>--------- ----- -----,307635.2650000481,307626.61999999546,307371.067,307371.2650000816,307387.733,307637.723,,26,a
screen,html.Screen,1_3_1_0_1_27,2021-04-21T18:25:12.319Z,,,,,,,,,,,,,,,,15,,,,,,,,,,,,,,264.9520000193734,,response,,,,7,D,,,,,,Space,keypress(Space),,,,silence,,,,---- --------- ---------- - --- ------- -- --- ------------<br>----- -- -------- ------- ---- ------ - -------- ---- -----<br>--- ------- ---- -- --- -------- --- - third ------ ---- --<br>-------- --- -------- -------- --- -------- ---- -- ----- -<br>-------- ---- --- ---------- --------- -- ------- ------ -<br>--------- ----- -----,307911.42000001855,307902.6750000194,307621.057,307635.39500010666,307637.723,307921.045,,27,third
screen,html.Screen,1_3_1_0_1_28,2021-04-21T18:25:12.625Z,,,,,,,,,,,,,,,,15,,,,,,,,,,,,,,287.7049999907031,,response,,,,7,D,,,,,,Space,keypress(Space),,,,silence,,,,---- --------- ---------- - --- ------- -- --- ------------<br>----- -- -------- ------- ---- ------ - -------- ---- -----<br>--- ------- ---- -- --- -------- --- - ----- prison ---- --<br>-------- --- -------- -------- --- -------- ---- -- ----- -<br>-------- ---- --- ---------- --------- -- ------- ------ -<br>--------- ----- -----,308217.2750000609,308208.7499999907,307904.379,307911.5500000771,307921.045,308221.033,,28,prison
screen,html.Screen,1_3_1_0_1_29,2021-04-21T18:25:12.881Z,,,,,,,,,,,,,,,,15,,,,,,,,,,,,,,243.64200005383464,,response,,,,7,D,,,,,,Space,keypress(Space),,,,silence,,,,---- --------- ---------- - --- ------- -- --- ------------<br>----- -- -------- ------- ---- ------ - -------- ---- -----<br>--- ------- ---- -- --- -------- --- - ----- ------ stay --<br>-------- --- -------- -------- --- -------- ---- -- ----- -<br>-------- ---- --- ---------- --------- -- ------- ------ -<br>--------- ----- -----,308473.1000000611,308464.67500005383,308204.367,308217.40500000305,308221.033,308487.689,,29,stay
screen,html.Screen,1_3_1_0_1_30,2021-04-21T18:25:13.171Z,,,,,,,,,,,,,,,,15,,,,,,,,,,,,,,267.0360000061337,,response,,,,7,D,,,,,,Space,keypress(Space),,,,silence,,,,---- --------- ---------- - --- ------- -- --- ------------<br>----- -- -------- ------- ---- ------ - -------- ---- -----<br>--- ------- ---- -- --- -------- --- - ----- ------ ---- to<br>-------- --- -------- -------- --- -------- ---- -- ----- -<br>-------- ---- --- ---------- --------- -- ------- ------ -<br>--------- ----- -----,308763.36000009906,308754.72500000615,308471.023,308473.23000000324,308487.689,308771.011,,30,to
screen,html.Screen,1_3_1_0_1_31,2021-04-21T18:25:13.513Z,,,,,,,,,,,,,,,,15,,,,,,,,,,,,,,325.62400008173427,,response,,,,7,D,,,,,,Space,keypress(Space),,,,silence,,,,---- --------- ---------- - --- ------- -- --- ------------<br>----- -- -------- ------- ---- ------ - -------- ---- -----<br>--- ------- ---- -- --- -------- --- - ----- ------ ---- --<br>maintain --- -------- -------- --- -------- ---- -- ----- -<br>-------- ---- --- ---------- --------- -- ------- ------ -<br>--------- ----- -----,309104.91500003263,309096.63500008173,308754.345,308763.48500000313,308771.011,309120.997,,31,maintain
screen,html.Screen,1_3_1_0_1_32,2021-04-21T18:25:13.804Z,,,,,,,,,,,,,,,,15,,,,,,,,,,,,,,266.748000072781,,response,,,,7,D,,,,,,Space,keypress(Space),,,,silence,,,,---- --------- ---------- - --- ------- -- --- ------------<br>----- -- -------- ------- ---- ------ - -------- ---- -----<br>--- ------- ---- -- --- -------- --- - ----- ------ ---- --<br>-------- his -------- -------- --- -------- ---- -- ----- -<br>-------- ---- --- ---------- --------- -- ------- ------ -<br>--------- ----- -----,309396.1250000866,309387.74500007275,309104.331,309105.0450000912,309120.997,309404.319,,32,his
screen,html.Screen,1_3_1_0_1_33,2021-04-21T18:25:14.087Z,,,,,,,,,,,,,,,,15,,,,,,,,,,,,,,266.3460000996711,,response,,,,7,D,,,,,,Space,keypress(Space),,,,silence,,,,---- --------- ---------- - --- ------- -- --- ------------<br>----- -- -------- ------- ---- ------ - -------- ---- -----<br>--- ------- ---- -- --- -------- --- - ----- ------ ---- --<br>-------- --- silence. -------- --- -------- ---- -- ----- -<br>-------- ---- --- ---------- --------- -- ------- ------ -<br>--------- ----- -----,309679.1000000667,309670.6650000997,309387.653,309396.24500006903,309404.319,309687.641,,33,silence.
screen,html.Screen,1_3_1_0_1_34,2021-04-21T18:25:14.356Z,,,,,,,,,,,,,,,,15,,,,,,,,,,,,,,251.98900003713788,,response,,,,7,D,,,,,,Space,keypress(Space),,,,silence,,,,---- --------- ---------- - --- ------- -- --- ------------<br>----- -- -------- ------- ---- ------ - -------- ---- -----<br>--- ------- ---- -- --- -------- --- - ----- ------ ---- --<br>-------- --- -------- Anderson --- -------- ---- -- ----- -<br>-------- ---- --- ---------- --------- -- ------- ------ -<br>--------- ----- -----,309948.2150000986,309939.63000003714,309670.975,309679.2250000872,309687.641,309954.297,,34,Anderson
screen,html.Screen,1_3_1_0_1_35,2021-04-21T18:25:14.636Z,,,,,,,,,,,,,,,,15,,,,,,,,,,,,,,261.19800001126714,,response,,,,7,D,,,,,,Space,keypress(Space),,,,silence,,,,---- --------- ---------- - --- ------- -- --- ------------<br>----- -- -------- ------- ---- ------ - -------- ---- -----<br>--- ------- ---- -- --- -------- --- - ----- ------ ---- --<br>-------- --- -------- -------- was -------- ---- -- ----- -<br>-------- ---- --- ---------- --------- -- ------- ------ -<br>--------- ----- -----,310227.7549999999,310215.4950000113,309937.631,309948.35500000045,309954.297,310237.619,,35,was
screen,html.Screen,1_3_1_0_1_36,2021-04-21T18:25:14.974Z,,,,,,,,,,,,,,,,15,,,,,,,,,,,,,,320.04100004950305,,response,,,,7,D,,,,,,Space,keypress(Space),,,,silence,,,,---- --------- ---------- - --- ------- -- --- ------------<br>----- -- -------- ------- ---- ------ - -------- ---- -----<br>--- ------- ---- -- --- -------- --- - ----- ------ ---- --<br>-------- --- -------- -------- --- released ---- -- ----- -<br>-------- ---- --- ---------- --------- -- ------- ------ -<br>--------- ----- -----,310565.9600000363,310557.6600000495,310220.953,310227.8900000965,310237.619,310570.939,,36,released
screen,html.Screen,1_3_1_0_1_37,2021-04-21T18:25:15.183Z,,,,,,,,,,,,,,,,15,,,,,,,,,,,,,,195.66100008995272,,response,,,,7,D,,,,,,Space,keypress(Space),,,,silence,,,,---- --------- ---------- - --- ------- -- --- ------------<br>----- -- -------- ------- ---- ------ - -------- ---- -----<br>--- ------- ---- -- --- -------- --- - ----- ------ ---- --<br>-------- --- -------- -------- --- -------- July -- ----- -<br>-------- ---- --- ---------- --------- -- ------- ------ -<br>--------- ----- -----,310775.48000006936,310766.60000008997,310554.273,310566.0850000568,310570.939,310787.597,,37,July
screen,html.Screen,1_3_1_0_1_38,2021-04-21T18:25:15.454Z,,,,,,,,,,,,,,,,15,,,,,,,,,,,,,,249.86300002137432,,response,,,,7,D,,,,,,Space,keypress(Space),,,,silence,,,,---- --------- ---------- - --- ------- -- --- ------------<br>----- -- -------- ------- ---- ------ - -------- ---- -----<br>--- ------- ---- -- --- -------- --- - ----- ------ ---- --<br>-------- --- -------- -------- --- -------- ---- 20 ----- -<br>-------- ---- --- ---------- --------- -- ------- ------ -<br>--------- ----- -----,311046.42000002787,311037.4600000214,310770.931,310775.6550000049,310787.597,311054.253,,38,20
screen,html.Screen,1_3_1_0_1_39,2021-04-21T18:25:15.762Z,,,,,,,,,,,,,,,,15,,,,,,,,,,,,,,291.3769999961369,,response,,,,7,D,,,,,,Space,keypress(Space),,,,silence,,,,---- --------- ---------- - --- ------- -- --- ------------<br>----- -- -------- ------- ---- ------ - -------- ---- -----<br>--- ------- ---- -- --- -------- --- - ----- ------ ---- --<br>-------- --- -------- -------- --- -------- ---- -- after -<br>-------- ---- --- ---------- --------- -- ------- ------ -<br>--------- ----- -----,311354.260000051,311345.62999999616,311037.587,311046.5500000864,311054.253,311370.907,,39,after
