sender,sender_type,sender_id,timestamp,meta,,Blues,Classical,Country,Dance,Electronic,Folk,Gospel,Hip-Hop,Jazz,Latin,Musical/Film,New-age,Pop,Provo_ID,R&B,Rap,Reggae,Religious,Rock,Soul,Swing,Traditional,age,artist_name,correct,correctResponse,distraction,duration,education,ended_on,familiarity,gender,headphone_check_performance,item,list,music_frequency,offensiveness,pleasantness,position_correct,preference,response,response_action,snippet_file,song_name,song_rating,sound,stimulus_1,stimulus_2,stimulus_3,text,time_commit,time_end,time_render,time_run,time_show,time_switch,url,word,word_ID
Introduction,html.Screen,0_0,2021-04-20T10:31:23.814Z,"{""labjs_version"":""20.2.2"",""labjs_build"":{""flavor"":""production"",""commit"":""a25486e0c714a0ae2ce03ff94b7bb6896854dcfa""},""location"":""https://run.pavlovia.org/mvasilev/music_e/"",""userAgent"":""Mozilla/5.0 (Windows NT 10.0; Win64; x64) AppleWebKit/537.36 (KHTML, like Gecko) Chrome/89.0.4389.128 Safari/537.36 Edg/89.0.774.77"",""platform"":""Win32"",""language"":""en-US"",""locale"":""en-US"",""timeZone"":""Europe/London"",""timezoneOffset"":-60,""screen_width"":1536,""screen_height"":864,""scroll_width"":1536,""scroll_height"":706,""window_innerWidth"":1536,""window_innerHeight"":754,""devicePixelRatio"":1.25}",,,,,,,,,,,,,,,,,,,,,,,,,,,,,2390.47600000231,,response,,,,,,,,,,,continue,click button,,,,,,,,,9399.945000070147,9397.23000000231,6990.067,6925.175000098534,7006.754,9421.303,{},,
Volume calibration,html.Screen,0_1,2021-04-20T10:31:25.017Z,,,,,,,,,,,,,,,,,,,,,,,,,,,,,,1177.506999995865,,response,,,,,,,,,,,continue,click button,,,,,,,,,10603.025000076741,10598.809999995865,9404.616,9400.885000010021,9421.303,10603.549,,,
Task instructions,html.Screen,0_2,2021-04-20T10:31:25.826Z,,,,,,,,,,,,,,,,,,,,,,,,,,,,,,806.6610000018245,,response,,,,,,,,,,,continue,click button,,,,,,,,,11411.485000047833,11410.210000001825,10586.932,10603.2450000057,10603.549,11419.719,,,
Sounds,html.Screen,0_3_0_0,2021-04-20T10:31:30.066Z,,,,,,,,,,,,,,,,,,,,,,,,,,,,,,4246.127,,timeout,,,,,,,,,2,,,,,,,,O,S,I,,15652.145000058226,15649.203,11402.954,11411.975000053644,11419.719,15665.846,,,
Judgement,html.Screen,0_3_0_1,2021-04-20T10:31:30.550Z,,,,,,,,,,,,,,,,,,,,,,,,,,,true,2,,469.02400006716744,,response,,,,,,,,,2,,2,click #choice-2,,,,,O,S,I,,16136.105000041425,16134.870000067167,15649.203,15652.280000038445,15665.846,16148.728,,,
Trial,flow.Sequence,0_3_0,2021-04-20T10:31:30.551Z,,,,,,,,,,,,,,,,,,,,,,,,,,,,,,4715.151000067168,,completion,,,,,,,,,2,,,,,,,,O,S,I,,16136.610000045039,16134.870000067167,11402.954,11411.825000075623,11419.719,16148.728,,,
Sounds,html.Screen,0_3_1_0,2021-04-20T10:31:34.794Z,,,,,,,,,,,,,,,,,,,,,,,,,,,,,,4246.441999999999,,timeout,,,,,,,,,3,,,,,,,,I,O,S,,20379.975000047125,20378.727,16132.331,16136.81500009261,16148.728,20395.17,,,
Judgement,html.Screen,0_3_1_1,2021-04-20T10:31:35.423Z,,,,,,,,,,,,,,,,,,,,,,,,,,,true,3,,612.0350000308099,,response,,,,,,,,,3,,3,click #choice-3,,,,,I,O,S,,21008.580000023358,21007.205000030808,20378.727,20380.365000106394,20395.17,21011.202,,,
Trial,flow.Sequence,0_3_1,2021-04-20T10:31:35.423Z,,,,,,,,,,,,,,,,,,,,,,,,,,,,,,4858.477000030809,,completion,,,,,,,,,3,,,,,,,,I,O,S,,21009.01000003796,21007.205000030808,16132.331,16136.75000006333,16148.728,21011.202,,,
Sounds,html.Screen,0_3_2_0,2021-04-20T10:31:39.656Z,,,,,,,,,,,,,,,,,,,,,,,,,,,,,,4246.254999999997,,timeout,,,,,,,,,1,,,,,,,,S,O,I,,25241.875000065193,25240.83,20994.938,21009.235000004992,21011.202,25257.457,,,
Judgement,html.Screen,0_3_2_1,2021-04-20T10:31:40.072Z,,,,,,,,,,,,,,,,,,,,,,,,,,,false,1,,399.3630000328958,,response,,,,,,,,,1,,3,click #choice-3,,,,,S,O,I,,25658.085000002757,25656.820000032894,25240.83,25242.140000103973,25257.457,25673.737,,,
Trial,flow.Sequence,0_3_2,2021-04-20T10:31:40.072Z,,,,,,,,,,,,,,,,,,,,,,,,,,,,,,4645.618000032893,,completion,,,,,,,,,1,,,,,,,,S,O,I,,25658.37000007741,25656.820000032894,20994.938,21009.170000092126,21011.202,25673.737,,,
Sounds,html.Screen,0_3_3_0,2021-04-20T10:31:44.319Z,,,,,,,,,,,,,,,,,,,,,,,,,,,,,,4246.3089999999975,,timeout,,,,,,,,,3,,,,,,,,O,I,S,,29904.7150000697,29903.432,25657.18,25658.55500008911,25673.737,29920.046,,,
Judgement,html.Screen,0_3_3_1,2021-04-20T10:31:44.936Z,,,,,,,,,,,,,,,,,,,,,,,,,,,true,3,,600.7940000119597,,response,,,,,,,,,3,,3,click #choice-3,,,,,O,I,S,,30521.975000039674,30520.84000001196,29903.432,29904.880000045523,29920.046,30536.196,,,
Trial,flow.Sequence,0_3_3,2021-04-20T10:31:44.936Z,,,,,,,,,,,,,,,,,,,,,,,,,,,,,,4847.103000011957,,completion,,,,,,,,,3,,,,,,,,O,I,S,,30522.42000005208,30520.84000001196,25657.18,25658.4950000979,25673.737,30536.196,,,
Sounds,html.Screen,0_3_4_0,2021-04-20T10:31:49.181Z,,,,,,,,,,,,,,,,,,,,,,,,,,,,,,4246.263999999999,,timeout,,,,,,,,,2,,,,,,,,I,S,O,,34767.0400000643,34765.853,30519.613,30522.82500010915,30536.196,34782.46,,,
Judgement,html.Screen,0_3_4_1,2021-04-20T10:31:49.632Z,,,,,,,,,,,,,,,,,,,,,,,,,,,true,2,,434.38000000823376,,response,,,,,,,,,2,,2,click #choice-2,,,,,I,S,O,,35218.085000058636,35216.84000000823,34765.853,34767.35500001814,34782.46,35232.106,,,
Trial,flow.Sequence,0_3_4,2021-04-20T10:31:49.632Z,,,,,,,,,,,,,,,,,,,,,,,,,,,,,,4680.644000008233,,completion,,,,,,,,,2,,,,,,,,I,S,O,,35218.350000097416,35216.84000000823,30519.613,30522.745000082068,30536.196,35232.106,,,
Sounds,html.Screen,0_3_5_0,2021-04-20T10:31:53.877Z,,,,,,,,,,,,,,,,,,,,,,,,,,,,,,4246.3499999999985,,timeout,,,,,,,,,1,,,,,,,,S,I,O,,39462.88500004448,39461.821,35215.452,35218.52000011131,35232.106,39478.456,,,
Judgement,html.Screen,0_3_5_1,2021-04-20T10:31:54.273Z,,,,,,,,,,,,,,,,,,,,,,,,,,,true,1,,378.6440000229122,,response,,,,,,,,,1,,1,click #choice-1,,,,,S,I,O,,39858.48000005353,39857.10000002291,39461.821,39463.0500000203,39478.456,39861.628,,,
Trial,flow.Sequence,0_3_5,2021-04-20T10:31:54.273Z,,,,,,,,,,,,,,,,,,,,,,,,,,,,,,4624.994000022911,,completion,,,,,,,,,1,,,,,,,,S,I,O,,39858.885000110604,39857.10000002291,35215.452,35218.47000007983,35232.106,39861.628,,,
Task,flow.Loop,0_3,2021-04-20T10:31:54.278Z,,,,,,,,,,,,,,,,,,,,,,,,,,,,,,28437.381000022913,,completion,,,0.8333333333333334,,,,,,,,,,,,,,,,,,39864.190000109375,39857.10000002291,11402.954,11411.700000055134,11419.719,39861.628,,,
Trap,html.Screen,0_4,2021-04-20T10:31:54.279Z,,,,,,,,,,,,,,,,,,,,,,,,,,,,,,NaN,,skipped,,,,,,,,,,,,,,,,,,,,,39865.015000104904,39857.10000002291,,39864.88000000827,,39861.628,,,
Thanks,html.Screen,0_5,2021-04-20T10:31:59.446Z,,,,,,,,,,,,,,,,,,,,,,,,,,,,,,5169.262000052753,,response,,,,,,,,,,,continue,click button,,,,,,,,,45032.17500005849,45030.89000005275,39844.812,39865.07000005804,39861.628,49936.008,,,
Headphone screening,flow.Sequence,0,2021-04-20T10:31:59.446Z,,,,,,,,,,,,,,,,,,,,,,,,,,,,,,38024.13600005275,,completion,,,,,,,,,,,,,,,,,,,,,45032.435000059195,45030.89000005275,6990.067,6925.110000069253,7006.754,49936.008,,,
Instructions,html.Page,1_0,2021-04-20T10:32:56.220Z,,,,,,,,,,,,,,,,,,,,,,,,,,,,,,51869.0270000849,,form submission,,,,,,,,,,,,,,,,,,,,,101805.30500004534,101805.0350000849,49919.283,49937.56000010762,49936.008,101807.376,,,
Holding screen,html.Screen,1_1_0_0,2021-04-20T10:33:06.213Z,,,,,,,,,,,,,,,,,,,,,,,,,,,,,,10007.952999999994,,timeout,,,,,,,,,,,,,,,,,,,,,111799.90000010002,111799.079,101790.741,101805.52000005264,101807.376,111815.329,,,
screen,html.Screen,1_1_0_1_0,2021-04-20T10:33:07.294Z,,,,,,,,,,,,,,,,53,,,,,,,,,,,,,,1061.256000078196,,response,,,,99,,,,,,,Space,keypress(Space),,,,,,,,When -- ----- -- ------ - ------- --- ----------<br>------------- ------ ------ ---- ---- ------- ----- -- ----<br>-------- ------- -- ---------- --- - --- ----- ----- ----<br>---- --- --- ----- --- ---- ---- ------- ----- ---- -------<br>--- --- -- ----- -- --- ---- -- --- ---- -- ------ ------<br>--- ----- -- ----,112880.26000000536,112876.5850000782,111799.079,111800.16500002239,111815.329,112897.771,,0,When
screen,html.Screen,1_1_0_1_1,2021-04-20T10:33:07.754Z,,,,,,,,,,,,,,,,53,,,,,,,,,,,,,,441.31400010148354,,response,,,,99,,,,,,,Space,keypress(Space),,,,,,,,---- it ----- -- ------ - ------- --- ----------<br>------------- ------ ------ ---- ---- ------- ----- -- ----<br>-------- ------- -- ---------- --- - --- ----- ----- ----<br>---- --- --- ----- --- ---- ---- ------- ----- ---- -------<br>--- --- -- ----- -- --- ---- -- --- ---- -- ------ ------<br>--- ----- -- ----,113339.95000005234,113339.08500010148,112864.675,112880.48000005074,112897.771,113347.365,,1,it
screen,html.Screen,1_1_0_1_2,2021-04-20T10:33:08.204Z,,,,,,,,,,,,,,,,53,,,,,,,,,,,,,,442.52500001456065,,response,,,,99,,,,,,,Space,keypress(Space),,,,,,,,---- -- comes -- ------ - ------- --- ----------<br>------------- ------ ------ ---- ---- ------- ----- -- ----<br>-------- ------- -- ---------- --- - --- ----- ----- ----<br>---- --- --- ----- --- ---- ---- ------- ----- ---- -------<br>--- --- -- ----- -- --- ---- -- --- ---- -- ------ ------<br>--- ----- -- ----,113790.7000000123,113789.89000001457,113331.113,113340.22000001278,113347.365,113797.082,,2,comes
screen,html.Screen,1_1_0_1_3,2021-04-20T10:33:08.674Z,,,,,,,,,,,,,,,,53,,,,,,,,,,,,,,462.9480000049225,,response,,,,99,,,,,,,Space,keypress(Space),,,,,,,,---- -- ----- to ------ - ------- --- ----------<br>------------- ------ ------ ---- ---- ------- ----- -- ----<br>-------- ------- -- ---------- --- - --- ----- ----- ----<br>---- --- --- ----- --- ---- ---- ------- ----- ---- -------<br>--- --- -- ----- -- --- ---- -- --- ---- -- ------ ------<br>--- ----- -- ----,114260.8950000722,114260.03000000492,113780.659,113790.89500010014,113797.082,114263.141,,3,to
screen,html.Screen,1_1_0_1_4,2021-04-20T10:33:09.204Z,,,,,,,,,,,,,,,,53,,,,,,,,,,,,,,526.0890001112712,,response,,,,99,,,,,,,Space,keypress(Space),,,,,,,,---- -- ----- -- having - ------- --- ----------<br>------------- ------ ------ ---- ---- ------- ----- -- ----<br>-------- ------- -- ---------- --- - --- ----- ----- ----<br>---- --- --- ----- --- ---- ---- ------- ----- ---- -------<br>--- --- -- ----- -- --- ---- -- --- ---- -- ------ ------<br>--- ----- -- ----,114790.12000001967,114789.23000011127,114246.863,114261.07000000775,114263.141,114796.113,,4,having
screen,html.Screen,1_1_0_1_5,2021-04-20T10:33:09.760Z,,,,,,,,,,,,,,,,53,,,,,,,,,,,,,,549.732000003467,,response,,,,99,,,,,,,Space,keypress(Space),,,,,,,,---- -- ----- -- ------ a ------- --- ----------<br>------------- ------ ------ ---- ---- ------- ----- -- ----<br>-------- ------- -- ---------- --- - --- ----- ----- ----<br>---- --- --- ----- --- ---- ---- ------- ----- ---- -------<br>--- --- -- ----- -- --- ---- -- --- ---- -- ------ ------<br>--- ----- -- ----,115346.74500010442,115345.84500000346,114779.841,114790.38000002038,114796.113,115362.193,,5,a
screen,html.Screen,1_1_0_1_6,2021-04-20T10:33:10.349Z,,,,,,,,,,,,,,,,53,,,,,,,,,,,,,,572.6769999973185,,response,,,,99,,,,,,,Space,keypress(Space),,,,,,,,---- -- ----- -- ------ - lasting --- ----------<br>------------- ------ ------ ---- ---- ------- ----- -- ----<br>-------- ------- -- ---------- --- - --- ----- ----- ----<br>---- --- --- ----- --- ---- ---- ------- ----- ---- -------<br>--- --- -- ----- -- --- ---- -- --- ---- -- ------ ------<br>--- ----- -- ----,115935.69500010926,115934.86999999732,115346.042,115346.99500002898,115362.193,115945.282,,6,lasting
screen,html.Screen,1_1_0_1_7,2021-04-20T10:33:10.866Z,,,,,,,,,,,,,,,,53,,,,,,,,,,,,,,506.453000009642,,response,,,,99,,,,,,,Space,keypress(Space),,,,,,,,---- -- ----- -- ------ - ------- and ----------<br>------------- ------ ------ ---- ---- ------- ----- -- ----<br>-------- ------- -- ---------- --- - --- ----- ----- ----<br>---- --- --- ----- --- ---- ---- ------- ----- ---- -------<br>--- --- -- ----- -- --- ---- -- --- ---- -- ------ ------<br>--- ----- -- ----,116452.38000003155,116451.73500000965,115928.466,115935.86500000674,115945.282,116461.259,,7,and
screen,html.Screen,1_1_0_1_8,2021-04-20T10:33:11.398Z,,,,,,,,,,,,,,,,53,,,,,,,,,,,,,,522.151000102589,,response,,,,99,,,,,,,Space,keypress(Space),,,,,,,,---- -- ----- -- ------ - ------- --- fulfilling<br>------------- ------ ------ ---- ---- ------- ----- -- ----<br>-------- ------- -- ---------- --- - --- ----- ----- ----<br>---- --- --- ----- --- ---- ---- ------- ----- ---- -------<br>--- --- -- ----- -- --- ---- -- --- ---- -- ------ ------<br>--- ----- -- ----,116984.21500006225,116983.4100001026,116444.69,116452.55500008352,116461.259,116994.472,,8,fulfilling
screen,html.Screen,1_1_0_1_9,2021-04-20T10:33:11.930Z,,,,,,,,,,,,,,,,53,,,,,,,,,,,,,,521.1380000022036,,response,,,,99,,,,,,,Space,keypress(Space),,,,,,,,"---- -- ----- -- ------ - ------- --- ----------<br>relationship, ------ ------ ---- ---- ------- ----- -- ----<br>-------- ------- -- ---------- --- - --- ----- ----- ----<br>---- --- --- ----- --- ---- ---- ------- ----- ---- -------<br>--- --- -- ----- -- --- ---- -- --- ---- -- ------ ------<br>--- ----- -- ----",117516.4550000336,117515.6100000022,116977.549,116984.38500007614,116994.472,117526.966,,9,"relationship,"
screen,html.Screen,1_1_0_1_10,2021-04-20T10:33:12.453Z,,,,,,,,,,,,,,,,53,,,,,,,,,,,,,,511.934000043213,,response,,,,99,,,,,,,Space,keypress(Space),,,,,,,,---- -- ----- -- ------ - ------- --- ----------<br>------------- common ------ ---- ---- ------- ----- -- ----<br>-------- ------- -- ---------- --- - --- ----- ----- ----<br>---- --- --- ----- --- ---- ---- ------- ----- ---- -------<br>--- --- -- ----- -- --- ---- -- --- ---- -- ------ ------<br>--- ----- -- ----,118039.71000004094,118038.90000004321,117510.59,117516.63000008557,117526.966,118043.195,,10,common
screen,html.Screen,1_1_0_1_11,2021-04-20T10:33:12.976Z,,,,,,,,,,,,,,,,53,,,,,,,,,,,,,,518.3450000242447,,response,,,,99,,,,,,,Space,keypress(Space),,,,,,,,---- -- ----- -- ------ - ------- --- ----------<br>------------- ------ wisdom ---- ---- ------- ----- -- ----<br>-------- ------- -- ---------- --- - --- ----- ----- ----<br>---- --- --- ----- --- ---- ---- ------- ----- ---- -------<br>--- --- -- ----- -- --- ---- -- --- ---- -- ------ ------<br>--- ----- -- ----,118562.40500009153,118561.54000002425,118026.63,118039.95000000577,118043.195,118576.185,,11,wisdom
screen,html.Screen,1_1_0_1_12,2021-04-20T10:33:13.454Z,,,,,,,,,,,,,,,,53,,,,,,,,,,,,,,463.2749999999651,,response,,,,99,,,,,,,Space,keypress(Space),,,,,,,,---- -- ----- -- ------ - ------- --- ----------<br>------------- ------ ------ says ---- ------- ----- -- ----<br>-------- ------- -- ---------- --- - --- ----- ----- ----<br>---- --- --- ----- --- ---- ---- ------- ----- ---- -------<br>--- --- -- ----- -- --- ---- -- --- ---- -- ------ ------<br>--- ----- -- ----,119040.32000002917,119039.45999999996,118559.469,118562.58000002708,118576.185,119042.37,,12,says
screen,html.Screen,1_1_0_1_13,2021-04-20T10:33:13.984Z,,,,,,,,,,,,,,,,53,,,,,,,,,,,,,,527.4150000578957,,response,,,,99,,,,,,,Space,keypress(Space),,,,,,,,---- -- ----- -- ------ - ------- --- ----------<br>------------- ------ ------ ---- that ------- ----- -- ----<br>-------- ------- -- ---------- --- - --- ----- ----- ----<br>---- --- --- ----- --- ---- ---- ------- ----- ---- -------<br>--- --- -- ----- -- --- ---- -- --- ---- -- ------ ------<br>--- ----- -- ----,119570.63500001095,119569.78500005789,119025.931,119040.51000007894,119042.37,119575.183,,13,that
screen,html.Screen,1_1_0_1_14,2021-04-20T10:33:14.485Z,,,,,,,,,,,,,,,,53,,,,,,,,,,,,,,495.3770000219374,,response,,,,99,,,,,,,Space,keypress(Space),,,,,,,,---- -- ----- -- ------ - ------- --- ----------<br>------------- ------ ------ ---- ---- feeling ----- -- ----<br>-------- ------- -- ---------- --- - --- ----- ----- ----<br>---- --- --- ----- --- ---- ---- ------- ----- ---- -------<br>--- --- -- ----- -- --- ---- -- --- ---- -- ------ ------<br>--- ----- -- ----,120071.40500005335,120070.56000002194,119558.65,119570.80500002485,119575.183,120074.815,,14,feeling
screen,html.Screen,1_1_0_1_15,2021-04-20T10:33:15.007Z,,,,,,,,,,,,,,,,53,,,,,,,,,,,,,,517.5800000433228,,response,,,,99,,,,,,,Space,keypress(Space),,,,,,,,---- -- ----- -- ------ - ------- --- ----------<br>------------- ------ ------ ---- ---- ------- close -- ----<br>-------- ------- -- ---------- --- - --- ----- ----- ----<br>---- --- --- ----- --- ---- ---- ------- ----- ---- -------<br>--- --- -- ----- -- --- ---- -- --- ---- -- ------ ------<br>--- ----- -- ----,120593.26500003226,120592.39500004333,120058.245,120071.58000010531,120074.815,120607.649,,15,close
screen,html.Screen,1_1_0_1_16,2021-04-20T10:33:15.477Z,,,,,,,,,,,,,,,,53,,,,,,,,,,,,,,454.9410001032229,,response,,,,99,,,,,,,Space,keypress(Space),,,,,,,,---- -- ----- -- ------ - ------- --- ----------<br>------------- ------ ------ ---- ---- ------- ----- to ----<br>-------- ------- -- ---------- --- - --- ----- ----- ----<br>---- --- --- ----- --- ---- ---- ------- ----- ---- -------<br>--- --- -- ----- -- --- ---- -- --- ---- -- ------ ------<br>--- ----- -- ----,121063.41000006068,121062.59000010323,120591.117,120593.43500004616,120607.649,121073.906,,16,to
screen,html.Screen,1_1_0_1_17,2021-04-20T10:33:15.963Z,,,,,,,,,,,,,,,,53,,,,,,,,,,,,,,475.0840000393364,,response,,,,99,,,,,,,Space,keypress(Space),,,,,,,,---- -- ----- -- ------ - ------- --- ----------<br>------------- ------ ------ ---- ---- ------- ----- -- your<br>-------- ------- -- ---------- --- - --- ----- ----- ----<br>---- --- --- ----- --- ---- ---- ------- ----- ---- -------<br>--- --- -- ----- -- --- ---- -- --- ---- -- ------ ------<br>--- ----- -- ----,121549.76500000339,121548.99000003934,121057.237,121063.58499999624,121073.906,121556.818,,17,your
screen,html.Screen,1_1_0_1_18,2021-04-20T10:33:16.500Z,,,,,,,,,,,,,,,,53,,,,,,,,,,,,,,528.4070000461943,,response,,,,99,,,,,,,Space,keypress(Space),,,,,,,,---- -- ----- -- ------ - ------- --- ----------<br>------------- ------ ------ ---- ---- ------- ----- -- ----<br>romantic ------- -- ---------- --- - --- ----- ----- ----<br>---- --- --- ----- --- ---- ---- ------- ----- ---- -------<br>--- --- -- ----- -- --- ---- -- --- ---- -- ------ ------<br>--- ----- -- ----,122086.0550000798,122085.2250000462,121540.209,121549.92000001948,121556.818,122089.668,,18,romantic
screen,html.Screen,1_1_0_1_19,2021-04-20T10:33:16.996Z,,,,,,,,,,,,,,,,53,,,,,,,,,,,,,,491.52700009342516,,response,,,,99,,,,,,,Space,keypress(Space),,,,,,,,---- -- ----- -- ------ - ------- --- ----------<br>------------- ------ ------ ---- ---- ------- ----- -- ----<br>-------- partner -- ---------- --- - --- ----- ----- ----<br>---- --- --- ----- --- ---- ---- ------- ----- ---- -------<br>--- --- -- ----- -- --- ---- -- --- ---- -- ------ ------<br>--- ----- -- ----,122581.9350000238,122581.19500009343,122073.022,122086.22500009369,122089.668,122589.259,,19,partner
screen,html.Screen,1_1_0_1_20,2021-04-20T10:33:17.382Z,,,,,,,,,,,,,,,,53,,,,,,,,,,,,,,378.0960000879859,,response,,,,99,,,,,,,Space,keypress(Space),,,,,,,,---- -- ----- -- ------ - ------- --- ----------<br>------------- ------ ------ ---- ---- ------- ----- -- ----<br>-------- ------- is ---------- --- - --- ----- ----- ----<br>---- --- --- ----- --- ---- ---- ------- ----- ---- -------<br>--- --- -- ----- -- --- ---- -- --- ---- -- ------ ------<br>--- ----- -- ----,122968.24000007473,122967.35500008799,122573.216,122582.04000000842,122589.259,122972.283,,20,is
screen,html.Screen,1_1_0_1_21,2021-04-20T10:33:17.833Z,,,,,,,,,,,,,,,,53,,,,,,,,,,,,,,446.5970000119996,,response,,,,99,,,,,,,Space,keypress(Space),,,,,,,,---- -- ----- -- ------ - ------- --- ----------<br>------------- ------ ------ ---- ---- ------- ----- -- ----<br>-------- ------- -- paramount. --- - --- ----- ----- ----<br>---- --- --- ----- --- ---- ---- ------- ----- ---- -------<br>--- --- -- ----- -- --- ---- -- --- ---- -- ------ ------<br>--- ----- -- ----,123419.76000007708,123418.880000012,122955.895,122968.41000008862,122972.283,123421.824,,21,paramount.
screen,html.Screen,1_1_0_1_22,2021-04-20T10:33:18.482Z,,,,,,,,,,,,,,,,53,,,,,,,,,,,,,,645.200999996654,,response,,,,99,,,,,,,Space,keypress(Space),,,,,,,,---- -- ----- -- ------ - ------- --- ----------<br>------------- ------ ------ ---- ---- ------- ----- -- ----<br>-------- ------- -- ---------- But - --- ----- ----- ----<br>---- --- --- ----- --- ---- ---- ------- ----- ---- -------<br>--- --- -- ----- -- --- ---- -- --- ---- -- ------ ------<br>--- ----- -- ----,124067.91500002146,124067.02499999665,123405.678,123419.96500000823,123421.824,124071.305,,22,But
screen,html.Screen,1_1_0_1_23,2021-04-20T10:33:19.033Z,,,,,,,,,,,,,,,,53,,,,,,,,,,,,,,547.4650000591646,,response,,,,99,,,,,,,Space,keypress(Space),,,,,,,,---- -- ----- -- ------ - ------- --- ----------<br>------------- ------ ------ ---- ---- ------- ----- -- ----<br>-------- ------- -- ---------- --- a --- ----- ----- ----<br>---- --- --- ----- --- ---- ---- ------- ----- ---- -------<br>--- --- -- ----- -- --- ---- -- --- ---- -- ------ ------<br>--- ----- -- ----,124619.61500009056,124618.77000005916,124054.938,124068.07999999728,124071.305,124649.624,,23,a
screen,html.Screen,1_1_0_1_24,2021-04-20T10:33:19.528Z,,,,,,,,,,,,,,,,53,,,,,,,,,,,,,,463.54600002600637,,response,,,,99,,,,,,,Space,keypress(Space),,,,,,,,---- -- ----- -- ------ - ------- --- ----------<br>------------- ------ ------ ---- ---- ------- ----- -- ----<br>-------- ------- -- ---------- --- - new ----- ----- ----<br>---- --- --- ----- --- ---- ---- ------- ----- ---- -------<br>--- --- -- ----- -- --- ---- -- --- ---- -- ------ ------<br>--- ----- -- ----,125114.06000005081,125113.170000026,124604.615,124619.78500010446,124649.624,125120.488,,24,new
screen,html.Screen,1_1_0_1_25,2021-04-20T10:33:19.963Z,,,,,,,,,,,,,,,,53,,,,,,,,,,,,,,428.16200001155084,,response,,,,99,,,,,,,Space,keypress(Space),,,,,,,,---- -- ----- -- ------ - ------- --- ----------<br>------------- ------ ------ ---- ---- ------- ----- -- ----<br>-------- ------- -- ---------- --- - --- study ----- ----<br>---- --- --- ----- --- ---- ---- ------- ----- ---- -------<br>--- --- -- ----- -- --- ---- -- --- ---- -- ------ ------<br>--- ----- -- ----,125549.48500008322,125548.65000001155,125104.041,125114.24000002444,125120.488,125553.339,,25,study
screen,html.Screen,1_1_0_1_26,2021-04-20T10:33:20.448Z,,,,,,,,,,,,,,,,53,,,,,,,,,,,,,,479.9110000949877,,response,,,,99,,,,,,,Space,keypress(Space),,,,,,,,---- -- ----- -- ------ - ------- --- ----------<br>------------- ------ ------ ---- ---- ------- ----- -- ----<br>-------- ------- -- ---------- --- - --- ----- finds ----<br>---- --- --- ----- --- ---- ---- ------- ----- ---- -------<br>--- --- -- ----- -- --- ---- -- --- ---- -- ------ ------<br>--- ----- -- ----,126034.09000008833,126033.250000095,125536.828,125549.65500009712,125553.339,126036.218,,26,finds
screen,html.Screen,1_1_0_1_27,2021-04-20T10:33:20.868Z,,,,,,,,,,,,,,,,53,,,,,,,,,,,,,,417.107000009506,,response,,,,99,,,,,,,Space,keypress(Space),,,,,,,,---- -- ----- -- ------ - ------- --- ----------<br>------------- ------ ------ ---- ---- ------- ----- -- ----<br>-------- ------- -- ---------- --- - --- ----- ----- that<br>---- --- --- ----- --- ---- ---- ------- ----- ---- -------<br>--- --- -- ----- -- --- ---- -- --- ---- -- ------ ------<br>--- ----- -- ----,126454.16000008117,126453.3250000095,126019.992,126034.31500005536,126036.218,126469.443,,27,that
screen,html.Screen,1_1_0_1_28,2021-04-20T10:33:21.383Z,,,,,,,,,,,,,,,,53,,,,,,,,,,,,,,499.3470000717498,,response,,,,99,,,,,,,Space,keypress(Space),,,,,,,,---- -- ----- -- ------ - ------- --- ----------<br>------------- ------ ------ ---- ---- ------- ----- -- ----<br>-------- ------- -- ---------- --- - --- ----- ----- ----<br>it's --- --- ----- --- ---- ---- ------- ----- ---- -------<br>--- --- -- ----- -- --- ---- -- --- ---- -- ------ ------<br>--- ----- -- ----,126969.63000006508,126968.79000007175,126453.026,126454.3700000504,126469.443,126985.55,,28,it's
screen,html.Screen,1_1_0_1_29,2021-04-20T10:33:21.782Z,,,,,,,,,,,,,,,,53,,,,,,,,,,,,,,381.7100000863866,,response,,,,99,,,,,,,Space,keypress(Space),,,,,,,,---- -- ----- -- ------ - ------- --- ----------<br>------------- ------ ------ ---- ---- ------- ----- -- ----<br>-------- ------- -- ---------- --- - --- ----- ----- ----<br>---- not --- ----- --- ---- ---- ------- ----- ---- -------<br>--- --- -- ----- -- --- ---- -- --- ---- -- ------ ------<br>--- ----- -- ----,127368.09500004165,127367.26000008639,126968.763,126969.80500000063,126985.55,127402.063,,29,not
screen,html.Screen,1_1_0_1_30,2021-04-20T10:33:22.218Z,,,,,,,,,,,,,,,,53,,,,,,,,,,,,,,401.29200009824126,,response,,,,99,,,,,,,Space,keypress(Space),,,,,,,,---- -- ----- -- ------ - ------- --- ----------<br>------------- ------ ------ ---- ---- ------- ----- -- ----<br>-------- ------- -- ---------- --- - --- ----- ----- ----<br>---- --- how ----- --- ---- ---- ------- ----- ---- -------<br>--- --- -- ----- -- --- ---- -- --- ---- -- ------ ------<br>--- ----- -- ----,127804.44000009447,127803.35500009824,127385.316,127368.27000009362,127402.063,127818.022,,30,how
screen,html.Screen,1_1_0_1_31,2021-04-20T10:33:22.610Z,,,,,,,,,,,,,,,,53,,,,,,,,,,,,,,376.99300006299745,,response,,,,99,,,,,,,Space,keypress(Space),,,,,,,,---- -- ----- -- ------ - ------- --- ----------<br>------------- ------ ------ ---- ---- ------- ----- -- ----<br>-------- ------- -- ---------- --- - --- ----- ----- ----<br>---- --- --- close --- ---- ---- ------- ----- ---- -------<br>--- --- -- ----- -- --- ---- -- --- ---- -- ------ ------<br>--- ----- -- ----,128195.9050000878,128195.015000063,127801.591,127804.6050000703,127818.022,128201.023,,31,close
screen,html.Screen,1_1_0_1_32,2021-04-20T10:33:23.318Z,,,,,,,,,,,,,,,,53,,,,,,,,,,,,,,702.4120001020347,,response,,,,99,,,,,,,Space,keypress(Space),,,,,,,,---- -- ----- -- ------ - ------- --- ----------<br>------------- ------ ------ ---- ---- ------- ----- -- ----<br>-------- ------- -- ---------- --- - --- ----- ----- ----<br>---- --- --- ----- you ---- ---- ------- ----- ---- -------<br>--- --- -- ----- -- --- ---- -- --- ---- -- ------ ------<br>--- ----- -- ----,128904.26000009757,128903.43500010204,128184.452,128196.94000005256,128201.023,128917.11,,32,you
screen,html.Screen,1_1_0_1_33,2021-04-20T10:33:23.714Z,,,,,,,,,,,,,,,,53,,,,,,,,,,,,,,382.03500005543174,,response,,,,99,,,,,,,Space,keypress(Space),,,,,,,,---- -- ----- -- ------ - ------- --- ----------<br>------------- ------ ------ ---- ---- ------- ----- -- ----<br>-------- ------- -- ---------- --- - --- ----- ----- ----<br>---- --- --- ----- --- feel ---- ------- ----- ---- -------<br>--- --- -- ----- -- --- ---- -- --- ---- -- ------ ------<br>--- ----- -- ----,129300.0400000019,129299.14500005543,128900.716,128904.45000003092,128917.11,129317.13,,33,feel
screen,html.Screen,1_1_0_1_34,2021-04-20T10:33:24.194Z,,,,,,,,,,,,,,,,53,,,,,,,,,,,,,,462.25500000163447,,response,,,,99,,,,,,,Space,keypress(Space),,,,,,,,---- -- ----- -- ------ - ------- --- ----------<br>------------- ------ ------ ---- ---- ------- ----- -- ----<br>-------- ------- -- ---------- --- - --- ----- ----- ----<br>---- --- --- ----- --- ---- that ------- ----- ---- -------<br>--- --- -- ----- -- --- ---- -- --- ---- -- ------ ------<br>--- ----- -- ----,129780.0700000953,129779.38500000164,129300.285,129300.20000005607,129317.13,129782.977,,34,that
screen,html.Screen,1_1_0_1_35,2021-04-20T10:33:24.873Z,,,,,,,,,,,,,,,,53,,,,,,,,,,,,,,675.5830000573333,,response,,,,99,,,,,,,Space,keypress(Space),,,,,,,,---- -- ----- -- ------ - ------- --- ----------<br>------------- ------ ------ ---- ---- ------- ----- -- ----<br>-------- ------- -- ---------- --- - --- ----- ----- ----<br>---- --- --- ----- --- ---- ---- matters ----- ---- -------<br>--- --- -- ----- -- --- ---- -- --- ---- -- ------ ------<br>--- ----- -- ----,130459.39500001259,130458.56000005733,129766.544,129780.1450000843,129782.977,130465.821,,35,matters
screen,html.Screen,1_1_0_1_36,2021-04-20T10:33:25.658Z,,,,,,,,,,,,,,,,53,,,,,,,,,,,,,,777.5490000401624,,response,,,,99,,,,,,,Space,keypress(Space),,,,,,,,"---- -- ----- -- ------ - ------- --- ----------<br>------------- ------ ------ ---- ---- ------- ----- -- ----<br>-------- ------- -- ---------- --- - --- ----- ----- ----<br>---- --- --- ----- --- ---- ---- ------- most, ---- -------<br>--- --- -- ----- -- --- ---- -- --- ---- -- ------ ------<br>--- ----- -- ----",131244.1450000042,131243.37000004016,130449.348,130459.58500006236,130465.821,131248.347,,36,"most,"
screen,html.Screen,1_1_0_1_37,2021-04-20T10:33:26.265Z,,,,,,,,,,,,,,,,53,,,,,,,,,,,,,,602.4430000549764,,response,,,,99,,,,,,,Space,keypress(Space),,,,,,,,---- -- ----- -- ------ - ------- --- ----------<br>------------- ------ ------ ---- ---- ------- ----- -- ----<br>-------- ------- -- ---------- --- - --- ----- ----- ----<br>---- --- --- ----- --- ---- ---- ------- ----- it's -------<br>--- --- -- ----- -- --- ---- -- --- ---- -- ------ ------<br>--- ----- -- ----,131851.67500004172,131850.79000005499,131232.181,131244.30500005838,131248.347,131864.82,,37,it's
screen,html.Screen,1_1_0_1_38,2021-04-20T10:33:26.848Z,,,,,,,,,,,,,,,,53,,,,,,,,,,,,,,568.5200001050835,,response,,,,99,,,,,,,Space,keypress(Space),,,,,,,,---- -- ----- -- ------ - ------- --- ----------<br>------------- ------ ------ ---- ---- ------- ----- -- ----<br>-------- ------- -- ---------- --- - --- ----- ----- ----<br>---- --- --- ----- --- ---- ---- ------- ----- ---- whether<br>--- --- -- ----- -- --- ---- -- --- ---- -- ------ ------<br>--- ----- -- ----,132434.26500004716,132433.3400001051,131848.349,131851.84500005562,131864.82,132447.586,,38,whether
screen,html.Screen,1_1_0_1_39,2021-04-20T10:33:27.524Z,,,,,,,,,,,,,,,,53,,,,,,,,,,,,,,661.9890000094892,,response,,,,99,,,,,,,Space,keypress(Space),,,,,,,,---- -- ----- -- ------ - ------- --- ----------<br>------------- ------ ------ ---- ---- ------- ----- -- ----<br>-------- ------- -- ---------- --- - --- ----- ----- ----<br>---- --- --- ----- --- ---- ---- ------- ----- ---- -------<br>you --- -- ----- -- --- ---- -- --- ---- -- ------ ------<br>--- ----- -- ----,133110.31000001822,133109.5750000095,132430.885,132434.42500010133,132447.586,133113.422,,39,you
screen,html.Screen,1_1_0_1_40,2021-04-20T10:33:28.208Z,,,,,,,,,,,,,,,,53,,,,,,,,,,,,,,680.4780000478786,,response,,,,99,,,,,,,Space,keypress(Space),,,,,,,,---- -- ----- -- ------ - ------- --- ----------<br>------------- ------ ------ ---- ---- ------- ----- -- ----<br>-------- ------- -- ---------- --- - --- ----- ----- ----<br>---- --- --- ----- --- ---- ---- ------- ----- ---- -------<br>--- are -- ----- -- --- ---- -- --- ---- -- ------ ------<br>--- ----- -- ----,133794.79000007268,133793.90000004787,133096.979,133110.47500011045,133113.422,133825.642,,40,are
screen,html.Screen,1_1_0_1_41,2021-04-20T10:33:28.671Z,,,,,,,,,,,,,,,,53,,,,,,,,,,,,,,430.51300006825477,,response,,,,99,,,,,,,Space,keypress(Space),,,,,,,,---- -- ----- -- ------ - ------- --- ----------<br>------------- ------ ------ ---- ---- ------- ----- -- ----<br>-------- ------- -- ---------- --- - --- ----- ----- ----<br>---- --- --- ----- --- ---- ---- ------- ----- ---- -------<br>--- --- as ----- -- --- ---- -- --- ---- -- ------ ------<br>--- ----- -- ----,134256.96500006597,134256.15500006825,133779.894,133794.95000001043,133825.642,134262.521,,41,as
screen,html.Screen,1_1_0_1_42,2021-04-20T10:33:29.206Z,,,,,,,,,,,,,,,,53,,,,,,,,,,,,,,528.9040000612731,,response,,,,99,,,,,,,Space,keypress(Space),,,,,,,,---- -- ----- -- ------ - ------- --- ----------<br>------------- ------ ------ ---- ---- ------- ----- -- ----<br>-------- ------- -- ---------- --- - --- ----- ----- ----<br>---- --- --- ----- --- ---- ---- ------- ----- ---- -------<br>--- --- -- close -- --- ---- -- --- ---- -- ------ ------<br>--- ----- -- ----,134792.41000011098,134791.42500006128,134245.974,134257.1600000374,134262.521,134822.508,,42,close
screen,html.Screen,1_1_0_1_43,2021-04-20T10:33:29.701Z,,,,,,,,,,,,,,,,53,,,,,,,,,,,,,,464.55200000238256,,response,,,,99,,,,,,,Space,keypress(Space),,,,,,,,---- -- ----- -- ------ - ------- --- ----------<br>------------- ------ ------ ---- ---- ------- ----- -- ----<br>-------- ------- -- ---------- --- - --- ----- ----- ----<br>---- --- --- ----- --- ---- ---- ------- ----- ---- -------<br>--- --- -- ----- as --- ---- -- --- ---- -- ------ ------<br>--- ----- -- ----,135287.89999999572,135287.06000000238,134778.958,134794.39000005368,134822.508,135294.865,,43,as
screen,html.Screen,1_1_0_1_44,2021-04-20T10:33:30.146Z,,,,,,,,,,,,,,,,53,,,,,,,,,,,,,,436.9700001005549,,response,,,,99,,,,,,,Space,keypress(Space),,,,,,,,---- -- ----- -- ------ - ------- --- ----------<br>------------- ------ ------ ---- ---- ------- ----- -- ----<br>-------- ------- -- ---------- --- - --- ----- ----- ----<br>---- --- --- ----- --- ---- ---- ------- ----- ---- -------<br>--- --- -- ----- -- you ---- -- --- ---- -- ------ ------<br>--- ----- -- ----,135732.64500009827,135731.83500010055,135278.327,135288.0550000118,135294.865,135744.503,,44,you
screen,html.Screen,1_1_0_1_45,2021-04-20T10:33:30.662Z,,,,,,,,,,,,,,,,53,,,,,,,,,,,,,,503.2420000587881,,response,,,,99,,,,,,,Space,keypress(Space),,,,,,,,---- -- ----- -- ------ - ------- --- ----------<br>------------- ------ ------ ---- ---- ------- ----- -- ----<br>-------- ------- -- ---------- --- - --- ----- ----- ----<br>---- --- --- ----- --- ---- ---- ------- ----- ---- -------<br>--- --- -- ----- -- --- want -- --- ---- -- ------ ------<br>--- ----- -- ----,136248.5400000587,136247.74500005879,135728.132,135732.79999999795,135744.503,136260.796,,45,want
screen,html.Screen,1_1_0_1_46,2021-04-20T10:33:31.125Z,,,,,,,,,,,,,,,,53,,,,,,,,,,,,,,449.7990000695863,,response,,,,99,,,,,,,Space,keypress(Space),,,,,,,,---- -- ----- -- ------ - ------- --- ----------<br>------------- ------ ------ ---- ---- ------- ----- -- ----<br>-------- ------- -- ---------- --- - --- ----- ----- ----<br>---- --- --- ----- --- ---- ---- ------- ----- ---- -------<br>--- --- -- ----- -- --- ---- to --- ---- -- ------ ------<br>--- ----- -- ----,136711.4100001054,136710.5950000696,136244.055,136248.72000003234,136260.796,136727.058,,46,to
screen,html.Screen,1_1_0_1_47,2021-04-20T10:33:31.584Z,,,,,,,,,,,,,,,,53,,,,,,,,,,,,,,442.6370000478055,,response,,,,99,,,,,,,Space,keypress(Space),,,,,,,,"---- -- ----- -- ------ - ------- --- ----------<br>------------- ------ ------ ---- ---- ------- ----- -- ----<br>-------- ------- -- ---------- --- - --- ----- ----- ----<br>---- --- --- ----- --- ---- ---- ------- ----- ---- -------<br>--- --- -- ----- -- --- ---- -- be, ---- -- ------ ------<br>--- ----- -- ----",137170.53500004113,137169.6950000478,136710.504,136711.57000004314,136727.058,137176.681,,47,"be,"
screen,html.Screen,1_1_0_1_48,2021-04-20T10:33:32.060Z,,,,,,,,,,,,,,,,53,,,,,,,,,,,,,,468.8940000895818,,response,,,,99,,,,,,,Space,keypress(Space),,,,,,,,---- -- ----- -- ------ - ------- --- ----------<br>------------- ------ ------ ---- ---- ------- ----- -- ----<br>-------- ------- -- ---------- --- - --- ----- ----- ----<br>---- --- --- ----- --- ---- ---- ------- ----- ---- -------<br>--- --- -- ----- -- --- ---- -- --- even -- ------ ------<br>--- ----- -- ----,137646.44000004046,137645.5750000896,137160.107,137170.69000005722,137176.681,137659.597,,48,even
screen,html.Screen,1_1_0_1_49,2021-04-20T10:33:32.539Z,,,,,,,,,,,,,,,,53,,,,,,,,,,,,,,465.25800006004283,,response,,,,99,,,,,,,Space,keypress(Space),,,,,,,,---- -- ----- -- ------ - ------- --- ----------<br>------------- ------ ------ ---- ---- ------- ----- -- ----<br>-------- ------- -- ---------- --- - --- ----- ----- ----<br>---- --- --- ----- --- ---- ---- ------- ----- ---- -------<br>--- --- -- ----- -- --- ---- -- --- ---- if ------ ------<br>--- ----- -- ----,138125.74500008486,138124.85500006005,137642.928,137646.64000004996,137659.597,138142.524,,49,if
screen,html.Screen,1_1_0_1_50,2021-04-20T10:33:33.022Z,,,,,,,,,,,,,,,,53,,,,,,,,,,,,,,465.2660000382166,,response,,,,99,,,,,,,Space,keypress(Space),,,,,,,,---- -- ----- -- ------ - ------- --- ----------<br>------------- ------ ------ ---- ---- ------- ----- -- ----<br>-------- ------- -- ---------- --- - --- ----- ----- ----<br>---- --- --- ----- --- ---- ---- ------- ----- ---- -------<br>--- --- -- ----- -- --- ---- -- --- ---- -- that's ------<br>--- ----- -- ----,138608.6400001077,138607.79000003822,138125.737,138125.95000001602,138142.524,138625.251,,50,that's
screen,html.Screen,1_1_0_1_51,2021-04-20T10:33:33.507Z,,,,,,,,,,,,,,,,53,,,,,,,,,,,,,,467.69900007842807,,response,,,,99,,,,,,,Space,keypress(Space),,,,,,,,---- -- ----- -- ------ - ------- --- ----------<br>------------- ------ ------ ---- ---- ------- ----- -- ----<br>-------- ------- -- ---------- --- - --- ----- ----- ----<br>---- --- --- ----- --- ---- ---- ------- ----- ---- -------<br>--- --- -- ----- -- --- ---- -- --- ---- -- ------ really<br>--- ----- -- ----,139093.62000005785,139092.95000007842,138608.662,138608.82000008132,138625.251,139108.24,,51,really
screen,html.Screen,1_1_0_1_52,2021-04-20T10:33:33.972Z,,,,,,,,,,,,,,,,53,,,,,,,,,,,,,,449.30500010517426,,response,,,,99,,,,,,,Space,keypress(Space),,,,,,,,---- -- ----- -- ------ - ------- --- ----------<br>------------- ------ ------ ---- ---- ------- ----- -- ----<br>-------- ------- -- ---------- --- - --- ----- ----- ----<br>---- --- --- ----- --- ---- ---- ------- ----- ---- -------<br>--- --- -- ----- -- --- ---- -- --- ---- -- ------ ------<br>not ----- -- ----,139558.59000002965,139557.54500010516,139091.563,139093.71500008274,139108.24,139574.425,,52,not
screen,html.Screen,1_1_0_1_53,2021-04-20T10:33:34.424Z,,,,,,,,,,,,,,,,53,,,,,,,,,,,,,,435.12000003719004,,response,,,,99,,,,,,,Space,keypress(Space),,,,,,,,---- -- ----- -- ------ - ------- --- ----------<br>------------- ------ ------ ---- ---- ------- ----- -- ----<br>-------- ------- -- ---------- --- - --- ----- ----- ----<br>---- --- --- ----- --- ---- ---- ------- ----- ---- -------<br>--- --- -- ----- -- --- ---- -- --- ---- -- ------ ------<br>--- close -- ----,140010.58500004,140009.54500003718,139557.827,139558.85500006843,139574.425,140024.053,,53,close
screen,html.Screen,1_1_0_1_54,2021-04-20T10:33:34.850Z,,,,,,,,,,,,,,,,53,,,,,,,,,,,,,,411.9820000206237,,response,,,,99,,,,,,,Space,keypress(Space),,,,,,,,---- -- ----- -- ------ - ------- --- ----------<br>------------- ------ ------ ---- ---- ------- ----- -- ----<br>-------- ------- -- ---------- --- - --- ----- ----- ----<br>---- --- --- ----- --- ---- ---- ------- ----- ---- -------<br>--- --- -- ----- -- --- ---- -- --- ---- -- ------ ------<br>--- ----- at ----,140436.86500005424,140436.03500002064,140007.478,140010.8650000766,140024.053,140457.155,,54,at
screen,html.Screen,1_1_0_1_55,2021-04-20T10:33:35.314Z,,,,,,,,,,,,,,,,53,,,,,,,,,,,,,,442.3550000174728,,response,,,,99,,,,,,,Space,keypress(Space),,,,,,,,---- -- ----- -- ------ - ------- --- ----------<br>------------- ------ ------ ---- ---- ------- ----- -- ----<br>-------- ------- -- ---------- --- - --- ----- ----- ----<br>---- --- --- ----- --- ---- ---- ------- ----- ---- -------<br>--- --- -- ----- -- --- ---- -- --- ---- -- ------ ------<br>--- ----- -- all.,140900.4750000313,140899.51000001747,140423.731,140437.0250001084,140457.155,140906.592,,55,all.
Item 99,flow.Loop,1_1_0_1,2021-04-20T10:33:35.314Z,,,,,,,,,,,,,,,,,,,,,,,,,,,,,,29084.181000017474,,completion,,,,,E,,,,,,,,,,,silence,,,,,140900.7950000232,140899.51000001747,111799.079,111800.09500007145,111815.329,140906.592,,,
Question 1,html.Screen,1_1_0_2,2021-04-20T10:33:44.076Z,,,,,,,,,,,,,,,,,,,,,,,,,,,true,FALSE,,8754.538000022236,,response,,,,99,E,,,,,,FALSE,click #choice-2,,,,silence,,,,,149662.48000005726,149661.13000002224,140889.977,140900.92500008177,140906.592,149665.63,,,
Question 2,html.Screen,1_1_0_3,2021-04-20T10:34:04.597Z,,,,,,,,,,,,,,,,,,,,,,,,,,,true,TRUE,,20515.524999998393,,response,,,,99,E,,,,,,TRUE,click #choice-1,,,,silence,,,,,170182.46000004,170181.1549999984,149649.44,149662.65000007115,149665.63,170197.94,,,
Item 99,flow.Sequence,1_1_0,2021-04-20T10:34:04.597Z,,,,,,,,,,,,,,,,,,,,,,,,,,,,,,68373.7789999984,,completion,,,,,,,,,,,,,,,,,,,,,170182.70500004292,170181.1549999984,101790.741,101805.4950000951,101807.376,170197.94,,,
Holding screen,html.Screen,1_1_1_0,2021-04-20T10:34:14.605Z,,,,,,,,,,,,,,,,,,,,,,,,,,,,,,10007.775999999983,,timeout,,,,,,,,,,,,,,,,,,,,,180190.0200000964,180189.03,170181.135,170182.88000009488,170197.94,180205.716,,,
screen,html.Screen,1_1_1_1_0,2021-04-20T10:34:15.508Z,,,,,,,,,,,,,,,,54,,,,,,,,,,,,,,887.2640000740357,,response,,,,100,,,,,,,Space,keypress(Space),,,,,,,,At --- ---- --- ------ ----- ------- ---- -- --- ------- --<br>------- ---------- ------ -- ----- -- ----- -- ---- ------<br>--- ----- --- --- ------ -------- ----- --- ------ ----- --<br>----- ----- ---------- --- --- ------ ------ ---- -- ------<br>------- --- ------ ----- --- ---- ------- -- ---- --- --<br>------- ------,181093.81500002928,181092.98000007402,180189.03,180190.31000009272,180205.716,181104.895,,0,At
screen,html.Screen,1_1_1_1_1,2021-04-20T10:34:16.085Z,,,,,,,,,,,,,,,,54,,,,,,,,,,,,,,564.2550000888587,,response,,,,100,,,,,,,Space,keypress(Space),,,,,,,,-- the ---- --- ------ ----- ------- ---- -- --- ------- --<br>------- ---------- ------ -- ----- -- ----- -- ---- ------<br>--- ----- --- --- ------ -------- ----- --- ------ ----- --<br>----- ----- ---------- --- --- ------ ------ ---- -- ------<br>------- --- ------ ----- --- ---- ------- -- ---- --- --<br>------- ------,181670.155000058,181669.15000008885,181088.198,181093.97500008345,181104.895,181704.362,,1,the
screen,html.Screen,1_1_1_1_2,2021-04-20T10:34:16.667Z,,,,,,,,,,,,,,,,54,,,,,,,,,,,,,,547.4480000452313,,response,,,,100,,,,,,,Space,keypress(Space),,,,,,,,-- --- time --- ------ ----- ------- ---- -- --- ------- --<br>------- ---------- ------ -- ----- -- ----- -- ---- ------<br>--- ----- --- --- ------ -------- ----- --- ------ ----- --<br>----- ----- ---------- --- --- ------ ------ ---- -- ------<br>------- --- ------ ----- --- ---- ------- -- ---- --- --<br>------- ------,182252.42000003345,182251.81000004523,181687.722,181670.44500005431,181704.362,182280.149,,2,time
screen,html.Screen,1_1_1_1_3,2021-04-20T10:34:17.144Z,,,,,,,,,,,,,,,,54,,,,,,,,,,,,,,448.1860001089226,,response,,,,100,,,,,,,Space,keypress(Space),,,,,,,,-- --- ---- the ------ ----- ------- ---- -- --- ------- --<br>------- ---------- ------ -- ----- -- ----- -- ---- ------<br>--- ----- --- --- ------ -------- ----- --- ------ ----- --<br>----- ----- ---------- --- --- ------ ------ ---- -- ------<br>------- --- ------ ----- --- ---- ------- -- ---- --- --<br>------- ------,182729.54000008758,182728.33500010893,182237.425,182252.49500002246,182280.149,182736.857,,3,the
screen,html.Screen,1_1_1_1_4,2021-04-20T10:34:17.749Z,,,,,,,,,,,,,,,,54,,,,,,,,,,,,,,596.9130000265723,,response,,,,100,,,,,,,Space,keypress(Space),,,,,,,,-- --- ---- --- French ----- ------- ---- -- --- ------- --<br>------- ---------- ------ -- ----- -- ----- -- ---- ------<br>--- ----- --- --- ------ -------- ----- --- ------ ----- --<br>----- ----- ---------- --- --- ------ ------ ---- -- ------<br>------- --- ------ ----- --- ---- ------- -- ---- --- --<br>------- ------,183334.6250000177,183333.77000002656,182720.176,182729.7050000634,182736.857,183368.35,,4,French
screen,html.Screen,1_1_1_1_5,2021-04-20T10:34:18.312Z,,,,,,,,,,,,,,,,54,,,,,,,,,,,,,,527.7550000507326,,response,,,,100,,,,,,,Space,keypress(Space),,,,,,,,-- --- ---- --- ------ crown ------- ---- -- --- ------- --<br>------- ---------- ------ -- ----- -- ----- -- ---- ------<br>--- ----- --- --- ------ -------- ----- --- ------ ----- --<br>----- ----- ---------- --- --- ------ ------ ---- -- ------<br>------- --- ------ ----- --- ---- ------- -- ---- --- --<br>------- ------,183897.02500007115,183896.10500005074,183319.922,183334.7800000338,183368.35,183902.44,,5,crown
screen,html.Screen,1_1_1_1_6,2021-04-20T10:34:19.108Z,,,,,,,,,,,,,,,,54,,,,,,,,,,,,,,790.2750000119559,,response,,,,100,,,,,,,Space,keypress(Space),,,,,,,,-- --- ---- --- ------ ----- secured ---- -- --- ------- --<br>------- ---------- ------ -- ----- -- ----- -- ---- ------<br>--- ----- --- --- ------ -------- ----- --- ------ ----- --<br>----- ----- ---------- --- --- ------ ------ ---- -- ------<br>------- --- ------ ----- --- ---- ------- -- ---- --- --<br>------- ------,184693.51500004996,184692.71500001196,183885.782,183897.2000000067,183902.44,184702.082,,6,secured
screen,html.Screen,1_1_1_1_7,2021-04-20T10:34:19.640Z,,,,,,,,,,,,,,,,54,,,,,,,,,,,,,,522.9180000931374,,response,,,,100,,,,,,,Space,keypress(Space),,,,,,,,-- --- ---- --- ------ ----- ------- much -- --- ------- --<br>------- ---------- ------ -- ----- -- ----- -- ---- ------<br>--- ----- --- --- ------ -------- ----- --- ------ ----- --<br>----- ----- ---------- --- --- ------ ------ ---- -- ------<br>------- --- ------ ----- --- ---- ------- -- ---- --- --<br>------- ------,185225.82500008866,185225.00000009313,184685.4,184693.69500002358,184702.082,185235.03,,7,much
screen,html.Screen,1_1_1_1_8,2021-04-20T10:34:20.203Z,,,,,,,,,,,,,,,,54,,,,,,,,,,,,,,552.5000000887376,,response,,,,100,,,,,,,Space,keypress(Space),,,,,,,,-- --- ---- --- ------ ----- ------- ---- of --- ------- --<br>------- ---------- ------ -- ----- -- ----- -- ---- ------<br>--- ----- --- --- ------ -------- ----- --- ------ ----- --<br>----- ----- ---------- --- --- ------ ------ ---- -- ------<br>------- --- ------ ----- --- ---- ------- -- ---- --- --<br>------- ------,185788.80500001833,185787.53000008874,185218.064,185225.9850000264,185235.03,185801.19,,8,of
screen,html.Screen,1_1_1_1_9,2021-04-20T10:34:20.705Z,,,,,,,,,,,,,,,,54,,,,,,,,,,,,,,488.08000006660586,,response,,,,100,,,,,,,Space,keypress(Space),,,,,,,,-- --- ---- --- ------ ----- ------- ---- -- its ------- --<br>------- ---------- ------ -- ----- -- ----- -- ---- ------<br>--- ----- --- --- ------ -------- ----- --- ------ ----- --<br>----- ----- ---------- --- --- ------ ------ ---- -- ------<br>------- --- ------ ----- --- ---- ------- -- ---- --- --<br>------- ------,186290.03000003286,186289.2700000666,185784.386,185789.19999999925,185801.19,186300.371,,9,its
screen,html.Screen,1_1_1_1_10,2021-04-20T10:34:21.387Z,,,,,,,,,,,,,,,,54,,,,,,,,,,,,,,671.2390000077721,,response,,,,100,,,,,,,Space,keypress(Space),,,,,,,,-- --- ---- --- ------ ----- ------- ---- -- --- revenue --<br>------- ---------- ------ -- ----- -- ----- -- ---- ------<br>--- ----- --- --- ------ -------- ----- --- ------ ----- --<br>----- ----- ---------- --- --- ------ ------ ---- -- ------<br>------- --- ------ ----- --- ---- ------- -- ---- --- --<br>------- ------,186972.52500010654,186971.6100000078,186283.939,186290.22500000428,186300.371,186983.42,,10,revenue
screen,html.Screen,1_1_1_1_11,2021-04-20T10:34:21.947Z,,,,,,,,,,,,,,,,54,,,,,,,,,,,,,,548.2400000951311,,response,,,,100,,,,,,,Space,keypress(Space),,,,,,,,-- --- ---- --- ------ ----- ------- ---- -- --- ------- by<br>------- ---------- ------ -- ----- -- ----- -- ---- ------<br>--- ----- --- --- ------ -------- ----- --- ------ ----- --<br>----- ----- ---------- --- --- ------ ------ ---- -- ------<br>------- --- ------ ----- --- ---- ------- -- ---- --- --<br>------- ------,187532.5400000438,187531.66000009514,186966.402,186972.81000006478,186983.42,187549.638,,11,by
screen,html.Screen,1_1_1_1_12,2021-04-20T10:34:22.522Z,,,,,,,,,,,,,,,,54,,,,,,,,,,,,,,556.3570001072076,,response,,,,100,,,,,,,Space,keypress(Space),,,,,,,,-- --- ---- --- ------ ----- ------- ---- -- --- ------- --<br>issuing ---------- ------ -- ----- -- ----- -- ---- ------<br>--- ----- --- --- ------ -------- ----- --- ------ ----- --<br>----- ----- ---------- --- --- ------ ------ ---- -- ------<br>------- --- ------ ----- --- ---- ------- -- ---- --- --<br>------- ------,188106.9950000383,188105.9950001072,187532.858,187532.6950000599,187549.638,188115.683,,12,issuing
screen,html.Screen,1_1_1_1_13,2021-04-20T10:34:23.142Z,,,,,,,,,,,,,,,,54,,,,,,,,,,,,,,611.3520001053985,,response,,,,100,,,,,,,Space,keypress(Space),,,,,,,,-- --- ---- --- ------ ----- ------- ---- -- --- ------- --<br>------- government ------ -- ----- -- ----- -- ---- ------<br>--- ----- --- --- ------ -------- ----- --- ------ ----- --<br>----- ----- ---------- --- --- ------ ------ ---- -- ------<br>------- --- ------ ----- --- ---- ------- -- ---- --- --<br>------- ------,188727.87000006065,188727.0350001054,188098.993,188107.255000039,188115.683,188731.587,,13,government
screen,html.Screen,1_1_1_1_14,2021-04-20T10:34:23.710Z,,,,,,,,,,,,,,,,54,,,,,,,,,,,,,,562.9930001034518,,response,,,,100,,,,,,,Space,keypress(Space),,,,,,,,-- --- ---- --- ------ ----- ------- ---- -- --- ------- --<br>------- ---------- bonds. -- ----- -- ----- -- ---- ------<br>--- ----- --- --- ------ -------- ----- --- ------ ----- --<br>----- ----- ---------- --- --- ------ ------ ---- -- ------<br>------- --- ------ ----- --- ---- ------- -- ---- --- --<br>------- ------,189295.49000004772,189294.58000010345,188715.199,188728.02500007674,188731.587,189297.75,,14,bonds.
screen,html.Screen,1_1_1_1_15,2021-04-20T10:34:24.545Z,,,,,,,,,,,,,,,,54,,,,,,,,,,,,,,832.2500000046566,,response,,,,100,,,,,,,Space,keypress(Space),,,,,,,,-- --- ---- --- ------ ----- ------- ---- -- --- ------- --<br>------- ---------- ------ In ----- -- ----- -- ---- ------<br>--- ----- --- --- ------ -------- ----- --- ------ ----- --<br>----- ----- ---------- --- --- ------ ------ ---- -- ------<br>------- --- ------ ----- --- ---- ------- -- ---- --- --<br>------- ------,190130.76000008732,190130.00000000466,189281.566,189295.6450000638,189297.75,190147.373,,15,In
screen,html.Screen,1_1_1_1_16,2021-04-20T10:34:26.265Z,,,,,,,,,,,,,,,,54,,,,,,,,,,,,,,1701.717000032455,,response,,,,100,,,,,,,Space,keypress(Space),,,,,,,,"-- --- ---- --- ------ ----- ------- ---- -- --- ------- --<br>------- ---------- ------ -- 1727, -- ----- -- ---- ------<br>--- ----- --- --- ------ -------- ----- --- ------ ----- --<br>----- ----- ---------- --- --- ------ ------ ---- -- ------<br>------- --- ------ ----- --- ---- ------- -- ---- --- --<br>------- ------",191849.92000006605,191849.09000003245,190130.371,190130.9150001034,190147.373,191862.394,,16,"1727,"
screen,html.Screen,1_1_1_1_17,2021-04-20T10:34:26.964Z,,,,,,,,,,,,,,,,54,,,,,,,,,,,,,,685.936000019632,,response,,,,100,,,,,,,Space,keypress(Space),,,,,,,,-- --- ---- --- ------ ----- ------- ---- -- --- ------- --<br>------- ---------- ------ -- ----- in ----- -- ---- ------<br>--- ----- --- --- ------ -------- ----- --- ------ ----- --<br>----- ----- ---------- --- --- ------ ------ ---- -- ------<br>------- --- ------ ----- --- ---- ------- -- ---- --- --<br>------- ------,192549.0100000752,192548.33000001963,191845.833,191850.07000004407,191862.394,192561.841,,17,in
screen,html.Screen,1_1_1_1_18,2021-04-20T10:34:27.587Z,,,,,,,,,,,,,,,,54,,,,,,,,,,,,,,609.9990000827529,,response,,,,100,,,,,,,Space,keypress(Space),,,,,,,,-- --- ---- --- ------ ----- ------- ---- -- --- ------- --<br>------- ---------- ------ -- ----- -- order -- ---- ------<br>--- ----- --- --- ------ -------- ----- --- ------ ----- --<br>----- ----- ---------- --- --- ------ ------ ---- -- ------<br>------- --- ------ ----- --- ---- ------- -- ---- --- --<br>------- ------,193172.68000007607,193171.84000008274,192545.218,192549.08000002615,192561.841,193177.675,,18,order
screen,html.Screen,1_1_1_1_19,2021-04-20T10:34:28.119Z,,,,,,,,,,,,,,,,54,,,,,,,,,,,,,,525.4600000761566,,response,,,,100,,,,,,,Space,keypress(Space),,,,,,,,-- --- ---- --- ------ ----- ------- ---- -- --- ------- --<br>------- ---------- ------ -- ----- -- ----- to ---- ------<br>--- ----- --- --- ------ -------- ----- --- ------ ----- --<br>----- ----- ---------- --- --- ------ ------ ---- -- ------<br>------- --- ------ ----- --- ---- ------- -- ---- --- --<br>------- ------,193703.93499999773,193703.13500007614,193161.281,193172.83500009216,193177.675,193710.636,,19,to
screen,html.Screen,1_1_1_1_20,2021-04-20T10:34:28.896Z,,,,,,,,,,,,,,,,54,,,,,,,,,,,,,,770.1440000999137,,response,,,,100,,,,,,,Space,keypress(Space),,,,,,,,-- --- ---- --- ------ ----- ------- ---- -- --- ------- --<br>------- ---------- ------ -- ----- -- ----- -- save ------<br>--- ----- --- --- ------ -------- ----- --- ------ ----- --<br>----- ----- ---------- --- --- ------ ------ ---- -- ------<br>------- --- ------ ----- --- ---- ------- -- ---- --- --<br>------- ------,194481.54500010423,194480.7800000999,193694.395,193704.0950000519,193710.636,194493.448,,20,save
screen,html.Screen,1_1_1_1_21,2021-04-20T10:34:29.538Z,,,,,,,,,,,,,,,,54,,,,,,,,,,,,,,629.4970000682806,,response,,,,100,,,,,,,Space,keypress(Space),,,,,,,,"-- --- ---- --- ------ ----- ------- ---- -- --- ------- --<br>------- ---------- ------ -- ----- -- ----- -- ---- money,<br>--- ----- --- --- ------ -------- ----- --- ------ ----- --<br>----- ----- ---------- --- --- ------ ------ ---- -- ------<br>------- --- ------ ----- --- ---- ------- -- ---- --- --<br>------- ------",195123.73000010848,195122.94500006828,194476.784,194481.72500007786,194493.448,195126.014,,21,"money,"
screen,html.Screen,1_1_1_1_22,2021-04-20T10:34:30.199Z,,,,,,,,,,,,,,,,54,,,,,,,,,,,,,,657.2510000928014,,response,,,,100,,,,,,,Space,keypress(Space),,,,,,,,-- --- ---- --- ------ ----- ------- ---- -- --- ------- --<br>------- ---------- ------ -- ----- -- ----- -- ---- ------<br>the ----- --- --- ------ -------- ----- --- ------ ----- --<br>----- ----- ---------- --- --- ------ ------ ---- -- ------<br>------- --- ------ ----- --- ---- ------- -- ---- --- --<br>------- ------,195784.06000009272,195783.2650000928,195109.479,195123.9100000821,195126.014,195792.367,,22,the
screen,html.Screen,1_1_1_1_23,2021-04-20T10:34:30.657Z,,,,,,,,,,,,,,,,54,,,,,,,,,,,,,,449.3580000871734,,response,,,,100,,,,,,,Space,keypress(Space),,,,,,,,-- --- ---- --- ------ ----- ------- ---- -- --- ------- --<br>------- ---------- ------ -- ----- -- ----- -- ---- ------<br>--- state --- --- ------ -------- ----- --- ------ ----- --<br>----- ----- ---------- --- --- ------ ------ ---- -- ------<br>------- --- ------ ----- --- ---- ------- -- ---- --- --<br>------- ------,196242.66500002705,196241.72500008717,195775.868,195784.22000003047,195792.367,196258.528,,23,state
screen,html.Screen,1_1_1_1_24,2021-04-20T10:34:31.254Z,,,,,,,,,,,,,,,,54,,,,,,,,,,,,,,579.49700006278,,response,,,,100,,,,,,,Space,keypress(Space),,,,,,,,-- --- ---- --- ------ ----- ------- ---- -- --- ------- --<br>------- ---------- ------ -- ----- -- ----- -- ---- ------<br>--- ----- cut --- ------ -------- ----- --- ------ ----- --<br>----- ----- ---------- --- --- ------ ------ ---- -- ------<br>------- --- ------ ----- --- ---- ------- -- ---- --- --<br>------- ------,196838.93500000704,196838.02500006277,196241.953,196242.8250000812,196258.528,196841.213,,24,cut
screen,html.Screen,1_1_1_1_25,2021-04-20T10:34:31.694Z,,,,,,,,,,,,,,,,54,,,,,,,,,,,,,,437.2570000193082,,response,,,,100,,,,,,,Space,keypress(Space),,,,,,,,-- --- ---- --- ------ ----- ------- ---- -- --- ------- --<br>------- ---------- ------ -- ----- -- ----- -- ---- ------<br>--- ----- --- the ------ -------- ----- --- ------ ----- --<br>----- ----- ---------- --- --- ------ ------ ---- -- ------<br>------- --- ------ ----- --- ---- ------- -- ---- --- --<br>------- ------,197279.28000001702,197278.4700000193,196824.788,196839.21000000555,196841.213,197290.977,,25,the
screen,html.Screen,1_1_1_1_26,2021-04-20T10:34:32.278Z,,,,,,,,,,,,,,,,54,,,,,,,,,,,,,,571.2430000099703,,response,,,,100,,,,,,,Space,keypress(Space),,,,,,,,-- --- ---- --- ------ ----- ------- ---- -- --- ------- --<br>------- ---------- ------ -- ----- -- ----- -- ---- ------<br>--- ----- --- --- bonds' -------- ----- --- ------ ----- --<br>----- ----- ---------- --- --- ------ ------ ---- -- ------<br>------- --- ------ ----- --- ---- ------- -- ---- --- --<br>------- ------,197863.0300000077,197862.22000000998,197274.597,197279.43500003312,197290.977,197874.076,,26,bonds'
screen,html.Screen,1_1_1_1_27,2021-04-20T10:34:33.133Z,,,,,,,,,,,,,,,,54,,,,,,,,,,,,,,843.1390000696993,,response,,,,100,,,,,,,Space,keypress(Space),,,,,,,,-- --- ---- --- ------ ----- ------- ---- -- --- ------- --<br>------- ---------- ------ -- ----- -- ----- -- ---- ------<br>--- ----- --- --- ------ interest ----- --- ------ ----- --<br>----- ----- ---------- --- --- ------ ------ ---- -- ------<br>------- --- ------ ----- --- ---- ------- -- ---- --- --<br>------- ------,198718.25000003446,198717.2150000697,197857.156,197863.19000006188,197874.076,198722.836,,27,interest
screen,html.Screen,1_1_1_1_28,2021-04-20T10:34:33.796Z,,,,,,,,,,,,,,,,54,,,,,,,,,,,,,,658.0039999979781,,response,,,,100,,,,,,,Space,keypress(Space),,,,,,,,-- --- ---- --- ------ ----- ------- ---- -- --- ------- --<br>------- ---------- ------ -- ----- -- ----- -- ---- ------<br>--- ----- --- --- ------ -------- rate. --- ------ ----- --<br>----- ----- ---------- --- --- ------ ------ ---- -- ------<br>------- --- ------ ----- --- ---- ------- -- ---- --- --<br>------- ------,199381.7750000162,199380.839999998,198706.284,198718.45500008203,198722.836,199389.133,,28,rate.
screen,html.Screen,1_1_1_1_29,2021-04-20T10:34:34.795Z,,,,,,,,,,,,,,,,54,,,,,,,,,,,,,,990.1270000742807,,response,,,,100,,,,,,,Space,keypress(Space),,,,,,,,-- --- ---- --- ------ ----- ------- ---- -- --- ------- --<br>------- ---------- ------ -- ----- -- ----- -- ---- ------<br>--- ----- --- --- ------ -------- ----- The ------ ----- --<br>----- ----- ---------- --- --- ------ ------ ---- -- ------<br>------- --- ------ ----- --- ---- ------- -- ---- --- --<br>------- ------,200380.0250000786,200379.26000007428,199372.293,199381.9300000323,199389.133,200388.077,,29,The
screen,html.Screen,1_1_1_1_30,2021-04-20T10:34:35.421Z,,,,,,,,,,,,,,,,54,,,,,,,,,,,,,,617.7030000067898,,response,,,,100,,,,,,,Space,keypress(Space),,,,,,,,-- --- ---- --- ------ ----- ------- ---- -- --- ------- --<br>------- ---------- ------ -- ----- -- ----- -- ---- ------<br>--- ----- --- --- ------ -------- ----- --- market ----- --<br>----- ----- ---------- --- --- ------ ------ ---- -- ------<br>------- --- ------ ----- --- ---- ------- -- ---- --- --<br>------- ------,201006.69500010554,201005.78000000678,200371.471,200380.1800000947,200388.077,201020.838,,30,market
screen,html.Screen,1_1_1_1_31,2021-04-20T10:34:35.952Z,,,,,,,,,,,,,,,,54,,,,,,,,,,,,,,515.577000096906,,response,,,,100,,,,,,,Space,keypress(Space),,,,,,,,-- --- ---- --- ------ ----- ------- ---- -- --- ------- --<br>------- ---------- ------ -- ----- -- ----- -- ---- ------<br>--- ----- --- --- ------ -------- ----- --- ------ value --<br>----- ----- ---------- --- --- ------ ------ ---- -- ------<br>------- --- ------ ----- --- ---- ------- -- ---- --- --<br>------- ------,201537.33000007924,201536.4150000969,201004.246,201006.86000008136,201020.838,201553.711,,31,value
screen,html.Screen,1_1_1_1_32,2021-04-20T10:34:36.460Z,,,,,,,,,,,,,,,,54,,,,,,,,,,,,,,490.9740000880556,,response,,,,100,,,,,,,Space,keypress(Space),,,,,,,,-- --- ---- --- ------ ----- ------- ---- -- --- ------- --<br>------- ---------- ------ -- ----- -- ----- -- ---- ------<br>--- ----- --- --- ------ -------- ----- --- ------ ----- of<br>----- ----- ---------- --- --- ------ ------ ---- -- ------<br>------- --- ------ ----- --- ---- ------- -- ---- --- --<br>------- ------,202045.5400000792,202044.68500008807,201537.296,201537.50000009313,201553.711,202054.134,,32,of
screen,html.Screen,1_1_1_1_33,2021-04-20T10:34:37.005Z,,,,,,,,,,,,,,,,54,,,,,,,,,,,,,,534.9110000297369,,response,,,,100,,,,,,,Space,keypress(Space),,,,,,,,-- --- ---- --- ------ ----- ------- ---- -- --- ------- --<br>------- ---------- ------ -- ----- -- ----- -- ---- ------<br>--- ----- --- --- ------ -------- ----- --- ------ ----- --<br>these ----- ---------- --- --- ------ ------ ---- -- ------<br>------- --- ------ ----- --- ---- ------- -- ---- --- --<br>------- ------,202589.94500001427,202589.04500002973,202036.908,202045.7100000931,202054.134,202602.83,,33,these
screen,html.Screen,1_1_1_1_34,2021-04-20T10:34:37.499Z,,,,,,,,,,,,,,,,54,,,,,,,,,,,,,,480.51500005004345,,response,,,,100,,,,,,,Space,keypress(Space),,,,,,,,-- --- ---- --- ------ ----- ------- ---- -- --- ------- --<br>------- ---------- ------ -- ----- -- ----- -- ---- ------<br>--- ----- --- --- ------ -------- ----- --- ------ ----- --<br>----- bonds ---------- --- --- ------ ------ ---- -- ------<br>------- --- ------ ----- --- ---- ------- -- ---- --- --<br>------- ------,203084.20000004116,203083.34500005003,202586.172,202590.10000003036,202602.83,203111.95,,34,bonds
screen,html.Screen,1_1_1_1_35,2021-04-20T10:34:38.182Z,,,,,,,,,,,,,,,,54,,,,,,,,,,,,,,654.7700000723707,,response,,,,100,,,,,,,Space,keypress(Space),,,,,,,,"-- --- ---- --- ------ ----- ------- ---- -- --- ------- --<br>------- ---------- ------ -- ----- -- ----- -- ---- ------<br>--- ----- --- --- ------ -------- ----- --- ------ ----- --<br>----- ----- plummeted, --- --- ------ ------ ---- -- ------<br>------- --- ------ ----- --- ---- ------- -- ---- --- --<br>------- ------",203767.66500005033,203766.72000007238,203069.343,203084.35500005726,203111.95,203795.58,,35,"plummeted,"
screen,html.Screen,1_1_1_1_36,2021-04-20T10:34:38.738Z,,,,,,,,,,,,,,,,54,,,,,,,,,,,,,,527.0550001059601,,response,,,,100,,,,,,,Space,keypress(Space),,,,,,,,-- --- ---- --- ------ ----- ------- ---- -- --- ------- --<br>------- ---------- ------ -- ----- -- ----- -- ---- ------<br>--- ----- --- --- ------ -------- ----- --- ------ ----- --<br>----- ----- ---------- and --- ------ ------ ---- -- ------<br>------- --- ------ ----- --- ---- ------- -- ---- --- --<br>------- ------,204323.43500002753,204322.63500010595,203752.234,203767.8250001045,203795.58,204334.76,,36,and
screen,html.Screen,1_1_1_1_37,2021-04-20T10:34:39.379Z,,,,,,,,,,,,,,,,54,,,,,,,,,,,,,,629.0300000670832,,response,,,,100,,,,,,,Space,keypress(Space),,,,,,,,-- --- ---- --- ------ ----- ------- ---- -- --- ------- --<br>------- ---------- ------ -- ----- -- ----- -- ---- ------<br>--- ----- --- --- ------ -------- ----- --- ------ ----- --<br>----- ----- ---------- --- the ------ ------ ---- -- ------<br>------- --- ------ ----- --- ---- ------- -- ---- --- --<br>------- ------,204964.6650000941,204963.7900000671,204318.044,204323.5950000817,204334.76,204967.422,,37,the
screen,html.Screen,1_1_1_1_38,2021-04-20T10:34:39.960Z,,,,,,,,,,,,,,,,54,,,,,,,,,,,,,,577.353000074887,,response,,,,100,,,,,,,Space,keypress(Space),,,,,,,,-- --- ---- --- ------ ----- ------- ---- -- --- ------- --<br>------- ---------- ------ -- ----- -- ----- -- ---- ------<br>--- ----- --- --- ------ -------- ----- --- ------ ----- --<br>----- ----- ---------- --- --- market ------ ---- -- ------<br>------- --- ------ ----- --- ---- ------- -- ---- --- --<br>------- ------,205545.6000000704,205544.77500007488,204950.977,204964.82500003185,204967.422,205550.223,,38,market
screen,html.Screen,1_1_1_1_39,2021-04-20T10:34:40.561Z,,,,,,,,,,,,,,,,54,,,,,,,,,,,,,,595.6370000478346,,response,,,,100,,,,,,,Space,keypress(Space),,,,,,,,-- --- ---- --- ------ ----- ------- ---- -- --- ------- --<br>------- ---------- ------ -- ----- -- ----- -- ---- ------<br>--- ----- --- --- ------ -------- ----- --- ------ ----- --<br>----- ----- ---------- --- --- ------ became ---- -- ------<br>------- --- ------ ----- --- ---- ------- -- ---- --- --<br>------- ------,206146.73000003677,206145.86000004783,205533.607,205545.76500004623,205550.223,206149.702,,39,became
screen,html.Screen,1_1_1_1_40,2021-04-20T10:34:41.151Z,,,,,,,,,,,,,,,,54,,,,,,,,,,,,,,585.8380000233301,,response,,,,100,,,,,,,Space,keypress(Space),,,,,,,,-- --- ---- --- ------ ----- ------- ---- -- --- ------- --<br>------- ---------- ------ -- ----- -- ----- -- ---- ------<br>--- ----- --- --- ------ -------- ----- --- ------ ----- --<br>----- ----- ---------- --- --- ------ ------ wary -- ------<br>------- --- ------ ----- --- ---- ------- -- ---- --- --<br>------- ------,206736.46000004373,206735.54000002332,206133.655,206146.91500004847,206149.702,206749.594,,40,wary
screen,html.Screen,1_1_1_1_41,2021-04-20T10:34:41.774Z,,,,,,,,,,,,,,,,54,,,,,,,,,,,,,,608.8860000535205,,response,,,,100,,,,,,,Space,keypress(Space),,,,,,,,-- --- ---- --- ------ ----- ------- ---- -- --- ------- --<br>------- ---------- ------ -- ----- -- ----- -- ---- ------<br>--- ----- --- --- ------ -------- ----- --- ------ ----- --<br>----- ----- ---------- --- --- ------ ------ ---- of ------<br>------- --- ------ ----- --- ---- ------- -- ---- --- --<br>------- ------,207359.30500004906,207358.48000005353,206732.818,206736.6350000957,206749.594,207365.806,,41,of
screen,html.Screen,1_1_1_1_42,2021-04-20T10:34:42.602Z,,,,,,,,,,,,,,,,54,,,,,,,,,,,,,,820.994000024948,,response,,,,100,,,,,,,Space,keypress(Space),,,,,,,,-- --- ---- --- ------ ----- ------- ---- -- --- ------- --<br>------- ---------- ------ -- ----- -- ----- -- ---- ------<br>--- ----- --- --- ------ -------- ----- --- ------ ----- --<br>----- ----- ---------- --- --- ------ ------ ---- -- French<br>------- --- ------ ----- --- ---- ------- -- ---- --- --<br>------- ------,208187.66000005417,208186.80000002496,207348.9,207359.45000010543,207365.806,208197.918,,42,French
screen,html.Screen,1_1_1_1_43,2021-04-20T10:34:43.247Z,,,,,,,,,,,,,,,,54,,,,,,,,,,,,,,633.5420000157901,,response,,,,100,,,,,,,Space,keypress(Space),,,,,,,,-- --- ---- --- ------ ----- ------- ---- -- --- ------- --<br>------- ---------- ------ -- ----- -- ----- -- ---- ------<br>--- ----- --- --- ------ -------- ----- --- ------ ----- --<br>----- ----- ---------- --- --- ------ ------ ---- -- ------<br>credit. --- ------ ----- --- ---- ------- -- ---- --- --<br>------- ------,208832.28500001132,208831.4600000158,208181.673,208187.80000007246,208197.918,208847.601,,43,credit.
screen,html.Screen,1_1_1_1_44,2021-04-20T10:34:44.127Z,,,,,,,,,,,,,,,,54,,,,,,,,,,,,,,864.0590000299562,,response,,,,100,,,,,,,Space,keypress(Space),,,,,,,,-- --- ---- --- ------ ----- ------- ---- -- --- ------- --<br>------- ---------- ------ -- ----- -- ----- -- ---- ------<br>--- ----- --- --- ------ -------- ----- --- ------ ----- --<br>----- ----- ---------- --- --- ------ ------ ---- -- ------<br>------- The ------ ----- --- ---- ------- -- ---- --- --<br>------- ------,209712.52000005916,209711.66000002995,208830.702,208832.4300000677,208847.601,209730.163,,44,The
screen,html.Screen,1_1_1_1_45,2021-04-20T10:34:44.770Z,,,,,,,,,,,,,,,,54,,,,,,,,,,,,,,624.0070000641863,,response,,,,100,,,,,,,Space,keypress(Space),,,,,,,,-- --- ---- --- ------ ----- ------- ---- -- --- ------- --<br>------- ---------- ------ -- ----- -- ----- -- ---- ------<br>--- ----- --- --- ------ -------- ----- --- ------ ----- --<br>----- ----- ---------- --- --- ------ ------ ---- -- ------<br>------- --- French ----- --- ---- ------- -- ---- --- --<br>------- ------,210355.10000004433,210354.1700000642,209696.898,209712.67000003718,209730.163,210363.015,,45,French
screen,html.Screen,1_1_1_1_46,2021-04-20T10:34:45.518Z,,,,,,,,,,,,,,,,54,,,,,,,,,,,,,,739.3600000167498,,response,,,,100,,,,,,,Space,keypress(Space),,,,,,,,-- --- ---- --- ------ ----- ------- ---- -- --- ------- --<br>------- ---------- ------ -- ----- -- ----- -- ---- ------<br>--- ----- --- --- ------ -------- ----- --- ------ ----- --<br>----- ----- ---------- --- --- ------ ------ ---- -- ------<br>------- --- ------ state --- ---- ------- -- ---- --- --<br>------- ------,211103.28000003938,211102.37500001676,210346.337,210355.35500000697,210363.015,211112.137,,46,state
screen,html.Screen,1_1_1_1_47,2021-04-20T10:34:46.154Z,,,,,,,,,,,,,,,,54,,,,,,,,,,,,,,625.8080000589835,,response,,,,100,,,,,,,Space,keypress(Space),,,,,,,,-- --- ---- --- ------ ----- ------- ---- -- --- ------- --<br>------- ---------- ------ -- ----- -- ----- -- ---- ------<br>--- ----- --- --- ------ -------- ----- --- ------ ----- --<br>----- ----- ---------- --- --- ------ ------ ---- -- ------<br>------- --- ------ ----- was ---- ------- -- ---- --- --<br>------- ------,211739.0000000596,211737.94500005897,211095.616,211103.460000013,211112.137,211744.878,,47,was
screen,html.Screen,1_1_1_1_48,2021-04-20T10:34:46.782Z,,,,,,,,,,,,,,,,54,,,,,,,,,,,,,,621.6870000330091,,response,,,,100,,,,,,,Space,keypress(Space),,,,,,,,-- --- ---- --- ------ ----- ------- ---- -- --- ------- --<br>------- ---------- ------ -- ----- -- ----- -- ---- ------<br>--- ----- --- --- ------ -------- ----- --- ------ ----- --<br>----- ----- ---------- --- --- ------ ------ ---- -- ------<br>------- --- ------ ----- --- left ------- -- ---- --- --<br>------- ------,212367.43500002194,212366.565000033,211728.406,211739.23500010278,211744.878,212378.024,,48,left
screen,html.Screen,1_1_1_1_49,2021-04-20T10:34:47.488Z,,,,,,,,,,,,,,,,54,,,,,,,,,,,,,,694.526000040787,,response,,,,100,,,,,,,Space,keypress(Space),,,,,,,,-- --- ---- --- ------ ----- ------- ---- -- --- ------- --<br>------- ---------- ------ -- ----- -- ----- -- ---- ------<br>--- ----- --- --- ------ -------- ----- --- ------ ----- --<br>----- ----- ---------- --- --- ------ ------ ---- -- ------<br>------- --- ------ ----- --- ---- without -- ---- --- --<br>------- ------,213073.39000003412,213072.5500000408,212361.326,212367.59000003804,212378.024,213076.985,,49,without
screen,html.Screen,1_1_1_1_50,2021-04-20T10:34:48.035Z,,,,,,,,,,,,,,,,54,,,,,,,,,,,,,,542.0400000218069,,response,,,,100,,,,,,,Space,keypress(Space),,,,,,,,-- --- ---- --- ------ ----- ------- ---- -- --- ------- --<br>------- ---------- ------ -- ----- -- ----- -- ---- ------<br>--- ----- --- --- ------ -------- ----- --- ------ ----- --<br>----- ----- ---------- --- --- ------ ------ ---- -- ------<br>------- --- ------ ----- --- ---- ------- an ---- --- --<br>------- ------,213619.90500008687,213619.0250000218,213060.427,213073.60500004143,213076.985,213626.68,,50,an
screen,html.Screen,1_1_1_1_51,2021-04-20T10:34:48.534Z,,,,,,,,,,,,,,,,54,,,,,,,,,,,,,,491.8400000181864,,response,,,,100,,,,,,,Space,keypress(Space),,,,,,,,-- --- ---- --- ------ ----- ------- ---- -- --- ------- --<br>------- ---------- ------ -- ----- -- ----- -- ---- ------<br>--- ----- --- --- ------ -------- ----- --- ------ ----- --<br>----- ----- ---------- --- --- ------ ------ ---- -- ------<br>------- --- ------ ----- --- ---- ------- -- easy --- --<br>------- ------,214119.53500006348,214118.52000001818,213610.051,213620.12000009418,213626.68,214126.191,,51,easy
screen,html.Screen,1_1_1_1_52,2021-04-20T10:34:48.977Z,,,,,,,,,,,,,,,,54,,,,,,,,,,,,,,435.2290000418434,,response,,,,100,,,,,,,Space,keypress(Space),,,,,,,,-- --- ---- --- ------ ----- ------- ---- -- --- ------- --<br>------- ---------- ------ -- ----- -- ----- -- ---- ------<br>--- ----- --- --- ------ -------- ----- --- ------ ----- --<br>----- ----- ---------- --- --- ------ ------ ---- -- ------<br>------- --- ------ ----- --- ---- ------- -- ---- way --<br>------- ------,214562.26500007324,214561.42000004184,214109.79,214119.75500010885,214126.191,214576.077,,52,way
screen,html.Screen,1_1_1_1_53,2021-04-20T10:34:49.459Z,,,,,,,,,,,,,,,,54,,,,,,,,,,,,,,467.06800000328803,,response,,,,100,,,,,,,Space,keypress(Space),,,,,,,,-- --- ---- --- ------ ----- ------- ---- -- --- ------- --<br>------- ---------- ------ -- ----- -- ----- -- ---- ------<br>--- ----- --- --- ------ -------- ----- --- ------ ----- --<br>----- ----- ---------- --- --- ------ ------ ---- -- ------<br>------- --- ------ ----- --- ---- ------- -- ---- --- of<br>------- ------,215044.01500010863,215043.14500000328,214559.508,214562.42000008933,214576.077,215059.029,,53,of
screen,html.Screen,1_1_1_1_54,2021-04-20T10:34:50.306Z,,,,,,,,,,,,,,,,54,,,,,,,,,,,,,,831.6810000651458,,response,,,,100,,,,,,,Space,keypress(Space),,,,,,,,-- --- ---- --- ------ ----- ------- ---- -- --- ------- --<br>------- ---------- ------ -- ----- -- ----- -- ---- ------<br>--- ----- --- --- ------ -------- ----- --- ------ ----- --<br>----- ----- ---------- --- --- ------ ------ ---- -- ------<br>------- --- ------ ----- --- ---- ------- -- ---- --- --<br>raising ------,215891.54500002041,215890.71000006516,215042.261,215044.16500008665,215059.029,215908.008,,54,raising
screen,html.Screen,1_1_1_1_55,2021-04-20T10:34:51.016Z,,,,,,,,,,,,,,,,54,,,,,,,,,,,,,,693.062000091566,,response,,,,100,,,,,,,Space,keypress(Space),,,,,,,,-- --- ---- --- ------ ----- ------- ---- -- --- ------- --<br>------- ---------- ------ -- ----- -- ----- -- ---- ------<br>--- ----- --- --- ------ -------- ----- --- ------ ----- --<br>----- ----- ---------- --- --- ------ ------ ---- -- ------<br>------- --- ------ ----- --- ---- ------- -- ---- --- --<br>------- money.,216601.84000001755,216601.07000009157,215891.433,215891.69499999844,215908.008,216607.296,,55,money.
Item 100,flow.Loop,1_1_1_1,2021-04-20T10:34:51.017Z,,,,,,,,,,,,,,,,,,,,,,,,,,,,,,36395.35400009158,,completion,,,,,E,,,,,,,,,,,silence,,,,,216602.10000001825,216601.07000009157,180189.03,180190.26500009932,180205.716,216607.296,,,
Question 1,html.Screen,1_1_1_2,2021-04-20T10:34:55.493Z,,,,,,,,,,,,,,,,,,,,,,,,,,,true,TRUE,,4470.1840000945085,,response,,,,100,E,,,,,,TRUE,click #choice-1,,,,silence,,,,,221078.64000007976,221077.4800000945,216590.873,216602.20500000287,216607.296,221086.648,,,
Question 2,html.Screen,1_1_1_3,2021-04-20T10:34:59.067Z,,,,,,,,,,,,,,,,,,,,,,,,,,,true,FALSE,,3564.117000027618,,response,,,,100,E,,,,,,FALSE,click #choice-2,,,,silence,,,,,224651.9200000912,224650.7650000276,221070.5,221078.84000008926,221086.648,224667.314,,,
Item 100,flow.Sequence,1_1_1,2021-04-20T10:34:59.067Z,,,,,,,,,,,,,,,,,,,,,,,,,,,,,,54452.8250000276,,completion,,,,,,,,,,,,,,,,,,,,,224652.1650000941,224650.7650000276,170181.135,170182.83500010148,170197.94,224667.314,,,
End of Practice,html.Page,1_1_2,2021-04-20T10:35:06.197Z,,,,,,,,,,,,,,,,,,,,,,,,,,,,,,7114.976000002818,,form submission,,,,,,,,,,,,,,,,,,,,,231782.57999999914,231782.29000000283,224650.6,224652.27000007872,224667.314,231793.989,,,
Practice,flow.Sequence,1_1,2021-04-20T10:35:06.197Z,,,,,,,,,,,,,,,,,,,,,,,,,,,,,,129974.91400000283,,completion,,,,,,,,,,,,,,,,,,,,,231782.80000004452,231782.29000000283,101790.741,101805.45500002336,101807.376,231793.989,,,
Trap_instruction,html.Page,1_2_0,2021-04-20T10:35:11.917Z,,,,,,,,,,,,,,,,,,,,,,,,,,,,,,5708.101000081806,,form submission,,,,,,,,,,,,,,,,,,,,,237502.62500008103,237502.0900000818,231777.723,231782.9400000628,231793.989,237522.403,,,
trap_trial,html.Screen,1_2_1,2021-04-20T10:35:16.234Z,,,,,,,,,,,,,,,,,,,,,,,,,,,true,1,,4296.437000079954,,response,,,,,,,,,,,1,click #choice-1,,,,,,,,,241820.0750000542,241818.84000007994,237489.124,237502.8750000056,237522.403,241835.861,,,
end of trap trial,html.Page,1_2_2,2021-04-20T10:35:18.591Z,,,,,,,,,,,,,,,,,,,,,,,,,,,,,,2340.1990000852675,,form submission,,,,,,,,,,,,,,,,,,,,,244176.37500003912,244176.06000008527,241818.621,241820.34000009298,241835.861,244183.263,,,
Trap 1,flow.Sequence,1_2,2021-04-20T10:35:18.591Z,,,,,,,,,,,,,,,,,,,,,,,,,,,,,,12382.07100008527,,completion,,,,,,,,,,,,,,,,,,,,,244176.63500003982,244176.06000008527,231777.723,231782.90000010747,231793.989,244183.263,,,
Standby,html.Page,1_3_0,2021-04-20T10:35:26.575Z,,,,,,,,,,,,,,,,,,,,,,,,,,,,,,7993.008000000002,,timeout,,,,,,,,,,,,,,,,,,,,,252160.79500003252,252159.581,244166.579,244176.8100000918,244183.263,252176.271,,,
Holding screen,html.Screen,1_3_1_0_0,2021-04-20T10:35:33.568Z,,,,,,,,,,,,,,,,,,,,,,,,,,,,,,6993.875999999989,,timeout,,,,,,,,,,,,,,,,,,,,,259154.03500001412,259153.51,252159.581,252160.920000053,252176.271,259170.147,,,
screen,html.Screen,1_3_1_0_1_0,2021-04-20T10:35:35.366Z,,,,,,,,,,,,,,,,15,,,,,,,,,,,,,,1780.8180000836728,,response,,,,7,E,,,,,,Space,keypress(Space),,,,lyrical,,,,Greg --------- ---------- - --- ------- -- --- ------------<br>----- -- -------- ------- ---- ------ - -------- ---- -----<br>--- ------- ---- -- --- -------- --- - ----- ------ ---- --<br>-------- --- -------- -------- --- -------- ---- -- ----- -<br>-------- ---- --- ---------- --------- -- ------- ------ -<br>--------- ----- -----,260952.04000000376,260950.96500008367,259153.51,259154.26500001922,259170.147,260974.039,,0,Greg
screen,html.Screen,1_3_1_0_1_1,2021-04-20T10:35:35.948Z,,,,,,,,,,,,,,,,15,,,,,,,,,,,,,,559.0909999961732,,response,,,,7,E,,,,,,Space,keypress(Space),,,,lyrical,,,,"---- Anderson, ---------- - --- ------- -- --- ------------<br>----- -- -------- ------- ---- ------ - -------- ---- -----<br>--- ------- ---- -- --- -------- --- - ----- ------ ---- --<br>-------- --- -------- -------- --- -------- ---- -- ----- -<br>-------- ---- --- ---------- --------- -- ------- ------ -<br>--------- ----- -----",261534.09500000998,261533.12999999616,260935.249,260952.32500007842,260974.039,261551.394,,1,"Anderson,"
screen,html.Screen,1_3_1_0_1_2,2021-04-20T10:35:36.688Z,,,,,,,,,,,,,,,,15,,,,,,,,,,,,,,721.0810000052152,,response,,,,7,E,,,,,,Space,keypress(Space),,,,lyrical,,,,---- --------- considered - --- ------- -- --- ------------<br>----- -- -------- ------- ---- ------ - -------- ---- -----<br>--- ------- ---- -- --- -------- --- - ----- ------ ---- --<br>-------- --- -------- -------- --- -------- ---- -- ----- -<br>-------- ---- --- ---------- --------- -- ------- ------ -<br>--------- ----- -----,262273.3050000388,262272.4750000052,261534.759,261534.34500005096,261551.394,262284.452,,2,considered
screen,html.Screen,1_3_1_0_1_3,2021-04-20T10:35:37.316Z,,,,,,,,,,,,,,,,15,,,,,,,,,,,,,,616.1030000583851,,response,,,,7,E,,,,,,Space,keypress(Space),,,,lyrical,,,,---- --------- ---------- a --- ------- -- --- ------------<br>----- -- -------- ------- ---- ------ - -------- ---- -----<br>--- ------- ---- -- --- -------- --- - ----- ------ ---- --<br>-------- --- -------- -------- --- -------- ---- -- ----- -<br>-------- ---- --- ---------- --------- -- ------- ------ -<br>--------- ----- -----,262901.3450000202,262900.5550000584,262267.471,262273.465000093,262284.452,262917.297,,3,a
screen,html.Screen,1_3_1_0_1_4,2021-04-20T10:35:37.961Z,,,,,,,,,,,,,,,,15,,,,,,,,,,,,,,628.808000074001,,response,,,,7,E,,,,,,Space,keypress(Space),,,,lyrical,,,,---- --------- ---------- - key ------- -- --- ------------<br>----- -- -------- ------- ---- ------ - -------- ---- -----<br>--- ------- ---- -- --- -------- --- - ----- ------ ---- --<br>-------- --- -------- -------- --- -------- ---- -- ----- -<br>-------- ---- --- ---------- --------- -- ------- ------ -<br>--------- ----- -----,263546.905000112,263546.105000074,262900.223,262901.5700001037,262917.297,263549.682,,4,key
screen,html.Screen,1_3_1_0_1_5,2021-04-20T10:35:38.644Z,,,,,,,,,,,,,,,,15,,,,,,,,,,,,,,679.0030000964762,,response,,,,7,E,,,,,,Space,keypress(Space),,,,lyrical,,,,---- --------- ---------- - --- witness -- --- ------------<br>----- -- -------- ------- ---- ------ - -------- ---- -----<br>--- ------- ---- -- --- -------- --- - ----- ------ ---- --<br>-------- --- -------- -------- --- -------- ---- -- ----- -<br>-------- ---- --- ---------- --------- -- ------- ------ -<br>--------- ----- -----,264229.5250000898,264228.68500009645,263533.197,263547.0600000117,263549.682,264232.407,,5,witness
screen,html.Screen,1_3_1_0_1_6,2021-04-20T10:35:39.231Z,,,,,,,,,,,,,,,,15,,,,,,,,,,,,,,583.6730000186944,,response,,,,7,E,,,,,,Space,keypress(Space),,,,lyrical,,,,---- --------- ---------- - --- ------- by --- ------------<br>----- -- -------- ------- ---- ------ - -------- ---- -----<br>--- ------- ---- -- --- -------- --- - ----- ------ ---- --<br>-------- --- -------- -------- --- -------- ---- -- ----- -<br>-------- ---- --- ---------- --------- -- ------- ------ -<br>--------- ----- -----,264816.8300000252,264816.0800000187,264216.063,264229.68500002753,264232.407,264831.873,,6,by
screen,html.Screen,1_3_1_0_1_7,2021-04-20T10:35:39.774Z,,,,,,,,,,,,,,,,15,,,,,,,,,,,,,,527.1620000886032,,response,,,,7,E,,,,,,Space,keypress(Space),,,,lyrical,,,,---- --------- ---------- - --- ------- -- the ------------<br>----- -- -------- ------- ---- ------ - -------- ---- -----<br>--- ------- ---- -- --- -------- --- - ----- ------ ---- --<br>-------- --- -------- -------- --- -------- ---- -- ----- -<br>-------- ---- --- ---------- --------- -- ------- ------ -<br>--------- ----- -----,265359.7950000549,265359.0350000886,264815.247,264816.98000000324,264831.873,265364.728,,7,the
screen,html.Screen,1_3_1_0_1_8,2021-04-20T10:35:40.664Z,,,,,,,,,,,,,,,,15,,,,,,,,,,,,,,884.0020001084777,,response,,,,7,E,,,,,,Space,keypress(Space),,,,lyrical,,,,"---- --------- ---------- - --- ------- -- --- prosecution,<br>----- -- -------- ------- ---- ------ - -------- ---- -----<br>--- ------- ---- -- --- -------- --- - ----- ------ ---- --<br>-------- --- -------- -------- --- -------- ---- -- ----- -<br>-------- ---- --- ---------- --------- -- ------- ------ -<br>--------- ----- -----",266250,266248.7300001085,265348.083,265359.95000007097,265364.728,266264.188,,8,"prosecution,"
screen,html.Screen,1_3_1_0_1_9,2021-04-20T10:35:41.384Z,,,,,,,,,,,,,,,,15,,,,,,,,,,,,,,704.4520000937046,,response,,,,7,E,,,,,,Space,keypress(Space),,,,lyrical,,,,---- --------- ---------- - --- ------- -- --- ------------<br>vowed -- -------- ------- ---- ------ - -------- ---- -----<br>--- ------- ---- -- --- -------- --- - ----- ------ ---- --<br>-------- --- -------- -------- --- -------- ---- -- ----- -<br>-------- ---- --- ---------- --------- -- ------- ------ -<br>--------- ----- -----,266969.4400000153,266968.6400000937,266247.595,266250.30500011053,266264.188,266980.003,,9,vowed
screen,html.Screen,1_3_1_0_1_10,2021-04-20T10:35:42.066Z,,,,,,,,,,,,,,,,15,,,,,,,,,,,,,,670.3170000151731,,response,,,,7,E,,,,,,Space,keypress(Space),,,,lyrical,,,,---- --------- ---------- - --- ------- -- --- ------------<br>----- he -------- ------- ---- ------ - -------- ---- -----<br>--- ------- ---- -- --- -------- --- - ----- ------ ---- --<br>-------- --- -------- -------- --- -------- ---- -- ----- -<br>-------- ---- --- ---------- --------- -- ------- ------ -<br>--------- ----- -----,267651.1850000825,267650.3200000152,266963.342,266969.7050000541,266980.003,267662.982,,10,he
screen,html.Screen,1_3_1_0_1_11,2021-04-20T10:35:42.618Z,,,,,,,,,,,,,,,,15,,,,,,,,,,,,,,539.5080000542221,,response,,,,7,E,,,,,,Space,keypress(Space),,,,lyrical,,,,---- --------- ---------- - --- ------- -- --- ------------<br>----- -- wouldn't ------- ---- ------ - -------- ---- -----<br>--- ------- ---- -- --- -------- --- - ----- ------ ---- --<br>-------- --- -------- -------- --- -------- ---- -- ----- -<br>-------- ---- --- ---------- --------- -- ------- ------ -<br>--------- ----- -----,268203.3850000007,268202.49000005424,267646.248,267651.31000010297,267662.982,268212.328,,11,wouldn't
screen,html.Screen,1_3_1_0_1_12,2021-04-20T10:35:43.266Z,,,,,,,,,,,,,,,,15,,,,,,,,,,,,,,638.797000044724,,response,,,,7,E,,,,,,Space,keypress(Space),,,,lyrical,,,,---- --------- ---------- - --- ------- -- --- ------------<br>----- -- -------- testify ---- ------ - -------- ---- -----<br>--- ------- ---- -- --- -------- --- - ----- ------ ---- --<br>-------- --- -------- -------- --- -------- ---- -- ----- -<br>-------- ---- --- ---------- --------- -- ------- ------ -<br>--------- ----- -----,268852.1200000541,268851.1250000447,268195.937,268203.64000007976,268212.328,268862.014,,12,testify
screen,html.Screen,1_3_1_0_1_13,2021-04-20T10:35:44.211Z,,,,,,,,,,,,,,,,15,,,,,,,,,,,,,,933.7660000440083,,response,,,,7,E,,,,,,Space,keypress(Space),,,,lyrical,,,,---- --------- ---------- - --- ------- -- --- ------------<br>----- -- -------- ------- when ------ - -------- ---- -----<br>--- ------- ---- -- --- -------- --- - ----- ------ ---- --<br>-------- --- -------- -------- --- -------- ---- -- ----- -<br>-------- ---- --- ---------- --------- -- ------- ------ -<br>--------- ----- -----,269796.57500004396,269795.78000004403,268845.319,268852.33000002336,268862.014,269811.125,,13,when
screen,html.Screen,1_3_1_0_1_14,2021-04-20T10:35:45.004Z,,,,,,,,,,,,,,,,15,,,,,,,,,,,,,,777.8950000721961,,response,,,,7,E,,,,,,Space,keypress(Space),,,,lyrical,,,,---- --------- ---------- - --- ------- -- --- ------------<br>----- -- -------- ------- ---- served - -------- ---- -----<br>--- ------- ---- -- --- -------- --- - ----- ------ ---- --<br>-------- --- -------- -------- --- -------- ---- -- ----- -<br>-------- ---- --- ---------- --------- -- ------- ------ -<br>--------- ----- -----,270590.0649999967,270589.0200000722,269794.476,269796.73000006005,269811.125,270593.561,,14,served
screen,html.Screen,1_3_1_0_1_15,2021-04-20T10:35:45.686Z,,,,,,,,,,,,,,,,15,,,,,,,,,,,,,,677.1440000317525,,response,,,,7,E,,,,,,Space,keypress(Space),,,,lyrical,,,,---- --------- ---------- - --- ------- -- --- ------------<br>----- -- -------- ------- ---- ------ a -------- ---- -----<br>--- ------- ---- -- --- -------- --- - ----- ------ ---- --<br>-------- --- -------- -------- --- -------- ---- -- ----- -<br>-------- ---- --- ---------- --------- -- ------- ------ -<br>--------- ----- -----,271271.645000088,271270.70500003174,270577.171,270590.385000105,270593.561,271276.233,,15,a
screen,html.Screen,1_3_1_0_1_16,2021-04-20T10:35:46.601Z,,,,,,,,,,,,,,,,15,,,,,,,,,,,,,,909.1220000814646,,response,,,,7,E,,,,,,Space,keypress(Space),,,,lyrical,,,,---- --------- ---------- - --- ------- -- --- ------------<br>----- -- -------- ------- ---- ------ - subpoena ---- -----<br>--- ------- ---- -- --- -------- --- - ----- ------ ---- --<br>-------- --- -------- -------- --- -------- ---- -- ----- -<br>-------- ---- --- ---------- --------- -- ------- ------ -<br>--------- ----- -----,272186.255000066,272185.3550000815,271259.617,271271.94500004407,271276.233,272192.083,,16,subpoena
screen,html.Screen,1_3_1_0_1_17,2021-04-20T10:35:47.329Z,,,,,,,,,,,,,,,,15,,,,,,,,,,,,,,722.0470000483328,,response,,,,7,E,,,,,,Space,keypress(Space),,,,lyrical,,,,---- --------- ---------- - --- ------- -- --- ------------<br>----- -- -------- ------- ---- ------ - -------- last -----<br>--- ------- ---- -- --- -------- --- - ----- ------ ---- --<br>-------- --- -------- -------- --- -------- ---- -- ----- -<br>-------- ---- --- ---------- --------- -- ------- ------ -<br>--------- ----- -----,272914.8550000973,272914.1300000483,272175.917,272186.5500001004,272192.083,272925.065,,17,last
screen,html.Screen,1_3_1_0_1_18,2021-04-20T10:35:48.026Z,,,,,,,,,,,,,,,,15,,,,,,,,,,,,,,686.070000013744,,response,,,,7,E,,,,,,Space,keypress(Space),,,,lyrical,,,,---- --------- ---------- - --- ------- -- --- ------------<br>----- -- -------- ------- ---- ------ - -------- ---- week.<br>--- ------- ---- -- --- -------- --- - ----- ------ ---- --<br>-------- --- -------- -------- --- -------- ---- -- ----- -<br>-------- ---- --- ---------- --------- -- ------- ------ -<br>--------- ----- -----,273612.000000081,273611.13500001375,272908.639,272915.01500003505,272925.065,273624.532,,18,week.
screen,html.Screen,1_3_1_0_1_19,2021-04-20T10:35:48.661Z,,,,,,,,,,,,,,,,15,,,,,,,,,,,,,,620.9380000816891,,response,,,,7,E,,,,,,Space,keypress(Space),,,,lyrical,,,,---- --------- ---------- - --- ------- -- --- ------------<br>----- -- -------- ------- ---- ------ - -------- ---- -----<br>His ------- ---- -- --- -------- --- - ----- ------ ---- --<br>-------- --- -------- -------- --- -------- ---- -- ----- -<br>-------- ---- --- ---------- --------- -- ------- ------ -<br>--------- ----- -----,274246.2950000772,274245.4700000817,273607.772,273612.16500005685,273624.532,274257.283,,19,His
screen,html.Screen,1_3_1_0_1_20,2021-04-20T10:35:49.258Z,,,,,,,,,,,,,,,,15,,,,,,,,,,,,,,585.9270000791294,,response,,,,7,E,,,,,,Space,keypress(Space),,,,lyrical,,,,---- --------- ---------- - --- ------- -- --- ------------<br>----- -- -------- ------- ---- ------ - -------- ---- -----<br>--- lawyers ---- -- --- -------- --- - ----- ------ ---- --<br>-------- --- -------- -------- --- -------- ---- -- ----- -<br>-------- ---- --- ---------- --------- -- ------- ------ -<br>--------- ----- -----,274844.1350000212,274843.2100000791,274240.618,274246.46000005305,274257.283,274856.877,,20,lawyers
screen,html.Screen,1_3_1_0_1_21,2021-04-20T10:35:49.803Z,,,,,,,,,,,,,,,,15,,,,,,,,,,,,,,531.2230000983691,,response,,,,7,E,,,,,,Space,keypress(Space),,,,lyrical,,,,---- --------- ---------- - --- ------- -- --- ------------<br>----- -- -------- ------- ---- ------ - -------- ---- -----<br>--- ------- said -- --- -------- --- - ----- ------ ---- --<br>-------- --- -------- -------- --- -------- ---- -- ----- -<br>-------- ---- --- ---------- --------- -- ------- ------ -<br>--------- ----- -----,275388.9500000514,275388.10000009835,274839.878,274844.299999997,274856.877,275406.003,,21,said
screen,html.Screen,1_3_1_0_1_22,2021-04-20T10:35:50.342Z,,,,,,,,,,,,,,,,15,,,,,,,,,,,,,,520.8420000090264,,response,,,,7,E,,,,,,Space,keypress(Space),,,,lyrical,,,,---- --------- ---------- - --- ------- -- --- ------------<br>----- -- -------- ------- ---- ------ - -------- ---- -----<br>--- ------- ---- he --- -------- --- - ----- ------ ---- --<br>-------- --- -------- -------- --- -------- ---- -- ----- -<br>-------- ---- --- ---------- --------- -- ------- ------ -<br>--------- ----- -----,275927.7750001056,275926.84500000905,275389.396,275389.11500002723,275406.003,275939.108,,22,he
screen,html.Screen,1_3_1_0_1_23,2021-04-20T10:35:50.894Z,,,,,,,,,,,,,,,,15,,,,,,,,,,,,,,539.9520000414923,,response,,,,7,E,,,,,,Space,keypress(Space),,,,lyrical,,,,---- --------- ---------- - --- ------- -- --- ------------<br>----- -- -------- ------- ---- ------ - -------- ---- -----<br>--- ------- ---- -- was -------- --- - ----- ------ ---- --<br>-------- --- -------- -------- --- -------- ---- -- ----- -<br>-------- ---- --- ---------- --------- -- ------- ------ -<br>--------- ----- -----,276479.9500000663,276479.0600000415,275922.19,275927.9450000031,275939.108,276488.44,,23,was
screen,html.Screen,1_3_1_0_1_24,2021-04-20T10:35:51.560Z,,,,,,,,,,,,,,,,15,,,,,,,,,,,,,,656.1950000333018,,response,,,,7,E,,,,,,Space,keypress(Space),,,,lyrical,,,,---- --------- ---------- - --- ------- -- --- ------------<br>----- -- -------- ------- ---- ------ - -------- ---- -----<br>--- ------- ---- -- --- prepared --- - ----- ------ ---- --<br>-------- --- -------- -------- --- -------- ---- -- ----- -<br>-------- ---- --- ---------- --------- -- ------- ------ -<br>--------- ----- -----,277145.4650000669,277144.6350000333,276471.717,276480.1200000802,276488.44,277154.538,,24,prepared
screen,html.Screen,1_3_1_0_1_25,2021-04-20T10:35:52.119Z,,,,,,,,,,,,,,,,15,,,,,,,,,,,,,,548.7670000900398,,response,,,,7,E,,,,,,Space,keypress(Space),,,,lyrical,,,,---- --------- ---------- - --- ------- -- --- ------------<br>----- -- -------- ------- ---- ------ - -------- ---- -----<br>--- ------- ---- -- --- -------- for - ----- ------ ---- --<br>-------- --- -------- -------- --- -------- ---- -- ----- -<br>-------- ---- --- ---------- --------- -- ------- ------ -<br>--------- ----- -----,277704.3100000592,277703.30500009004,277137.82,277145.6300000427,277154.538,277720.653,,25,for
screen,html.Screen,1_3_1_0_1_26,2021-04-20T10:35:52.646Z,,,,,,,,,,,,,,,,15,,,,,,,,,,,,,,509.78700007213047,,response,,,,7,E,,,,,,Space,keypress(Space),,,,lyrical,,,,---- --------- ---------- - --- ------- -- --- ------------<br>----- -- -------- ------- ---- ------ - -------- ---- -----<br>--- ------- ---- -- --- -------- --- a ----- ------ ---- --<br>-------- --- -------- -------- --- -------- ---- -- ----- -<br>-------- ---- --- ---------- --------- -- ------- ------ -<br>--------- ----- -----,278231.1800000025,278230.4400000721,277704.252,277704.5550000621,277720.653,278236.985,,26,a
screen,html.Screen,1_3_1_0_1_27,2021-04-20T10:35:53.112Z,,,,,,,,,,,,,,,,15,,,,,,,,,,,,,,459.4000000174856,,response,,,,7,E,,,,,,Space,keypress(Space),,,,lyrical,,,,---- --------- ---------- - --- ------- -- --- ------------<br>----- -- -------- ------- ---- ------ - -------- ---- -----<br>--- ------- ---- -- --- -------- --- - third ------ ---- --<br>-------- --- -------- -------- --- -------- ---- -- ----- -<br>-------- ---- --- ---------- --------- -- ------- ------ -<br>--------- ----- -----,278697.2450000467,278696.3850000175,278220.286,278231.3350000186,278236.985,278703.076,,27,third
screen,html.Screen,1_3_1_0_1_28,2021-04-20T10:35:53.788Z,,,,,,,,,,,,,,,,15,,,,,,,,,,,,,,670.0840000755852,,response,,,,7,E,,,,,,Space,keypress(Space),,,,lyrical,,,,---- --------- ---------- - --- ------- -- --- ------------<br>----- -- -------- ------- ---- ------ - -------- ---- -----<br>--- ------- ---- -- --- -------- --- - ----- prison ---- --<br>-------- --- -------- -------- --- -------- ---- -- ----- -<br>-------- ---- --- ---------- --------- -- ------- ------ -<br>--------- ----- -----,279373.9700000733,279373.1600000756,278686.577,278697.40500010084,278703.076,279386.053,,28,prison
screen,html.Screen,1_3_1_0_1_29,2021-04-20T10:35:54.234Z,,,,,,,,,,,,,,,,15,,,,,,,,,,,,,,432.87700006674277,,response,,,,7,E,,,,,,Space,keypress(Space),,,,lyrical,,,,---- --------- ---------- - --- ------- -- --- ------------<br>----- -- -------- ------- ---- ------ - -------- ---- -----<br>--- ------- ---- -- --- -------- --- - ----- ------ stay --<br>-------- --- -------- -------- --- -------- ---- -- ----- -<br>-------- ---- --- ---------- --------- -- ------- ------ -<br>--------- ----- -----,279819.5550000528,279818.93000006676,279369.403,279374.15000004694,279386.053,279835.447,,29,stay
screen,html.Screen,1_3_1_0_1_30,2021-04-20T10:35:54.768Z,,,,,,,,,,,,,,,,15,,,,,,,,,,,,,,517.103000068746,,response,,,,7,E,,,,,,Space,keypress(Space),,,,lyrical,,,,---- --------- ---------- - --- ------- -- --- ------------<br>----- -- -------- ------- ---- ------ - -------- ---- -----<br>--- ------- ---- -- --- -------- --- - ----- ------ ---- to<br>-------- --- -------- -------- --- -------- ---- -- ----- -<br>-------- ---- --- ---------- --------- -- ------- ------ -<br>--------- ----- -----,280353.4450000152,280352.55000006873,279818.797,279819.74500010256,279835.447,280368.314,,30,to
screen,html.Screen,1_3_1_0_1_31,2021-04-20T10:35:55.349Z,,,,,,,,,,,,,,,,15,,,,,,,,,,,,,,565.3860000523273,,response,,,,7,E,,,,,,Space,keypress(Space),,,,lyrical,,,,---- --------- ---------- - --- ------- -- --- ------------<br>----- -- -------- ------- ---- ------ - -------- ---- -----<br>--- ------- ---- -- --- -------- --- - ----- ------ ---- --<br>maintain --- -------- -------- --- -------- ---- -- ----- -<br>-------- ---- --- ---------- --------- -- ------- ------ -<br>--------- ----- -----,280934.6000000369,280933.70000005234,280353.112,280353.61000010744,280368.314,280951.18,,31,maintain
screen,html.Screen,1_3_1_0_1_32,2021-04-20T10:35:55.828Z,,,,,,,,,,,,,,,,15,,,,,,,,,,,,,,461.85500009235693,,response,,,,7,E,,,,,,Space,keypress(Space),,,,lyrical,,,,---- --------- ---------- - --- ------- -- --- ------------<br>----- -- -------- ------- ---- ------ - -------- ---- -----<br>--- ------- ---- -- --- -------- --- - ----- ------ ---- --<br>-------- his -------- -------- --- -------- ---- -- ----- -<br>-------- ---- --- ---------- --------- -- ------- ------ -<br>--------- ----- -----,281413.9300000388,281413.03500009235,280934.5,280934.8150000442,280951.18,281417.449,,32,his
screen,html.Screen,1_3_1_0_1_33,2021-04-20T10:35:56.728Z,,,,,,,,,,,,,,,,15,,,,,,,,,,,,,,895.4310000995174,,response,,,,7,E,,,,,,Space,keypress(Space),,,,lyrical,,,,---- --------- ---------- - --- ------- -- --- ------------<br>----- -- -------- ------- ---- ------ - -------- ---- -----<br>--- ------- ---- -- --- -------- --- - ----- ------ ---- --<br>-------- --- silence. -------- --- -------- ---- -- ----- -<br>-------- ---- --- ---------- --------- -- ------- ------ -<br>--------- ----- -----,282313.5800000746,282312.88000009954,281400.758,281414.1150000505,281417.449,282316.61,,33,silence.
screen,html.Screen,1_3_1_0_1_34,2021-04-20T10:35:57.417Z,,,,,,,,,,,,,,,,15,,,,,,,,,,,,,,685.4750000437489,,response,,,,7,E,,,,,,Space,keypress(Space),,,,lyrical,,,,---- --------- ---------- - --- ------- -- --- ------------<br>----- -- -------- ------- ---- ------ - -------- ---- -----<br>--- ------- ---- -- --- -------- --- - ----- ------ ---- --<br>-------- --- -------- Anderson --- -------- ---- -- ----- -<br>-------- ---- --- ---------- --------- -- ------- ------ -<br>--------- ----- -----,283003.0600000173,283002.08500004373,282300.168,282313.6950000189,282316.61,283016.14,,34,Anderson
screen,html.Screen,1_3_1_0_1_35,2021-04-20T10:35:57.945Z,,,,,,,,,,,,,,,,15,,,,,,,,,,,,,,513.6250001011649,,response,,,,7,E,,,,,,Space,keypress(Space),,,,lyrical,,,,---- --------- ---------- - --- ------- -- --- ------------<br>----- -- -------- ------- ---- ------ - -------- ---- -----<br>--- ------- ---- -- --- -------- --- - ----- ------ ---- --<br>-------- --- -------- -------- was -------- ---- -- ----- -<br>-------- ---- --- ---------- --------- -- ------- ------ -<br>--------- ----- -----,283530.58000002056,283529.7650001012,282999.469,283003.2550001051,283016.14,283561.919,,35,was
screen,html.Screen,1_3_1_0_1_36,2021-04-20T10:35:58.527Z,,,,,,,,,,,,,,,,15,,,,,,,,,,,,,,550.2310000590514,,response,,,,7,E,,,,,,Space,keypress(Space),,,,lyrical,,,,---- --------- ---------- - --- ------- -- --- ------------<br>----- -- -------- ------- ---- ------ - -------- ---- -----<br>--- ------- ---- -- --- -------- --- - ----- ------ ---- --<br>-------- --- -------- -------- --- released ---- -- ----- -<br>-------- ---- --- ---------- --------- -- ------- ------ -<br>--------- ----- -----,284113.0150000099,284112.15000005905,283515.611,283530.74000007473,283561.919,284115.035,,36,released
screen,html.Screen,1_3_1_0_1_37,2021-04-20T10:36:04.061Z,,,,,,,,,,,,,,,,15,,,,,,,,,,,,,,5529.960000096995,,response,,,,7,E,,,,,,Space,keypress(Space),,,,lyrical,,,,---- --------- ---------- - --- ------- -- --- ------------<br>----- -- -------- ------- ---- ------ - -------- ---- -----<br>--- ------- ---- -- --- -------- --- - ----- ------ ---- --<br>-------- --- -------- -------- --- -------- July -- ----- -<br>-------- ---- --- ---------- --------- -- ------- ------ -<br>--------- ----- -----,289645.89000004344,289644.99500009697,284098.568,284113.21000009775,284115.035,289660.407,,37,July
screen,html.Screen,1_3_1_0_1_38,2021-04-20T10:36:04.617Z,,,,,,,,,,,,,,,,15,,,,,,,,,,,,,,540.3280000785599,,response,,,,7,E,,,,,,Space,keypress(Space),,,,lyrical,,,,---- --------- ---------- - --- ------- -- --- ------------<br>----- -- -------- ------- ---- ------ - -------- ---- -----<br>--- ------- ---- -- --- -------- --- - ----- ------ ---- --<br>-------- --- -------- -------- --- -------- ---- 20 ----- -<br>-------- ---- --- ---------- --------- -- ------- ------ -<br>--------- ----- -----,290201.6350000631,290200.73500007857,289643.66,289646.04000002146,289660.407,290209.795,,38,20
screen,html.Screen,1_3_1_0_1_39,2021-04-20T10:36:05.469Z,,,,,,,,,,,,,,,,15,,,,,,,,,,,,,,843.7750001055538,,response,,,,7,E,,,,,,Space,keypress(Space),,,,lyrical,,,,---- --------- ---------- - --- ------- -- --- ------------<br>----- -- -------- ------- ---- ------ - -------- ---- -----<br>--- ------- ---- -- --- -------- --- - ----- ------ ---- --<br>-------- --- -------- -------- --- -------- ---- -- after -<br>-------- ---- --- ---------- --------- -- ------- ------ -<br>--------- ----- -----,291054.4050000608,291053.57000010554,290193.349,290201.83000003453,290209.795,291059.036,,39,after
