sender,sender_type,sender_id,timestamp,meta,,Blues,Classical,Country,Dance,Electronic,Folk,Gospel,Hip-Hop,Jazz,Latin,Musical/Film,New-age,Pop,Prolific_id,Provo_ID,R&B,Rap,Reggae,Religious,Rock,Soul,Swing,Traditional,age,artist_name,correct,correctResponse,distraction,duration,education,ended_on,familiarity,gender,headphone_check_performance,item,list,music_frequency,offensiveness,pleasantness,position_correct,preference,response,response_action,snippet_file,song_name,song_rating,sound,stimulus_1,stimulus_2,stimulus_3,text,time_commit,time_end,time_render,time_run,time_show,time_switch,url,word,word_ID
Prolific ID,html.Form,0,2021-04-27T08:34:45.883Z,"{""labjs_version"":""20.2.2"",""labjs_build"":{""flavor"":""production"",""commit"":""a25486e0c714a0ae2ce03ff94b7bb6896854dcfa""},""location"":""https://run.pavlovia.org/mvasilev/prolific_music_f/"",""userAgent"":""Mozilla/5.0 (Windows NT 10.0; Win64; x64) AppleWebKit/537.36 (KHTML, like Gecko) Chrome/87.0.4280.141 Safari/537.36 OPR/73.0.3856.438"",""platform"":""Win32"",""language"":""en-GB"",""locale"":""en-GB"",""timeZone"":""Europe/London"",""timezoneOffset"":-60,""screen_width"":1920,""screen_height"":1080,""scroll_width"":1392,""scroll_height"":919,""window_innerWidth"":1392,""window_innerHeight"":967,""devicePixelRatio"":1}",,,,,,,,,,,,,,,5e31d34fed5a2b1bc092aa01,,,,,,,,,,,,,,,51722.902999999256,,form submission,,,,,,,,,,,,,,,,,,,,,66300.42499999945,66299.60499999925,14465.598,14469.719999999143,14576.702,66306.424,{},,
Introduction,html.Screen,1_0,2021-04-27T08:35:24.438Z,,,,,,,,,,,,,,,,,,,,,,,,,,,,,,,38545.21599999987,,response,,,,,,,,,,,continue,click button,,,,,,,,,104854.11999999997,104851.63999999987,66292.536,66300.69999999978,66306.424,104855.384,,,
Volume calibration,html.Screen,1_1,2021-04-27T08:35:30.783Z,,,,,,,,,,,,,,,,,,,,,,,,,,,,,,,6342.090999999942,,response,,,,,,,,,,,continue,click button,,,,,,,,,111199.84999999998,111197.47499999995,104848.44,104854.23999999967,104855.384,111202.626,,,
Task instructions,html.Screen,1_2,2021-04-27T08:35:36.861Z,,,,,,,,,,,,,,,,,,,,,,,,,,,,,,,6073.663999999786,,response,,,,,,,,,,,continue,click button,,,,,,,,,117277.07999999984,117276.28999999979,111195.682,111200.04499999959,111202.626,117279.083,,,
Sounds,html.Screen,1_3_0_0,2021-04-27T08:35:41.108Z,,,,,,,,,,,,,,,,,,,,,,,,,,,,,,,4250.073000000004,,timeout,,,,,,,,,1,,,,,,,,S,O,I,,121525.00499999951,121522.212,117272.139,117277.26499999972,117279.083,121529.156,,,
Judgement,html.Screen,1_3_0_1,2021-04-27T08:35:43.505Z,,,,,,,,,,,,,,,,,,,,,,,,,,,,true,1,,2391.773999999321,,response,,,,,,,,,1,,1,click #choice-1,,,,,S,O,I,,123921.73999999977,123920.92999999932,121522.212,121525.14999999948,121529.156,123924.997,,,
Trial,flow.Sequence,1_3_0,2021-04-27T08:35:43.505Z,,,,,,,,,,,,,,,,,,,,,,,,,,,,,,,6641.846999999325,,completion,,,,,,,,,1,,,,,,,,S,O,I,,123921.98499999996,123920.92999999932,117272.139,117277.21999999994,117279.083,123924.997,,,
Sounds,html.Screen,1_3_1_0,2021-04-27T08:35:47.753Z,,,,,,,,,,,,,,,,,,,,,,,,,,,,,,,4250.05799999999,,timeout,,,,,,,,,2,,,,,,,,I,S,O,,128169.50499999984,128168.111,123918.053,123922.1749999997,123924.997,128175.055,,,
Judgement,html.Screen,1_3_1_1,2021-04-27T08:35:53.672Z,,,,,,,,,,,,,,,,,,,,,,,,,,,,true,2,,5913.074999999197,,response,,,,,,,,,2,,2,click #choice-2,,,,,I,S,O,,134088.87999999934,134088.1299999992,128168.111,128169.62499999953,128175.055,134091.834,,,
Trial,flow.Sequence,1_3_1,2021-04-27T08:35:53.672Z,,,,,,,,,,,,,,,,,,,,,,,,,,,,,,,10163.132999999187,,completion,,,,,,,,,2,,,,,,,,I,S,O,,134089.07,134088.1299999992,123918.053,123922.06999999963,123924.997,134091.834,,,
Sounds,html.Screen,1_3_2_0,2021-04-27T08:35:57.921Z,,,,,,,,,,,,,,,,,,,,,,,,,,,,,,,4249.984999999986,,timeout,,,,,,,,,3,,,,,,,,O,I,S,,138337.3649999994,138334.875,134084.89,134089.17499999917,134091.834,138341.819,,,
Judgement,html.Screen,1_3_2_1,2021-04-27T08:35:58.573Z,,,,,,,,,,,,,,,,,,,,,,,,,,,,true,3,,646.6309999998484,,response,,,,,,,,,3,,3,click #choice-3,,,,,O,I,S,,138989.70999999985,138988.44999999984,138334.875,138337.45499999987,138341.819,138994.566,,,
Trial,flow.Sequence,1_3_2,2021-04-27T08:35:58.573Z,,,,,,,,,,,,,,,,,,,,,,,,,,,,,,,4896.6159999998345,,completion,,,,,,,,,3,,,,,,,,O,I,S,,138989.8699999994,138988.44999999984,134084.89,134089.14000000004,134091.834,138994.566,,,
Sounds,html.Screen,1_3_3_0,2021-04-27T08:36:02.822Z,,,,,,,,,,,,,,,,,,,,,,,,,,,,,,,4250.106,,timeout,,,,,,,,,3,,,,,,,,I,O,S,,143238.6549999992,143237.714,138987.622,138989.96499999976,138994.566,143244.672,,,
Judgement,html.Screen,1_3_3_1,2021-04-27T08:36:03.303Z,,,,,,,,,,,,,,,,,,,,,,,,,,,,true,3,,473.842999999586,,response,,,,,,,,,3,,3,click #choice-3,,,,,I,O,S,,143719.37499999968,143718.51499999958,143237.714,143238.8549999996,143244.672,143723.846,,,
Trial,flow.Sequence,1_3_3,2021-04-27T08:36:03.303Z,,,,,,,,,,,,,,,,,,,,,,,,,,,,,,,4723.948999999586,,completion,,,,,,,,,3,,,,,,,,I,O,S,,143719.55499999967,143718.51499999958,138987.622,138989.9349999996,138994.566,143723.846,,,
Sounds,html.Screen,1_3_4_0,2021-04-27T08:36:07.552Z,,,,,,,,,,,,,,,,,,,,,,,,,,,,,,,4250.070000000007,,timeout,,,,,,,,,2,,,,,,,,O,S,I,,147968.59499999936,147966.972,143716.902,143719.63999999934,143723.846,147973.916,,,
Judgement,html.Screen,1_3_4_1,2021-04-27T08:36:07.915Z,,,,,,,,,,,,,,,,,,,,,,,,,,,,true,2,,356.59399999977904,,response,,,,,,,,,2,,2,click #choice-2,,,,,O,S,I,,148331.38499999949,148330.50999999978,147966.972,147968.71999999986,147973.916,148335.047,,,
Trial,flow.Sequence,1_3_4,2021-04-27T08:36:07.915Z,,,,,,,,,,,,,,,,,,,,,,,,,,,,,,,4606.663999999786,,completion,,,,,,,,,2,,,,,,,,O,S,I,,148331.55999999962,148330.50999999978,143716.902,143719.615,143723.846,148335.047,,,
Sounds,html.Screen,1_3_5_0,2021-04-27T08:36:12.164Z,,,,,,,,,,,,,,,,,,,,,,,,,,,,,,,4250.043000000005,,timeout,,,,,,,,,1,,,,,,,,S,I,O,,152580.1449999999,152578.146,148328.103,148331.64999999918,148335.047,152585.09,,,
Judgement,html.Screen,1_3_5_1,2021-04-27T08:36:12.716Z,,,,,,,,,,,,,,,,,,,,,,,,,,,,true,1,,546.6699999993143,,response,,,,,,,,,1,,1,click #choice-1,,,,,S,I,O,,153132.50999999946,153131.7599999993,152578.146,152580.22999999957,152585.09,153140.601,,,
Trial,flow.Sequence,1_3_5,2021-04-27T08:36:12.716Z,,,,,,,,,,,,,,,,,,,,,,,,,,,,,,,4796.712999999319,,completion,,,,,,,,,1,,,,,,,,S,I,O,,153132.63499999995,153131.7599999993,148328.103,148331.61999999994,148335.047,153140.601,,,
Task,flow.Loop,1_3,2021-04-27T08:36:12.720Z,,,,,,,,,,,,,,,,,,,,,,,,,,,,,,,35852.67699999931,,completion,,,1,,,,,,,,,,,,,,,,,,153136.56999999966,153131.7599999993,117272.139,117277.17999999913,117279.083,153140.601,,,
Trap,html.Screen,1_4,2021-04-27T08:36:12.722Z,,,,,,,,,,,,,,,,,,,,,,,,,,,,,,,NaN,,skipped,,,,,,,,,,,,,,,,,,,,,153138.42999999996,153131.7599999993,,153138.2799999992,,153140.601,,,
Thanks,html.Screen,1_5,2021-04-27T08:36:19.230Z,,,,,,,,,,,,,,,,,,,,,,,,,,,,,,,6505.2339999993565,,response,,,,,,,,,,,continue,click button,,,,,,,,,159646.67999999982,159645.83499999935,153126.713,153138.5049999999,153140.601,164286.556,,,
Headphone screening,flow.Sequence,1,2021-04-27T08:36:19.230Z,,,,,,,,,,,,,,,,,,,,,,,,,,,,,,,93339.41099999935,,completion,,,,,,,,,,,,,,,,,,,,,159646.89999999973,159645.83499999935,66292.536,66300.66999999963,66306.424,164286.556,,,
Instructions,html.Page,2_0,2021-04-27T08:37:26.957Z,,,,,,,,,,,,,,,,,,,,,,,,,,,,,,,63085.959,,form submission,,,,,,,,,,,,,,,,,,,,,227373.00499999948,227372.515,164237.938,164259.88999999937,164286.556,227377.499,,,
Holding screen,html.Screen,2_1_0_0,2021-04-27T08:37:36.956Z,,,,,,,,,,,,,,,,,,,,,,,,,,,,,,,9999.953999999998,,timeout,,,,,,,,,,,,,,,,,,,,,237372.19999999978,237370.509,227370.555,227373.30499999918,227377.499,237377.453,,,
screen,html.Screen,2_1_0_1_0,2021-04-27T08:37:38.423Z,,,,,,,,,,,,,,,,,53,,,,,,,,,,,,,,1460.3719999995956,,response,,,,99,,,,,,,Space,keypress(Space),,,,,,,,When -- ----- -- ------ - ------- --- ----------<br>------------- ------ ------ ---- ---- ------- ----- -- ----<br>-------- ------- -- ---------- --- - --- ----- ----- ----<br>---- --- --- ----- --- ---- ---- ------- ----- ---- -------<br>--- --- -- ----- -- --- ---- -- --- ---- -- ------ ------<br>--- ----- -- ----,238839.79999999976,238837.8249999996,237370.509,237372.32999999923,237377.453,238842.718,,0,When
screen,html.Screen,2_1_0_1_1,2021-04-27T08:37:38.877Z,,,,,,,,,,,,,,,,,53,,,,,,,,,,,,,,449.761999999173,,response,,,,99,,,,,,,Space,keypress(Space),,,,,,,,---- it ----- -- ------ - ------- --- ----------<br>------------- ------ ------ ---- ---- ------- ----- -- ----<br>-------- ------- -- ---------- --- - --- ----- ----- ----<br>---- --- --- ----- --- ---- ---- ------- ----- ---- -------<br>--- --- -- ----- -- --- ---- -- --- ---- -- ------ ------<br>--- ----- -- ----,239293.08499999932,239292.47999999917,238835.774,238840.01499999978,238842.718,239294.21,,1,it
screen,html.Screen,2_1_0_1_2,2021-04-27T08:37:39.369Z,,,,,,,,,,,,,,,,,53,,,,,,,,,,,,,,490.820000000007,,response,,,,99,,,,,,,Space,keypress(Space),,,,,,,,---- -- comes -- ------ - ------- --- ----------<br>------------- ------ ------ ---- ---- ------- ----- -- ----<br>-------- ------- -- ---------- --- - --- ----- ----- ----<br>---- --- --- ----- --- ---- ---- ------- ----- ---- -------<br>--- --- -- ----- -- --- ---- -- --- ---- -- ------ ------<br>--- ----- -- ----,239785.63999999914,239785.03,239287.266,239293.23999999996,239294.21,239787.273,,2,comes
screen,html.Screen,2_1_0_1_3,2021-04-27T08:37:39.805Z,,,,,,,,,,,,,,,,,53,,,,,,,,,,,,,,433.4269999998505,,response,,,,99,,,,,,,Space,keypress(Space),,,,,,,,---- -- ----- to ------ - ------- --- ----------<br>------------- ------ ------ ---- ---- ------- ----- -- ----<br>-------- ------- -- ---------- --- - --- ----- ----- ----<br>---- --- --- ----- --- ---- ---- ------- ----- ---- -------<br>--- --- -- ----- -- --- ---- -- --- ---- -- ------ ------<br>--- ----- -- ----,240221.35999999955,240220.69999999984,239780.329,239785.72499999974,239787.273,240224.862,,3,to
screen,html.Screen,2_1_0_1_4,2021-04-27T08:37:40.217Z,,,,,,,,,,,,,,,,,53,,,,,,,,,,,,,,408.26799999925424,,response,,,,99,,,,,,,Space,keypress(Space),,,,,,,,---- -- ----- -- having - ------- --- ----------<br>------------- ------ ------ ---- ---- ------- ----- -- ----<br>-------- ------- -- ---------- --- - --- ----- ----- ----<br>---- --- --- ----- --- ---- ---- ------- ----- ---- -------<br>--- --- -- ----- -- --- ---- -- --- ---- -- ------ ------<br>--- ----- -- ----,240633.7049999993,240633.12999999925,240217.918,240221.43499999947,240224.862,240634.536,,4,having
screen,html.Screen,2_1_0_1_5,2021-04-27T08:37:40.589Z,,,,,,,,,,,,,,,,,53,,,,,,,,,,,,,,370.5789999999397,,response,,,,99,,,,,,,Space,keypress(Space),,,,,,,,---- -- ----- -- ------ a ------- --- ----------<br>------------- ------ ------ ---- ---- ------- ----- -- ----<br>-------- ------- -- ---------- --- - --- ----- ----- ----<br>---- --- --- ----- --- ---- ---- ------- ----- ---- -------<br>--- --- -- ----- -- --- ---- -- --- ---- -- ------ ------<br>--- ----- -- ----,241005.6799999993,241005.11499999993,240627.592,240633.88499999928,240634.536,241009.538,,5,a
screen,html.Screen,2_1_0_1_6,2021-04-27T08:37:40.981Z,,,,,,,,,,,,,,,,,53,,,,,,,,,,,,,,387.56199999921955,,response,,,,99,,,,,,,Space,keypress(Space),,,,,,,,---- -- ----- -- ------ - lasting --- ----------<br>------------- ------ ------ ---- ---- ------- ----- -- ----<br>-------- ------- -- ---------- --- - --- ----- ----- ----<br>---- --- --- ----- --- ---- ---- ------- ----- ---- -------<br>--- --- -- ----- -- --- ---- -- --- ---- -- ------ ------<br>--- ----- -- ----,241397.83499999976,241397.09999999922,241002.594,241005.76,241009.538,241398.456,,6,lasting
screen,html.Screen,2_1_0_1_7,2021-04-27T08:37:41.372Z,,,,,,,,,,,,,,,,,53,,,,,,,,,,,,,,389.5839999994496,,response,,,,99,,,,,,,Space,keypress(Space),,,,,,,,---- -- ----- -- ------ - ------- and ----------<br>------------- ------ ------ ---- ---- ------- ----- -- ----<br>-------- ------- -- ---------- --- - --- ----- ----- ----<br>---- --- --- ----- --- ---- ---- ------- ----- ---- -------<br>--- --- -- ----- -- --- ---- -- --- ---- -- ------ ------<br>--- ----- -- ----,241788.76499999932,241788.03999999946,241391.512,241397.94999999958,241398.456,241794.268,,7,and
screen,html.Screen,2_1_0_1_8,2021-04-27T08:37:41.792Z,,,,,,,,,,,,,,,,,53,,,,,,,,,,,,,,413.84199999956763,,response,,,,99,,,,,,,Space,keypress(Space),,,,,,,,---- -- ----- -- ------ - ------- --- fulfilling<br>------------- ------ ------ ---- ---- ------- ----- -- ----<br>-------- ------- -- ---------- --- - --- ----- ----- ----<br>---- --- --- ----- --- ---- ---- ------- ----- ---- -------<br>--- --- -- ----- -- --- ---- -- --- ---- -- ------ ------<br>--- ----- -- ----,242208.71999999962,242208.10999999958,241787.324,241788.8899999998,241794.268,242210.979,,8,fulfilling
screen,html.Screen,2_1_0_1_9,2021-04-27T08:37:42.562Z,,,,,,,,,,,,,,,,,53,,,,,,,,,,,,,,766.5209999999788,,response,,,,99,,,,,,,Space,keypress(Space),,,,,,,,"---- -- ----- -- ------ - ------- --- ----------<br>relationship, ------ ------ ---- ---- ------- ----- -- ----<br>-------- ------- -- ---------- --- - --- ----- ----- ----<br>---- --- --- ----- --- ---- ---- ------- ----- ---- -------<br>--- --- -- ----- -- --- ---- -- --- ---- -- ------ ------<br>--- ----- -- ----",242978.10499999922,242977.49999999997,242204.035,242208.85499999986,242210.979,242981.785,,9,"relationship,"
screen,html.Screen,2_1_0_1_10,2021-04-27T08:37:43.034Z,,,,,,,,,,,,,,,,,53,,,,,,,,,,,,,,467.8249999996624,,response,,,,99,,,,,,,Space,keypress(Space),,,,,,,,---- -- ----- -- ------ - ------- --- ----------<br>------------- common ------ ---- ---- ------- ----- -- ----<br>-------- ------- -- ---------- --- - --- ----- ----- ----<br>---- --- --- ----- --- ---- ---- ------- ----- ---- -------<br>--- --- -- ----- -- --- ---- -- --- ---- -- ------ ------<br>--- ----- -- ----,243450.12999999925,243449.60999999967,242974.841,242978.17999999915,242981.785,243454.034,,10,common
screen,html.Screen,2_1_0_1_11,2021-04-27T08:37:43.445Z,,,,,,,,,,,,,,,,,53,,,,,,,,,,,,,,406.72599999955855,,response,,,,99,,,,,,,Space,keypress(Space),,,,,,,,---- -- ----- -- ------ - ------- --- ----------<br>------------- ------ wisdom ---- ---- ------- ----- -- ----<br>-------- ------- -- ---------- --- - --- ----- ----- ----<br>---- --- --- ----- --- ---- ---- ------- ----- ---- -------<br>--- --- -- ----- -- --- ---- -- --- ---- -- ------ ------<br>--- ----- -- ----,243861.26499999955,243860.75999999957,243447.09,243450.21499999985,243454.034,243863.66,,11,wisdom
screen,html.Screen,2_1_0_1_12,2021-04-27T08:37:43.849Z,,,,,,,,,,,,,,,,,53,,,,,,,,,,,,,,401.64999999976135,,response,,,,99,,,,,,,Space,keypress(Space),,,,,,,,---- -- ----- -- ------ - ------- --- ----------<br>------------- ------ ------ says ---- ------- ----- -- ----<br>-------- ------- -- ---------- --- - --- ----- ----- ----<br>---- --- --- ----- --- ---- ---- ------- ----- ---- -------<br>--- --- -- ----- -- --- ---- -- --- ---- -- ------ ------<br>--- ----- -- ----,244265.88999999966,244265.30999999976,243856.716,243861.34499999933,243863.66,244266.517,,12,says
screen,html.Screen,2_1_0_1_13,2021-04-27T08:37:44.237Z,,,,,,,,,,,,,,,,,53,,,,,,,,,,,,,,386.2729999992007,,response,,,,99,,,,,,,Space,keypress(Space),,,,,,,,---- -- ----- -- ------ - ------- --- ----------<br>------------- ------ ------ ---- that ------- ----- -- ----<br>-------- ------- -- ---------- --- - --- ----- ----- ----<br>---- --- --- ----- --- ---- ---- ------- ----- ---- -------<br>--- --- -- ----- -- --- ---- -- --- ---- -- ------ ------<br>--- ----- -- ----,244653.45999999956,244652.7899999992,244259.573,244265.96999999948,244266.517,244655.4,,13,that
screen,html.Screen,2_1_0_1_14,2021-04-27T08:37:44.618Z,,,,,,,,,,,,,,,,,53,,,,,,,,,,,,,,378.1249999998254,,response,,,,99,,,,,,,Space,keypress(Space),,,,,,,,---- -- ----- -- ------ - ------- --- ----------<br>------------- ------ ------ ---- ---- feeling ----- -- ----<br>-------- ------- -- ---------- --- - --- ----- ----- ----<br>---- --- --- ----- --- ---- ---- ------- ----- ---- -------<br>--- --- -- ----- -- --- ---- -- --- ---- -- ------ ------<br>--- ----- -- ----,245034.27999999985,245033.52499999982,244648.456,244653.55999999974,244655.4,245037.34,,14,feeling
screen,html.Screen,2_1_0_1_15,2021-04-27T08:37:45.001Z,,,,,,,,,,,,,,,,,53,,,,,,,,,,,,,,379.71000000002095,,response,,,,99,,,,,,,Space,keypress(Space),,,,,,,,---- -- ----- -- ------ - ------- --- ----------<br>------------- ------ ------ ---- ---- ------- close -- ----<br>-------- ------- -- ---------- --- - --- ----- ----- ----<br>---- --- --- ----- --- ---- ---- ------- ----- ---- -------<br>--- --- -- ----- -- --- ---- -- --- ---- -- ------ ------<br>--- ----- -- ----,245417.67999999956,245417.05000000002,245030.396,245034.52500000002,245037.34,245419.288,,15,close
screen,html.Screen,2_1_0_1_16,2021-04-27T08:37:45.357Z,,,,,,,,,,,,,,,,,53,,,,,,,,,,,,,,353.79699999981676,,response,,,,99,,,,,,,Space,keypress(Space),,,,,,,,---- -- ----- -- ------ - ------- --- ----------<br>------------- ------ ------ ---- ---- ------- ----- to ----<br>-------- ------- -- ---------- --- - --- ----- ----- ----<br>---- --- --- ----- --- ---- ---- ------- ----- ---- -------<br>--- --- -- ----- -- --- ---- -- --- ---- -- ------ ------<br>--- ----- -- ----,245773.85499999946,245773.08499999982,245412.344,245417.7949999994,245419.288,245780.376,,16,to
screen,html.Screen,2_1_0_1_17,2021-04-27T08:37:45.757Z,,,,,,,,,,,,,,,,,53,,,,,,,,,,,,,,392.7089999994496,,response,,,,99,,,,,,,Space,keypress(Space),,,,,,,,---- -- ----- -- ------ - ------- --- ----------<br>------------- ------ ------ ---- ---- ------- ----- -- your<br>-------- ------- -- ---------- --- - --- ----- ----- ----<br>---- --- --- ----- --- ---- ---- ------- ----- ---- -------<br>--- --- -- ----- -- --- ---- -- --- ---- -- ------ ------<br>--- ----- -- ----,246173.86999999962,246173.08499999944,245773.432,245774.0449999992,245780.376,246176.223,,17,your
screen,html.Screen,2_1_0_1_18,2021-04-27T08:37:46.142Z,,,,,,,,,,,,,,,,,53,,,,,,,,,,,,,,381.1270000000368,,response,,,,99,,,,,,,Space,keypress(Space),,,,,,,,---- -- ----- -- ------ - ------- --- ----------<br>------------- ------ ------ ---- ---- ------- ----- -- ----<br>romantic ------- -- ---------- --- - --- ----- ----- ----<br>---- --- --- ----- --- ---- ---- ------- ----- ---- -------<br>--- --- -- ----- -- --- ---- -- --- ---- -- ------ ------<br>--- ----- -- ----,246557.98499999946,246557.35000000003,246169.279,246174.02499999935,246176.223,246565.122,,18,romantic
screen,html.Screen,2_1_0_1_19,2021-04-27T08:37:46.569Z,,,,,,,,,,,,,,,,,53,,,,,,,,,,,,,,420.14299999934155,,response,,,,99,,,,,,,Space,keypress(Space),,,,,,,,---- -- ----- -- ------ - ------- --- ----------<br>------------- ------ ------ ---- ---- ------- ----- -- ----<br>-------- partner -- ---------- --- - --- ----- ----- ----<br>---- --- --- ----- --- ---- ---- ------- ----- ---- -------<br>--- --- -- ----- -- --- ---- -- --- ---- -- ------ ------<br>--- ----- -- ----,246985.88500000007,246985.26499999934,246558.178,246558.08499999967,246565.122,246988.728,,19,partner
screen,html.Screen,2_1_0_1_20,2021-04-27T08:37:46.906Z,,,,,,,,,,,,,,,,,53,,,,,,,,,,,,,,332.77699999988545,,response,,,,99,,,,,,,Space,keypress(Space),,,,,,,,---- -- ----- -- ------ - ------- --- ----------<br>------------- ------ ------ ---- ---- ------- ----- -- ----<br>-------- ------- is ---------- --- - --- ----- ----- ----<br>---- --- --- ----- --- ---- ---- ------- ----- ---- -------<br>--- --- -- ----- -- --- ---- -- --- ---- -- ------ ------<br>--- ----- -- ----,247322.04999999976,247321.5049999999,246981.784,246985.96999999974,246988.728,247329.101,,20,is
screen,html.Screen,2_1_0_1_21,2021-04-27T08:37:47.329Z,,,,,,,,,,,,,,,,,53,,,,,,,,,,,,,,415.94399999966845,,response,,,,99,,,,,,,Space,keypress(Space),,,,,,,,---- -- ----- -- ------ - ------- --- ----------<br>------------- ------ ------ ---- ---- ------- ----- -- ----<br>-------- ------- -- paramount. --- - --- ----- ----- ----<br>---- --- --- ----- --- ---- ---- ------- ----- ---- -------<br>--- --- -- ----- -- --- ---- -- --- ---- -- ------ ------<br>--- ----- -- ----,247745.6349999993,247745.04499999966,247322.157,247322.13499999943,247329.101,247752.621,,21,paramount.
screen,html.Screen,2_1_0_1_22,2021-04-27T08:37:47.861Z,,,,,,,,,,,,,,,,,53,,,,,,,,,,,,,,524.1439999995928,,response,,,,99,,,,,,,Space,keypress(Space),,,,,,,,---- -- ----- -- ------ - ------- --- ----------<br>------------- ------ ------ ---- ---- ------- ----- -- ----<br>-------- ------- -- ---------- But - --- ----- ----- ----<br>---- --- --- ----- --- ---- ---- ------- ----- ---- -------<br>--- --- -- ----- -- --- ---- -- --- ---- -- ------ ------<br>--- ----- -- ----,248277.3449999995,248276.7649999996,247745.677,247745.73999999938,247752.621,248280.412,,22,But
screen,html.Screen,2_1_0_1_23,2021-04-27T08:37:48.285Z,,,,,,,,,,,,,,,,,53,,,,,,,,,,,,,,421.0629999998491,,response,,,,99,,,,,,,Space,keypress(Space),,,,,,,,---- -- ----- -- ------ - ------- --- ----------<br>------------- ------ ------ ---- ---- ------- ----- -- ----<br>-------- ------- -- ---------- --- a --- ----- ----- ----<br>---- --- --- ----- --- ---- ---- ------- ----- ---- -------<br>--- --- -- ----- -- --- ---- -- --- ---- -- ------ ------<br>--- ----- -- ----,248701.93999999992,248701.47499999986,248273.468,248277.42499999932,248280.412,248704.019,,23,a
screen,html.Screen,2_1_0_1_24,2021-04-27T08:37:48.677Z,,,,,,,,,,,,,,,,,53,,,,,,,,,,,,,,389.08599999992293,,response,,,,99,,,,,,,Space,keypress(Space),,,,,,,,---- -- ----- -- ------ - ------- --- ----------<br>------------- ------ ------ ---- ---- ------- ----- -- ----<br>-------- ------- -- ---------- --- - new ----- ----- ----<br>---- --- --- ----- --- ---- ---- ------- ----- ---- -------<br>--- --- -- ----- -- --- ---- -- --- ---- -- ------ ------<br>--- ----- -- ----,249093.55499999947,249093.10499999992,248697.075,248702.01999999973,248704.019,249099.922,,24,new
screen,html.Screen,2_1_0_1_25,2021-04-27T08:37:49.089Z,,,,,,,,,,,,,,,,,53,,,,,,,,,,,,,,405.1479999992589,,response,,,,99,,,,,,,Space,keypress(Space),,,,,,,,---- -- ----- -- ------ - ------- --- ----------<br>------------- ------ ------ ---- ---- ------- ----- -- ----<br>-------- ------- -- ---------- --- - --- study ----- ----<br>---- --- --- ----- --- ---- ---- ------- ----- ---- -------<br>--- --- -- ----- -- --- ---- -- --- ---- -- ------ ------<br>--- ----- -- ----,249505.63499999954,249505.06999999925,249092.978,249093.63499999925,249099.922,249509.687,,25,study
screen,html.Screen,2_1_0_1_26,2021-04-27T08:37:49.422Z,,,,,,,,,,,,,,,,,53,,,,,,,,,,,,,,327.86799999914365,,response,,,,99,,,,,,,Space,keypress(Space),,,,,,,,---- -- ----- -- ------ - ------- --- ----------<br>------------- ------ ------ ---- ---- ------- ----- -- ----<br>-------- ------- -- ---------- --- - --- ----- finds ----<br>---- --- --- ----- --- ---- ---- ------- ----- ---- -------<br>--- --- -- ----- -- --- ---- -- --- ---- -- ------ ------<br>--- ----- -- ----,249838.09999999995,249837.55499999915,249502.743,249505.73499999972,249509.687,249843.003,,26,finds
screen,html.Screen,2_1_0_1_27,2021-04-27T08:37:49.809Z,,,,,,,,,,,,,,,,,53,,,,,,,,,,,,,,382.28199999954086,,response,,,,99,,,,,,,Space,keypress(Space),,,,,,,,---- -- ----- -- ------ - ------- --- ----------<br>------------- ------ ------ ---- ---- ------- ----- -- ----<br>-------- ------- -- ---------- --- - --- ----- ----- that<br>---- --- --- ----- --- ---- ---- ------- ----- ---- -------<br>--- --- -- ----- -- --- ---- -- --- ---- -- ------ ------<br>--- ----- -- ----,250225.8299999994,250225.28499999954,249836.059,249838.17999999973,249843.003,250231.85,,27,that
screen,html.Screen,2_1_0_1_28,2021-04-27T08:37:50.142Z,,,,,,,,,,,,,,,,,53,,,,,,,,,,,,,,325.97000000000116,,response,,,,99,,,,,,,Space,keypress(Space),,,,,,,,---- -- ----- -- ------ - ------- --- ----------<br>------------- ------ ------ ---- ---- ------- ----- -- ----<br>-------- ------- -- ---------- --- - --- ----- ----- ----<br>it's --- --- ----- --- ---- ---- ------- ----- ---- -------<br>--- --- -- ----- -- --- ---- -- --- ---- -- ------ ------<br>--- ----- -- ----,250558.4549999994,250557.82,250224.906,250226.8349999995,250231.85,250565.175,,28,it's
screen,html.Screen,2_1_0_1_29,2021-04-27T08:37:50.518Z,,,,,,,,,,,,,,,,,53,,,,,,,,,,,,,,368.4499999996624,,response,,,,99,,,,,,,Space,keypress(Space),,,,,,,,---- -- ----- -- ------ - ------- --- ----------<br>------------- ------ ------ ---- ---- ------- ----- -- ----<br>-------- ------- -- ---------- --- - --- ----- ----- ----<br>---- not --- ----- --- ---- ---- ------- ----- ---- -------<br>--- --- -- ----- -- --- ---- -- --- ---- -- ------ ------<br>--- ----- -- ----,250934.22499999998,250933.62499999965,250558.231,250558.55999999947,250565.175,250940.157,,29,not
screen,html.Screen,2_1_0_1_30,2021-04-27T08:37:50.861Z,,,,,,,,,,,,,,,,,53,,,,,,,,,,,,,,336.1329999997979,,response,,,,99,,,,,,,Space,keypress(Space),,,,,,,,---- -- ----- -- ------ - ------- --- ----------<br>------------- ------ ------ ---- ---- ------- ----- -- ----<br>-------- ------- -- ---------- --- - --- ----- ----- ----<br>---- --- how ----- --- ---- ---- ------- ----- ---- -------<br>--- --- -- ----- -- --- ---- -- --- ---- -- ------ ------<br>--- ----- -- ----,251276.99499999927,251276.2899999998,250933.213,250935.1799999995,250940.157,251280.514,,30,how
screen,html.Screen,2_1_0_1_31,2021-04-27T08:37:51.204Z,,,,,,,,,,,,,,,,,53,,,,,,,,,,,,,,339.75099999955273,,response,,,,99,,,,,,,Space,keypress(Space),,,,,,,,---- -- ----- -- ------ - ------- --- ----------<br>------------- ------ ------ ---- ---- ------- ----- -- ----<br>-------- ------- -- ---------- --- - --- ----- ----- ----<br>---- --- --- close --- ---- ---- ------- ----- ---- -------<br>--- --- -- ----- -- --- ---- -- --- ---- -- ------ ------<br>--- ----- -- ----,251620.68,251620.26499999955,251273.57,251277.0899999996,251280.514,251627.673,,31,close
screen,html.Screen,2_1_0_1_32,2021-04-27T08:37:51.525Z,,,,,,,,,,,,,,,,,53,,,,,,,,,,,,,,312.9519999992626,,response,,,,99,,,,,,,Space,keypress(Space),,,,,,,,---- -- ----- -- ------ - ------- --- ----------<br>------------- ------ ------ ---- ---- ------- ----- -- ----<br>-------- ------- -- ---------- --- - --- ----- ----- ----<br>---- --- --- ----- you ---- ---- ------- ----- ---- -------<br>--- --- -- ----- -- --- ---- -- --- ---- -- ------ ------<br>--- ----- -- ----,251941.35499999992,251940.62499999927,251620.729,251620.8199999992,251627.673,251947.158,,32,you
screen,html.Screen,2_1_0_1_33,2021-04-27T08:37:51.822Z,,,,,,,,,,,,,,,,,53,,,,,,,,,,,,,,290.4519999992335,,response,,,,99,,,,,,,Space,keypress(Space),,,,,,,,---- -- ----- -- ------ - ------- --- ----------<br>------------- ------ ------ ---- ---- ------- ----- -- ----<br>-------- ------- -- ---------- --- - --- ----- ----- ----<br>---- --- --- ----- --- feel ---- ------- ----- ---- -------<br>--- --- -- ----- -- --- ---- -- --- ---- -- ------ ------<br>--- ----- -- ----,252238.1949999999,252237.60999999923,251940.214,251941.43499999974,251947.158,252238.852,,33,feel
screen,html.Screen,2_1_0_1_34,2021-04-27T08:37:52.144Z,,,,,,,,,,,,,,,,,53,,,,,,,,,,,,,,321.5129999993369,,response,,,,99,,,,,,,Space,keypress(Space),,,,,,,,---- -- ----- -- ------ - ------- --- ----------<br>------------- ------ ------ ---- ---- ------- ----- -- ----<br>-------- ------- -- ---------- --- - --- ----- ----- ----<br>---- --- --- ----- --- ---- that ------- ----- ---- -------<br>--- --- -- ----- -- --- ---- -- --- ---- -- ------ ------<br>--- ----- -- ----,252560.9199999999,252560.36499999935,252231.908,252238.32499999934,252238.852,252565.177,,34,that
screen,html.Screen,2_1_0_1_35,2021-04-27T08:37:52.445Z,,,,,,,,,,,,,,,,,53,,,,,,,,,,,,,,296.172999999224,,response,,,,99,,,,,,,Space,keypress(Space),,,,,,,,---- -- ----- -- ------ - ------- --- ----------<br>------------- ------ ------ ---- ---- ------- ----- -- ----<br>-------- ------- -- ---------- --- - --- ----- ----- ----<br>---- --- --- ----- --- ---- ---- matters ----- ---- -------<br>--- --- -- ----- -- --- ---- -- --- ---- -- ------ ------<br>--- ----- -- ----,252861.9149999995,252861.34999999922,252558.233,252560.99499999982,252565.177,252863.842,,35,matters
screen,html.Screen,2_1_0_1_36,2021-04-27T08:37:52.728Z,,,,,,,,,,,,,,,,,53,,,,,,,,,,,,,,280.09299999914947,,response,,,,99,,,,,,,Space,keypress(Space),,,,,,,,"---- -- ----- -- ------ - ------- --- ----------<br>------------- ------ ------ ---- ---- ------- ----- -- ----<br>-------- ------- -- ---------- --- - --- ----- ----- ----<br>---- --- --- ----- --- ---- ---- ------- most, ---- -------<br>--- --- -- ----- -- --- ---- -- --- ---- -- ------ ------<br>--- ----- -- ----",253144.51999999984,253143.93499999915,252856.898,252861.9949999993,252863.842,253148.537,,36,"most,"
screen,html.Screen,2_1_0_1_37,2021-04-27T08:37:53.036Z,,,,,,,,,,,,,,,,,53,,,,,,,,,,,,,,303.54799999989336,,response,,,,99,,,,,,,Space,keypress(Space),,,,,,,,---- -- ----- -- ------ - ------- --- ----------<br>------------- ------ ------ ---- ---- ------- ----- -- ----<br>-------- ------- -- ---------- --- - --- ----- ----- ----<br>---- --- --- ----- --- ---- ---- ------- ----- it's -------<br>--- --- -- ----- -- --- ---- -- --- ---- -- ------ ------<br>--- ----- -- ----,253452.96999999936,253452.0849999999,253141.593,253144.59499999974,253148.537,253454.146,,37,it's
screen,html.Screen,2_1_0_1_38,2021-04-27T08:37:53.324Z,,,,,,,,,,,,,,,,,53,,,,,,,,,,,,,,285.6089999995893,,response,,,,99,,,,,,,Space,keypress(Space),,,,,,,,---- -- ----- -- ------ - ------- --- ----------<br>------------- ------ ------ ---- ---- ------- ----- -- ----<br>-------- ------- -- ---------- --- - --- ----- ----- ----<br>---- --- --- ----- --- ---- ---- ------- ----- ---- whether<br>--- --- -- ----- -- --- ---- -- --- ---- -- ------ ------<br>--- ----- -- ----,253740.46499999985,253739.7549999996,253447.202,253453.3249999995,253454.146,253745.77,,38,whether
screen,html.Screen,2_1_0_1_39,2021-04-27T08:37:53.648Z,,,,,,,,,,,,,,,,,53,,,,,,,,,,,,,,318.42499999993015,,response,,,,99,,,,,,,Space,keypress(Space),,,,,,,,---- -- ----- -- ------ - ------- --- ----------<br>------------- ------ ------ ---- ---- ------- ----- -- ----<br>-------- ------- -- ---------- --- - --- ----- ----- ----<br>---- --- --- ----- --- ---- ---- ------- ----- ---- -------<br>you --- -- ----- -- --- ---- -- --- ---- -- ------ ------<br>--- ----- -- ----,254064.89999999938,254064.19499999992,253738.826,253740.5749999998,253745.77,254072.222,,39,you
screen,html.Screen,2_1_0_1_40,2021-04-27T08:37:53.957Z,,,,,,,,,,,,,,,,,53,,,,,,,,,,,,,,300.0879999997269,,response,,,,99,,,,,,,Space,keypress(Space),,,,,,,,---- -- ----- -- ------ - ------- --- ----------<br>------------- ------ ------ ---- ---- ------- ----- -- ----<br>-------- ------- -- ---------- --- - --- ----- ----- ----<br>---- --- --- ----- --- ---- ---- ------- ----- ---- -------<br>--- are -- ----- -- --- ---- -- --- ---- -- ------ ------<br>--- ----- -- ----,254373.02,254372.30999999974,254065.278,254064.9799999992,254072.222,254377.718,,40,are
screen,html.Screen,2_1_0_1_41,2021-04-27T08:37:54.265Z,,,,,,,,,,,,,,,,,53,,,,,,,,,,,,,,303.0569999998261,,response,,,,99,,,,,,,Space,keypress(Space),,,,,,,,---- -- ----- -- ------ - ------- --- ----------<br>------------- ------ ------ ---- ---- ------- ----- -- ----<br>-------- ------- -- ---------- --- - --- ----- ----- ----<br>---- --- --- ----- --- ---- ---- ------- ----- ---- -------<br>--- --- as ----- -- --- ---- -- --- ---- -- ------ ------<br>--- ----- -- ----,254681.33499999932,254680.77499999982,254370.774,254373.21499999962,254377.718,254683.268,,41,as
screen,html.Screen,2_1_0_1_42,2021-04-27T08:37:54.616Z,,,,,,,,,,,,,,,,,53,,,,,,,,,,,,,,348.73199999923236,,response,,,,99,,,,,,,Space,keypress(Space),,,,,,,,---- -- ----- -- ------ - ------- --- ----------<br>------------- ------ ------ ---- ---- ------- ----- -- ----<br>-------- ------- -- ---------- --- - --- ----- ----- ----<br>---- --- --- ----- --- ---- ---- ------- ----- ---- -------<br>--- --- -- close -- --- ---- -- --- ---- -- ------ ------<br>--- ----- -- ----,255032.4049999999,255031.99999999924,254676.324,254682.38499999917,254683.268,255037.443,,42,close
screen,html.Screen,2_1_0_1_43,2021-04-27T08:37:54.901Z,,,,,,,,,,,,,,,,,53,,,,,,,,,,,,,,279.271999999939,,response,,,,99,,,,,,,Space,keypress(Space),,,,,,,,---- -- ----- -- ------ - ------- --- ----------<br>------------- ------ ------ ---- ---- ------- ----- -- ----<br>-------- ------- -- ---------- --- - --- ----- ----- ----<br>---- --- --- ----- --- ---- ---- ------- ----- ---- -------<br>--- --- -- ----- as --- ---- -- --- ---- -- ------ ------<br>--- ----- -- ----,255317.34999999934,255316.71499999994,255030.499,255032.50499999922,255037.443,255322.169,,43,as
screen,html.Screen,2_1_0_1_44,2021-04-27T08:37:55.220Z,,,,,,,,,,,,,,,,,53,,,,,,,,,,,,,,313.7309999993304,,response,,,,99,,,,,,,Space,keypress(Space),,,,,,,,---- -- ----- -- ------ - ------- --- ----------<br>------------- ------ ------ ---- ---- ------- ----- -- ----<br>-------- ------- -- ---------- --- - --- ----- ----- ----<br>---- --- --- ----- --- ---- ---- ------- ----- ---- -------<br>--- --- -- ----- -- you ---- -- --- ---- -- ------ ------<br>--- ----- -- ----,255636.61499999944,255635.89999999932,255315.225,255317.45499999943,255322.169,255641.607,,44,you
screen,html.Screen,2_1_0_1_45,2021-04-27T08:37:55.441Z,,,,,,,,,,,,,,,,,53,,,,,,,,,,,,,,214.81299999917974,,response,,,,99,,,,,,,Space,keypress(Space),,,,,,,,---- -- ----- -- ------ - ------- --- ----------<br>------------- ------ ------ ---- ---- ------- ----- -- ----<br>-------- ------- -- ---------- --- - --- ----- ----- ----<br>---- --- --- ----- --- ---- ---- ------- ----- ---- -------<br>--- --- -- ----- -- --- want -- --- ---- -- ------ ------<br>--- ----- -- ----,255857.29999999967,255856.41999999917,255634.663,255636.68499999947,255641.607,255863.848,,45,want
screen,html.Screen,2_1_0_1_46,2021-04-27T08:37:55.773Z,,,,,,,,,,,,,,,,,53,,,,,,,,,,,,,,323.8670000000275,,response,,,,99,,,,,,,Space,keypress(Space),,,,,,,,---- -- ----- -- ------ - ------- --- ----------<br>------------- ------ ------ ---- ---- ------- ----- -- ----<br>-------- ------- -- ---------- --- - --- ----- ----- ----<br>---- --- --- ----- --- ---- ---- ------- ----- ---- -------<br>--- --- -- ----- -- --- ---- to --- ---- -- ------ ------<br>--- ----- -- ----,256189.14999999924,256187.71500000003,255856.904,255857.41999999937,255863.848,256190.2,,46,to
screen,html.Screen,2_1_0_1_47,2021-04-27T08:37:56.072Z,,,,,,,,,,,,,,,,,53,,,,,,,,,,,,,,297.54499999943073,,response,,,,99,,,,,,,Space,keypress(Space),,,,,,,,"---- -- ----- -- ------ - ------- --- ----------<br>------------- ------ ------ ---- ---- ------- ----- -- ----<br>-------- ------- -- ---------- --- - --- ----- ----- ----<br>---- --- --- ----- --- ---- ---- ------- ----- ---- -------<br>--- --- -- ----- -- --- ---- -- be, ---- -- ------ ------<br>--- ----- -- ----",256488.44999999984,256487.74499999944,256183.256,256189.22499999916,256190.2,256495.853,,47,"be,"
screen,html.Screen,2_1_0_1_48,2021-04-27T08:37:56.364Z,,,,,,,,,,,,,,,,,53,,,,,,,,,,,,,,284.6469999998517,,response,,,,99,,,,,,,Space,keypress(Space),,,,,,,,---- -- ----- -- ------ - ------- --- ----------<br>------------- ------ ------ ---- ---- ------- ----- -- ----<br>-------- ------- -- ---------- --- - --- ----- ----- ----<br>---- --- --- ----- --- ---- ---- ------- ----- ---- -------<br>--- --- -- ----- -- --- ---- -- --- even -- ------ ------<br>--- ----- -- ----,256780.9749999997,256780.49999999985,256488.909,256488.51999999987,256495.853,256787.515,,48,even
screen,html.Screen,2_1_0_1_49,2021-04-27T08:37:56.648Z,,,,,,,,,,,,,,,,,53,,,,,,,,,,,,,,276.619999999617,,response,,,,99,,,,,,,Space,keypress(Space),,,,,,,,---- -- ----- -- ------ - ------- --- ----------<br>------------- ------ ------ ---- ---- ------- ----- -- ----<br>-------- ------- -- ---------- --- - --- ----- ----- ----<br>---- --- --- ----- --- ---- ---- ------- ----- ---- -------<br>--- --- -- ----- -- --- ---- -- --- ---- if ------ ------<br>--- ----- -- ----,257064.86499999938,257064.13499999963,256780.571,256781.04999999958,256787.515,257072.175,,49,if
screen,html.Screen,2_1_0_1_50,2021-04-27T08:37:56.888Z,,,,,,,,,,,,,,,,,53,,,,,,,,,,,,,,232.1399999994319,,response,,,,99,,,,,,,Space,keypress(Space),,,,,,,,---- -- ----- -- ------ - ------- --- ----------<br>------------- ------ ------ ---- ---- ------- ----- -- ----<br>-------- ------- -- ---------- --- - --- ----- ----- ----<br>---- --- --- ----- --- ---- ---- ------- ----- ---- -------<br>--- --- -- ----- -- --- ---- -- --- ---- -- that's ------<br>--- ----- -- ----,257304.74499999947,257304.31499999942,257065.231,257064.9399999993,257072.175,257308.3,,50,that's
screen,html.Screen,2_1_0_1_51,2021-04-27T08:37:57.188Z,,,,,,,,,,,,,,,,,53,,,,,,,,,,,,,,296.02999999921303,,response,,,,99,,,,,,,Space,keypress(Space),,,,,,,,---- -- ----- -- ------ - ------- --- ----------<br>------------- ------ ------ ---- ---- ------- ----- -- ----<br>-------- ------- -- ---------- --- - --- ----- ----- ----<br>---- --- --- ----- --- ---- ---- ------- ----- ---- -------<br>--- --- -- ----- -- --- ---- -- --- ---- -- ------ really<br>--- ----- -- ----,257604.82499999943,257604.3299999992,257301.356,257304.82499999925,257308.3,257606.973,,51,really
screen,html.Screen,2_1_0_1_52,2021-04-27T08:37:57.516Z,,,,,,,,,,,,,,,,,53,,,,,,,,,,,,,,325.2519999995711,,response,,,,99,,,,,,,Space,keypress(Space),,,,,,,,---- -- ----- -- ------ - ------- --- ----------<br>------------- ------ ------ ---- ---- ------- ----- -- ----<br>-------- ------- -- ---------- --- - --- ----- ----- ----<br>---- --- --- ----- --- ---- ---- ------- ----- ---- -------<br>--- --- -- ----- -- --- ---- -- --- ---- -- ------ ------<br>not ----- -- ----,257932.6199999996,257932.22499999957,257600.029,257604.89999999935,257606.973,257933.314,,52,not
screen,html.Screen,2_1_0_1_53,2021-04-27T08:37:57.861Z,,,,,,,,,,,,,,,,,53,,,,,,,,,,,,,,343.28099999934784,,response,,,,99,,,,,,,Space,keypress(Space),,,,,,,,---- -- ----- -- ------ - ------- --- ----------<br>------------- ------ ------ ---- ---- ------- ----- -- ----<br>-------- ------- -- ---------- --- - --- ----- ----- ----<br>---- --- --- ----- --- ---- ---- ------- ----- ---- -------<br>--- --- -- ----- -- --- ---- -- --- ---- -- ------ ------<br>--- close -- ----,258277.29999999976,258276.59499999936,257926.37,257932.76499999955,257933.314,258280.601,,53,close
screen,html.Screen,2_1_0_1_54,2021-04-27T08:37:58.156Z,,,,,,,,,,,,,,,,,53,,,,,,,,,,,,,,291.70399999970687,,response,,,,99,,,,,,,Space,keypress(Space),,,,,,,,---- -- ----- -- ------ - ------- --- ----------<br>------------- ------ ------ ---- ---- ------- ----- -- ----<br>-------- ------- -- ---------- --- - --- ----- ----- ----<br>---- --- --- ----- --- ---- ---- ------- ----- ---- -------<br>--- --- -- ----- -- --- ---- -- --- ---- -- ------ ------<br>--- ----- at ----,258572.83999999982,258572.3049999997,258273.657,258277.38499999943,258280.601,258579.113,,54,at
screen,html.Screen,2_1_0_1_55,2021-04-27T08:37:58.525Z,,,,,,,,,,,,,,,,,53,,,,,,,,,,,,,,361.7719999999681,,response,,,,99,,,,,,,Space,keypress(Space),,,,,,,,---- -- ----- -- ------ - ------- --- ----------<br>------------- ------ ------ ---- ---- ------- ----- -- ----<br>-------- ------- -- ---------- --- - --- ----- ----- ----<br>---- --- --- ----- --- ---- ---- ------- ----- ---- -------<br>--- --- -- ----- -- --- ---- -- --- ---- -- ------ ------<br>--- ----- -- all.,258941.44499999948,258940.88499999998,258572.169,258572.94,258579.113,258947.193,,55,all.
Item 99,flow.Loop,2_1_0_1,2021-04-27T08:37:58.525Z,,,,,,,,,,,,,,,,,,,,,,,,,,,,,,,21563.43199999997,,completion,,,,,F,,,,,,,,,,,silence,,,,,258941.60999999987,258940.88499999998,237370.509,237372.29499999923,237377.453,258947.193,,,
Question 1,html.Screen,2_1_0_2,2021-04-27T08:38:01.742Z,,,,,,,,,,,,,,,,,,,,,,,,,,,,false,FALSE,,3210.8069999994186,,response,,,,99,F,,,,,,TRUE,click #choice-1,,,,silence,,,,,262158.95,262157.9999999994,258940.249,258941.68499999976,258947.193,262162.534,,,
Question 2,html.Screen,2_1_0_3,2021-04-27T08:38:06.595Z,,,,,,,,,,,,,,,,,,,,,,,,,,,,true,TRUE,,4847.690999999992,,response,,,,99,F,,,,,,TRUE,click #choice-1,,,,silence,,,,,267011.03499999957,267010.225,262155.59,262159.0299999998,262162.534,267016.724,,,
Item 99,flow.Sequence,2_1_0,2021-04-27T08:38:06.595Z,,,,,,,,,,,,,,,,,,,,,,,,,,,,,,,39632.725999999966,,completion,,,,,,,,,,,,,,,,,,,,,267011.2099999997,267010.225,227370.555,227373.22499999937,227377.499,267016.724,,,
Holding screen,html.Screen,2_1_1_0,2021-04-27T08:38:16.596Z,,,,,,,,,,,,,,,,,,,,,,,,,,,,,,,10000.119000000006,,timeout,,,,,,,,,,,,,,,,,,,,,277012.19499999937,277009.899,267009.78,267011.3149999997,267016.724,277016.843,,,
screen,html.Screen,2_1_1_1_0,2021-04-27T08:38:17.624Z,,,,,,,,,,,,,,,,,54,,,,,,,,,,,,,,1023.1069999994361,,response,,,,100,,,,,,,Space,keypress(Space),,,,,,,,At --- ---- --- ------ ----- ------- ---- -- --- ------- --<br>------- ---------- ------ -- ----- -- ----- -- ---- ------<br>--- ----- --- --- ------ -------- ----- --- ------ ----- --<br>----- ----- ---------- --- --- ------ ------ ---- -- ------<br>------- --- ------ ----- --- ---- ------- -- ---- --- --<br>------- ------,278040.5899999996,278039.94999999943,277009.899,277012.33499999944,277016.843,278044.582,,0,At
screen,html.Screen,2_1_1_1_1,2021-04-27T08:38:18.081Z,,,,,,,,,,,,,,,,,54,,,,,,,,,,,,,,452.0929999994114,,response,,,,100,,,,,,,Space,keypress(Space),,,,,,,,-- the ---- --- ------ ----- ------- ---- -- --- ------- --<br>------- ---------- ------ -- ----- -- ----- -- ---- ------<br>--- ----- --- --- ------ -------- ----- --- ------ ----- --<br>----- ----- ---------- --- --- ------ ------ ---- -- ------<br>------- --- ------ ----- --- ---- ------- -- ---- --- --<br>------- ------,278497.5199999999,278496.6749999994,278037.638,278040.6699999994,278044.582,278502.968,,1,the
screen,html.Screen,2_1_1_1_2,2021-04-27T08:38:18.524Z,,,,,,,,,,,,,,,,,54,,,,,,,,,,,,,,437.2619999992312,,response,,,,100,,,,,,,Space,keypress(Space),,,,,,,,-- --- time --- ------ ----- ------- ---- -- --- ------- --<br>------- ---------- ------ -- ----- -- ----- -- ---- ------<br>--- ----- --- --- ------ -------- ----- --- ------ ----- --<br>----- ----- ---------- --- --- ------ ------ ---- -- ------<br>------- --- ------ ----- --- ---- ------- -- ---- --- --<br>------- ------,278940.9649999998,278940.2299999992,278496.024,278497.5949999998,278502.968,278947.374,,2,time
screen,html.Screen,2_1_1_1_3,2021-04-27T08:38:18.940Z,,,,,,,,,,,,,,,,,54,,,,,,,,,,,,,,408.905999999959,,response,,,,100,,,,,,,Space,keypress(Space),,,,,,,,-- --- ---- the ------ ----- ------- ---- -- --- ------- --<br>------- ---------- ------ -- ----- -- ----- -- ---- ------<br>--- ----- --- --- ------ -------- ----- --- ------ ----- --<br>----- ----- ---------- --- --- ------ ------ ---- -- ------<br>------- --- ------ ----- --- ---- ------- -- ---- --- --<br>------- ------,279356.855,279356.27999999997,278940.43,278941.05499999935,278947.374,279364.054,,3,the
screen,html.Screen,2_1_1_1_4,2021-04-27T08:38:19.621Z,,,,,,,,,,,,,,,,,54,,,,,,,,,,,,,,672.410999999207,,response,,,,100,,,,,,,Space,keypress(Space),,,,,,,,-- --- ---- --- French ----- ------- ---- -- --- ------- --<br>------- ---------- ------ -- ----- -- ----- -- ---- ------<br>--- ----- --- --- ------ -------- ----- --- ------ ----- --<br>----- ----- ---------- --- --- ------ ------ ---- -- ------<br>------- --- ------ ----- --- ---- ------- -- ---- --- --<br>------- ------,280037.04500000004,280036.4649999992,279357.11,279356.92500000005,279364.054,280037.689,,4,French
screen,html.Screen,2_1_1_1_5,2021-04-27T08:38:20.017Z,,,,,,,,,,,,,,,,,54,,,,,,,,,,,,,,394.5809999993071,,response,,,,100,,,,,,,Space,keypress(Space),,,,,,,,-- --- ---- --- ------ crown ------- ---- -- --- ------- --<br>------- ---------- ------ -- ----- -- ----- -- ---- ------<br>--- ----- --- --- ------ -------- ----- --- ------ ----- --<br>----- ----- ---------- --- --- ------ ------ ---- -- ------<br>------- --- ------ ----- --- ---- ------- -- ---- --- --<br>------- ------,280433.0149999996,280432.2699999993,280030.745,280037.1249999998,280037.689,280440.471,,5,crown
screen,html.Screen,2_1_1_1_6,2021-04-27T08:38:20.508Z,,,,,,,,,,,,,,,,,54,,,,,,,,,,,,,,483.76899999933084,,response,,,,100,,,,,,,Space,keypress(Space),,,,,,,,-- --- ---- --- ------ ----- secured ---- -- --- ------- --<br>------- ---------- ------ -- ----- -- ----- -- ---- ------<br>--- ----- --- --- ------ -------- ----- --- ------ ----- --<br>----- ----- ---------- --- --- ------ ------ ---- -- ------<br>------- --- ------ ----- --- ---- ------- -- ---- --- --<br>------- ------,280924.89999999997,280924.23999999935,280433.527,280433.14499999996,280440.471,280926.658,,6,secured
screen,html.Screen,2_1_1_1_7,2021-04-27T08:38:20.944Z,,,,,,,,,,,,,,,,,54,,,,,,,,,,,,,,433.46199999935925,,response,,,,100,,,,,,,Space,keypress(Space),,,,,,,,-- --- ---- --- ------ ----- ------- much -- --- ------- --<br>------- ---------- ------ -- ----- -- ----- -- ---- ------<br>--- ----- --- --- ------ -------- ----- --- ------ ----- --<br>----- ----- ---------- --- --- ------ ------ ---- -- ------<br>------- --- ------ ----- --- ---- ------- -- ---- --- --<br>------- ------,281360.6649999992,281360.11999999936,280919.714,280924.9999999993,280926.658,281364.085,,7,much
screen,html.Screen,2_1_1_1_8,2021-04-27T08:38:21.332Z,,,,,,,,,,,,,,,,,54,,,,,,,,,,,,,,383.50499999994645,,response,,,,100,,,,,,,Space,keypress(Space),,,,,,,,-- --- ---- --- ------ ----- ------- ---- of --- ------- --<br>------- ---------- ------ -- ----- -- ----- -- ---- ------<br>--- ----- --- --- ------ -------- ----- --- ------ ----- --<br>----- ----- ---------- --- --- ------ ------ ---- -- ------<br>------- --- ------ ----- --- ---- ------- -- ---- --- --<br>------- ------,281748.14999999944,281747.58999999997,281357.141,281360.7349999993,281364.085,281753.021,,8,of
screen,html.Screen,2_1_1_1_9,2021-04-27T08:38:21.684Z,,,,,,,,,,,,,,,,,54,,,,,,,,,,,,,,347.16399999934947,,response,,,,100,,,,,,,Space,keypress(Space),,,,,,,,-- --- ---- --- ------ ----- ------- ---- -- its ------- --<br>------- ---------- ------ -- ----- -- ----- -- ---- ------<br>--- ----- --- --- ------ -------- ----- --- ------ ----- --<br>----- ----- ---------- --- --- ------ ------ ---- -- ------<br>------- --- ------ ----- --- ---- ------- -- ---- --- --<br>------- ------,282100.70999999973,282100.18499999936,281746.077,281748.2199999995,281753.021,282107.211,,9,its
screen,html.Screen,2_1_1_1_10,2021-04-27T08:38:22.044Z,,,,,,,,,,,,,,,,,54,,,,,,,,,,,,,,352.40899999963585,,response,,,,100,,,,,,,Space,keypress(Space),,,,,,,,-- --- ---- --- ------ ----- ------- ---- -- --- revenue --<br>------- ---------- ------ -- ----- -- ----- -- ---- ------<br>--- ----- --- --- ------ -------- ----- --- ------ ----- --<br>----- ----- ---------- --- --- ------ ------ ---- -- ------<br>------- --- ------ ----- --- ---- ------- -- ---- --- --<br>------- ------,282460.25999999983,282459.61999999965,282100.267,282100.7899999995,282107.211,282461.343,,10,revenue
screen,html.Screen,2_1_1_1_11,2021-04-27T08:38:22.442Z,,,,,,,,,,,,,,,,,54,,,,,,,,,,,,,,396.74199999985285,,response,,,,100,,,,,,,Space,keypress(Space),,,,,,,,-- --- ---- --- ------ ----- ------- ---- -- --- ------- by<br>------- ---------- ------ -- ----- -- ----- -- ---- ------<br>--- ----- --- --- ------ -------- ----- --- ------ ----- --<br>----- ----- ---------- --- --- ------ ------ ---- -- ------<br>------- --- ------ ----- --- ---- ------- -- ---- --- --<br>------- ------,282858.60499999946,282858.08499999985,282454.399,282460.4249999993,282461.343,282864.086,,11,by
screen,html.Screen,2_1_1_1_12,2021-04-27T08:38:22.792Z,,,,,,,,,,,,,,,,,54,,,,,,,,,,,,,,343.4989999991958,,response,,,,100,,,,,,,Space,keypress(Space),,,,,,,,-- --- ---- --- ------ ----- ------- ---- -- --- ------- --<br>issuing ---------- ------ -- ----- -- ----- -- ---- ------<br>--- ----- --- --- ------ -------- ----- --- ------ ----- --<br>----- ----- ---------- --- --- ------ ------ ---- -- ------<br>------- --- ------ ----- --- ---- ------- -- ---- --- --<br>------- ------,283208.17999999964,283207.5849999992,282857.142,282858.6999999998,282864.086,283211.302,,12,issuing
screen,html.Screen,2_1_1_1_13,2021-04-27T08:38:23.142Z,,,,,,,,,,,,,,,,,54,,,,,,,,,,,,,,346.87799999996787,,response,,,,100,,,,,,,Space,keypress(Space),,,,,,,,-- --- ---- --- ------ ----- ------- ---- -- --- ------- --<br>------- government ------ -- ----- -- ----- -- ---- ------<br>--- ----- --- --- ------ -------- ----- --- ------ ----- --<br>----- ----- ---------- --- --- ------ ------ ---- -- ------<br>------- --- ------ ----- --- ---- ------- -- ---- --- --<br>------- ------,283558.7999999998,283558.18,283204.358,283208.25499999954,283211.302,283565.577,,13,government
screen,html.Screen,2_1_1_1_14,2021-04-27T08:38:23.515Z,,,,,,,,,,,,,,,,,54,,,,,,,,,,,,,,365.6679999997723,,response,,,,100,,,,,,,Space,keypress(Space),,,,,,,,-- --- ---- --- ------ ----- ------- ---- -- --- ------- --<br>------- ---------- bonds. -- ----- -- ----- -- ---- ------<br>--- ----- --- --- ------ -------- ----- --- ------ ----- --<br>----- ----- ---------- --- --- ------ ------ ---- -- ------<br>------- --- ------ ----- --- ---- ------- -- ---- --- --<br>------- ------,283931.7999999994,283931.24499999976,283558.633,283558.9449999998,283565.577,283933.526,,14,bonds.
screen,html.Screen,2_1_1_1_15,2021-04-27T08:38:24.047Z,,,,,,,,,,,,,,,,,54,,,,,,,,,,,,,,529.6489999998594,,response,,,,100,,,,,,,Space,keypress(Space),,,,,,,,-- --- ---- --- ------ ----- ------- ---- -- --- ------- --<br>------- ---------- ------ In ----- -- ----- -- ---- ------<br>--- ----- --- --- ------ -------- ----- --- ------ ----- --<br>----- ----- ---------- --- --- ------ ------ ---- -- ------<br>------- --- ------ ----- --- ---- ------- -- ---- --- --<br>------- ------,284463.7949999997,284463.1749999999,283926.582,283931.9149999992,283933.526,284468.346,,15,In
screen,html.Screen,2_1_1_1_16,2021-04-27T08:38:24.443Z,,,,,,,,,,,,,,,,,54,,,,,,,,,,,,,,390.66399999917485,,response,,,,100,,,,,,,Space,keypress(Space),,,,,,,,"-- --- ---- --- ------ ----- ------- ---- -- --- ------- --<br>------- ---------- ------ -- 1727, -- ----- -- ---- ------<br>--- ----- --- --- ------ -------- ----- --- ------ ----- --<br>----- ----- ---------- --- --- ------ ------ ---- -- ------<br>------- --- ------ ----- --- ---- ------- -- ---- --- --<br>------- ------",284859.5599999999,284859.0099999992,284461.402,284463.92500000005,284468.346,284864.145,,16,"1727,"
screen,html.Screen,2_1_1_1_17,2021-04-27T08:38:25.103Z,,,,,,,,,,,,,,,,,54,,,,,,,,,,,,,,654.0700000000652,,response,,,,100,,,,,,,Space,keypress(Space),,,,,,,,-- --- ---- --- ------ ----- ------- ---- -- --- ------- --<br>------- ---------- ------ -- ----- in ----- -- ---- ------<br>--- ----- --- --- ------ -------- ----- --- ------ ----- --<br>----- ----- ---------- --- --- ------ ------ ---- -- ------<br>------- --- ------ ----- --- ---- ------- -- ---- --- --<br>------- ------,285518.9,285518.2150000001,284857.201,284860.3499999999,284864.145,285523.854,,17,in
screen,html.Screen,2_1_1_1_18,2021-04-27T08:38:25.551Z,,,,,,,,,,,,,,,,,54,,,,,,,,,,,,,,442.6859999994631,,response,,,,100,,,,,,,Space,keypress(Space),,,,,,,,-- --- ---- --- ------ ----- ------- ---- -- --- ------- --<br>------- ---------- ------ -- ----- -- order -- ---- ------<br>--- ----- --- --- ------ -------- ----- --- ------ ----- --<br>----- ----- ---------- --- --- ------ ------ ---- -- ------<br>------- --- ------ ----- --- ---- ------- -- ---- --- --<br>------- ------,285967.49999999977,285966.53999999946,285516.91,285518.975,285523.854,285968.338,,18,order
screen,html.Screen,2_1_1_1_19,2021-04-27T08:38:25.962Z,,,,,,,,,,,,,,,,,54,,,,,,,,,,,,,,409.706999999471,,response,,,,100,,,,,,,Space,keypress(Space),,,,,,,,-- --- ---- --- ------ ----- ------- ---- -- --- ------- --<br>------- ---------- ------ -- ----- -- ----- to ---- ------<br>--- ----- --- --- ------ -------- ----- --- ------ ----- --<br>----- ----- ---------- --- --- ------ ------ ---- -- ------<br>------- --- ------ ----- --- ---- ------- -- ---- --- --<br>------- ------,286378.78499999986,286378.04499999946,285961.394,285967.57499999966,285968.338,286384.983,,19,to
screen,html.Screen,2_1_1_1_20,2021-04-27T08:38:26.275Z,,,,,,,,,,,,,,,,,54,,,,,,,,,,,,,,306.03199999942444,,response,,,,100,,,,,,,Space,keypress(Space),,,,,,,,-- --- ---- --- ------ ----- ------- ---- -- --- ------- --<br>------- ---------- ------ -- ----- -- ----- -- save ------<br>--- ----- --- --- ------ -------- ----- --- ------ ----- --<br>----- ----- ---------- --- --- ------ ------ ---- -- ------<br>------- --- ------ ----- --- ---- ------- -- ---- --- --<br>------- ------,286691.50999999966,286691.01499999943,286378.039,286378.9449999995,286384.983,286697.477,,20,save
screen,html.Screen,2_1_1_1_21,2021-04-27T08:38:26.691Z,,,,,,,,,,,,,,,,,54,,,,,,,,,,,,,,409.3579999996,,response,,,,100,,,,,,,Space,keypress(Space),,,,,,,,"-- --- ---- --- ------ ----- ------- ---- -- --- ------- --<br>------- ---------- ------ -- ----- -- ----- -- ---- money,<br>--- ----- --- --- ------ -------- ----- --- ------ ----- --<br>----- ----- ---------- --- --- ------ ------ ---- -- ------<br>------- --- ------ ----- --- ---- ------- -- ---- --- --<br>------- ------",287107.70499999943,287106.8349999996,286690.533,286691.605,286697.477,287114.12,,21,"money,"
screen,html.Screen,2_1_1_1_22,2021-04-27T08:38:27.003Z,,,,,,,,,,,,,,,,,54,,,,,,,,,,,,,,305.01499999919906,,response,,,,100,,,,,,,Space,keypress(Space),,,,,,,,-- --- ---- --- ------ ----- ------- ---- -- --- ------- --<br>------- ---------- ------ -- ----- -- ----- -- ---- ------<br>the ----- --- --- ------ -------- ----- --- ------ ----- --<br>----- ----- ---------- --- --- ------ ------ ---- -- ------<br>------- --- ------ ----- --- ---- ------- -- ---- --- --<br>------- ------,287419.71499999997,287419.1349999992,287107.176,287107.79999999976,287114.12,287426.62,,22,the
screen,html.Screen,2_1_1_1_23,2021-04-27T08:38:27.322Z,,,,,,,,,,,,,,,,,54,,,,,,,,,,,,,,311.48499999946216,,response,,,,100,,,,,,,Space,keypress(Space),,,,,,,,-- --- ---- --- ------ ----- ------- ---- -- --- ------- --<br>------- ---------- ------ -- ----- -- ----- -- ---- ------<br>--- state --- --- ------ -------- ----- --- ------ ----- --<br>----- ----- ---------- --- --- ------ ------ ---- -- ------<br>------- --- ------ ----- --- ---- ------- -- ---- --- --<br>------- ------,287738.7199999994,287738.10499999946,287419.676,287419.8149999993,287426.62,287739.161,,23,state
screen,html.Screen,2_1_1_1_24,2021-04-27T08:38:27.656Z,,,,,,,,,,,,,,,,,54,,,,,,,,,,,,,,332.1489999993355,,response,,,,100,,,,,,,Space,keypress(Space),,,,,,,,-- --- ---- --- ------ ----- ------- ---- -- --- ------- --<br>------- ---------- ------ -- ----- -- ----- -- ---- ------<br>--- ----- cut --- ------ -------- ----- --- ------ ----- --<br>----- ----- ---------- --- --- ------ ------ ---- -- ------<br>------- --- ------ ----- --- ---- ------- -- ---- --- --<br>------- ------,288071.9149999995,288071.30999999936,287732.217,287738.7949999993,287739.161,288072.536,,24,cut
screen,html.Screen,2_1_1_1_25,2021-04-27T08:38:28.040Z,,,,,,,,,,,,,,,,,54,,,,,,,,,,,,,,383.0689999991446,,response,,,,100,,,,,,,Space,keypress(Space),,,,,,,,-- --- ---- --- ------ ----- ------- ---- -- --- ------- --<br>------- ---------- ------ -- ----- -- ----- -- ---- ------<br>--- ----- --- the ------ -------- ----- --- ------ ----- --<br>----- ----- ---------- --- --- ------ ------ ---- -- ------<br>------- --- ------ ----- --- ---- ------- -- ---- --- --<br>------- ------,288456.1399999993,288455.60499999917,288065.592,288072.0249999995,288072.536,288461.443,,25,the
screen,html.Screen,2_1_1_1_26,2021-04-27T08:38:28.336Z,,,,,,,,,,,,,,,,,54,,,,,,,,,,,,,,289.84699999919394,,response,,,,100,,,,,,,Space,keypress(Space),,,,,,,,-- --- ---- --- ------ ----- ------- ---- -- --- ------- --<br>------- ---------- ------ -- ----- -- ----- -- ---- ------<br>--- ----- --- --- bonds' -------- ----- --- ------ ----- --<br>----- ----- ---------- --- --- ------ ------ ---- -- ------<br>------- --- ------ ----- --- ---- ------- -- ---- --- --<br>------- ------,288751.94499999995,288751.2899999992,288454.499,288456.22000000003,288461.443,288753.06,,26,bonds'
screen,html.Screen,2_1_1_1_27,2021-04-27T08:38:28.682Z,,,,,,,,,,,,,,,,,54,,,,,,,,,,,,,,345.1249999998254,,response,,,,100,,,,,,,Space,keypress(Space),,,,,,,,-- --- ---- --- ------ ----- ------- ---- -- --- ------- --<br>------- ---------- ------ -- ----- -- ----- -- ---- ------<br>--- ----- --- --- ------ interest ----- --- ------ ----- --<br>----- ----- ---------- --- --- ------ ------ ---- -- ------<br>------- --- ------ ----- --- ---- ------- -- ---- --- --<br>------- ------,289098.87999999954,289098.1849999998,288746.116,288752.0399999994,288753.06,289100.344,,27,interest
screen,html.Screen,2_1_1_1_28,2021-04-27T08:38:29.056Z,,,,,,,,,,,,,,,,,54,,,,,,,,,,,,,,370.9709999997867,,response,,,,100,,,,,,,Space,keypress(Space),,,,,,,,-- --- ---- --- ------ ----- ------- ---- -- --- ------- --<br>------- ---------- ------ -- ----- -- ----- -- ---- ------<br>--- ----- --- --- ------ -------- rate. --- ------ ----- --<br>----- ----- ---------- --- --- ------ ------ ---- -- ------<br>------- --- ------ ----- --- ---- ------- -- ---- --- --<br>------- ------,289471.89499999967,289471.31499999977,289093.4,289098.9899999995,289100.344,289475.32,,28,rate.
screen,html.Screen,2_1_1_1_29,2021-04-27T08:38:29.656Z,,,,,,,,,,,,,,,,,54,,,,,,,,,,,,,,596.1749999992317,,response,,,,100,,,,,,,Space,keypress(Space),,,,,,,,-- --- ---- --- ------ ----- ------- ---- -- --- ------- --<br>------- ---------- ------ -- ----- -- ----- -- ---- ------<br>--- ----- --- --- ------ -------- ----- The ------ ----- --<br>----- ----- ---------- --- --- ------ ------ ---- -- ------<br>------- --- ------ ----- --- ---- ------- -- ---- --- --<br>------- ------,290071.9849999996,290071.49499999924,289468.376,289472.0099999995,289475.32,290072.513,,29,The
screen,html.Screen,2_1_1_1_30,2021-04-27T08:38:30.051Z,,,,,,,,,,,,,,,,,54,,,,,,,,,,,,,,394.69699999981094,,response,,,,100,,,,,,,Space,keypress(Space),,,,,,,,-- --- ---- --- ------ ----- ------- ---- -- --- ------- --<br>------- ---------- ------ -- ----- -- ----- -- ---- ------<br>--- ----- --- --- ------ -------- ----- --- market ----- --<br>----- ----- ---------- --- --- ------ ------ ---- -- ------<br>------- --- ------ ----- --- ---- ------- -- ---- --- --<br>------- ------,290467.74499999994,290467.2099999998,290065.569,290072.06499999936,290072.513,290468.405,,30,market
screen,html.Screen,2_1_1_1_31,2021-04-27T08:38:30.372Z,,,,,,,,,,,,,,,,,54,,,,,,,,,,,,,,318.9749999997439,,response,,,,100,,,,,,,Space,keypress(Space),,,,,,,,-- --- ---- --- ------ ----- ------- ---- -- --- ------- --<br>------- ---------- ------ -- ----- -- ----- -- ---- ------<br>--- ----- --- --- ------ -------- ----- --- ------ value --<br>----- ----- ---------- --- --- ------ ------ ---- -- ------<br>------- --- ------ ----- --- ---- ------- -- ---- --- --<br>------- ------,290788.055,290787.3799999998,290461.461,290467.81999999983,290468.405,290794.796,,31,value
screen,html.Screen,2_1_1_1_32,2021-04-27T08:38:30.714Z,,,,,,,,,,,,,,,,,54,,,,,,,,,,,,,,335.53899999987334,,response,,,,100,,,,,,,Space,keypress(Space),,,,,,,,-- --- ---- --- ------ ----- ------- ---- -- --- ------- --<br>------- ---------- ------ -- ----- -- ----- -- ---- ------<br>--- ----- --- --- ------ -------- ----- --- ------ ----- of<br>----- ----- ---------- --- --- ------ ------ ---- -- ------<br>------- --- ------ ----- --- ---- ------- -- ---- --- --<br>------- ------,291130.8599999993,291130.33499999985,290787.852,290788.1299999999,290794.796,291135.098,,32,of
screen,html.Screen,2_1_1_1_33,2021-04-27T08:38:31.023Z,,,,,,,,,,,,,,,,,54,,,,,,,,,,,,,,303.4419999992242,,response,,,,100,,,,,,,Space,keypress(Space),,,,,,,,-- --- ---- --- ------ ----- ------- ---- -- --- ------- --<br>------- ---------- ------ -- ----- -- ----- -- ---- ------<br>--- ----- --- --- ------ -------- ----- --- ------ ----- --<br>these ----- ---------- --- --- ------ ------ ---- -- ------<br>------- --- ------ ----- --- ---- ------- -- ---- --- --<br>------- ------,291439.1749999995,291438.5399999992,291128.154,291130.9549999996,291135.098,291440.563,,33,these
screen,html.Screen,2_1_1_1_34,2021-04-27T08:38:31.379Z,,,,,,,,,,,,,,,,,54,,,,,,,,,,,,,,354.71199999947567,,response,,,,100,,,,,,,Space,keypress(Space),,,,,,,,-- --- ---- --- ------ ----- ------- ---- -- --- ------- --<br>------- ---------- ------ -- ----- -- ----- -- ---- ------<br>--- ----- --- --- ------ -------- ----- --- ------ ----- --<br>----- bonds ---------- --- --- ------ ------ ---- -- ------<br>------- --- ------ ----- --- ---- ------- -- ---- --- --<br>------- ------,291795.82499999925,291795.2749999995,291433.619,291439.26499999996,291440.563,291801.701,,34,bonds
screen,html.Screen,2_1_1_1_35,2021-04-27T08:38:31.720Z,,,,,,,,,,,,,,,,,54,,,,,,,,,,,,,,333.79399999952875,,response,,,,100,,,,,,,Space,keypress(Space),,,,,,,,"-- --- ---- --- ------ ----- ------- ---- -- --- ------- --<br>------- ---------- ------ -- ----- -- ----- -- ---- ------<br>--- ----- --- --- ------ -------- ----- --- ------ ----- --<br>----- ----- plummeted, --- --- ------ ------ ---- -- ------<br>------- --- ------ ----- --- ---- ------- -- ---- --- --<br>------- ------",292135.9649999995,292135.49499999953,291794.757,291795.9649999993,291801.701,292142.018,,35,"plummeted,"
screen,html.Screen,2_1_1_1_36,2021-04-27T08:38:32.048Z,,,,,,,,,,,,,,,,,54,,,,,,,,,,,,,,321.3919999994105,,response,,,,100,,,,,,,Space,keypress(Space),,,,,,,,-- --- ---- --- ------ ----- ------- ---- -- --- ------- --<br>------- ---------- ------ -- ----- -- ----- -- ---- ------<br>--- ----- --- --- ------ -------- ----- --- ------ ----- --<br>----- ----- ---------- and --- ------ ------ ---- -- ------<br>------- --- ------ ----- --- ---- ------- -- ---- --- --<br>------- ------,292463.89,292463.4099999994,292135.074,292136.05499999993,292142.018,292468.377,,36,and
screen,html.Screen,2_1_1_1_37,2021-04-27T08:38:32.380Z,,,,,,,,,,,,,,,,,54,,,,,,,,,,,,,,327.5329999998212,,response,,,,100,,,,,,,Space,keypress(Space),,,,,,,,-- --- ---- --- ------ ----- ------- ---- -- --- ------- --<br>------- ---------- ------ -- ----- -- ----- -- ---- ------<br>--- ----- --- --- ------ -------- ----- --- ------ ----- --<br>----- ----- ---------- --- the ------ ------ ---- -- ------<br>------- --- ------ ----- --- ---- ------- -- ---- --- --<br>------- ------,292796.38499999966,292795.9099999998,292461.433,292464.00999999966,292468.377,292801.732,,37,the
screen,html.Screen,2_1_1_1_38,2021-04-27T08:38:32.692Z,,,,,,,,,,,,,,,,,54,,,,,,,,,,,,,,305.95799999980954,,response,,,,100,,,,,,,Space,keypress(Space),,,,,,,,-- --- ---- --- ------ ----- ------- ---- -- --- ------- --<br>------- ---------- ------ -- ----- -- ----- -- ---- ------<br>--- ----- --- --- ------ -------- ----- --- ------ ----- --<br>----- ----- ---------- --- --- market ------ ---- -- ------<br>------- --- ------ ----- --- ---- ------- -- ---- --- --<br>------- ------,293108.43999999994,293107.6899999998,292794.788,292796.46499999944,292801.732,293114.261,,38,market
screen,html.Screen,2_1_1_1_39,2021-04-27T08:38:32.987Z,,,,,,,,,,,,,,,,,54,,,,,,,,,,,,,,288.4639999999199,,response,,,,100,,,,,,,Space,keypress(Space),,,,,,,,-- --- ---- --- ------ ----- ------- ---- -- --- ------- --<br>------- ---------- ------ -- ----- -- ----- -- ---- ------<br>--- ----- --- --- ------ -------- ----- --- ------ ----- --<br>----- ----- ---------- --- --- ------ became ---- -- ------<br>------- --- ------ ----- --- ---- ------- -- ---- --- --<br>------- ------,293403.33499999996,293402.7249999999,293107.317,293108.5299999995,293114.261,293405.863,,39,became
screen,html.Screen,2_1_1_1_40,2021-04-27T08:38:33.332Z,,,,,,,,,,,,,,,,,54,,,,,,,,,,,,,,341.6669999996084,,response,,,,100,,,,,,,Space,keypress(Space),,,,,,,,-- --- ---- --- ------ ----- ------- ---- -- --- ------- --<br>------- ---------- ------ -- ----- -- ----- -- ---- ------<br>--- ----- --- --- ------ -------- ----- --- ------ ----- --<br>----- ----- ---------- --- --- ------ ------ wary -- ------<br>------- --- ------ ----- --- ---- ------- -- ---- --- --<br>------- ------,293748.08499999926,293747.5299999996,293398.919,293403.4099999999,293405.863,293753.15,,40,wary
screen,html.Screen,2_1_1_1_41,2021-04-27T08:38:33.707Z,,,,,,,,,,,,,,,,,54,,,,,,,,,,,,,,370.2099999995553,,response,,,,100,,,,,,,Space,keypress(Space),,,,,,,,-- --- ---- --- ------ ----- ------- ---- -- --- ------- --<br>------- ---------- ------ -- ----- -- ----- -- ---- ------<br>--- ----- --- --- ------ -------- ----- --- ------ ----- --<br>----- ----- ---------- --- --- ------ ------ ---- of ------<br>------- --- ------ ----- --- ---- ------- -- ---- --- --<br>------- ------,294123.76999999926,294123.3599999996,293746.206,293748.1599999992,293753.15,294128.152,,41,of
screen,html.Screen,2_1_1_1_42,2021-04-27T08:38:34.043Z,,,,,,,,,,,,,,,,,54,,,,,,,,,,,,,,329.9579999995767,,response,,,,100,,,,,,,Space,keypress(Space),,,,,,,,-- --- ---- --- ------ ----- ------- ---- -- --- ------- --<br>------- ---------- ------ -- ----- -- ----- -- ---- ------<br>--- ----- --- --- ------ -------- ----- --- ------ ----- --<br>----- ----- ---------- --- --- ------ ------ ---- -- French<br>------- --- ------ ----- --- ---- ------- -- ---- --- --<br>------- ------,294458.9049999995,294458.1099999996,294121.208,294123.85,294128.152,294461.463,,42,French
screen,html.Screen,2_1_1_1_43,2021-04-27T08:38:34.460Z,,,,,,,,,,,,,,,,,54,,,,,,,,,,,,,,414.4769999998971,,response,,,,100,,,,,,,Space,keypress(Space),,,,,,,,-- --- ---- --- ------ ----- ------- ---- -- --- ------- --<br>------- ---------- ------ -- ----- -- ----- -- ---- ------<br>--- ----- --- --- ------ -------- ----- --- ------ ----- --<br>----- ----- ---------- --- --- ------ ------ ---- -- ------<br>credit. --- ------ ----- --- ---- ------- -- ---- --- --<br>------- ------,294876.4599999995,294875.9399999999,294454.519,294459.065,294461.463,294878.129,,43,credit.
screen,html.Screen,2_1_1_1_44,2021-04-27T08:38:35.603Z,,,,,,,,,,,,,,,,,54,,,,,,,,,,,,,,1140.2109999996028,,response,,,,100,,,,,,,Space,keypress(Space),,,,,,,,-- --- ---- --- ------ ----- ------- ---- -- --- ------- --<br>------- ---------- ------ -- ----- -- ----- -- ---- ------<br>--- ----- --- --- ------ -------- ----- --- ------ ----- --<br>----- ----- ---------- --- --- ------ ------ ---- -- ------<br>------- The ------ ----- --- ---- ------- -- ---- --- --<br>------- ------,296018.9199999995,296018.3399999996,294871.185,294876.5399999993,294878.129,296023.909,,44,The
screen,html.Screen,2_1_1_1_45,2021-04-27T08:38:36.023Z,,,,,,,,,,,,,,,,,54,,,,,,,,,,,,,,415.0759999997681,,response,,,,100,,,,,,,Space,keypress(Space),,,,,,,,-- --- ---- --- ------ ----- ------- ---- -- --- ------- --<br>------- ---------- ------ -- ----- -- ----- -- ---- ------<br>--- ----- --- --- ------ -------- ----- --- ------ ----- --<br>----- ----- ---------- --- --- ------ ------ ---- -- ------<br>------- --- French ----- --- ---- ------- -- ---- --- --<br>------- ------,296439.6199999992,296438.98499999975,296016.965,296018.9999999993,296023.909,296440.687,,45,French
screen,html.Screen,2_1_1_1_46,2021-04-27T08:38:36.399Z,,,,,,,,,,,,,,,,,54,,,,,,,,,,,,,,373.9229999994859,,response,,,,100,,,,,,,Space,keypress(Space),,,,,,,,-- --- ---- --- ------ ----- ------- ---- -- --- ------- --<br>------- ---------- ------ -- ----- -- ----- -- ---- ------<br>--- ----- --- --- ------ -------- ----- --- ------ ----- --<br>----- ----- ---------- --- --- ------ ------ ---- -- ------<br>------- --- ------ state --- ---- ------- -- ---- --- --<br>------- ------,296815.2849999997,296814.60999999946,296433.743,296439.7149999995,296440.687,296822.589,,46,state
screen,html.Screen,2_1_1_1_47,2021-04-27T08:38:36.827Z,,,,,,,,,,,,,,,,,54,,,,,,,,,,,,,,419.86599999963073,,response,,,,100,,,,,,,Space,keypress(Space),,,,,,,,-- --- ---- --- ------ ----- ------- ---- -- --- ------- --<br>------- ---------- ------ -- ----- -- ----- -- ---- ------<br>--- ----- --- --- ------ -------- ----- --- ------ ----- --<br>----- ----- ---------- --- --- ------ ------ ---- -- ------<br>------- --- ------ ----- was ---- ------- -- ---- --- --<br>------- ------,297242.98999999976,297242.4549999996,296815.645,296815.41500000004,296822.589,297246.18,,47,was
screen,html.Screen,2_1_1_1_48,2021-04-27T08:38:37.227Z,,,,,,,,,,,,,,,,,54,,,,,,,,,,,,,,396.5349999999744,,response,,,,100,,,,,,,Space,keypress(Space),,,,,,,,-- --- ---- --- ------ ----- ------- ---- -- --- ------- --<br>------- ---------- ------ -- ----- -- ----- -- ---- ------<br>--- ----- --- --- ------ -------- ----- --- ------ ----- --<br>----- ----- ---------- --- --- ------ ------ ---- -- ------<br>------- --- ------ ----- --- left ------- -- ---- --- --<br>------- ------,297643.325,297642.71499999997,297239.236,297243.05999999976,297246.18,297648.999,,48,left
screen,html.Screen,2_1_1_1_49,2021-04-27T08:38:37.679Z,,,,,,,,,,,,,,,,,54,,,,,,,,,,,,,,446.10099999955855,,response,,,,100,,,,,,,Space,keypress(Space),,,,,,,,-- --- ---- --- ------ ----- ------- ---- -- --- ------- --<br>------- ---------- ------ -- ----- -- ----- -- ---- ------<br>--- ----- --- --- ------ -------- ----- --- ------ ----- --<br>----- ----- ---------- --- --- ------ ------ ---- -- ------<br>------- --- ------ ----- --- ---- without -- ---- --- --<br>------- ------,298095.64499999944,298095.09999999957,297642.055,297643.3999999999,297648.999,298100.343,,49,without
screen,html.Screen,2_1_1_1_50,2021-04-27T08:38:38.051Z,,,,,,,,,,,,,,,,,54,,,,,,,,,,,,,,366.92699999921024,,response,,,,100,,,,,,,Space,keypress(Space),,,,,,,,-- --- ---- --- ------ ----- ------- ---- -- --- ------- --<br>------- ---------- ------ -- ----- -- ----- -- ---- ------<br>--- ----- --- --- ------ -------- ----- --- ------ ----- --<br>----- ----- ---------- --- --- ------ ------ ---- -- ------<br>------- --- ------ ----- --- ---- ------- an ---- --- --<br>------- ------,298467.8449999992,298467.2699999992,298093.399,298095.7249999992,298100.343,298468.489,,50,an
screen,html.Screen,2_1_1_1_51,2021-04-27T08:38:38.428Z,,,,,,,,,,,,,,,,,54,,,,,,,,,,,,,,374.76599999977043,,response,,,,100,,,,,,,Space,keypress(Space),,,,,,,,-- --- ---- --- ------ ----- ------- ---- -- --- ------- --<br>------- ---------- ------ -- ----- -- ----- -- ---- ------<br>--- ----- --- --- ------ -------- ----- --- ------ ----- --<br>----- ----- ---------- --- --- ------ ------ ---- -- ------<br>------- --- ------ ----- --- ---- ------- -- easy --- --<br>------- ------,298843.91999999934,298843.2549999998,298461.545,298467.97999999946,298468.489,298850.435,,51,easy
screen,html.Screen,2_1_1_1_52,2021-04-27T08:38:38.796Z,,,,,,,,,,,,,,,,,54,,,,,,,,,,,,,,360.8449999995646,,response,,,,100,,,,,,,Space,keypress(Space),,,,,,,,-- --- ---- --- ------ ----- ------- ---- -- --- ------- --<br>------- ---------- ------ -- ----- -- ----- -- ---- ------<br>--- ----- --- --- ------ -------- ----- --- ------ ----- --<br>----- ----- ---------- --- --- ------ ------ ---- -- ------<br>------- --- ------ ----- --- ---- ------- -- ---- way --<br>------- ------,299211.8999999993,299211.27999999956,298843.491,298843.9949999993,298850.435,299218.399,,52,way
screen,html.Screen,2_1_1_1_53,2021-04-27T08:38:39.116Z,,,,,,,,,,,,,,,,,54,,,,,,,,,,,,,,313.2509999999311,,response,,,,100,,,,,,,Space,keypress(Space),,,,,,,,-- --- ---- --- ------ ----- ------- ---- -- --- ------- --<br>------- ---------- ------ -- ----- -- ----- -- ---- ------<br>--- ----- --- --- ------ -------- ----- --- ------ ----- --<br>----- ----- ---------- --- --- ------ ------ ---- -- ------<br>------- --- ------ ----- --- ---- ------- -- ---- --- of<br>------- ------,299532.08499999985,299531.6499999999,299211.455,299212.0249999998,299218.399,299537.891,,53,of
screen,html.Screen,2_1_1_1_54,2021-04-27T08:38:39.483Z,,,,,,,,,,,,,,,,,54,,,,,,,,,,,,,,361.2789999996894,,response,,,,100,,,,,,,Space,keypress(Space),,,,,,,,-- --- ---- --- ------ ----- ------- ---- -- --- ------- --<br>------- ---------- ------ -- ----- -- ----- -- ---- ------<br>--- ----- --- --- ------ -------- ----- --- ------ ----- --<br>----- ----- ---------- --- --- ------ ------ ---- -- ------<br>------- --- ------ ----- --- ---- ------- -- ---- --- --<br>raising ------,299899.71999999945,299899.1699999997,299530.947,299532.1699999995,299537.891,299905.997,,54,raising
screen,html.Screen,2_1_1_1_55,2021-04-27T08:38:40.107Z,,,,,,,,,,,,,,,,,54,,,,,,,,,,,,,,617.0629999995581,,response,,,,100,,,,,,,Space,keypress(Space),,,,,,,,-- --- ---- --- ------ ----- ------- ---- -- --- ------- --<br>------- ---------- ------ -- ----- -- ----- -- ---- ------<br>--- ----- --- --- ------ -------- ----- --- ------ ----- --<br>----- ----- ---------- --- --- ------ ------ ---- -- ------<br>------- --- ------ ----- --- ---- ------- -- ---- --- --<br>------- money.,300523.62999999966,300523.05999999953,299899.053,299899.83499999926,299905.997,300530.925,,55,money.
Item 100,flow.Loop,2_1_1_1,2021-04-27T08:38:40.107Z,,,,,,,,,,,,,,,,,,,,,,,,,,,,,,,23506.21699999954,,completion,,,,,F,,,,,,,,,,,silence,,,,,300523.8249999993,300523.05999999953,277009.899,277012.3049999993,277016.843,300530.925,,,
Question 1,html.Screen,2_1_1_2,2021-04-27T08:38:42.288Z,,,,,,,,,,,,,,,,,,,,,,,,,,,,true,TRUE,,2172.6999999991967,,response,,,,100,F,,,,,,TRUE,click #choice-1,,,,silence,,,,,302704.3999999996,302703.6249999992,300523.981,300523.8849999996,300530.925,302704.612,,,
Question 2,html.Screen,2_1_1_3,2021-04-27T08:38:43.694Z,,,,,,,,,,,,,,,,,,,,,,,,,,,,true,FALSE,,1404.7479999994393,,response,,,,100,F,,,,,,FALSE,click #choice-2,,,,silence,,,,,304110.1699999999,304109.35999999946,302697.668,302704.47499999957,302704.612,304114.348,,,
Item 100,flow.Sequence,2_1_1,2021-04-27T08:38:43.694Z,,,,,,,,,,,,,,,,,,,,,,,,,,,,,,,37092.635999999475,,completion,,,,,,,,,,,,,,,,,,,,,304110.28499999974,304109.35999999946,267009.78,267011.28999999946,267016.724,304114.348,,,
End of Practice,html.Page,2_1_2,2021-04-27T08:38:47.407Z,,,,,,,,,,,,,,,,,,,,,,,,,,,,,,,3708.3269999994664,,form submission,,,,,,,,,,,,,,,,,,,,,307823.0549999998,307822.67499999946,304107.404,304110.34500000003,304114.348,307822.725,,,
Practice,flow.Sequence,2_1,2021-04-27T08:38:47.407Z,,,,,,,,,,,,,,,,,,,,,,,,,,,,,,,80445.17599999945,,completion,,,,,,,,,,,,,,,,,,,,,307823.20499999967,307822.67499999946,227370.555,227373.1799999996,227377.499,307822.725,,,
Trap_instruction,html.Page,2_2_0,2021-04-27T08:38:49.362Z,,,,,,,,,,,,,,,,,,,,,,,,,,,,,,,1955.8099999994738,,form submission,,,,,,,,,,,,,,,,,,,,,309778.8649999993,309778.53499999945,307815.781,307823.2849999995,307822.725,309788.01,,,
trap_trial,html.Screen,2_2_1,2021-04-27T08:38:53.055Z,,,,,,,,,,,,,,,,,,,,,,,,,,,,true,1,,3682.289999999921,,response,,,,,,,,,,,1,click #choice-1,,,,,,,,,313471.1099999995,313470.29999999993,309774.122,309778.9499999999,309788.01,313475.563,,,
end of trap trial,html.Page,2_2_2,2021-04-27T08:38:54.492Z,,,,,,,,,,,,,,,,,,,,,,,,,,,,,,,1432.1970000000438,,form submission,,,,,,,,,,,,,,,,,,,,,314907.96499999944,314907.76000000007,313468.619,313471.21999999945,313475.563,314913.058,,,
Trap 1,flow.Sequence,2_2,2021-04-27T08:38:54.492Z,,,,,,,,,,,,,,,,,,,,,,,,,,,,,,,7085.035000000091,,completion,,,,,,,,,,,,,,,,,,,,,314908.0899999999,314907.76000000007,307815.781,307823.2599999992,307822.725,314913.058,,,
Standby,html.Page,2_3_0,2021-04-27T08:39:02.491Z,,,,,,,,,,,,,,,,,,,,,,,,,,,,,,,7999.559000000008,,timeout,,,,,,,,,,,,,,,,,,,,,322907.57499999925,322905.673,314906.114,314908.17999999947,314913.058,322912.617,,,
Holding screen,html.Screen,2_3_1_0_0,2021-04-27T08:39:09.491Z,,,,,,,,,,,,,,,,,,,,,,,,,,,,,,,7000.486999999965,,timeout,,,,,,,,,,,,,,,,,,,,,329907.45499999955,329906.16,322905.673,322907.86499999923,322912.617,329913.104,,,
screen,html.Screen,2_3_1_0_1_0,2021-04-27T08:39:10.167Z,,,,,,,,,,,,,,,,,11,,,,,,,,,,,,,,669.3410000000149,,response,,,,4,F,,,,,,Space,keypress(Space),,,,instrumental,,,,Known -- ---- --- -- --- -------- ------------ ---------- --<br>- ------- ------ --------- -- ------------ -- --- ---- -----<br>------ ---- ---- ------ ------ ------- --- ----- ---------<br>---- --- -------- -------- --- --- -- ------- --- --- -----<br>-- --- ------ ------- --- --- -------- ---- --------- --<br>---------- -- -------- ----------------,330583.16500000004,330582.445,329906.16,329907.6299999997,329913.104,330586.757,,0,Known
screen,html.Screen,2_3_1_0_1_1,2021-04-27T08:39:10.595Z,,,,,,,,,,,,,,,,,11,,,,,,,,,,,,,,423.52299999952083,,response,,,,4,F,,,,,,Space,keypress(Space),,,,instrumental,,,,----- as ---- --- -- --- -------- ------------ ---------- --<br>- ------- ------ --------- -- ------------ -- --- ---- -----<br>------ ---- ---- ------ ------ ------- --- ----- ---------<br>---- --- -------- -------- --- --- -- ------- --- --- -----<br>-- --- ------ ------- --- --- -------- ---- --------- --<br>---------- -- -------- ----------------,331010.9199999997,331010.2799999995,330579.813,330583.2849999997,330586.757,331017.426,,1,as
screen,html.Screen,2_3_1_0_1_2,2021-04-27T08:39:10.871Z,,,,,,,,,,,,,,,,,11,,,,,,,,,,,,,,268.9489999996731,,response,,,,4,F,,,,,,Space,keypress(Space),,,,instrumental,,,,----- -- Rapa --- -- --- -------- ------------ ---------- --<br>- ------- ------ --------- -- ------------ -- --- ---- -----<br>------ ---- ---- ------ ------ ------- --- ----- ---------<br>---- --- -------- -------- --- --- -- ------- --- --- -----<br>-- --- ------ ------- --- --- -------- ---- --------- --<br>---------- -- -------- ----------------,331286.9699999992,331286.37499999965,331010.482,331010.99999999953,331017.426,331288.293,,2,Rapa
screen,html.Screen,2_3_1_0_1_3,2021-04-27T08:39:11.362Z,,,,,,,,,,,,,,,,,11,,,,,,,,,,,,,,489.33199999970384,,response,,,,4,F,,,,,,Space,keypress(Space),,,,instrumental,,,,----- -- ---- Nui -- --- -------- ------------ ---------- --<br>- ------- ------ --------- -- ------------ -- --- ---- -----<br>------ ---- ---- ------ ------ ------- --- ----- ---------<br>---- --- -------- -------- --- --- -- ------- --- --- -----<br>-- --- ------ ------- --- --- -------- ---- --------- --<br>---------- -- -------- ----------------,331778.19,331777.6249999997,331281.349,331287.04500000004,331288.293,331781.324,,3,Nui
screen,html.Screen,2_3_1_0_1_4,2021-04-27T08:39:11.794Z,,,,,,,,,,,,,,,,,11,,,,,,,,,,,,,,428.97099999984493,,response,,,,4,F,,,,,,Space,keypress(Space),,,,instrumental,,,,----- -- ---- --- to --- -------- ------------ ---------- --<br>- ------- ------ --------- -- ------------ -- --- ---- -----<br>------ ---- ---- ------ ------ ------- --- ----- ---------<br>---- --- -------- -------- --- --- -- ------- --- --- -----<br>-- --- ------ ------- --- --- -------- ---- --------- --<br>---------- -- -------- ----------------,332210.77999999945,332210.29499999987,331774.38,331778.2649999999,331781.324,332211.845,,4,to
screen,html.Screen,2_3_1_0_1_5,2021-04-27T08:39:12.187Z,,,,,,,,,,,,,,,,,11,,,,,,,,,,,,,,390.37499999976717,,response,,,,4,F,,,,,,Space,keypress(Space),,,,instrumental,,,,----- -- ---- --- -- the -------- ------------ ---------- --<br>- ------- ------ --------- -- ------------ -- --- ---- -----<br>------ ---- ---- ------ ------ ------- --- ----- ---------<br>---- --- -------- -------- --- --- -- ------- --- --- -----<br>-- --- ------ ------- --- --- -------- ---- --------- --<br>---------- -- -------- ----------------,332602.92499999923,332602.21999999974,332204.901,332210.85499999934,332211.845,332607.649,,5,the
screen,html.Screen,2_3_1_0_1_6,2021-04-27T08:39:12.606Z,,,,,,,,,,,,,,,,,11,,,,,,,,,,,,,,413.98600000009174,,response,,,,4,F,,,,,,Space,keypress(Space),,,,instrumental,,,,----- -- ---- --- -- --- island's ------------ ---------- --<br>- ------- ------ --------- -- ------------ -- --- ---- -----<br>------ ---- ---- ------ ------ ------- --- ----- ---------<br>---- --- -------- -------- --- --- -- ------- --- --- -----<br>-- --- ------ ------- --- --- -------- ---- --------- --<br>---------- -- -------- ----------------,333022.2549999999,333021.63500000007,332600.705,332603.01999999955,332607.649,333024.329,,6,island's
screen,html.Screen,2_3_1_0_1_7,2021-04-27T08:39:13.675Z,,,,,,,,,,,,,,,,,11,,,,,,,,,,,,,,1066.150999999838,,response,,,,4,F,,,,,,Space,keypress(Space),,,,instrumental,,,,"----- -- ---- --- -- --- -------- inhabitants, ---------- --<br>- ------- ------ --------- -- ------------ -- --- ---- -----<br>------ ---- ---- ------ ------ ------- --- ----- ---------<br>---- --- -------- -------- --- --- -- ------- --- --- -----<br>-- --- ------ ------- --- --- -------- ---- --------- --<br>---------- -- -------- ----------------",334091.05,334090.47999999986,333017.385,333022.3449999994,333024.329,334093.739,,7,"inhabitants,"
screen,html.Screen,2_3_1_0_1_8,2021-04-27T08:39:14.715Z,,,,,,,,,,,,,,,,,11,,,,,,,,,,,,,,1036.8059999999823,,response,,,,4,F,,,,,,Space,keypress(Space),,,,instrumental,,,,----- -- ---- --- -- --- -------- ------------ Rongorongo --<br>- ------- ------ --------- -- ------------ -- --- ---- -----<br>------ ---- ---- ------ ------ ------- --- ----- ---------<br>---- --- -------- -------- --- --- -- ------- --- --- -----<br>-- --- ------ ------- --- --- -------- ---- --------- --<br>---------- -- -------- ----------------,335131.09499999974,335130.545,334086.795,334091.13499999966,334093.739,335135.4,,8,Rongorongo
screen,html.Screen,2_3_1_0_1_9,2021-04-27T08:39:15.195Z,,,,,,,,,,,,,,,,,11,,,,,,,,,,,,,,475.48999999987427,,response,,,,4,F,,,,,,Space,keypress(Space),,,,instrumental,,,,----- -- ---- --- -- --- -------- ------------ ---------- is<br>- ------- ------ --------- -- ------------ -- --- ---- -----<br>------ ---- ---- ------ ------ ------- --- ----- ---------<br>---- --- -------- -------- --- --- -- ------- --- --- -----<br>-- --- ------ ------- --- --- -------- ---- --------- --<br>---------- -- -------- ----------------,335611.355,335610.8899999999,335128.456,335131.22499999916,335135.4,335614.704,,9,is
screen,html.Screen,2_3_1_0_1_10,2021-04-27T08:39:15.561Z,,,,,,,,,,,,,,,,,11,,,,,,,,,,,,,,362.49599999934435,,response,,,,4,F,,,,,,Space,keypress(Space),,,,instrumental,,,,----- -- ---- --- -- --- -------- ------------ ---------- --<br>a ------- ------ --------- -- ------------ -- --- ---- -----<br>------ ---- ---- ------ ------ ------- --- ----- ---------<br>---- --- -------- -------- --- --- -- ------- --- --- -----<br>-- --- ------ ------- --- --- -------- ---- --------- --<br>---------- -- -------- ----------------,335977.8499999993,335977.1999999994,335607.76,335611.44499999954,335614.704,335982.689,,10,a
screen,html.Screen,2_3_1_0_1_11,2021-04-27T08:39:16.075Z,,,,,,,,,,,,,,,,,11,,,,,,,,,,,,,,508.0409999995027,,response,,,,4,F,,,,,,Space,keypress(Space),,,,instrumental,,,,----- -- ---- --- -- --- -------- ------------ ---------- --<br>- writing ------ --------- -- ------------ -- --- ---- -----<br>------ ---- ---- ------ ------ ------- --- ----- ---------<br>---- --- -------- -------- --- --- -- ------- --- --- -----<br>-- --- ------ ------- --- --- -------- ---- --------- --<br>---------- -- -------- ----------------,336491.3149999993,336490.7299999995,335975.745,335977.9749999998,335982.689,336496.662,,11,writing
screen,html.Screen,2_3_1_0_1_12,2021-04-27T08:39:16.422Z,,,,,,,,,,,,,,,,,11,,,,,,,,,,,,,,340.9929999993183,,response,,,,4,F,,,,,,Space,keypress(Space),,,,instrumental,,,,----- -- ---- --- -- --- -------- ------------ ---------- --<br>- ------- system --------- -- ------------ -- --- ---- -----<br>------ ---- ---- ------ ------ ------- --- ----- ---------<br>---- --- -------- -------- --- --- -- ------- --- --- -----<br>-- --- ------ ------- --- --- -------- ---- --------- --<br>---------- -- -------- ----------------,336838.35499999986,336837.65499999933,336489.718,336491.4099999996,336496.662,336843.797,,12,system
screen,html.Screen,2_3_1_0_1_13,2021-04-27T08:39:17.098Z,,,,,,,,,,,,,,,,,11,,,,,,,,,,,,,,670.3529999999446,,response,,,,4,F,,,,,,Space,keypress(Space),,,,instrumental,,,,----- -- ---- --- -- --- -------- ------------ ---------- --<br>- ------- ------ comprised -- ------------ -- --- ---- -----<br>------ ---- ---- ------ ------ ------- --- ----- ---------<br>---- --- -------- -------- --- --- -- ------- --- --- -----<br>-- --- ------ ------- --- --- -------- ---- --------- --<br>---------- -- -------- ----------------,337514.7899999993,337514.14999999997,336836.853,336838.53999999975,336843.797,337517.465,,13,comprised
screen,html.Screen,2_3_1_0_1_14,2021-04-27T08:39:17.522Z,,,,,,,,,,,,,,,,,11,,,,,,,,,,,,,,420.57499999995343,,response,,,,4,F,,,,,,Space,keypress(Space),,,,instrumental,,,,----- -- ---- --- -- --- -------- ------------ ---------- --<br>- ------- ------ --------- of ------------ -- --- ---- -----<br>------ ---- ---- ------ ------ ------- --- ----- ---------<br>---- --- -------- -------- --- --- -- ------- --- --- -----<br>-- --- ------ ------- --- --- -------- ---- --------- --<br>---------- -- -------- ----------------,337938.63499999954,337938.04,337510.521,337514.8949999993,337517.465,337941.039,,14,of
screen,html.Screen,2_3_1_0_1_15,2021-04-27T08:39:18.807Z,,,,,,,,,,,,,,,,,11,,,,,,,,,,,,,,1281.7609999995911,,response,,,,4,F,,,,,,Space,keypress(Space),,,,instrumental,,,,----- -- ---- --- -- --- -------- ------------ ---------- --<br>- ------- ------ --------- -- pictographs. -- --- ---- -----<br>------ ---- ---- ------ ------ ------- --- ----- ---------<br>---- --- -------- -------- --- --- -- ------- --- --- -----<br>-- --- ------ ------- --- --- -------- ---- --------- --<br>---------- -- -------- ----------------,339223.32000000007,339222.7999999996,337934.095,337938.70999999944,337941.039,339225.691,,15,pictographs.
screen,html.Screen,2_3_1_0_1_16,2021-04-27T08:39:19.417Z,,,,,,,,,,,,,,,,,11,,,,,,,,,,,,,,607.4740000000456,,response,,,,4,F,,,,,,Space,keypress(Space),,,,instrumental,,,,----- -- ---- --- -- --- -------- ------------ ---------- --<br>- ------- ------ --------- -- ------------ It --- ---- -----<br>------ ---- ---- ------ ------ ------- --- ----- ---------<br>---- --- -------- -------- --- --- -- ------- --- --- -----<br>-- --- ------ ------- --- --- -------- ---- --------- --<br>---------- -- -------- ----------------,339833.8049999993,339833.16500000004,339218.747,339223.39499999996,339225.691,339836.898,,16,It
screen,html.Screen,2_3_1_0_1_17,2021-04-27T08:39:19.778Z,,,,,,,,,,,,,,,,,11,,,,,,,,,,,,,,357.24199999962,,response,,,,4,F,,,,,,Space,keypress(Space),,,,instrumental,,,,----- -- ---- --- -- --- -------- ------------ ---------- --<br>- ------- ------ --------- -- ------------ -- has ---- -----<br>------ ---- ---- ------ ------ ------- --- ----- ---------<br>---- --- -------- -------- --- --- -- ------- --- --- -----<br>-- --- ------ ------- --- --- -------- ---- --------- --<br>---------- -- -------- ----------------,340194.7,340194.1399999996,339829.954,339833.9999999998,339836.898,340198.048,,17,has
screen,html.Screen,2_3_1_0_1_18,2021-04-27T08:39:20.171Z,,,,,,,,,,,,,,,,,11,,,,,,,,,,,,,,388.4069999996573,,response,,,,4,F,,,,,,Space,keypress(Space),,,,instrumental,,,,----- -- ---- --- -- --- -------- ------------ ---------- --<br>- ------- ------ --------- -- ------------ -- --- been -----<br>------ ---- ---- ------ ------ ------- --- ----- ---------<br>---- --- -------- -------- --- --- -- ------- --- --- -----<br>-- --- ------ ------- --- --- -------- ---- --------- --<br>---------- -- -------- ----------------,340587.0499999992,340586.45499999967,340191.104,340194.7799999998,340198.048,340593.874,,18,been
screen,html.Screen,2_3_1_0_1_19,2021-04-27T08:39:20.700Z,,,,,,,,,,,,,,,,,11,,,,,,,,,,,,,,521.5809999991907,,response,,,,4,F,,,,,,Space,keypress(Space),,,,instrumental,,,,----- -- ---- --- -- --- -------- ------------ ---------- --<br>- ------- ------ --------- -- ------------ -- --- ---- found<br>------ ---- ---- ------ ------ ------- --- ----- ---------<br>---- --- -------- -------- --- --- -- ------- --- --- -----<br>-- --- ------ ------- --- --- -------- ---- --------- --<br>---------- -- -------- ----------------,341115.98499999946,341115.4549999992,340586.93,340587.4249999997,340593.874,341121.669,,19,found
screen,html.Screen,2_3_1_0_1_20,2021-04-27T08:39:21.199Z,,,,,,,,,,,,,,,,,11,,,,,,,,,,,,,,493.17600000009406,,response,,,,4,F,,,,,,Space,keypress(Space),,,,instrumental,,,,----- -- ---- --- -- --- -------- ------------ ---------- --<br>- ------- ------ --------- -- ------------ -- --- ---- -----<br>carved ---- ---- ------ ------ ------- --- ----- ---------<br>---- --- -------- -------- --- --- -- ------- --- --- -----<br>-- --- ------ ------- --- --- -------- ---- --------- --<br>---------- -- -------- ----------------,341615.4749999996,341614.8450000001,341114.725,341116.0849999997,341121.669,341621.656,,20,carved
screen,html.Screen,2_3_1_0_1_21,2021-04-27T08:39:21.531Z,,,,,,,,,,,,,,,,,11,,,,,,,,,,,,,,324.873999999254,,response,,,,4,F,,,,,,Space,keypress(Space),,,,instrumental,,,,----- -- ---- --- -- --- -------- ------------ ---------- --<br>- ------- ------ --------- -- ------------ -- --- ---- -----<br>------ into ---- ------ ------ ------- --- ----- ---------<br>---- --- -------- -------- --- --- -- ------- --- --- -----<br>-- --- ------ ------- --- --- -------- ---- --------- --<br>---------- -- -------- ----------------,341947.0849999998,341946.5299999993,341614.712,341615.5549999994,341621.656,341948.009,,21,into
screen,html.Screen,2_3_1_0_1_22,2021-04-27T08:39:21.842Z,,,,,,,,,,,,,,,,,11,,,,,,,,,,,,,,309.5559999998659,,response,,,,4,F,,,,,,Space,keypress(Space),,,,instrumental,,,,----- -- ---- --- -- --- -------- ------------ ---------- --<br>- ------- ------ --------- -- ------------ -- --- ---- -----<br>------ ---- many ------ ------ ------- --- ----- ---------<br>---- --- -------- -------- --- --- -- ------- --- --- -----<br>-- --- ------ ------- --- --- -------- ---- --------- --<br>---------- -- -------- ----------------,342258.1999999993,342257.5649999999,341941.065,341947.17499999935,341948.009,342260.599,,22,many
screen,html.Screen,2_3_1_0_1_23,2021-04-27T08:39:22.446Z,,,,,,,,,,,,,,,,,11,,,,,,,,,,,,,,600.7959999999148,,response,,,,4,F,,,,,,Space,keypress(Space),,,,instrumental,,,,----- -- ---- --- -- --- -------- ------------ ---------- --<br>- ------- ------ --------- -- ------------ -- --- ---- -----<br>------ ---- ---- oblong ------ ------- --- ----- ---------<br>---- --- -------- -------- --- --- -- ------- --- --- -----<br>-- --- ------ ------- --- --- -------- ---- --------- --<br>---------- -- -------- ----------------,342861.94999999955,342861.3949999999,342253.655,342258.2849999999,342260.599,342864.679,,23,oblong
screen,html.Screen,2_3_1_0_1_24,2021-04-27T08:39:22.811Z,,,,,,,,,,,,,,,,,11,,,,,,,,,,,,,,361.6509999994887,,response,,,,4,F,,,,,,Space,keypress(Space),,,,instrumental,,,,----- -- ---- --- -- --- -------- ------------ ---------- --<br>- ------- ------ --------- -- ------------ -- --- ---- -----<br>------ ---- ---- ------ wooden ------- --- ----- ---------<br>---- --- -------- -------- --- --- -- ------- --- --- -----<br>-- --- ------ ------- --- --- -------- ---- --------- --<br>---------- -- -------- ----------------,343226.9449999994,343226.3299999995,342857.735,342862.02499999944,342864.679,343232.778,,24,wooden
screen,html.Screen,2_3_1_0_1_25,2021-04-27T08:39:23.339Z,,,,,,,,,,,,,,,,,11,,,,,,,,,,,,,,521.6819999992149,,response,,,,4,F,,,,,,Space,keypress(Space),,,,instrumental,,,,----- -- ---- --- -- --- -------- ------------ ---------- --<br>- ------- ------ --------- -- ------------ -- --- ---- -----<br>------ ---- ---- ------ ------ tablets --- ----- ---------<br>---- --- -------- -------- --- --- -- ------- --- --- -----<br>-- --- ------ ------- --- --- -------- ---- --------- --<br>---------- -- -------- ----------------,343754.94499999966,343754.4599999992,343225.834,343227.03999999975,343232.778,343760.596,,25,tablets
screen,html.Screen,2_3_1_0_1_26,2021-04-27T08:39:23.893Z,,,,,,,,,,,,,,,,,11,,,,,,,,,,,,,,547.9289999994216,,response,,,,4,F,,,,,,Space,keypress(Space),,,,instrumental,,,,----- -- ---- --- -- --- -------- ------------ ---------- --<br>- ------- ------ --------- -- ------------ -- --- ---- -----<br>------ ---- ---- ------ ------ ------- and ----- ---------<br>---- --- -------- -------- --- --- -- ------- --- --- -----<br>-- --- ------ ------- --- --- -------- ---- --------- --<br>---------- -- -------- ----------------,344309.1699999995,344308.52499999944,343753.652,343755.0799999999,343760.596,344316.179,,26,and
screen,html.Screen,2_3_1_0_1_27,2021-04-27T08:39:24.357Z,,,,,,,,,,,,,,,,,11,,,,,,,,,,,,,,456.78099999931874,,response,,,,4,F,,,,,,Space,keypress(Space),,,,instrumental,,,,----- -- ---- --- -- --- -------- ------------ ---------- --<br>- ------- ------ --------- -- ------------ -- --- ---- -----<br>------ ---- ---- ------ ------ ------- --- other ---------<br>---- --- -------- -------- --- --- -- ------- --- --- -----<br>-- --- ------ ------- --- --- -------- ---- --------- --<br>---------- -- -------- ----------------,344773.77999999956,344772.9599999993,344309.235,344309.2449999995,344316.179,344774.519,,27,other
screen,html.Screen,2_3_1_0_1_28,2021-04-27T08:39:24.785Z,,,,,,,,,,,,,,,,,11,,,,,,,,,,,,,,426.885999999824,,response,,,,4,F,,,,,,Space,keypress(Space),,,,instrumental,,,,----- -- ---- --- -- --- -------- ------------ ---------- --<br>- ------- ------ --------- -- ------------ -- --- ---- -----<br>------ ---- ---- ------ ------ ------- --- ----- artifacts<br>---- --- -------- -------- --- --- -- ------- --- --- -----<br>-- --- ------ ------- --- --- -------- ---- --------- --<br>---------- -- -------- ----------------,345201.865,345201.4049999998,344767.575,344773.8999999992,344774.519,345205.055,,28,artifacts
screen,html.Screen,2_3_1_0_1_29,2021-04-27T08:39:25.593Z,,,,,,,,,,,,,,,,,11,,,,,,,,,,,,,,803.7299999999814,,response,,,,4,F,,,,,,Space,keypress(Space),,,,instrumental,,,,----- -- ---- --- -- --- -------- ------------ ---------- --<br>- ------- ------ --------- -- ------------ -- --- ---- -----<br>------ ---- ---- ------ ------ ------- --- ----- ---------<br>from --- -------- -------- --- --- -- ------- --- --- -----<br>-- --- ------ ------- --- --- -------- ---- --------- --<br>---------- -- -------- ----------------,346009.37999999954,346008.785,345198.111,345201.9449999998,345205.055,346010.543,,29,from
screen,html.Screen,2_3_1_0_1_30,2021-04-27T08:39:25.993Z,,,,,,,,,,,,,,,,,11,,,,,,,,,,,,,,399.2619999993476,,response,,,,4,F,,,,,,Space,keypress(Space),,,,instrumental,,,,----- -- ---- --- -- --- -------- ------------ ---------- --<br>- ------- ------ --------- -- ------------ -- --- ---- -----<br>------ ---- ---- ------ ------ ------- --- ----- ---------<br>---- the -------- -------- --- --- -- ------- --- --- -----<br>-- --- ------ ------- --- --- -------- ---- --------- --<br>---------- -- -------- ----------------,346410.3149999992,346409.80499999935,346003.599,346009.4799999997,346010.543,346413.433,,30,the
screen,html.Screen,2_3_1_0_1_31,2021-04-27T08:39:26.652Z,,,,,,,,,,,,,,,,,11,,,,,,,,,,,,,,654.7469999992754,,response,,,,4,F,,,,,,Space,keypress(Space),,,,instrumental,,,,----- -- ---- --- -- --- -------- ------------ ---------- --<br>- ------- ------ --------- -- ------------ -- --- ---- -----<br>------ ---- ---- ------ ------ ------- --- ----- ---------<br>---- --- island's -------- --- --- -- ------- --- --- -----<br>-- --- ------ ------- --- --- -------- ---- --------- --<br>---------- -- -------- ----------------,347068.87000000005,347068.1799999993,346406.489,346410.39,346413.433,347073.039,,31,island's
screen,html.Screen,2_3_1_0_1_32,2021-04-27T08:39:27.629Z,,,,,,,,,,,,,,,,,11,,,,,,,,,,,,,,971.665999999328,,response,,,,4,F,,,,,,Space,keypress(Space),,,,instrumental,,,,----- -- ---- --- -- --- -------- ------------ ---------- --<br>- ------- ------ --------- -- ------------ -- --- ---- -----<br>------ ---- ---- ------ ------ ------- --- ----- ---------<br>---- --- -------- history. --- --- -- ------- --- --- -----<br>-- --- ------ ------- --- --- -------- ---- --------- --<br>---------- -- -------- ----------------,348045.5149999998,348044.7049999993,347066.095,347068.94999999984,347073.039,348052.261,,32,history.
screen,html.Screen,2_3_1_0_1_33,2021-04-27T08:39:27.997Z,,,,,,,,,,,,,,,,,11,,,,,,,,,,,,,,360.92899999930523,,response,,,,4,F,,,,,,Space,keypress(Space),,,,instrumental,,,,----- -- ---- --- -- --- -------- ------------ ---------- --<br>- ------- ------ --------- -- ------------ -- --- ---- -----<br>------ ---- ---- ------ ------ ------- --- ----- ---------<br>---- --- -------- -------- The --- -- ------- --- --- -----<br>-- --- ------ ------- --- --- -------- ---- --------- --<br>---------- -- -------- ----------------,348413.79999999935,348413.1899999993,348045.317,348045.615,348052.261,348420.353,,33,The
screen,html.Screen,2_3_1_0_1_34,2021-04-27T08:39:28.381Z,,,,,,,,,,,,,,,,,11,,,,,,,,,,,,,,376.95200000004843,,response,,,,4,F,,,,,,Space,keypress(Space),,,,instrumental,,,,----- -- ---- --- -- --- -------- ------------ ---------- --<br>- ------- ------ --------- -- ------------ -- --- ---- -----<br>------ ---- ---- ------ ------ ------- --- ----- ---------<br>---- --- -------- -------- --- art -- ------- --- --- -----<br>-- --- ------ ------- --- --- -------- ---- --------- --<br>---------- -- -------- ----------------,348797.88999999984,348797.30500000005,348413.409,348413.9499999992,348420.353,348802.264,,34,art
screen,html.Screen,2_3_1_0_1_35,2021-04-27T08:39:28.754Z,,,,,,,,,,,,,,,,,11,,,,,,,,,,,,,,367.6059999996796,,response,,,,4,F,,,,,,Space,keypress(Space),,,,instrumental,,,,----- -- ---- --- -- --- -------- ------------ ---------- --<br>- ------- ------ --------- -- ------------ -- --- ---- -----<br>------ ---- ---- ------ ------ ------- --- ----- ---------<br>---- --- -------- -------- --- --- of ------- --- --- -----<br>-- --- ------ ------- --- --- -------- ---- --------- --<br>---------- -- -------- ----------------,349170.41999999946,349169.8699999997,348795.32,348798.06499999994,348802.264,349177.334,,35,of
screen,html.Screen,2_3_1_0_1_36,2021-04-27T08:39:29.172Z,,,,,,,,,,,,,,,,,11,,,,,,,,,,,,,,411.42099999979837,,response,,,,4,F,,,,,,Space,keypress(Space),,,,instrumental,,,,----- -- ---- --- -- --- -------- ------------ ---------- --<br>- ------- ------ --------- -- ------------ -- --- ---- -----<br>------ ---- ---- ------ ------ ------- --- ----- ---------<br>---- --- -------- -------- --- --- -- writing --- --- -----<br>-- --- ------ ------- --- --- -------- ---- --------- --<br>---------- -- -------- ----------------,349589.1699999993,349588.7549999998,349170.39,349170.51999999967,349177.334,349593.965,,36,writing
screen,html.Screen,2_3_1_0_1_37,2021-04-27T08:39:29.505Z,,,,,,,,,,,,,,,,,11,,,,,,,,,,,,,,327.4999999994179,,response,,,,4,F,,,,,,Space,keypress(Space),,,,instrumental,,,,----- -- ---- --- -- --- -------- ------------ ---------- --<br>- ------- ------ --------- -- ------------ -- --- ---- -----<br>------ ---- ---- ------ ------ ------- --- ----- ---------<br>---- --- -------- -------- --- --- -- ------- was --- -----<br>-- --- ------ ------- --- --- -------- ---- --------- --<br>---------- -- -------- ----------------,349921.9599999997,349921.46499999944,349587.021,349589.2699999995,349593.965,349927.367,,37,was
