sender,sender_type,sender_id,timestamp,meta,,Blues,Classical,Country,Dance,Electronic,Folk,Gospel,Hip-Hop,Jazz,Latin,Musical/Film,New-age,Pop,Prolific_id,Provo_ID,R&B,Rap,Reggae,Religious,Rock,Soul,Swing,Traditional,age,artist_name,correct,correctResponse,distraction,duration,education,ended_on,familiarity,gender,headphone_check_performance,item,list,music_frequency,offensiveness,pleasantness,position_correct,preference,response,response_action,snippet_file,song_name,song_rating,sound,stimulus_1,stimulus_2,stimulus_3,text,time_commit,time_end,time_render,time_run,time_show,time_switch,url,word,word_ID
Prolific ID,html.Form,0,2021-04-27T08:37:27.334Z,"{""labjs_version"":""20.2.2"",""labjs_build"":{""flavor"":""production"",""commit"":""a25486e0c714a0ae2ce03ff94b7bb6896854dcfa""},""location"":""https://run.pavlovia.org/mvasilev/prolific_music_f/"",""userAgent"":""Mozilla/5.0 (Macintosh; Intel Mac OS X 10_15_7) AppleWebKit/537.36 (KHTML, like Gecko) Chrome/90.0.4430.85 Safari/537.36"",""platform"":""MacIntel"",""language"":""en-GB"",""locale"":""en-GB"",""timeZone"":""Europe/London"",""timezoneOffset"":-60,""screen_width"":2560,""screen_height"":1440,""scroll_width"":1769,""scroll_height"":1288,""window_innerWidth"":1769,""window_innerHeight"":1336,""devicePixelRatio"":1}",,,,,,,,,,,,,,,5eadaff848b26f4483ae62d9,,,,,,,,,,,,,,,27011.760000001028,,form submission,,,,,,,,,,,,,,,,,,,,,36651.79000000353,36650.66500000103,9622.225,9627.370000001974,9638.905,36661.07,{},,
Introduction,html.Screen,1_0,2021-04-27T08:37:48.373Z,,,,,,,,,,,,,,,,,,,,,,,,,,,,,,,21022.070000001004,,response,,,,,,,,,,,continue,click button,,,,,,,,,57688.82999999914,57683.140000001,36644.39,36652.62000000075,36661.07,57711.458,,,
Volume calibration,html.Screen,1_1,2021-04-27T08:38:12.508Z,,,,,,,,,,,,,,,,,,,,,,,,,,,,,,,24103.876999999324,,response,,,,,,,,,,,continue,click button,,,,,,,,,81822.46000000305,81815.33499999932,57694.778,57689.16500000341,57711.458,81832.53,,,
Task instructions,html.Screen,1_2,2021-04-27T08:38:17.845Z,,,,,,,,,,,,,,,,,,,,,,,,,,,,,,,5323.739999999496,,response,,,,,,,,,,,continue,click button,,,,,,,,,87158.75000000233,87156.2699999995,81815.85,81822.66499999969,81832.53,87170.13,,,
Sounds,html.Screen,1_3_0_0,2021-04-27T08:38:22.097Z,,,,,,,,,,,,,,,,,,,,,,,,,,,,,,,4253.6219999999885,,timeout,,,,,,,,,3,,,,,,,,O,I,S,,91411.37500000332,91407.072,87153.45,87159.04000000592,87170.13,91423.752,,,
Judgement,html.Screen,1_3_0_1,2021-04-27T08:38:23.324Z,,,,,,,,,,,,,,,,,,,,,,,,,,,,true,3,,1211.3029999988357,,response,,,,,,,,,3,,3,click #choice-3,,,,,O,I,S,,92637.66500000202,92635.05499999883,91407.072,91411.62500000064,91423.752,92641.558,,,
Trial,flow.Sequence,1_3_0,2021-04-27T08:38:23.324Z,,,,,,,,,,,,,,,,,,,,,,,,,,,,,,,5464.924999998824,,completion,,,,,,,,,3,,,,,,,,O,I,S,,92638.33000000159,92635.05499999883,87153.45,87158.99999999965,87170.13,92641.558,,,
Sounds,html.Screen,1_3_1_0,2021-04-27T08:38:27.567Z,,,,,,,,,,,,,,,,,,,,,,,,,,,,,,,4253.399999999994,,timeout,,,,,,,,,1,,,,,,,,S,O,I,,96881.0850000009,96878.278,92624.878,92638.53999999992,92641.558,96894.958,,,
Judgement,html.Screen,1_3_1_1,2021-04-27T08:38:28.129Z,,,,,,,,,,,,,,,,,,,,,,,,,,,,true,1,,544.1620000027324,,response,,,,,,,,,1,,1,click #choice-1,,,,,S,O,I,,97442.82999999996,97439.12000000273,96878.278,96881.41500000347,96894.958,97462.078,,,
Trial,flow.Sequence,1_3_1,2021-04-27T08:38:28.129Z,,,,,,,,,,,,,,,,,,,,,,,,,,,,,,,4797.562000002727,,completion,,,,,,,,,1,,,,,,,,S,O,I,,97443.08000000456,97439.12000000273,92624.878,92638.46000000194,92641.558,97462.078,,,
Sounds,html.Screen,1_3_2_0,2021-04-27T08:38:32.388Z,,,,,,,,,,,,,,,,,,,,,,,,,,,,,,,4253.400000000009,,timeout,,,,,,,,,2,,,,,,,,O,S,I,,101702.04000000376,101698.798,97445.398,97443.29000000289,97462.078,101715.478,,,
Judgement,html.Screen,1_3_2_1,2021-04-27T08:38:32.897Z,,,,,,,,,,,,,,,,,,,,,,,,,,,,true,2,,493.52200000255834,,response,,,,,,,,,2,,2,click #choice-2,,,,,O,S,I,,102211.28999999928,102209.00000000256,101698.798,101702.29000000108,101715.478,102215.878,,,
Trial,flow.Sequence,1_3_2,2021-04-27T08:38:32.898Z,,,,,,,,,,,,,,,,,,,,,,,,,,,,,,,4746.922000002567,,completion,,,,,,,,,2,,,,,,,,O,S,I,,102211.62500000355,102209.00000000256,97445.398,97443.20500000322,97462.078,102215.878,,,
Sounds,html.Screen,1_3_3_0,2021-04-27T08:38:37.142Z,,,,,,,,,,,,,,,,,,,,,,,,,,,,,,,4253.400000000009,,timeout,,,,,,,,,3,,,,,,,,I,O,S,,106455.75000000099,106452.598,102199.198,102211.95499999885,102215.878,106469.278,,,
Judgement,html.Screen,1_3_3_1,2021-04-27T08:38:44.553Z,,,,,,,,,,,,,,,,,,,,,,,,,,,,true,3,,7394.6220000039175,,response,,,,,,,,,3,,3,click #choice-3,,,,,I,O,S,,113866.75000000105,113863.90000000392,106452.598,106456.04000000458,106469.278,113875.435,,,
Trial,flow.Sequence,1_3_3,2021-04-27T08:38:44.553Z,,,,,,,,,,,,,,,,,,,,,,,,,,,,,,,11648.022000003926,,completion,,,,,,,,,3,,,,,,,,I,O,S,,113867.1650000033,113863.90000000392,102199.198,102211.87500000087,102215.878,113875.435,,,
Sounds,html.Screen,1_3_4_0,2021-04-27T08:38:48.801Z,,,,,,,,,,,,,,,,,,,,,,,,,,,,,,,4253.400000000009,,timeout,,,,,,,,,2,,,,,,,,I,S,O,,118114.99500000355,118112.155,113858.755,113867.33000000095,113875.435,118128.835,,,
Judgement,html.Screen,1_3_4_1,2021-04-27T08:38:49.367Z,,,,,,,,,,,,,,,,,,,,,,,,,,,,true,2,,549.0600000007107,,response,,,,,,,,,2,,2,click #choice-2,,,,,I,S,O,,118680.66499999986,118677.89500000072,118112.155,118115.29000000155,118128.835,118696.093,,,
Trial,flow.Sequence,1_3_4,2021-04-27T08:38:49.367Z,,,,,,,,,,,,,,,,,,,,,,,,,,,,,,,4802.460000000719,,completion,,,,,,,,,2,,,,,,,,I,S,O,,118680.99500000244,118677.89500000072,113858.755,113867.29000000196,113875.435,118696.093,,,
Sounds,html.Screen,1_3_5_0,2021-04-27T08:38:53.621Z,,,,,,,,,,,,,,,,,,,,,,,,,,,,,,,4253.400000000009,,timeout,,,,,,,,,1,,,,,,,,S,I,O,,122935.33000000025,122932.813,118679.413,118681.16500000178,118696.093,122949.493,,,
Judgement,html.Screen,1_3_5_1,2021-04-27T08:38:54.024Z,,,,,,,,,,,,,,,,,,,,,,,,,,,,true,1,,385.7570000037231,,response,,,,,,,,,1,,1,click #choice-1,,,,,S,I,O,,123337.50000000146,123335.25000000373,122932.813,122935.54000000586,122949.493,123349.813,,,
Trial,flow.Sequence,1_3_5,2021-04-27T08:38:54.024Z,,,,,,,,,,,,,,,,,,,,,,,,,,,,,,,4639.157000003732,,completion,,,,,,,,,1,,,,,,,,S,I,O,,123337.79000000504,123335.25000000373,118679.413,118681.1250000028,118696.093,123349.813,,,
Task,flow.Loop,1_3,2021-04-27T08:38:54.028Z,,,,,,,,,,,,,,,,,,,,,,,,,,,,,,,36165.12000000372,,completion,,,1,,,,,,,,,,,,,,,,,,123342.37000000576,123335.25000000373,87153.45,87158.91499999998,87170.13,123349.813,,,
Trap,html.Screen,1_4,2021-04-27T08:38:54.031Z,,,,,,,,,,,,,,,,,,,,,,,,,,,,,,,NaN,,skipped,,,,,,,,,,,,,,,,,,,,,123344.62500000518,123335.25000000373,,123344.54000000551,,123349.813,,,
Thanks,html.Screen,1_5,2021-04-27T08:38:58.447Z,,,,,,,,,,,,,,,,,,,,,,,,,,,,,,,4407.65700000411,,response,,,,,,,,,,,continue,click button,,,,,,,,,127760.58000000194,127757.4700000041,123333.133,123344.70500000316,123349.813,130588.933,,,
Headphone screening,flow.Sequence,1,2021-04-27T08:38:58.447Z,,,,,,,,,,,,,,,,,,,,,,,,,,,,,,,91096.4000000041,,completion,,,,,,,,,,,,,,,,,,,,,127760.91499999893,127757.4700000041,36644.39,36652.58000000176,36661.07,130588.933,,,
Instructions,html.Page,2_0,2021-04-27T08:39:17.519Z,,,,,,,,,,,,,,,,,,,,,,,,,,,,,,,16243.107000001139,,form submission,,,,,,,,,,,,,,,,,,,,,146832.58500000375,146832.04000000114,130572.253,130584.2049999992,130588.933,146835.433,,,
Holding screen,html.Screen,2_1_0_0,2021-04-27T08:39:27.516Z,,,,,,,,,,,,,,,,,,,,,,,,,,,,,,,10008.235000000015,,timeout,,,,,,,,,,,,,,,,,,,,,156829.62500000576,156826.988,146818.753,146832.9550000053,146835.433,156843.668,,,
screen,html.Screen,2_1_0_1_0,2021-04-27T08:39:28.347Z,,,,,,,,,,,,,,,,,53,,,,,,,,,,,,,,808.0469999999623,,response,,,,99,,,,,,,Space,keypress(Space),,,,,,,,When -- ----- -- ------ - ------- --- ----------<br>------------- ------ ------ ---- ---- ------- ----- -- ----<br>-------- ------- -- ---------- --- - --- ----- ----- ----<br>---- --- --- ----- --- ---- ---- ------- ----- ---- -------<br>--- --- -- ----- -- --- ---- -- --- ---- -- ------ ------<br>--- ----- -- ----,157661.0800000053,157651.71499999997,156826.988,156830.00000000175,156843.668,157677.668,,0,When
screen,html.Screen,2_1_0_1_1,2021-04-27T08:39:28.839Z,,,,,,,,,,,,,,,,,53,,,,,,,,,,,,,,469.1470000000554,,response,,,,99,,,,,,,Space,keypress(Space),,,,,,,,---- it ----- -- ------ - ------- --- ----------<br>------------- ------ ------ ---- ---- ------- ----- -- ----<br>-------- ------- -- ---------- --- - --- ----- ----- ----<br>---- --- --- ----- --- ---- ---- ------- ----- ---- -------<br>--- --- -- ----- -- --- ---- -- --- ---- -- ------ ------<br>--- ----- -- ----,158152.4950000021,158146.81500000006,157660.988,157661.25000000466,157677.668,158161.583,,1,it
screen,html.Screen,2_1_0_1_2,2021-04-27T08:39:29.322Z,,,,,,,,,,,,,,,,,53,,,,,,,,,,,,,,468.85700000080396,,response,,,,99,,,,,,,Space,keypress(Space),,,,,,,,---- -- comes -- ------ - ------- --- ----------<br>------------- ------ ------ ---- ---- ------- ----- -- ----<br>-------- ------- -- ---------- --- - --- ----- ----- ----<br>---- --- --- ----- --- ---- ---- ------- ----- ---- -------<br>--- --- -- ----- -- --- ---- -- --- ---- -- ------ ------<br>--- ----- -- ----,158636.12500000454,158630.44000000082,158144.903,158154.08000000025,158161.583,158645.303,,2,comes
screen,html.Screen,2_1_0_1_3,2021-04-27T08:39:29.749Z,,,,,,,,,,,,,,,,,53,,,,,,,,,,,,,,411.6670000050799,,response,,,,99,,,,,,,Space,keypress(Space),,,,,,,,---- -- ----- to ------ - ------- --- ----------<br>------------- ------ ------ ---- ---- ------- ----- -- ----<br>-------- ------- -- ---------- --- - --- ----- ----- ----<br>---- --- --- ----- --- ---- ---- ------- ----- ---- -------<br>--- --- -- ----- -- --- ---- -- --- ---- -- ------ ------<br>--- ----- -- ----,159062.62500000594,159056.9700000051,158628.623,158636.37500000186,158645.303,159078.983,,3,to
screen,html.Screen,2_1_0_1_4,2021-04-27T08:39:30.210Z,,,,,,,,,,,,,,,,,53,,,,,,,,,,,,,,439.49200000439305,,response,,,,99,,,,,,,Space,keypress(Space),,,,,,,,---- -- ----- -- having - ------- --- ----------<br>------------- ------ ------ ---- ---- ------- ----- -- ----<br>-------- ------- -- ---------- --- - --- ----- ----- ----<br>---- --- --- ----- --- ---- ---- ------- ----- ---- -------<br>--- --- -- ----- -- --- ---- -- --- ---- -- ------ ------<br>--- ----- -- ----,159524.08000000287,159518.4750000044,159062.303,159063.00000000192,159078.983,159529.343,,4,having
screen,html.Screen,2_1_0_1_5,2021-04-27T08:39:30.672Z,,,,,,,,,,,,,,,,,53,,,,,,,,,,,,,,451.0370000008843,,response,,,,99,,,,,,,Space,keypress(Space),,,,,,,,---- -- ----- -- ------ a ------- --- ----------<br>------------- ------ ------ ---- ---- ------- ----- -- ----<br>-------- ------- -- ---------- --- - --- ----- ----- ----<br>---- --- --- ----- --- ---- ---- ------- ----- ---- -------<br>--- --- -- ----- -- --- ---- -- --- ---- -- ------ ------<br>--- ----- -- ----,159986.0400000034,159980.38000000088,159512.663,159524.41499999986,159529.343,159996.383,,5,a
screen,html.Screen,2_1_0_1_6,2021-04-27T08:39:31.122Z,,,,,,,,,,,,,,,,,53,,,,,,,,,,,,,,434.2670000020589,,response,,,,99,,,,,,,Space,keypress(Space),,,,,,,,---- -- ----- -- ------ - lasting --- ----------<br>------------- ------ ------ ---- ---- ------- ----- -- ----<br>-------- ------- -- ---------- --- - --- ----- ----- ----<br>---- --- --- ----- --- ---- ---- ------- ----- ---- -------<br>--- --- -- ----- -- --- ---- -- --- ---- -- ------ ------<br>--- ----- -- ----,160436.20500000543,160430.65000000206,159979.703,159986.4149999994,159996.383,160446.743,,6,lasting
screen,html.Screen,2_1_0_1_7,2021-04-27T08:39:31.549Z,,,,,,,,,,,,,,,,,53,,,,,,,,,,,,,,410.28200000480865,,response,,,,99,,,,,,,Space,keypress(Space),,,,,,,,---- -- ----- -- ------ - ------- and ----------<br>------------- ------ ------ ---- ---- ------- ----- -- ----<br>-------- ------- -- ---------- --- - --- ----- ----- ----<br>---- --- --- ----- --- ---- ---- ------- ----- ---- -------<br>--- --- -- ----- -- --- ---- -- --- ---- -- ------ ------<br>--- ----- -- ----,160862.70499999955,160857.0250000048,160430.063,160436.54000000242,160446.743,160863.743,,7,and
screen,html.Screen,2_1_0_1_8,2021-04-27T08:39:32.021Z,,,,,,,,,,,,,,,,,53,,,,,,,,,,,,,,466.4670000000915,,response,,,,99,,,,,,,Space,keypress(Space),,,,,,,,---- -- ----- -- ------ - ------- --- fulfilling<br>------------- ------ ------ ---- ---- ------- ----- -- ----<br>-------- ------- -- ---------- --- - --- ----- ----- ----<br>---- --- --- ----- --- ---- ---- ------- ----- ---- -------<br>--- --- -- ----- -- --- ---- -- --- ---- -- ------ ------<br>--- ----- -- ----,161335.20500000304,161330.21000000008,160847.063,160862.99500000314,160863.743,161347.463,,8,fulfilling
screen,html.Screen,2_1_0_1_9,2021-04-27T08:39:32.460Z,,,,,,,,,,,,,,,,,53,,,,,,,,,,,,,,421.0120000044117,,response,,,,99,,,,,,,Space,keypress(Space),,,,,,,,"---- -- ----- -- ------ - ------- --- ----------<br>relationship, ------ ------ ---- ---- ------- ----- -- ----<br>-------- ------- -- ---------- --- - --- ----- ----- ----<br>---- --- --- ----- --- ---- ---- ------- ----- ---- -------<br>--- --- -- ----- -- --- ---- -- --- ---- -- ------ ------<br>--- ----- -- ----",161774.0000000049,161768.4750000044,161330.783,161335.41500000138,161347.463,161781.143,,9,"relationship,"
screen,html.Screen,2_1_0_1_10,2021-04-27T08:39:32.953Z,,,,,,,,,,,,,,,,,53,,,,,,,,,,,,,,483.2370000005176,,response,,,,99,,,,,,,Space,keypress(Space),,,,,,,,---- -- ----- -- ------ - ------- --- ----------<br>------------- common ------ ---- ---- ------- ----- -- ----<br>-------- ------- -- ---------- --- - --- ----- ----- ----<br>---- --- --- ----- --- ---- ---- ------- ----- ---- -------<br>--- --- -- ----- -- --- ---- -- --- ---- -- ------ ------<br>--- ----- -- ----,162266.7500000025,162264.38000000053,161764.463,161774.2900000012,161781.143,162281.543,,10,common
screen,html.Screen,2_1_0_1_11,2021-04-27T08:39:33.428Z,,,,,,,,,,,,,,,,,53,,,,,,,,,,,,,,454.33700000017416,,response,,,,99,,,,,,,Space,keypress(Space),,,,,,,,---- -- ----- -- ------ - ------- --- ----------<br>------------- ------ wisdom ---- ---- ------- ----- -- ----<br>-------- ------- -- ---------- --- - --- ----- ----- ----<br>---- --- --- ----- --- ---- ---- ------- ----- ---- -------<br>--- --- -- ----- -- --- ---- -- --- ---- -- ------ ------<br>--- ----- -- ----,162742.04000000464,162735.88000000018,162264.863,162267.2900000034,162281.543,162748.583,,11,wisdom
screen,html.Screen,2_1_0_1_12,2021-04-27T08:39:33.862Z,,,,,,,,,,,,,,,,,53,,,,,,,,,,,,,,425.3370000010764,,response,,,,99,,,,,,,Space,keypress(Space),,,,,,,,---- -- ----- -- ------ - ------- --- ----------<br>------------- ------ ------ says ---- ------- ----- -- ----<br>-------- ------- -- ---------- --- - --- ----- ----- ----<br>---- --- --- ----- --- ---- ---- ------- ----- ---- -------<br>--- --- -- ----- -- --- ---- -- --- ---- -- ------ ------<br>--- ----- -- ----,163176.25000000407,163173.9200000011,162731.903,162742.33000000095,162748.583,163182.263,,12,says
screen,html.Screen,2_1_0_1_13,2021-04-27T08:39:34.294Z,,,,,,,,,,,,,,,,,53,,,,,,,,,,,,,,419.9020000038727,,response,,,,99,,,,,,,Space,keypress(Space),,,,,,,,---- -- ----- -- ------ - ------- --- ----------<br>------------- ------ ------ ---- that ------- ----- -- ----<br>-------- ------- -- ---------- --- - --- ----- ----- ----<br>---- --- --- ----- --- ---- ---- ------- ----- ---- -------<br>--- --- -- ----- -- --- ---- -- --- ---- -- ------ ------<br>--- ----- -- ----,163607.75000000285,163602.16500000388,163165.583,163176.37000000104,163182.263,163615.943,,13,that
screen,html.Screen,2_1_0_1_14,2021-04-27T08:39:34.789Z,,,,,,,,,,,,,,,,,53,,,,,,,,,,,,,,481.08200000275974,,response,,,,99,,,,,,,Space,keypress(Space),,,,,,,,---- -- ----- -- ------ - ------- --- ----------<br>------------- ------ ------ ---- ---- feeling ----- -- ----<br>-------- ------- -- ---------- --- - --- ----- ----- ----<br>---- --- --- ----- --- ---- ---- ------- ----- ---- -------<br>--- --- -- ----- -- --- ---- -- --- ---- -- ------ ------<br>--- ----- -- ----,164102.4550000002,164097.02500000276,163599.263,163608.00000000017,163615.943,164116.343,,14,feeling
screen,html.Screen,2_1_0_1_15,2021-04-27T08:39:35.239Z,,,,,,,,,,,,,,,,,53,,,,,,,,,,,,,,430.9770000051358,,response,,,,99,,,,,,,Space,keypress(Space),,,,,,,,---- -- ----- -- ------ - ------- --- ----------<br>------------- ------ ------ ---- ---- ------- close -- ----<br>-------- ------- -- ---------- --- - --- ----- ----- ----<br>---- --- --- ----- --- ---- ---- ------- ----- ---- -------<br>--- --- -- ----- -- --- ---- -- --- ---- -- ------ ------<br>--- ----- -- ----,164553.03999999887,164547.32000000513,164099.663,164102.7050000048,164116.343,164566.703,,15,close
screen,html.Screen,2_1_0_1_16,2021-04-27T08:39:35.633Z,,,,,,,,,,,,,,,,,53,,,,,,,,,,,,,,374.47199999992154,,response,,,,99,,,,,,,Space,keypress(Space),,,,,,,,---- -- ----- -- ------ - ------- --- ----------<br>------------- ------ ------ ---- ---- ------- ----- to ----<br>-------- ------- -- ---------- --- - --- ----- ----- ----<br>---- --- --- ----- --- ---- ---- ------- ----- ---- -------<br>--- --- -- ----- -- --- ---- -- --- ---- -- ------ ------<br>--- ----- -- ----,164946.83000000077,164941.17499999993,164550.023,164553.41500000213,164566.703,164950.343,,16,to
screen,html.Screen,2_1_0_1_17,2021-04-27T08:39:36.004Z,,,,,,,,,,,,,,,,,53,,,,,,,,,,,,,,361.77700000233017,,response,,,,99,,,,,,,Space,keypress(Space),,,,,,,,---- -- ----- -- ------ - ------- --- ----------<br>------------- ------ ------ ---- ---- ------- ----- -- your<br>-------- ------- -- ---------- --- - --- ----- ----- ----<br>---- --- --- ----- --- ---- ---- ------- ----- ---- -------<br>--- --- -- ----- -- --- ---- -- --- ---- -- ------ ------<br>--- ----- -- ----,165317.58000000264,165312.12000000232,164933.663,164947.12499999878,164950.343,165333.983,,17,your
screen,html.Screen,2_1_0_1_18,2021-04-27T08:39:36.375Z,,,,,,,,,,,,,,,,,53,,,,,,,,,,,,,,350.2469999989262,,response,,,,99,,,,,,,Space,keypress(Space),,,,,,,,---- -- ----- -- ------ - ------- --- ----------<br>------------- ------ ------ ---- ---- ------- ----- -- ----<br>romantic ------- -- ---------- --- - --- ----- ----- ----<br>---- --- --- ----- --- ---- ---- ------- ----- ---- -------<br>--- --- -- ----- -- --- ---- -- --- ---- -- ------ ------<br>--- ----- -- ----,165688.91499999881,165684.22999999893,165317.303,165317.86999999895,165333.983,165700.943,,18,romantic
screen,html.Screen,2_1_0_1_19,2021-04-27T08:39:36.735Z,,,,,,,,,,,,,,,,,53,,,,,,,,,,,,,,343.1020000023709,,response,,,,99,,,,,,,Space,keypress(Space),,,,,,,,---- -- ----- -- ------ - ------- --- ----------<br>------------- ------ ------ ---- ---- ------- ----- -- ----<br>-------- partner -- ---------- --- - --- ----- ----- ----<br>---- --- --- ----- --- ---- ---- ------- ----- ---- -------<br>--- --- -- ----- -- --- ---- -- --- ---- -- ------ ------<br>--- ----- -- ----,166049.20500000298,166044.04500000237,165684.263,165689.1650000034,165700.943,166051.223,,19,partner
screen,html.Screen,2_1_0_1_20,2021-04-27T08:39:37.174Z,,,,,,,,,,,,,,,,,53,,,,,,,,,,,,,,431.0270000009332,,response,,,,99,,,,,,,Space,keypress(Space),,,,,,,,---- -- ----- -- ------ - ------- --- ----------<br>------------- ------ ------ ---- ---- ------- ----- -- ----<br>-------- ------- is ---------- --- - --- ----- ----- ----<br>---- --- --- ----- --- ---- ---- ------- ----- ---- -------<br>--- --- -- ----- -- --- ---- -- --- ---- -- ------ ------<br>--- ----- -- ----,166488.1200000018,166482.25000000093,166034.543,166049.41500000132,166051.223,166501.583,,20,is
screen,html.Screen,2_1_0_1_21,2021-04-27T08:39:37.579Z,,,,,,,,,,,,,,,,,53,,,,,,,,,,,,,,385.59200000346755,,response,,,,99,,,,,,,Space,keypress(Space),,,,,,,,---- -- ----- -- ------ - ------- --- ----------<br>------------- ------ ------ ---- ---- ------- ----- -- ----<br>-------- ------- -- paramount. --- - --- ----- ----- ----<br>---- --- --- ----- --- ---- ---- ------- ----- ---- -------<br>--- --- -- ----- -- --- ---- -- --- ---- -- ------ ------<br>--- ----- -- ----,166892.915000004,166887.17500000348,166484.903,166488.4149999998,166501.583,166901.903,,21,paramount.
screen,html.Screen,2_1_0_1_22,2021-04-27T08:39:38.345Z,,,,,,,,,,,,,,,,,53,,,,,,,,,,,,,,751.4370000044,,response,,,,99,,,,,,,Space,keypress(Space),,,,,,,,---- -- ----- -- ------ - ------- --- ----------<br>------------- ------ ------ ---- ---- ------- ----- -- ----<br>-------- ------- -- ---------- But - --- ----- ----- ----<br>---- --- --- ----- --- ---- ---- ------- ----- ---- -------<br>--- --- -- ----- -- --- ---- -- --- ---- -- ------ ------<br>--- ----- -- ----,167658.8699999993,167653.3400000044,166885.223,166893.2050000003,166901.903,167669.183,,22,But
screen,html.Screen,2_1_0_1_23,2021-04-27T08:39:38.751Z,,,,,,,,,,,,,,,,,53,,,,,,,,,,,,,,388.71200000538374,,response,,,,99,,,,,,,Space,keypress(Space),,,,,,,,---- -- ----- -- ------ - ------- --- ----------<br>------------- ------ ------ ---- ---- ------- ----- -- ----<br>-------- ------- -- ---------- --- a --- ----- ----- ----<br>---- --- --- ----- --- ---- ---- ------- ----- ---- -------<br>--- --- -- ----- -- --- ---- -- --- ---- -- ------ ------<br>--- ----- -- ----,168065.29000000592,168057.89500000537,167652.503,167659.29000000324,167669.183,168069.615,,23,a
screen,html.Screen,2_1_0_1_24,2021-04-27T08:39:39.110Z,,,,,,,,,,,,,,,,,53,,,,,,,,,,,,,,348.170000005106,,response,,,,99,,,,,,,Space,keypress(Space),,,,,,,,---- -- ----- -- ------ - ------- --- ----------<br>------------- ------ ------ ---- ---- ------- ----- -- ----<br>-------- ------- -- ---------- --- - new ----- ----- ----<br>---- --- --- ----- --- ---- ---- ------- ----- ---- -------<br>--- --- -- ----- -- --- ---- -- --- ---- -- ------ ------<br>--- ----- -- ----,168423.37000000407,168417.7850000051,168052.935,168065.54000000324,168069.615,168436.575,,24,new
screen,html.Screen,2_1_0_1_25,2021-04-27T08:39:39.469Z,,,,,,,,,,,,,,,,,53,,,,,,,,,,,,,,340.585000005085,,response,,,,99,,,,,,,Space,keypress(Space),,,,,,,,---- -- ----- -- ------ - ------- --- ----------<br>------------- ------ ------ ---- ---- ------- ----- -- ----<br>-------- ------- -- ---------- --- - --- study ----- ----<br>---- --- --- ----- --- ---- ---- ------- ----- ---- -------<br>--- --- -- ----- -- --- ---- -- --- ---- -- ------ ------<br>--- ----- -- ----,168782.54000000015,168777.1600000051,168419.895,168423.62500000309,168436.575,168786.855,,25,study
screen,html.Screen,2_1_0_1_26,2021-04-27T08:39:39.852Z,,,,,,,,,,,,,,,,,53,,,,,,,,,,,,,,373.51500000504893,,response,,,,99,,,,,,,Space,keypress(Space),,,,,,,,---- -- ----- -- ------ - ------- --- ----------<br>------------- ------ ------ ---- ---- ------- ----- -- ----<br>-------- ------- -- ---------- --- - --- ----- finds ----<br>---- --- --- ----- --- ---- ---- ------- ----- ---- -------<br>--- --- -- ----- -- --- ---- -- --- ---- -- ------ ------<br>--- ----- -- ----,169165.87499999878,169160.37000000506,168770.175,168782.75000000576,168786.855,169170.495,,26,finds
screen,html.Screen,2_1_0_1_27,2021-04-27T08:39:40.235Z,,,,,,,,,,,,,,,,,53,,,,,,,,,,,,,,372.5299999990384,,response,,,,99,,,,,,,Space,keypress(Space),,,,,,,,---- -- ----- -- ------ - ------- --- ----------<br>------------- ------ ------ ---- ---- ------- ----- -- ----<br>-------- ------- -- ---------- --- - --- ----- ----- that<br>---- --- --- ----- --- ---- ---- ------- ----- ---- -------<br>--- --- -- ----- -- --- ---- -- --- ---- -- ------ ------<br>--- ----- -- ----,169548.41500000475,169543.02499999903,169153.815,169166.12000000168,169170.495,169554.135,,27,that
screen,html.Screen,2_1_0_1_28,2021-04-27T08:39:40.617Z,,,,,,,,,,,,,,,,,53,,,,,,,,,,,,,,371.5649999997695,,response,,,,99,,,,,,,Space,keypress(Space),,,,,,,,---- -- ----- -- ------ - ------- --- ----------<br>------------- ------ ------ ---- ---- ------- ----- -- ----<br>-------- ------- -- ---------- --- - --- ----- ----- ----<br>it's --- --- ----- --- ---- ---- ------- ----- ---- -------<br>--- --- -- ----- -- --- ---- -- --- ---- -- ------ ------<br>--- ----- -- ----,169931.1250000028,169925.69999999978,169537.455,169548.79000000074,169554.135,169937.775,,28,it's
screen,html.Screen,2_1_0_1_29,2021-04-27T08:39:40.987Z,,,,,,,,,,,,,,,,,53,,,,,,,,,,,,,,358.12000000293483,,response,,,,99,,,,,,,Space,keypress(Space),,,,,,,,---- -- ----- -- ------ - ------- --- ----------<br>------------- ------ ------ ---- ---- ------- ----- -- ----<br>-------- ------- -- ---------- --- - --- ----- ----- ----<br>---- not --- ----- --- ---- ---- ------- ----- ---- -------<br>--- --- -- ----- -- --- ---- -- --- ---- -- ------ ------<br>--- ----- -- ----,170301.1250000054,170295.89500000293,169921.095,169931.32999999943,169937.775,170304.735,,29,not
screen,html.Screen,2_1_0_1_30,2021-04-27T08:39:41.360Z,,,,,,,,,,,,,,,,,53,,,,,,,,,,,,,,363.18499999988126,,response,,,,99,,,,,,,Space,keypress(Space),,,,,,,,---- -- ----- -- ------ - ------- --- ----------<br>------------- ------ ------ ---- ---- ------- ----- -- ----<br>-------- ------- -- ---------- --- - --- ----- ----- ----<br>---- --- how ----- --- ---- ---- ------- ----- ---- -------<br>--- --- -- ----- -- --- ---- -- --- ---- -- ------ ------<br>--- ----- -- ----,170673.5800000024,170667.91999999987,170288.055,170301.41500000173,170304.735,170688.375,,30,how
screen,html.Screen,2_1_0_1_31,2021-04-27T08:39:41.719Z,,,,,,,,,,,,,,,,,53,,,,,,,,,,,,,,339.3000000048196,,response,,,,99,,,,,,,Space,keypress(Space),,,,,,,,---- -- ----- -- ------ - ------- --- ----------<br>------------- ------ ------ ---- ---- ------- ----- -- ----<br>-------- ------- -- ---------- --- - --- ----- ----- ----<br>---- --- --- close --- ---- ---- ------- ----- ---- -------<br>--- --- -- ----- -- --- ---- -- --- ---- -- ------ ------<br>--- ----- -- ----,171033.00000000309,171027.67500000482,170671.695,170673.8750000004,170688.375,171038.655,,31,close
screen,html.Screen,2_1_0_1_32,2021-04-27T08:39:42.089Z,,,,,,,,,,,,,,,,,53,,,,,,,,,,,,,,360.16000000046915,,response,,,,99,,,,,,,Space,keypress(Space),,,,,,,,---- -- ----- -- ------ - ------- --- ----------<br>------------- ------ ------ ---- ---- ------- ----- -- ----<br>-------- ------- -- ---------- --- - --- ----- ----- ----<br>---- --- --- ----- you ---- ---- ------- ----- ---- -------<br>--- --- -- ----- -- --- ---- -- --- ---- -- ------ ------<br>--- ----- -- ----,171402.87499999977,171398.81500000047,171021.975,171033.33000000566,171038.655,171422.295,,32,you
screen,html.Screen,2_1_0_1_33,2021-04-27T08:39:42.485Z,,,,,,,,,,,,,,,,,53,,,,,,,,,,,,,,370.5400000001828,,response,,,,99,,,,,,,Space,keypress(Space),,,,,,,,---- -- ----- -- ------ - ------- --- ----------<br>------------- ------ ------ ---- ---- ------- ----- -- ----<br>-------- ------- -- ---------- --- - --- ----- ----- ----<br>---- --- --- ----- --- feel ---- ------- ----- ---- -------<br>--- --- -- ----- -- --- ---- -- --- ---- -- ------ ------<br>--- ----- -- ----,171798.50000000442,171792.8350000002,171405.615,171405.29000000242,171422.295,171805.935,,33,feel
screen,html.Screen,2_1_0_1_34,2021-04-27T08:39:42.845Z,,,,,,,,,,,,,,,,,53,,,,,,,,,,,,,,347.18000000098255,,response,,,,99,,,,,,,Space,keypress(Space),,,,,,,,---- -- ----- -- ------ - ------- --- ----------<br>------------- ------ ------ ---- ---- ------- ----- -- ----<br>-------- ------- -- ---------- --- - --- ----- ----- ----<br>---- --- --- ----- --- ---- that ------- ----- ---- -------<br>--- --- -- ----- -- --- ---- -- --- ---- -- ------ ------<br>--- ----- -- ----,172158.58000000298,172153.11500000098,171789.255,171798.75000000175,171805.935,172172.895,,34,that
screen,html.Screen,2_1_0_1_35,2021-04-27T08:39:43.227Z,,,,,,,,,,,,,,,,,53,,,,,,,,,,,,,,362.36000000251806,,response,,,,99,,,,,,,Space,keypress(Space),,,,,,,,---- -- ----- -- ------ - ------- --- ----------<br>------------- ------ ------ ---- ---- ------- ----- -- ----<br>-------- ------- -- ---------- --- - --- ----- ----- ----<br>---- --- --- ----- --- ---- ---- matters ----- ---- -------<br>--- --- -- ----- -- --- ---- -- --- ---- -- ------ ------<br>--- ----- -- ----,172540.70499999943,172535.2550000025,172156.215,172158.8699999993,172172.895,172556.535,,35,matters
screen,html.Screen,2_1_0_1_36,2021-04-27T08:39:43.587Z,,,,,,,,,,,,,,,,,53,,,,,,,,,,,,,,339.1950000038196,,response,,,,99,,,,,,,Space,keypress(Space),,,,,,,,"---- -- ----- -- ------ - ------- --- ----------<br>------------- ------ ------ ---- ---- ------- ----- -- ----<br>-------- ------- -- ---------- --- - --- ----- ----- ----<br>---- --- --- ----- --- ---- ---- ------- most, ---- -------<br>--- --- -- ----- -- --- ---- -- --- ---- -- ------ ------<br>--- ----- -- ----",172901.25000000262,172895.73000000382,172539.855,172541.9550000006,172556.535,172906.815,,36,"most,"
screen,html.Screen,2_1_0_1_37,2021-04-27T08:39:43.969Z,,,,,,,,,,,,,,,,,53,,,,,,,,,,,,,,371.01499999908265,,response,,,,99,,,,,,,Space,keypress(Space),,,,,,,,---- -- ----- -- ------ - ------- --- ----------<br>------------- ------ ------ ---- ---- ------- ----- -- ----<br>-------- ------- -- ---------- --- - --- ----- ----- ----<br>---- --- --- ----- --- ---- ---- ------- ----- it's -------<br>--- --- -- ----- -- --- ---- -- --- ---- -- ------ ------<br>--- ----- -- ----,173283.20499999973,173277.82999999908,172890.135,172901.5800000052,172906.815,173290.455,,37,it's
screen,html.Screen,2_1_0_1_38,2021-04-27T08:39:44.398Z,,,,,,,,,,,,,,,,,53,,,,,,,,,,,,,,415.2249999991327,,response,,,,99,,,,,,,Space,keypress(Space),,,,,,,,---- -- ----- -- ------ - ------- --- ----------<br>------------- ------ ------ ---- ---- ------- ----- -- ----<br>-------- ------- -- ---------- --- - --- ----- ----- ----<br>---- --- --- ----- --- ---- ---- ------- ----- ---- whether<br>--- --- -- ----- -- --- ---- -- --- ---- -- ------ ------<br>--- ----- -- ----,173711.70500000153,173705.67999999912,173273.775,173283.500000005,173290.455,173724.135,,38,whether
screen,html.Screen,2_1_0_1_39,2021-04-27T08:39:44.778Z,,,,,,,,,,,,,,,,,53,,,,,,,,,,,,,,362.7999999993481,,response,,,,99,,,,,,,Space,keypress(Space),,,,,,,,---- -- ----- -- ------ - ------- --- ----------<br>------------- ------ ------ ---- ---- ------- ----- -- ----<br>-------- ------- -- ---------- --- - --- ----- ----- ----<br>---- --- --- ----- --- ---- ---- ------- ----- ---- -------<br>you --- -- ----- -- --- ---- -- --- ---- -- ------ ------<br>--- ----- -- ----,174092.0000000042,174086.93499999936,173707.455,173711.99500000512,173724.135,174107.775,,39,you
screen,html.Screen,2_1_0_1_40,2021-04-27T08:39:45.142Z,,,,,,,,,,,,,,,,,53,,,,,,,,,,,,,,342.0200000004552,,response,,,,99,,,,,,,Space,keypress(Space),,,,,,,,---- -- ----- -- ------ - ------- --- ----------<br>------------- ------ ------ ---- ---- ------- ----- -- ----<br>-------- ------- -- ---------- --- - --- ----- ----- ----<br>---- --- --- ----- --- ---- ---- ------- ----- ---- -------<br>--- are -- ----- -- --- ---- -- --- ---- -- ------ ------<br>--- ----- -- ----,174455.45500000298,174449.79500000045,174091.095,174092.16500000184,174107.775,174458.055,,40,are
screen,html.Screen,2_1_0_1_41,2021-04-27T08:39:45.511Z,,,,,,,,,,,,,,,,,53,,,,,,,,,,,,,,361.05500000400934,,response,,,,99,,,,,,,Space,keypress(Space),,,,,,,,---- -- ----- -- ------ - ------- --- ----------<br>------------- ------ ------ ---- ---- ------- ----- -- ----<br>-------- ------- -- ---------- --- - --- ----- ----- ----<br>---- --- --- ----- --- ---- ---- ------- ----- ---- -------<br>--- --- as ----- -- --- ---- -- --- ---- -- ------ ------<br>--- ----- -- ----,174824.83000000502,174819.110000004,174441.375,174455.7050000003,174458.055,174841.695,,41,as
screen,html.Screen,2_1_0_1_42,2021-04-27T08:39:45.893Z,,,,,,,,,,,,,,,,,53,,,,,,,,,,,,,,359.1450000049663,,response,,,,99,,,,,,,Space,keypress(Space),,,,,,,,---- -- ----- -- ------ - ------- --- ----------<br>------------- ------ ------ ---- ---- ------- ----- -- ----<br>-------- ------- -- ---------- --- - --- ----- ----- ----<br>---- --- --- ----- --- ---- ---- ------- ----- ---- -------<br>--- --- -- close -- --- ---- -- --- ---- -- ------ ------<br>--- ----- -- ----,175206.66500000516,175200.84000000497,174825.015,174825.16500000202,174841.695,175208.655,,42,close
screen,html.Screen,2_1_0_1_43,2021-04-27T08:39:46.298Z,,,,,,,,,,,,,,,,,53,,,,,,,,,,,,,,398.16500000088126,,response,,,,99,,,,,,,Space,keypress(Space),,,,,,,,---- -- ----- -- ------ - ------- --- ----------<br>------------- ------ ------ ---- ---- ------- ----- -- ----<br>-------- ------- -- ---------- --- - --- ----- ----- ----<br>---- --- --- ----- --- ---- ---- ------- ----- ---- -------<br>--- --- -- ----- as --- ---- -- --- ---- -- ------ ------<br>--- ----- -- ----,175612.16500000592,175606.82000000088,175191.975,175206.96000000316,175208.655,175625.655,,43,as
screen,html.Screen,2_1_0_1_44,2021-04-27T08:39:46.646Z,,,,,,,,,,,,,,,,,53,,,,,,,,,,,,,,328.8649999993213,,response,,,,99,,,,,,,Space,keypress(Space),,,,,,,,---- -- ----- -- ------ - ------- --- ----------<br>------------- ------ ------ ---- ---- ------- ----- -- ----<br>-------- ------- -- ---------- --- - --- ----- ----- ----<br>---- --- --- ----- --- ---- ---- ------- ----- ---- -------<br>--- --- -- ----- -- you ---- -- --- ---- -- ------ ------<br>--- ----- -- ----,175960.0400000054,175954.51999999932,175608.975,175612.45500000223,175625.655,175975.935,,44,you
screen,html.Screen,2_1_0_1_45,2021-04-27T08:39:47.038Z,,,,,,,,,,,,,,,,,53,,,,,,,,,,,,,,372.1300000055926,,response,,,,99,,,,,,,Space,keypress(Space),,,,,,,,---- -- ----- -- ------ - ------- --- ----------<br>------------- ------ ------ ---- ---- ------- ----- -- ----<br>-------- ------- -- ---------- --- - --- ----- ----- ----<br>---- --- --- ----- --- ---- ---- ------- ----- ---- -------<br>--- --- -- ----- -- --- want -- --- ---- -- ------ ------<br>--- ----- -- ----,176352.1200000032,176348.0650000056,175959.255,175960.3750000024,175975.935,176359.575,,45,want
screen,html.Screen,2_1_0_1_46,2021-04-27T08:39:47.412Z,,,,,,,,,,,,,,,,,53,,,,,,,,,,,,,,360.36500000266824,,response,,,,99,,,,,,,Space,keypress(Space),,,,,,,,---- -- ----- -- ------ - ------- --- ----------<br>------------- ------ ------ ---- ---- ------- ----- -- ----<br>-------- ------- -- ---------- --- - --- ----- ----- ----<br>---- --- --- ----- --- ---- ---- ------- ----- ---- -------<br>--- --- -- ----- -- --- ---- to --- ---- -- ------ ------<br>--- ----- -- ----,176725.53999999946,176719.94000000268,176342.895,176352.33000000153,176359.575,176726.535,,46,to
screen,html.Screen,2_1_0_1_47,2021-04-27T08:39:47.794Z,,,,,,,,,,,,,,,,,53,,,,,,,,,,,,,,375.95999999917694,,response,,,,99,,,,,,,Space,keypress(Space),,,,,,,,"---- -- ----- -- ------ - ------- --- ----------<br>------------- ------ ------ ---- ---- ------- ----- -- ----<br>-------- ------- -- ---------- --- - --- ----- ----- ----<br>---- --- --- ----- --- ---- ---- ------- ----- ---- -------<br>--- --- -- ----- -- --- ---- -- be, ---- -- ------ ------<br>--- ----- -- ----",177107.83000000083,177102.49499999918,176709.855,176725.87000000203,176726.535,177110.175,,47,"be,"
screen,html.Screen,2_1_0_1_48,2021-04-27T08:39:48.254Z,,,,,,,,,,,,,,,,,53,,,,,,,,,,,,,,453.6600000008475,,response,,,,99,,,,,,,Space,keypress(Space),,,,,,,,---- -- ----- -- ------ - ------- --- ----------<br>------------- ------ ------ ---- ---- ------- ----- -- ----<br>-------- ------- -- ---------- --- - --- ----- ----- ----<br>---- --- --- ----- --- ---- ---- ------- ----- ---- -------<br>--- --- -- ----- -- --- ---- -- --- even -- ------ ------<br>--- ----- -- ----,177568.12000000355,177563.83500000084,177093.495,177108.03999999916,177110.175,177577.215,,48,even
screen,html.Screen,2_1_0_1_49,2021-04-27T08:39:48.594Z,,,,,,,,,,,,,,,,,53,,,,,,,,,,,,,,324.754999998986,,response,,,,99,,,,,,,Space,keypress(Space),,,,,,,,---- -- ----- -- ------ - ------- --- ----------<br>------------- ------ ------ ---- ---- ------- ----- -- ----<br>-------- ------- -- ---------- --- - --- ----- ----- ----<br>---- --- --- ----- --- ---- ---- ------- ----- ---- -------<br>--- --- -- ----- -- --- ---- -- --- ---- if ------ ------<br>--- ----- -- ----,177907.3750000025,177901.96999999898,177560.535,177568.2450000022,177577.215,177910.933,,49,if
screen,html.Screen,2_1_0_1_50,2021-04-27T08:39:49.012Z,,,,,,,,,,,,,,,,,53,,,,,,,,,,,,,,407.58700000072713,,response,,,,99,,,,,,,Space,keypress(Space),,,,,,,,---- -- ----- -- ------ - ------- --- ----------<br>------------- ------ ------ ---- ---- ------- ----- -- ----<br>-------- ------- -- ---------- --- - --- ----- ----- ----<br>---- --- --- ----- --- ---- ---- ------- ----- ---- -------<br>--- --- -- ----- -- --- ---- -- --- ---- -- that's ------<br>--- ----- -- ----,178325.7500000036,178318.52000000072,177894.253,177907.57999999914,177910.933,178327.933,,50,that's
screen,html.Screen,2_1_0_1_51,2021-04-27T08:39:49.425Z,,,,,,,,,,,,,,,,,53,,,,,,,,,,,,,,405.4220000039495,,response,,,,99,,,,,,,Space,keypress(Space),,,,,,,,---- -- ----- -- ------ - ------- --- ----------<br>------------- ------ ------ ---- ---- ------- ----- -- ----<br>-------- ------- -- ---------- --- - --- ----- ----- ----<br>---- --- --- ----- --- ---- ---- ------- ----- ---- -------<br>--- --- -- ----- -- --- ---- -- --- ---- -- ------ really<br>--- ----- -- ----,178738.83000000205,178733.35500000394,178311.253,178325.95500000025,178327.933,178744.933,,51,really
screen,html.Screen,2_1_0_1_52,2021-04-27T08:39:49.819Z,,,,,,,,,,,,,,,,,53,,,,,,,,,,,,,,382.2720000043337,,response,,,,99,,,,,,,Space,keypress(Space),,,,,,,,---- -- ----- -- ------ - ------- --- ----------<br>------------- ------ ------ ---- ---- ------- ----- -- ----<br>-------- ------- -- ---------- --- - --- ----- ----- ----<br>---- --- --- ----- --- ---- ---- ------- ----- ---- -------<br>--- --- -- ----- -- --- ---- -- --- ---- -- ------ ------<br>not ----- -- ----,179132.8300000023,179127.20500000432,178728.253,178739.12500000006,178744.933,179145.253,,52,not
screen,html.Screen,2_1_0_1_53,2021-04-27T08:39:50.213Z,,,,,,,,,,,,,,,,,53,,,,,,,,,,,,,,376.2320000047621,,response,,,,99,,,,,,,Space,keypress(Space),,,,,,,,---- -- ----- -- ------ - ------- --- ----------<br>------------- ------ ------ ---- ---- ------- ----- -- ----<br>-------- ------- -- ---------- --- - --- ----- ----- ----<br>---- --- --- ----- --- ---- ---- ------- ----- ---- -------<br>--- --- -- ----- -- --- ---- -- --- ---- -- ------ ------<br>--- close -- ----,179526.49500000553,179521.48500000476,179128.573,179133.12000000587,179145.253,179528.893,,53,close
screen,html.Screen,2_1_0_1_54,2021-04-27T08:39:50.652Z,,,,,,,,,,,,,,,,,53,,,,,,,,,,,,,,431.347000000329,,response,,,,99,,,,,,,Space,keypress(Space),,,,,,,,---- -- ----- -- ------ - ------- --- ----------<br>------------- ------ ------ ---- ---- ------- ----- -- ----<br>-------- ------- -- ---------- --- - --- ----- ----- ----<br>---- --- --- ----- --- ---- ---- ------- ----- ---- -------<br>--- --- -- ----- -- --- ---- -- --- ---- -- ------ ------<br>--- ----- at ----,179965.96000000136,179960.24000000034,179512.213,179526.79000000353,179528.893,179979.253,,54,at
screen,html.Screen,2_1_0_1_55,2021-04-27T08:39:51.534Z,,,,,,,,,,,,,,,,,53,,,,,,,,,,,,,,862.6920000001264,,response,,,,99,,,,,,,Space,keypress(Space),,,,,,,,---- -- ----- -- ------ - ------- --- ----------<br>------------- ------ ------ ---- ---- ------- ----- -- ----<br>-------- ------- -- ---------- --- - --- ----- ----- ----<br>---- --- --- ----- --- ---- ---- ------- ----- ---- -------<br>--- --- -- ----- -- --- ---- -- --- ---- -- ------ ------<br>--- ----- -- all.,180847.66500000114,180841.94500000012,179962.573,179966.25000000495,179979.253,180863.293,,55,all.
Item 99,flow.Loop,2_1_0_1,2021-04-27T08:39:51.535Z,,,,,,,,,,,,,,,,,,,,,,,,,,,,,,,23998.27700000012,,completion,,,,,F,,,,,,,,,,,silence,,,,,180848.3699999997,180841.94500000012,156826.988,156829.91500000207,156843.668,180863.293,,,
Question 1,html.Screen,2_1_0_2,2021-04-27T08:39:58.568Z,,,,,,,,,,,,,,,,,,,,,,,,,,,,true,FALSE,,7015.257000001264,,response,,,,99,F,,,,,,FALSE,click #choice-2,,,,silence,,,,,187881.78999999946,187878.55000000127,180846.613,180848.49500000564,180863.293,187885.573,,,
Question 2,html.Screen,2_1_0_3,2021-04-27T08:40:01.380Z,,,,,,,,,,,,,,,,,,,,,,,,,,,,true,TRUE,,2805.672000001796,,response,,,,99,F,,,,,,TRUE,click #choice-1,,,,silence,,,,,190693.7900000048,190691.2450000018,187868.893,187882.08000000304,187885.573,190704.782,,,
Item 99,flow.Sequence,2_1_0,2021-04-27T08:40:01.380Z,,,,,,,,,,,,,,,,,,,,,,,,,,,,,,,43855.81200000181,,completion,,,,,,,,,,,,,,,,,,,,,190694.1200000001,190691.2450000018,146818.753,146832.91499999905,146835.433,190704.782,,,
Holding screen,html.Screen,2_1_1_0,2021-04-27T08:40:11.384Z,,,,,,,,,,,,,,,,,,,,,,,,,,,,,,,10008.165999999997,,timeout,,,,,,,,,,,,,,,,,,,,,200698.1650000016,200696.268,190688.102,190694.33000000572,190704.782,200712.948,,,
screen,html.Screen,2_1_1_1_0,2021-04-27T08:40:12.137Z,,,,,,,,,,,,,,,,,54,,,,,,,,,,,,,,733.3419999998587,,response,,,,100,,,,,,,Space,keypress(Space),,,,,,,,At --- ---- --- ------ ----- ------- ---- -- --- ------- --<br>------- ---------- ------ -- ----- -- ----- -- ---- ------<br>--- ----- --- --- ------ -------- ----- --- ------ ----- --<br>----- ----- ---------- --- --- ------ ------ ---- -- ------<br>------- --- ------ ----- --- ---- ------- -- ---- --- --<br>------- ------,201450.91500000126,201446.28999999986,200696.268,200698.4950000042,200712.948,201463.548,,0,At
screen,html.Screen,2_1_1_1_1,2021-04-27T08:40:12.488Z,,,,,,,,,,,,,,,,,54,,,,,,,,,,,,,,332.8120000002673,,response,,,,100,,,,,,,Space,keypress(Space),,,,,,,,-- the ---- --- ------ ----- ------- ---- -- --- ------- --<br>------- ---------- ------ -- ----- -- ----- -- ---- ------<br>--- ----- --- --- ------ -------- ----- --- ------ ----- --<br>----- ----- ---------- --- --- ------ ------ ---- -- ------<br>------- --- ------ ----- --- ---- ------- -- ---- --- --<br>------- ------,201802.1200000003,201796.36000000028,201446.868,201451.0799999989,201463.548,201813.828,,1,the
screen,html.Screen,2_1_1_1_2,2021-04-27T08:40:12.871Z,,,,,,,,,,,,,,,,,54,,,,,,,,,,,,,,365.7920000026061,,response,,,,100,,,,,,,Space,keypress(Space),,,,,,,,-- --- time --- ------ ----- ------- ---- -- --- ------- --<br>------- ---------- ------ -- ----- -- ----- -- ---- ------<br>--- ----- --- --- ------ -------- ----- --- ------ ----- --<br>----- ----- ---------- --- --- ------ ------ ---- -- ------<br>------- --- ------ ----- --- ---- ------- -- ---- --- --<br>------- ------,202185.08000000293,202179.62000000261,201797.148,201802.3300000059,201813.828,202197.468,,2,time
screen,html.Screen,2_1_1_1_3,2021-04-27T08:40:13.219Z,,,,,,,,,,,,,,,,,54,,,,,,,,,,,,,,329.3770000003278,,response,,,,100,,,,,,,Space,keypress(Space),,,,,,,,-- --- ---- the ------ ----- ------- ---- -- --- ------- --<br>------- ---------- ------ -- ----- -- ----- -- ---- ------<br>--- ----- --- --- ------ -------- ----- --- ------ ----- --<br>----- ----- ---------- --- --- ------ ------ ---- -- ------<br>------- --- ------ ----- --- ---- ------- -- ---- --- --<br>------- ------,202532.29000000283,202526.84500000032,202180.788,202185.33000000025,202197.468,202547.748,,3,the
screen,html.Screen,2_1_1_1_4,2021-04-27T08:40:13.590Z,,,,,,,,,,,,,,,,,54,,,,,,,,,,,,,,351.0920000016631,,response,,,,100,,,,,,,Space,keypress(Space),,,,,,,,-- --- ---- --- French ----- ------- ---- -- --- ------- --<br>------- ---------- ------ -- ----- -- ----- -- ---- ------<br>--- ----- --- --- ------ -------- ----- --- ------ ----- --<br>----- ----- ---------- --- --- ------ ------ ---- -- ------<br>------- --- ------ ----- --- ---- ------- -- ---- --- --<br>------- ------,202904.16499999992,202898.84000000166,202531.068,202532.50000000116,202547.748,202914.708,,4,French
screen,html.Screen,2_1_1_1_5,2021-04-27T08:40:14.007Z,,,,,,,,,,,,,,,,,54,,,,,,,,,,,,,,401.17200000191224,,response,,,,100,,,,,,,Space,keypress(Space),,,,,,,,-- --- ---- --- ------ crown ------- ---- -- --- ------- --<br>------- ---------- ------ -- ----- -- ----- -- ---- ------<br>--- ----- --- --- ------ -------- ----- --- ------ ----- --<br>----- ----- ---------- --- --- ------ ------ ---- -- ------<br>------- --- ------ ----- --- ---- ------- -- ---- --- --<br>------- ------,203320.91500000388,203315.88000000193,202898.028,202904.4600000052,202914.708,203331.708,,5,crown
screen,html.Screen,2_1_1_1_6,2021-04-27T08:40:14.434Z,,,,,,,,,,,,,,,,,54,,,,,,,,,,,,,,410.3270000029297,,response,,,,100,,,,,,,Space,keypress(Space),,,,,,,,-- --- ---- --- ------ ----- secured ---- -- --- ------- --<br>------- ---------- ------ -- ----- -- ----- -- ---- ------<br>--- ----- --- --- ------ -------- ----- --- ------ ----- --<br>----- ----- ---------- --- --- ------ ------ ---- -- ------<br>------- --- ------ ----- --- ---- ------- -- ---- --- --<br>------- ------,203747.54000000394,203742.03500000294,203315.028,203321.1250000022,203331.708,203748.708,,6,secured
screen,html.Screen,2_1_1_1_7,2021-04-27T08:40:14.829Z,,,,,,,,,,,,,,,,,54,,,,,,,,,,,,,,388.3620000043011,,response,,,,100,,,,,,,Space,keypress(Space),,,,,,,,-- --- ---- --- ------ ----- ------- much -- --- ------- --<br>------- ---------- ------ -- ----- -- ----- -- ---- ------<br>--- ----- --- --- ------ -------- ----- --- ------ ----- --<br>----- ----- ---------- --- --- ------ ------ ---- -- ------<br>------- --- ------ ----- --- ---- ------- -- ---- --- --<br>------- ------,204142.71000000008,204137.0700000043,203732.028,203747.86999999924,203748.708,204149.028,,7,much
screen,html.Screen,2_1_1_1_8,2021-04-27T08:40:15.221Z,,,,,,,,,,,,,,,,,54,,,,,,,,,,,,,,380.3069999992731,,response,,,,100,,,,,,,Space,keypress(Space),,,,,,,,-- --- ---- --- ------ ----- ------- ---- of --- ------- --<br>------- ---------- ------ -- ----- -- ----- -- ---- ------<br>--- ----- --- --- ------ -------- ----- --- ------ ----- --<br>----- ----- ---------- --- --- ------ ------ ---- -- ------<br>------- --- ------ ----- --- ---- ------- -- ---- --- --<br>------- ------,204534.62000000582,204529.33499999926,204132.348,204142.95500000298,204149.028,204549.348,,8,of
screen,html.Screen,2_1_1_1_9,2021-04-27T08:40:15.502Z,,,,,,,,,,,,,,,,,54,,,,,,,,,,,,,,261.30199999944307,,response,,,,100,,,,,,,Space,keypress(Space),,,,,,,,-- --- ---- --- ------ ----- ------- ---- -- its ------- --<br>------- ---------- ------ -- ----- -- ----- -- ---- ------<br>--- ----- --- --- ------ -------- ----- --- ------ ----- --<br>----- ----- ---------- --- --- ------ ------ ---- -- ------<br>------- --- ------ ----- --- ---- ------- -- ---- --- --<br>------- ------,204816.08500000584,204810.64999999944,204532.668,204534.91500000382,204549.348,204832.908,,9,its
screen,html.Screen,2_1_1_1_10,2021-04-27T08:40:15.797Z,,,,,,,,,,,,,,,,,54,,,,,,,,,,,,,,272.51700000156416,,response,,,,100,,,,,,,Space,keypress(Space),,,,,,,,-- --- ---- --- ------ ----- ------- ---- -- --- revenue --<br>------- ---------- ------ -- ----- -- ----- -- ---- ------<br>--- ----- --- --- ------ -------- ----- --- ------ ----- --<br>----- ----- ---------- --- --- ------ ------ ---- -- ------<br>------- --- ------ ----- --- ---- ------- -- ---- --- --<br>------- ------,205110.45500000182,205105.42500000156,204816.228,204816.37000000046,204832.908,205116.468,,10,revenue
screen,html.Screen,2_1_1_1_11,2021-04-27T08:40:16.301Z,,,,,,,,,,,,,,,,,54,,,,,,,,,,,,,,493.16199999902165,,response,,,,100,,,,,,,Space,keypress(Space),,,,,,,,-- --- ---- --- ------ ----- ------- ---- -- --- ------- by<br>------- ---------- ------ -- ----- -- ----- -- ---- ------<br>--- ----- --- --- ------ -------- ----- --- ------ ----- --<br>----- ----- ---------- --- --- ------ ------ ---- -- ------<br>------- --- ------ ----- --- ---- ------- -- ---- --- --<br>------- ------,205614.99500000355,205609.62999999902,205099.788,205110.70499999914,205116.468,205616.868,,11,by
screen,html.Screen,2_1_1_1_12,2021-04-27T08:40:16.718Z,,,,,,,,,,,,,,,,,54,,,,,,,,,,,,,,408.78200000323704,,response,,,,100,,,,,,,Space,keypress(Space),,,,,,,,-- --- ---- --- ------ ----- ------- ---- -- --- ------- --<br>issuing ---------- ------ -- ----- -- ----- -- ---- ------<br>--- ----- --- --- ------ -------- ----- --- ------ ----- --<br>----- ----- ---------- --- --- ------ ------ ---- -- ------<br>------- --- ------ ----- --- ---- ------- -- ---- --- --<br>------- ------,206031.24500000558,206025.65000000322,205600.188,205615.25000000256,205616.868,206033.868,,12,issuing
screen,html.Screen,2_1_1_1_13,2021-04-27T08:40:17.113Z,,,,,,,,,,,,,,,,,54,,,,,,,,,,,,,,386.8270000007178,,response,,,,100,,,,,,,Space,keypress(Space),,,,,,,,-- --- ---- --- ------ ----- ------- ---- -- --- ------- --<br>------- government ------ -- ----- -- ----- -- ---- ------<br>--- ----- --- --- ------ -------- ----- --- ------ ----- --<br>----- ----- ---------- --- --- ------ ------ ---- -- ------<br>------- --- ------ ----- --- ---- ------- -- ---- --- --<br>------- ------,206426.25000000407,206420.6950000007,206017.188,206031.4950000029,206033.868,206434.188,,13,government
screen,html.Screen,2_1_1_1_14,2021-04-27T08:40:17.473Z,,,,,,,,,,,,,,,,,54,,,,,,,,,,,,,,346.62200000384473,,response,,,,100,,,,,,,Space,keypress(Space),,,,,,,,-- --- ---- --- ------ ----- ------- ---- -- --- ------- --<br>------- ---------- bonds. -- ----- -- ----- -- ---- ------<br>--- ----- --- --- ------ -------- ----- --- ------ ----- --<br>----- ----- ---------- --- --- ------ ------ ---- -- ------<br>------- --- ------ ----- --- ---- ------- -- ---- --- --<br>------- ------,206786.4150000023,206780.81000000384,206417.508,206426.4949999997,206434.188,206801.148,,14,bonds.
screen,html.Screen,2_1_1_1_15,2021-04-27T08:40:17.877Z,,,,,,,,,,,,,,,,,54,,,,,,,,,,,,,,383.43200000101933,,response,,,,100,,,,,,,Space,keypress(Space),,,,,,,,-- --- ---- --- ------ ----- ------- ---- -- --- ------- --<br>------- ---------- ------ In ----- -- ----- -- ---- ------<br>--- ----- --- --- ------ -------- ----- --- ------ ----- --<br>----- ----- ---------- --- --- ------ ------ ---- -- ------<br>------- --- ------ ----- --- ---- ------- -- ---- --- --<br>------- ------,207190.45500000357,207184.580000001,206784.468,206786.66499999963,206801.148,207201.468,,15,In
screen,html.Screen,2_1_1_1_16,2021-04-27T08:40:18.777Z,,,,,,,,,,,,,,,,,54,,,,,,,,,,,,,,883.5769999998156,,response,,,,100,,,,,,,Space,keypress(Space),,,,,,,,"-- --- ---- --- ------ ----- ------- ---- -- --- ------- --<br>------- ---------- ------ -- 1727, -- ----- -- ---- ------<br>--- ----- --- --- ------ -------- ----- --- ------ ----- --<br>----- ----- ---------- --- --- ------ ------ ---- -- ------<br>------- --- ------ ----- --- ---- ------- -- ---- --- --<br>------- ------",208090.95499999967,208085.0449999998,207184.788,207190.75000000157,207201.468,208102.188,,16,"1727,"
screen,html.Screen,2_1_1_1_17,2021-04-27T08:40:19.181Z,,,,,,,,,,,,,,,,,54,,,,,,,,,,,,,,386.8620000037772,,response,,,,100,,,,,,,Space,keypress(Space),,,,,,,,-- --- ---- --- ------ ----- ------- ---- -- --- ------- --<br>------- ---------- ------ -- ----- in ----- -- ---- ------<br>--- ----- --- --- ------ -------- ----- --- ------ ----- --<br>----- ----- ---------- --- --- ------ ------ ---- -- ------<br>------- --- ------ ----- --- ---- ------- -- ---- --- --<br>------- ------,208494.29000000237,208489.05000000377,208085.508,208091.24500000325,208102.188,208502.508,,17,in
screen,html.Screen,2_1_1_1_18,2021-04-27T08:40:19.629Z,,,,,,,,,,,,,,,,,54,,,,,,,,,,,,,,436.9270000002289,,response,,,,100,,,,,,,Space,keypress(Space),,,,,,,,-- --- ---- --- ------ ----- ------- ---- -- --- ------- --<br>------- ---------- ------ -- ----- -- order -- ---- ------<br>--- ----- --- --- ------ -------- ----- --- ------ ----- --<br>----- ----- ---------- --- --- ------ ------ ---- -- ------<br>------- --- ------ ----- --- ---- ------- -- ---- --- --<br>------- ------,208942.20499999938,208939.43500000023,208485.828,208494.58000000595,208502.508,208952.868,,18,order
screen,html.Screen,2_1_1_1_19,2021-04-27T08:40:20.240Z,,,,,,,,,,,,,,,,,54,,,,,,,,,,,,,,595.4170000044105,,response,,,,100,,,,,,,Space,keypress(Space),,,,,,,,-- --- ---- --- ------ ----- ------- ---- -- --- ------- --<br>------- ---------- ------ -- ----- -- ----- to ---- ------<br>--- ----- --- --- ------ -------- ----- --- ------ ----- --<br>----- ----- ---------- --- --- ------ ------ ---- -- ------<br>------- --- ------ ----- --- ---- ------- -- ---- --- --<br>------- ------,209554.04000000271,209548.2850000044,208936.188,208942.33499999973,208952.868,209570.028,,19,to
screen,html.Screen,2_1_1_1_20,2021-04-27T08:40:20.814Z,,,,,,,,,,,,,,,,,54,,,,,,,,,,,,,,551.742000005208,,response,,,,100,,,,,,,Space,keypress(Space),,,,,,,,-- --- ---- --- ------ ----- ------- ---- -- --- ------- --<br>------- ---------- ------ -- ----- -- ----- -- save ------<br>--- ----- --- --- ------ -------- ----- --- ------ ----- --<br>----- ----- ---------- --- --- ------ ------ ---- -- ------<br>------- --- ------ ----- --- ---- ------- -- ---- --- --<br>------- ------,210127.79000000592,210121.7700000052,209553.348,209554.29000000004,209570.028,210137.212,,20,save
screen,html.Screen,2_1_1_1_21,2021-04-27T08:40:21.646Z,,,,,,,,,,,,,,,,,54,,,,,,,,,,,,,,817.3880000045756,,response,,,,100,,,,,,,Space,keypress(Space),,,,,,,,"-- --- ---- --- ------ ----- ------- ---- -- --- ------- --<br>------- ---------- ------ -- ----- -- ----- -- ---- money,<br>--- ----- --- --- ------ -------- ----- --- ------ ----- --<br>----- ----- ---------- --- --- ------ ------ ---- -- ------<br>------- --- ------ ----- --- ---- ------- -- ---- --- --<br>------- ------",210960.0400000054,210954.60000000458,210120.532,210128.12000000122,210137.212,210971.212,,21,"money,"
screen,html.Screen,2_1_1_1_22,2021-04-27T08:40:22.092Z,,,,,,,,,,,,,,,,,54,,,,,,,,,,,,,,431.34300000057556,,response,,,,100,,,,,,,Space,keypress(Space),,,,,,,,-- --- ---- --- ------ ----- ------- ---- -- --- ------- --<br>------- ---------- ------ -- ----- -- ----- -- ---- ------<br>the ----- --- --- ------ -------- ----- --- ------ ----- --<br>----- ----- ---------- --- --- ------ ------ ---- -- ------<br>------- --- ------ ----- --- ---- ------- -- ---- --- --<br>------- ------,211406.08000000066,211402.55500000058,210954.532,210960.20500000304,210971.212,211421.572,,22,the
screen,html.Screen,2_1_1_1_23,2021-04-27T08:40:22.547Z,,,,,,,,,,,,,,,,,54,,,,,,,,,,,,,,432.0480000016978,,response,,,,100,,,,,,,Space,keypress(Space),,,,,,,,-- --- ---- --- ------ ----- ------- ---- -- --- ------- --<br>------- ---------- ------ -- ----- -- ----- -- ---- ------<br>--- state --- --- ------ -------- ----- --- ------ ----- --<br>----- ----- ---------- --- --- ------ ------ ---- -- ------<br>------- --- ------ ----- --- ---- ------- -- ---- --- --<br>------- ------,211861.12500000309,211853.62000000168,211404.892,211406.289999999,211421.572,211871.932,,23,state
screen,html.Screen,2_1_1_1_24,2021-04-27T08:40:22.940Z,,,,,,,,,,,,,,,,,54,,,,,,,,,,,,,,376.1630000026489,,response,,,,100,,,,,,,Space,keypress(Space),,,,,,,,-- --- ---- --- ------ ----- ------- ---- -- --- ------- --<br>------- ---------- ------ -- ----- -- ----- -- ---- ------<br>--- ----- cut --- ------ -------- ----- --- ------ ----- --<br>----- ----- ---------- --- --- ------ ------ ---- -- ------<br>------- --- ------ ----- --- ---- ------- -- ---- --- --<br>------- ------,212253.7450000018,212248.09500000265,211855.252,211861.370000006,211871.932,212255.572,,24,cut
screen,html.Screen,2_1_1_1_25,2021-04-27T08:40:23.299Z,,,,,,,,,,,,,,,,,54,,,,,,,,,,,,,,351.84300000587245,,response,,,,100,,,,,,,Space,keypress(Space),,,,,,,,-- --- ---- --- ------ ----- ------- ---- -- --- ------- --<br>------- ---------- ------ -- ----- -- ----- -- ---- ------<br>--- ----- --- the ------ -------- ----- --- ------ ----- --<br>----- ----- ---------- --- --- ------ ------ ---- -- ------<br>------- --- ------ ----- --- ---- ------- -- ---- --- --<br>------- ------,212612.99500000314,212607.41500000586,212238.892,212253.95500000013,212255.572,212622.532,,25,the
screen,html.Screen,2_1_1_1_26,2021-04-27T08:40:23.693Z,,,,,,,,,,,,,,,,,54,,,,,,,,,,,,,,379.42299999971874,,response,,,,100,,,,,,,Space,keypress(Space),,,,,,,,-- --- ---- --- ------ ----- ------- ---- -- --- ------- --<br>------- ---------- ------ -- ----- -- ----- -- ---- ------<br>--- ----- --- --- bonds' -------- ----- --- ------ ----- --<br>----- ----- ---------- --- --- ------ ------ ---- -- ------<br>------- --- ------ ----- --- ---- ------- -- ---- --- --<br>------- ------,213007.12000000203,213001.95499999973,212605.852,212613.24500000046,212622.532,213022.852,,26,bonds'
screen,html.Screen,2_1_1_1_27,2021-04-27T08:40:24.140Z,,,,,,,,,,,,,,,,,54,,,,,,,,,,,,,,427.3279999998049,,response,,,,100,,,,,,,Space,keypress(Space),,,,,,,,-- --- ---- --- ------ ----- ------- ---- -- --- ------- --<br>------- ---------- ------ -- ----- -- ----- -- ---- ------<br>--- ----- --- --- ------ interest ----- --- ------ ----- --<br>----- ----- ---------- --- --- ------ ------ ---- -- ------<br>------- --- ------ ----- --- ---- ------- -- ---- --- --<br>------- ------,213453.20999999967,213450.17999999982,213006.172,213007.33000000037,213022.852,213456.532,,27,interest
screen,html.Screen,2_1_1_1_28,2021-04-27T08:40:24.526Z,,,,,,,,,,,,,,,,,54,,,,,,,,,,,,,,377.3030000049039,,response,,,,100,,,,,,,Space,keypress(Space),,,,,,,,-- --- ---- --- ------ ----- ------- ---- -- --- ------- --<br>------- ---------- ------ -- ----- -- ----- -- ---- ------<br>--- ----- --- --- ------ -------- rate. --- ------ ----- --<br>----- ----- ---------- --- --- ------ ------ ---- -- ------<br>------- --- ------ ----- --- ---- ------- -- ---- --- --<br>------- ------,213839.58500000153,213833.8350000049,213439.852,213453.50000000326,213456.532,213856.852,,28,rate.
screen,html.Screen,2_1_1_1_29,2021-04-27T08:40:25.426Z,,,,,,,,,,,,,,,,,54,,,,,,,,,,,,,,877.5130000038771,,response,,,,100,,,,,,,Space,keypress(Space),,,,,,,,-- --- ---- --- ------ ----- ------- ---- -- --- ------- --<br>------- ---------- ------ -- ----- -- ----- -- ---- ------<br>--- ----- --- --- ------ -------- ----- The ------ ----- --<br>----- ----- ---------- --- --- ------ ------ ---- -- ------<br>------- --- ------ ----- --- ---- ------- -- ---- --- --<br>------- ------,214739.66500000097,214734.3650000039,213840.172,213839.9150000041,213856.852,214740.892,,29,The
screen,html.Screen,2_1_1_1_30,2021-04-27T08:40:25.820Z,,,,,,,,,,,,,,,,,54,,,,,,,,,,,,,,386.86800000304356,,response,,,,100,,,,,,,Space,keypress(Space),,,,,,,,-- --- ---- --- ------ ----- ------- ---- -- --- ------- --<br>------- ---------- ------ -- ----- -- ----- -- ---- ------<br>--- ----- --- --- ------ -------- ----- --- market ----- --<br>----- ----- ---------- --- --- ------ ------ ---- -- ------<br>------- --- ------ ----- --- ---- ------- -- ---- --- --<br>------- ------,215133.50000000355,215127.76000000304,214724.212,214739.95500000456,214740.892,215141.212,,30,market
screen,html.Screen,2_1_1_1_31,2021-04-27T08:40:26.213Z,,,,,,,,,,,,,,,,,54,,,,,,,,,,,,,,380.458000001905,,response,,,,100,,,,,,,Space,keypress(Space),,,,,,,,-- --- ---- --- ------ ----- ------- ---- -- --- ------- --<br>------- ---------- ------ -- ----- -- ----- -- ---- ------<br>--- ----- --- --- ------ -------- ----- --- ------ value --<br>----- ----- ---------- --- --- ------ ------ ---- -- ------<br>------- --- ------ ----- --- ---- ------- -- ---- --- --<br>------- ------,215526.37500000128,215521.6700000019,215124.532,215133.87499999953,215141.212,215541.532,,31,value
screen,html.Screen,2_1_1_1_32,2021-04-27T08:40:26.574Z,,,,,,,,,,,,,,,,,54,,,,,,,,,,,,,,340.25300000503194,,response,,,,100,,,,,,,Space,keypress(Space),,,,,,,,-- --- ---- --- ------ ----- ------- ---- -- --- ------- --<br>------- ---------- ------ -- ----- -- ----- -- ---- ------<br>--- ----- --- --- ------ -------- ----- --- ------ ----- of<br>----- ----- ---------- --- --- ------ ------ ---- -- ------<br>------- --- ------ ----- --- ---- ------- -- ---- --- --<br>------- ------,215887.50000000437,215881.78500000504,215524.852,215526.66500000487,215541.532,215891.812,,32,of
screen,html.Screen,2_1_1_1_33,2021-04-27T08:40:26.956Z,,,,,,,,,,,,,,,,,54,,,,,,,,,,,,,,372.4680000030494,,response,,,,100,,,,,,,Space,keypress(Space),,,,,,,,-- --- ---- --- ------ ----- ------- ---- -- --- ------- --<br>------- ---------- ------ -- ----- -- ----- -- ---- ------<br>--- ----- --- --- ------ -------- ----- --- ------ ----- --<br>these ----- ---------- --- --- ------ ------ ---- -- ------<br>------- --- ------ ----- --- ---- ------- -- ---- --- --<br>------- ------,216269.58000000013,216264.28000000305,215875.132,215887.79000000068,215891.812,216275.452,,33,these
screen,html.Screen,2_1_1_1_34,2021-04-27T08:40:27.340Z,,,,,,,,,,,,,,,,,54,,,,,,,,,,,,,,372.8580000041402,,response,,,,100,,,,,,,Space,keypress(Space),,,,,,,,-- --- ---- --- ------ ----- ------- ---- -- --- ------- --<br>------- ---------- ------ -- ----- -- ----- -- ---- ------<br>--- ----- --- --- ------ -------- ----- --- ------ ----- --<br>----- bonds ---------- --- --- ------ ------ ---- -- ------<br>------- --- ------ ----- --- ---- ------- -- ---- --- --<br>------- ------,216653.6200000046,216648.31000000413,216258.772,216269.83000000473,216275.452,216659.092,,34,bonds
screen,html.Screen,2_1_1_1_35,2021-04-27T08:40:27.766Z,,,,,,,,,,,,,,,,,54,,,,,,,,,,,,,,415.0779999998631,,response,,,,100,,,,,,,Space,keypress(Space),,,,,,,,"-- --- ---- --- ------ ----- ------- ---- -- --- ------- --<br>------- ---------- ------ -- ----- -- ----- -- ---- ------<br>--- ----- --- --- ------ -------- ----- --- ------ ----- --<br>----- ----- plummeted, --- --- ------ ------ ---- -- ------<br>------- --- ------ ----- --- ---- ------- -- ---- --- --<br>------- ------",217079.66500000475,217074.16999999987,216642.412,216653.9150000026,216659.092,217092.772,,35,"plummeted,"
screen,html.Screen,2_1_1_1_36,2021-04-27T08:40:28.125Z,,,,,,,,,,,,,,,,,54,,,,,,,,,,,,,,340.29799999913666,,response,,,,100,,,,,,,Space,keypress(Space),,,,,,,,-- --- ---- --- ------ ----- ------- ---- -- --- ------- --<br>------- ---------- ------ -- ----- -- ----- -- ---- ------<br>--- ----- --- --- ------ -------- ----- --- ------ ----- --<br>----- ----- ---------- and --- ------ ------ ---- -- ------<br>------- --- ------ ----- --- ---- ------- -- ---- --- --<br>------- ------,217438.50000000384,217433.06999999913,217076.092,217079.8700000014,217092.772,217443.052,,36,and
screen,html.Screen,2_1_1_1_37,2021-04-27T08:40:28.396Z,,,,,,,,,,,,,,,,,54,,,,,,,,,,,,,,260.9280000056897,,response,,,,100,,,,,,,Space,keypress(Space),,,,,,,,-- --- ---- --- ------ ----- ------- ---- -- --- ------- --<br>------- ---------- ------ -- ----- -- ----- -- ---- ------<br>--- ----- --- --- ------ -------- ----- --- ------ ----- --<br>----- ----- ---------- --- the ------ ------ ---- -- ------<br>------- --- ------ ----- --- ---- ------- -- ---- --- --<br>------- ------,217709.24500000547,217703.9800000057,217426.372,217438.75000000116,217443.052,217726.612,,37,the
screen,html.Screen,2_1_1_1_38,2021-04-27T08:40:28.800Z,,,,,,,,,,,,,,,,,54,,,,,,,,,,,,,,381.6229999997013,,response,,,,100,,,,,,,Space,keypress(Space),,,,,,,,-- --- ---- --- ------ ----- ------- ---- -- --- ------- --<br>------- ---------- ------ -- ----- -- ----- -- ---- ------<br>--- ----- --- --- ------ -------- ----- --- ------ ----- --<br>----- ----- ---------- --- --- market ------ ---- -- ------<br>------- --- ------ ----- --- ---- ------- -- ---- --- --<br>------- ------,218113.7050000034,218108.2349999997,217709.932,217709.4550000038,217726.612,218126.932,,38,market
screen,html.Screen,2_1_1_1_39,2021-04-27T08:40:29.105Z,,,,,,,,,,,,,,,,,54,,,,,,,,,,,,,,285.9579999996058,,response,,,,100,,,,,,,Space,keypress(Space),,,,,,,,-- --- ---- --- ------ ----- ------- ---- -- --- ------- --<br>------- ---------- ------ -- ----- -- ----- -- ---- ------<br>--- ----- --- --- ------ -------- ----- --- ------ ----- --<br>----- ----- ---------- --- --- ------ became ---- -- ------<br>------- --- ------ ----- --- ---- ------- -- ---- --- --<br>------- ------,218418.25000000244,218412.8899999996,218110.252,218113.9949999997,218126.932,218427.172,,39,became
screen,html.Screen,2_1_1_1_40,2021-04-27T08:40:29.453Z,,,,,,,,,,,,,,,,,54,,,,,,,,,,,,,,334.20300000187126,,response,,,,100,,,,,,,Space,keypress(Space),,,,,,,,-- --- ---- --- ------ ----- ------- ---- -- --- ------- --<br>------- ---------- ------ -- ----- -- ----- -- ---- ------<br>--- ----- --- --- ------ -------- ----- --- ------ ----- --<br>----- ----- ---------- --- --- ------ ------ wary -- ------<br>------- --- ------ ----- --- ---- ------- -- ---- --- --<br>------- ------,218766.7900000015,218761.37500000186,218410.492,218418.49999999977,218427.172,218777.452,,40,wary
screen,html.Screen,2_1_1_1_41,2021-04-27T08:40:29.770Z,,,,,,,,,,,,,,,,,54,,,,,,,,,,,,,,300.9030000051134,,response,,,,100,,,,,,,Space,keypress(Space),,,,,,,,-- --- ---- --- ------ ----- ------- ---- -- --- ------- --<br>------- ---------- ------ -- ----- -- ----- -- ---- ------<br>--- ----- --- --- ------ -------- ----- --- ------ ----- --<br>----- ----- ---------- --- --- ------ ------ ---- of ------<br>------- --- ------ ----- --- ---- ------- -- ---- --- --<br>------- ------,219084.04000000155,219078.3550000051,218760.772,218766.99999999983,218777.452,219094.372,,41,of
screen,html.Screen,2_1_1_1_42,2021-04-27T08:40:30.148Z,,,,,,,,,,,,,,,,,54,,,,,,,,,,,,,,364.34800000235555,,response,,,,100,,,,,,,Space,keypress(Space),,,,,,,,-- --- ---- --- ------ ----- ------- ---- -- --- ------- --<br>------- ---------- ------ -- ----- -- ----- -- ---- ------<br>--- ----- --- --- ------ -------- ----- --- ------ ----- --<br>----- ----- ---------- --- --- ------ ------ ---- -- French<br>------- --- ------ ----- --- ---- ------- -- ---- --- --<br>------- ------,219462.12500000547,219458.72000000236,219077.692,219084.4150000048,219094.372,219478.012,,42,French
screen,html.Screen,2_1_1_1_43,2021-04-27T08:40:30.533Z,,,,,,,,,,,,,,,,,54,,,,,,,,,,,,,,362.9080000023823,,response,,,,100,,,,,,,Space,keypress(Space),,,,,,,,-- --- ---- --- ------ ----- ------- ---- -- --- ------- --<br>------- ---------- ------ -- ----- -- ----- -- ---- ------<br>--- ----- --- --- ------ -------- ----- --- ------ ----- --<br>----- ----- ---------- --- --- ------ ------ ---- -- ------<br>credit. --- ------ ----- --- ---- ------- -- ---- --- --<br>------- ------,219846.70500000357,219840.92000000237,219461.332,219462.29000000312,219478.012,219861.878,,43,credit.
screen,html.Screen,2_1_1_1_44,2021-04-27T08:40:31.117Z,,,,,,,,,,,,,,,,,54,,,,,,,,,,,,,,563.6970000011206,,response,,,,100,,,,,,,Space,keypress(Space),,,,,,,,-- --- ---- --- ------ ----- ------- ---- -- --- ------- --<br>------- ---------- ------ -- ----- -- ----- -- ---- ------<br>--- ----- --- --- ------ -------- ----- --- ------ ----- --<br>----- ----- ---------- --- --- ------ ------ ---- -- ------<br>------- The ------ ----- --- ---- ------- -- ---- --- --<br>------- ------,220431.0800000021,220425.57500000112,219845.198,219847.04000000056,219861.878,220445.678,,44,The
screen,html.Screen,2_1_1_1_45,2021-04-27T08:40:31.433Z,,,,,,,,,,,,,,,,,54,,,,,,,,,,,,,,295.34200000128476,,response,,,,100,,,,,,,Space,keypress(Space),,,,,,,,-- --- ---- --- ------ ----- ------- ---- -- --- ------- --<br>------- ---------- ------ -- ----- -- ----- -- ---- ------<br>--- ----- --- --- ------ -------- ----- --- ------ ----- --<br>----- ----- ---------- --- --- ------ ------ ---- -- ------<br>------- --- French ----- --- ---- ------- -- ---- --- --<br>------- ------,220746.83500000538,220741.0200000013,220428.998,220431.37500000012,220445.678,220762.598,,45,French
screen,html.Screen,2_1_1_1_46,2021-04-27T08:40:31.725Z,,,,,,,,,,,,,,,,,54,,,,,,,,,,,,,,270.8570000043255,,response,,,,100,,,,,,,Space,keypress(Space),,,,,,,,-- --- ---- --- ------ ----- ------- ---- -- --- ------- --<br>------- ---------- ------ -- ----- -- ----- -- ---- ------<br>--- ----- --- --- ------ -------- ----- --- ------ ----- --<br>----- ----- ---------- --- --- ------ ------ ---- -- ------<br>------- --- ------ state --- ---- ------- -- ---- --- --<br>------- ------,221038.99500000261,221033.45500000432,220745.918,220747.20499999967,220762.598,221046.158,,46,state
screen,html.Screen,2_1_1_1_47,2021-04-27T08:40:32.183Z,,,,,,,,,,,,,,,,,54,,,,,,,,,,,,,,447.6320000004489,,response,,,,100,,,,,,,Space,keypress(Space),,,,,,,,-- --- ---- --- ------ ----- ------- ---- -- --- ------- --<br>------- ---------- ------ -- ----- -- ----- -- ---- ------<br>--- ----- --- --- ------ -------- ----- --- ------ ----- --<br>----- ----- ---------- --- --- ------ ------ ---- -- ------<br>------- --- ------ ----- was ---- ------- -- ---- --- --<br>------- ------,221496.5000000011,221493.79000000044,221029.478,221039.29000000062,221046.158,221513.198,,47,was
screen,html.Screen,2_1_1_1_48,2021-04-27T08:40:32.536Z,,,,,,,,,,,,,,,,,54,,,,,,,,,,,,,,330.9670000022452,,response,,,,100,,,,,,,Space,keypress(Space),,,,,,,,-- --- ---- --- ------ ----- ------- ---- -- --- ------- --<br>------- ---------- ------ -- ----- -- ----- -- ---- ------<br>--- ----- --- --- ------ -------- ----- --- ------ ----- --<br>----- ----- ---------- --- --- ------ ------ ---- -- ------<br>------- --- ------ ----- --- left ------- -- ---- --- --<br>------- ------,221849.87499999988,221844.16500000225,221496.518,221496.66499999876,221513.198,221863.478,,48,left
screen,html.Screen,2_1_1_1_49,2021-04-27T08:40:32.909Z,,,,,,,,,,,,,,,,,54,,,,,,,,,,,,,,351.12199999933364,,response,,,,100,,,,,,,Space,keypress(Space),,,,,,,,-- --- ---- --- ------ ----- ------- ---- -- --- ------- --<br>------- ---------- ------ -- ----- -- ----- -- ---- ------<br>--- ----- --- --- ------ -------- ----- --- ------ ----- --<br>----- ----- ---------- --- --- ------ ------ ---- -- ------<br>------- --- ------ ----- --- ---- without -- ---- --- --<br>------- ------,222222.4600000045,222214.59999999934,221846.798,221850.16500000347,221863.478,222230.438,,49,without
screen,html.Screen,2_1_1_1_50,2021-04-27T08:40:33.267Z,,,,,,,,,,,,,,,,,54,,,,,,,,,,,,,,344.39699999944423,,response,,,,100,,,,,,,Space,keypress(Space),,,,,,,,-- --- ---- --- ------ ----- ------- ---- -- --- ------- --<br>------- ---------- ------ -- ----- -- ----- -- ---- ------<br>--- ----- --- --- ------ -------- ----- --- ------ ----- --<br>----- ----- ---------- --- --- ------ ------ ---- -- ------<br>------- --- ------ ----- --- ---- ------- an ---- --- --<br>------- ------,222580.21000000008,222574.83499999944,222213.758,222222.66500000114,222230.438,222597.398,,50,an
screen,html.Screen,2_1_1_1_51,2021-04-27T08:40:33.627Z,,,,,,,,,,,,,,,,,54,,,,,,,,,,,,,,337.48200000071665,,response,,,,100,,,,,,,Space,keypress(Space),,,,,,,,-- --- ---- --- ------ ----- ------- ---- -- --- ------- --<br>------- ---------- ------ -- ----- -- ----- -- ---- ------<br>--- ----- --- --- ------ -------- ----- --- ------ ----- --<br>----- ----- ---------- --- --- ------ ------ ---- -- ------<br>------- --- ------ ----- --- ---- ------- -- easy --- --<br>------- ------,222940.29000000592,222934.8800000007,222580.718,222580.415000004,222597.398,222947.678,,51,easy
screen,html.Screen,2_1_1_1_52,2021-04-27T08:40:33.975Z,,,,,,,,,,,,,,,,,54,,,,,,,,,,,,,,336.09200000180863,,response,,,,100,,,,,,,Space,keypress(Space),,,,,,,,-- --- ---- --- ------ ----- ------- ---- -- --- ------- --<br>------- ---------- ------ -- ----- -- ----- -- ---- ------<br>--- ----- --- --- ------ -------- ----- --- ------ ----- --<br>----- ----- ---------- --- --- ------ ------ ---- -- ------<br>------- --- ------ ----- --- ---- ------- -- ---- way --<br>------- ------,223289.08500000398,223283.77000000182,222930.998,222940.54000000324,222947.678,223297.958,,52,way
screen,html.Screen,2_1_1_1_53,2021-04-27T08:40:34.336Z,,,,,,,,,,,,,,,,,54,,,,,,,,,,,,,,345.90700000544894,,response,,,,100,,,,,,,Space,keypress(Space),,,,,,,,-- --- ---- --- ------ ----- ------- ---- -- --- ------- --<br>------- ---------- ------ -- ----- -- ----- -- ---- ------<br>--- ----- --- --- ------ -------- ----- --- ------ ----- --<br>----- ----- ---------- --- --- ------ ------ ---- -- ------<br>------- --- ------ ----- --- ---- ------- -- ---- --- of<br>------- ------,223649.62500000547,223643.86500000546,223281.278,223289.29000000062,223297.958,223664.918,,53,of
screen,html.Screen,2_1_1_1_54,2021-04-27T08:40:34.707Z,,,,,,,,,,,,,,,,,54,,,,,,,,,,,,,,350.17700000246987,,response,,,,100,,,,,,,Space,keypress(Space),,,,,,,,-- --- ---- --- ------ ----- ------- ---- -- --- ------- --<br>------- ---------- ------ -- ----- -- ----- -- ---- ------<br>--- ----- --- --- ------ -------- ----- --- ------ ----- --<br>----- ----- ---------- --- --- ------ ------ ---- -- ------<br>------- --- ------ ----- --- ---- ------- -- ---- --- --<br>raising ------,224020.4950000043,224015.09500000247,223648.238,223649.8700000011,223664.918,224031.878,,54,raising
screen,html.Screen,2_1_1_1_55,2021-04-27T08:40:35.043Z,,,,,,,,,,,,,,,,,54,,,,,,,,,,,,,,320.88200000158395,,response,,,,100,,,,,,,Space,keypress(Space),,,,,,,,-- --- ---- --- ------ ----- ------- ---- -- --- ------- --<br>------- ---------- ------ -- ----- -- ----- -- ---- ------<br>--- ----- --- --- ------ -------- ----- --- ------ ----- --<br>----- ----- ---------- --- --- ------ ------ ---- -- ------<br>------- --- ------ ----- --- ---- ------- -- ---- --- --<br>------- money.,224356.57999999967,224352.76000000158,224015.198,224020.75000000332,224031.878,224365.478,,55,money.
Item 100,flow.Loop,2_1_1_1,2021-04-27T08:40:35.043Z,,,,,,,,,,,,,,,,,,,,,,,,,,,,,,,23639.812000001577,,completion,,,,,F,,,,,,,,,,,silence,,,,,224356.91500000394,224352.76000000158,200696.268,200698.41499999893,200712.948,224365.478,,,
Question 1,html.Screen,2_1_1_2,2021-04-27T08:40:39.935Z,,,,,,,,,,,,,,,,,,,,,,,,,,,,true,TRUE,,4879.712000001455,,response,,,,100,F,,,,,,TRUE,click #choice-1,,,,silence,,,,,229248.2500000042,229245.19000000146,224348.798,224357.0400000026,224365.478,229252.718,,,
Question 2,html.Screen,2_1_1_3,2021-04-27T08:40:42.036Z,,,,,,,,,,,,,,,,,,,,,,,,,,,,true,FALSE,,2096.002000001783,,response,,,,100,F,,,,,,FALSE,click #choice-2,,,,silence,,,,,231350.0850000055,231348.72000000178,229236.038,229248.5000000015,229252.718,231354.557,,,
Item 100,flow.Sequence,2_1_1,2021-04-27T08:40:42.037Z,,,,,,,,,,,,,,,,,,,,,,,,,,,,,,,40643.93800000177,,completion,,,,,,,,,,,,,,,,,,,,,231350.3750000018,231348.72000000178,190688.102,190694.28999999946,190704.782,231354.557,,,
End of Practice,html.Page,2_1_2,2021-04-27T08:40:45.593Z,,,,,,,,,,,,,,,,,,,,,,,,,,,,,,,3551.2730000033334,,form submission,,,,,,,,,,,,,,,,,,,,,234906.5000000046,234905.83000000333,231337.877,231350.46000000148,231354.557,234907.397,,,
Practice,flow.Sequence,2_1,2021-04-27T08:40:45.593Z,,,,,,,,,,,,,,,,,,,,,,,,,,,,,,,88070.39700000334,,completion,,,,,,,,,,,,,,,,,,,,,234906.91499999957,234905.83000000333,146818.753,146832.83500000107,146835.433,234907.397,,,
Trap_instruction,html.Page,2_2_0,2021-04-27T08:40:49.912Z,,,,,,,,,,,,,,,,,,,,,,,,,,,,,,,4317.643000004813,,form submission,,,,,,,,,,,,,,,,,,,,,239225.53999999946,239225.0400000048,234890.717,234907.0400000055,234907.397,239227.517,,,
trap_trial,html.Screen,2_2_1,2021-04-27T08:40:52.982Z,,,,,,,,,,,,,,,,,,,,,,,,,,,,true,1,,3065.5529999997234,,response,,,,,,,,,,,1,click #choice-1,,,,,,,,,242295.53999999916,242293.06999999972,239210.837,239225.79000000405,239227.517,242313.415,,,
end of trap trial,html.Page,2_2_2,2021-04-27T08:40:55.232Z,,,,,,,,,,,,,,,,,,,,,,,,,,,,,,,2232.0000000004948,,form submission,,,,,,,,,,,,,,,,,,,,,244545.79000000376,244545.4150000005,242296.735,242295.83500000444,242313.415,244548.535,,,
Trap 1,flow.Sequence,2_2,2021-04-27T08:40:55.232Z,,,,,,,,,,,,,,,,,,,,,,,,,,,,,,,9638.018000000506,,completion,,,,,,,,,,,,,,,,,,,,,244546.08000000007,244545.4150000005,234890.717,234906.99500000483,234907.397,244548.535,,,
Standby,html.Page,2_3_0,2021-04-27T08:41:03.227Z,,,,,,,,,,,,,,,,,,,,,,,,,,,,,,,8006.399999999994,,timeout,,,,,,,,,,,,,,,,,,,,,252540.7899999991,252538.255,244531.855,244546.245000005,244548.535,252554.935,,,
Holding screen,html.Screen,2_3_1_0_0,2021-04-27T08:41:10.233Z,,,,,,,,,,,,,,,,,,,,,,,,,,,,,,,7005.888000000006,,timeout,,,,,,,,,,,,,,,,,,,,,259546.11999999906,259544.143,252538.255,252541.16500000237,252554.935,259560.823,,,
screen,html.Screen,2_3_1_0_1_0,2021-04-27T08:41:11.014Z,,,,,,,,,,,,,,,,,11,,,,,,,,,,,,,,759.8020000002871,,response,,,,4,F,,,,,,Space,keypress(Space),,,,instrumental,,,,Known -- ---- --- -- --- -------- ------------ ---------- --<br>- ------- ------ --------- -- ------------ -- --- ---- -----<br>------ ---- ---- ------ ------ ------- --- ----- ---------<br>---- --- -------- -------- --- --- -- ------- --- --- -----<br>-- --- ------ ------- --- --- -------- ---- --------- --<br>---------- -- -------- ----------------,260328.04000000033,260320.6250000003,259544.143,259546.49500000232,259560.823,260328.103,,0,Known
screen,html.Screen,2_3_1_0_1_1,2021-04-27T08:41:11.517Z,,,,,,,,,,,,,,,,,11,,,,,,,,,,,,,,497.022000003024,,response,,,,4,F,,,,,,Space,keypress(Space),,,,instrumental,,,,----- as ---- --- -- --- -------- ------------ ---------- --<br>- ------- ------ --------- -- ------------ -- --- ---- -----<br>------ ---- ---- ------ ------ ------- --- ----- ---------<br>---- --- -------- -------- --- --- -- ------- --- --- -----<br>-- --- ------ ------- --- --- -------- ---- --------- --<br>---------- -- -------- ----------------,260830.3700000033,260825.12500000303,260311.423,260328.33000000392,260328.103,260845.183,,1,as
screen,html.Screen,2_3_1_0_1_2,2021-04-27T08:41:12.068Z,,,,,,,,,,,,,,,,,11,,,,,,,,,,,,,,531.3920000020589,,response,,,,4,F,,,,,,Space,keypress(Space),,,,instrumental,,,,----- -- Rapa --- -- --- -------- ------------ ---------- --<br>- ------- ------ --------- -- ------------ -- --- ---- -----<br>------ ---- ---- ------ ------ ------- --- ----- ---------<br>---- --- -------- -------- --- --- -- ------- --- --- -----<br>-- --- ------ ------- --- --- -------- ---- --------- --<br>---------- -- -------- ----------------,261381.24500000413,261376.57500000205,260828.503,260830.58000000165,260845.183,261395.623,,2,Rapa
screen,html.Screen,2_3_1_0_1_3,2021-04-27T08:41:12.554Z,,,,,,,,,,,,,,,,,11,,,,,,,,,,,,,,466.44200000117416,,response,,,,4,F,,,,,,Space,keypress(Space),,,,instrumental,,,,----- -- ---- Nui -- --- -------- ------------ ---------- --<br>- ------- ------ --------- -- ------------ -- --- ---- -----<br>------ ---- ---- ------ ------ ------- --- ----- ---------<br>---- --- -------- -------- --- --- -- ------- --- --- -----<br>-- --- ------ ------- --- --- -------- ---- --------- --<br>---------- -- -------- ----------------,261867.96000000322,261862.06500000117,261378.943,261381.54000000213,261395.623,261879.343,,3,Nui
screen,html.Screen,2_3_1_0_1_4,2021-04-27T08:41:13.184Z,,,,,,,,,,,,,,,,,11,,,,,,,,,,,,,,612.4070000010543,,response,,,,4,F,,,,,,Space,keypress(Space),,,,instrumental,,,,----- -- ---- --- to --- -------- ------------ ---------- --<br>- ------- ------ --------- -- ------------ -- --- ---- -----<br>------ ---- ---- ------ ------ ------- --- ----- ---------<br>---- --- -------- -------- --- --- -- ------- --- --- -----<br>-- --- ------ ------- --- --- -------- ---- --------- --<br>---------- -- -------- ----------------,262497.3700000046,262491.75000000105,261862.663,261868.16499999986,261879.343,262513.183,,4,to
screen,html.Screen,2_3_1_0_1_5,2021-04-27T08:41:13.510Z,,,,,,,,,,,,,,,,,11,,,,,,,,,,,,,,304.7370000013034,,response,,,,4,F,,,,,,Space,keypress(Space),,,,instrumental,,,,----- -- ---- --- -- the -------- ------------ ---------- --<br>- ------- ------ --------- -- ------------ -- --- ---- -----<br>------ ---- ---- ------ ------ ------- --- ----- ---------<br>---- --- -------- -------- --- --- -- ------- --- --- -----<br>-- --- ------ ------- --- --- -------- ---- --------- --<br>---------- -- -------- ----------------,262823.54000000487,262817.9200000013,262496.503,262497.6200000019,262513.183,262830.103,,5,the
screen,html.Screen,2_3_1_0_1_6,2021-04-27T08:41:13.948Z,,,,,,,,,,,,,,,,,11,,,,,,,,,,,,,,425.8670000056154,,response,,,,4,F,,,,,,Space,keypress(Space),,,,instrumental,,,,----- -- ---- --- -- --- island's ------------ ---------- --<br>- ------- ------ --------- -- ------------ -- --- ---- -----<br>------ ---- ---- ------ ------ ------- --- ----- ---------<br>---- --- -------- -------- --- --- -- ------- --- --- -----<br>-- --- ------ ------- --- --- -------- ---- --------- --<br>---------- -- -------- ----------------,263261.2900000022,263255.9700000056,262813.423,262824.0000000005,262830.103,263263.783,,6,island's
screen,html.Screen,2_3_1_0_1_7,2021-04-27T08:41:14.500Z,,,,,,,,,,,,,,,,,11,,,,,,,,,,,,,,544.4470000023721,,response,,,,4,F,,,,,,Space,keypress(Space),,,,instrumental,,,,"----- -- ---- --- -- --- -------- inhabitants, ---------- --<br>- ------- ------ --------- -- ------------ -- --- ---- -----<br>------ ---- ---- ------ ------ ------- --- ----- ---------<br>---- --- -------- -------- --- --- -- ------- --- --- -----<br>-- --- ------ ------- --- --- -------- ---- --------- --<br>---------- -- -------- ----------------",263813.99500000407,263808.23000000237,263247.103,263261.66500000545,263263.783,263831.052,,7,"inhabitants,"
screen,html.Screen,2_3_1_0_1_8,2021-04-27T08:41:15.633Z,,,,,,,,,,,,,,,,,11,,,,,,,,,,,,,,1110.108000002103,,response,,,,4,F,,,,,,Space,keypress(Space),,,,instrumental,,,,----- -- ---- --- -- --- -------- ------------ Rongorongo --<br>- ------- ------ --------- -- ------------ -- --- ---- -----<br>------ ---- ---- ------ ------ ------- --- ----- ---------<br>---- --- -------- -------- --- --- -- ------- --- --- -----<br>-- --- ------ ------- --- --- -------- ---- --------- --<br>---------- -- -------- ----------------,264946.95499999943,264941.1600000021,263814.372,263814.2450000014,263831.052,264948.612,,8,Rongorongo
screen,html.Screen,2_3_1_0_1_9,2021-04-27T08:41:16.073Z,,,,,,,,,,,,,,,,,11,,,,,,,,,,,,,,432.4980000020587,,response,,,,4,F,,,,,,Space,keypress(Space),,,,instrumental,,,,----- -- ---- --- -- --- -------- ------------ ---------- is<br>- ------- ------ --------- -- ------------ -- --- ---- -----<br>------ ---- ---- ------ ------ ------- --- ----- ---------<br>---- --- -------- -------- --- --- -- ------- --- --- -----<br>-- --- ------ ------- --- --- -------- ---- --------- --<br>---------- -- -------- ----------------,265386.2500000032,265381.1100000021,264931.932,264947.2500000047,264948.612,265398.972,,9,is
screen,html.Screen,2_3_1_0_1_10,2021-04-27T08:41:16.479Z,,,,,,,,,,,,,,,,,11,,,,,,,,,,,,,,387.4380000006058,,response,,,,4,F,,,,,,Space,keypress(Space),,,,instrumental,,,,----- -- ---- --- -- --- -------- ------------ ---------- --<br>a ------- ------ --------- -- ------------ -- --- ---- -----<br>------ ---- ---- ------ ------ ------- --- ----- ---------<br>---- --- -------- -------- --- --- -- ------- --- --- -----<br>-- --- ------ ------- --- --- -------- ---- --------- --<br>---------- -- -------- ----------------,265792.29000000487,265786.4100000006,265382.292,265386.5000000005,265398.972,265799.292,,10,a
screen,html.Screen,2_3_1_0_1_11,2021-04-27T08:41:16.816Z,,,,,,,,,,,,,,,,,11,,,,,,,,,,,,,,324.5980000025593,,response,,,,4,F,,,,,,Space,keypress(Space),,,,instrumental,,,,----- -- ---- --- -- --- -------- ------------ ---------- --<br>- writing ------ --------- -- ------------ -- --- ---- -----<br>------ ---- ---- ------ ------ ------- --- ----- ---------<br>---- --- -------- -------- --- --- -- ------- --- --- -----<br>-- --- ------ ------- --- --- -------- ---- --------- --<br>---------- -- -------- ----------------,266129.20500000473,266123.8900000026,265782.612,265792.5400000022,265799.292,266132.892,,11,writing
screen,html.Screen,2_3_1_0_1_12,2021-04-27T08:41:17.233Z,,,,,,,,,,,,,,,,,11,,,,,,,,,,,,,,407.662999999593,,response,,,,4,F,,,,,,Space,keypress(Space),,,,instrumental,,,,----- -- ---- --- -- --- -------- ------------ ---------- --<br>- ------- system --------- -- ------------ -- --- ---- -----<br>------ ---- ---- ------ ------ ------- --- ----- ---------<br>---- --- -------- -------- --- --- -- ------- --- --- -----<br>-- --- ------ ------- --- --- -------- ---- --------- --<br>---------- -- -------- ----------------,266546.2499999994,266540.5549999996,266116.212,266129.5400000017,266132.892,266549.892,,12,system
screen,html.Screen,2_3_1_0_1_13,2021-04-27T08:41:17.785Z,,,,,,,,,,,,,,,,,11,,,,,,,,,,,,,,542.8930000007385,,response,,,,4,F,,,,,,Space,keypress(Space),,,,instrumental,,,,----- -- ---- --- -- --- -------- ------------ ---------- --<br>- ------- ------ comprised -- ------------ -- --- ---- -----<br>------ ---- ---- ------ ------ ------- --- ----- ---------<br>---- --- -------- -------- --- --- -- ------- --- --- -----<br>-- --- ------ ------- --- --- -------- ---- --------- --<br>---------- -- -------- ----------------,267098.53999999905,267092.78500000073,266533.212,266546.580000002,266549.892,267100.332,,13,comprised
screen,html.Screen,2_3_1_0_1_14,2021-04-27T08:41:18.438Z,,,,,,,,,,,,,,,,,11,,,,,,,,,,,,,,645.4329999996698,,response,,,,4,F,,,,,,Space,keypress(Space),,,,instrumental,,,,----- -- ---- --- -- --- -------- ------------ ---------- --<br>- ------- ------ --------- of ------------ -- --- ---- -----<br>------ ---- ---- ------ ------ ------- --- ----- ---------<br>---- --- -------- -------- --- --- -- ------- --- --- -----<br>-- --- ------ ------- --- --- -------- ---- --------- --<br>---------- -- -------- ----------------,267751.58500000543,267745.76499999966,267083.652,267098.83000000264,267100.332,267767.532,,14,of
screen,html.Screen,2_3_1_0_1_15,2021-04-27T08:41:18.911Z,,,,,,,,,,,,,,,,,11,,,,,,,,,,,,,,450.807999999437,,response,,,,4,F,,,,,,Space,keypress(Space),,,,instrumental,,,,----- -- ---- --- -- --- -------- ------------ ---------- --<br>- ------- ------ --------- -- pictographs. -- --- ---- -----<br>------ ---- ---- ------ ------ ------- --- ----- ---------<br>---- --- -------- -------- --- --- -- ------- --- --- -----<br>-- --- ------ ------- --- --- -------- ---- --------- --<br>---------- -- -------- ----------------,268224.12500000064,268218.33999999944,267750.852,267752.12000000465,267767.532,268234.572,,15,pictographs.
screen,html.Screen,2_3_1_0_1_16,2021-04-27T08:41:19.360Z,,,,,,,,,,,,,,,,,11,,,,,,,,,,,,,,432.6480000030133,,response,,,,4,F,,,,,,Space,keypress(Space),,,,instrumental,,,,----- -- ---- --- -- --- -------- ------------ ---------- --<br>- ------- ------ --------- -- ------------ It --- ---- -----<br>------ ---- ---- ------ ------ ------- --- ----- ---------<br>---- --- -------- -------- --- --- -- ------- --- --- -----<br>-- --- ------ ------- --- --- -------- ---- --------- --<br>---------- -- -------- ----------------,268673.45500000374,268667.220000003,268217.892,268224.37500000524,268234.572,268684.932,,16,It
screen,html.Screen,2_3_1_0_1_17,2021-04-27T08:41:19.718Z,,,,,,,,,,,,,,,,,11,,,,,,,,,,,,,,341.45799999911105,,response,,,,4,F,,,,,,Space,keypress(Space),,,,instrumental,,,,----- -- ---- --- -- --- -------- ------------ ---------- --<br>- ------- ------ --------- -- ------------ -- has ---- -----<br>------ ---- ---- ------ ------ ------- --- ----- ---------<br>---- --- -------- -------- --- --- -- ------- --- --- -----<br>-- --- ------ ------- --- --- -------- ---- --------- --<br>---------- -- -------- ----------------,269031.12500000134,269026.3899999991,268668.252,268673.75000000175,268684.932,269035.212,,17,has
screen,html.Screen,2_3_1_0_1_18,2021-04-27T08:41:20.055Z,,,,,,,,,,,,,,,,,11,,,,,,,,,,,,,,329.8630000015255,,response,,,,4,F,,,,,,Space,keypress(Space),,,,instrumental,,,,----- -- ---- --- -- --- -------- ------------ ---------- --<br>- ------- ------ --------- -- ------------ -- --- been -----<br>------ ---- ---- ------ ------ ------- --- ----- ---------<br>---- --- -------- -------- --- --- -- ------- --- --- -----<br>-- --- ------ ------- --- --- -------- ---- --------- --<br>---------- -- -------- ----------------,269368.49500000244,269365.0750000015,269018.532,269031.37000000424,269035.212,269385.492,,18,been
screen,html.Screen,2_3_1_0_1_19,2021-04-27T08:41:20.552Z,,,,,,,,,,,,,,,,,11,,,,,,,,,,,,,,475.0030000007828,,response,,,,4,F,,,,,,Space,keypress(Space),,,,instrumental,,,,----- -- ---- --- -- --- -------- ------------ ---------- --<br>- ------- ------ --------- -- ------------ -- --- ---- found<br>------ ---- ---- ------ ------ ------- --- ----- ---------<br>---- --- -------- -------- --- --- -- ------- --- --- -----<br>-- --- ------ ------- --- --- -------- ---- --------- --<br>---------- -- -------- ----------------,269865.91500000213,269860.4950000008,269368.812,269368.79000000044,269385.492,269869.212,,19,found
screen,html.Screen,2_3_1_0_1_20,2021-04-27T08:41:21.013Z,,,,,,,,,,,,,,,,,11,,,,,,,,,,,,,,451.87300000322284,,response,,,,4,F,,,,,,Space,keypress(Space),,,,instrumental,,,,----- -- ---- --- -- --- -------- ------------ ---------- --<br>- ------- ------ --------- -- ------------ -- --- ---- -----<br>carved ---- ---- ------ ------ ------- --- ----- ---------<br>---- --- -------- -------- --- --- -- ------- --- --- -----<br>-- --- ------ ------- --- --- -------- ---- --------- --<br>---------- -- -------- ----------------,270326.54000000184,270321.0850000032,269852.532,269866.2900000054,269869.212,270336.252,,20,carved
screen,html.Screen,2_3_1_0_1_21,2021-04-27T08:41:21.466Z,,,,,,,,,,,,,,,,,11,,,,,,,,,,,,,,435.82300000078976,,response,,,,4,F,,,,,,Space,keypress(Space),,,,instrumental,,,,----- -- ---- --- -- --- -------- ------------ ---------- --<br>- ------- ------ --------- -- ------------ -- --- ---- -----<br>------ into ---- ------ ------ ------- --- ----- ---------<br>---- --- -------- -------- --- --- -- ------- --- --- -----<br>-- --- ------ ------- --- --- -------- ---- --------- --<br>---------- -- -------- ----------------,270779.8299999995,270772.07500000077,270319.572,270326.74500000576,270336.252,270786.612,,21,into
screen,html.Screen,2_3_1_0_1_22,2021-04-27T08:41:21.846Z,,,,,,,,,,,,,,,,,11,,,,,,,,,,,,,,367.2580000018934,,response,,,,4,F,,,,,,Space,keypress(Space),,,,instrumental,,,,----- -- ---- --- -- --- -------- ------------ ---------- --<br>- ------- ------ --------- -- ------------ -- --- ---- -----<br>------ ---- many ------ ------ ------- --- ----- ---------<br>---- --- -------- -------- --- --- -- ------- --- --- -----<br>-- --- ------ ------- --- --- -------- ---- --------- --<br>---------- -- -------- ----------------,271159.57999999955,271153.8700000019,270769.932,270780.1200000031,270786.612,271170.252,,22,many
screen,html.Screen,2_3_1_0_1_23,2021-04-27T08:41:22.274Z,,,,,,,,,,,,,,,,,11,,,,,,,,,,,,,,411.4780000053579,,response,,,,4,F,,,,,,Space,keypress(Space),,,,instrumental,,,,----- -- ---- --- -- --- -------- ------------ ---------- --<br>- ------- ------ --------- -- ------------ -- --- ---- -----<br>------ ---- ---- oblong ------ ------- --- ----- ---------<br>---- --- -------- -------- --- --- -- ------- --- --- -----<br>-- --- ------ ------- --- --- -------- ---- --------- --<br>---------- -- -------- ----------------,271587.3300000021,271581.73000000534,271153.572,271159.87500000483,271170.252,271603.932,,23,oblong
screen,html.Screen,2_3_1_0_1_24,2021-04-27T08:41:22.588Z,,,,,,,,,,,,,,,,,11,,,,,,,,,,,,,,292.1130000013509,,response,,,,4,F,,,,,,Space,keypress(Space),,,,instrumental,,,,----- -- ---- --- -- --- -------- ------------ ---------- --<br>- ------- ------ --------- -- ------------ -- --- ---- -----<br>------ ---- ---- ------ wooden ------- --- ----- ---------<br>---- --- -------- -------- --- --- -- ------- --- --- -----<br>-- --- ------ ------- --- --- -------- ---- --------- --<br>---------- -- -------- ----------------,271901.49999999994,271896.0450000013,271587.252,271587.57999999943,271603.932,271904.172,,24,wooden
screen,html.Screen,2_3_1_0_1_25,2021-04-27T08:41:23.038Z,,,,,,,,,,,,,,,,,11,,,,,,,,,,,,,,442.0380000033183,,response,,,,4,F,,,,,,Space,keypress(Space),,,,instrumental,,,,----- -- ---- --- -- --- -------- ------------ ---------- --<br>- ------- ------ --------- -- ------------ -- --- ---- -----<br>------ ---- ---- ------ ------ tablets --- ----- ---------<br>---- --- -------- -------- --- --- -- ------- --- --- -----<br>-- --- ------ ------- --- --- -------- ---- --------- --<br>---------- -- -------- ----------------,272351.95500000555,272346.21000000334,271887.492,271901.79000000353,271904.172,272354.532,,25,tablets
screen,html.Screen,2_3_1_0_1_26,2021-04-27T08:41:23.433Z,,,,,,,,,,,,,,,,,11,,,,,,,,,,,,,,385.9229999991949,,response,,,,4,F,,,,,,Space,keypress(Space),,,,instrumental,,,,----- -- ---- --- -- --- -------- ------------ ---------- --<br>- ------- ------ --------- -- ------------ -- --- ---- -----<br>------ ---- ---- ------ ------ ------- and ----- ---------<br>---- --- -------- -------- --- --- -- ------- --- --- -----<br>-- --- ------ ------- --- --- -------- ---- --------- --<br>---------- -- -------- ----------------,272746.08000000444,272740.4549999992,272337.852,272352.4150000012,272354.532,272754.852,,26,and
screen,html.Screen,2_3_1_0_1_27,2021-04-27T08:41:23.826Z,,,,,,,,,,,,,,,,,11,,,,,,,,,,,,,,379.5680000021239,,response,,,,4,F,,,,,,Space,keypress(Space),,,,instrumental,,,,----- -- ---- --- -- --- -------- ------------ ---------- --<br>- ------- ------ --------- -- ------------ -- --- ---- -----<br>------ ---- ---- ------ ------ ------- --- other ---------<br>---- --- -------- -------- --- --- -- ------- --- --- -----<br>-- --- ------ ------- --- --- -------- ---- --------- --<br>---------- -- -------- ----------------,273139.995000005,273134.42000000214,272738.172,272746.37500000244,272754.852,273155.172,,27,other
screen,html.Screen,2_3_1_0_1_28,2021-04-27T08:41:24.230Z,,,,,,,,,,,,,,,,,11,,,,,,,,,,,,,,383.45300000102725,,response,,,,4,F,,,,,,Space,keypress(Space),,,,instrumental,,,,----- -- ---- --- -- --- -------- ------------ ---------- --<br>- ------- ------ --------- -- ------------ -- --- ---- -----<br>------ ---- ---- ------ ------ ------- --- ----- artifacts<br>---- --- -------- -------- --- --- -- ------- --- --- -----<br>-- --- ------ ------- --- --- -------- ---- --------- --<br>---------- -- -------- ----------------,273543.75000000437,273538.62500000105,273138.492,273140.290000003,273155.172,273555.492,,28,artifacts
screen,html.Screen,2_3_1_0_1_29,2021-04-27T08:41:24.771Z,,,,,,,,,,,,,,,,,11,,,,,,,,,,,,,,523.8530000055325,,response,,,,4,F,,,,,,Space,keypress(Space),,,,instrumental,,,,----- -- ---- --- -- --- -------- ------------ ---------- --<br>- ------- ------ --------- -- ------------ -- --- ---- -----<br>------ ---- ---- ------ ------ ------- --- ----- ---------<br>from --- -------- -------- --- --- -- ------- --- --- -----<br>-- --- ------ ------- --- --- -------- ---- --------- --<br>---------- -- -------- ----------------,274084.91499999946,274079.34500000556,273538.812,273544.16499999934,273555.492,274089.387,,29,from
screen,html.Screen,2_3_1_0_1_30,2021-04-27T08:41:25.277Z,,,,,,,,,,,,,,,,,11,,,,,,,,,,,,,,495.18800000078045,,response,,,,4,F,,,,,,Space,keypress(Space),,,,instrumental,,,,----- -- ---- --- -- --- -------- ------------ ---------- --<br>- ------- ------ --------- -- ------------ -- --- ---- -----<br>------ ---- ---- ------ ------ ------- --- ----- ---------<br>---- the -------- -------- --- --- -- ------- --- --- -----<br>-- --- ------ ------- --- --- -------- ---- --------- --<br>---------- -- -------- ----------------,274590.2050000004,274584.57500000077,274072.707,274085.20500000304,274089.387,274606.467,,30,the
screen,html.Screen,2_3_1_0_1_31,2021-04-27T08:41:25.627Z,,,,,,,,,,,,,,,,,11,,,,,,,,,,,,,,327.7880000001169,,response,,,,4,F,,,,,,Space,keypress(Space),,,,instrumental,,,,----- -- ---- --- -- --- -------- ------------ ---------- --<br>- ------- ------ --------- -- ------------ -- --- ---- -----<br>------ ---- ---- ------ ------ ------- --- ----- ---------<br>---- --- island's -------- --- --- -- ------- --- --- -----<br>-- --- ------ ------- --- --- -------- ---- --------- --<br>---------- -- -------- ----------------,274940.165,274934.2550000001,274589.787,274590.455000005,274606.467,274956.747,,31,island's
screen,html.Screen,2_3_1_0_1_32,2021-04-27T08:41:25.986Z,,,,,,,,,,,,,,,,,11,,,,,,,,,,,,,,336.87300000403775,,response,,,,4,F,,,,,,Space,keypress(Space),,,,instrumental,,,,----- -- ---- --- -- --- -------- ------------ ---------- --<br>- ------- ------ --------- -- ------------ -- --- ---- -----<br>------ ---- ---- ------ ------ ------- --- ----- ---------<br>---- --- -------- history. --- --- -- ------- --- --- -----<br>-- --- ------ ------- --- --- -------- ---- --------- --<br>---------- -- -------- ----------------,275299.125000005,275293.620000004,274940.067,274940.3750000056,274956.747,275307.027,,32,history.
screen,html.Screen,2_3_1_0_1_33,2021-04-27T08:41:26.380Z,,,,,,,,,,,,,,,,,11,,,,,,,,,,,,,,381.15300000464777,,response,,,,4,F,,,,,,Space,keypress(Space),,,,instrumental,,,,----- -- ---- --- -- --- -------- ------------ ---------- --<br>- ------- ------ --------- -- ------------ -- --- ---- -----<br>------ ---- ---- ------ ------ ------- --- ----- ---------<br>---- --- -------- -------- The --- -- ------- --- --- -----<br>-- --- ------ ------- --- --- -------- ---- --------- --<br>---------- -- -------- ----------------,275693.5400000002,275688.18000000465,275290.347,275299.3750000023,275307.027,275707.347,,33,The
screen,html.Screen,2_3_1_0_1_34,2021-04-27T08:41:26.738Z,,,,,,,,,,,,,,,,,11,,,,,,,,,,,,,,338.8280000031227,,response,,,,4,F,,,,,,Space,keypress(Space),,,,instrumental,,,,----- -- ---- --- -- --- -------- ------------ ---------- --<br>- ------- ------ --------- -- ------------ -- --- ---- -----<br>------ ---- ---- ------ ------ ------- --- ----- ---------<br>---- --- -------- -------- --- art -- ------- --- --- -----<br>-- --- ------ ------- --- --- -------- ---- --------- --<br>---------- -- -------- ----------------,276051.29000000306,276046.17500000313,275690.667,275693.7500000058,275707.347,276057.627,,34,art
screen,html.Screen,2_3_1_0_1_35,2021-04-27T08:41:27.044Z,,,,,,,,,,,,,,,,,11,,,,,,,,,,,,,,294.0430000036722,,response,,,,4,F,,,,,,Space,keypress(Space),,,,instrumental,,,,----- -- ---- --- -- --- -------- ------------ ---------- --<br>- ------- ------ --------- -- ------------ -- --- ---- -----<br>------ ---- ---- ------ ------ ------- --- ----- ---------<br>---- --- -------- -------- --- --- of ------- --- --- -----<br>-- --- ------ ------- --- --- -------- ---- --------- --<br>---------- -- -------- ----------------,276357.3299999989,276351.67000000365,276040.947,276051.5799999994,276057.627,276374.547,,35,of
screen,html.Screen,2_3_1_0_1_36,2021-04-27T08:41:27.381Z,,,,,,,,,,,,,,,,,11,,,,,,,,,,,,,,314.58299999882,,response,,,,4,F,,,,,,Space,keypress(Space),,,,instrumental,,,,----- -- ---- --- -- --- -------- ------------ ---------- --<br>- ------- ------ --------- -- ------------ -- --- ---- -----<br>------ ---- ---- ------ ------ ------- --- ----- ---------<br>---- --- -------- -------- --- --- -- writing --- --- -----<br>-- --- ------ ------- --- --- -------- ---- --------- --<br>---------- -- -------- ----------------,276694.6650000027,276689.12999999884,276357.867,276357.5800000035,276374.547,276708.147,,36,writing
screen,html.Screen,2_3_1_0_1_37,2021-04-27T08:41:27.786Z,,,,,,,,,,,,,,,,,11,,,,,,,,,,,,,,385.9980000027572,,response,,,,4,F,,,,,,Space,keypress(Space),,,,instrumental,,,,----- -- ---- --- -- --- -------- ------------ ---------- --<br>- ------- ------ --------- -- ------------ -- --- ---- -----<br>------ ---- ---- ------ ------ ------- --- ----- ---------<br>---- --- -------- -------- --- --- -- ------- was --- -----<br>-- --- ------ ------- --- --- -------- ---- --------- --<br>---------- -- -------- ----------------,277099.8299999992,277094.14500000275,276691.467,276694.954999999,276708.147,277108.467,,37,was
