sender,sender_type,sender_id,timestamp,meta,,Blues,Classical,Country,Dance,Electronic,Folk,Gospel,Hip-Hop,Jazz,Latin,Musical/Film,New-age,Pop,Prolific_id,Provo_ID,R&B,Rap,Reggae,Religious,Rock,Soul,Swing,Traditional,age,artist_name,correct,correctResponse,distraction,duration,education,ended_on,familiarity,gender,headphone_check_performance,item,list,music_frequency,offensiveness,pleasantness,position_correct,preference,response,response_action,snippet_file,song_name,song_rating,sound,stimulus_1,stimulus_2,stimulus_3,text,time_commit,time_end,time_render,time_run,time_show,time_switch,url,word,word_ID
Prolific ID,html.Form,0,2021-04-30T16:04:17.766Z,"{""labjs_version"":""20.2.2"",""labjs_build"":{""flavor"":""production"",""commit"":""a25486e0c714a0ae2ce03ff94b7bb6896854dcfa""},""location"":""https://run.pavlovia.org/mvasilev/prolific_music_c/"",""userAgent"":""Mozilla/5.0 (Windows NT 10.0; Win64; x64; rv:88.0) Gecko/20100101 Firefox/88.0"",""platform"":""Win32"",""language"":""en-GB"",""locale"":""en-GB"",""timeZone"":""Europe/London"",""timezoneOffset"":-60,""screen_width"":1920,""screen_height"":1080,""scroll_width"":1920,""scroll_height"":885,""window_innerWidth"":1920,""window_innerHeight"":933,""devicePixelRatio"":1}",,,,,,,,,,,,,,,5f6f31f7a28898067fb4c50f,,,,,,,,,,,,,,,6647.74,,form submission,,,,,,,,,,,,,,,,,,,,,16524,16523,9871.08,9871,9875.26,16529.22,{},,
Introduction,html.Screen,1_0,2021-04-30T16:04:21.430Z,,,,,,,,,,,,,,,,,,,,,,,,,,,,,,,3645.779999999999,,response,,,,,,,,,,,continue,click button,,,,,,,,,20186,20175,16525.04,16525,16529.22,20193.72,,,
Volume calibration,html.Screen,1_1,2021-04-30T16:04:23.928Z,,,,,,,,,,,,,,,,,,,,,,,,,,,,,,,2481.279999999999,,response,,,,,,,,,,,continue,click button,,,,,,,,,22686,22675,20189.54,20186,20193.72,22689.72,,,
Task instructions,html.Screen,1_2,2021-04-30T16:04:25.538Z,,,,,,,,,,,,,,,,,,,,,,,,,,,,,,,1594.2799999999988,,response,,,,,,,,,,,continue,click button,,,,,,,,,24295,24284,22685.54,22686,22689.72,24299.68,,,
Sounds,html.Screen,1_3_0_0,2021-04-30T16:04:29.789Z,,,,,,,,,,,,,,,,,,,,,,,,,,,,,,,4250.139999999999,,timeout,,,,,,,,,3,,,,,,,,O,I,S,,28547,28545.64,24295.5,24296,24299.68,28549.82,,,
Judgement,html.Screen,1_3_0_1,2021-04-30T16:04:32.579Z,,,,,,,,,,,,,,,,,,,,,,,,,,,,true,3,,2781.1800000000003,,response,,,,,,,,,3,,3,click #choice-3,,,,,O,I,S,,31337,31331,28545.64,28547,28549.82,31344.32,,,
Trial,flow.Sequence,1_3_0,2021-04-30T16:04:32.580Z,,,,,,,,,,,,,,,,,,,,,,,,,,,,,,,7031.32,,completion,,,,,,,,,3,,,,,,,,O,I,S,,31337,31331,24295.5,24296,24299.68,31344.32,,,
Sounds,html.Screen,1_3_1_0,2021-04-30T16:04:36.834Z,,,,,,,,,,,,,,,,,,,,,,,,,,,,,,,4250.220000000001,,timeout,,,,,,,,,2,,,,,,,,I,S,O,,35591,35590.38,31340.14,31338,31344.32,35594.54,,,
Judgement,html.Screen,1_3_1_1,2021-04-30T16:04:37.224Z,,,,,,,,,,,,,,,,,,,,,,,,,,,,true,2,,376.4599999999991,,response,,,,,,,,,2,,2,click #choice-2,,,,,I,S,O,,35981,35971,35590.38,35591,35594.54,35986.6,,,
Trial,flow.Sequence,1_3_1,2021-04-30T16:04:37.224Z,,,,,,,,,,,,,,,,,,,,,,,,,,,,,,,4626.68,,completion,,,,,,,,,2,,,,,,,,I,S,O,,35982,35971,31340.14,31337,31344.32,35986.6,,,
Sounds,html.Screen,1_3_2_0,2021-04-30T16:04:41.476Z,,,,,,,,,,,,,,,,,,,,,,,,,,,,,,,4250.040000000001,,timeout,,,,,,,,,1,,,,,,,,S,I,O,,40233,40232.46,35982.42,35982,35986.6,40236.64,,,
Judgement,html.Screen,1_3_2_1,2021-04-30T16:04:42.604Z,,,,,,,,,,,,,,,,,,,,,,,,,,,,true,1,,1110.3600000000006,,response,,,,,,,,,1,,1,click #choice-1,,,,,S,I,O,,41361,41347,40232.46,40233,40236.64,41366.94,,,
Trial,flow.Sequence,1_3_2,2021-04-30T16:04:42.604Z,,,,,,,,,,,,,,,,,,,,,,,,,,,,,,,5360.4000000000015,,completion,,,,,,,,,1,,,,,,,,S,I,O,,41361,41347,35982.42,35982,35986.6,41366.94,,,
Sounds,html.Screen,1_3_3_0,2021-04-30T16:04:46.857Z,,,,,,,,,,,,,,,,,,,,,,,,,,,,,,,4250.139999999999,,timeout,,,,,,,,,3,,,,,,,,I,O,S,,45613,45612.92,41362.78,41361,41366.94,45617.08,,,
Judgement,html.Screen,1_3_3_1,2021-04-30T16:04:47.252Z,,,,,,,,,,,,,,,,,,,,,,,,,,,,true,3,,385.91999999999825,,response,,,,,,,,,3,,3,click #choice-3,,,,,I,O,S,,46008,46003,45612.92,45614,45617.08,46013.48,,,
Trial,flow.Sequence,1_3_3,2021-04-30T16:04:47.252Z,,,,,,,,,,,,,,,,,,,,,,,,,,,,,,,4636.059999999998,,completion,,,,,,,,,3,,,,,,,,I,O,S,,46008,46003,41362.78,41361,41366.94,46013.48,,,
Sounds,html.Screen,1_3_4_0,2021-04-30T16:04:51.503Z,,,,,,,,,,,,,,,,,,,,,,,,,,,,,,,4250.139999999999,,timeout,,,,,,,,,2,,,,,,,,O,S,I,,50260,50259.44,46009.3,46008,46013.48,50263.62,,,
Judgement,html.Screen,1_3_4_1,2021-04-30T16:04:51.878Z,,,,,,,,,,,,,,,,,,,,,,,,,,,,true,2,,364.3799999999974,,response,,,,,,,,,2,,2,click #choice-2,,,,,O,S,I,,50635,50628,50259.44,50260,50263.62,50643.16,,,
Trial,flow.Sequence,1_3_4,2021-04-30T16:04:51.878Z,,,,,,,,,,,,,,,,,,,,,,,,,,,,,,,4614.519999999997,,completion,,,,,,,,,2,,,,,,,,O,S,I,,50635,50628,46009.3,46008,46013.48,50643.16,,,
Sounds,html.Screen,1_3_5_0,2021-04-30T16:04:56.133Z,,,,,,,,,,,,,,,,,,,,,,,,,,,,,,,4250.139999999999,,timeout,,,,,,,,,1,,,,,,,,S,O,I,,54890,54889.12,50639,50635,50643.16,54893.3,,,
Judgement,html.Screen,1_3_5_1,2021-04-30T16:04:56.518Z,,,,,,,,,,,,,,,,,,,,,,,,,,,,true,1,,374.6999999999971,,response,,,,,,,,,1,,1,click #choice-1,,,,,S,O,I,,55274,55268,54889.12,54890,54893.3,55281.2,,,
Trial,flow.Sequence,1_3_5,2021-04-30T16:04:56.518Z,,,,,,,,,,,,,,,,,,,,,,,,,,,,,,,4624.8399999999965,,completion,,,,,,,,,1,,,,,,,,S,O,I,,55274,55268,50639,50635,50643.16,55281.2,,,
Task,flow.Loop,1_3,2021-04-30T16:04:56.518Z,,,,,,,,,,,,,,,,,,,,,,,,,,,,,,,30968.32,,completion,,,1,,,,,,,,,,,,,,,,,,55275,55268,24295.5,24296,24299.68,55281.2,,,
Trap,html.Screen,1_4,2021-04-30T16:04:56.519Z,,,,,,,,,,,,,,,,,,,,,,,,,,,,,,,NaN,,skipped,,,,,,,,,,,,,,,,,,,,,55276,55268,,55276,,55281.2,,,
Thanks,html.Screen,1_5,2021-04-30T16:04:58.893Z,,,,,,,,,,,,,,,,,,,,,,,,,,,,,,,2362.800000000003,,response,,,,,,,,,,,continue,click button,,,,,,,,,57650,57644,55277.02,55276,55281.2,60995.3,,,
Headphone screening,flow.Sequence,1,2021-04-30T16:04:58.893Z,,,,,,,,,,,,,,,,,,,,,,,,,,,,,,,41114.78,,completion,,,,,,,,,,,,,,,,,,,,,57650,57644,16525.04,16524,16529.22,60995.3,,,
Instructions,html.Page,2_0,2021-04-30T16:05:03.640Z,,,,,,,,,,,,,,,,,,,,,,,,,,,,,,,1401.699999999997,,form submission,,,,,,,,,,,,,,,,,,,,,62397,62397,60991.14,60990,60995.3,62400.9,,,
Holding screen,html.Screen,2_1_0_0,2021-04-30T16:05:13.642Z,,,,,,,,,,,,,,,,,,,,,,,,,,,,,,,10000.620000000003,,timeout,,,,,,,,,,,,,,,,,,,,,72399,72397.34,62396.72,62398,62400.9,72401.52,,,
screen,html.Screen,2_1_0_1_0,2021-04-30T16:05:14.801Z,,,,,,,,,,,,,,,,,53,,,,,,,,,,,,,,1148.479999999996,,response,,,,99,,,,,,,Space,keypress(Space),,,,,,,,When -- ----- -- ------ - ------- --- ----------<br>------------- ------ ------ ---- ---- ------- ----- -- ----<br>-------- ------- -- ---------- --- - --- ----- ----- ----<br>---- --- --- ----- --- ---- ---- ------- ----- ---- -------<br>--- --- -- ----- -- --- ---- -- --- ---- -- ------ ------<br>--- ----- -- ----,73558,73550,72397.34,72400,72401.52,73566.48,,0,When
screen,html.Screen,2_1_0_1_1,2021-04-30T16:05:15.167Z,,,,,,,,,,,,,,,,,53,,,,,,,,,,,,,,341.5200000000041,,response,,,,99,,,,,,,Space,keypress(Space),,,,,,,,---- it ----- -- ------ - ------- --- ----------<br>------------- ------ ------ ---- ---- ------- ----- -- ----<br>-------- ------- -- ---------- --- - --- ----- ----- ----<br>---- --- --- ----- --- ---- ---- ------- ----- ---- -------<br>--- --- -- ----- -- --- ---- -- --- ---- -- ------ ------<br>--- ----- -- ----,73924,73908,73562.3,73558,73566.48,73929.34,,1,it
screen,html.Screen,2_1_0_1_2,2021-04-30T16:05:15.692Z,,,,,,,,,,,,,,,,,53,,,,,,,,,,,,,,510.6600000000035,,response,,,,99,,,,,,,Space,keypress(Space),,,,,,,,---- -- comes -- ------ - ------- --- ----------<br>------------- ------ ------ ---- ---- ------- ----- -- ----<br>-------- ------- -- ---------- --- - --- ----- ----- ----<br>---- --- --- ----- --- ---- ---- ------- ----- ---- -------<br>--- --- -- ----- -- --- ---- -- --- ---- -- ------ ------<br>--- ----- -- ----,74450,74440,73925.18,73924,73929.34,74454.88,,2,comes
screen,html.Screen,2_1_0_1_3,2021-04-30T16:05:16.077Z,,,,,,,,,,,,,,,,,53,,,,,,,,,,,,,,375.11999999999534,,response,,,,99,,,,,,,Space,keypress(Space),,,,,,,,---- -- ----- to ------ - ------- --- ----------<br>------------- ------ ------ ---- ---- ------- ----- -- ----<br>-------- ------- -- ---------- --- - --- ----- ----- ----<br>---- --- --- ----- --- ---- ---- ------- ----- ---- -------<br>--- --- -- ----- -- --- ---- -- --- ---- -- ------ ------<br>--- ----- -- ----,74833,74830,74450.7,74450,74454.88,74838.6,,3,to
screen,html.Screen,2_1_0_1_4,2021-04-30T16:05:16.354Z,,,,,,,,,,,,,,,,,53,,,,,,,,,,,,,,257.3999999999942,,response,,,,99,,,,,,,Space,keypress(Space),,,,,,,,---- -- ----- -- having - ------- --- ----------<br>------------- ------ ------ ---- ---- ------- ----- -- ----<br>-------- ------- -- ---------- --- - --- ----- ----- ----<br>---- --- --- ----- --- ---- ---- ------- ----- ---- -------<br>--- --- -- ----- -- --- ---- -- --- ---- -- ------ ------<br>--- ----- -- ----,75110,75096,74834.42,74834,74838.6,75118.04,,4,having
screen,html.Screen,2_1_0_1_5,2021-04-30T16:05:16.697Z,,,,,,,,,,,,,,,,,53,,,,,,,,,,,,,,320.9600000000064,,response,,,,99,,,,,,,Space,keypress(Space),,,,,,,,---- -- ----- -- ------ a ------- --- ----------<br>------------- ------ ------ ---- ---- ------- ----- -- ----<br>-------- ------- -- ---------- --- - --- ----- ----- ----<br>---- --- --- ----- --- ---- ---- ------- ----- ---- -------<br>--- --- -- ----- -- --- ---- -- --- ---- -- ------ ------<br>--- ----- -- ----,75453,75439,75113.88,75111,75118.04,75460.06,,5,a
screen,html.Screen,2_1_0_1_6,2021-04-30T16:05:17.097Z,,,,,,,,,,,,,,,,,53,,,,,,,,,,,,,,385.9400000000023,,response,,,,99,,,,,,,Space,keypress(Space),,,,,,,,---- -- ----- -- ------ - lasting --- ----------<br>------------- ------ ------ ---- ---- ------- ----- -- ----<br>-------- ------- -- ---------- --- - --- ----- ----- ----<br>---- --- --- ----- --- ---- ---- ------- ----- ---- -------<br>--- --- -- ----- -- --- ---- -- --- ---- -- ------ ------<br>--- ----- -- ----,75855,75846,75455.88,75454,75460.06,75860.46,,6,lasting
screen,html.Screen,2_1_0_1_7,2021-04-30T16:05:17.471Z,,,,,,,,,,,,,,,,,53,,,,,,,,,,,,,,361.5399999999936,,response,,,,99,,,,,,,Space,keypress(Space),,,,,,,,---- -- ----- -- ------ - ------- and ----------<br>------------- ------ ------ ---- ---- ------- ----- -- ----<br>-------- ------- -- ---------- --- - --- ----- ----- ----<br>---- --- --- ----- --- ---- ---- ------- ----- ---- -------<br>--- --- -- ----- -- --- ---- -- --- ---- -- ------ ------<br>--- ----- -- ----,76227,76222,75856.3,75855,75860.46,76235.92,,7,and
screen,html.Screen,2_1_0_1_8,2021-04-30T16:05:17.882Z,,,,,,,,,,,,,,,,,53,,,,,,,,,,,,,,392.08000000000175,,response,,,,99,,,,,,,Space,keypress(Space),,,,,,,,---- -- ----- -- ------ - ------- --- fulfilling<br>------------- ------ ------ ---- ---- ------- ----- -- ----<br>-------- ------- -- ---------- --- - --- ----- ----- ----<br>---- --- --- ----- --- ---- ---- ------- ----- ---- -------<br>--- --- -- ----- -- --- ---- -- --- ---- -- ------ ------<br>--- ----- -- ----,76638,76628,76231.74,76227,76235.92,76644.66,,8,fulfilling
screen,html.Screen,2_1_0_1_9,2021-04-30T16:05:18.169Z,,,,,,,,,,,,,,,,,53,,,,,,,,,,,,,,279.3399999999965,,response,,,,99,,,,,,,Space,keypress(Space),,,,,,,,"---- -- ----- -- ------ - ------- --- ----------<br>relationship, ------ ------ ---- ---- ------- ----- -- ----<br>-------- ------- -- ---------- --- - --- ----- ----- ----<br>---- --- --- ----- --- ---- ---- ------- ----- ---- -------<br>--- --- -- ----- -- --- ---- -- --- ---- -- ------ ------<br>--- ----- -- ----",76926,76924,76640.5,76638,76644.66,76932.46,,9,"relationship,"
screen,html.Screen,2_1_0_1_10,2021-04-30T16:05:18.652Z,,,,,,,,,,,,,,,,,53,,,,,,,,,,,,,,461.5399999999936,,response,,,,99,,,,,,,Space,keypress(Space),,,,,,,,---- -- ----- -- ------ - ------- --- ----------<br>------------- common ------ ---- ---- ------- ----- -- ----<br>-------- ------- -- ---------- --- - --- ----- ----- ----<br>---- --- --- ----- --- ---- ---- ------- ----- ---- -------<br>--- --- -- ----- -- --- ---- -- --- ---- -- ------ ------<br>--- ----- -- ----,77409,77394,76928.28,76926,76932.46,77416.28,,10,common
screen,html.Screen,2_1_0_1_11,2021-04-30T16:05:19.085Z,,,,,,,,,,,,,,,,,53,,,,,,,,,,,,,,414.72000000000116,,response,,,,99,,,,,,,Space,keypress(Space),,,,,,,,---- -- ----- -- ------ - ------- --- ----------<br>------------- ------ wisdom ---- ---- ------- ----- -- ----<br>-------- ------- -- ---------- --- - --- ----- ----- ----<br>---- --- --- ----- --- ---- ---- ------- ----- ---- -------<br>--- --- -- ----- -- --- ---- -- --- ---- -- ------ ------<br>--- ----- -- ----,77842,77831,77412.12,77409,77416.28,77850.06,,11,wisdom
screen,html.Screen,2_1_0_1_12,2021-04-30T16:05:19.406Z,,,,,,,,,,,,,,,,,53,,,,,,,,,,,,,,307.9400000000023,,response,,,,99,,,,,,,Space,keypress(Space),,,,,,,,---- -- ----- -- ------ - ------- --- ----------<br>------------- ------ ------ says ---- ------- ----- -- ----<br>-------- ------- -- ---------- --- - --- ----- ----- ----<br>---- --- --- ----- --- ---- ---- ------- ----- ---- -------<br>--- --- -- ----- -- --- ---- -- --- ---- -- ------ ------<br>--- ----- -- ----,78163,78158,77845.88,77842,77850.06,78171.22,,12,says
screen,html.Screen,2_1_0_1_13,2021-04-30T16:05:19.687Z,,,,,,,,,,,,,,,,,53,,,,,,,,,,,,,,268.77999999999884,,response,,,,99,,,,,,,Space,keypress(Space),,,,,,,,---- -- ----- -- ------ - ------- --- ----------<br>------------- ------ ------ ---- that ------- ----- -- ----<br>-------- ------- -- ---------- --- - --- ----- ----- ----<br>---- --- --- ----- --- ---- ---- ------- ----- ---- -------<br>--- --- -- ----- -- --- ---- -- --- ---- -- ------ ------<br>--- ----- -- ----,78444,78440,78167.04,78163,78171.22,78450.66,,13,that
screen,html.Screen,2_1_0_1_14,2021-04-30T16:05:19.936Z,,,,,,,,,,,,,,,,,53,,,,,,,,,,,,,,238.3399999999965,,response,,,,99,,,,,,,Space,keypress(Space),,,,,,,,---- -- ----- -- ------ - ------- --- ----------<br>------------- ------ ------ ---- ---- feeling ----- -- ----<br>-------- ------- -- ---------- --- - --- ----- ----- ----<br>---- --- --- ----- --- ---- ---- ------- ----- ---- -------<br>--- --- -- ----- -- --- ---- -- --- ---- -- ------ ------<br>--- ----- -- ----,78693,78689,78446.5,78444,78450.66,78700.92,,14,feeling
screen,html.Screen,2_1_0_1_15,2021-04-30T16:05:20.279Z,,,,,,,,,,,,,,,,,53,,,,,,,,,,,,,,332.08000000000175,,response,,,,99,,,,,,,Space,keypress(Space),,,,,,,,---- -- ----- -- ------ - ------- --- ----------<br>------------- ------ ------ ---- ---- ------- close -- ----<br>-------- ------- -- ---------- --- - --- ----- ----- ----<br>---- --- --- ----- --- ---- ---- ------- ----- ---- -------<br>--- --- -- ----- -- --- ---- -- --- ---- -- ------ ------<br>--- ----- -- ----,79037,79033,78696.74,78693,78700.92,79042.92,,15,close
screen,html.Screen,2_1_0_1_16,2021-04-30T16:05:20.642Z,,,,,,,,,,,,,,,,,53,,,,,,,,,,,,,,350.08000000000175,,response,,,,99,,,,,,,Space,keypress(Space),,,,,,,,---- -- ----- -- ------ - ------- --- ----------<br>------------- ------ ------ ---- ---- ------- ----- to ----<br>-------- ------- -- ---------- --- - --- ----- ----- ----<br>---- --- --- ----- --- ---- ---- ------- ----- ---- -------<br>--- --- -- ----- -- --- ---- -- --- ---- -- ------ ------<br>--- ----- -- ----,79400,79393,79038.76,79037,79042.92,79405.8,,16,to
screen,html.Screen,2_1_0_1_17,2021-04-30T16:05:21.049Z,,,,,,,,,,,,,,,,,53,,,,,,,,,,,,,,394.1999999999971,,response,,,,99,,,,,,,Space,keypress(Space),,,,,,,,---- -- ----- -- ------ - ------- --- ----------<br>------------- ------ ------ ---- ---- ------- ----- -- your<br>-------- ------- -- ---------- --- - --- ----- ----- ----<br>---- --- --- ----- --- ---- ---- ------- ----- ---- -------<br>--- --- -- ----- -- --- ---- -- --- ---- -- ------ ------<br>--- ----- -- ----,79807,79800,79401.62,79400,79405.8,79814.54,,17,your
screen,html.Screen,2_1_0_1_18,2021-04-30T16:05:21.702Z,,,,,,,,,,,,,,,,,53,,,,,,,,,,,,,,641.4600000000064,,response,,,,99,,,,,,,Space,keypress(Space),,,,,,,,---- -- ----- -- ------ - ------- --- ----------<br>------------- ------ ------ ---- ---- ------- ----- -- ----<br>romantic ------- -- ---------- --- - --- ----- ----- ----<br>---- --- --- ----- --- ---- ---- ------- ----- ---- -------<br>--- --- -- ----- -- --- ---- -- --- ---- -- ------ ------<br>--- ----- -- ----,80459,80456,79810.38,79807,79814.54,80465.2,,18,romantic
screen,html.Screen,2_1_0_1_19,2021-04-30T16:05:22.070Z,,,,,,,,,,,,,,,,,53,,,,,,,,,,,,,,349.8000000000029,,response,,,,99,,,,,,,Space,keypress(Space),,,,,,,,---- -- ----- -- ------ - ------- --- ----------<br>------------- ------ ------ ---- ---- ------- ----- -- ----<br>-------- partner -- ---------- --- - --- ----- ----- ----<br>---- --- --- ----- --- ---- ---- ------- ----- ---- -------<br>--- --- -- ----- -- --- ---- -- --- ---- -- ------ ------<br>--- ----- -- ----,80828,80815,80461.04,80459,80465.2,80832.24,,19,partner
screen,html.Screen,2_1_0_1_20,2021-04-30T16:05:22.402Z,,,,,,,,,,,,,,,,,53,,,,,,,,,,,,,,310.75999999999476,,response,,,,99,,,,,,,Space,keypress(Space),,,,,,,,---- -- ----- -- ------ - ------- --- ----------<br>------------- ------ ------ ---- ---- ------- ----- -- ----<br>-------- ------- is ---------- --- - --- ----- ----- ----<br>---- --- --- ----- --- ---- ---- ------- ----- ---- -------<br>--- --- -- ----- -- --- ---- -- --- ---- -- ------ ------<br>--- ----- -- ----,81159,81143,80828.06,80828,80832.24,81165.92,,20,is
screen,html.Screen,2_1_0_1_21,2021-04-30T16:05:22.633Z,,,,,,,,,,,,,,,,,53,,,,,,,,,,,,,,211.08000000000175,,response,,,,99,,,,,,,Space,keypress(Space),,,,,,,,---- -- ----- -- ------ - ------- --- ----------<br>------------- ------ ------ ---- ---- ------- ----- -- ----<br>-------- ------- -- paramount. --- - --- ----- ----- ----<br>---- --- --- ----- --- ---- ---- ------- ----- ---- -------<br>--- --- -- ----- -- --- ---- -- --- ---- -- ------ ------<br>--- ----- -- ----,81391,81377,81161.74,81159,81165.92,81395.32,,21,paramount.
screen,html.Screen,2_1_0_1_22,2021-04-30T16:05:22.885Z,,,,,,,,,,,,,,,,,53,,,,,,,,,,,,,,232.67999999999302,,response,,,,99,,,,,,,Space,keypress(Space),,,,,,,,---- -- ----- -- ------ - ------- --- ----------<br>------------- ------ ------ ---- ---- ------- ----- -- ----<br>-------- ------- -- ---------- But - --- ----- ----- ----<br>---- --- --- ----- --- ---- ---- ------- ----- ---- -------<br>--- --- -- ----- -- --- ---- -- --- ---- -- ------ ------<br>--- ----- -- ----,81641,81628,81391.14,81391,81395.32,81649.74,,22,But
screen,html.Screen,2_1_0_1_23,2021-04-30T16:05:23.228Z,,,,,,,,,,,,,,,,,53,,,,,,,,,,,,,,321.25999999999476,,response,,,,99,,,,,,,Space,keypress(Space),,,,,,,,---- -- ----- -- ------ - ------- --- ----------<br>------------- ------ ------ ---- ---- ------- ----- -- ----<br>-------- ------- -- ---------- --- a --- ----- ----- ----<br>---- --- --- ----- --- ---- ---- ------- ----- ---- -------<br>--- --- -- ----- -- --- ---- -- --- ---- -- ------ ------<br>--- ----- -- ----,81985,81971,81645.56,81641,81649.74,81991.74,,23,a
screen,html.Screen,2_1_0_1_24,2021-04-30T16:05:23.550Z,,,,,,,,,,,,,,,,,53,,,,,,,,,,,,,,308.25999999999476,,response,,,,99,,,,,,,Space,keypress(Space),,,,,,,,---- -- ----- -- ------ - ------- --- ----------<br>------------- ------ ------ ---- ---- ------- ----- -- ----<br>-------- ------- -- ---------- --- - new ----- ----- ----<br>---- --- --- ----- --- ---- ---- ------- ----- ---- -------<br>--- --- -- ----- -- --- ---- -- --- ---- -- ------ ------<br>--- ----- -- ----,82306,82300,81987.58,81985,81991.74,82312.9,,24,new
screen,html.Screen,2_1_0_1_25,2021-04-30T16:05:23.864Z,,,,,,,,,,,,,,,,,53,,,,,,,,,,,,,,299.1000000000058,,response,,,,99,,,,,,,Space,keypress(Space),,,,,,,,---- -- ----- -- ------ - ------- --- ----------<br>------------- ------ ------ ---- ---- ------- ----- -- ----<br>-------- ------- -- ---------- --- - --- study ----- ----<br>---- --- --- ----- --- ---- ---- ------- ----- ---- -------<br>--- --- -- ----- -- --- ---- -- --- ---- -- ------ ------<br>--- ----- -- ----,82620,82612,82308.74,82306,82312.9,82625.72,,25,study
screen,html.Screen,2_1_0_1_26,2021-04-30T16:05:24.124Z,,,,,,,,,,,,,,,,,53,,,,,,,,,,,,,,252.27999999999884,,response,,,,99,,,,,,,Space,keypress(Space),,,,,,,,---- -- ----- -- ------ - ------- --- ----------<br>------------- ------ ------ ---- ---- ------- ----- -- ----<br>-------- ------- -- ---------- --- - --- ----- finds ----<br>---- --- --- ----- --- ---- ---- ------- ----- ---- -------<br>--- --- -- ----- -- --- ---- -- --- ---- -- ------ ------<br>--- ----- -- ----,82881,82878,82621.56,82620,82625.72,82888.48,,26,finds
screen,html.Screen,2_1_0_1_27,2021-04-30T16:05:24.410Z,,,,,,,,,,,,,,,,,53,,,,,,,,,,,,,,270.5200000000041,,response,,,,99,,,,,,,Space,keypress(Space),,,,,,,,---- -- ----- -- ------ - ------- --- ----------<br>------------- ------ ------ ---- ---- ------- ----- -- ----<br>-------- ------- -- ---------- --- - --- ----- ----- that<br>---- --- --- ----- --- ---- ---- ------- ----- ---- -------<br>--- --- -- ----- -- --- ---- -- --- ---- -- ------ ------<br>--- ----- -- ----,83167,83159,82884.32,82881,82888.48,83172.1,,27,that
screen,html.Screen,2_1_0_1_28,2021-04-30T16:05:24.672Z,,,,,,,,,,,,,,,,,53,,,,,,,,,,,,,,252.89999999999418,,response,,,,99,,,,,,,Space,keypress(Space),,,,,,,,---- -- ----- -- ------ - ------- --- ----------<br>------------- ------ ------ ---- ---- ------- ----- -- ----<br>-------- ------- -- ---------- --- - --- ----- ----- ----<br>it's --- --- ----- --- ---- ---- ------- ----- ---- -------<br>--- --- -- ----- -- --- ---- -- --- ---- -- ------ ------<br>--- ----- -- ----,83429,83425,83167.94,83167,83172.1,83434.88,,28,it's
screen,html.Screen,2_1_0_1_29,2021-04-30T16:05:24.876Z,,,,,,,,,,,,,,,,,53,,,,,,,,,,,,,,192.11999999999534,,response,,,,99,,,,,,,Space,keypress(Space),,,,,,,,---- -- ----- -- ------ - ------- --- ----------<br>------------- ------ ------ ---- ---- ------- ----- -- ----<br>-------- ------- -- ---------- --- - --- ----- ----- ----<br>---- not --- ----- --- ---- ---- ------- ----- ---- -------<br>--- --- -- ----- -- --- ---- -- --- ---- -- ------ ------<br>--- ----- -- ----,83633,83627,83430.7,83429,83434.88,83639.24,,29,not
screen,html.Screen,2_1_0_1_30,2021-04-30T16:05:25.177Z,,,,,,,,,,,,,,,,,53,,,,,,,,,,,,,,284.75999999999476,,response,,,,99,,,,,,,Space,keypress(Space),,,,,,,,---- -- ----- -- ------ - ------- --- ----------<br>------------- ------ ------ ---- ---- ------- ----- -- ----<br>-------- ------- -- ---------- --- - --- ----- ----- ----<br>---- --- how ----- --- ---- ---- ------- ----- ---- -------<br>--- --- -- ----- -- --- ---- -- --- ---- -- ------ ------<br>--- ----- -- ----,83935,83924,83635.08,83633,83639.24,83939.56,,30,how
screen,html.Screen,2_1_0_1_31,2021-04-30T16:05:25.458Z,,,,,,,,,,,,,,,,,53,,,,,,,,,,,,,,266.4400000000023,,response,,,,99,,,,,,,Space,keypress(Space),,,,,,,,---- -- ----- -- ------ - ------- --- ----------<br>------------- ------ ------ ---- ---- ------- ----- -- ----<br>-------- ------- -- ---------- --- - --- ----- ----- ----<br>---- --- --- close --- ---- ---- ------- ----- ---- -------<br>--- --- -- ----- -- --- ---- -- --- ---- -- ------ ------<br>--- ----- -- ----,84216,84206,83935.38,83935,83939.56,84223.18,,31,close
screen,html.Screen,2_1_0_1_32,2021-04-30T16:05:25.729Z,,,,,,,,,,,,,,,,,53,,,,,,,,,,,,,,248.82000000000698,,response,,,,99,,,,,,,Space,keypress(Space),,,,,,,,---- -- ----- -- ------ - ------- --- ----------<br>------------- ------ ------ ---- ---- ------- ----- -- ----<br>-------- ------- -- ---------- --- - --- ----- ----- ----<br>---- --- --- ----- you ---- ---- ------- ----- ---- -------<br>--- --- -- ----- -- --- ---- -- --- ---- -- ------ ------<br>--- ----- -- ----,84486,84472,84219,84216,84223.18,84490.12,,32,you
screen,html.Screen,2_1_0_1_33,2021-04-30T16:05:25.896Z,,,,,,,,,,,,,,,,,53,,,,,,,,,,,,,,153.88000000000466,,response,,,,99,,,,,,,Space,keypress(Space),,,,,,,,---- -- ----- -- ------ - ------- --- ----------<br>------------- ------ ------ ---- ---- ------- ----- -- ----<br>-------- ------- -- ---------- --- - --- ----- ----- ----<br>---- --- --- ----- --- feel ---- ------- ----- ---- -------<br>--- --- -- ----- -- --- ---- -- --- ---- -- ------ ------<br>--- ----- -- ----,84653,84644,84485.94,84486,84490.12,84661.12,,33,feel
screen,html.Screen,2_1_0_1_34,2021-04-30T16:05:26.017Z,,,,,,,,,,,,,,,,,53,,,,,,,,,,,,,,107.88000000000466,,response,,,,99,,,,,,,Space,keypress(Space),,,,,,,,---- -- ----- -- ------ - ------- --- ----------<br>------------- ------ ------ ---- ---- ------- ----- -- ----<br>-------- ------- -- ---------- --- - --- ----- ----- ----<br>---- --- --- ----- --- ---- that ------- ----- ---- -------<br>--- --- -- ----- -- --- ---- -- --- ---- -- ------ ------<br>--- ----- -- ----,84775,84769,84656.94,84653,84661.12,84782.08,,34,that
screen,html.Screen,2_1_0_1_35,2021-04-30T16:05:26.157Z,,,,,,,,,,,,,,,,,53,,,,,,,,,,,,,,125.91999999999825,,response,,,,99,,,,,,,Space,keypress(Space),,,,,,,,---- -- ----- -- ------ - ------- --- ----------<br>------------- ------ ------ ---- ---- ------- ----- -- ----<br>-------- ------- -- ---------- --- - --- ----- ----- ----<br>---- --- --- ----- --- ---- ---- matters ----- ---- -------<br>--- --- -- ----- -- --- ---- -- --- ---- -- ------ ------<br>--- ----- -- ----,84914,84908,84777.9,84775,84782.08,84919.72,,35,matters
screen,html.Screen,2_1_0_1_36,2021-04-30T16:05:26.745Z,,,,,,,,,,,,,,,,,53,,,,,,,,,,,,,,567.2799999999988,,response,,,,99,,,,,,,Space,keypress(Space),,,,,,,,"---- -- ----- -- ------ - ------- --- ----------<br>------------- ------ ------ ---- ---- ------- ----- -- ----<br>-------- ------- -- ---------- --- - --- ----- ----- ----<br>---- --- --- ----- --- ---- ---- ------- most, ---- -------<br>--- --- -- ----- -- --- ---- -- --- ---- -- ------ ------<br>--- ----- -- ----",85503,85487,84915.54,84914,84919.72,85507.8,,36,"most,"
screen,html.Screen,2_1_0_1_37,2021-04-30T16:05:26.929Z,,,,,,,,,,,,,,,,,53,,,,,,,,,,,,,,166.1999999999971,,response,,,,99,,,,,,,Space,keypress(Space),,,,,,,,---- -- ----- -- ------ - ------- --- ----------<br>------------- ------ ------ ---- ---- ------- ----- -- ----<br>-------- ------- -- ---------- --- - --- ----- ----- ----<br>---- --- --- ----- --- ---- ---- ------- ----- it's -------<br>--- --- -- ----- -- --- ---- -- --- ---- -- ------ ------<br>--- ----- -- ----,85687,85674,85503.64,85503,85507.8,85691.32,,37,it's
screen,html.Screen,2_1_0_1_38,2021-04-30T16:05:27.410Z,,,,,,,,,,,,,,,,,53,,,,,,,,,,,,,,466.679999999993,,response,,,,99,,,,,,,Space,keypress(Space),,,,,,,,---- -- ----- -- ------ - ------- --- ----------<br>------------- ------ ------ ---- ---- ------- ----- -- ----<br>-------- ------- -- ---------- --- - --- ----- ----- ----<br>---- --- --- ----- --- ---- ---- ------- ----- ---- whether<br>--- --- -- ----- -- --- ---- -- --- ---- -- ------ ------<br>--- ----- -- ----,86168,86158,85687.16,85687,85691.32,86175.14,,38,whether
screen,html.Screen,2_1_0_1_39,2021-04-30T16:05:27.735Z,,,,,,,,,,,,,,,,,53,,,,,,,,,,,,,,311.8600000000006,,response,,,,99,,,,,,,Space,keypress(Space),,,,,,,,---- -- ----- -- ------ - ------- --- ----------<br>------------- ------ ------ ---- ---- ------- ----- -- ----<br>-------- ------- -- ---------- --- - --- ----- ----- ----<br>---- --- --- ----- --- ---- ---- ------- ----- ---- -------<br>you --- -- ----- -- --- ---- -- --- ---- -- ------ ------<br>--- ----- -- ----,86492,86487,86170.98,86168,86175.14,86500.48,,39,you
screen,html.Screen,2_1_0_1_40,2021-04-30T16:05:28.126Z,,,,,,,,,,,,,,,,,53,,,,,,,,,,,,,,376.5200000000041,,response,,,,99,,,,,,,Space,keypress(Space),,,,,,,,---- -- ----- -- ------ - ------- --- ----------<br>------------- ------ ------ ---- ---- ------- ----- -- ----<br>-------- ------- -- ---------- --- - --- ----- ----- ----<br>---- --- --- ----- --- ---- ---- ------- ----- ---- -------<br>--- are -- ----- -- --- ---- -- --- ---- -- ------ ------<br>--- ----- -- ----,86884,86877,86496.3,86492,86500.48,86888.38,,40,are
screen,html.Screen,2_1_0_1_41,2021-04-30T16:05:28.521Z,,,,,,,,,,,,,,,,,53,,,,,,,,,,,,,,379.61999999999534,,response,,,,99,,,,,,,Space,keypress(Space),,,,,,,,---- -- ----- -- ------ - ------- --- ----------<br>------------- ------ ------ ---- ---- ------- ----- -- ----<br>-------- ------- -- ---------- --- - --- ----- ----- ----<br>---- --- --- ----- --- ---- ---- ------- ----- ---- -------<br>--- --- as ----- -- --- ---- -- --- ---- -- ------ ------<br>--- ----- -- ----,87278,87268,86884.2,86884,86888.38,87284.6,,41,as
screen,html.Screen,2_1_0_1_42,2021-04-30T16:05:28.762Z,,,,,,,,,,,,,,,,,53,,,,,,,,,,,,,,234.39999999999418,,response,,,,99,,,,,,,Space,keypress(Space),,,,,,,,---- -- ----- -- ------ - ------- --- ----------<br>------------- ------ ------ ---- ---- ------- ----- -- ----<br>-------- ------- -- ---------- --- - --- ----- ----- ----<br>---- --- --- ----- --- ---- ---- ------- ----- ---- -------<br>--- --- -- close -- --- ---- -- --- ---- -- ------ ------<br>--- ----- -- ----,87520,87519,87280.44,87278,87284.6,87526.52,,42,close
screen,html.Screen,2_1_0_1_43,2021-04-30T16:05:29.052Z,,,,,,,,,,,,,,,,,53,,,,,,,,,,,,,,273.4799999999959,,response,,,,99,,,,,,,Space,keypress(Space),,,,,,,,---- -- ----- -- ------ - ------- --- ----------<br>------------- ------ ------ ---- ---- ------- ----- -- ----<br>-------- ------- -- ---------- --- - --- ----- ----- ----<br>---- --- --- ----- --- ---- ---- ------- ----- ---- -------<br>--- --- -- ----- as --- ---- -- --- ---- -- ------ ------<br>--- ----- -- ----,87810,87800,87522.34,87520,87526.52,87814.3,,43,as
screen,html.Screen,2_1_0_1_44,2021-04-30T16:05:29.221Z,,,,,,,,,,,,,,,,,53,,,,,,,,,,,,,,157.6999999999971,,response,,,,99,,,,,,,Space,keypress(Space),,,,,,,,---- -- ----- -- ------ - ------- --- ----------<br>------------- ------ ------ ---- ---- ------- ----- -- ----<br>-------- ------- -- ---------- --- - --- ----- ----- ----<br>---- --- --- ----- --- ---- ---- ------- ----- ---- -------<br>--- --- -- ----- -- you ---- -- --- ---- -- ------ ------<br>--- ----- -- ----,87978,87972,87810.14,87810,87814.3,87985.32,,44,you
screen,html.Screen,2_1_0_1_45,2021-04-30T16:05:29.586Z,,,,,,,,,,,,,,,,,53,,,,,,,,,,,,,,345.679999999993,,response,,,,99,,,,,,,Space,keypress(Space),,,,,,,,---- -- ----- -- ------ - ------- --- ----------<br>------------- ------ ------ ---- ---- ------- ----- -- ----<br>-------- ------- -- ---------- --- - --- ----- ----- ----<br>---- --- --- ----- --- ---- ---- ------- ----- ---- -------<br>--- --- -- ----- -- --- want -- --- ---- -- ------ ------<br>--- ----- -- ----,88343,88331,87981.14,87978,87985.32,88348.18,,45,want
screen,html.Screen,2_1_0_1_46,2021-04-30T16:05:29.812Z,,,,,,,,,,,,,,,,,53,,,,,,,,,,,,,,216.82000000000698,,response,,,,99,,,,,,,Space,keypress(Space),,,,,,,,---- -- ----- -- ------ - ------- --- ----------<br>------------- ------ ------ ---- ---- ------- ----- -- ----<br>-------- ------- -- ---------- --- - --- ----- ----- ----<br>---- --- --- ----- --- ---- ---- ------- ----- ---- -------<br>--- --- -- ----- -- --- ---- to --- ---- -- ------ ------<br>--- ----- -- ----,88570,88565,88344.02,88344,88348.18,88577.58,,46,to
screen,html.Screen,2_1_0_1_47,2021-04-30T16:05:30.054Z,,,,,,,,,,,,,,,,,53,,,,,,,,,,,,,,222.41999999999825,,response,,,,99,,,,,,,Space,keypress(Space),,,,,,,,"---- -- ----- -- ------ - ------- --- ----------<br>------------- ------ ------ ---- ---- ------- ----- -- ----<br>-------- ------- -- ---------- --- - --- ----- ----- ----<br>---- --- --- ----- --- ---- ---- ------- ----- ---- -------<br>--- --- -- ----- -- --- ---- -- be, ---- -- ------ ------<br>--- ----- -- ----",88811,88800,88573.42,88570,88577.58,88819.5,,47,"be,"
screen,html.Screen,2_1_0_1_48,2021-04-30T16:05:30.285Z,,,,,,,,,,,,,,,,,53,,,,,,,,,,,,,,214.5,,response,,,,99,,,,,,,Space,keypress(Space),,,,,,,,---- -- ----- -- ------ - ------- --- ----------<br>------------- ------ ------ ---- ---- ------- ----- -- ----<br>-------- ------- -- ---------- --- - --- ----- ----- ----<br>---- --- --- ----- --- ---- ---- ------- ----- ---- -------<br>--- --- -- ----- -- --- ---- -- --- even -- ------ ------<br>--- ----- -- ----,89042,89034,88815.32,88811,88819.5,89048.9,,48,even
screen,html.Screen,2_1_0_1_49,2021-04-30T16:05:30.577Z,,,,,,,,,,,,,,,,,53,,,,,,,,,,,,,,282.1000000000058,,response,,,,99,,,,,,,Space,keypress(Space),,,,,,,,---- -- ----- -- ------ - ------- --- ----------<br>------------- ------ ------ ---- ---- ------- ----- -- ----<br>-------- ------- -- ---------- --- - --- ----- ----- ----<br>---- --- --- ----- --- ---- ---- ------- ----- ---- -------<br>--- --- -- ----- -- --- ---- -- --- ---- if ------ ------<br>--- ----- -- ----,89335,89331,89044.72,89042,89048.9,89340.94,,49,if
screen,html.Screen,2_1_0_1_50,2021-04-30T16:05:30.922Z,,,,,,,,,,,,,,,,,53,,,,,,,,,,,,,,334.0599999999977,,response,,,,99,,,,,,,Space,keypress(Space),,,,,,,,---- -- ----- -- ------ - ------- --- ----------<br>------------- ------ ------ ---- ---- ------- ----- -- ----<br>-------- ------- -- ---------- --- - --- ----- ----- ----<br>---- --- --- ----- --- ---- ---- ------- ----- ---- -------<br>--- --- -- ----- -- --- ---- -- --- ---- -- that's ------<br>--- ----- -- ----,89678,89675,89336.76,89335,89340.94,89682.96,,50,that's
screen,html.Screen,2_1_0_1_51,2021-04-30T16:05:31.263Z,,,,,,,,,,,,,,,,,53,,,,,,,,,,,,,,335.0399999999936,,response,,,,99,,,,,,,Space,keypress(Space),,,,,,,,---- -- ----- -- ------ - ------- --- ----------<br>------------- ------ ------ ---- ---- ------- ----- -- ----<br>-------- ------- -- ---------- --- - --- ----- ----- ----<br>---- --- --- ----- --- ---- ---- ------- ----- ---- -------<br>--- --- -- ----- -- --- ---- -- --- ---- -- ------ really<br>--- ----- -- ----,90020,90018,89678.78,89678,89682.96,90024.96,,51,really
screen,html.Screen,2_1_0_1_52,2021-04-30T16:05:31.585Z,,,,,,,,,,,,,,,,,53,,,,,,,,,,,,,,306.0399999999936,,response,,,,99,,,,,,,Space,keypress(Space),,,,,,,,---- -- ----- -- ------ - ------- --- ----------<br>------------- ------ ------ ---- ---- ------- ----- -- ----<br>-------- ------- -- ---------- --- - --- ----- ----- ----<br>---- --- --- ----- --- ---- ---- ------- ----- ---- -------<br>--- --- -- ----- -- --- ---- -- --- ---- -- ------ ------<br>not ----- -- ----,90343,90331,90020.8,90020,90024.96,90350.3,,52,not
screen,html.Screen,2_1_0_1_53,2021-04-30T16:05:31.790Z,,,,,,,,,,,,,,,,,53,,,,,,,,,,,,,,183.6999999999971,,response,,,,99,,,,,,,Space,keypress(Space),,,,,,,,---- -- ----- -- ------ - ------- --- ----------<br>------------- ------ ------ ---- ---- ------- ----- -- ----<br>-------- ------- -- ---------- --- - --- ----- ----- ----<br>---- --- --- ----- --- ---- ---- ------- ----- ---- -------<br>--- --- -- ----- -- --- ---- -- --- ---- -- ------ ------<br>--- close -- ----,90547,90534,90346.12,90343,90350.3,90554.66,,53,close
screen,html.Screen,2_1_0_1_54,2021-04-30T16:05:32.057Z,,,,,,,,,,,,,,,,,53,,,,,,,,,,,,,,244.3399999999965,,response,,,,99,,,,,,,Space,keypress(Space),,,,,,,,---- -- ----- -- ------ - ------- --- ----------<br>------------- ------ ------ ---- ---- ------- ----- -- ----<br>-------- ------- -- ---------- --- - --- ----- ----- ----<br>---- --- --- ----- --- ---- ---- ------- ----- ---- -------<br>--- --- -- ----- -- --- ---- -- --- ---- -- ------ ------<br>--- ----- at ----,90813,90799,90550.5,90547,90554.66,90821.6,,54,at
screen,html.Screen,2_1_0_1_55,2021-04-30T16:05:32.354Z,,,,,,,,,,,,,,,,,53,,,,,,,,,,,,,,274.3999999999942,,response,,,,99,,,,,,,Space,keypress(Space),,,,,,,,---- -- ----- -- ------ - ------- --- ----------<br>------------- ------ ------ ---- ---- ------- ----- -- ----<br>-------- ------- -- ---------- --- - --- ----- ----- ----<br>---- --- --- ----- --- ---- ---- ------- ----- ---- -------<br>--- --- -- ----- -- --- ---- -- --- ---- -- ------ ------<br>--- ----- -- all.,91112,91096,90817.44,90813,90821.6,91117.74,,55,all.
Item 99,flow.Loop,2_1_0_1,2021-04-30T16:05:32.355Z,,,,,,,,,,,,,,,,,,,,,,,,,,,,,,,18694.479999999996,,completion,,,,,C,,,,,,,,,,,silence,,,,,91112,91096,72397.34,72400,72401.52,91117.74,,,
Question 1,html.Screen,2_1_0_2,2021-04-30T16:05:40.393Z,,,,,,,,,,,,,,,,,,,,,,,,,,,,true,FALSE,,8026.259999999995,,response,,,,99,C,,,,,,FALSE,click #choice-2,,,,silence,,,,,99149,99144,91113.56,91112,91117.74,99154.96,,,
Question 2,html.Screen,2_1_0_3,2021-04-30T16:05:43.811Z,,,,,,,,,,,,,,,,,,,,,,,,,,,,true,TRUE,,3409.0399999999936,,response,,,,99,C,,,,,,TRUE,click #choice-1,,,,silence,,,,,102569,102564,99150.8,99149,99154.96,102575.1,,,
Item 99,flow.Sequence,2_1_0,2021-04-30T16:05:43.812Z,,,,,,,,,,,,,,,,,,,,,,,,,,,,,,,40163.1,,completion,,,,,,,,,,,,,,,,,,,,,102569,102564,62396.72,62398,62400.9,102575.1,,,
Holding screen,html.Screen,2_1_1_0,2021-04-30T16:05:53.816Z,,,,,,,,,,,,,,,,,,,,,,,,,,,,,,,10001.939999999988,,timeout,,,,,,,,,,,,,,,,,,,,,112573,112572.88,102570.92,102569,102575.1,112577.04,,,
screen,html.Screen,2_1_1_1_0,2021-04-30T16:05:54.565Z,,,,,,,,,,,,,,,,,54,,,,,,,,,,,,,,736.9600000000064,,response,,,,100,,,,,,,Space,keypress(Space),,,,,,,,At --- ---- --- ------ ----- ------- ---- -- --- ------- --<br>------- ---------- ------ -- ----- -- ----- -- ---- ------<br>--- ----- --- --- ------ -------- ----- --- ------ ----- --<br>----- ----- ---------- --- --- ------ ------ ---- -- ------<br>------- --- ------ ----- --- ---- ------- -- ---- --- --<br>------- ------,113321,113314,112572.88,112573,112577.04,113327.8,,0,At
screen,html.Screen,2_1_1_1_1,2021-04-30T16:05:54.812Z,,,,,,,,,,,,,,,,,54,,,,,,,,,,,,,,237.1999999999971,,response,,,,100,,,,,,,Space,keypress(Space),,,,,,,,-- the ---- --- ------ ----- ------- ---- -- --- ------- --<br>------- ---------- ------ -- ----- -- ----- -- ---- ------<br>--- ----- --- --- ------ -------- ----- --- ------ ----- --<br>----- ----- ---------- --- --- ------ ------ ---- -- ------<br>------- --- ------ ----- --- ---- ------- -- ---- --- --<br>------- ------,113569,113565,113323.64,113321,113327.8,113573.9,,1,the
screen,html.Screen,2_1_1_1_2,2021-04-30T16:05:55.019Z,,,,,,,,,,,,,,,,,54,,,,,,,,,,,,,,195.10000000000582,,response,,,,100,,,,,,,Space,keypress(Space),,,,,,,,-- --- time --- ------ ----- ------- ---- -- --- ------- --<br>------- ---------- ------ -- ----- -- ----- -- ---- ------<br>--- ----- --- --- ------ -------- ----- --- ------ ----- --<br>----- ----- ---------- --- --- ------ ------ ---- -- ------<br>------- --- ------ ----- --- ---- ------- -- ---- --- --<br>------- ------,113776,113769,113569.72,113569,113573.9,113782.44,,2,time
screen,html.Screen,2_1_1_1_3,2021-04-30T16:05:55.211Z,,,,,,,,,,,,,,,,,54,,,,,,,,,,,,,,172.55999999999767,,response,,,,100,,,,,,,Space,keypress(Space),,,,,,,,-- --- ---- the ------ ----- ------- ---- -- --- ------- --<br>------- ---------- ------ -- ----- -- ----- -- ---- ------<br>--- ----- --- --- ------ -------- ----- --- ------ ----- --<br>----- ----- ---------- --- --- ------ ------ ---- -- ------<br>------- --- ------ ----- --- ---- ------- -- ---- --- --<br>------- ------,113968,113955,113778.26,113776,113782.44,113974.3,,3,the
screen,html.Screen,2_1_1_1_4,2021-04-30T16:05:55.425Z,,,,,,,,,,,,,,,,,54,,,,,,,,,,,,,,200.6999999999971,,response,,,,100,,,,,,,Space,keypress(Space),,,,,,,,-- --- ---- --- French ----- ------- ---- -- --- ------- --<br>------- ---------- ------ -- ----- -- ----- -- ---- ------<br>--- ----- --- --- ------ -------- ----- --- ------ ----- --<br>----- ----- ---------- --- --- ------ ------ ---- -- ------<br>------- --- ------ ----- --- ---- ------- -- ---- --- --<br>------- ------,114183,114175,113970.12,113968,113974.3,114187.02,,4,French
screen,html.Screen,2_1_1_1_5,2021-04-30T16:05:55.660Z,,,,,,,,,,,,,,,,,54,,,,,,,,,,,,,,221.97999999999593,,response,,,,100,,,,,,,Space,keypress(Space),,,,,,,,-- --- ---- --- ------ crown ------- ---- -- --- ------- --<br>------- ---------- ------ -- ----- -- ----- -- ---- ------<br>--- ----- --- --- ------ -------- ----- --- ------ ----- --<br>----- ----- ---------- --- --- ------ ------ ---- -- ------<br>------- --- ------ ----- --- ---- ------- -- ---- --- --<br>------- ------,114418,114409,114182.84,114183,114187.02,114424.76,,5,crown
screen,html.Screen,2_1_1_1_6,2021-04-30T16:05:55.856Z,,,,,,,,,,,,,,,,,54,,,,,,,,,,,,,,187.24000000000524,,response,,,,100,,,,,,,Space,keypress(Space),,,,,,,,-- --- ---- --- ------ ----- secured ---- -- --- ------- --<br>------- ---------- ------ -- ----- -- ----- -- ---- ------<br>--- ----- --- --- ------ -------- ----- --- ------ ----- --<br>----- ----- ---------- --- --- ------ ------ ---- -- ------<br>------- --- ------ ----- --- ---- ------- -- ---- --- --<br>------- ------,114614,114612,114420.58,114418,114424.76,114620.78,,6,secured
screen,html.Screen,2_1_1_1_7,2021-04-30T16:05:56.389Z,,,,,,,,,,,,,,,,,54,,,,,,,,,,,,,,522.2200000000012,,response,,,,100,,,,,,,Space,keypress(Space),,,,,,,,-- --- ---- --- ------ ----- ------- much -- --- ------- --<br>------- ---------- ------ -- ----- -- ----- -- ---- ------<br>--- ----- --- --- ------ -------- ----- --- ------ ----- --<br>----- ----- ---------- --- --- ------ ------ ---- -- ------<br>------- --- ------ ----- --- ---- ------- -- ---- --- --<br>------- ------,115146,115143,114616.62,114614,114620.78,115152.86,,7,much
screen,html.Screen,2_1_1_1_8,2021-04-30T16:05:56.541Z,,,,,,,,,,,,,,,,,54,,,,,,,,,,,,,,131.13999999999942,,response,,,,100,,,,,,,Space,keypress(Space),,,,,,,,-- --- ---- --- ------ ----- ------- ---- of --- ------- --<br>------- ---------- ------ -- ----- -- ----- -- ---- ------<br>--- ----- --- --- ------ -------- ----- --- ------ ----- --<br>----- ----- ---------- --- --- ------ ------ ---- -- ------<br>------- --- ------ ----- --- ---- ------- -- ---- --- --<br>------- ------,115297,115284,115148.68,115146,115152.86,115303,,8,of
screen,html.Screen,2_1_1_1_9,2021-04-30T16:05:56.892Z,,,,,,,,,,,,,,,,,54,,,,,,,,,,,,,,341,,response,,,,100,,,,,,,Space,keypress(Space),,,,,,,,-- --- ---- --- ------ ----- ------- ---- -- its ------- --<br>------- ---------- ------ -- ----- -- ----- -- ---- ------<br>--- ----- --- --- ------ -------- ----- --- ------ ----- --<br>----- ----- ---------- --- --- ------ ------ ---- -- ------<br>------- --- ------ ----- --- ---- ------- -- ---- --- --<br>------- ------,115649,115644,115298.84,115297,115303,115655.22,,9,its
screen,html.Screen,2_1_1_1_10,2021-04-30T16:05:57.103Z,,,,,,,,,,,,,,,,,54,,,,,,,,,,,,,,190.77999999999884,,response,,,,100,,,,,,,Space,keypress(Space),,,,,,,,-- --- ---- --- ------ ----- ------- ---- -- --- revenue --<br>------- ---------- ------ -- ----- -- ----- -- ---- ------<br>--- ----- --- --- ------ -------- ----- --- ------ ----- --<br>----- ----- ---------- --- --- ------ ------ ---- -- ------<br>------- --- ------ ----- --- ---- ------- -- ---- --- --<br>------- ------,115860,115846,115651.04,115649,115655.22,115867.94,,10,revenue
screen,html.Screen,2_1_1_1_11,2021-04-30T16:05:57.358Z,,,,,,,,,,,,,,,,,54,,,,,,,,,,,,,,243.05999999999767,,response,,,,100,,,,,,,Space,keypress(Space),,,,,,,,-- --- ---- --- ------ ----- ------- ---- -- --- ------- by<br>------- ---------- ------ -- ----- -- ----- -- ---- ------<br>--- ----- --- --- ------ -------- ----- --- ------ ----- --<br>----- ----- ---------- --- --- ------ ------ ---- -- ------<br>------- --- ------ ----- --- ---- ------- -- ---- --- --<br>------- ------,116115,116111,115863.76,115861,115867.94,116122.36,,11,by
screen,html.Screen,2_1_1_1_12,2021-04-30T16:05:57.681Z,,,,,,,,,,,,,,,,,54,,,,,,,,,,,,,,301.6399999999994,,response,,,,100,,,,,,,Space,keypress(Space),,,,,,,,-- --- ---- --- ------ ----- ------- ---- -- --- ------- --<br>issuing ---------- ------ -- ----- -- ----- -- ---- ------<br>--- ----- --- --- ------ -------- ----- --- ------ ----- --<br>----- ----- ---------- --- --- ------ ------ ---- -- ------<br>------- --- ------ ----- --- ---- ------- -- ---- --- --<br>------- ------,116438,116424,116118.18,116115,116122.36,116443.52,,12,issuing
screen,html.Screen,2_1_1_1_13,2021-04-30T16:05:57.903Z,,,,,,,,,,,,,,,,,54,,,,,,,,,,,,,,199.47999999999593,,response,,,,100,,,,,,,Space,keypress(Space),,,,,,,,-- --- ---- --- ------ ----- ------- ---- -- --- ------- --<br>------- government ------ -- ----- -- ----- -- ---- ------<br>--- ----- --- --- ------ -------- ----- --- ------ ----- --<br>----- ----- ---------- --- --- ------ ------ ---- -- ------<br>------- --- ------ ----- --- ---- ------- -- ---- --- --<br>------- ------,116660,116643,116439.34,116438,116443.52,116664.58,,13,government
screen,html.Screen,2_1_1_1_14,2021-04-30T16:05:58.113Z,,,,,,,,,,,,,,,,,54,,,,,,,,,,,,,,196.41999999999825,,response,,,,100,,,,,,,Space,keypress(Space),,,,,,,,-- --- ---- --- ------ ----- ------- ---- -- --- ------- --<br>------- ---------- bonds. -- ----- -- ----- -- ---- ------<br>--- ----- --- --- ------ -------- ----- --- ------ ----- --<br>----- ----- ---------- --- --- ------ ------ ---- -- ------<br>------- --- ------ ----- --- ---- ------- -- ---- --- --<br>------- ------,116869,116861,116660.4,116660,116664.58,116877.28,,14,bonds.
screen,html.Screen,2_1_1_1_15,2021-04-30T16:05:58.460Z,,,,,,,,,,,,,,,,,54,,,,,,,,,,,,,,328.72000000000116,,response,,,,100,,,,,,,Space,keypress(Space),,,,,,,,-- --- ---- --- ------ ----- ------- ---- -- --- ------- --<br>------- ---------- ------ In ----- -- ----- -- ---- ------<br>--- ----- --- --- ------ -------- ----- --- ------ ----- --<br>----- ----- ---------- --- --- ------ ------ ---- -- ------<br>------- --- ------ ----- --- ---- ------- -- ---- --- --<br>------- ------,117217,117206,116873.12,116869,116877.28,117223.46,,15,In
screen,html.Screen,2_1_1_1_16,2021-04-30T16:05:58.749Z,,,,,,,,,,,,,,,,,54,,,,,,,,,,,,,,279.5399999999936,,response,,,,100,,,,,,,Space,keypress(Space),,,,,,,,"-- --- ---- --- ------ ----- ------- ---- -- --- ------- --<br>------- ---------- ------ -- 1727, -- ----- -- ---- ------<br>--- ----- --- --- ------ -------- ----- --- ------ ----- --<br>----- ----- ---------- --- --- ------ ------ ---- -- ------<br>------- --- ------ ----- --- ---- ------- -- ---- --- --<br>------- ------",117505,117503,117219.3,117217,117223.46,117511.26,,16,"1727,"
screen,html.Screen,2_1_1_1_17,2021-04-30T16:05:59.008Z,,,,,,,,,,,,,,,,,54,,,,,,,,,,,,,,241.74000000000524,,response,,,,100,,,,,,,Space,keypress(Space),,,,,,,,-- --- ---- --- ------ ----- ------- ---- -- --- ------- --<br>------- ---------- ------ -- ----- in ----- -- ---- ------<br>--- ----- --- --- ------ -------- ----- --- ------ ----- --<br>----- ----- ---------- --- --- ------ ------ ---- -- ------<br>------- --- ------ ----- --- ---- ------- -- ---- --- --<br>------- ------,117765,117753,117507.08,117505,117511.26,117769.86,,17,in
screen,html.Screen,2_1_1_1_18,2021-04-30T16:05:59.233Z,,,,,,,,,,,,,,,,,54,,,,,,,,,,,,,,217.13999999999942,,response,,,,100,,,,,,,Space,keypress(Space),,,,,,,,-- --- ---- --- ------ ----- ------- ---- -- --- ------- --<br>------- ---------- ------ -- ----- -- order -- ---- ------<br>--- ----- --- --- ------ -------- ----- --- ------ ----- --<br>----- ----- ---------- --- --- ------ ------ ---- -- ------<br>------- --- ------ ----- --- ---- ------- -- ---- --- --<br>------- ------,117989,117987,117765.68,117765,117769.86,117995.08,,18,order
screen,html.Screen,2_1_1_1_19,2021-04-30T16:05:59.490Z,,,,,,,,,,,,,,,,,54,,,,,,,,,,,,,,241.91999999999825,,response,,,,100,,,,,,,Space,keypress(Space),,,,,,,,-- --- ---- --- ------ ----- ------- ---- -- --- ------- --<br>------- ---------- ------ -- ----- -- ----- to ---- ------<br>--- ----- --- --- ------ -------- ----- --- ------ ----- --<br>----- ----- ---------- --- --- ------ ------ ---- -- ------<br>------- --- ------ ----- --- ---- ------- -- ---- --- --<br>------- ------,118247,118237,117990.92,117989,117995.08,118253.68,,19,to
screen,html.Screen,2_1_1_1_20,2021-04-30T16:05:59.722Z,,,,,,,,,,,,,,,,,54,,,,,,,,,,,,,,217.32000000000698,,response,,,,100,,,,,,,Space,keypress(Space),,,,,,,,-- --- ---- --- ------ ----- ------- ---- -- --- ------- --<br>------- ---------- ------ -- ----- -- ----- -- save ------<br>--- ----- --- --- ------ -------- ----- --- ------ ----- --<br>----- ----- ---------- --- --- ------ ------ ---- -- ------<br>------- --- ------ ----- --- ---- ------- -- ---- --- --<br>------- ------,118478,118471,118249.5,118247,118253.68,118483.08,,20,save
screen,html.Screen,2_1_1_1_21,2021-04-30T16:05:59.943Z,,,,,,,,,,,,,,,,,54,,,,,,,,,,,,,,205.91999999999825,,response,,,,100,,,,,,,Space,keypress(Space),,,,,,,,"-- --- ---- --- ------ ----- ------- ---- -- --- ------- --<br>------- ---------- ------ -- ----- -- ----- -- ---- money,<br>--- ----- --- --- ------ -------- ----- --- ------ ----- --<br>----- ----- ---------- --- --- ------ ------ ---- -- ------<br>------- --- ------ ----- --- ---- ------- -- ---- --- --<br>------- ------",118700,118689,118478.9,118479,118483.08,118704.14,,21,"money,"
screen,html.Screen,2_1_1_1_22,2021-04-30T16:06:00.165Z,,,,,,,,,,,,,,,,,54,,,,,,,,,,,,,,203.86000000000058,,response,,,,100,,,,,,,Space,keypress(Space),,,,,,,,-- --- ---- --- ------ ----- ------- ---- -- --- ------- --<br>------- ---------- ------ -- ----- -- ----- -- ---- ------<br>the ----- --- --- ------ -------- ----- --- ------ ----- --<br>----- ----- ---------- --- --- ------ ------ ---- -- ------<br>------- --- ------ ----- --- ---- ------- -- ---- --- --<br>------- ------,118921,118908,118699.96,118700,118704.14,118929.36,,22,the
screen,html.Screen,2_1_1_1_23,2021-04-30T16:06:00.627Z,,,,,,,,,,,,,,,,,54,,,,,,,,,,,,,,448.6399999999994,,response,,,,100,,,,,,,Space,keypress(Space),,,,,,,,-- --- ---- --- ------ ----- ------- ---- -- --- ------- --<br>------- ---------- ------ -- ----- -- ----- -- ---- ------<br>--- state --- --- ------ -------- ----- --- ------ ----- --<br>----- ----- ---------- --- --- ------ ------ ---- -- ------<br>------- --- ------ ----- --- ---- ------- -- ---- --- --<br>------- ------,119385,119378,118925.2,118921,118929.36,119392.34,,23,state
screen,html.Screen,2_1_1_1_24,2021-04-30T16:06:00.841Z,,,,,,,,,,,,,,,,,54,,,,,,,,,,,,,,188.6600000000035,,response,,,,100,,,,,,,Space,keypress(Space),,,,,,,,-- --- ---- --- ------ ----- ------- ---- -- --- ------- --<br>------- ---------- ------ -- ----- -- ----- -- ---- ------<br>--- ----- cut --- ------ -------- ----- --- ------ ----- --<br>----- ----- ---------- --- --- ------ ------ ---- -- ------<br>------- --- ------ ----- --- ---- ------- -- ---- --- --<br>------- ------,119597,119581,119388.16,119385,119392.34,119605.04,,24,cut
screen,html.Screen,2_1_1_1_25,2021-04-30T16:06:01.051Z,,,,,,,,,,,,,,,,,54,,,,,,,,,,,,,,194.9600000000064,,response,,,,100,,,,,,,Space,keypress(Space),,,,,,,,-- --- ---- --- ------ ----- ------- ---- -- --- ------- --<br>------- ---------- ------ -- ----- -- ----- -- ---- ------<br>--- ----- --- the ------ -------- ----- --- ------ ----- --<br>----- ----- ---------- --- --- ------ ------ ---- -- ------<br>------- --- ------ ----- --- ---- ------- -- ---- --- --<br>------- ------,119809,119800,119600.88,119598,119605.04,119813.6,,25,the
screen,html.Screen,2_1_1_1_26,2021-04-30T16:06:01.260Z,,,,,,,,,,,,,,,,,54,,,,,,,,,,,,,,188.39999999999418,,response,,,,100,,,,,,,Space,keypress(Space),,,,,,,,-- --- ---- --- ------ ----- ------- ---- -- --- ------- --<br>------- ---------- ------ -- ----- -- ----- -- ---- ------<br>--- ----- --- --- bonds' -------- ----- --- ------ ----- --<br>----- ----- ---------- --- --- ------ ------ ---- -- ------<br>------- --- ------ ----- --- ---- ------- -- ---- --- --<br>------- ------,120016,120002,119809.42,119809,119813.6,120022.14,,26,bonds'
screen,html.Screen,2_1_1_1_27,2021-04-30T16:06:01.444Z,,,,,,,,,,,,,,,,,54,,,,,,,,,,,,,,167.86000000000058,,response,,,,100,,,,,,,Space,keypress(Space),,,,,,,,-- --- ---- --- ------ ----- ------- ---- -- --- ------- --<br>------- ---------- ------ -- ----- -- ----- -- ---- ------<br>--- ----- --- --- ------ interest ----- --- ------ ----- --<br>----- ----- ---------- --- --- ------ ------ ---- -- ------<br>------- --- ------ ----- --- ---- ------- -- ---- --- --<br>------- ------,120201,120190,120017.96,120016,120022.14,120205.66,,27,interest
screen,html.Screen,2_1_1_1_28,2021-04-30T16:06:01.802Z,,,,,,,,,,,,,,,,,54,,,,,,,,,,,,,,343.3399999999965,,response,,,,100,,,,,,,Space,keypress(Space),,,,,,,,-- --- ---- --- ------ ----- ------- ---- -- --- ------- --<br>------- ---------- ------ -- ----- -- ----- -- ---- ------<br>--- ----- --- --- ------ -------- rate. --- ------ ----- --<br>----- ----- ---------- --- --- ------ ------ ---- -- ------<br>------- --- ------ ----- --- ---- ------- -- ---- --- --<br>------- ------,120558,120549,120201.48,120202,120205.66,120564.36,,28,rate.
screen,html.Screen,2_1_1_1_29,2021-04-30T16:06:02.000Z,,,,,,,,,,,,,,,,,54,,,,,,,,,,,,,,188.63999999999942,,response,,,,100,,,,,,,Space,keypress(Space),,,,,,,,-- --- ---- --- ------ ----- ------- ---- -- --- ------- --<br>------- ---------- ------ -- ----- -- ----- -- ---- ------<br>--- ----- --- --- ------ -------- ----- The ------ ----- --<br>----- ----- ---------- --- --- ------ ------ ---- -- ------<br>------- --- ------ ----- --- ---- ------- -- ---- --- --<br>------- ------,120757,120753,120560.18,120558,120564.36,120764.56,,29,The
screen,html.Screen,2_1_1_1_30,2021-04-30T16:06:02.234Z,,,,,,,,,,,,,,,,,54,,,,,,,,,,,,,,221.44000000000233,,response,,,,100,,,,,,,Space,keypress(Space),,,,,,,,-- --- ---- --- ------ ----- ------- ---- -- --- ------- --<br>------- ---------- ------ -- ----- -- ----- -- ---- ------<br>--- ----- --- --- ------ -------- ----- --- market ----- --<br>----- ----- ---------- --- --- ------ ------ ---- -- ------<br>------- --- ------ ----- --- ---- ------- -- ---- --- --<br>------- ------,120991,120986,120760.38,120757,120764.56,120998.12,,30,market
screen,html.Screen,2_1_1_1_31,2021-04-30T16:06:02.441Z,,,,,,,,,,,,,,,,,54,,,,,,,,,,,,,,190.88000000000466,,response,,,,100,,,,,,,Space,keypress(Space),,,,,,,,-- --- ---- --- ------ ----- ------- ---- -- --- ------- --<br>------- ---------- ------ -- ----- -- ----- -- ---- ------<br>--- ----- --- --- ------ -------- ----- --- ------ value --<br>----- ----- ---------- --- --- ------ ------ ---- -- ------<br>------- --- ------ ----- --- ---- ------- -- ---- --- --<br>------- ------,121198,121189,120993.96,120991,120998.12,121206.66,,31,value
screen,html.Screen,2_1_1_1_32,2021-04-30T16:06:02.724Z,,,,,,,,,,,,,,,,,54,,,,,,,,,,,,,,265.3399999999965,,response,,,,100,,,,,,,Space,keypress(Space),,,,,,,,-- --- ---- --- ------ ----- ------- ---- -- --- ------- --<br>------- ---------- ------ -- ----- -- ----- -- ---- ------<br>--- ----- --- --- ------ -------- ----- --- ------ ----- of<br>----- ----- ---------- --- --- ------ ------ ---- -- ------<br>------- --- ------ ----- --- ---- ------- -- ---- --- --<br>------- ------,121481,121472,121202.5,121198,121206.66,121486.12,,32,of
screen,html.Screen,2_1_1_1_33,2021-04-30T16:06:02.993Z,,,,,,,,,,,,,,,,,54,,,,,,,,,,,,,,250.88000000000466,,response,,,,100,,,,,,,Space,keypress(Space),,,,,,,,-- --- ---- --- ------ ----- ------- ---- -- --- ------- --<br>------- ---------- ------ -- ----- -- ----- -- ---- ------<br>--- ----- --- --- ------ -------- ----- --- ------ ----- --<br>these ----- ---------- --- --- ------ ------ ---- -- ------<br>------- --- ------ ----- --- ---- ------- -- ---- --- --<br>------- ------,121750,121737,121481.94,121481,121486.12,121757.22,,33,these
screen,html.Screen,2_1_1_1_34,2021-04-30T16:06:03.259Z,,,,,,,,,,,,,,,,,54,,,,,,,,,,,,,,245.77999999999884,,response,,,,100,,,,,,,Space,keypress(Space),,,,,,,,-- --- ---- --- ------ ----- ------- ---- -- --- ------- --<br>------- ---------- ------ -- ----- -- ----- -- ---- ------<br>--- ----- --- --- ------ -------- ----- --- ------ ----- --<br>----- bonds ---------- --- --- ------ ------ ---- -- ------<br>------- --- ------ ----- --- ---- ------- -- ---- --- --<br>------- ------,122017,122003,121753.06,121750,121757.22,122024.16,,34,bonds
screen,html.Screen,2_1_1_1_35,2021-04-30T16:06:03.482Z,,,,,,,,,,,,,,,,,54,,,,,,,,,,,,,,212.8399999999965,,response,,,,100,,,,,,,Space,keypress(Space),,,,,,,,"-- --- ---- --- ------ ----- ------- ---- -- --- ------- --<br>------- ---------- ------ -- ----- -- ----- -- ---- ------<br>--- ----- --- --- ------ -------- ----- --- ------ ----- --<br>----- ----- plummeted, --- --- ------ ------ ---- -- ------<br>------- --- ------ ----- --- ---- ------- -- ---- --- --<br>------- ------",122239,122237,122020,122017,122024.16,122245.22,,35,"plummeted,"
screen,html.Screen,2_1_1_1_36,2021-04-30T16:06:03.706Z,,,,,,,,,,,,,,,,,54,,,,,,,,,,,,,,210.77999999999884,,response,,,,100,,,,,,,Space,keypress(Space),,,,,,,,-- --- ---- --- ------ ----- ------- ---- -- --- ------- --<br>------- ---------- ------ -- ----- -- ----- -- ---- ------<br>--- ----- --- --- ------ -------- ----- --- ------ ----- --<br>----- ----- ---------- and --- ------ ------ ---- -- ------<br>------- --- ------ ----- --- ---- ------- -- ---- --- --<br>------- ------,122463,122456,122241.04,122239,122245.22,122470.44,,36,and
screen,html.Screen,2_1_1_1_37,2021-04-30T16:06:04.021Z,,,,,,,,,,,,,,,,,54,,,,,,,,,,,,,,298.5599999999977,,response,,,,100,,,,,,,Space,keypress(Space),,,,,,,,-- --- ---- --- ------ ----- ------- ---- -- --- ------- --<br>------- ---------- ------ -- ----- -- ----- -- ---- ------<br>--- ----- --- --- ------ -------- ----- --- ------ ----- --<br>----- ----- ---------- --- the ------ ------ ---- -- ------<br>------- --- ------ ----- --- ---- ------- -- ---- --- --<br>------- ------,122777,122769,122466.28,122463,122470.44,122781.94,,37,the
screen,html.Screen,2_1_1_1_38,2021-04-30T16:06:04.287Z,,,,,,,,,,,,,,,,,54,,,,,,,,,,,,,,251.05999999999767,,response,,,,100,,,,,,,Space,keypress(Space),,,,,,,,-- --- ---- --- ------ ----- ------- ---- -- --- ------- --<br>------- ---------- ------ -- ----- -- ----- -- ---- ------<br>--- ----- --- --- ------ -------- ----- --- ------ ----- --<br>----- ----- ---------- --- --- market ------ ---- -- ------<br>------- --- ------ ----- --- ---- ------- -- ---- --- --<br>------- ------,123044,123033,122777.76,122777,122781.94,123048.88,,38,market
screen,html.Screen,2_1_1_1_39,2021-04-30T16:06:04.505Z,,,,,,,,,,,,,,,,,54,,,,,,,,,,,,,,204.11999999999534,,response,,,,100,,,,,,,Space,keypress(Space),,,,,,,,-- --- ---- --- ------ ----- ------- ---- -- --- ------- --<br>------- ---------- ------ -- ----- -- ----- -- ---- ------<br>--- ----- --- --- ------ -------- ----- --- ------ ----- --<br>----- ----- ---------- --- --- ------ became ---- -- ------<br>------- --- ------ ----- --- ---- ------- -- ---- --- --<br>------- ------,123262,123253,123044.7,123044,123048.88,123265.76,,39,became
screen,html.Screen,2_1_1_1_40,2021-04-30T16:06:04.677Z,,,,,,,,,,,,,,,,,54,,,,,,,,,,,,,,159.24000000000524,,response,,,,100,,,,,,,Space,keypress(Space),,,,,,,,-- --- ---- --- ------ ----- ------- ---- -- --- ------- --<br>------- ---------- ------ -- ----- -- ----- -- ---- ------<br>--- ----- --- --- ------ -------- ----- --- ------ ----- --<br>----- ----- ---------- --- --- ------ ------ wary -- ------<br>------- --- ------ ----- --- ---- ------- -- ---- --- --<br>------- ------,123433,123425,123261.6,123262,123265.76,123440.94,,40,wary
screen,html.Screen,2_1_1_1_41,2021-04-30T16:06:05.011Z,,,,,,,,,,,,,,,,,54,,,,,,,,,,,,,,312.0599999999977,,response,,,,100,,,,,,,Space,keypress(Space),,,,,,,,-- --- ---- --- ------ ----- ------- ---- -- --- ------- --<br>------- ---------- ------ -- ----- -- ----- -- ---- ------<br>--- ----- --- --- ------ -------- ----- --- ------ ----- --<br>----- ----- ---------- --- --- ------ ------ ---- of ------<br>------- --- ------ ----- --- ---- ------- -- ---- --- --<br>------- ------,123768,123753,123436.76,123433,123440.94,123774.6,,41,of
screen,html.Screen,2_1_1_1_42,2021-04-30T16:06:05.503Z,,,,,,,,,,,,,,,,,54,,,,,,,,,,,,,,478.3999999999942,,response,,,,100,,,,,,,Space,keypress(Space),,,,,,,,-- --- ---- --- ------ ----- ------- ---- -- --- ------- --<br>------- ---------- ------ -- ----- -- ----- -- ---- ------<br>--- ----- --- --- ------ -------- ----- --- ------ ----- --<br>----- ----- ---------- --- --- ------ ------ ---- -- French<br>------- --- ------ ----- --- ---- ------- -- ---- --- --<br>------- ------,124261,124253,123770.44,123768,123774.6,124268.12,,42,French
screen,html.Screen,2_1_1_1_43,2021-04-30T16:06:05.724Z,,,,,,,,,,,,,,,,,54,,,,,,,,,,,,,,202.88000000000466,,response,,,,100,,,,,,,Space,keypress(Space),,,,,,,,-- --- ---- --- ------ ----- ------- ---- -- --- ------- --<br>------- ---------- ------ -- ----- -- ----- -- ---- ------<br>--- ----- --- --- ------ -------- ----- --- ------ ----- --<br>----- ----- ---------- --- --- ------ ------ ---- -- ------<br>credit. --- ------ ----- --- ---- ------- -- ---- --- --<br>------- ------,124482,124471,124263.94,124261,124268.12,124489.18,,43,credit.
screen,html.Screen,2_1_1_1_44,2021-04-30T16:06:06.216Z,,,,,,,,,,,,,,,,,54,,,,,,,,,,,,,,482.820000000007,,response,,,,100,,,,,,,Space,keypress(Space),,,,,,,,-- --- ---- --- ------ ----- ------- ---- -- --- ------- --<br>------- ---------- ------ -- ----- -- ----- -- ---- ------<br>--- ----- --- --- ------ -------- ----- --- ------ ----- --<br>----- ----- ---------- --- --- ------ ------ ---- -- ------<br>------- The ------ ----- --- ---- ------- -- ---- --- --<br>------- ------,124972,124972,124485,124482,124489.18,124977.18,,44,The
screen,html.Screen,2_1_1_1_45,2021-04-30T16:06:06.633Z,,,,,,,,,,,,,,,,,54,,,,,,,,,,,,,,400.820000000007,,response,,,,100,,,,,,,Space,keypress(Space),,,,,,,,-- --- ---- --- ------ ----- ------- ---- -- --- ------- --<br>------- ---------- ------ -- ----- -- ----- -- ---- ------<br>--- ----- --- --- ------ -------- ----- --- ------ ----- --<br>----- ----- ---------- --- --- ------ ------ ---- -- ------<br>------- --- French ----- --- ---- ------- -- ---- --- --<br>------- ------,125390,125378,124973,124972,124977.18,125398.44,,45,French
screen,html.Screen,2_1_1_1_46,2021-04-30T16:06:06.907Z,,,,,,,,,,,,,,,,,54,,,,,,,,,,,,,,260.5599999999977,,response,,,,100,,,,,,,Space,keypress(Space),,,,,,,,-- --- ---- --- ------ ----- ------- ---- -- --- ------- --<br>------- ---------- ------ -- ----- -- ----- -- ---- ------<br>--- ----- --- --- ------ -------- ----- --- ------ ----- --<br>----- ----- ---------- --- --- ------ ------ ---- -- ------<br>------- --- ------ state --- ---- ------- -- ---- --- --<br>------- ------,125665,125659,125394.26,125390,125398.44,125669.54,,46,state
screen,html.Screen,2_1_1_1_47,2021-04-30T16:06:07.211Z,,,,,,,,,,,,,,,,,54,,,,,,,,,,,,,,286.4600000000064,,response,,,,100,,,,,,,Space,keypress(Space),,,,,,,,-- --- ---- --- ------ ----- ------- ---- -- --- ------- --<br>------- ---------- ------ -- ----- -- ----- -- ---- ------<br>--- ----- --- --- ------ -------- ----- --- ------ ----- --<br>----- ----- ---------- --- --- ------ ------ ---- -- ------<br>------- --- ------ ----- was ---- ------- -- ---- --- --<br>------- ------,125969,125956,125665.36,125665,125669.54,125974.02,,47,was
screen,html.Screen,2_1_1_1_48,2021-04-30T16:06:07.452Z,,,,,,,,,,,,,,,,,54,,,,,,,,,,,,,,230.97999999999593,,response,,,,100,,,,,,,Space,keypress(Space),,,,,,,,-- --- ---- --- ------ ----- ------- ---- -- --- ------- --<br>------- ---------- ------ -- ----- -- ----- -- ---- ------<br>--- ----- --- --- ------ -------- ----- --- ------ ----- --<br>----- ----- ---------- --- --- ------ ------ ---- -- ------<br>------- --- ------ ----- --- left ------- -- ---- --- --<br>------- ------,126209,126205,125969.84,125969,125974.02,126215.92,,48,left
screen,html.Screen,2_1_1_1_49,2021-04-30T16:06:07.719Z,,,,,,,,,,,,,,,,,54,,,,,,,,,,,,,,255.08000000000175,,response,,,,100,,,,,,,Space,keypress(Space),,,,,,,,-- --- ---- --- ------ ----- ------- ---- -- --- ------- --<br>------- ---------- ------ -- ----- -- ----- -- ---- ------<br>--- ----- --- --- ------ -------- ----- --- ------ ----- --<br>----- ----- ---------- --- --- ------ ------ ---- -- ------<br>------- --- ------ ----- --- ---- without -- ---- --- --<br>------- ------,126476,126471,126211.76,126209,126215.92,126482.86,,49,without
screen,html.Screen,2_1_1_1_50,2021-04-30T16:06:07.959Z,,,,,,,,,,,,,,,,,54,,,,,,,,,,,,,,223.13999999999942,,response,,,,100,,,,,,,Space,keypress(Space),,,,,,,,-- --- ---- --- ------ ----- ------- ---- -- --- ------- --<br>------- ---------- ------ -- ----- -- ----- -- ---- ------<br>--- ----- --- --- ------ -------- ----- --- ------ ----- --<br>----- ----- ---------- --- --- ------ ------ ---- -- ------<br>------- --- ------ ----- --- ---- ------- an ---- --- --<br>------- ------,126717,126706,126478.7,126476,126482.86,126724.78,,50,an
screen,html.Screen,2_1_1_1_51,2021-04-30T16:06:08.173Z,,,,,,,,,,,,,,,,,54,,,,,,,,,,,,,,199.22000000000116,,response,,,,100,,,,,,,Space,keypress(Space),,,,,,,,-- --- ---- --- ------ ----- ------- ---- -- --- ------- --<br>------- ---------- ------ -- ----- -- ----- -- ---- ------<br>--- ----- --- --- ------ -------- ----- --- ------ ----- --<br>----- ----- ---------- --- --- ------ ------ ---- -- ------<br>------- --- ------ ----- --- ---- ------- -- easy --- --<br>------- ------,126930,126924,126720.6,126717,126724.78,126937.48,,51,easy
screen,html.Screen,2_1_1_1_52,2021-04-30T16:06:08.641Z,,,,,,,,,,,,,,,,,54,,,,,,,,,,,,,,456.5200000000041,,response,,,,100,,,,,,,Space,keypress(Space),,,,,,,,-- --- ---- --- ------ ----- ------- ---- -- --- ------- --<br>------- ---------- ------ -- ----- -- ----- -- ---- ------<br>--- ----- --- --- ------ -------- ----- --- ------ ----- --<br>----- ----- ---------- --- --- ------ ------ ---- -- ------<br>------- --- ------ ----- --- ---- ------- -- ---- way --<br>------- ------,127399,127394,126933.32,126930,126937.48,127404.62,,52,way
screen,html.Screen,2_1_1_1_53,2021-04-30T16:06:08.932Z,,,,,,,,,,,,,,,,,54,,,,,,,,,,,,,,269.38000000000466,,response,,,,100,,,,,,,Space,keypress(Space),,,,,,,,-- --- ---- --- ------ ----- ------- ---- -- --- ------- --<br>------- ---------- ------ -- ----- -- ----- -- ---- ------<br>--- ----- --- --- ------ -------- ----- --- ------ ----- --<br>----- ----- ---------- --- --- ------ ------ ---- -- ------<br>------- --- ------ ----- --- ---- ------- -- ---- --- of<br>------- ------,127690,127674,127400.46,127399,127404.62,127696.64,,53,of
screen,html.Screen,2_1_1_1_54,2021-04-30T16:06:09.183Z,,,,,,,,,,,,,,,,,54,,,,,,,,,,,,,,227.36000000000058,,response,,,,100,,,,,,,Space,keypress(Space),,,,,,,,-- --- ---- --- ------ ----- ------- ---- -- --- ------- --<br>------- ---------- ------ -- ----- -- ----- -- ---- ------<br>--- ----- --- --- ------ -------- ----- --- ------ ----- --<br>----- ----- ---------- --- --- ------ ------ ---- -- ------<br>------- --- ------ ----- --- ---- ------- -- ---- --- --<br>raising ------,127940,127924,127692.48,127690,127696.64,127946.9,,54,raising
screen,html.Screen,2_1_1_1_55,2021-04-30T16:06:09.612Z,,,,,,,,,,,,,,,,,54,,,,,,,,,,,,,,414.1000000000058,,response,,,,100,,,,,,,Space,keypress(Space),,,,,,,,-- --- ---- --- ------ ----- ------- ---- -- --- ------- --<br>------- ---------- ------ -- ----- -- ----- -- ---- ------<br>--- ----- --- --- ------ -------- ----- --- ------ ----- --<br>----- ----- ---------- --- --- ------ ------ ---- -- ------<br>------- --- ------ ----- --- ---- ------- -- ---- --- --<br>------- money.,128369,128361,127942.74,127940,127946.9,128376.5,,55,money.
Item 100,flow.Loop,2_1_1_1,2021-04-30T16:06:09.612Z,,,,,,,,,,,,,,,,,,,,,,,,,,,,,,,15783.960000000006,,completion,,,,,C,,,,,,,,,,,silence,,,,,128369,128361,112572.88,112573,112577.04,128376.5,,,
Question 1,html.Screen,2_1_1_2,2021-04-30T16:06:11.765Z,,,,,,,,,,,,,,,,,,,,,,,,,,,,true,TRUE,,2141.5,,response,,,,100,C,,,,,,TRUE,click #choice-1,,,,silence,,,,,130522,130518,128372.34,128370,128376.5,130528.68,,,
Question 2,html.Screen,2_1_1_3,2021-04-30T16:06:12.939Z,,,,,,,,,,,,,,,,,,,,,,,,,,,,true,FALSE,,1160.320000000007,,response,,,,100,C,,,,,,FALSE,click #choice-2,,,,silence,,,,,131696,131689,130524.52,130522,130528.68,131700.7,,,
Item 100,flow.Sequence,2_1_1,2021-04-30T16:06:12.939Z,,,,,,,,,,,,,,,,,,,,,,,,,,,,,,,29113.899999999994,,completion,,,,,,,,,,,,,,,,,,,,,131696,131689,102570.92,102569,102575.1,131700.7,,,
End of Practice,html.Page,2_1_2,2021-04-30T16:06:15.249Z,,,,,,,,,,,,,,,,,,,,,,,,,,,,,,,2305.2999999999884,,form submission,,,,,,,,,,,,,,,,,,,,,134007,134006,131696.54,131696,131700.7,134011.38,,,
Practice,flow.Sequence,2_1,2021-04-30T16:06:15.249Z,,,,,,,,,,,,,,,,,,,,,,,,,,,,,,,71605.1,,completion,,,,,,,,,,,,,,,,,,,,,134007,134006,62396.72,62398,62400.9,134011.38,,,
Trap_instruction,html.Page,2_2_0,2021-04-30T16:06:15.992Z,,,,,,,,,,,,,,,,,,,,,,,,,,,,,,,737.6199999999953,,form submission,,,,,,,,,,,,,,,,,,,,,134749,134749,134007.2,134007,134011.38,134757.96,,,
trap_trial,html.Screen,2_2_1,2021-04-30T16:06:18.269Z,,,,,,,,,,,,,,,,,,,,,,,,,,,,true,1,,2261.040000000008,,response,,,,,,,,,,,1,click #choice-1,,,,,,,,,137026,137019,134753.8,134749,134757.96,137031.1,,,
end of trap trial,html.Page,2_2_2,2021-04-30T16:06:19.769Z,,,,,,,,,,,,,,,,,,,,,,,,,,,,,,,1493.8999999999942,,form submission,,,,,,,,,,,,,,,,,,,,,138526,138525,137026.92,137026,137031.1,138532.62,,,
Trap 1,flow.Sequence,2_2,2021-04-30T16:06:19.769Z,,,,,,,,,,,,,,,,,,,,,,,,,,,,,,,4513.619999999995,,completion,,,,,,,,,,,,,,,,,,,,,138526,138525,134007.2,134007,134011.38,138532.62,,,
Standby,html.Page,2_3_0,2021-04-30T16:06:27.771Z,,,,,,,,,,,,,,,,,,,,,,,,,,,,,,,7999.720000000001,,timeout,,,,,,,,,,,,,,,,,,,,,146528,146528.18,138528.44,138526,138532.62,146532.34,,,
Holding screen,html.Screen,2_3_1_0_0,2021-04-30T16:06:34.771Z,,,,,,,,,,,,,,,,,,,,,,,,,,,,,,,6998.920000000013,,timeout,,,,,,,,,,,,,,,,,,,,,153527,153527.1,146528.18,146528,146532.34,153531.26,,,
screen,html.Screen,2_3_1_0_1_0,2021-04-30T16:06:40.035Z,,,,,,,,,,,,,,,,,48,,,,,,,,,,,,,,5251.739999999991,,response,,,,10,C,,,,,,Space,keypress(Space),,,,instrumental,,,,As -- --- ------ ------- --------- ----------- --------<br>--------- -------- --- ------- -- ------- ---- -- ------<br>-- --- -------- -------- ---------- ---- ---- ---- ------<br>-- --------- -- ---- -- --- -- --- ------- -- - -----<br>---------- -- -- -- ---- ----- -- ------ -- --- ------<br>-------,158792,158783,153527.1,153527,153531.26,158799.14,,0,As
screen,html.Screen,2_3_1_0_1_1,2021-04-30T16:06:40.255Z,,,,,,,,,,,,,,,,,48,,,,,,,,,,,,,,202.85999999998603,,response,,,,10,C,,,,,,Space,keypress(Space),,,,instrumental,,,,-- in --- ------ ------- --------- ----------- --------<br>--------- -------- --- ------- -- ------- ---- -- ------<br>-- --- -------- -------- ---------- ---- ---- ---- ------<br>-- --------- -- ---- -- --- -- --- ------- -- - -----<br>---------- -- -- -- ---- ----- -- ------ -- --- ------<br>-------,159012,159002,158794.98,158792,158799.14,159020.2,,1,in
screen,html.Screen,2_3_1_0_1_2,2021-04-30T16:06:40.686Z,,,,,,,,,,,,,,,,,48,,,,,,,,,,,,,,418.79999999998836,,response,,,,10,C,,,,,,Space,keypress(Space),,,,instrumental,,,,-- -- the ------ ------- --------- ----------- --------<br>--------- -------- --- ------- -- ------- ---- -- ------<br>-- --- -------- -------- ---------- ---- ---- ---- ------<br>-- --------- -- ---- -- --- -- --- ------- -- - -----<br>---------- -- -- -- ---- ----- -- ------ -- --- ------<br>-------,159443,159439,159016.04,159012,159020.2,159449.8,,2,the
screen,html.Screen,2_3_1_0_1_3,2021-04-30T16:06:40.902Z,,,,,,,,,,,,,,,,,48,,,,,,,,,,,,,,194.20000000001164,,response,,,,10,C,,,,,,Space,keypress(Space),,,,instrumental,,,,-- -- --- United ------- --------- ----------- --------<br>--------- -------- --- ------- -- ------- ---- -- ------<br>-- --- -------- -------- ---------- ---- ---- ---- ------<br>-- --------- -- ---- -- --- -- --- ------- -- - -----<br>---------- -- -- -- ---- ----- -- ------ -- --- ------<br>-------,159659,159644,159445.64,159443,159449.8,159666.7,,3,United
screen,html.Screen,2_3_1_0_1_4,2021-04-30T16:06:41.064Z,,,,,,,,,,,,,,,,,48,,,,,,,,,,,,,,148.29999999998836,,response,,,,10,C,,,,,,Space,keypress(Space),,,,instrumental,,,,"-- -- --- ------ States, --------- ----------- --------<br>--------- -------- --- ------- -- ------- ---- -- ------<br>-- --- -------- -------- ---------- ---- ---- ---- ------<br>-- --------- -- ---- -- --- -- --- ------- -- - -----<br>---------- -- -- -- ---- ----- -- ------ -- --- ------<br>-------",159821,159815,159662.52,159659,159666.7,159829.36,,4,"States,"
screen,html.Screen,2_3_1_0_1_5,2021-04-30T16:06:41.513Z,,,,,,,,,,,,,,,,,48,,,,,,,,,,,,,,438.64000000001397,,response,,,,10,C,,,,,,Space,keypress(Space),,,,instrumental,,,,-- -- --- ------ ------- Colombian ----------- --------<br>--------- -------- --- ------- -- ------- ---- -- ------<br>-- --- -------- -------- ---------- ---- ---- ---- ------<br>-- --------- -- ---- -- --- -- --- ------- -- - -----<br>---------- -- -- -- ---- ----- -- ------ -- --- ------<br>-------,160270,160268,159825.18,159821,159829.36,160274.76,,5,Colombian
screen,html.Screen,2_3_1_0_1_6,2021-04-30T16:06:41.819Z,,,,,,,,,,,,,,,,,48,,,,,,,,,,,,,,289.2399999999907,,response,,,,10,C,,,,,,Space,keypress(Space),,,,instrumental,,,,-- -- --- ------ ------- --------- legislation --------<br>--------- -------- --- ------- -- ------- ---- -- ------<br>-- --- -------- -------- ---------- ---- ---- ---- ------<br>-- --------- -- ---- -- --- -- --- ------- -- - -----<br>---------- -- -- -- ---- ----- -- ------ -- --- ------<br>-------,160577,160564,160270.6,160270,160274.76,160583.42,,6,legislation
screen,html.Screen,2_3_1_0_1_7,2021-04-30T16:06:42.449Z,,,,,,,,,,,,,,,,,48,,,,,,,,,,,,,,605.5799999999872,,response,,,,10,C,,,,,,Space,keypress(Space),,,,instrumental,,,,-- -- --- ------ ------- --------- ----------- requires<br>--------- -------- --- ------- -- ------- ---- -- ------<br>-- --- -------- -------- ---------- ---- ---- ---- ------<br>-- --------- -- ---- -- --- -- --- ------- -- - -----<br>---------- -- -- -- ---- ----- -- ------ -- --- ------<br>-------,161205,161189,160579.24,160577,160583.42,161213.22,,7,requires
screen,html.Screen,2_3_1_0_1_8,2021-04-30T16:06:42.954Z,,,,,,,,,,,,,,,,,48,,,,,,,,,,,,,,492.77999999999884,,response,,,,10,C,,,,,,Space,keypress(Space),,,,instrumental,,,,-- -- --- ------ ------- --------- ----------- --------<br>travelers -------- --- ------- -- ------- ---- -- ------<br>-- --- -------- -------- ---------- ---- ---- ---- ------<br>-- --------- -- ---- -- --- -- --- ------- -- - -----<br>---------- -- -- -- ---- ----- -- ------ -- --- ------<br>-------,161711,161706,161209.04,161205,161213.22,161717.9,,8,travelers
screen,html.Screen,2_3_1_0_1_9,2021-04-30T16:06:43.332Z,,,,,,,,,,,,,,,,,48,,,,,,,,,,,,,,362.1000000000058,,response,,,,10,C,,,,,,Space,keypress(Space),,,,instrumental,,,,-- -- --- ------ ------- --------- ----------- --------<br>--------- entering --- ------- -- ------- ---- -- ------<br>-- --- -------- -------- ---------- ---- ---- ---- ------<br>-- --------- -- ---- -- --- -- --- ------- -- - -----<br>---------- -- -- -- ---- ----- -- ------ -- --- ------<br>-------,162088,162080,161713.72,161711,161717.9,162093.28,,9,entering
screen,html.Screen,2_3_1_0_1_10,2021-04-30T16:06:43.628Z,,,,,,,,,,,,,,,,,48,,,,,,,,,,,,,,284.72000000000116,,response,,,,10,C,,,,,,Space,keypress(Space),,,,instrumental,,,,-- -- --- ------ ------- --------- ----------- --------<br>--------- -------- the ------- -- ------- ---- -- ------<br>-- --- -------- -------- ---------- ---- ---- ---- ------<br>-- --------- -- ---- -- --- -- --- ------- -- - -----<br>---------- -- -- -- ---- ----- -- ------ -- --- ------<br>-------,162385,162378,162089.1,162088,162093.28,162389.4,,10,the
screen,html.Screen,2_3_1_0_1_11,2021-04-30T16:06:43.877Z,,,,,,,,,,,,,,,,,48,,,,,,,,,,,,,,237.60000000000582,,response,,,,10,C,,,,,,Space,keypress(Space),,,,instrumental,,,,-- -- --- ------ ------- --------- ----------- --------<br>--------- -------- --- country -- ------- ---- -- ------<br>-- --- -------- -------- ---------- ---- ---- ---- ------<br>-- --------- -- ---- -- --- -- --- ------- -- - -----<br>---------- -- -- -- ---- ----- -- ------ -- --- ------<br>-------,162634,162627,162385.24,162385,162389.4,162639.66,,11,country
screen,html.Screen,2_3_1_0_1_12,2021-04-30T16:06:44.155Z,,,,,,,,,,,,,,,,,48,,,,,,,,,,,,,,269.3399999999965,,response,,,,10,C,,,,,,Space,keypress(Space),,,,instrumental,,,,-- -- --- ------ ------- --------- ----------- --------<br>--------- -------- --- ------- to ------- ---- -- ------<br>-- --- -------- -------- ---------- ---- ---- ---- ------<br>-- --------- -- ---- -- --- -- --- ------- -- - -----<br>---------- -- -- -- ---- ----- -- ------ -- --- ------<br>-------,162913,162909,162635.5,162634,162639.66,162919.12,,12,to
screen,html.Screen,2_3_1_0_1_13,2021-04-30T16:06:44.492Z,,,,,,,,,,,,,,,,,48,,,,,,,,,,,,,,317.88000000000466,,response,,,,10,C,,,,,,Space,keypress(Space),,,,instrumental,,,,-- -- --- ------ ------- --------- ----------- --------<br>--------- -------- --- ------- -- declare ---- -- ------<br>-- --- -------- -------- ---------- ---- ---- ---- ------<br>-- --------- -- ---- -- --- -- --- ------- -- - -----<br>---------- -- -- -- ---- ----- -- ------ -- --- ------<br>-------,163248,163237,162914.94,162913,162919.12,163256.96,,13,declare
screen,html.Screen,2_3_1_0_1_14,2021-04-30T16:06:44.766Z,,,,,,,,,,,,,,,,,48,,,,,,,,,,,,,,261.04000000000815,,response,,,,10,C,,,,,,Space,keypress(Space),,,,instrumental,,,,-- -- --- ------ ------- --------- ----------- --------<br>--------- -------- --- ------- -- ------- cash -- ------<br>-- --- -------- -------- ---------- ---- ---- ---- ------<br>-- --------- -- ---- -- --- -- --- ------- -- - -----<br>---------- -- -- -- ---- ----- -- ------ -- --- ------<br>-------,163524,163518,163252.78,163248,163256.96,163528.06,,14,cash
screen,html.Screen,2_3_1_0_1_15,2021-04-30T16:06:45.098Z,,,,,,,,,,,,,,,,,48,,,,,,,,,,,,,,318.9400000000023,,response,,,,10,C,,,,,,Space,keypress(Space),,,,instrumental,,,,-- -- --- ------ ------- --------- ----------- --------<br>--------- -------- --- ------- -- ------- ---- in ------<br>-- --- -------- -------- ---------- ---- ---- ---- ------<br>-- --------- -- ---- -- --- -- --- ------- -- - -----<br>---------- -- -- -- ---- ----- -- ------ -- --- ------<br>-------,163854,163847,163523.88,163524,163528.06,163861.74,,15,in
screen,html.Screen,2_3_1_0_1_16,2021-04-30T16:06:45.330Z,,,,,,,,,,,,,,,,,48,,,,,,,,,,,,,,219.2600000000093,,response,,,,10,C,,,,,,Space,keypress(Space),,,,instrumental,,,,-- -- --- ------ ------- --------- ----------- --------<br>--------- -------- --- ------- -- ------- ---- -- excess<br>-- --- -------- -------- ---------- ---- ---- ---- ------<br>-- --------- -- ---- -- --- -- --- ------- -- - -----<br>---------- -- -- -- ---- ----- -- ------ -- --- ------<br>-------,164087,164081,163857.56,163854,163861.74,164095.3,,16,excess
screen,html.Screen,2_3_1_0_1_17,2021-04-30T16:06:45.701Z,,,,,,,,,,,,,,,,,48,,,,,,,,,,,,,,360.70000000001164,,response,,,,10,C,,,,,,Space,keypress(Space),,,,instrumental,,,,-- -- --- ------ ------- --------- ----------- --------<br>--------- -------- --- ------- -- ------- ---- -- ------<br>of --- -------- -------- ---------- ---- ---- ---- ------<br>-- --------- -- ---- -- --- -- --- ------- -- - -----<br>---------- -- -- -- ---- ----- -- ------ -- --- ------<br>-------,164459,164456,164091.14,164088,164095.3,164466.52,,17,of
screen,html.Screen,2_3_1_0_1_18,2021-04-30T16:06:45.964Z,,,,,,,,,,,,,,,,,48,,,,,,,,,,,,,,238.48000000001048,,response,,,,10,C,,,,,,Space,keypress(Space),,,,instrumental,,,,-- -- --- ------ ------- --------- ----------- --------<br>--------- -------- --- ------- -- ------- ---- -- ------<br>-- ten -------- -------- ---------- ---- ---- ---- ------<br>-- --------- -- ---- -- --- -- --- ------- -- - -----<br>---------- -- -- -- ---- ----- -- ------ -- --- ------<br>-------,164721,164705,164462.34,164459,164466.52,164729.28,,18,ten
screen,html.Screen,2_3_1_0_1_19,2021-04-30T16:06:46.160Z,,,,,,,,,,,,,,,,,48,,,,,,,,,,,,,,178.72000000000116,,response,,,,10,C,,,,,,Space,keypress(Space),,,,instrumental,,,,-- -- --- ------ ------- --------- ----------- --------<br>--------- -------- --- ------- -- ------- ---- -- ------<br>-- --- thousand -------- ---------- ---- ---- ---- ------<br>-- --------- -- ---- -- --- -- --- ------- -- - -----<br>---------- -- -- -- ---- ----- -- ------ -- --- ------<br>-------,164917,164908,164725.1,164721,164729.28,164925.3,,19,thousand
screen,html.Screen,2_3_1_0_1_20,2021-04-30T16:06:46.361Z,,,,,,,,,,,,,,,,,48,,,,,,,,,,,,,,186.70000000001164,,response,,,,10,C,,,,,,Space,keypress(Space),,,,instrumental,,,,-- -- --- ------ ------- --------- ----------- --------<br>--------- -------- --- ------- -- ------- ---- -- ------<br>-- --- -------- dollars. ---------- ---- ---- ---- ------<br>-- --------- -- ---- -- --- -- --- ------- -- - -----<br>---------- -- -- -- ---- ----- -- ------ -- --- ------<br>-------,165118,165112,164921.14,164917,164925.3,165122.22,,20,dollars.
screen,html.Screen,2_3_1_0_1_21,2021-04-30T16:06:46.575Z,,,,,,,,,,,,,,,,,48,,,,,,,,,,,,,,207.77999999999884,,response,,,,10,C,,,,,,Space,keypress(Space),,,,instrumental,,,,-- -- --- ------ ------- --------- ----------- --------<br>--------- -------- --- ------- -- ------- ---- -- ------<br>-- --- -------- -------- Concealing ---- ---- ---- ------<br>-- --------- -- ---- -- --- -- --- ------- -- - -----<br>---------- -- -- -- ---- ----- -- ------ -- --- ------<br>-------,165332,165330,165118.04,165118,165122.22,165339.1,,21,Concealing
screen,html.Screen,2_3_1_0_1_22,2021-04-30T16:06:46.956Z,,,,,,,,,,,,,,,,,48,,,,,,,,,,,,,,366.8999999999942,,response,,,,10,C,,,,,,Space,keypress(Space),,,,instrumental,,,,-- -- --- ------ ------- --------- ----------- --------<br>--------- -------- --- ------- -- ------- ---- -- ------<br>-- --- -------- -------- ---------- more ---- ---- ------<br>-- --------- -- ---- -- --- -- --- ------- -- - -----<br>---------- -- -- -- ---- ----- -- ------ -- --- ------<br>-------,165714,165706,165334.92,165332,165339.1,165718.66,,22,more
screen,html.Screen,2_3_1_0_1_23,2021-04-30T16:06:47.110Z,,,,,,,,,,,,,,,,,48,,,,,,,,,,,,,,143.3399999999965,,response,,,,10,C,,,,,,Space,keypress(Space),,,,instrumental,,,,-- -- --- ------ ------- --------- ----------- --------<br>--------- -------- --- ------- -- ------- ---- -- ------<br>-- --- -------- -------- ---------- ---- than ---- ------<br>-- --------- -- ---- -- --- -- --- ------- -- - -----<br>---------- -- -- -- ---- ----- -- ------ -- --- ------<br>-------,165867,165862,165714.48,165714,165718.66,165872.98,,23,than
screen,html.Screen,2_3_1_0_1_24,2021-04-30T16:06:47.499Z,,,,,,,,,,,,,,,,,48,,,,,,,,,,,,,,380.0199999999895,,response,,,,10,C,,,,,,Space,keypress(Space),,,,instrumental,,,,-- -- --- ------ ------- --------- ----------- --------<br>--------- -------- --- ------- -- ------- ---- -- ------<br>-- --- -------- -------- ---------- ---- ---- that ------<br>-- --------- -- ---- -- --- -- --- ------- -- - -----<br>---------- -- -- -- ---- ----- -- ------ -- --- ------<br>-------,166256,166253,165868.8,165867,165872.98,166260.86,,24,that
screen,html.Screen,2_3_1_0_1_25,2021-04-30T16:06:47.720Z,,,,,,,,,,,,,,,,,48,,,,,,,,,,,,,,210.14000000001397,,response,,,,10,C,,,,,,Space,keypress(Space),,,,instrumental,,,,-- -- --- ------ ------- --------- ----------- --------<br>--------- -------- --- ------- -- ------- ---- -- ------<br>-- --- -------- -------- ---------- ---- ---- ---- amount<br>-- --------- -- ---- -- --- -- --- ------- -- - -----<br>---------- -- -- -- ---- ----- -- ------ -- --- ------<br>-------,166477,166471,166256.7,166256,166260.86,166481.92,,25,amount
screen,html.Screen,2_3_1_0_1_26,2021-04-30T16:06:48.088Z,,,,,,,,,,,,,,,,,48,,,,,,,,,,,,,,348.0799999999872,,response,,,,10,C,,,,,,Space,keypress(Space),,,,instrumental,,,,-- -- --- ------ ------- --------- ----------- --------<br>--------- -------- --- ------- -- ------- ---- -- ------<br>-- --- -------- -------- ---------- ---- ---- ---- ------<br>to --------- -- ---- -- --- -- --- ------- -- - -----<br>---------- -- -- -- ---- ----- -- ------ -- --- ------<br>-------,166845,166830,166477.76,166477,166481.92,166853.14,,26,to
screen,html.Screen,2_3_1_0_1_27,2021-04-30T16:06:48.293Z,,,,,,,,,,,,,,,,,48,,,,,,,,,,,,,,196.85999999998603,,response,,,,10,C,,,,,,Space,keypress(Space),,,,instrumental,,,,-- -- --- ------ ------- --------- ----------- --------<br>--------- -------- --- ------- -- ------- ---- -- ------<br>-- --- -------- -------- ---------- ---- ---- ---- ------<br>-- transport -- ---- -- --- -- --- ------- -- - -----<br>---------- -- -- -- ---- ----- -- ------ -- --- ------<br>-------,167050,167050,166848.96,166845,166853.14,167057.5,,27,transport
screen,html.Screen,2_3_1_0_1_28,2021-04-30T16:06:48.495Z,,,,,,,,,,,,,,,,,48,,,,,,,,,,,,,,178.5,,response,,,,10,C,,,,,,Space,keypress(Space),,,,instrumental,,,,-- -- --- ------ ------- --------- ----------- --------<br>--------- -------- --- ------- -- ------- ---- -- ------<br>-- --- -------- -------- ---------- ---- ---- ---- ------<br>-- --------- it ---- -- --- -- --- ------- -- - -----<br>---------- -- -- -- ---- ----- -- ------ -- --- ------<br>-------,167253,167236,167053.34,167050,167057.5,167257.7,,28,it
screen,html.Screen,2_3_1_0_1_29,2021-04-30T16:06:48.690Z,,,,,,,,,,,,,,,,,48,,,,,,,,,,,,,,181.29999999998836,,response,,,,10,C,,,,,,Space,keypress(Space),,,,instrumental,,,,-- -- --- ------ ------- --------- ----------- --------<br>--------- -------- --- ------- -- ------- ---- -- ------<br>-- --- -------- -------- ---------- ---- ---- ---- ------<br>-- --------- -- into -- --- -- --- ------- -- - -----<br>---------- -- -- -- ---- ----- -- ------ -- --- ------<br>-------,167446,167439,167253.54,167253,167257.7,167453.74,,29,into
screen,html.Screen,2_3_1_0_1_30,2021-04-30T16:06:48.893Z,,,,,,,,,,,,,,,,,48,,,,,,,,,,,,,,189.2600000000093,,response,,,,10,C,,,,,,Space,keypress(Space),,,,instrumental,,,,-- -- --- ------ ------- --------- ----------- --------<br>--------- -------- --- ------- -- ------- ---- -- ------<br>-- --- -------- -------- ---------- ---- ---- ---- ------<br>-- --------- -- ---- or --- -- --- ------- -- - -----<br>---------- -- -- -- ---- ----- -- ------ -- --- ------<br>-------,167651,167643,167449.56,167446,167453.74,167658.12,,30,or
screen,html.Screen,2_3_1_0_1_31,2021-04-30T16:06:49.067Z,,,,,,,,,,,,,,,,,48,,,,,,,,,,,,,,156.88000000000466,,response,,,,10,C,,,,,,Space,keypress(Space),,,,instrumental,,,,-- -- --- ------ ------- --------- ----------- --------<br>--------- -------- --- ------- -- ------- ---- -- ------<br>-- --- -------- -------- ---------- ---- ---- ---- ------<br>-- --------- -- ---- -- out -- --- ------- -- - -----<br>---------- -- -- -- ---- ----- -- ------ -- --- ------<br>-------,167825,167815,167653.94,167651,167658.12,167829.12,,31,out
screen,html.Screen,2_3_1_0_1_32,2021-04-30T16:06:49.263Z,,,,,,,,,,,,,,,,,48,,,,,,,,,,,,,,189.88000000000466,,response,,,,10,C,,,,,,Space,keypress(Space),,,,instrumental,,,,-- -- --- ------ ------- --------- ----------- --------<br>--------- -------- --- ------- -- ------- ---- -- ------<br>-- --- -------- -------- ---------- ---- ---- ---- ------<br>-- --------- -- ---- -- --- of --- ------- -- - -----<br>---------- -- -- -- ---- ----- -- ------ -- --- ------<br>-------,168021,168019,167824.94,167825,167829.12,168025.16,,32,of
screen,html.Screen,2_3_1_0_1_33,2021-04-30T16:06:49.433Z,,,,,,,,,,,,,,,,,48,,,,,,,,,,,,,,148.8399999999965,,response,,,,10,C,,,,,,Space,keypress(Space),,,,instrumental,,,,-- -- --- ------ ------- --------- ----------- --------<br>--------- -------- --- ------- -- ------- ---- -- ------<br>-- --- -------- -------- ---------- ---- ---- ---- ------<br>-- --------- -- ---- -- --- -- the ------- -- - -----<br>---------- -- -- -- ---- ----- -- ------ -- --- ------<br>-------,168189,168174,168020.98,168021,168025.16,168196.16,,33,the
screen,html.Screen,2_3_1_0_1_34,2021-04-30T16:06:49.632Z,,,,,,,,,,,,,,,,,48,,,,,,,,,,,,,,180.8399999999965,,response,,,,10,C,,,,,,Space,keypress(Space),,,,instrumental,,,,-- -- --- ------ ------- --------- ----------- --------<br>--------- -------- --- ------- -- ------- ---- -- ------<br>-- --- -------- -------- ---------- ---- ---- ---- ------<br>-- --------- -- ---- -- --- -- --- country -- - -----<br>---------- -- -- -- ---- ----- -- ------ -- --- ------<br>-------,168390,168377,168191.98,168189,168196.16,168396.36,,34,country
screen,html.Screen,2_3_1_0_1_35,2021-04-30T16:06:49.821Z,,,,,,,,,,,,,,,,,48,,,,,,,,,,,,,,168.64000000001397,,response,,,,10,C,,,,,,Space,keypress(Space),,,,instrumental,,,,-- -- --- ------ ------- --------- ----------- --------<br>--------- -------- --- ------- -- ------- ---- -- ------<br>-- --- -------- -------- ---------- ---- ---- ---- ------<br>-- --------- -- ---- -- --- -- --- ------- is - -----<br>---------- -- -- -- ---- ----- -- ------ -- --- ------<br>-------,168577,168565,168392.2,168390,168396.36,168584.06,,35,is
screen,html.Screen,2_3_1_0_1_36,2021-04-30T16:06:50.032Z,,,,,,,,,,,,,,,,,48,,,,,,,,,,,,,,198.94000000000233,,response,,,,10,C,,,,,,Space,keypress(Space),,,,instrumental,,,,-- -- --- ------ ------- --------- ----------- --------<br>--------- -------- --- ------- -- ------- ---- -- ------<br>-- --- -------- -------- ---------- ---- ---- ---- ------<br>-- --------- -- ---- -- --- -- --- ------- -- a -----<br>---------- -- -- -- ---- ----- -- ------ -- --- ------<br>-------,168790,168783,168579.88,168577,168584.06,168796.76,,36,a
screen,html.Screen,2_3_1_0_1_37,2021-04-30T16:06:50.237Z,,,,,,,,,,,,,,,,,48,,,,,,,,,,,,,,190.2399999999907,,response,,,,10,C,,,,,,Space,keypress(Space),,,,instrumental,,,,-- -- --- ------ ------- --------- ----------- --------<br>--------- -------- --- ------- -- ------- ---- -- ------<br>-- --- -------- -------- ---------- ---- ---- ---- ------<br>-- --------- -- ---- -- --- -- --- ------- -- - crime<br>---------- -- -- -- ---- ----- -- ------ -- --- ------<br>-------,168995,168987,168792.6,168790,168796.76,169001.14,,37,crime
screen,html.Screen,2_3_1_0_1_38,2021-04-30T16:06:50.464Z,,,,,,,,,,,,,,,,,48,,,,,,,,,,,,,,203.85999999998603,,response,,,,10,C,,,,,,Space,keypress(Space),,,,instrumental,,,,-- -- --- ------ ------- --------- ----------- --------<br>--------- -------- --- ------- -- ------- ---- -- ------<br>-- --- -------- -------- ---------- ---- ---- ---- ------<br>-- --------- -- ---- -- --- -- --- ------- -- - -----<br>punishable -- -- -- ---- ----- -- ------ -- --- ------<br>-------,169221,169205,168996.96,168995,169001.14,169226.36,,38,punishable
screen,html.Screen,2_3_1_0_1_39,2021-04-30T16:06:50.681Z,,,,,,,,,,,,,,,,,48,,,,,,,,,,,,,,197.64000000001397,,response,,,,10,C,,,,,,Space,keypress(Space),,,,instrumental,,,,-- -- --- ------ ------- --------- ----------- --------<br>--------- -------- --- ------- -- ------- ---- -- ------<br>-- --- -------- -------- ---------- ---- ---- ---- ------<br>-- --------- -- ---- -- --- -- --- ------- -- - -----<br>---------- by -- -- ---- ----- -- ------ -- --- ------<br>-------,169437,169424,169222.2,169221,169226.36,169443.26,,39,by
screen,html.Screen,2_3_1_0_1_40,2021-04-30T16:06:50.882Z,,,,,,,,,,,,,,,,,48,,,,,,,,,,,,,,183.7399999999907,,response,,,,10,C,,,,,,Space,keypress(Space),,,,instrumental,,,,-- -- --- ------ ------- --------- ----------- --------<br>--------- -------- --- ------- -- ------- ---- -- ------<br>-- --- -------- -------- ---------- ---- ---- ---- ------<br>-- --------- -- ---- -- --- -- --- ------- -- - -----<br>---------- -- up -- ---- ----- -- ------ -- --- ------<br>-------,169640,169627,169439.08,169437,169443.26,169647.62,,40,up
screen,html.Screen,2_3_1_0_1_41,2021-04-30T16:06:51.095Z,,,,,,,,,,,,,,,,,48,,,,,,,,,,,,,,199.38000000000466,,response,,,,10,C,,,,,,Space,keypress(Space),,,,instrumental,,,,-- -- --- ------ ------- --------- ----------- --------<br>--------- -------- --- ------- -- ------- ---- -- ------<br>-- --- -------- -------- ---------- ---- ---- ---- ------<br>-- --------- -- ---- -- --- -- --- ------- -- - -----<br>---------- -- -- to ---- ----- -- ------ -- --- ------<br>-------,169852,169847,169643.46,169640,169647.62,169860.34,,41,to
screen,html.Screen,2_3_1_0_1_42,2021-04-30T16:06:51.284Z,,,,,,,,,,,,,,,,,48,,,,,,,,,,,,,,173.6600000000035,,response,,,,10,C,,,,,,Space,keypress(Space),,,,instrumental,,,,-- -- --- ------ ------- --------- ----------- --------<br>--------- -------- --- ------- -- ------- ---- -- ------<br>-- --- -------- -------- ---------- ---- ---- ---- ------<br>-- --------- -- ---- -- --- -- --- ------- -- - -----<br>---------- -- -- -- five ----- -- ------ -- --- ------<br>-------,170040,170034,169856.18,169853,169860.34,170048.04,,42,five
screen,html.Screen,2_3_1_0_1_43,2021-04-30T16:06:51.485Z,,,,,,,,,,,,,,,,,48,,,,,,,,,,,,,,187.95999999999185,,response,,,,10,C,,,,,,Space,keypress(Space),,,,instrumental,,,,-- -- --- ------ ------- --------- ----------- --------<br>--------- -------- --- ------- -- ------- ---- -- ------<br>-- --- -------- -------- ---------- ---- ---- ---- ------<br>-- --------- -- ---- -- --- -- --- ------- -- - -----<br>---------- -- -- -- ---- years -- ------ -- --- ------<br>-------,170243,170236,170043.86,170040,170048.04,170248.24,,43,years
screen,html.Screen,2_3_1_0_1_44,2021-04-30T16:06:51.670Z,,,,,,,,,,,,,,,,,48,,,,,,,,,,,,,,176.7600000000093,,response,,,,10,C,,,,,,Space,keypress(Space),,,,instrumental,,,,-- -- --- ------ ------- --------- ----------- --------<br>--------- -------- --- ------- -- ------- ---- -- ------<br>-- --- -------- -------- ---------- ---- ---- ---- ------<br>-- --------- -- ---- -- --- -- --- ------- -- - -----<br>---------- -- -- -- ---- ----- in ------ -- --- ------<br>-------,170426,170425,170244.06,170243,170248.24,170431.76,,44,in
screen,html.Screen,2_3_1_0_1_45,2021-04-30T16:06:51.867Z,,,,,,,,,,,,,,,,,48,,,,,,,,,,,,,,180.2399999999907,,response,,,,10,C,,,,,,Space,keypress(Space),,,,instrumental,,,,-- -- --- ------ ------- --------- ----------- --------<br>--------- -------- --- ------- -- ------- ---- -- ------<br>-- --- -------- -------- ---------- ---- ---- ---- ------<br>-- --------- -- ---- -- --- -- --- ------- -- - -----<br>---------- -- -- -- ---- ----- -- prison -- --- ------<br>-------,170625,170612,170427.58,170426,170431.76,170631.96,,45,prison
screen,html.Screen,2_3_1_0_1_46,2021-04-30T16:06:52.072Z,,,,,,,,,,,,,,,,,48,,,,,,,,,,,,,,183.04000000000815,,response,,,,10,C,,,,,,Space,keypress(Space),,,,instrumental,,,,-- -- --- ------ ------- --------- ----------- --------<br>--------- -------- --- ------- -- ------- ---- -- ------<br>-- --- -------- -------- ---------- ---- ---- ---- ------<br>-- --------- -- ---- -- --- -- --- ------- -- - -----<br>---------- -- -- -- ---- ----- -- ------ in --- ------<br>-------,170829,170815,170627.78,170625,170631.96,170836.34,,46,in
screen,html.Screen,2_3_1_0_1_47,2021-04-30T16:06:52.249Z,,,,,,,,,,,,,,,,,48,,,,,,,,,,,,,,165.6600000000035,,response,,,,10,C,,,,,,Space,keypress(Space),,,,instrumental,,,,-- -- --- ------ ------- --------- ----------- --------<br>--------- -------- --- ------- -- ------- ---- -- ------<br>-- --- -------- -------- ---------- ---- ---- ---- ------<br>-- --------- -- ---- -- --- -- --- ------- -- - -----<br>---------- -- -- -- ---- ----- -- ------ -- the ------<br>-------,171006,171002,170832.16,170830,170836.34,171011.5,,47,the
screen,html.Screen,2_3_1_0_1_48,2021-04-30T16:06:52.436Z,,,,,,,,,,,,,,,,,48,,,,,,,,,,,,,,177.5,,response,,,,10,C,,,,,,Space,keypress(Space),,,,instrumental,,,,-- -- --- ------ ------- --------- ----------- --------<br>--------- -------- --- ------- -- ------- ---- -- ------<br>-- --- -------- -------- ---------- ---- ---- ---- ------<br>-- --------- -- ---- -- --- -- --- ------- -- - -----<br>---------- -- -- -- ---- ----- -- ------ -- --- United<br>-------,171193,171189,171007.34,171006,171011.5,171199.2,,48,United
screen,html.Screen,2_3_1_0_1_49,2021-04-30T16:06:52.621Z,,,,,,,,,,,,,,,,,48,,,,,,,,,,,,,,178.79999999998836,,response,,,,10,C,,,,,,Space,keypress(Space),,,,instrumental,,,,-- -- --- ------ ------- --------- ----------- --------<br>--------- -------- --- ------- -- ------- ---- -- ------<br>-- --- -------- -------- ---------- ---- ---- ---- ------<br>-- --------- -- ---- -- --- -- --- ------- -- - -----<br>---------- -- -- -- ---- ----- -- ------ -- --- ------<br>States.,171379,171378,171195.02,171194,171199.2,171386.88,,49,States.
Item 10,flow.Loop,2_3_1_0_1,2021-04-30T16:06:52.622Z,,,,,,,,,,,,,,,,,,,,,,,,,,,,,,,17846.73999999999,,completion,,,,,,,,,,,,,,,,,,,,,171379,171378,153527.1,153527,153531.26,171386.88,,,
Question 1,html.Screen,2_3_1_0_2,2021-04-30T16:06:55.760Z,,,,,,,,,,,,,,,,,,,,,,,,,,,,true,TRUE,,3116.1199999999953,,response,,,,10,C,,,,,,TRUE,click #choice-1,,,,instrumental,,,,,174518,174503,171382.72,171379,171386.88,174523.36,,,
Question 2,html.Screen,2_3_1_0_3,2021-04-30T16:06:57.262Z,,,,,,,,,,,,,,,,,,,,,,,,,,,,true,TRUE,,1495.640000000014,,response,,,,10,C,,,,,,TRUE,click #choice-1,,,,instrumental,,,,,176020,176019,174519.2,174518,174523.36,176024.88,,,
Item 10,flow.Sequence,2_3_1_0,2021-04-30T16:06:57.262Z,,,,,,,,,,,,,,,,,,,,,,,,,,,,,,,29486.660000000003,,completion,,,,,,,,,,,,,,,,,,,,,176020,176019,146528.18,146528,146532.34,176024.88,,,
Holding screen,html.Screen,2_3_1_1_0,2021-04-30T16:07:04.263Z,,,,,,,,,,,,,,,,,,,,,,,,,,,,,,,6998.720000000001,,timeout,,,,,,,,,,,,,,,,,,,,,183020,183019.42,176020.72,176020,176024.88,183023.6,,,
screen,html.Screen,2_3_1_1_1_0,2021-04-30T16:07:05.487Z,,,,,,,,,,,,,,,,,15,,,,,,,,,,,,,,1212.3999999999942,,response,,,,7,C,,,,,,Space,keypress(Space),,,,instrumental,,,,Greg --------- ---------- - --- ------- -- --- ------------<br>----- -- -------- ------- ---- ------ - -------- ---- -----<br>--- ------- ---- -- --- -------- --- - ----- ------ ---- --<br>-------- --- -------- -------- --- -------- ---- -- ----- -<br>-------- ---- --- ---------- --------- -- ------- ------ -<br>--------- ----- -----,184245,184236,183019.42,183020,183023.6,184249.84,,0,Greg
screen,html.Screen,2_3_1_1_1_1,2021-04-30T16:07:05.679Z,,,,,,,,,,,,,,,,,15,,,,,,,,,,,,,,175.1600000000035,,response,,,,7,C,,,,,,Space,keypress(Space),,,,instrumental,,,,"---- Anderson, ---------- - --- ------- -- --- ------------<br>----- -- -------- ------- ---- ------ - -------- ---- -----<br>--- ------- ---- -- --- -------- --- - ----- ------ ---- --<br>-------- --- -------- -------- --- -------- ---- -- ----- -<br>-------- ---- --- ---------- --------- -- ------- ------ -<br>--------- ----- -----",184436,184425,184245.66,184245,184249.84,184441.7,,1,"Anderson,"
screen,html.Screen,2_3_1_1_1_2,2021-04-30T16:07:06.226Z,,,,,,,,,,,,,,,,,15,,,,,,,,,,,,,,529.2999999999884,,response,,,,7,C,,,,,,Space,keypress(Space),,,,instrumental,,,,---- --------- considered - --- ------- -- --- ------------<br>----- -- -------- ------- ---- ------ - -------- ---- -----<br>--- ------- ---- -- --- -------- --- - ----- ------ ---- --<br>-------- --- -------- -------- --- -------- ---- -- ----- -<br>-------- ---- --- ---------- --------- -- ------- ------ -<br>--------- ----- -----,184983,184971,184437.52,184436,184441.7,184988.08,,2,considered
screen,html.Screen,2_3_1_1_1_3,2021-04-30T16:07:06.613Z,,,,,,,,,,,,,,,,,15,,,,,,,,,,,,,,373.9200000000128,,response,,,,7,C,,,,,,Space,keypress(Space),,,,instrumental,,,,---- --------- ---------- a --- ------- -- --- ------------<br>----- -- -------- ------- ---- ------ - -------- ---- -----<br>--- ------- ---- -- --- -------- --- - ----- ------ ---- --<br>-------- --- -------- -------- --- -------- ---- -- ----- -<br>-------- ---- --- ---------- --------- -- ------- ------ -<br>--------- ----- -----,185369,185362,184983.92,184983,184988.08,185375.66,,3,a
