sender,sender_type,sender_id,timestamp,meta,,Blues,Classical,Country,Dance,Electronic,Folk,Gospel,Hip-Hop,Jazz,Latin,Musical/Film,New-age,Pop,Prolific_id,Provo_ID,R&B,Rap,Reggae,Religious,Rock,Soul,Swing,Traditional,age,artist_name,correct,correctResponse,distraction,duration,education,ended_on,familiarity,gender,headphone_check_performance,item,list,music_frequency,offensiveness,pleasantness,position_correct,preference,response,response_action,snippet_file,song_name,song_rating,sound,stimulus_1,stimulus_2,stimulus_3,text,time_commit,time_end,time_render,time_run,time_show,time_switch,url,word,word_ID
Prolific ID,html.Form,0,2021-04-26T18:55:00.375Z,"{""labjs_version"":""20.2.2"",""labjs_build"":{""flavor"":""production"",""commit"":""a25486e0c714a0ae2ce03ff94b7bb6896854dcfa""},""location"":""https://run.pavlovia.org/mvasilev/prolific_music_d/"",""userAgent"":""Mozilla/5.0 (Windows NT 10.0; Win64; x64) AppleWebKit/537.36 (KHTML, like Gecko) Chrome/90.0.4430.85 Safari/537.36"",""platform"":""Win32"",""language"":""en-GB"",""locale"":""en-GB"",""timeZone"":""Europe/London"",""timezoneOffset"":-60,""screen_width"":1920,""screen_height"":1080,""scroll_width"":1920,""scroll_height"":889,""window_innerWidth"":1920,""window_innerHeight"":937,""devicePixelRatio"":1}",,,,,,,,,,,,,,,5f4412624052727181839e3a,,,,,,,,,,,,,,,4836.3929999996,,form submission,,,,,,,,,,,,,,,,,,,,,19658.970000004047,19658.5699999996,14808.739,10170.119999995222,14822.177,19662.032,{},,
Introduction,html.Screen,1_0,2021-04-26T18:55:03.516Z,,,,,,,,,,,,,,,,,,,,,,,,,,,,,,,3135.562999996364,,response,,,,,,,,,,,continue,click button,,,,,,,,,22799.53000000387,22797.594999996363,19649.295,19659.27499999816,19662.032,22808.682,,,
Volume calibration,html.Screen,1_1,2021-04-26T18:55:34.323Z,,,,,,,,,,,,,,,,,,,,,,,,,,,,,,,30794.788000001834,,response,,,,,,,,,,,continue,click button,,,,,,,,,53606.455000001006,53603.470000001835,22795.979,22799.654999995255,22808.682,53608.29,,,
Task instructions,html.Screen,1_2,2021-04-26T18:55:44.952Z,,,,,,,,,,,,,,,,,,,,,,,,,,,,,,,10627.16500000182,,response,,,,,,,,,,,continue,click button,,,,,,,,,64236.20499999379,64235.45500000182,53594.979,53606.595000004745,53608.29,64248.601,,,
Sounds,html.Screen,1_3_0_0,2021-04-26T18:55:49.210Z,,,,,,,,,,,,,,,,,,,,,,,,,,,,,,,4252.707999999991,,timeout,,,,,,,,,1,,,,,,,,S,O,I,,68493.99000000267,68488.582,64234.91,64236.464999994496,64248.601,68501.309,,,
Judgement,html.Screen,1_3_0_1,2021-04-26T18:55:51.614Z,,,,,,,,,,,,,,,,,,,,,,,,,,,,true,1,,2396.1160000028467,,response,,,,,,,,,1,,1,click #choice-1,,,,,S,O,I,,70898.17499999481,70897.42500000284,68488.582,68494.19500000658,68501.309,70901.482,,,
Trial,flow.Sequence,1_3_0,2021-04-26T18:55:51.615Z,,,,,,,,,,,,,,,,,,,,,,,,,,,,,,,6648.824000002838,,completion,,,,,,,,,1,,,,,,,,S,O,I,,70898.48000000347,70897.42500000284,64234.91,64236.40500000329,64248.601,70901.482,,,
Sounds,html.Screen,1_3_1_0,2021-04-26T18:55:55.859Z,,,,,,,,,,,,,,,,,,,,,,,,,,,,,,,4253.077999999994,,timeout,,,,,,,,,2,,,,,,,,O,S,I,,75142.75499999349,75141.801,70888.477,70898.63999999943,70901.482,75154.56,,,
Judgement,html.Screen,1_3_1_1,2021-04-26T18:55:56.961Z,,,,,,,,,,,,,,,,,,,,,,,,,,,,true,2,,1089.3400000013062,,response,,,,,,,,,2,,2,click #choice-2,,,,,O,S,I,,76244.59000000206,76243.9000000013,75141.801,75143.10499999556,75154.56,76247.818,,,
Trial,flow.Sequence,1_3_1,2021-04-26T18:55:56.961Z,,,,,,,,,,,,,,,,,,,,,,,,,,,,,,,5342.4180000013,,completion,,,,,,,,,2,,,,,,,,O,S,I,,76244.85000000277,76243.9000000013,70888.477,70898.58999999706,70901.482,76247.818,,,
Sounds,html.Screen,1_3_2_0,2021-04-26T18:56:01.205Z,,,,,,,,,,,,,,,,,,,,,,,,,,,,,,,4253.7179999999935,,timeout,,,,,,,,,3,,,,,,,,I,O,S,,80489.16500000632,80488.308,76235.117,76245.00500000431,76247.818,80501.536,,,
Judgement,html.Screen,1_3_2_1,2021-04-26T18:56:02.034Z,,,,,,,,,,,,,,,,,,,,,,,,,,,,true,3,,815.9039999989036,,response,,,,,,,,,3,,3,click #choice-3,,,,,I,O,S,,81318.16500000423,81317.4399999989,80488.308,80489.37999999907,80501.536,81327.967,,,
Trial,flow.Sequence,1_3_2,2021-04-26T18:56:02.035Z,,,,,,,,,,,,,,,,,,,,,,,,,,,,,,,5069.621999998897,,completion,,,,,,,,,3,,,,,,,,I,O,S,,81318.37999999698,81317.4399999989,76235.117,76244.95500000194,76247.818,81327.967,,,
Sounds,html.Screen,1_3_3_0,2021-04-26T18:56:06.286Z,,,,,,,,,,,,,,,,,,,,,,,,,,,,,,,4253.239000000001,,timeout,,,,,,,,,2,,,,,,,,I,S,O,,85569.64499999594,85568.323,81314.78,81318.52000000072,81327.967,85581.206,,,
Judgement,html.Screen,1_3_3_1,2021-04-26T18:56:06.722Z,,,,,,,,,,,,,,,,,,,,,,,,,,,,true,2,,424.084000000963,,response,,,,,,,,,2,,2,click #choice-2,,,,,I,S,O,,86006.03999999294,86005.29000000097,85568.323,85570.06499999261,85581.206,86007.755,,,
Trial,flow.Sequence,1_3_3,2021-04-26T18:56:06.722Z,,,,,,,,,,,,,,,,,,,,,,,,,,,,,,,4677.323000000964,,completion,,,,,,,,,2,,,,,,,,I,S,O,,86006.25999999465,86005.29000000097,81314.78,81318.47499999276,81327.967,86007.755,,,
Sounds,html.Screen,1_3_4_0,2021-04-26T18:56:10.966Z,,,,,,,,,,,,,,,,,,,,,,,,,,,,,,,4253.52399999999,,timeout,,,,,,,,,1,,,,,,,,S,I,O,,90249.28999999247,90247.832,85994.641,86006.38999999501,86007.755,90261.279,,,
Judgement,html.Screen,1_3_4_1,2021-04-26T18:56:11.866Z,,,,,,,,,,,,,,,,,,,,,,,,,,,,true,1,,888.145999995977,,response,,,,,,,,,1,,1,click #choice-1,,,,,S,I,O,,91150.1500000013,91149.42499999597,90247.832,90249.66000000131,90261.279,91154.381,,,
Trial,flow.Sequence,1_3_4,2021-04-26T18:56:11.867Z,,,,,,,,,,,,,,,,,,,,,,,,,,,,,,,5141.669999995967,,completion,,,,,,,,,1,,,,,,,,S,I,O,,91150.34500000183,91149.42499999597,85994.641,86006.35500000499,86007.755,91154.381,,,
Sounds,html.Screen,1_3_5_0,2021-04-26T18:56:16.112Z,,,,,,,,,,,,,,,,,,,,,,,,,,,,,,,4253.644,,timeout,,,,,,,,,3,,,,,,,,O,I,S,,95395.45999999973,95394.477,91141.228,91150.4799999966,91154.381,95408.025,,,
Judgement,html.Screen,1_3_5_1,2021-04-26T18:56:16.666Z,,,,,,,,,,,,,,,,,,,,,,,,,,,,true,3,,541.3749999977008,,response,,,,,,,,,3,,3,click #choice-3,,,,,O,I,S,,95950.11499999964,95949.3999999977,95394.477,95395.7800000062,95408.025,95954.31,,,
Trial,flow.Sequence,1_3_5,2021-04-26T18:56:16.667Z,,,,,,,,,,,,,,,,,,,,,,,,,,,,,,,4795.018999997701,,completion,,,,,,,,,3,,,,,,,,O,I,S,,95950.30500000576,95949.3999999977,91141.228,91150.43999999762,91154.381,95954.31,,,
Task,flow.Loop,1_3,2021-04-26T18:56:16.671Z,,,,,,,,,,,,,,,,,,,,,,,,,,,,,,,31700.798999997693,,completion,,,1,,,,,,,,,,,,,,,,,,95954.73500000662,95949.3999999977,64234.91,64236.350000006496,64248.601,95954.31,,,
Trap,html.Screen,1_4,2021-04-26T18:56:16.672Z,,,,,,,,,,,,,,,,,,,,,,,,,,,,,,,NaN,,skipped,,,,,,,,,,,,,,,,,,,,,95956.08000000357,95949.3999999977,,95955.9600000066,,95954.31,,,
Thanks,html.Screen,1_5,2021-04-26T18:56:20.456Z,,,,,,,,,,,,,,,,,,,,,,,,,,,,,,,3785.095000000263,,response,,,,,,,,,,,continue,click button,,,,,,,,,99740.10999999882,99739.40500000026,95941.397,95956.25000000291,95954.31,101809.054,,,
Headphone screening,flow.Sequence,1,2021-04-26T18:56:20.457Z,,,,,,,,,,,,,,,,,,,,,,,,,,,,,,,80077.37300000025,,completion,,,,,,,,,,,,,,,,,,,,,99740.30000000494,99739.40500000026,19649.295,19659.23499999917,19662.032,101809.054,,,
Instructions,html.Page,2_0,2021-04-26T18:56:42.720Z,,,,,,,,,,,,,,,,,,,,,,,,,,,,,,,20194.7709999925,,form submission,,,,,,,,,,,,,,,,,,,,,122004.05000000319,122003.8249999925,101794.227,101811.05999999272,101809.054,122007.154,,,
Holding screen,html.Screen,2_1_0_0,2021-04-26T18:56:52.711Z,,,,,,,,,,,,,,,,,,,,,,,,,,,,,,,9999.808999999994,,timeout,,,,,,,,,,,,,,,,,,,,,131994.93000000075,131993.965,121994.334,122004.26499999594,122007.154,132006.963,,,
screen,html.Screen,2_1_0_1_0,2021-04-26T18:56:54.366Z,,,,,,,,,,,,,,,,,53,,,,,,,,,,,,,,1637.647000003024,,response,,,,99,,,,,,,Space,keypress(Space),,,,,,,,When -- ----- -- ------ - ------- --- ----------<br>------------- ------ ------ ---- ---- ------- ----- -- ----<br>-------- ------- -- ---------- --- - --- ----- ----- ----<br>---- --- --- ----- --- ---- ---- ------- ----- ---- -------<br>--- --- -- ----- -- --- ---- -- --- ---- -- ------ ------<br>--- ----- -- ----,133649.88500000618,133644.610000003,131993.965,131995.37999999302,132006.963,133661.023,,0,When
screen,html.Screen,2_1_0_1_1,2021-04-26T18:56:55.233Z,,,,,,,,,,,,,,,,,53,,,,,,,,,,,,,,854.5419999942533,,response,,,,99,,,,,,,Space,keypress(Space),,,,,,,,---- it ----- -- ------ - ------- --- ----------<br>------------- ------ ------ ---- ---- ------- ----- -- ----<br>-------- ------- -- ---------- --- - --- ----- ----- ----<br>---- --- --- ----- --- ---- ---- ------- ----- ---- -------<br>--- --- -- ----- -- --- ---- -- --- ---- -- ------ ------<br>--- ----- -- ----,134516.48999999452,134515.56499999424,133647.416,133650.14499999234,133661.023,134527.013,,1,it
screen,html.Screen,2_1_0_1_2,2021-04-26T18:56:56.025Z,,,,,,,,,,,,,,,,,53,,,,,,,,,,,,,,780.761999993847,,response,,,,99,,,,,,,Space,keypress(Space),,,,,,,,---- -- comes -- ------ - ------- --- ----------<br>------------- ------ ------ ---- ---- ------- ----- -- ----<br>-------- ------- -- ---------- --- - --- ----- ----- ----<br>---- --- --- ----- --- ---- ---- ------- ----- ---- -------<br>--- --- -- ----- -- --- ---- -- --- ---- -- ------ ------<br>--- ----- -- ----,135308.7200000009,135307.77499999385,134513.552,134516.8149999954,134527.013,135313.661,,2,comes
screen,html.Screen,2_1_0_1_3,2021-04-26T18:56:56.473Z,,,,,,,,,,,,,,,,,53,,,,,,,,,,,,,,441.9240000062564,,response,,,,99,,,,,,,Space,keypress(Space),,,,,,,,---- -- ----- to ------ - ------- --- ----------<br>------------- ------ ------ ---- ---- ------- ----- -- ----<br>-------- ------- -- ---------- --- - --- ----- ----- ----<br>---- --- --- ----- --- ---- ---- ------- ----- ---- -------<br>--- --- -- ----- -- --- ---- -- --- ---- -- ------ ------<br>--- ----- -- ----,135756.56999999774,135755.58500000625,135300.689,135309.02499999502,135313.661,135767.093,,3,to
screen,html.Screen,2_1_0_1_4,2021-04-26T18:56:56.881Z,,,,,,,,,,,,,,,,,53,,,,,,,,,,,,,,396.84699999855366,,response,,,,99,,,,,,,Space,keypress(Space),,,,,,,,---- -- ----- -- having - ------- --- ----------<br>------------- ------ ------ ---- ---- ------- ----- -- ----<br>-------- ------- -- ---------- --- - --- ----- ----- ----<br>---- --- --- ----- --- ---- ---- ------- ----- ---- -------<br>--- --- -- ----- -- --- ---- -- --- ---- -- ------ ------<br>--- ----- -- ----,136164.81000000203,136163.93999999855,135754.124,135756.88499999524,135767.093,136167.009,,4,having
screen,html.Screen,2_1_0_1_5,2021-04-26T18:56:57.273Z,,,,,,,,,,,,,,,,,53,,,,,,,,,,,,,,388.61599999360624,,response,,,,99,,,,,,,Space,keypress(Space),,,,,,,,---- -- ----- -- ------ a ------- --- ----------<br>------------- ------ ------ ---- ---- ------- ----- -- ----<br>-------- ------- -- ---------- --- - --- ----- ----- ----<br>---- --- --- ----- --- ---- ---- ------- ----- ---- -------<br>--- --- -- ----- -- --- ---- -- --- ---- -- ------ ------<br>--- ----- -- ----,136556.5249999927,136555.6249999936,136154.147,136165.15000000072,136167.009,136567.475,,5,a
screen,html.Screen,2_1_0_1_6,2021-04-26T18:56:57.769Z,,,,,,,,,,,,,,,,,53,,,,,,,,,,,,,,484.4550000014424,,response,,,,99,,,,,,,Space,keypress(Space),,,,,,,,---- -- ----- -- ------ - lasting --- ----------<br>------------- ------ ------ ---- ---- ------- ----- -- ----<br>-------- ------- -- ---------- --- - --- ----- ----- ----<br>---- --- --- ----- --- ---- ---- ------- ----- ---- -------<br>--- --- -- ----- -- --- ---- -- --- ---- -- ------ ------<br>--- ----- -- ----,137052.81500000274,137051.93000000145,136554.127,136556.84499999916,136567.475,137060.294,,6,lasting
screen,html.Screen,2_1_0_1_7,2021-04-26T18:56:58.273Z,,,,,,,,,,,,,,,,,53,,,,,,,,,,,,,,495.3959999937797,,response,,,,99,,,,,,,Space,keypress(Space),,,,,,,,---- -- ----- -- ------ - ------- and ----------<br>------------- ------ ------ ---- ---- ------- ----- -- ----<br>-------- ------- -- ---------- --- - --- ----- ----- ----<br>---- --- --- ----- --- ---- ---- ------- ----- ---- -------<br>--- --- -- ----- -- --- ---- -- --- ---- -- ------ ------<br>--- ----- -- ----,137556.62499999744,137555.68999999377,137047.466,137053.13499999465,137060.294,137567.449,,7,and
screen,html.Screen,2_1_0_1_8,2021-04-26T18:56:58.705Z,,,,,,,,,,,,,,,,,53,,,,,,,,,,,,,,420.5259999963746,,response,,,,99,,,,,,,Space,keypress(Space),,,,,,,,---- -- ----- -- ------ - ------- --- fulfilling<br>------------- ------ ------ ---- ---- ------- ----- -- ----<br>-------- ------- -- ---------- --- - --- ----- ----- ----<br>---- --- --- ----- --- ---- ---- ------- ----- ---- -------<br>--- --- -- ----- -- --- ---- -- --- ---- -- ------ ------<br>--- ----- -- ----,137988.92499999783,137987.97499999637,137553.93,137556.93500000052,137567.449,137993.876,,8,fulfilling
screen,html.Screen,2_1_0_1_9,2021-04-26T18:56:59.745Z,,,,,,,,,,,,,,,,,53,,,,,,,,,,,,,,1034.0890000011423,,response,,,,99,,,,,,,Space,keypress(Space),,,,,,,,"---- -- ----- -- ------ - ------- --- ----------<br>relationship, ------ ------ ---- ---- ------- ----- -- ----<br>-------- ------- -- ---------- --- - --- ----- ----- ----<br>---- --- --- ----- --- ---- ---- ------- ----- ---- -------<br>--- --- -- ----- -- --- ---- -- --- ---- -- ------ ------<br>--- ----- -- ----",139028.96500000497,139027.96500000113,137980.823,137989.23999999533,137993.876,139033.605,,9,"relationship,"
screen,html.Screen,2_1_0_1_10,2021-04-26T18:57:00.201Z,,,,,,,,,,,,,,,,,53,,,,,,,,,,,,,,450.36500000112574,,response,,,,99,,,,,,,Space,keypress(Space),,,,,,,,---- -- ----- -- ------ - ------- --- ----------<br>------------- common ------ ---- ---- ------- ----- -- ----<br>-------- ------- -- ---------- --- - --- ----- ----- ----<br>---- --- --- ----- --- ---- ---- ------- ----- ---- -------<br>--- --- -- ----- -- --- ---- -- --- ---- -- ------ ------<br>--- ----- -- ----,139484.90999999922,139483.97000000114,139020.744,139029.28000000247,139033.605,139486.95,,10,common
screen,html.Screen,2_1_0_1_11,2021-04-26T18:57:00.617Z,,,,,,,,,,,,,,,,,53,,,,,,,,,,,,,,412.8149999946472,,response,,,,99,,,,,,,Space,keypress(Space),,,,,,,,---- -- ----- -- ------ - ------- --- ----------<br>------------- ------ wisdom ---- ---- ------- ----- -- ----<br>-------- ------- -- ---------- --- - --- ----- ----- ----<br>---- --- --- ----- --- ---- ---- ------- ----- ---- -------<br>--- --- -- ----- -- --- ---- -- --- ---- -- ------ ------<br>--- ----- -- ----,139900.7649999985,139899.76499999466,139473.657,139485.2450000035,139486.95,139914.123,,11,wisdom
screen,html.Screen,2_1_0_1_12,2021-04-26T18:57:01.057Z,,,,,,,,,,,,,,,,,53,,,,,,,,,,,,,,425.8869999999006,,response,,,,99,,,,,,,Space,keypress(Space),,,,,,,,---- -- ----- -- ------ - ------- --- ----------<br>------------- ------ ------ says ---- ------- ----- -- ----<br>-------- ------- -- ---------- --- - --- ----- ----- ----<br>---- --- --- ----- --- ---- ---- ------- ----- ---- -------<br>--- --- -- ----- -- --- ---- -- --- ---- -- ------ ------<br>--- ----- -- ----,140341.05000000272,140340.0099999999,139900.77,139901.07500000158,139914.123,140354.091,,12,says
screen,html.Screen,2_1_0_1_13,2021-04-26T18:57:01.433Z,,,,,,,,,,,,,,,,,53,,,,,,,,,,,,,,361.418999994552,,response,,,,99,,,,,,,Space,keypress(Space),,,,,,,,---- -- ----- -- ------ - ------- --- ----------<br>------------- ------ ------ ---- that ------- ----- -- ----<br>-------- ------- -- ---------- --- - --- ----- ----- ----<br>---- --- --- ----- --- ---- ---- ------- ----- ---- -------<br>--- --- -- ----- -- --- ---- -- --- ---- -- ------ ------<br>--- ----- -- ----,140716.52499999618,140715.50999999454,140340.12,140341.3600000058,140354.091,140727.435,,13,that
screen,html.Screen,2_1_0_1_14,2021-04-26T18:57:01.665Z,,,,,,,,,,,,,,,,,53,,,,,,,,,,,,,,220.49000000039814,,response,,,,99,,,,,,,Space,keypress(Space),,,,,,,,---- -- ----- -- ------ - ------- --- ----------<br>------------- ------ ------ ---- ---- feeling ----- -- ----<br>-------- ------- -- ---------- --- - --- ----- ----- ----<br>---- --- --- ----- --- ---- ---- ------- ----- ---- -------<br>--- --- -- ----- -- --- ---- -- --- ---- -- ------ ------<br>--- ----- -- ----,140948.89499999408,140947.9250000004,140713.484,140716.84500000265,140727.435,140953.608,,14,feeling
screen,html.Screen,2_1_0_1_15,2021-04-26T18:57:02.073Z,,,,,,,,,,,,,,,,,53,,,,,,,,,,,,,,401.98700000089593,,response,,,,99,,,,,,,Space,keypress(Space),,,,,,,,---- -- ----- -- ------ - ------- --- ----------<br>------------- ------ ------ ---- ---- ------- close -- ----<br>-------- ------- -- ---------- --- - --- ----- ----- ----<br>---- --- --- ----- --- ---- ---- ------- ----- ---- -------<br>--- --- -- ----- -- --- ---- -- --- ---- -- ------ ------<br>--- ----- -- ----,141356.52000000118,141355.5950000009,140940.668,140949.21000000613,140953.608,141366.99,,15,close
screen,html.Screen,2_1_0_1_16,2021-04-26T18:57:02.392Z,,,,,,,,,,,,,,,,,53,,,,,,,,,,,,,,308.29999999923166,,response,,,,99,,,,,,,Space,keypress(Space),,,,,,,,---- -- ----- -- ------ - ------- --- ----------<br>------------- ------ ------ ---- ---- ------- ----- to ----<br>-------- ------- -- ---------- --- - --- ----- ----- ----<br>---- --- --- ----- --- ---- ---- ------- ----- ---- -------<br>--- --- -- ----- -- --- ---- -- --- ---- -- ------ ------<br>--- ----- -- ----,141675.99000000337,141675.28999999922,141354.06,141356.8399999931,141366.99,141687.4,,16,to
screen,html.Screen,2_1_0_1_17,2021-04-26T18:57:02.721Z,,,,,,,,,,,,,,,,,53,,,,,,,,,,,,,,316.6100000042061,,response,,,,99,,,,,,,Space,keypress(Space),,,,,,,,---- -- ----- -- ------ - ------- --- ----------<br>------------- ------ ------ ---- ---- ------- ----- -- your<br>-------- ------- -- ---------- --- - --- ----- ----- ----<br>---- --- --- ----- --- ---- ---- ------- ----- ---- -------<br>--- --- -- ----- -- --- ---- -- --- ---- -- ------ ------<br>--- ----- -- ----,142004.9799999979,142004.0100000042,141673.734,141676.20499999612,141687.4,142006.883,,17,your
screen,html.Screen,2_1_0_1_18,2021-04-26T18:57:03.033Z,,,,,,,,,,,,,,,,,53,,,,,,,,,,,,,,308.5269999956072,,response,,,,99,,,,,,,Space,keypress(Space),,,,,,,,---- -- ----- -- ------ - ------- --- ----------<br>------------- ------ ------ ---- ---- ------- ----- -- ----<br>romantic ------- -- ---------- --- - --- ----- ----- ----<br>---- --- --- ----- --- ---- ---- ------- ----- ---- -------<br>--- --- -- ----- -- --- ---- -- --- ---- -- ------ ------<br>--- ----- -- ----,142316.37000000046,142315.4099999956,141993.589,142005.30000000435,142006.883,142327.378,,18,romantic
screen,html.Screen,2_1_0_1_19,2021-04-26T18:57:03.376Z,,,,,,,,,,,,,,,,,53,,,,,,,,,,,,,,332.1270000032673,,response,,,,99,,,,,,,Space,keypress(Space),,,,,,,,---- -- ----- -- ------ - ------- --- ----------<br>------------- ------ ------ ---- ---- ------- ----- -- ----<br>-------- partner -- ---------- --- - --- ----- ----- ----<br>---- --- --- ----- --- ---- ---- ------- ----- ---- -------<br>--- --- -- ----- -- --- ---- -- --- ---- -- ------ ------<br>--- ----- -- ----,142660.0299999991,142659.50500000326,142313.926,142316.69500000135,142327.378,142674.007,,19,partner
screen,html.Screen,2_1_0_1_20,2021-04-26T18:57:03.721Z,,,,,,,,,,,,,,,,,53,,,,,,,,,,,,,,329.9630000051984,,response,,,,99,,,,,,,Space,keypress(Space),,,,,,,,---- -- ----- -- ------ - ------- --- ----------<br>------------- ------ ------ ---- ---- ------- ----- -- ----<br>-------- ------- is ---------- --- - --- ----- ----- ----<br>---- --- --- ----- --- ---- ---- ------- ----- ---- -------<br>--- --- -- ----- -- --- ---- -- --- ---- -- ------ ------<br>--- ----- -- ----,143005.07499999367,143003.9700000052,142647.216,142660.16499999387,142674.007,143031.081,,20,is
screen,html.Screen,2_1_0_1_21,2021-04-26T18:57:04.113Z,,,,,,,,,,,,,,,,,53,,,,,,,,,,,,,,364.5239999978803,,response,,,,99,,,,,,,Space,keypress(Space),,,,,,,,---- -- ----- -- ------ - ------- --- ----------<br>------------- ------ ------ ---- ---- ------- ----- -- ----<br>-------- ------- -- paramount. --- - --- ----- ----- ----<br>---- --- --- ----- --- ---- ---- ------- ----- ---- -------<br>--- --- -- ----- -- --- ---- -- --- ---- -- ------ ------<br>--- ----- -- ----,143396.58000000054,143395.6049999979,142994.04,143005.4300000047,143031.081,143407.333,,21,paramount.
screen,html.Screen,2_1_0_1_22,2021-04-26T18:57:04.585Z,,,,,,,,,,,,,,,,,53,,,,,,,,,,,,,,460.9370000062918,,response,,,,99,,,,,,,Space,keypress(Space),,,,,,,,---- -- ----- -- ------ - ------- --- ----------<br>------------- ------ ------ ---- ---- ------- ----- -- ----<br>-------- ------- -- ---------- But - --- ----- ----- ----<br>---- --- --- ----- --- ---- ---- ------- ----- ---- -------<br>--- --- -- ----- -- --- ---- -- --- ---- -- ------ ------<br>--- ----- -- ----,143869.10999999964,143868.2700000063,143393.989,143396.89499999804,143407.333,143873.567,,22,But
screen,html.Screen,2_1_0_1_23,2021-04-26T18:57:04.873Z,,,,,,,,,,,,,,,,,53,,,,,,,,,,,,,,281.927999999054,,response,,,,99,,,,,,,Space,keypress(Space),,,,,,,,---- -- ----- -- ------ - ------- --- ----------<br>------------- ------ ------ ---- ---- ------- ----- -- ----<br>-------- ------- -- ---------- --- a --- ----- ----- ----<br>---- --- --- ----- --- ---- ---- ------- ----- ---- -------<br>--- --- -- ----- -- --- ---- -- --- ---- -- ------ ------<br>--- ----- -- ----,144156.52999999293,144155.49499999906,143860.662,143869.36500000593,143873.567,144167.317,,23,a
screen,html.Screen,2_1_0_1_24,2021-04-26T18:57:05.057Z,,,,,,,,,,,,,,,,,53,,,,,,,,,,,,,,172.66799999869545,,response,,,,99,,,,,,,Space,keypress(Space),,,,,,,,---- -- ----- -- ------ - ------- --- ----------<br>------------- ------ ------ ---- ---- ------- ----- -- ----<br>-------- ------- -- ---------- --- - new ----- ----- ----<br>---- --- --- ----- --- ---- ---- ------- ----- ---- -------<br>--- --- -- ----- -- --- ---- -- --- ---- -- ------ ------<br>--- ----- -- ----,144340.96000000136,144339.9849999987,144153.76,144156.84500000498,144167.317,144354.043,,24,new
screen,html.Screen,2_1_0_1_25,2021-04-26T18:57:05.201Z,,,,,,,,,,,,,,,,,53,,,,,,,,,,,,,,129.72700000618352,,response,,,,99,,,,,,,Space,keypress(Space),,,,,,,,---- -- ----- -- ------ - ------- --- ----------<br>------------- ------ ------ ---- ---- ------- ----- -- ----<br>-------- ------- -- ---------- --- - --- study ----- ----<br>---- --- --- ----- --- ---- ---- ------- ----- ---- -------<br>--- --- -- ----- -- --- ---- -- --- ---- -- ------ ------<br>--- ----- -- ----,144484.81999999785,144483.7700000062,144340.294,144341.28500000224,144354.043,144486.879,,25,study
screen,html.Screen,2_1_0_1_26,2021-04-26T18:57:05.585Z,,,,,,,,,,,,,,,,,53,,,,,,,,,,,,,,381.0260000064445,,response,,,,99,,,,,,,Space,keypress(Space),,,,,,,,---- -- ----- -- ------ - ------- --- ----------<br>------------- ------ ------ ---- ---- ------- ----- -- ----<br>-------- ------- -- ---------- --- - --- ----- finds ----<br>---- --- --- ----- --- ---- ---- ------- ----- ---- -------<br>--- --- -- ----- -- --- ---- -- --- ---- -- ------ ------<br>--- ----- -- ----,144868.9250000025,144867.90500000643,144473.516,144485.13000000094,144486.879,144873.559,,26,finds
screen,html.Screen,2_1_0_1_27,2021-04-26T18:57:05.897Z,,,,,,,,,,,,,,,,,53,,,,,,,,,,,,,,306.00100000412203,,response,,,,99,,,,,,,Space,keypress(Space),,,,,,,,---- -- ----- -- ------ - ------- --- ----------<br>------------- ------ ------ ---- ---- ------- ----- -- ----<br>-------- ------- -- ---------- --- - --- ----- ----- that<br>---- --- --- ----- --- ---- ---- ------- ----- ---- -------<br>--- --- -- ----- -- --- ---- -- --- ---- -- ------ ------<br>--- ----- -- ----,145180.76000000292,145179.56000000413,144860.661,144869.24,144873.559,145193.978,,27,that
screen,html.Screen,2_1_0_1_28,2021-04-26T18:57:06.345Z,,,,,,,,,,,,,,,,,53,,,,,,,,,,,,,,433.76700000523124,,response,,,,99,,,,,,,Space,keypress(Space),,,,,,,,---- -- ----- -- ------ - ------- --- ----------<br>------------- ------ ------ ---- ---- ------- ----- -- ----<br>-------- ------- -- ---------- --- - --- ----- ----- ----<br>it's --- --- ----- --- ---- ---- ------- ----- ---- -------<br>--- --- -- ----- -- --- ---- -- --- ---- -- ------ ------<br>--- ----- -- ----,145628.71999999334,145627.74500000523,145180.68,145180.93499999668,145193.978,145633.493,,28,it's
screen,html.Screen,2_1_0_1_29,2021-04-26T18:57:06.633Z,,,,,,,,,,,,,,,,,53,,,,,,,,,,,,,,282.1870000055351,,response,,,,99,,,,,,,Space,keypress(Space),,,,,,,,---- -- ----- -- ------ - ------- --- ----------<br>------------- ------ ------ ---- ---- ------- ----- -- ----<br>-------- ------- -- ---------- --- - --- ----- ----- ----<br>---- not --- ----- --- ---- ---- ------- ----- ---- -------<br>--- --- -- ----- -- --- ---- -- --- ---- -- ------ ------<br>--- ----- -- ----,145916.68500000378,145915.68000000552,145620.558,145629.0399999998,145633.493,145927.274,,29,not
screen,html.Screen,2_1_0_1_30,2021-04-26T18:57:06.905Z,,,,,,,,,,,,,,,,,53,,,,,,,,,,,,,,260.6510000056296,,response,,,,99,,,,,,,Space,keypress(Space),,,,,,,,---- -- ----- -- ------ - ------- --- ----------<br>------------- ------ ------ ---- ---- ------- ----- -- ----<br>-------- ------- -- ---------- --- - --- ----- ----- ----<br>---- --- how ----- --- ---- ---- ------- ----- ---- -------<br>--- --- -- ----- -- --- ---- -- --- ---- -- ------ ------<br>--- ----- -- ----,146188.87499999255,146187.92500000563,145913.986,145917.01000000467,145927.274,146193.47,,30,how
screen,html.Screen,2_1_0_1_31,2021-04-26T18:57:07.193Z,,,,,,,,,,,,,,,,,53,,,,,,,,,,,,,,282.13499999963096,,response,,,,99,,,,,,,Space,keypress(Space),,,,,,,,---- -- ----- -- ------ - ------- --- ----------<br>------------- ------ ------ ---- ---- ------- ----- -- ----<br>-------- ------- -- ---------- --- - --- ----- ----- ----<br>---- --- --- close --- ---- ---- ------- ----- ---- -------<br>--- --- -- ----- -- --- ---- -- --- ---- -- ------ ------<br>--- ----- -- ----,146476.62000000128,146475.60499999963,146180.592,146189.18000000122,146193.47,146487.347,,31,close
screen,html.Screen,2_1_0_1_32,2021-04-26T18:57:07.457Z,,,,,,,,,,,,,,,,,53,,,,,,,,,,,,,,252.55799999489682,,response,,,,99,,,,,,,Space,keypress(Space),,,,,,,,---- -- ----- -- ------ - ------- --- ----------<br>------------- ------ ------ ---- ---- ------- ----- -- ----<br>-------- ------- -- ---------- --- - --- ----- ----- ----<br>---- --- --- ----- you ---- ---- ------- ----- ---- -------<br>--- --- -- ----- -- --- ---- -- --- ---- -- ------ ------<br>--- ----- -- ----,146740.90499999875,146739.9049999949,146474.018,146476.9249999954,146487.347,146753.738,,32,you
screen,html.Screen,2_1_0_1_33,2021-04-26T18:57:07.705Z,,,,,,,,,,,,,,,,,53,,,,,,,,,,,,,,234.1020000015851,,response,,,,99,,,,,,,Space,keypress(Space),,,,,,,,---- -- ----- -- ------ - ------- --- ----------<br>------------- ------ ------ ---- ---- ------- ----- -- ----<br>-------- ------- -- ---------- --- - --- ----- ----- ----<br>---- --- --- ----- --- feel ---- ------- ----- ---- -------<br>--- --- -- ----- -- --- ---- -- --- ---- -- ------ ------<br>--- ----- -- ----,146988.84000000544,146987.8400000016,146740.475,146741.22500000522,146753.738,146993.513,,33,feel
screen,html.Screen,2_1_0_1_34,2021-04-26T18:57:08.017Z,,,,,,,,,,,,,,,,,53,,,,,,,,,,,,,,306.4870000029041,,response,,,,99,,,,,,,Space,keypress(Space),,,,,,,,---- -- ----- -- ------ - ------- --- ----------<br>------------- ------ ------ ---- ---- ------- ----- -- ----<br>-------- ------- -- ---------- --- - --- ----- ----- ----<br>---- --- --- ----- --- ---- that ------- ----- ---- -------<br>--- --- -- ----- -- --- ---- -- --- ---- -- ------ ------<br>--- ----- -- ----,147301.01999999897,147300.0000000029,146980.131,146989.15500000294,146993.513,147314.03,,34,that
screen,html.Screen,2_1_0_1_35,2021-04-26T18:57:08.369Z,,,,,,,,,,,,,,,,,53,,,,,,,,,,,,,,337.5949999986042,,response,,,,99,,,,,,,Space,keypress(Space),,,,,,,,---- -- ----- -- ------ - ------- --- ----------<br>------------- ------ ------ ---- ---- ------- ----- -- ----<br>-------- ------- -- ---------- --- - --- ----- ----- ----<br>---- --- --- ----- --- ---- ---- matters ----- ---- -------<br>--- --- -- ----- -- --- ---- -- --- ---- -- ------ ------<br>--- ----- -- ----,147652.34000000055,147651.6249999986,147300.647,147301.33499999647,147314.03,147660.301,,35,matters
screen,html.Screen,2_1_0_1_36,2021-04-26T18:57:08.753Z,,,,,,,,,,,,,,,,,53,,,,,,,,,,,,,,375.1840000003285,,response,,,,99,,,,,,,Space,keypress(Space),,,,,,,,"---- -- ----- -- ------ - ------- --- ----------<br>------------- ------ ------ ---- ---- ------- ----- -- ----<br>-------- ------- -- ---------- --- - --- ----- ----- ----<br>---- --- --- ----- --- ---- ---- ------- most, ---- -------<br>--- --- -- ----- -- --- ---- -- --- ---- -- ------ ------<br>--- ----- -- ----",148036.47000000637,148035.48500000034,147646.814,147653.47000000475,147660.301,148047.322,,36,"most,"
screen,html.Screen,2_1_0_1_37,2021-04-26T18:57:09.185Z,,,,,,,,,,,,,,,,,53,,,,,,,,,,,,,,420.4580000063288,,response,,,,99,,,,,,,Space,keypress(Space),,,,,,,,---- -- ----- -- ------ - ------- --- ----------<br>------------- ------ ------ ---- ---- ------- ----- -- ----<br>-------- ------- -- ---------- --- - --- ----- ----- ----<br>---- --- --- ----- --- ---- ---- ------- ----- it's -------<br>--- --- -- ----- -- --- ---- -- --- ---- -- ------ ------<br>--- ----- -- ----,148468.77000000677,148467.7800000063,148033.968,148036.78500000387,148047.322,148473.49,,37,it's
screen,html.Screen,2_1_0_1_38,2021-04-26T18:57:09.385Z,,,,,,,,,,,,,,,,,53,,,,,,,,,,,,,,194.35500000359025,,response,,,,99,,,,,,,Space,keypress(Space),,,,,,,,---- -- ----- -- ------ - ------- --- ----------<br>------------- ------ ------ ---- ---- ------- ----- -- ----<br>-------- ------- -- ---------- --- - --- ----- ----- ----<br>---- --- --- ----- --- ---- ---- ------- ----- ---- whether<br>--- --- -- ----- -- --- ---- -- --- ---- -- ------ ------<br>--- ----- -- ----,148668.81499999727,148667.84500000358,148460.233,148469.07500000088,148473.49,148673.492,,38,whether
screen,html.Screen,2_1_0_1_39,2021-04-26T18:57:09.641Z,,,,,,,,,,,,,,,,,53,,,,,,,,,,,,,,250.5629999958619,,response,,,,99,,,,,,,Space,keypress(Space),,,,,,,,---- -- ----- -- ------ - ------- --- ----------<br>------------- ------ ------ ---- ---- ------- ----- -- ----<br>-------- ------- -- ---------- --- - --- ----- ----- ----<br>---- --- --- ----- --- ---- ---- ------- ----- ---- -------<br>you --- -- ----- -- --- ---- -- --- ---- -- ------ ------<br>--- ----- -- ----,148925.0299999985,148924.05499999586,148660.58,148669.12000000593,148673.492,148941.657,,39,you
screen,html.Screen,2_1_0_1_40,2021-04-26T18:57:09.849Z,,,,,,,,,,,,,,,,,53,,,,,,,,,,,,,,190.40300000354182,,response,,,,99,,,,,,,Space,keypress(Space),,,,,,,,---- -- ----- -- ------ - ------- --- ----------<br>------------- ------ ------ ---- ---- ------- ----- -- ----<br>-------- ------- -- ---------- --- - --- ----- ----- ----<br>---- --- --- ----- --- ---- ---- ------- ----- ---- -------<br>--- are -- ----- -- --- ---- -- --- ---- -- ------ ------<br>--- ----- -- ----,149133.00000000163,149132.06000000355,148913.757,148925.344999996,148941.657,149140.218,,40,are
screen,html.Screen,2_1_0_1_41,2021-04-26T18:57:10.057Z,,,,,,,,,,,,,,,,,53,,,,,,,,,,,,,,199.7120000019204,,response,,,,99,,,,,,,Space,keypress(Space),,,,,,,,---- -- ----- -- ------ - ------- --- ----------<br>------------- ------ ------ ---- ---- ------- ----- -- ----<br>-------- ------- -- ---------- --- - --- ----- ----- ----<br>---- --- --- ----- --- ---- ---- ------- ----- ---- -------<br>--- --- as ----- -- --- ---- -- --- ---- -- ------ ------<br>--- ----- -- ----,149340.90500000457,149339.9300000019,149127.279,149133.3100000047,149140.218,149353.559,,41,as
screen,html.Screen,2_1_0_1_42,2021-04-26T18:57:10.281Z,,,,,,,,,,,,,,,,,53,,,,,,,,,,,,,,210.40599999390543,,response,,,,99,,,,,,,Space,keypress(Space),,,,,,,,---- -- ----- -- ------ - ------- --- ----------<br>------------- ------ ------ ---- ---- ------- ----- -- ----<br>-------- ------- -- ---------- --- - --- ----- ----- ----<br>---- --- --- ----- --- ---- ---- ------- ----- ---- -------<br>--- --- -- close -- --- ---- -- --- ---- -- ------ ------<br>--- ----- -- ----,149564.92000000435,149563.9649999939,149340.571,149341.22000000207,149353.559,149596.495,,42,close
screen,html.Screen,2_1_0_1_43,2021-04-26T18:57:10.504Z,,,,,,,,,,,,,,,,,53,,,,,,,,,,,,,,191.0200000036275,,response,,,,99,,,,,,,Space,keypress(Space),,,,,,,,---- -- ----- -- ------ - ------- --- ----------<br>------------- ------ ------ ---- ---- ------- ----- -- ----<br>-------- ------- -- ---------- --- - --- ----- ----- ----<br>---- --- --- ----- --- ---- ---- ------- ----- ---- -------<br>--- --- -- ----- as --- ---- -- --- ---- -- ------ ------<br>--- ----- -- ----,149788.06500000064,149787.51500000362,149553.789,149565.23999999627,149596.495,149793.672,,43,as
screen,html.Screen,2_1_0_1_44,2021-04-26T18:57:10.753Z,,,,,,,,,,,,,,,,,53,,,,,,,,,,,,,,241.95300000408315,,response,,,,99,,,,,,,Space,keypress(Space),,,,,,,,---- -- ----- -- ------ - ------- --- ----------<br>------------- ------ ------ ---- ---- ------- ----- -- ----<br>-------- ------- -- ---------- --- - --- ----- ----- ----<br>---- --- --- ----- --- ---- ---- ------- ----- ---- -------<br>--- --- -- ----- -- you ---- -- --- ---- -- ------ ------<br>--- ----- -- ----,150036.60000000673,150035.62500000407,149780.612,149788.2099999988,149793.672,150047.328,,44,you
screen,html.Screen,2_1_0_1_45,2021-04-26T18:57:10.961Z,,,,,,,,,,,,,,,,,53,,,,,,,,,,,,,,196.7319999972533,,response,,,,99,,,,,,,Space,keypress(Space),,,,,,,,---- -- ----- -- ------ - ------- --- ----------<br>------------- ------ ------ ---- ---- ------- ----- -- ----<br>-------- ------- -- ---------- --- - --- ----- ----- ----<br>---- --- --- ----- --- ---- ---- ------- ----- ---- -------<br>--- --- -- ----- -- --- want -- --- ---- -- ------ ------<br>--- ----- -- ----,150245.07999999332,150244.05999999726,150033.699,150036.91500000423,150047.328,150263.969,,45,want
screen,html.Screen,2_1_0_1_46,2021-04-26T18:57:11.184Z,,,,,,,,,,,,,,,,,53,,,,,,,,,,,,,,203.52600000440725,,response,,,,99,,,,,,,Space,keypress(Space),,,,,,,,---- -- ----- -- ------ - ------- --- ----------<br>------------- ------ ------ ---- ---- ------- ----- -- ----<br>-------- ------- -- ---------- --- - --- ----- ----- ----<br>---- --- --- ----- --- ---- ---- ------- ----- ---- -------<br>--- --- -- ----- -- --- ---- to --- ---- -- ------ ------<br>--- ----- -- ----,150467.99999999348,150467.49500000442,150233.907,150245.3899999964,150263.969,150473.656,,46,to
screen,html.Screen,2_1_0_1_47,2021-04-26T18:57:11.473Z,,,,,,,,,,,,,,,,,53,,,,,,,,,,,,,,282.1940000013856,,response,,,,99,,,,,,,Space,keypress(Space),,,,,,,,"---- -- ----- -- ------ - ------- --- ----------<br>------------- ------ ------ ---- ---- ------- ----- -- ----<br>-------- ------- -- ---------- --- - --- ----- ----- ----<br>---- --- --- ----- --- ---- ---- ------- ----- ---- -------<br>--- --- -- ----- -- --- ---- -- be, ---- -- ------ ------<br>--- ----- -- ----",150756.85499999963,150755.85000000137,150460.594,150468.1350000028,150473.656,150767.312,,47,"be,"
screen,html.Screen,2_1_0_1_48,2021-04-26T18:57:11.897Z,,,,,,,,,,,,,,,,,53,,,,,,,,,,,,,,412.65300000298885,,response,,,,99,,,,,,,Space,keypress(Space),,,,,,,,---- -- ----- -- ------ - ------- --- ----------<br>------------- ------ ------ ---- ---- ------- ----- -- ----<br>-------- ------- -- ---------- --- - --- ----- ----- ----<br>---- --- --- ----- --- ---- ---- ------- ----- ---- -------<br>--- --- -- ----- -- --- ---- -- --- even -- ------ ------<br>--- ----- -- ----,151180.93000000226,151179.965000003,150753.91,150757.16999999713,150767.312,151193.95,,48,even
screen,html.Screen,2_1_0_1_49,2021-04-26T18:57:12.168Z,,,,,,,,,,,,,,,,,53,,,,,,,,,,,,,,256.980000006326,,response,,,,99,,,,,,,Space,keypress(Space),,,,,,,,---- -- ----- -- ------ - ------- --- ----------<br>------------- ------ ------ ---- ---- ------- ----- -- ----<br>-------- ------- -- ---------- --- - --- ----- ----- ----<br>---- --- --- ----- --- ---- ---- ------- ----- ---- -------<br>--- --- -- ----- -- --- ---- -- --- ---- if ------ ------<br>--- ----- -- ----,151451.3799999986,151450.93000000634,151180.511,151181.24499999976,151193.95,151460.046,,49,if
screen,html.Screen,2_1_0_1_50,2021-04-26T18:57:12.401Z,,,,,,,,,,,,,,,,,53,,,,,,,,,,,,,,223.7890000034531,,response,,,,99,,,,,,,Space,keypress(Space),,,,,,,,---- -- ----- -- ------ - ------- --- ----------<br>------------- ------ ------ ---- ---- ------- ----- -- ----<br>-------- ------- -- ---------- --- - --- ----- ----- ----<br>---- --- --- ----- --- ---- ---- ------- ----- ---- -------<br>--- --- -- ----- -- --- ---- -- --- ---- -- that's ------<br>--- ----- -- ----,151684.81999999494,151683.83500000346,151446.664,151451.4749999944,151460.046,151686.746,,50,that's
screen,html.Screen,2_1_0_1_51,2021-04-26T18:57:12.657Z,,,,,,,,,,,,,,,,,53,,,,,,,,,,,,,,253.17400000433554,,response,,,,99,,,,,,,Space,keypress(Space),,,,,,,,---- -- ----- -- ------ - ------- --- ----------<br>------------- ------ ------ ---- ---- ------- ----- -- ----<br>-------- ------- -- ---------- --- - --- ----- ----- ----<br>---- --- --- ----- --- ---- ---- ------- ----- ---- -------<br>--- --- -- ----- -- --- ---- -- --- ---- -- ------ really<br>--- ----- -- ----,151940.9549999982,151939.92000000435,151673.825,151685.1400000014,151686.746,151953.759,,51,really
screen,html.Screen,2_1_0_1_52,2021-04-26T18:57:13.161Z,,,,,,,,,,,,,,,,,53,,,,,,,,,,,,,,490.17600000297534,,response,,,,99,,,,,,,Space,keypress(Space),,,,,,,,---- -- ----- -- ------ - ------- --- ----------<br>------------- ------ ------ ---- ---- ------- ----- -- ----<br>-------- ------- -- ---------- --- - --- ----- ----- ----<br>---- --- --- ----- --- ---- ---- ------- ----- ---- -------<br>--- --- -- ----- -- --- ---- -- --- ---- -- ------ ------<br>not ----- -- ----,152444.91999999445,152443.93500000297,151940.5,151941.2650000013,151953.759,152464.206,,52,not
screen,html.Screen,2_1_0_1_53,2021-04-26T18:57:13.497Z,,,,,,,,,,,,,,,,,53,,,,,,,,,,,,,,315.71400000085123,,response,,,,99,,,,,,,Space,keypress(Space),,,,,,,,---- -- ----- -- ------ - ------- --- ----------<br>------------- ------ ------ ---- ---- ------- ----- -- ----<br>-------- ------- -- ---------- --- - --- ----- ----- ----<br>---- --- --- ----- --- ---- ---- ------- ----- ---- -------<br>--- --- -- ----- -- --- ---- -- --- ---- -- ------ ------<br>--- close -- ----,152780.87499999674,152779.92000000086,152433.359,152445.22500000312,152464.206,152793.974,,53,close
screen,html.Screen,2_1_0_1_54,2021-04-26T18:57:13.833Z,,,,,,,,,,,,,,,,,53,,,,,,,,,,,,,,321.78600000060396,,response,,,,99,,,,,,,Space,keypress(Space),,,,,,,,---- -- ----- -- ------ - ------- --- ----------<br>------------- ------ ------ ---- ---- ------- ----- -- ----<br>-------- ------- -- ---------- --- - --- ----- ----- ----<br>---- --- --- ----- --- ---- ---- ------- ----- ---- -------<br>--- --- -- ----- -- --- ---- -- --- ---- -- ------ ------<br>--- ----- at ----,153116.75499999546,153115.7600000006,152780.523,152781.18499999982,152793.974,153127.217,,54,at
screen,html.Screen,2_1_0_1_55,2021-04-26T18:57:14.225Z,,,,,,,,,,,,,,,,,53,,,,,,,,,,,,,,380.5929999955115,,response,,,,99,,,,,,,Space,keypress(Space),,,,,,,,---- -- ----- -- ------ - ------- --- ----------<br>------------- ------ ------ ---- ---- ------- ----- -- ----<br>-------- ------- -- ---------- --- - --- ----- ----- ----<br>---- --- --- ----- --- ---- ---- ------- ----- ---- -------<br>--- --- -- ----- -- --- ---- -- --- ---- -- ------ ------<br>--- ----- -- all.,153508.78499999817,153507.80999999552,153113.295,153117.06499999855,153127.217,153513.416,,55,all.
Item 99,flow.Loop,2_1_0_1,2021-04-26T18:57:14.226Z,,,,,,,,,,,,,,,,,,,,,,,,,,,,,,,21500.846999995527,,completion,,,,,D,,,,,,,,,,,silence,,,,,153509.34000000416,153507.80999999552,131993.965,131995.24499999825,132006.963,153513.416,,,
Question 1,html.Screen,2_1_0_2,2021-04-26T18:57:20.014Z,,,,,,,,,,,,,,,,,,,,,,,,,,,,true,FALSE,,5783.798999998689,,response,,,,99,D,,,,,,FALSE,click #choice-2,,,,silence,,,,,159297.95999999624,159297.2149999987,153500.262,153509.62500000605,153513.416,159299.919,,,
Question 2,html.Screen,2_1_0_3,2021-04-26T18:57:32.996Z,,,,,,,,,,,,,,,,,,,,,,,,,,,,false,TRUE,,12979.371000005864,,response,,,,99,D,,,,,,FALSE,click #choice-2,,,,silence,,,,,172279.99500000442,172279.29000000586,159286.852,159298.09500000556,159299.919,172286.374,,,
Item 99,flow.Sequence,2_1_0,2021-04-26T18:57:32.996Z,,,,,,,,,,,,,,,,,,,,,,,,,,,,,,,50272.13600000586,,completion,,,,,,,,,,,,,,,,,,,,,172280.19499999937,172279.29000000586,121994.334,122004.23000000592,122007.154,172286.374,,,
Holding screen,html.Screen,2_1_1_0,2021-04-26T18:57:42.990Z,,,,,,,,,,,,,,,,,,,,,,,,,,,,,,,10000.087999999989,,timeout,,,,,,,,,,,,,,,,,,,,,182274.2350000044,182273.31,172273.578,172280.32999999414,172286.374,182286.462,,,
screen,html.Screen,2_1_1_1_0,2021-04-26T18:57:43.689Z,,,,,,,,,,,,,,,,,54,,,,,,,,,,,,,,686.1479999970761,,response,,,,100,,,,,,,Space,keypress(Space),,,,,,,,At --- ---- --- ------ ----- ------- ---- -- --- ------- --<br>------- ---------- ------ -- ----- -- ----- -- ---- ------<br>--- ----- --- --- ------ -------- ----- --- ------ ----- --<br>----- ----- ---------- --- --- ------ ------ ---- -- ------<br>------- --- ------ ----- --- ---- ------- -- ---- --- --<br>------- ------,182973.75000000466,182972.60999999708,182273.31,182274.65000000666,182286.462,182979.856,,0,At
screen,html.Screen,2_1_1_1_1,2021-04-26T18:57:44.032Z,,,,,,,,,,,,,,,,,54,,,,,,,,,,,,,,335.93900000225403,,response,,,,100,,,,,,,Space,keypress(Space),,,,,,,,-- the ---- --- ------ ----- ------- ---- -- --- ------- --<br>------- ---------- ------ -- ----- -- ----- -- ---- ------<br>--- ----- --- --- ------ -------- ----- --- ------ ----- --<br>----- ----- ---------- --- --- ------ ------ ---- -- ------<br>------- --- ------ ----- --- ---- ------- -- ---- --- --<br>------- ------,183316.68000000354,183315.79500000225,182966.161,182974.06500000216,182979.856,183326.361,,1,the
screen,html.Screen,2_1_1_1_2,2021-04-26T18:57:44.360Z,,,,,,,,,,,,,,,,,54,,,,,,,,,,,,,,317.14400000000023,,response,,,,100,,,,,,,Space,keypress(Space),,,,,,,,-- --- time --- ------ ----- ------- ---- -- --- ------- --<br>------- ---------- ------ -- ----- -- ----- -- ---- ------<br>--- ----- --- --- ------ -------- ----- --- ------ ----- --<br>----- ----- ---------- --- --- ------ ------ ---- -- ------<br>------- --- ------ ----- --- ---- ------- -- ---- --- --<br>------- ------,183644.03999999922,183643.505,183313.149,183316.98000000324,183326.361,183646.212,,2,time
screen,html.Screen,2_1_1_1_3,2021-04-26T18:57:44.688Z,,,,,,,,,,,,,,,,,54,,,,,,,,,,,,,,325.5779999959632,,response,,,,100,,,,,,,Space,keypress(Space),,,,,,,,-- --- ---- the ------ ----- ------- ---- -- --- ------- --<br>------- ---------- ------ -- ----- -- ----- -- ---- ------<br>--- ----- --- --- ------ -------- ----- --- ------ ----- --<br>----- ----- ---------- --- --- ------ ------ ---- -- ------<br>------- --- ------ ----- --- ---- ------- -- ---- --- --<br>------- ------,183972.66499999387,183971.78999999596,183633.277,183644.134999995,183646.212,183979.617,,3,the
screen,html.Screen,2_1_1_1_4,2021-04-26T18:57:45.032Z,,,,,,,,,,,,,,,,,54,,,,,,,,,,,,,,335.9680000039225,,response,,,,100,,,,,,,Space,keypress(Space),,,,,,,,-- --- ---- --- French ----- ------- ---- -- --- ------- --<br>------- ---------- ------ -- ----- -- ----- -- ---- ------<br>--- ----- --- --- ------ -------- ----- --- ------ ----- --<br>----- ----- ---------- --- --- ------ ------ ---- -- ------<br>------- --- ------ ----- --- ---- ------- -- ---- --- --<br>------- ------,184316.44500000402,184315.58500000392,183966.707,183972.96499999356,183979.617,184326.671,,4,French
screen,html.Screen,2_1_1_1_5,2021-04-26T18:57:45.336Z,,,,,,,,,,,,,,,,,54,,,,,,,,,,,,,,293.0139999978419,,response,,,,100,,,,,,,Space,keypress(Space),,,,,,,,-- --- ---- --- ------ crown ------- ---- -- --- ------- --<br>------- ---------- ------ -- ----- -- ----- -- ---- ------<br>--- ----- --- --- ------ -------- ----- --- ------ ----- --<br>----- ----- ---------- --- --- ------ ------ ---- -- ------<br>------- --- ------ ----- --- ---- ------- -- ---- --- --<br>------- ------,184620.57499999355,184619.68499999784,184313.274,184316.76000000152,184326.671,184633.399,,5,crown
screen,html.Screen,2_1_1_1_6,2021-04-26T18:57:45.752Z,,,,,,,,,,,,,,,,,54,,,,,,,,,,,,,,402.220999995101,,response,,,,100,,,,,,,Space,keypress(Space),,,,,,,,-- --- ---- --- ------ ----- secured ---- -- --- ------- --<br>------- ---------- ------ -- ----- -- ----- -- ---- ------<br>--- ----- --- --- ------ -------- ----- --- ------ ----- --<br>----- ----- ---------- --- --- ------ ------ ---- -- ------<br>------- --- ------ ----- --- ---- ------- -- ---- --- --<br>------- ------,185036.4899999986,185035.6199999951,184620.049,184620.89500000002,184633.399,185046.313,,6,secured
screen,html.Screen,2_1_1_1_7,2021-04-26T18:57:46.136Z,,,,,,,,,,,,,,,,,54,,,,,,,,,,,,,,373.1969999924477,,response,,,,100,,,,,,,Space,keypress(Space),,,,,,,,-- --- ---- --- ------ ----- ------- much -- --- ------- --<br>------- ---------- ------ -- ----- -- ----- -- ---- ------<br>--- ----- --- --- ------ -------- ----- --- ------ ----- --<br>----- ----- ---------- --- --- ------ ------ ---- -- ------<br>------- --- ------ ----- --- ---- ------- -- ---- --- --<br>------- ------,185420.38999999932,185419.50999999244,185032.847,185036.8199999939,185046.313,185433.395,,7,much
screen,html.Screen,2_1_1_1_8,2021-04-26T18:57:46.472Z,,,,,,,,,,,,,,,,,54,,,,,,,,,,,,,,322.1599999961036,,response,,,,100,,,,,,,Space,keypress(Space),,,,,,,,-- --- ---- --- ------ ----- ------- ---- of --- ------- --<br>------- ---------- ------ -- ----- -- ----- -- ---- ------<br>--- ----- --- --- ------ -------- ----- --- ------ ----- --<br>----- ----- ---------- --- --- ------ ------ ---- -- ------<br>------- --- ------ ----- --- ---- ------- -- ---- --- --<br>------- ------,185756.44500000635,185755.5549999961,185419.818,185420.71000000578,185433.395,185766.659,,8,of
screen,html.Screen,2_1_1_1_9,2021-04-26T18:57:46.784Z,,,,,,,,,,,,,,,,,54,,,,,,,,,,,,,,300.97599999941303,,response,,,,100,,,,,,,Space,keypress(Space),,,,,,,,-- --- ---- --- ------ ----- ------- ---- -- its ------- --<br>------- ---------- ------ -- ----- -- ----- -- ---- ------<br>--- ----- --- --- ------ -------- ----- --- ------ ----- --<br>----- ----- ---------- --- --- ------ ------ ---- -- ------<br>------- --- ------ ----- --- ---- ------- -- ---- --- --<br>------- ------,186068.56499999412,186067.63499999943,185753.064,185756.75000000047,185766.659,186072.904,,9,its
screen,html.Screen,2_1_1_1_10,2021-04-26T18:57:47.049Z,,,,,,,,,,,,,,,,,54,,,,,,,,,,,,,,259.0260000002745,,response,,,,100,,,,,,,Space,keypress(Space),,,,,,,,-- --- ---- --- ------ ----- ------- ---- -- --- revenue --<br>------- ---------- ------ -- ----- -- ----- -- ---- ------<br>--- ----- --- --- ------ -------- ----- --- ------ ----- --<br>----- ----- ---------- --- --- ------ ------ ---- -- ------<br>------- --- ------ ----- --- ---- ------- -- ---- --- --<br>------- ------,186332.92000000074,186331.93000000028,186059.696,186068.8749999972,186072.904,186339.529,,10,revenue
screen,html.Screen,2_1_1_1_11,2021-04-26T18:57:47.441Z,,,,,,,,,,,,,,,,,54,,,,,,,,,,,,,,384.47599999638624,,response,,,,100,,,,,,,Space,keypress(Space),,,,,,,,-- --- ---- --- ------ ----- ------- ---- -- --- ------- by<br>------- ---------- ------ -- ----- -- ----- -- ---- ------<br>--- ----- --- --- ------ -------- ----- --- ------ ----- --<br>----- ----- ---------- --- --- ------ ------ ---- -- ------<br>------- --- ------ ----- --- ---- ------- -- ---- --- --<br>------- ------,186725.00500000024,186724.0049999964,186326.387,186333.23999999266,186339.529,186740.017,,11,by
screen,html.Screen,2_1_1_1_12,2021-04-26T18:57:47.777Z,,,,,,,,,,,,,,,,,54,,,,,,,,,,,,,,319.8429999939399,,response,,,,100,,,,,,,Space,keypress(Space),,,,,,,,-- --- ---- --- ------ ----- ------- ---- -- --- ------- --<br>issuing ---------- ------ -- ----- -- ----- -- ---- ------<br>--- ----- --- --- ------ -------- ----- --- ------ ----- --<br>----- ----- ---------- --- --- ------ ------ ---- -- ------<br>------- --- ------ ----- --- ---- ------- -- ---- --- --<br>------- ------,187060.81999999878,187059.85999999393,186713.302,186725.30999999435,186740.017,187073.394,,12,issuing
screen,html.Screen,2_1_1_1_13,2021-04-26T18:57:48.024Z,,,,,,,,,,,,,,,,,54,,,,,,,,,,,,,,234.38600000282167,,response,,,,100,,,,,,,Space,keypress(Space),,,,,,,,-- --- ---- --- ------ ----- ------- ---- -- --- ------- --<br>------- government ------ -- ----- -- ----- -- ---- ------<br>--- ----- --- --- ------ -------- ----- --- ------ ----- --<br>----- ----- ---------- --- --- ------ ------ ---- -- ------<br>------- --- ------ ----- --- ---- ------- -- ---- --- --<br>------- ------,187308.7349999987,187307.78000000282,187059.928,187061.13000000187,187073.394,187312.831,,13,government
screen,html.Screen,2_1_1_1_14,2021-04-26T18:57:48.257Z,,,,,,,,,,,,,,,,,54,,,,,,,,,,,,,,227.1389999979874,,response,,,,100,,,,,,,Space,keypress(Space),,,,,,,,-- --- ---- --- ------ ----- ------- ---- -- --- ------- --<br>------- ---------- bonds. -- ----- -- ----- -- ---- ------<br>--- ----- --- --- ------ -------- ----- --- ------ ----- --<br>----- ----- ---------- --- --- ------ ------ ---- -- ------<br>------- --- ------ ----- --- ---- ------- -- ---- --- --<br>------- ------,187540.89000000386,187539.969999998,187299.492,187309.05500000517,187312.831,187553.356,,14,bonds.
screen,html.Screen,2_1_1_1_15,2021-04-26T18:57:48.824Z,,,,,,,,,,,,,,,,,54,,,,,,,,,,,,,,554.3789999977744,,response,,,,100,,,,,,,Space,keypress(Space),,,,,,,,-- --- ---- --- ------ ----- ------- ---- -- --- ------- --<br>------- ---------- ------ In ----- -- ----- -- ---- ------<br>--- ----- --- --- ------ -------- ----- --- ------ ----- --<br>----- ----- ---------- --- --- ------ ------ ---- -- ------<br>------- --- ------ ----- --- ---- ------- -- ---- --- --<br>------- ------,188108.66499999247,188107.73499999777,187539.958,187541.20500000136,187553.356,188112.889,,15,In
screen,html.Screen,2_1_1_1_16,2021-04-26T18:57:49.065Z,,,,,,,,,,,,,,,,,54,,,,,,,,,,,,,,234.95599999660044,,response,,,,100,,,,,,,Space,keypress(Space),,,,,,,,"-- --- ---- --- ------ ----- ------- ---- -- --- ------- --<br>------- ---------- ------ -- 1727, -- ----- -- ---- ------<br>--- ----- --- --- ------ -------- ----- --- ------ ----- --<br>----- ----- ---------- --- --- ------ ------ ---- -- ------<br>------- --- ------ ----- --- ---- ------- -- ---- --- --<br>------- ------",188348.83499999705,188347.8449999966,188099.448,188108.98000000452,188112.889,188352.8,,16,"1727,"
screen,html.Screen,2_1_1_1_17,2021-04-26T18:57:49.281Z,,,,,,,,,,,,,,,,,54,,,,,,,,,,,,,,211.15999999950873,,response,,,,100,,,,,,,Space,keypress(Space),,,,,,,,-- --- ---- --- ------ ----- ------- ---- -- --- ------- --<br>------- ---------- ------ -- ----- in ----- -- ---- ------<br>--- ----- --- --- ------ -------- ----- --- ------ ----- --<br>----- ----- ---------- --- --- ------ ------ ---- -- ------<br>------- --- ------ ----- --- ---- ------- -- ---- --- --<br>------- ------,188565.0750000059,188563.9599999995,188339.955,188349.14500000014,188352.8,188579.939,,17,in
screen,html.Screen,2_1_1_1_18,2021-04-26T18:57:50.167Z,,,,,,,,,,,,,,,,,54,,,,,,,,,,,,,,871.1409999988973,,response,,,,100,,,,,,,Space,keypress(Space),,,,,,,,-- --- ---- --- ------ ----- ------- ---- -- --- ------- --<br>------- ---------- ------ -- ----- -- order -- ---- ------<br>--- ----- --- --- ------ -------- ----- --- ------ ----- --<br>----- ----- ---------- --- --- ------ ------ ---- -- ------<br>------- --- ------ ----- --- ---- ------- -- ---- --- --<br>------- ------,189451.57000000472,189451.0799999989,188552.949,188565.4099999956,188579.939,189460.108,,18,order
screen,html.Screen,2_1_1_1_19,2021-04-26T18:57:50.441Z,,,,,,,,,,,,,,,,,54,,,,,,,,,,,,,,263.9119999941904,,response,,,,100,,,,,,,Space,keypress(Space),,,,,,,,-- --- ---- --- ------ ----- ------- ---- -- --- ------- --<br>------- ---------- ------ -- ----- -- ----- to ---- ------<br>--- ----- --- --- ------ -------- ----- --- ------ ----- --<br>----- ----- ---------- --- --- ------ ------ ---- -- ------<br>------- --- ------ ----- --- ---- ------- -- ---- --- --<br>------- ------,189725.00999999465,189724.0199999942,189446.523,189451.66999999492,189460.108,189739.578,,19,to
screen,html.Screen,2_1_1_1_20,2021-04-26T18:57:50.681Z,,,,,,,,,,,,,,,,,54,,,,,,,,,,,,,,224.41200000382378,,response,,,,100,,,,,,,Space,keypress(Space),,,,,,,,-- --- ---- --- ------ ----- ------- ---- -- --- ------- --<br>------- ---------- ------ -- ----- -- ----- -- save ------<br>--- ----- --- --- ------ -------- ----- --- ------ ----- --<br>----- ----- ---------- --- --- ------ ------ ---- -- ------<br>------- --- ------ ----- --- ---- ------- -- ---- --- --<br>------- ------,189964.9150000041,189963.99000000383,189726.256,189727.66499999852,189739.578,189979.91,,20,save
screen,html.Screen,2_1_1_1_21,2021-04-26T18:57:50.944Z,,,,,,,,,,,,,,,,,54,,,,,,,,,,,,,,247.84999999430147,,response,,,,100,,,,,,,Space,keypress(Space),,,,,,,,"-- --- ---- --- ------ ----- ------- ---- -- --- ------- --<br>------- ---------- ------ -- ----- -- ----- -- ---- money,<br>--- ----- --- --- ------ -------- ----- --- ------ ----- --<br>----- ----- ---------- --- --- ------ ------ ---- -- ------<br>------- --- ------ ----- --- ---- ------- -- ---- --- --<br>------- ------",190228.74000000593,190227.7599999943,189952.754,189965.20500000042,189979.91,190232.765,,21,"money,"
screen,html.Screen,2_1_1_1_22,2021-04-26T18:57:51.160Z,,,,,,,,,,,,,,,,,54,,,,,,,,,,,,,,210.5799999923911,,response,,,,100,,,,,,,Space,keypress(Space),,,,,,,,-- --- ---- --- ------ ----- ------- ---- -- --- ------- --<br>------- ---------- ------ -- ----- -- ----- -- ---- ------<br>the ----- --- --- ------ -------- ----- --- ------ ----- --<br>----- ----- ---------- --- --- ------ ------ ---- -- ------<br>------- --- ------ ----- --- ---- ------- -- ---- --- --<br>------- ------,190444.27999999607,190443.3449999924,190219.848,190229.04000000563,190232.765,190446.044,,22,the
screen,html.Screen,2_1_1_1_23,2021-04-26T18:57:51.401Z,,,,,,,,,,,,,,,,,54,,,,,,,,,,,,,,237.90600000601262,,response,,,,100,,,,,,,Space,keypress(Space),,,,,,,,-- --- ---- --- ------ ----- ------- ---- -- --- ------- --<br>------- ---------- ------ -- ----- -- ----- -- ---- ------<br>--- state --- --- ------ -------- ----- --- ------ ----- --<br>----- ----- ---------- --- --- ------ ------ ---- -- ------<br>------- --- ------ ----- --- ---- ------- -- ---- --- --<br>------- ------,190684.8650000029,190683.950000006,190433.261,190444.4749999966,190446.044,190699.902,,23,state
screen,html.Screen,2_1_1_1_24,2021-04-26T18:57:51.632Z,,,,,,,,,,,,,,,,,54,,,,,,,,,,,,,,215.64800000516698,,response,,,,100,,,,,,,Space,keypress(Space),,,,,,,,-- --- ---- --- ------ ----- ------- ---- -- --- ------- --<br>------- ---------- ------ -- ----- -- ----- -- ---- ------<br>--- ----- cut --- ------ -------- ----- --- ------ ----- --<br>----- ----- ---------- --- --- ------ ------ ---- -- ------<br>------- --- ------ ----- --- ---- ------- -- ---- --- --<br>------- ------,190916.53499999666,190915.55000000517,190673.327,190685.16999999702,190699.902,190926.498,,24,cut
screen,html.Screen,2_1_1_1_25,2021-04-26T18:57:51.888Z,,,,,,,,,,,,,,,,,54,,,,,,,,,,,,,,245.27699999525794,,response,,,,100,,,,,,,Space,keypress(Space),,,,,,,,-- --- ---- --- ------ ----- ------- ---- -- --- ------- --<br>------- ---------- ------ -- ----- -- ----- -- ---- ------<br>--- ----- --- the ------ -------- ----- --- ------ ----- --<br>----- ----- ---------- --- --- ------ ------ ---- -- ------<br>------- --- ------ ----- --- ---- ------- -- ---- --- --<br>------- ------,191172.7499999979,191171.77499999525,190912.981,190916.83000000194,190926.498,191179.427,,25,the
screen,html.Screen,2_1_1_1_26,2021-04-26T18:57:52.160Z,,,,,,,,,,,,,,,,,54,,,,,,,,,,,,,,264.20299999430426,,response,,,,100,,,,,,,Space,keypress(Space),,,,,,,,-- --- ---- --- ------ ----- ------- ---- -- --- ------- --<br>------- ---------- ------ -- ----- -- ----- -- ---- ------<br>--- ----- --- --- bonds' -------- ----- --- ------ ----- --<br>----- ----- ---------- --- --- ------ ------ ---- -- ------<br>------- --- ------ ----- --- ---- ------- -- ---- --- --<br>------- ------,191444.55000000016,191443.6299999943,191166.086,191173.0499999976,191179.427,191474.004,,26,bonds'
screen,html.Screen,2_1_1_1_27,2021-04-26T18:57:52.426Z,,,,,,,,,,,,,,,,,54,,,,,,,,,,,,,,233.86100000396254,,response,,,,100,,,,,,,Space,keypress(Space),,,,,,,,-- --- ---- --- ------ ----- ------- ---- -- --- ------- --<br>------- ---------- ------ -- ----- -- ----- -- ---- ------<br>--- ----- --- --- ------ interest ----- --- ------ ----- --<br>----- ----- ---------- --- --- ------ ------ ---- -- ------<br>------- --- ------ ----- --- ---- ------- -- ---- --- --<br>------- ------,191710.24000000034,191707.86500000395,191433.139,191444.83999999647,191474.004,191712.752,,27,interest
screen,html.Screen,2_1_1_1_28,2021-04-26T18:57:52.664Z,,,,,,,,,,,,,,,,,54,,,,,,,,,,,,,,234.612999999983,,response,,,,100,,,,,,,Space,keypress(Space),,,,,,,,-- --- ---- --- ------ ----- ------- ---- -- --- ------- --<br>------- ---------- ------ -- ----- -- ----- -- ---- ------<br>--- ----- --- --- ------ -------- rate. --- ------ ----- --<br>----- ----- ---------- --- --- ------ ------ ---- -- ------<br>------- --- ------ ----- --- ---- ------- -- ---- --- --<br>------- ------,191948.470000003,191947.365,191699.911,191710.54000000004,191712.752,191952.78,,28,rate.
screen,html.Screen,2_1_1_1_29,2021-04-26T18:57:52.944Z,,,,,,,,,,,,,,,,,54,,,,,,,,,,,,,,274.6750000001921,,response,,,,100,,,,,,,Space,keypress(Space),,,,,,,,-- --- ---- --- ------ ----- ------- ---- -- --- ------- --<br>------- ---------- ------ -- ----- -- ----- -- ---- ------<br>--- ----- --- --- ------ -------- ----- The ------ ----- --<br>----- ----- ---------- --- --- ------ ------ ---- -- ------<br>------- --- ------ ----- --- ---- ------- -- ---- --- --<br>------- ------,192228.43499999726,192227.4550000002,191940.004,191948.85000000068,191952.78,192232.765,,29,The
screen,html.Screen,2_1_1_1_30,2021-04-26T18:57:53.241Z,,,,,,,,,,,,,,,,,54,,,,,,,,,,,,,,291.0900000067195,,response,,,,100,,,,,,,Space,keypress(Space),,,,,,,,-- --- ---- --- ------ ----- ------- ---- -- --- ------- --<br>------- ---------- ------ -- ----- -- ----- -- ---- ------<br>--- ----- --- --- ------ -------- ----- --- market ----- --<br>----- ----- ---------- --- --- ------ ------ ---- -- ------<br>------- --- ------ ----- --- ---- ------- -- ---- --- --<br>------- ------,192524.79500000481,192523.85500000673,192219.719,192228.71999999916,192232.765,192539.896,,30,market
screen,html.Screen,2_1_1_1_31,2021-04-26T18:57:53.521Z,,,,,,,,,,,,,,,,,54,,,,,,,,,,,,,,264.00399999896763,,response,,,,100,,,,,,,Space,keypress(Space),,,,,,,,-- --- ---- --- ------ ----- ------- ---- -- --- ------- --<br>------- ---------- ------ -- ----- -- ----- -- ---- ------<br>--- ----- --- --- ------ -------- ----- --- ------ value --<br>----- ----- ---------- --- --- ------ ------ ---- -- ------<br>------- --- ------ ----- --- ---- ------- -- ---- --- --<br>------- ------,192804.88500000502,192803.89999999898,192513.09,192525.08999999554,192539.896,192819.899,,31,value
screen,html.Screen,2_1_1_1_32,2021-04-26T18:57:53.793Z,,,,,,,,,,,,,,,,,54,,,,,,,,,,,,,,256.53100000097766,,response,,,,100,,,,,,,Space,keypress(Space),,,,,,,,-- --- ---- --- ------ ----- ------- ---- -- --- ------- --<br>------- ---------- ------ -- ----- -- ----- -- ---- ------<br>--- ----- --- --- ------ -------- ----- --- ------ ----- of<br>----- ----- ---------- --- --- ------ ------ ---- -- ------<br>------- --- ------ ----- --- ---- ------- -- ---- --- --<br>------- ------,193077.36999999906,193076.43000000098,192793.025,192805.18999999913,192819.899,193086.417,,32,of
screen,html.Screen,2_1_1_1_33,2021-04-26T18:57:54.049Z,,,,,,,,,,,,,,,,,54,,,,,,,,,,,,,,245.47799999572453,,response,,,,100,,,,,,,Space,keypress(Space),,,,,,,,-- --- ---- --- ------ ----- ------- ---- -- --- ------- --<br>------- ---------- ------ -- ----- -- ----- -- ---- ------<br>--- ----- --- --- ------ -------- ----- --- ------ ----- --<br>these ----- ---------- --- --- ------ ------ ---- -- ------<br>------- --- ------ ----- --- ---- ------- -- ---- --- --<br>------- ------,193332.86500000395,193331.8949999957,193073.212,193077.67499999318,193086.417,193339.386,,33,these
screen,html.Screen,2_1_1_1_34,2021-04-26T18:57:54.281Z,,,,,,,,,,,,,,,,,54,,,,,,,,,,,,,,224.58899999730056,,response,,,,100,,,,,,,Space,keypress(Space),,,,,,,,-- --- ---- --- ------ ----- ------- ---- -- --- ------- --<br>------- ---------- ------ -- ----- -- ----- -- ---- ------<br>--- ----- --- --- ------ -------- ----- --- ------ ----- --<br>----- bonds ---------- --- --- ------ ------ ---- -- ------<br>------- --- ------ ----- --- ---- ------- -- ---- --- --<br>------- ------,193564.96000000334,193563.9749999973,193326.585,193333.15999999468,193339.386,193579.877,,34,bonds
screen,html.Screen,2_1_1_1_35,2021-04-26T18:57:54.521Z,,,,,,,,,,,,,,,,,54,,,,,,,,,,,,,,224.04300000573858,,response,,,,100,,,,,,,Space,keypress(Space),,,,,,,,"-- --- ---- --- ------ ----- ------- ---- -- --- ------- --<br>------- ---------- ------ -- ----- -- ----- -- ---- ------<br>--- ----- --- --- ------ -------- ----- --- ------ ----- --<br>----- ----- plummeted, --- --- ------ ------ ---- -- ------<br>------- --- ------ ----- --- ---- ------- -- ---- --- --<br>------- ------",193804.90000000282,193803.92000000575,193553.163,193565.24999999965,193579.877,193819.882,,35,"plummeted,"
screen,html.Screen,2_1_1_1_36,2021-04-26T18:57:54.771Z,,,,,,,,,,,,,,,,,54,,,,,,,,,,,,,,232.06799999365467,,response,,,,100,,,,,,,Space,keypress(Space),,,,,,,,-- --- ---- --- ------ ----- ------- ---- -- --- ------- --<br>------- ---------- ------ -- ----- -- ----- -- ---- ------<br>--- ----- --- --- ------ -------- ----- --- ------ ----- --<br>----- ----- ---------- and --- ------ ------ ---- -- ------<br>------- --- ------ ----- --- ---- ------- -- ---- --- --<br>------- ------,194055.25999999372,194051.94999999367,193792.763,193805.20000000251,193819.882,194059.427,,36,and
screen,html.Screen,2_1_1_1_37,2021-04-26T18:57:55.001Z,,,,,,,,,,,,,,,,,54,,,,,,,,,,,,,,224.5729999996547,,response,,,,100,,,,,,,Space,keypress(Space),,,,,,,,-- --- ---- --- ------ ----- ------- ---- -- --- ------- --<br>------- ---------- ------ -- ----- -- ----- -- ---- ------<br>--- ----- --- --- ------ -------- ----- --- ------ ----- --<br>----- ----- ---------- --- the ------ ------ ---- -- ------<br>------- --- ------ ----- --- ---- ------- -- ---- --- --<br>------- ------,194285.04000000248,194283.99999999965,194046.486,194055.64500000037,194059.427,194299.604,,37,the
screen,html.Screen,2_1_1_1_38,2021-04-26T18:57:55.217Z,,,,,,,,,,,,,,,,,54,,,,,,,,,,,,,,200.29100000084145,,response,,,,100,,,,,,,Space,keypress(Space),,,,,,,,-- --- ---- --- ------ ----- ------- ---- -- --- ------- --<br>------- ---------- ------ -- ----- -- ----- -- ---- ------<br>--- ----- --- --- ------ -------- ----- --- ------ ----- --<br>----- ----- ---------- --- --- market ------ ---- -- ------<br>------- --- ------ ----- --- ---- ------- -- ---- --- --<br>------- ------,194500.8749999979,194499.89500000083,194273.032,194285.35499999998,194299.604,194513.29,,38,market
screen,html.Screen,2_1_1_1_39,2021-04-26T18:57:55.417Z,,,,,,,,,,,,,,,,,54,,,,,,,,,,,,,,186.53999999773805,,response,,,,100,,,,,,,Space,keypress(Space),,,,,,,,-- --- ---- --- ------ ----- ------- ---- -- --- ------- --<br>------- ---------- ------ -- ----- -- ----- -- ---- ------<br>--- ----- --- --- ------ -------- ----- --- ------ ----- --<br>----- ----- ---------- --- --- ------ became ---- -- ------<br>------- --- ------ ----- --- ---- ------- -- ---- --- --<br>------- ------,194700.8150000038,194699.82999999775,194499.601,194501.15500000538,194513.29,194712.77,,39,became
screen,html.Screen,2_1_1_1_40,2021-04-26T18:57:55.697Z,,,,,,,,,,,,,,,,,54,,,,,,,,,,,,,,267.17499999914435,,response,,,,100,,,,,,,Space,keypress(Space),,,,,,,,-- --- ---- --- ------ ----- ------- ---- -- --- ------- --<br>------- ---------- ------ -- ----- -- ----- -- ---- ------<br>--- ----- --- --- ------ -------- ----- --- ------ ----- --<br>----- ----- ---------- --- --- ------ ------ wary -- ------<br>------- --- ------ ----- --- ---- ------- -- ---- --- --<br>------- ------,194980.83000000042,194979.94499999913,194699.523,194701.1099999945,194712.77,194993.284,,40,wary
screen,html.Screen,2_1_1_1_41,2021-04-26T18:57:56.000Z,,,,,,,,,,,,,,,,,54,,,,,,,,,,,,,,290.36599999756436,,response,,,,100,,,,,,,Space,keypress(Space),,,,,,,,-- --- ---- --- ------ ----- ------- ---- -- --- ------- --<br>------- ---------- ------ -- ----- -- ----- -- ---- ------<br>--- ----- --- --- ------ -------- ----- --- ------ ----- --<br>----- ----- ---------- --- --- ------ ------ ---- of ------<br>------- --- ------ ----- --- ---- ------- -- ---- --- --<br>------- ------,195284.63500000362,195283.64999999758,194979.623,194981.10999999335,194993.284,195314.262,,41,of
screen,html.Screen,2_1_1_1_42,2021-04-26T18:57:56.241Z,,,,,,,,,,,,,,,,,54,,,,,,,,,,,,,,209.65299999795388,,response,,,,100,,,,,,,Space,keypress(Space),,,,,,,,-- --- ---- --- ------ ----- ------- ---- -- --- ------- --<br>------- ---------- ------ -- ----- -- ----- -- ---- ------<br>--- ----- --- --- ------ -------- ----- --- ------ ----- --<br>----- ----- ---------- --- --- ------ ------ ---- -- French<br>------- --- ------ ----- --- ---- ------- -- ---- --- --<br>------- ------,195524.82500000042,195523.91499999794,195272.631,195284.93999999773,195314.262,195539.848,,42,French
screen,html.Screen,2_1_1_1_43,2021-04-26T18:57:56.521Z,,,,,,,,,,,,,,,,,54,,,,,,,,,,,,,,264.0669999967795,,response,,,,100,,,,,,,Space,keypress(Space),,,,,,,,-- --- ---- --- ------ ----- ------- ---- -- --- ------- --<br>------- ---------- ------ -- ----- -- ----- -- ---- ------<br>--- ----- --- --- ------ -------- ----- --- ------ ----- --<br>----- ----- ---------- --- --- ------ ------ ---- -- ------<br>credit. --- ------ ----- --- ---- ------- -- ---- --- --<br>------- ------,195804.77499999688,195803.91499999678,195513.11,195525.09999999893,195539.848,195819.841,,43,credit.
screen,html.Screen,2_1_1_1_44,2021-04-26T18:57:56.809Z,,,,,,,,,,,,,,,,,54,,,,,,,,,,,,,,272.11900000521564,,response,,,,100,,,,,,,Space,keypress(Space),,,,,,,,-- --- ---- --- ------ ----- ------- ---- -- --- ------- --<br>------- ---------- ------ -- ----- -- ----- -- ---- ------<br>--- ----- --- --- ------ -------- ----- --- ------ ----- --<br>----- ----- ---------- --- --- ------ ------ ---- -- ------<br>------- The ------ ----- --- ---- ------- -- ---- --- --<br>------- ------,196092.9349999933,196091.9600000052,195793.153,195805.0649999932,195819.841,196099.32,,44,The
screen,html.Screen,2_1_1_1_45,2021-04-26T18:57:57.081Z,,,,,,,,,,,,,,,,,54,,,,,,,,,,,,,,264.5649999988382,,response,,,,100,,,,,,,Space,keypress(Space),,,,,,,,-- --- ---- --- ------ ----- ------- ---- -- --- ------- --<br>------- ---------- ------ -- ----- -- ----- -- ---- ------<br>--- ----- --- --- ------ -------- ----- --- ------ ----- --<br>----- ----- ---------- --- --- ------ ------ ---- -- ------<br>------- --- French ----- --- ---- ------- -- ---- --- --<br>------- ------,196364.96500000067,196363.88499999885,196086.463,196093.21000000637,196099.32,196379.857,,45,French
screen,html.Screen,2_1_1_1_46,2021-04-26T18:57:57.297Z,,,,,,,,,,,,,,,,,54,,,,,,,,,,,,,,200.08800000496558,,response,,,,100,,,,,,,Space,keypress(Space),,,,,,,,-- --- ---- --- ------ ----- ------- ---- -- --- ------- --<br>------- ---------- ------ -- ----- -- ----- -- ---- ------<br>--- ----- --- --- ------ -------- ----- --- ------ ----- --<br>----- ----- ---------- --- --- ------ ------ ---- -- ------<br>------- --- ------ state --- ---- ------- -- ---- --- --<br>------- ------,196580.90000000084,196579.94500000495,196352.783,196365.29000000155,196379.857,196592.811,,46,state
screen,html.Screen,2_1_1_1_47,2021-04-26T18:57:57.537Z,,,,,,,,,,,,,,,,,54,,,,,,,,,,,,,,227.0139999986859,,response,,,,100,,,,,,,Space,keypress(Space),,,,,,,,-- --- ---- --- ------ ----- ------- ---- -- --- ------- --<br>------- ---------- ------ -- ----- -- ----- -- ---- ------<br>--- ----- --- --- ------ -------- ----- --- ------ ----- --<br>----- ----- ---------- --- --- ------ ------ ---- -- ------<br>------- --- ------ ----- was ---- ------- -- ---- --- --<br>------- ------,196820.78500000353,196819.82499999867,196579.649,196581.17499999935,196592.811,196833.254,,47,was
screen,html.Screen,2_1_1_1_48,2021-04-26T18:57:57.777Z,,,,,,,,,,,,,,,,,54,,,,,,,,,,,,,,226.62600000071689,,response,,,,100,,,,,,,Space,keypress(Space),,,,,,,,-- --- ---- --- ------ ----- ------- ---- -- --- ------- --<br>------- ---------- ------ -- ----- -- ----- -- ---- ------<br>--- ----- --- --- ------ -------- ----- --- ------ ----- --<br>----- ----- ---------- --- --- ------ ------ ---- -- ------<br>------- --- ------ ----- --- left ------- -- ---- --- --<br>------- ------,197060.84499999997,197059.8800000007,196819.469,196821.07499999984,196833.254,197073.01,,48,left
screen,html.Screen,2_1_1_1_49,2021-04-26T18:57:58.017Z,,,,,,,,,,,,,,,,,54,,,,,,,,,,,,,,226.82000000355765,,response,,,,100,,,,,,,Space,keypress(Space),,,,,,,,-- --- ---- --- ------ ----- ------- ---- -- --- ------- --<br>------- ---------- ------ -- ----- -- ----- -- ---- ------<br>--- ----- --- --- ------ -------- ----- --- ------ ----- --<br>----- ----- ---------- --- --- ------ ------ ---- -- ------<br>------- --- ------ ----- --- ---- without -- ---- --- --<br>------- ------,197300.79999999725,197299.83000000357,197059.345,197061.13000000187,197073.01,197313.285,,49,without
screen,html.Screen,2_1_1_1_50,2021-04-26T18:57:58.232Z,,,,,,,,,,,,,,,,,54,,,,,,,,,,,,,,202.21499999405933,,response,,,,100,,,,,,,Space,keypress(Space),,,,,,,,-- --- ---- --- ------ ----- ------- ---- -- --- ------- --<br>------- ---------- ------ -- ----- -- ----- -- ---- ------<br>--- ----- --- --- ------ -------- ----- --- ------ ----- --<br>----- ----- ---------- --- --- ------ ------ ---- -- ------<br>------- --- ------ ----- --- ---- ------- an ---- --- --<br>------- ------,197516.4800000057,197515.49999999406,197299.569,197301.08999999356,197313.285,197526.476,,50,an
screen,html.Screen,2_1_1_1_51,2021-04-26T18:57:58.480Z,,,,,,,,,,,,,,,,,54,,,,,,,,,,,,,,237.2440000026545,,response,,,,100,,,,,,,Space,keypress(Space),,,,,,,,-- --- ---- --- ------ ----- ------- ---- -- --- ------- --<br>------- ---------- ------ -- ----- -- ----- -- ---- ------<br>--- ----- --- --- ------ -------- ----- --- ------ ----- --<br>----- ----- ---------- --- --- ------ ------ ---- -- ------<br>------- --- ------ ----- --- ---- ------- -- easy --- --<br>------- ------,197764.62499999616,197763.72000000265,197513.036,197516.7599999986,197526.476,197783.129,,51,easy
screen,html.Screen,2_1_1_1_52,2021-04-26T18:57:58.712Z,,,,,,,,,,,,,,,,,54,,,,,,,,,,,,,,212.25099999303347,,response,,,,100,,,,,,,Space,keypress(Space),,,,,,,,-- --- ---- --- ------ ----- ------- ---- -- --- ------- --<br>------- ---------- ------ -- ----- -- ----- -- ---- ------<br>--- ----- --- --- ------ -------- ----- --- ------ ----- --<br>----- ----- ---------- --- --- ------ ------ ---- -- ------<br>------- --- ------ ----- --- ---- ------- -- ---- way --<br>------- ------,197996.35000000126,197995.37999999302,197752.673,197764.91499999247,197783.129,198006.133,,52,way
screen,html.Screen,2_1_1_1_53,2021-04-26T18:57:59.009Z,,,,,,,,,,,,,,,,,54,,,,,,,,,,,,,,285.8270000022894,,response,,,,100,,,,,,,Space,keypress(Space),,,,,,,,-- --- ---- --- ------ ----- ------- ---- -- --- ------- --<br>------- ---------- ------ -- ----- -- ----- -- ---- ------<br>--- ----- --- --- ------ -------- ----- --- ------ ----- --<br>----- ----- ---------- --- --- ------ ------ ---- -- ------<br>------- --- ------ ----- --- ---- ------- -- ---- --- of<br>------- ------,198292.9049999948,198291.9600000023,197993.1,197996.63500000315,198006.133,198299.338,,53,of
screen,html.Screen,2_1_1_1_54,2021-04-26T18:57:59.313Z,,,,,,,,,,,,,,,,,54,,,,,,,,,,,,,,296.4670000044862,,response,,,,100,,,,,,,Space,keypress(Space),,,,,,,,-- --- ---- --- ------ ----- ------- ---- -- --- ------- --<br>------- ---------- ------ -- ----- -- ----- -- ---- ------<br>--- ----- --- --- ------ -------- ----- --- ------ ----- --<br>----- ----- ---------- --- --- ------ ------ ---- -- ------<br>------- --- ------ ----- --- ---- ------- -- ---- --- --<br>raising ------,198596.78500000155,198595.80500000448,198286.498,198293.18500000227,198299.338,198606.424,,54,raising
screen,html.Screen,2_1_1_1_55,2021-04-26T18:57:59.969Z,,,,,,,,,,,,,,,,,54,,,,,,,,,,,,,,645.4659999995492,,response,,,,100,,,,,,,Space,keypress(Space),,,,,,,,-- --- ---- --- ------ ----- ------- ---- -- --- ------- --<br>------- ---------- ------ -- ----- -- ----- -- ---- ------<br>--- ----- --- --- ------ -------- ----- --- ------ ----- --<br>----- ----- ---------- --- --- ------ ------ ---- -- ------<br>------- --- ------ ----- --- ---- ------- -- ---- --- --<br>------- money.,199252.85499999882,199251.88999999955,198592.848,198597.07999999227,198606.424,199259.248,,55,money.
Item 100,flow.Loop,2_1_1_1,2021-04-26T18:57:59.969Z,,,,,,,,,,,,,,,,,,,,,,,,,,,,,,,16965.42799999955,,completion,,,,,D,,,,,,,,,,,silence,,,,,199253.36499999685,199251.88999999955,182273.31,182274.5350000041,182286.462,199259.248,,,
Question 1,html.Screen,2_1_1_2,2021-04-26T18:58:02.570Z,,,,,,,,,,,,,,,,,,,,,,,,,,,,true,TRUE,,2593.9819999933534,,response,,,,100,D,,,,,,TRUE,click #choice-1,,,,silence,,,,,201853.9599999931,201853.22999999335,199246.452,199253.60999999975,199259.248,201859.255,,,
Question 2,html.Screen,2_1_1_3,2021-04-26T18:58:04.718Z,,,,,,,,,,,,,,,,,,,,,,,,,,,,true,FALSE,,2141.9599999965867,,response,,,,100,D,,,,,,FALSE,click #choice-2,,,,silence,,,,,204001.88999999955,204001.2149999966,201846.172,201854.11000000022,201859.255,204005.868,,,
Item 100,flow.Sequence,2_1_1,2021-04-26T18:58:04.718Z,,,,,,,,,,,,,,,,,,,,,,,,,,,,,,,31714.84099999658,,completion,,,,,,,,,,,,,,,,,,,,,204002.09500000346,204001.2149999966,172273.578,172280.28999999515,172286.374,204005.868,,,
End of Practice,html.Page,2_1_2,2021-04-26T18:58:09.832Z,,,,,,,,,,,,,,,,,,,,,,,,,,,,,,,5110.087000001135,,form submission,,,,,,,,,,,,,,,,,,,,,209116.15499999607,209115.95500000112,203992.845,204002.19499999366,204005.868,209125.956,,,
Practice,flow.Sequence,2_1,2021-04-26T18:58:09.832Z,,,,,,,,,,,,,,,,,,,,,,,,,,,,,,,87108.80100000113,,completion,,,,,,,,,,,,,,,,,,,,,209116.33000000438,209115.95500000112,121994.334,122004.18499999796,122007.154,209125.956,,,
Trap_instruction,html.Page,2_2_0,2021-04-26T18:58:14.856Z,,,,,,,,,,,,,,,,,,,,,,,,,,,,,,,5013.9939999970375,,form submission,,,,,,,,,,,,,,,,,,,,,214140.12500000536,214139.94999999704,209112.941,209116.45000000135,209125.956,214152.434,,,
trap_trial,html.Screen,2_2_1,2021-04-26T18:58:17.941Z,,,,,,,,,,,,,,,,,,,,,,,,,,,,true,1,,3072.3759999996983,,response,,,,,,,,,,,1,click #choice-1,,,,,,,,,217225.4799999937,217224.8099999997,214139.55,214140.23000000452,214152.434,217232.318,,,
end of trap trial,html.Page,2_2_2,2021-04-26T18:58:19.376Z,,,,,,,,,,,,,,,,,,,,,,,,,,,,,,,1427.397000001598,,form submission,,,,,,,,,,,,,,,,,,,,,218659.88999999536,218659.7150000016,217219.198,217225.6699999998,217232.318,218672.877,,,
Trap 1,flow.Sequence,2_2,2021-04-26T18:58:19.376Z,,,,,,,,,,,,,,,,,,,,,,,,,,,,,,,9533.759000001592,,completion,,,,,,,,,,,,,,,,,,,,,218660.0599999947,218659.7150000016,209112.941,209116.41499999678,209125.956,218672.877,,,
Standby,html.Page,2_3_0,2021-04-26T18:58:27.376Z,,,,,,,,,,,,,,,,,,,,,,,,,,,,,,,7999.191999999981,,timeout,,,,,,,,,,,,,,,,,,,,,226660.0999999937,226659.101,218658.973,218660.18000000622,218672.877,226672.069,,,
Holding screen,html.Screen,2_3_1_0_0,2021-04-26T18:58:34.376Z,,,,,,,,,,,,,,,,,,,,,,,,,,,,,,,7000.393000000011,,timeout,,,,,,,,,,,,,,,,,,,,,233660.13999999268,233659.287,226659.101,226660.5600000039,226672.069,233672.462,,,
screen,html.Screen,2_3_1_0_1_0,2021-04-26T18:58:35.538Z,,,,,,,,,,,,,,,,,15,,,,,,,,,,,,,,1147.9929999936721,,response,,,,7,D,,,,,,Space,keypress(Space),,,,silence,,,,Greg --------- ---------- - --- ------- -- --- ------------<br>----- -- -------- ------- ---- ------ - -------- ---- -----<br>--- ------- ---- -- --- -------- --- - ----- ------ ---- --<br>-------- --- -------- -------- --- -------- ---- -- ----- -<br>-------- ---- --- ---------- --------- -- ------- ------ -<br>--------- ----- -----,234821.7650000006,234820.45499999367,233659.287,233660.56999999273,233672.462,234832.772,,0,Greg
screen,html.Screen,2_3_1_0_1_1,2021-04-26T18:58:35.977Z,,,,,,,,,,,,,,,,,15,,,,,,,,,,,,,,427.0579999954207,,response,,,,7,D,,,,,,Space,keypress(Space),,,,silence,,,,"---- Anderson, ---------- - --- ------- -- --- ------------<br>----- -- -------- ------- ---- ------ - -------- ---- -----<br>--- ------- ---- -- --- -------- --- - ----- ------ ---- --<br>-------- --- -------- -------- --- -------- ---- -- ----- -<br>-------- ---- --- ---------- --------- -- ------- ------ -<br>--------- ----- -----",235260.6550000055,235259.82999999542,234819.046,234822.0699999947,234832.772,235272.181,,1,"Anderson,"
screen,html.Screen,2_3_1_0_1_2,2021-04-26T18:58:36.657Z,,,,,,,,,,,,,,,,,15,,,,,,,,,,,,,,667.5940000061819,,response,,,,7,D,,,,,,Space,keypress(Space),,,,silence,,,,---- --------- considered - --- ------- -- --- ------------<br>----- -- -------- ------- ---- ------ - -------- ---- -----<br>--- ------- ---- -- --- -------- --- - ----- ------ ---- --<br>-------- --- -------- -------- --- -------- ---- -- ----- -<br>-------- ---- --- ---------- --------- -- ------- ------ -<br>--------- ----- -----,235940.62999999733,235939.7750000062,235259.112,235260.9950000042,235272.181,235952.308,,2,considered
screen,html.Screen,2_3_1_0_1_3,2021-04-26T18:58:36.985Z,,,,,,,,,,,,,,,,,15,,,,,,,,,,,,,,315.45699999688077,,response,,,,7,D,,,,,,Space,keypress(Space),,,,silence,,,,---- --------- ---------- a --- ------- -- --- ------------<br>----- -- -------- ------- ---- ------ - -------- ---- -----<br>--- ------- ---- -- --- -------- --- - ----- ------ ---- --<br>-------- --- -------- -------- --- -------- ---- -- ----- -<br>-------- ---- --- ---------- --------- -- ------- ------ -<br>--------- ----- -----,236268.66499999596,236267.76499999687,235938.688,235940.935000006,235952.308,236272.06,,3,a
screen,html.Screen,2_3_1_0_1_4,2021-04-26T18:58:37.224Z,,,,,,,,,,,,,,,,,15,,,,,,,,,,,,,,235.43999999243533,,response,,,,7,D,,,,,,Space,keypress(Space),,,,silence,,,,---- --------- ---------- - key ------- -- --- ------------<br>----- -- -------- ------- ---- ------ - -------- ---- -----<br>--- ------- ---- -- --- -------- --- - ----- ------ ---- --<br>-------- --- -------- -------- --- -------- ---- -- ----- -<br>-------- ---- --- ---------- --------- -- ------- ------ -<br>--------- ----- -----,236508.3949999971,236507.49999999243,236258.692,236268.94500000344,236272.06,236512.066,,4,key
screen,html.Screen,2_3_1_0_1_5,2021-04-26T18:58:37.465Z,,,,,,,,,,,,,,,,,15,,,,,,,,,,,,,,235.7690000019502,,response,,,,7,D,,,,,,Space,keypress(Space),,,,silence,,,,---- --------- ---------- - --- witness -- --- ------------<br>----- -- -------- ------- ---- ------ - -------- ---- -----<br>--- ------- ---- -- --- -------- --- - ----- ------ ---- --<br>-------- --- -------- -------- --- -------- ---- -- ----- -<br>-------- ---- --- ---------- --------- -- ------- ------ -<br>--------- ----- -----,236748.70500000543,236747.83500000194,236499.431,236508.679999999,236512.066,236752.067,,5,witness
screen,html.Screen,2_3_1_0_1_6,2021-04-26T18:58:37.671Z,,,,,,,,,,,,,,,,,15,,,,,,,,,,,,,,202.9129999949655,,response,,,,7,D,,,,,,Space,keypress(Space),,,,silence,,,,---- --------- ---------- - --- ------- by --- ------------<br>----- -- -------- ------- ---- ------ - -------- ---- -----<br>--- ------- ---- -- --- -------- --- - ----- ------ ---- --<br>-------- --- -------- -------- --- -------- ---- -- ----- -<br>-------- ---- --- ---------- --------- -- ------- ------ -<br>--------- ----- -----,236955.4449999996,236954.97999999498,236739,236748.98499999836,236752.067,236965.271,,6,by
screen,html.Screen,2_3_1_0_1_7,2021-04-26T18:58:37.919Z,,,,,,,,,,,,,,,,,15,,,,,,,,,,,,,,237.66399999387795,,response,,,,7,D,,,,,,Space,keypress(Space),,,,silence,,,,---- --------- ---------- - --- ------- -- the ------------<br>----- -- -------- ------- ---- ------ - -------- ---- -----<br>--- ------- ---- -- --- -------- --- - ----- ------ ---- --<br>-------- --- -------- -------- --- -------- ---- -- ----- -<br>-------- ---- --- ---------- --------- -- ------- ------ -<br>--------- ----- -----,237203.38999999512,237202.9349999939,236952.537,236955.53000000655,236965.271,237205.297,,7,the
screen,html.Screen,2_3_1_0_1_8,2021-04-26T18:58:38.153Z,,,,,,,,,,,,,,,,,15,,,,,,,,,,,,,,230.51299999540788,,response,,,,7,D,,,,,,Space,keypress(Space),,,,silence,,,,"---- --------- ---------- - --- ------- -- --- prosecution,<br>----- -- -------- ------- ---- ------ - -------- ---- -----<br>--- ------- ---- -- --- -------- --- - ----- ------ ---- --<br>-------- --- -------- -------- --- -------- ---- -- ----- -<br>-------- ---- --- ---------- --------- -- ------- ------ -<br>--------- ----- -----",237436.6549999977,237435.8099999954,237192.507,237203.50499999768,237205.297,237445.378,,8,"prosecution,"
screen,html.Screen,2_3_1_0_1_9,2021-04-26T18:58:38.417Z,,,,,,,,,,,,,,,,,15,,,,,,,,,,,,,,254.4470000033325,,response,,,,7,D,,,,,,Space,keypress(Space),,,,silence,,,,---- --------- ---------- - --- ------- -- --- ------------<br>vowed -- -------- ------- ---- ------ - -------- ---- -----<br>--- ------- ---- -- --- -------- --- - ----- ------ ---- --<br>-------- --- -------- -------- --- -------- ---- -- ----- -<br>-------- ---- --- ---------- --------- -- ------- ------ -<br>--------- ----- -----,237700.75499999803,237699.82500000333,237432.512,237436.93500000518,237445.378,237712.55,,9,vowed
screen,html.Screen,2_3_1_0_1_10,2021-04-26T18:58:38.625Z,,,,,,,,,,,,,,,,,15,,,,,,,,,,,,,,195.16499999392545,,response,,,,7,D,,,,,,Space,keypress(Space),,,,silence,,,,---- --------- ---------- - --- ------- -- --- ------------<br>----- he -------- ------- ---- ------ - -------- ---- -----<br>--- ------- ---- -- --- -------- --- - ----- ------ ---- --<br>-------- --- -------- -------- --- -------- ---- -- ----- -<br>-------- ---- --- ---------- --------- -- ------- ------ -<br>--------- ----- -----,237908.66499999538,237907.7149999939,237699.166,237701.0350000055,237712.55,237912.04,,10,he
screen,html.Screen,2_3_1_0_1_11,2021-04-26T18:58:39.015Z,,,,,,,,,,,,,,,,,15,,,,,,,,,,,,,,386.7699999929464,,response,,,,7,D,,,,,,Space,keypress(Space),,,,silence,,,,---- --------- ---------- - --- ------- -- --- ------------<br>----- -- wouldn't ------- ---- ------ - -------- ---- -----<br>--- ------- ---- -- --- -------- --- - ----- ------ ---- --<br>-------- --- -------- -------- --- -------- ---- -- ----- -<br>-------- ---- --- ---------- --------- -- ------- ------ -<br>--------- ----- -----,238299.27499999758,238298.80999999295,237898.677,237908.94999999728,237912.04,238311.962,,11,wouldn't
screen,html.Screen,2_3_1_0_1_12,2021-04-26T18:58:39.175Z,,,,,,,,,,,,,,,,,15,,,,,,,,,,,,,,146.9080000022077,,response,,,,7,D,,,,,,Space,keypress(Space),,,,silence,,,,---- --------- ---------- - --- ------- -- --- ------------<br>----- -- -------- testify ---- ------ - -------- ---- -----<br>--- ------- ---- -- --- -------- --- - ----- ------ ---- --<br>-------- --- -------- -------- --- -------- ---- -- ----- -<br>-------- ---- --- ---------- --------- -- ------- ------ -<br>--------- ----- -----,238459.31000000564,238458.8700000022,238299.13,238299.39000000013,238311.962,238472.011,,12,testify
screen,html.Screen,2_3_1_0_1_13,2021-04-26T18:58:39.448Z,,,,,,,,,,,,,,,,,15,,,,,,,,,,,,,,259.44899999542395,,response,,,,7,D,,,,,,Space,keypress(Space),,,,silence,,,,---- --------- ---------- - --- ------- -- --- ------------<br>----- -- -------- ------- when ------ - -------- ---- -----<br>--- ------- ---- -- --- -------- --- - ----- ------ ---- --<br>-------- --- -------- -------- --- -------- ---- -- ----- -<br>-------- ---- --- ---------- --------- -- ------- ------ -<br>--------- ----- -----,238732.05999999482,238731.45999999542,238458.588,238459.39999999246,238472.011,238738.93,,13,when
screen,html.Screen,2_3_1_0_1_14,2021-04-26T18:58:39.792Z,,,,,,,,,,,,,,,,,15,,,,,,,,,,,,,,336.4150000047521,,response,,,,7,D,,,,,,Space,keypress(Space),,,,silence,,,,---- --------- ---------- - --- ------- -- --- ------------<br>----- -- -------- ------- ---- served - -------- ---- -----<br>--- ------- ---- -- --- -------- --- - ----- ------ ---- --<br>-------- --- -------- -------- --- -------- ---- -- ----- -<br>-------- ---- --- ---------- --------- -- ------- ------ -<br>--------- ----- -----,239076.31499999843,239075.34500000475,238725.241,238732.21000000194,238738.93,239085.589,,14,served
screen,html.Screen,2_3_1_0_1_15,2021-04-26T18:58:40.351Z,,,,,,,,,,,,,,,,,15,,,,,,,,,,,,,,549.2809999944002,,response,,,,7,D,,,,,,Space,keypress(Space),,,,silence,,,,---- --------- ---------- - --- ------- -- --- ------------<br>----- -- -------- ------- ---- ------ a -------- ---- -----<br>--- ------- ---- -- --- -------- --- - ----- ------ ---- --<br>-------- --- -------- -------- --- -------- ---- -- ----- -<br>-------- ---- --- ---------- --------- -- ------- ------ -<br>--------- ----- -----,239635.30999999784,239634.8699999944,239072.263,239076.60499999474,239085.589,239645.345,,15,a
screen,html.Screen,2_3_1_0_1_16,2021-04-26T18:58:40.609Z,,,,,,,,,,,,,,,,,15,,,,,,,,,,,,,,246.36000000181957,,response,,,,7,D,,,,,,Space,keypress(Space),,,,silence,,,,---- --------- ---------- - --- ------- -- --- ------------<br>----- -- -------- ------- ---- ------ - subpoena ---- -----<br>--- ------- ---- -- --- -------- --- - ----- ------ ---- --<br>-------- --- -------- -------- --- -------- ---- -- ----- -<br>-------- ---- --- ---------- --------- -- ------- ------ -<br>--------- ----- -----,239892.6849999989,239891.70500000182,239632.393,239635.414999997,239645.345,239898.746,,16,subpoena
screen,html.Screen,2_3_1_0_1_17,2021-04-26T18:58:41.081Z,,,,,,,,,,,,,,,,,15,,,,,,,,,,,,,,464.84900000251946,,response,,,,7,D,,,,,,Space,keypress(Space),,,,silence,,,,---- --------- ---------- - --- ------- -- --- ------------<br>----- -- -------- ------- ---- ------ - -------- last -----<br>--- ------- ---- -- --- -------- --- - ----- ------ ---- --<br>-------- --- -------- -------- --- -------- ---- -- ----- -<br>-------- ---- --- ---------- --------- -- ------- ------ -<br>--------- ----- -----,240364.54999999842,240363.59500000253,239885.824,239892.9700000008,239898.746,240392.398,,17,last
screen,html.Screen,2_3_1_0_1_18,2021-04-26T18:58:41.417Z,,,,,,,,,,,,,,,,,15,,,,,,,,,,,,,,307.23699999722885,,response,,,,7,D,,,,,,Space,keypress(Space),,,,silence,,,,---- --------- ---------- - --- ------- -- --- ------------<br>----- -- -------- ------- ---- ------ - -------- ---- week.<br>--- ------- ---- -- --- -------- --- - ----- ------ ---- --<br>-------- --- -------- -------- --- -------- ---- -- ----- -<br>-------- ---- --- ---------- --------- -- ------- ------ -<br>--------- ----- -----,240700.63500000106,240699.63499999722,240378.896,240364.8499999981,240392.398,240712.179,,18,week.
screen,html.Screen,2_3_1_0_1_19,2021-04-26T18:58:43.471Z,,,,,,,,,,,,,,,,,15,,,,,,,,,,,,,,2042.6810000009136,,response,,,,7,D,,,,,,Space,keypress(Space),,,,silence,,,,---- --------- ---------- - --- ------- -- --- ------------<br>----- -- -------- ------- ---- ------ - -------- ---- -----<br>His ------- ---- -- --- -------- --- - ----- ------ ---- --<br>-------- --- -------- -------- --- -------- ---- -- ----- -<br>-------- ---- --- ---------- --------- -- ------- ------ -<br>--------- ----- -----,242755.33499999437,242754.86000000092,240699.082,240700.91499999398,240712.179,242765.158,,19,His
screen,html.Screen,2_3_1_0_1_20,2021-04-26T18:58:43.729Z,,,,,,,,,,,,,,,,,15,,,,,,,,,,,,,,246.64199999294942,,response,,,,7,D,,,,,,Space,keypress(Space),,,,silence,,,,---- --------- ---------- - --- ------- -- --- ------------<br>----- -- -------- ------- ---- ------ - -------- ---- -----<br>--- lawyers ---- -- --- -------- --- - ----- ------ ---- --<br>-------- --- -------- -------- --- -------- ---- -- ----- -<br>-------- ---- --- ---------- --------- -- ------- ------ -<br>--------- ----- -----,243012.7499999944,243011.79999999295,242751.922,242755.49500000488,242765.158,243018.704,,20,lawyers
screen,html.Screen,2_3_1_0_1_21,2021-04-26T18:58:43.936Z,,,,,,,,,,,,,,,,,15,,,,,,,,,,,,,,200.7159999939904,,response,,,,7,D,,,,,,Space,keypress(Space),,,,silence,,,,---- --------- ---------- - --- ------- -- --- ------------<br>----- -- -------- ------- ---- ------ - -------- ---- -----<br>--- ------- said -- --- -------- --- - ----- ------ ---- --<br>-------- --- -------- -------- --- -------- ---- -- ----- -<br>-------- ---- --- ---------- --------- -- ------- ------ -<br>--------- ----- -----,243219.94500000437,243219.419999994,243005.489,243013.0300000019,243018.704,243232.627,,21,said
screen,html.Screen,2_3_1_0_1_22,2021-04-26T18:58:44.209Z,,,,,,,,,,,,,,,,,15,,,,,,,,,,,,,,259.19800000460236,,response,,,,7,D,,,,,,Space,keypress(Space),,,,silence,,,,---- --------- ---------- - --- ------- -- --- ------------<br>----- -- -------- ------- ---- ------ - -------- ---- -----<br>--- ------- ---- he --- -------- --- - ----- ------ ---- --<br>-------- --- -------- -------- --- -------- ---- -- ----- -<br>-------- ---- --- ---------- --------- -- ------- ------ -<br>--------- ----- -----,243492.7699999971,243491.8250000046,243218.863,243220.02999999677,243232.627,243498.673,,22,he
screen,html.Screen,2_3_1_0_1_23,2021-04-26T18:58:44.473Z,,,,,,,,,,,,,,,,,15,,,,,,,,,,,,,,257.1419999967911,,response,,,,7,D,,,,,,Space,keypress(Space),,,,silence,,,,---- --------- ---------- - --- ------- -- --- ------------<br>----- -- -------- ------- ---- ------ - -------- ---- -----<br>--- ------- ---- -- was -------- --- - ----- ------ ---- --<br>-------- --- -------- -------- --- -------- ---- -- ----- -<br>-------- ---- --- ---------- --------- -- ------- ------ -<br>--------- ----- -----,243756.76499999827,243755.8149999968,243485.749,243493.0500000046,243498.673,243765.579,,23,was
screen,html.Screen,2_3_1_0_1_24,2021-04-26T18:58:44.744Z,,,,,,,,,,,,,,,,,15,,,,,,,,,,,,,,261.5260000010312,,response,,,,7,D,,,,,,Space,keypress(Space),,,,silence,,,,---- --------- ---------- - --- ------- -- --- ------------<br>----- -- -------- ------- ---- ------ - -------- ---- -----<br>--- ------- ---- -- --- prepared --- - ----- ------ ---- --<br>-------- --- -------- -------- --- -------- ---- -- ----- -<br>-------- ---- --- ---------- --------- -- ------- ------ -<br>--------- ----- -----,244027.7999999962,244027.10500000103,243752.14,243757.05000000016,243765.579,244031.937,,24,prepared
screen,html.Screen,2_3_1_0_1_25,2021-04-26T18:58:44.961Z,,,,,,,,,,,,,,,,,15,,,,,,,,,,,,,,211.7979999963718,,response,,,,7,D,,,,,,Space,keypress(Space),,,,silence,,,,---- --------- ---------- - --- ------- -- --- ------------<br>----- -- -------- ------- ---- ------ - -------- ---- -----<br>--- ------- ---- -- --- -------- for - ----- ------ ---- --<br>-------- --- -------- -------- --- -------- ---- -- ----- -<br>-------- ---- --- ---------- --------- -- ------- ------ -<br>--------- ----- -----,244244.81000000378,244243.73499999638,244019.061,244027.99499999674,244031.937,244272.046,,25,for
screen,html.Screen,2_3_1_0_1_26,2021-04-26T18:58:45.209Z,,,,,,,,,,,,,,,,,15,,,,,,,,,,,,,,219.77900000460795,,response,,,,7,D,,,,,,Space,keypress(Space),,,,silence,,,,---- --------- ---------- - --- ------- -- --- ------------<br>----- -- -------- ------- ---- ------ - -------- ---- -----<br>--- ------- ---- -- --- -------- --- a ----- ------ ---- --<br>-------- --- -------- -------- --- -------- ---- -- ----- -<br>-------- ---- --- ---------- --------- -- ------- ------ -<br>--------- ----- -----,244492.84500000067,244491.8250000046,244259.017,244245.13999999908,244272.046,244498.67,,26,a
screen,html.Screen,2_3_1_0_1_27,2021-04-26T18:58:45.473Z,,,,,,,,,,,,,,,,,15,,,,,,,,,,,,,,256.93000000403845,,response,,,,7,D,,,,,,Space,keypress(Space),,,,silence,,,,---- --------- ---------- - --- ------- -- --- ------------<br>----- -- -------- ------- ---- ------ - -------- ---- -----<br>--- ------- ---- -- --- -------- --- - third ------ ---- --<br>-------- --- -------- -------- --- -------- ---- -- ----- -<br>-------- ---- --- ---------- --------- -- ------- ------ -<br>--------- ----- -----,244756.53499999316,244755.60000000405,244485.736,244493.13000000257,244498.67,244765.267,,27,third
screen,html.Screen,2_3_1_0_1_28,2021-04-26T18:58:45.697Z,,,,,,,,,,,,,,,,,15,,,,,,,,,,,,,,215.14300000376534,,response,,,,7,D,,,,,,Space,keypress(Space),,,,silence,,,,---- --------- ---------- - --- ------- -- --- ------------<br>----- -- -------- ------- ---- ------ - -------- ---- -----<br>--- ------- ---- -- --- -------- --- - ----- prison ---- --<br>-------- --- -------- -------- --- -------- ---- -- ----- -<br>-------- ---- --- ---------- --------- -- ------- ------ -<br>--------- ----- -----,244981.29999999946,244980.41000000376,244752.091,244756.81999999506,244765.267,244992.322,,28,prison
screen,html.Screen,2_3_1_0_1_29,2021-04-26T18:58:46.097Z,,,,,,,,,,,,,,,,,15,,,,,,,,,,,,,,387.4529999939841,,response,,,,7,D,,,,,,Space,keypress(Space),,,,silence,,,,---- --------- ---------- - --- ------- -- --- ------------<br>----- -- -------- ------- ---- ------ - -------- ---- -----<br>--- ------- ---- -- --- -------- --- - ----- ------ stay --<br>-------- --- -------- -------- --- -------- ---- -- ----- -<br>-------- ---- --- ---------- --------- -- ------- ------ -<br>--------- ----- -----,245380.72000000102,245379.77499999397,244979.074,244981.58999999578,244992.322,245392.294,,29,stay
screen,html.Screen,2_3_1_0_1_30,2021-04-26T18:58:46.456Z,,,,,,,,,,,,,,,,,15,,,,,,,,,,,,,,347.05600000347476,,response,,,,7,D,,,,,,Space,keypress(Space),,,,silence,,,,---- --------- ---------- - --- ------- -- --- ------------<br>----- -- -------- ------- ---- ------ - -------- ---- -----<br>--- ------- ---- -- --- -------- --- - ----- ------ ---- to<br>-------- --- -------- -------- --- -------- ---- -- ----- -<br>-------- ---- --- ---------- --------- -- ------- ------ -<br>--------- ----- -----,245739.80999999912,245739.35000000347,245378.563,245380.99999999395,245392.294,245752.117,,30,to
screen,html.Screen,2_3_1_0_1_31,2021-04-26T18:58:46.752Z,,,,,,,,,,,,,,,,,15,,,,,,,,,,,,,,283.29800000574323,,response,,,,7,D,,,,,,Space,keypress(Space),,,,silence,,,,---- --------- ---------- - --- ------- -- --- ------------<br>----- -- -------- ------- ---- ------ - -------- ---- -----<br>--- ------- ---- -- --- -------- --- - ----- ------ ---- --<br>maintain --- -------- -------- --- -------- ---- -- ----- -<br>-------- ---- --- ---------- --------- -- ------- ------ -<br>--------- ----- -----,246036.33000000264,246035.41500000574,245738.473,245739.92500000168,245752.117,246045.522,,31,maintain
screen,html.Screen,2_3_1_0_1_32,2021-04-26T18:58:46.984Z,,,,,,,,,,,,,,,,,15,,,,,,,,,,,,,,221.85299999581184,,response,,,,7,D,,,,,,Space,keypress(Space),,,,silence,,,,---- --------- ---------- - --- ------- -- --- ------------<br>----- -- -------- ------- ---- ------ - -------- ---- -----<br>--- ------- ---- -- --- -------- --- - ----- ------ ---- --<br>-------- his -------- -------- --- -------- ---- -- ----- -<br>-------- ---- --- ---------- --------- -- ------- ------ -<br>--------- ----- -----,246268.33999999508,246267.3749999958,246032.342,246036.61999999895,246045.522,246271.906,,32,his
screen,html.Screen,2_3_1_0_1_33,2021-04-26T18:58:47.233Z,,,,,,,,,,,,,,,,,15,,,,,,,,,,,,,,243.78899999460555,,response,,,,7,D,,,,,,Space,keypress(Space),,,,silence,,,,---- --------- ---------- - --- ------- -- --- ------------<br>----- -- -------- ------- ---- ------ - -------- ---- -----<br>--- ------- ---- -- --- -------- --- - ----- ------ ---- --<br>-------- --- silence. -------- --- -------- ---- -- ----- -<br>-------- ---- --- ---------- --------- -- ------- ------ -<br>--------- ----- -----,246516.5549999947,246515.6949999946,246259.065,246268.60999999917,246271.906,246525.319,,33,silence.
screen,html.Screen,2_3_1_0_1_34,2021-04-26T18:58:47.921Z,,,,,,,,,,,,,,,,,15,,,,,,,,,,,,,,678.4560000017809,,response,,,,7,D,,,,,,Space,keypress(Space),,,,silence,,,,---- --------- ---------- - --- ------- -- --- ------------<br>----- -- -------- ------- ---- ------ - -------- ---- -----<br>--- ------- ---- -- --- -------- --- - ----- ------ ---- --<br>-------- --- -------- Anderson --- -------- ---- -- ----- -<br>-------- ---- --- ---------- --------- -- ------- ------ -<br>--------- ----- -----,247204.86499999242,247203.77500000177,246512.146,246516.80500000657,246525.319,247218.977,,34,Anderson
screen,html.Screen,2_3_1_0_1_35,2021-04-26T18:58:48.200Z,,,,,,,,,,,,,,,,,15,,,,,,,,,,,,,,264.31799999816576,,response,,,,7,D,,,,,,Space,keypress(Space),,,,silence,,,,---- --------- ---------- - --- ------- -- --- ------------<br>----- -- -------- ------- ---- ------ - -------- ---- -----<br>--- ------- ---- -- --- -------- --- - ----- ------ ---- --<br>-------- --- -------- -------- was -------- ---- -- ----- -<br>-------- ---- --- ---------- --------- -- ------- ------ -<br>--------- ----- -----,247483.745000005,247483.29499999818,247205.665,247205.20500000566,247218.977,247485.137,,35,was
screen,html.Screen,2_3_1_0_1_36,2021-04-26T18:58:48.521Z,,,,,,,,,,,,,,,,,15,,,,,,,,,,,,,,318.7330000033835,,response,,,,7,D,,,,,,Space,keypress(Space),,,,silence,,,,---- --------- ---------- - --- ------- -- --- ------------<br>----- -- -------- ------- ---- ------ - -------- ---- -----<br>--- ------- ---- -- --- -------- --- - ----- ------ ---- --<br>-------- --- -------- -------- --- released ---- -- ----- -<br>-------- ---- --- ---------- --------- -- ------- ------ -<br>--------- ----- -----,247804.86499999824,247803.87000000337,247472.081,247483.85499999858,247485.137,247819.054,,36,released
screen,html.Screen,2_3_1_0_1_37,2021-04-26T18:58:48.833Z,,,,,,,,,,,,,,,,,15,,,,,,,,,,,,,,296.5610000024317,,response,,,,7,D,,,,,,Space,keypress(Space),,,,silence,,,,---- --------- ---------- - --- ------- -- --- ------------<br>----- -- -------- ------- ---- ------ - -------- ---- -----<br>--- ------- ---- -- --- -------- --- - ----- ------ ---- --<br>-------- --- -------- -------- --- -------- July -- ----- -<br>-------- ---- --- ---------- --------- -- ------- ------ -<br>--------- ----- -----,248116.6050000029,248115.61500000244,247805.29,247805.15499999456,247819.054,248125.291,,37,July
screen,html.Screen,2_3_1_0_1_38,2021-04-26T18:58:49.152Z,,,,,,,,,,,,,,,,,15,,,,,,,,,,,,,,310.00400000295485,,response,,,,7,D,,,,,,Space,keypress(Space),,,,silence,,,,---- --------- ---------- - --- ------- -- --- ------------<br>----- -- -------- ------- ---- ------ - -------- ---- -----<br>--- ------- ---- -- --- -------- --- - ----- ------ ---- --<br>-------- --- -------- -------- --- -------- ---- 20 ----- -<br>-------- ---- --- ---------- --------- -- ------- ------ -<br>--------- ----- -----,248436.17499999527,248435.29500000295,248112.099,248116.89999999362,248125.291,248445.176,,38,20
