sender,sender_type,sender_id,timestamp,meta,,Blues,Classical,Country,Dance,Electronic,Folk,Gospel,Hip-Hop,Jazz,Latin,Musical/Film,New-age,Pop,Prolific_id,Provo_ID,R&B,Rap,Reggae,Religious,Rock,Soul,Swing,Traditional,age,artist_name,correct,correctResponse,distraction,duration,education,ended_on,familiarity,gender,headphone_check_performance,item,list,music_frequency,offensiveness,pleasantness,position_correct,preference,response,response_action,snippet_file,song_name,song_rating,sound,stimulus_1,stimulus_2,stimulus_3,text,time_commit,time_end,time_render,time_run,time_show,time_switch,url,word,word_ID
Prolific ID,html.Form,0,2021-04-26T19:51:54.887Z,"{""labjs_version"":""20.2.2"",""labjs_build"":{""flavor"":""production"",""commit"":""a25486e0c714a0ae2ce03ff94b7bb6896854dcfa""},""location"":""https://run.pavlovia.org/mvasilev/prolific_music_e/"",""userAgent"":""Mozilla/5.0 (Macintosh; Intel Mac OS X 10_15_6) AppleWebKit/605.1.15 (KHTML, like Gecko) Version/14.0.3 Safari/605.1.15"",""platform"":""MacIntel"",""language"":""en-gb"",""locale"":""en-GB"",""timeZone"":""Europe/London"",""timezoneOffset"":-60,""screen_width"":1440,""screen_height"":900,""scroll_width"":1440,""scroll_height"":772,""window_innerWidth"":1440,""window_innerHeight"":820,""devicePixelRatio"":2}",,,,,,,,,,,,,,,5f11b58daef3d105c69d8967,,,,,,,,,,,,,,,4090,,form submission,,,,,,,,,,,,,,,,,,,,,10515,10514,6407,6390.000000000001,6424,10543,{},,
Introduction,html.Screen,1_0,2021-04-26T19:53:00.963Z,,,,,,,,,,,,,,,,,,,,,,,,,,,,,,,66014,,response,,,,,,,,,,,continue,click button,,,,,,,,,76584,76541,10527,10515,10543,76601,,,
Volume calibration,html.Screen,1_1,2021-04-26T19:53:21.001Z,,,,,,,,,,,,,,,,,,,,,,,,,,,,,,,19964,,response,,,,,,,,,,,continue,click button,,,,,,,,,96608,96554,76590,76584,76601,96632,,,
Task instructions,html.Screen,1_2,2021-04-26T19:53:31.502Z,,,,,,,,,,,,,,,,,,,,,,,,,,,,,,,10436,,response,,,,,,,,,,,continue,click button,,,,,,,,,107107,107052,96616,96609.00000000001,96632,107134,,,
Sounds,html.Screen,1_3_0_0,2021-04-26T19:53:35.763Z,,,,,,,,,,,,,,,,,,,,,,,,,,,,,,,4248,,timeout,,,,,,,,,3,,,,,,,,O,I,S,,111367,111366,107117,107108,107134,111382,,,
Judgement,html.Screen,1_3_0_1,2021-04-26T19:53:37.246Z,,,,,,,,,,,,,,,,,,,,,,,,,,,,true,3,,1430,,response,,,,,,,,,3,,3,click #choice-3,,,,,O,I,S,,112851,112796,111366,111367,111382,112873,,,
Trial,flow.Sequence,1_3_0,2021-04-26T19:53:37.247Z,,,,,,,,,,,,,,,,,,,,,,,,,,,,,,,5662,,completion,,,,,,,,,3,,,,,,,,O,I,S,,112852,112796,107117,107108,107134,112873,,,
Sounds,html.Screen,1_3_1_0,2021-04-26T19:53:41.498Z,,,,,,,,,,,,,,,,,,,,,,,,,,,,,,,4245,,timeout,,,,,,,,,3,,,,,,,,I,O,S,,117102,117101,112856,112852,112873,117118,,,
Judgement,html.Screen,1_3_1_1,2021-04-26T19:53:42.565Z,,,,,,,,,,,,,,,,,,,,,,,,,,,,true,3,,1013,,response,,,,,,,,,3,,3,click #choice-3,,,,,I,O,S,,118169,118114,117101,117102,117118,118200,,,
Trial,flow.Sequence,1_3_1,2021-04-26T19:53:42.565Z,,,,,,,,,,,,,,,,,,,,,,,,,,,,,,,5241,,completion,,,,,,,,,3,,,,,,,,I,O,S,,118169,118114,112856,112852,112873,118200,,,
Sounds,html.Screen,1_3_2_0,2021-04-26T19:53:46.828Z,,,,,,,,,,,,,,,,,,,,,,,,,,,,,,,4247,,timeout,,,,,,,,,2,,,,,,,,O,S,I,,122431,122431,118182,118169,118200,122447,,,
Judgement,html.Screen,1_3_2_1,2021-04-26T19:53:47.441Z,,,,,,,,,,,,,,,,,,,,,,,,,,,,true,2,,558,,response,,,,,,,,,2,,2,click #choice-2,,,,,O,S,I,,123044,122989,122431,122431,122447,123063,,,
Trial,flow.Sequence,1_3_2,2021-04-26T19:53:47.442Z,,,,,,,,,,,,,,,,,,,,,,,,,,,,,,,4789,,completion,,,,,,,,,2,,,,,,,,O,S,I,,123045,122989,118182,118169,118200,123063,,,
Sounds,html.Screen,1_3_3_0,2021-04-26T19:53:51.692Z,,,,,,,,,,,,,,,,,,,,,,,,,,,,,,,4248,,timeout,,,,,,,,,1,,,,,,,,S,I,O,,127295,127294,123046,123045,123063,127311,,,
Judgement,html.Screen,1_3_3_1,2021-04-26T19:53:52.278Z,,,,,,,,,,,,,,,,,,,,,,,,,,,,true,1,,531,,response,,,,,,,,,1,,1,click #choice-1,,,,,S,I,O,,127881,127825,127294,127295,127311,127911,,,
Trial,flow.Sequence,1_3_3,2021-04-26T19:53:52.278Z,,,,,,,,,,,,,,,,,,,,,,,,,,,,,,,4762,,completion,,,,,,,,,1,,,,,,,,S,I,O,,127881,127825,123046,123045,123063,127911,,,
Sounds,html.Screen,1_3_4_0,2021-04-26T19:53:56.540Z,,,,,,,,,,,,,,,,,,,,,,,,,,,,,,,4248,,timeout,,,,,,,,,1,,,,,,,,S,O,I,,132143,132142,127895,127881,127911,132159,,,
Judgement,html.Screen,1_3_4_1,2021-04-26T19:53:57.049Z,,,,,,,,,,,,,,,,,,,,,,,,,,,,true,1,,454,,response,,,,,,,,,1,,1,click #choice-1,,,,,S,O,I,,132652.00000000003,132596,132142,132143,132159,132681,,,
Trial,flow.Sequence,1_3_4,2021-04-26T19:53:57.050Z,,,,,,,,,,,,,,,,,,,,,,,,,,,,,,,4685,,completion,,,,,,,,,1,,,,,,,,S,O,I,,132652.00000000003,132596,127895,127881,127911,132681,,,
Sounds,html.Screen,1_3_5_0,2021-04-26T19:54:01.309Z,,,,,,,,,,,,,,,,,,,,,,,,,,,,,,,4246,,timeout,,,,,,,,,2,,,,,,,,I,S,O,,136911,136911,132666,132652.00000000003,132681,136927,,,
Judgement,html.Screen,1_3_5_1,2021-04-26T19:54:01.917Z,,,,,,,,,,,,,,,,,,,,,,,,,,,,true,2,,551,,response,,,,,,,,,2,,2,click #choice-2,,,,,I,S,O,,137519,137462,136911,136911,136927,137544,,,
Trial,flow.Sequence,1_3_5,2021-04-26T19:54:01.917Z,,,,,,,,,,,,,,,,,,,,,,,,,,,,,,,4781,,completion,,,,,,,,,2,,,,,,,,I,S,O,,137519,137462,132666,132652.00000000003,132681,137544,,,
Task,flow.Loop,1_3,2021-04-26T19:54:01.920Z,,,,,,,,,,,,,,,,,,,,,,,,,,,,,,,30328,,completion,,,1,,,,,,,,,,,,,,,,,,137522,137462,107117,107108,107134,137544,,,
Trap,html.Screen,1_4,2021-04-26T19:54:01.922Z,,,,,,,,,,,,,,,,,,,,,,,,,,,,,,,NaN,,skipped,,,,,,,,,,,,,,,,,,,,,137525,137462,,137524,,137544,,,
Thanks,html.Screen,1_5,2021-04-26T19:54:07.268Z,,,,,,,,,,,,,,,,,,,,,,,,,,,,,,,5283,,response,,,,,,,,,,,continue,click button,,,,,,,,,142869,142810,137527,137525,137544,148492,,,
Headphone screening,flow.Sequence,1,2021-04-26T19:54:07.268Z,,,,,,,,,,,,,,,,,,,,,,,,,,,,,,,132267,,completion,,,,,,,,,,,,,,,,,,,,,142870,142810,10527,10515,10543,148492,,,
Instructions,html.Page,2_0,2021-04-26T19:55:43.698Z,,,,,,,,,,,,,,,,,,,,,,,,,,,,,,,90804,,form submission,,,,,,,,,,,,,,,,,,,,,239296,239296,148483,148470,148492,239321,,,
Holding screen,html.Screen,2_1_0_0,2021-04-26T19:55:53.708Z,,,,,,,,,,,,,,,,,,,,,,,,,,,,,,,10007,,timeout,,,,,,,,,,,,,,,,,,,,,249306,249306,239303,239297,239321,249328,,,
screen,html.Screen,2_1_0_1_0,2021-04-26T19:55:54.461Z,,,,,,,,,,,,,,,,,53,,,,,,,,,,,,,,691,,response,,,,99,,,,,,,Space,keypress(Space),,,,,,,,When -- ----- -- ------ - ------- --- ----------<br>------------- ------ ------ ---- ---- ------- ----- -- ----<br>-------- ------- -- ---------- --- - --- ----- ----- ----<br>---- --- --- ----- --- ---- ---- ------- ----- ---- -------<br>--- --- -- ----- -- --- ---- -- --- ---- -- ------ ------<br>--- ----- -- ----,250059,249997,249306,249307.00000000003,249328,250092,,0,When
screen,html.Screen,2_1_0_1_1,2021-04-26T19:55:54.848Z,,,,,,,,,,,,,,,,,53,,,,,,,,,,,,,,310,,response,,,,99,,,,,,,Space,keypress(Space),,,,,,,,---- it ----- -- ------ - ------- --- ----------<br>------------- ------ ------ ---- ---- ------- ----- -- ----<br>-------- ------- -- ---------- --- - --- ----- ----- ----<br>---- --- --- ----- --- ---- ---- ------- ----- ---- -------<br>--- --- -- ----- -- --- ---- -- --- ---- -- ------ ------<br>--- ----- -- ----,250447,250386,250076,250060,250092,250471,,1,it
screen,html.Screen,2_1_0_1_2,2021-04-26T19:55:55.341Z,,,,,,,,,,,,,,,,,53,,,,,,,,,,,,,,424,,response,,,,99,,,,,,,Space,keypress(Space),,,,,,,,---- -- comes -- ------ - ------- --- ----------<br>------------- ------ ------ ---- ---- ------- ----- -- ----<br>-------- ------- -- ---------- --- - --- ----- ----- ----<br>---- --- --- ----- --- ---- ---- ------- ----- ---- -------<br>--- --- -- ----- -- --- ---- -- --- ---- -- ------ ------<br>--- ----- -- ----,250940,250878,250454,250447,250471,250975,,2,comes
screen,html.Screen,2_1_0_1_3,2021-04-26T19:55:55.792Z,,,,,,,,,,,,,,,,,53,,,,,,,,,,,,,,371,,response,,,,99,,,,,,,Space,keypress(Space),,,,,,,,---- -- ----- to ------ - ------- --- ----------<br>------------- ------ ------ ---- ---- ------- ----- -- ----<br>-------- ------- -- ---------- --- - --- ----- ----- ----<br>---- --- --- ----- --- ---- ---- ------- ----- ---- -------<br>--- --- -- ----- -- --- ---- -- --- ---- -- ------ ------<br>--- ----- -- ----,251391,251329,250958,250940,250975,251429,,3,to
screen,html.Screen,2_1_0_1_4,2021-04-26T19:55:56.593Z,,,,,,,,,,,,,,,,,53,,,,,,,,,,,,,,719,,response,,,,99,,,,,,,Space,keypress(Space),,,,,,,,---- -- ----- -- having - ------- --- ----------<br>------------- ------ ------ ---- ---- ------- ----- -- ----<br>-------- ------- -- ---------- --- - --- ----- ----- ----<br>---- --- --- ----- --- ---- ---- ------- ----- ---- -------<br>--- --- -- ----- -- --- ---- -- --- ---- -- ------ ------<br>--- ----- -- ----,252192,252131,251412,251391,251429,252230,,4,having
screen,html.Screen,2_1_0_1_5,2021-04-26T19:55:57.103Z,,,,,,,,,,,,,,,,,53,,,,,,,,,,,,,,426.0000000000291,,response,,,,99,,,,,,,Space,keypress(Space),,,,,,,,---- -- ----- -- ------ a ------- --- ----------<br>------------- ------ ------ ---- ---- ------- ----- -- ----<br>-------- ------- -- ---------- --- - --- ----- ----- ----<br>---- --- --- ----- --- ---- ---- ------- ----- ---- -------<br>--- --- -- ----- -- --- ---- -- --- ---- -- ------ ------<br>--- ----- -- ----,252701,252640.00000000003,252214,252192,252230,252734,,5,a
screen,html.Screen,2_1_0_1_6,2021-04-26T19:55:57.664Z,,,,,,,,,,,,,,,,,53,,,,,,,,,,,,,,484,,response,,,,99,,,,,,,Space,keypress(Space),,,,,,,,---- -- ----- -- ------ - lasting --- ----------<br>------------- ------ ------ ---- ---- ------- ----- -- ----<br>-------- ------- -- ---------- --- - --- ----- ----- ----<br>---- --- --- ----- --- ---- ---- ------- ----- ---- -------<br>--- --- -- ----- -- --- ---- -- --- ---- -- ------ ------<br>--- ----- -- ----,253263,253201,252717,252701,252734,253304,,6,lasting
screen,html.Screen,2_1_0_1_7,2021-04-26T19:55:58.125Z,,,,,,,,,,,,,,,,,53,,,,,,,,,,,,,,376,,response,,,,99,,,,,,,Space,keypress(Space),,,,,,,,---- -- ----- -- ------ - ------- and ----------<br>------------- ------ ------ ---- ---- ------- ----- -- ----<br>-------- ------- -- ---------- --- - --- ----- ----- ----<br>---- --- --- ----- --- ---- ---- ------- ----- ---- -------<br>--- --- -- ----- -- --- ---- -- --- ---- -- ------ ------<br>--- ----- -- ----,253723,253662,253286,253263,253304,253757,,7,and
screen,html.Screen,2_1_0_1_8,2021-04-26T19:55:58.705Z,,,,,,,,,,,,,,,,,53,,,,,,,,,,,,,,501,,response,,,,99,,,,,,,Space,keypress(Space),,,,,,,,---- -- ----- -- ------ - ------- --- fulfilling<br>------------- ------ ------ ---- ---- ------- ----- -- ----<br>-------- ------- -- ---------- --- - --- ----- ----- ----<br>---- --- --- ----- --- ---- ---- ------- ----- ---- -------<br>--- --- -- ----- -- --- ---- -- --- ---- -- ------ ------<br>--- ----- -- ----,254303,254241,253740,253723,253757,254342,,8,fulfilling
screen,html.Screen,2_1_0_1_9,2021-04-26T19:55:59.246Z,,,,,,,,,,,,,,,,,53,,,,,,,,,,,,,,456,,response,,,,99,,,,,,,Space,keypress(Space),,,,,,,,"---- -- ----- -- ------ - ------- --- ----------<br>relationship, ------ ------ ---- ---- ------- ----- -- ----<br>-------- ------- -- ---------- --- - --- ----- ----- ----<br>---- --- --- ----- --- ---- ---- ------- ----- ---- -------<br>--- --- -- ----- -- --- ---- -- --- ---- -- ------ ------<br>--- ----- -- ----",254844,254782,254326,254303,254342,254879,,9,"relationship,"
screen,html.Screen,2_1_0_1_10,2021-04-26T19:55:59.768Z,,,,,,,,,,,,,,,,,53,,,,,,,,,,,,,,443,,response,,,,99,,,,,,,Space,keypress(Space),,,,,,,,---- -- ----- -- ------ - ------- --- ----------<br>------------- common ------ ---- ---- ------- ----- -- ----<br>-------- ------- -- ---------- --- - --- ----- ----- ----<br>---- --- --- ----- --- ---- ---- ------- ----- ---- -------<br>--- --- -- ----- -- --- ---- -- --- ---- -- ------ ------<br>--- ----- -- ----,255366,255305,254862,254844,254879,255398,,10,common
screen,html.Screen,2_1_0_1_11,2021-04-26T19:56:00.335Z,,,,,,,,,,,,,,,,,53,,,,,,,,,,,,,,489,,response,,,,99,,,,,,,Space,keypress(Space),,,,,,,,---- -- ----- -- ------ - ------- --- ----------<br>------------- ------ wisdom ---- ---- ------- ----- -- ----<br>-------- ------- -- ---------- --- - --- ----- ----- ----<br>---- --- --- ----- --- ---- ---- ------- ----- ---- -------<br>--- --- -- ----- -- --- ---- -- --- ---- -- ------ ------<br>--- ----- -- ----,255933,255871,255382,255367.00000000003,255398,255968,,11,wisdom
screen,html.Screen,2_1_0_1_12,2021-04-26T19:56:00.856Z,,,,,,,,,,,,,,,,,53,,,,,,,,,,,,,,441.0000000000291,,response,,,,99,,,,,,,Space,keypress(Space),,,,,,,,---- -- ----- -- ------ - ------- --- ----------<br>------------- ------ ------ says ---- ------- ----- -- ----<br>-------- ------- -- ---------- --- - --- ----- ----- ----<br>---- --- --- ----- --- ---- ---- ------- ----- ---- -------<br>--- --- -- ----- -- --- ---- -- --- ---- -- ------ ------<br>--- ----- -- ----,256454.99999999997,256393.00000000003,255952,255933,255968,256488,,12,says
screen,html.Screen,2_1_0_1_13,2021-04-26T19:56:01.262Z,,,,,,,,,,,,,,,,,53,,,,,,,,,,,,,,327.9999999999709,,response,,,,99,,,,,,,Space,keypress(Space),,,,,,,,---- -- ----- -- ------ - ------- --- ----------<br>------------- ------ ------ ---- that ------- ----- -- ----<br>-------- ------- -- ---------- --- - --- ----- ----- ----<br>---- --- --- ----- --- ---- ---- ------- ----- ---- -------<br>--- --- -- ----- -- --- ---- -- --- ---- -- ------ ------<br>--- ----- -- ----,256860,256798.99999999997,256471,256454.99999999997,256488,256891,,13,that
screen,html.Screen,2_1_0_1_14,2021-04-26T19:56:01.701Z,,,,,,,,,,,,,,,,,53,,,,,,,,,,,,,,365,,response,,,,99,,,,,,,Space,keypress(Space),,,,,,,,---- -- ----- -- ------ - ------- --- ----------<br>------------- ------ ------ ---- ---- feeling ----- -- ----<br>-------- ------- -- ---------- --- - --- ----- ----- ----<br>---- --- --- ----- --- ---- ---- ------- ----- ---- -------<br>--- --- -- ----- -- --- ---- -- --- ---- -- ------ ------<br>--- ----- -- ----,257300,257238,256873,256860,256891,257326,,14,feeling
screen,html.Screen,2_1_0_1_15,2021-04-26T19:56:02.109Z,,,,,,,,,,,,,,,,,53,,,,,,,,,,,,,,337.0000000000291,,response,,,,99,,,,,,,Space,keypress(Space),,,,,,,,---- -- ----- -- ------ - ------- --- ----------<br>------------- ------ ------ ---- ---- ------- close -- ----<br>-------- ------- -- ---------- --- - --- ----- ----- ----<br>---- --- --- ----- --- ---- ---- ------- ----- ---- -------<br>--- --- -- ----- -- --- ---- -- --- ---- -- ------ ------<br>--- ----- -- ----,257707,257646.00000000003,257309,257300,257326,257746,,15,close
screen,html.Screen,2_1_0_1_16,2021-04-26T19:56:02.573Z,,,,,,,,,,,,,,,,,53,,,,,,,,,,,,,,381,,response,,,,99,,,,,,,Space,keypress(Space),,,,,,,,---- -- ----- -- ------ - ------- --- ----------<br>------------- ------ ------ ---- ---- ------- ----- to ----<br>-------- ------- -- ---------- --- - --- ----- ----- ----<br>---- --- --- ----- --- ---- ---- ------- ----- ---- -------<br>--- --- -- ----- -- --- ---- -- --- ---- -- ------ ------<br>--- ----- -- ----,258171,258110,257729,257708.00000000003,257746,258198,,16,to
screen,html.Screen,2_1_0_1_17,2021-04-26T19:56:02.975Z,,,,,,,,,,,,,,,,,53,,,,,,,,,,,,,,330,,response,,,,99,,,,,,,Space,keypress(Space),,,,,,,,---- -- ----- -- ------ - ------- --- ----------<br>------------- ------ ------ ---- ---- ------- ----- -- your<br>-------- ------- -- ---------- --- - --- ----- ----- ----<br>---- --- --- ----- --- ---- ---- ------- ----- ---- -------<br>--- --- -- ----- -- --- ---- -- --- ---- -- ------ ------<br>--- ----- -- ----,258572.99999999997,258512,258182,258171,258198,258601,,17,your
screen,html.Screen,2_1_0_1_18,2021-04-26T19:56:03.437Z,,,,,,,,,,,,,,,,,53,,,,,,,,,,,,,,389,,response,,,,99,,,,,,,Space,keypress(Space),,,,,,,,---- -- ----- -- ------ - ------- --- ----------<br>------------- ------ ------ ---- ---- ------- ----- -- ----<br>romantic ------- -- ---------- --- - --- ----- ----- ----<br>---- --- --- ----- --- ---- ---- ------- ----- ---- -------<br>--- --- -- ----- -- --- ---- -- --- ---- -- ------ ------<br>--- ----- -- ----,259035.00000000003,258973,258584,258574,258601,259070,,18,romantic
screen,html.Screen,2_1_0_1_19,2021-04-26T19:56:03.845Z,,,,,,,,,,,,,,,,,53,,,,,,,,,,,,,,327.0000000000291,,response,,,,99,,,,,,,Space,keypress(Space),,,,,,,,---- -- ----- -- ------ - ------- --- ----------<br>------------- ------ ------ ---- ---- ------- ----- -- ----<br>-------- partner -- ---------- --- - --- ----- ----- ----<br>---- --- --- ----- --- ---- ---- ------- ----- ---- -------<br>--- --- -- ----- -- --- ---- -- --- ---- -- ------ ------<br>--- ----- -- ----,259442.99999999997,259381.00000000003,259054,259035.00000000003,259070,259473,,19,partner
screen,html.Screen,2_1_0_1_20,2021-04-26T19:56:04.271Z,,,,,,,,,,,,,,,,,53,,,,,,,,,,,,,,351,,response,,,,99,,,,,,,Space,keypress(Space),,,,,,,,---- -- ----- -- ------ - ------- --- ----------<br>------------- ------ ------ ---- ---- ------- ----- -- ----<br>-------- ------- is ---------- --- - --- ----- ----- ----<br>---- --- --- ----- --- ---- ---- ------- ----- ---- -------<br>--- --- -- ----- -- --- ---- -- --- ---- -- ------ ------<br>--- ----- -- ----,259870,259808,259457,259442.99999999997,259473,259910,,20,is
screen,html.Screen,2_1_0_1_21,2021-04-26T19:56:04.865Z,,,,,,,,,,,,,,,,,53,,,,,,,,,,,,,,509,,response,,,,99,,,,,,,Space,keypress(Space),,,,,,,,---- -- ----- -- ------ - ------- --- ----------<br>------------- ------ ------ ---- ---- ------- ----- -- ----<br>-------- ------- -- paramount. --- - --- ----- ----- ----<br>---- --- --- ----- --- ---- ---- ------- ----- ---- -------<br>--- --- -- ----- -- --- ---- -- --- ---- -- ------ ------<br>--- ----- -- ----,260463.00000000003,260401,259892,259870,259910,260496,,21,paramount.
screen,html.Screen,2_1_0_1_22,2021-04-26T19:56:05.391Z,,,,,,,,,,,,,,,,,53,,,,,,,,,,,,,,449.0000000000291,,response,,,,99,,,,,,,Space,keypress(Space),,,,,,,,---- -- ----- -- ------ - ------- --- ----------<br>------------- ------ ------ ---- ---- ------- ----- -- ----<br>-------- ------- -- ---------- But - --- ----- ----- ----<br>---- --- --- ----- --- ---- ---- ------- ----- ---- -------<br>--- --- -- ----- -- --- ---- -- --- ---- -- ------ ------<br>--- ----- -- ----,260989.00000000003,260927.00000000003,260478,260463.00000000003,260496,261017,,22,But
screen,html.Screen,2_1_0_1_23,2021-04-26T19:56:05.883Z,,,,,,,,,,,,,,,,,53,,,,,,,,,,,,,,417.9999999999709,,response,,,,99,,,,,,,Space,keypress(Space),,,,,,,,---- -- ----- -- ------ - ------- --- ----------<br>------------- ------ ------ ---- ---- ------- ----- -- ----<br>-------- ------- -- ---------- --- a --- ----- ----- ----<br>---- --- --- ----- --- ---- ---- ------- ----- ---- -------<br>--- --- -- ----- -- --- ---- -- --- ---- -- ------ ------<br>--- ----- -- ----,261481,261418.99999999997,261001,260989.00000000003,261017,261521,,23,a
screen,html.Screen,2_1_0_1_24,2021-04-26T19:56:06.259Z,,,,,,,,,,,,,,,,,53,,,,,,,,,,,,,,292,,response,,,,99,,,,,,,Space,keypress(Space),,,,,,,,---- -- ----- -- ------ - ------- --- ----------<br>------------- ------ ------ ---- ---- ------- ----- -- ----<br>-------- ------- -- ---------- --- - new ----- ----- ----<br>---- --- --- ----- --- ---- ---- ------- ----- ---- -------<br>--- --- -- ----- -- --- ---- -- --- ---- -- ------ ------<br>--- ----- -- ----,261857.00000000003,261796,261504,261481,261521,261890,,24,new
screen,html.Screen,2_1_0_1_25,2021-04-26T19:56:06.630Z,,,,,,,,,,,,,,,,,53,,,,,,,,,,,,,,294.0000000000582,,response,,,,99,,,,,,,Space,keypress(Space),,,,,,,,---- -- ----- -- ------ - ------- --- ----------<br>------------- ------ ------ ---- ---- ------- ----- -- ----<br>-------- ------- -- ---------- --- - --- study ----- ----<br>---- --- --- ----- --- ---- ---- ------- ----- ---- -------<br>--- --- -- ----- -- --- ---- -- --- ---- -- ------ ------<br>--- ----- -- ----,262228,262167.00000000006,261873,261858,261890,262260,,25,study
screen,html.Screen,2_1_0_1_26,2021-04-26T19:56:07.006Z,,,,,,,,,,,,,,,,,53,,,,,,,,,,,,,,299.0000000000582,,response,,,,99,,,,,,,Space,keypress(Space),,,,,,,,---- -- ----- -- ------ - ------- --- ----------<br>------------- ------ ------ ---- ---- ------- ----- -- ----<br>-------- ------- -- ---------- --- - --- ----- finds ----<br>---- --- --- ----- --- ---- ---- ------- ----- ---- -------<br>--- --- -- ----- -- --- ---- -- --- ---- -- ------ ------<br>--- ----- -- ----,262604,262542.00000000006,262243,262228,262260,262629,,26,finds
screen,html.Screen,2_1_0_1_27,2021-04-26T19:56:07.431Z,,,,,,,,,,,,,,,,,53,,,,,,,,,,,,,,355,,response,,,,99,,,,,,,Space,keypress(Space),,,,,,,,---- -- ----- -- ------ - ------- --- ----------<br>------------- ------ ------ ---- ---- ------- ----- -- ----<br>-------- ------- -- ---------- --- - --- ----- ----- that<br>---- --- --- ----- --- ---- ---- ------- ----- ---- -------<br>--- --- -- ----- -- --- ---- -- --- ---- -- ------ ------<br>--- ----- -- ----,263030.00000000006,262968,262613,262604,262629,263066,,27,that
screen,html.Screen,2_1_0_1_28,2021-04-26T19:56:07.899Z,,,,,,,,,,,,,,,,,53,,,,,,,,,,,,,,386,,response,,,,99,,,,,,,Space,keypress(Space),,,,,,,,---- -- ----- -- ------ - ------- --- ----------<br>------------- ------ ------ ---- ---- ------- ----- -- ----<br>-------- ------- -- ---------- --- - --- ----- ----- ----<br>it's --- --- ----- --- ---- ---- ------- ----- ---- -------<br>--- --- -- ----- -- --- ---- -- --- ---- -- ------ ------<br>--- ----- -- ----,263497,263435,263049,263030.00000000006,263066,263535,,28,it's
screen,html.Screen,2_1_0_1_29,2021-04-26T19:56:08.345Z,,,,,,,,,,,,,,,,,53,,,,,,,,,,,,,,362,,response,,,,99,,,,,,,Space,keypress(Space),,,,,,,,---- -- ----- -- ------ - ------- --- ----------<br>------------- ------ ------ ---- ---- ------- ----- -- ----<br>-------- ------- -- ---------- --- - --- ----- ----- ----<br>---- not --- ----- --- ---- ---- ------- ----- ---- -------<br>--- --- -- ----- -- --- ---- -- --- ---- -- ------ ------<br>--- ----- -- ----,263943,263881,263519,263497,263535,263971,,29,not
screen,html.Screen,2_1_0_1_30,2021-04-26T19:56:08.753Z,,,,,,,,,,,,,,,,,53,,,,,,,,,,,,,,334,,response,,,,99,,,,,,,Space,keypress(Space),,,,,,,,---- -- ----- -- ------ - ------- --- ----------<br>------------- ------ ------ ---- ---- ------- ----- -- ----<br>-------- ------- -- ---------- --- - --- ----- ----- ----<br>---- --- how ----- --- ---- ---- ------- ----- ---- -------<br>--- --- -- ----- -- --- ---- -- --- ---- -- ------ ------<br>--- ----- -- ----,264351,264289,263955,263943,263971,264390,,30,how
screen,html.Screen,2_1_0_1_31,2021-04-26T19:56:09.167Z,,,,,,,,,,,,,,,,,53,,,,,,,,,,,,,,329.0000000000582,,response,,,,99,,,,,,,Space,keypress(Space),,,,,,,,---- -- ----- -- ------ - ------- --- ----------<br>------------- ------ ------ ---- ---- ------- ----- -- ----<br>-------- ------- -- ---------- --- - --- ----- ----- ----<br>---- --- --- close --- ---- ---- ------- ----- ---- -------<br>--- --- -- ----- -- --- ---- -- --- ---- -- ------ ------<br>--- ----- -- ----,264765,264703.00000000006,264374,264351,264390,264793,,31,close
screen,html.Screen,2_1_0_1_32,2021-04-26T19:56:09.569Z,,,,,,,,,,,,,,,,,53,,,,,,,,,,,,,,328,,response,,,,99,,,,,,,Space,keypress(Space),,,,,,,,---- -- ----- -- ------ - ------- --- ----------<br>------------- ------ ------ ---- ---- ------- ----- -- ----<br>-------- ------- -- ---------- --- - --- ----- ----- ----<br>---- --- --- ----- you ---- ---- ------- ----- ---- -------<br>--- --- -- ----- -- --- ---- -- --- ---- -- ------ ------<br>--- ----- -- ----,265167.00000000006,265105,264777,264765,264793,265196,,32,you
screen,html.Screen,2_1_0_1_33,2021-04-26T19:56:10.017Z,,,,,,,,,,,,,,,,,53,,,,,,,,,,,,,,374,,response,,,,99,,,,,,,Space,keypress(Space),,,,,,,,---- -- ----- -- ------ - ------- --- ----------<br>------------- ------ ------ ---- ---- ------- ----- -- ----<br>-------- ------- -- ---------- --- - --- ----- ----- ----<br>---- --- --- ----- --- feel ---- ------- ----- ---- -------<br>--- --- -- ----- -- --- ---- -- --- ---- -- ------ ------<br>--- ----- -- ----,265615,265553,265179,265167.00000000006,265196,265649,,33,feel
screen,html.Screen,2_1_0_1_34,2021-04-26T19:56:10.426Z,,,,,,,,,,,,,,,,,53,,,,,,,,,,,,,,329,,response,,,,99,,,,,,,Space,keypress(Space),,,,,,,,---- -- ----- -- ------ - ------- --- ----------<br>------------- ------ ------ ---- ---- ------- ----- -- ----<br>-------- ------- -- ---------- --- - --- ----- ----- ----<br>---- --- --- ----- --- ---- that ------- ----- ---- -------<br>--- --- -- ----- -- --- ---- -- --- ---- -- ------ ------<br>--- ----- -- ----,266024,265962,265633,265615,265649,266051,,34,that
screen,html.Screen,2_1_0_1_35,2021-04-26T19:56:10.789Z,,,,,,,,,,,,,,,,,53,,,,,,,,,,,,,,290,,response,,,,99,,,,,,,Space,keypress(Space),,,,,,,,---- -- ----- -- ------ - ------- --- ----------<br>------------- ------ ------ ---- ---- ------- ----- -- ----<br>-------- ------- -- ---------- --- - --- ----- ----- ----<br>---- --- --- ----- --- ---- ---- matters ----- ---- -------<br>--- --- -- ----- -- --- ---- -- --- ---- -- ------ ------<br>--- ----- -- ----,266387,266325,266035,266024,266051,266405,,35,matters
screen,html.Screen,2_1_0_1_36,2021-04-26T19:56:11.190Z,,,,,,,,,,,,,,,,,53,,,,,,,,,,,,,,339.0000000000582,,response,,,,99,,,,,,,Space,keypress(Space),,,,,,,,"---- -- ----- -- ------ - ------- --- ----------<br>------------- ------ ------ ---- ---- ------- ----- -- ----<br>-------- ------- -- ---------- --- - --- ----- ----- ----<br>---- --- --- ----- --- ---- ---- ------- most, ---- -------<br>--- --- -- ----- -- --- ---- -- --- ---- -- ------ ------<br>--- ----- -- ----",266788,266727.00000000006,266388,266387,266405,266824,,36,"most,"
screen,html.Screen,2_1_0_1_37,2021-04-26T19:56:11.606Z,,,,,,,,,,,,,,,,,53,,,,,,,,,,,,,,334,,response,,,,99,,,,,,,Space,keypress(Space),,,,,,,,---- -- ----- -- ------ - ------- --- ----------<br>------------- ------ ------ ---- ---- ------- ----- -- ----<br>-------- ------- -- ---------- --- - --- ----- ----- ----<br>---- --- --- ----- --- ---- ---- ------- ----- it's -------<br>--- --- -- ----- -- --- ---- -- --- ---- -- ------ ------<br>--- ----- -- ----,267204,267142,266808,266789,266824,267244,,37,it's
screen,html.Screen,2_1_0_1_38,2021-04-26T19:56:12.029Z,,,,,,,,,,,,,,,,,53,,,,,,,,,,,,,,338,,response,,,,99,,,,,,,Space,keypress(Space),,,,,,,,---- -- ----- -- ------ - ------- --- ----------<br>------------- ------ ------ ---- ---- ------- ----- -- ----<br>-------- ------- -- ---------- --- - --- ----- ----- ----<br>---- --- --- ----- --- ---- ---- ------- ----- ---- whether<br>--- --- -- ----- -- --- ---- -- --- ---- -- ------ ------<br>--- ----- -- ----,267627,267565,267227,267204,267244,267663,,38,whether
screen,html.Screen,2_1_0_1_39,2021-04-26T19:56:12.492Z,,,,,,,,,,,,,,,,,53,,,,,,,,,,,,,,381,,response,,,,99,,,,,,,Space,keypress(Space),,,,,,,,---- -- ----- -- ------ - ------- --- ----------<br>------------- ------ ------ ---- ---- ------- ----- -- ----<br>-------- ------- -- ---------- --- - --- ----- ----- ----<br>---- --- --- ----- --- ---- ---- ------- ----- ---- -------<br>you --- -- ----- -- --- ---- -- --- ---- -- ------ ------<br>--- ----- -- ----,268089,268028,267647,267627,267663,268133,,39,you
screen,html.Screen,2_1_0_1_40,2021-04-26T19:56:12.912Z,,,,,,,,,,,,,,,,,53,,,,,,,,,,,,,,332,,response,,,,99,,,,,,,Space,keypress(Space),,,,,,,,---- -- ----- -- ------ - ------- --- ----------<br>------------- ------ ------ ---- ---- ------- ----- -- ----<br>-------- ------- -- ---------- --- - --- ----- ----- ----<br>---- --- --- ----- --- ---- ---- ------- ----- ---- -------<br>--- are -- ----- -- --- ---- -- --- ---- -- ------ ------<br>--- ----- -- ----,268510,268448,268116,268090.00000000006,268133,268552,,40,are
screen,html.Screen,2_1_0_1_41,2021-04-26T19:56:13.331Z,,,,,,,,,,,,,,,,,53,,,,,,,,,,,,,,331,,response,,,,99,,,,,,,Space,keypress(Space),,,,,,,,---- -- ----- -- ------ - ------- --- ----------<br>------------- ------ ------ ---- ---- ------- ----- -- ----<br>-------- ------- -- ---------- --- - --- ----- ----- ----<br>---- --- --- ----- --- ---- ---- ------- ----- ---- -------<br>--- --- as ----- -- --- ---- -- --- ---- -- ------ ------<br>--- ----- -- ----,268928,268867,268536,268510,268552,268972,,41,as
screen,html.Screen,2_1_0_1_42,2021-04-26T19:56:13.715Z,,,,,,,,,,,,,,,,,53,,,,,,,,,,,,,,296.0000000000582,,response,,,,99,,,,,,,Space,keypress(Space),,,,,,,,---- -- ----- -- ------ - ------- --- ----------<br>------------- ------ ------ ---- ---- ------- ----- -- ----<br>-------- ------- -- ---------- --- - --- ----- ----- ----<br>---- --- --- ----- --- ---- ---- ------- ----- ---- -------<br>--- --- -- close -- --- ---- -- --- ---- -- ------ ------<br>--- ----- -- ----,269313,269251.00000000006,268955,268929.00000000006,268972,269341,,42,close
screen,html.Screen,2_1_0_1_43,2021-04-26T19:56:14.121Z,,,,,,,,,,,,,,,,,53,,,,,,,,,,,,,,333,,response,,,,99,,,,,,,Space,keypress(Space),,,,,,,,---- -- ----- -- ------ - ------- --- ----------<br>------------- ------ ------ ---- ---- ------- ----- -- ----<br>-------- ------- -- ---------- --- - --- ----- ----- ----<br>---- --- --- ----- --- ---- ---- ------- ----- ---- -------<br>--- --- -- ----- as --- ---- -- --- ---- -- ------ ------<br>--- ----- -- ----,269719,269657,269324,269313,269341,269760,,43,as
screen,html.Screen,2_1_0_1_44,2021-04-26T19:56:14.521Z,,,,,,,,,,,,,,,,,53,,,,,,,,,,,,,,314,,response,,,,99,,,,,,,Space,keypress(Space),,,,,,,,---- -- ----- -- ------ - ------- --- ----------<br>------------- ------ ------ ---- ---- ------- ----- -- ----<br>-------- ------- -- ---------- --- - --- ----- ----- ----<br>---- --- --- ----- --- ---- ---- ------- ----- ---- -------<br>--- --- -- ----- -- you ---- -- --- ---- -- ------ ------<br>--- ----- -- ----,270119,270057,269743,269719,269760,270147,,44,you
screen,html.Screen,2_1_0_1_45,2021-04-26T19:56:14.885Z,,,,,,,,,,,,,,,,,53,,,,,,,,,,,,,,291,,response,,,,99,,,,,,,Space,keypress(Space),,,,,,,,---- -- ----- -- ------ - ------- --- ----------<br>------------- ------ ------ ---- ---- ------- ----- -- ----<br>-------- ------- -- ---------- --- - --- ----- ----- ----<br>---- --- --- ----- --- ---- ---- ------- ----- ---- -------<br>--- --- -- ----- -- --- want -- --- ---- -- ------ ------<br>--- ----- -- ----,270483,270421,270130,270119,270147,270516,,45,want
screen,html.Screen,2_1_0_1_46,2021-04-26T19:56:15.366Z,,,,,,,,,,,,,,,,,53,,,,,,,,,,,,,,404,,response,,,,99,,,,,,,Space,keypress(Space),,,,,,,,---- -- ----- -- ------ - ------- --- ----------<br>------------- ------ ------ ---- ---- ------- ----- -- ----<br>-------- ------- -- ---------- --- - --- ----- ----- ----<br>---- --- --- ----- --- ---- ---- ------- ----- ---- -------<br>--- --- -- ----- -- --- ---- to --- ---- -- ------ ------<br>--- ----- -- ----,270964,270903,270499,270483,270516,271002,,46,to
screen,html.Screen,2_1_0_1_47,2021-04-26T19:56:15.760Z,,,,,,,,,,,,,,,,,53,,,,,,,,,,,,,,310,,response,,,,99,,,,,,,Space,keypress(Space),,,,,,,,"---- -- ----- -- ------ - ------- --- ----------<br>------------- ------ ------ ---- ---- ------- ----- -- ----<br>-------- ------- -- ---------- --- - --- ----- ----- ----<br>---- --- --- ----- --- ---- ---- ------- ----- ---- -------<br>--- --- -- ----- -- --- ---- -- be, ---- -- ------ ------<br>--- ----- -- ----",271358,271296,270986,270964,271002,271389,,47,"be,"
screen,html.Screen,2_1_0_1_48,2021-04-26T19:56:16.200Z,,,,,,,,,,,,,,,,,53,,,,,,,,,,,,,,364,,response,,,,99,,,,,,,Space,keypress(Space),,,,,,,,---- -- ----- -- ------ - ------- --- ----------<br>------------- ------ ------ ---- ---- ------- ----- -- ----<br>-------- ------- -- ---------- --- - --- ----- ----- ----<br>---- --- --- ----- --- ---- ---- ------- ----- ---- -------<br>--- --- -- ----- -- --- ---- -- --- even -- ------ ------<br>--- ----- -- ----,271798,271736,271372,271358,271389,271825,,48,even
screen,html.Screen,2_1_0_1_49,2021-04-26T19:56:16.634Z,,,,,,,,,,,,,,,,,53,,,,,,,,,,,,,,362,,response,,,,99,,,,,,,Space,keypress(Space),,,,,,,,---- -- ----- -- ------ - ------- --- ----------<br>------------- ------ ------ ---- ---- ------- ----- -- ----<br>-------- ------- -- ---------- --- - --- ----- ----- ----<br>---- --- --- ----- --- ---- ---- ------- ----- ---- -------<br>--- --- -- ----- -- --- ---- -- --- ---- if ------ ------<br>--- ----- -- ----,272232,272170,271808,271798,271825,272261,,49,if
screen,html.Screen,2_1_0_1_50,2021-04-26T19:56:17.044Z,,,,,,,,,,,,,,,,,53,,,,,,,,,,,,,,335,,response,,,,99,,,,,,,Space,keypress(Space),,,,,,,,---- -- ----- -- ------ - ------- --- ----------<br>------------- ------ ------ ---- ---- ------- ----- -- ----<br>-------- ------- -- ---------- --- - --- ----- ----- ----<br>---- --- --- ----- --- ---- ---- ------- ----- ---- -------<br>--- --- -- ----- -- --- ---- -- --- ---- -- that's ------<br>--- ----- -- ----,272642,272580,272245,272232,272261,272681,,50,that's
screen,html.Screen,2_1_0_1_51,2021-04-26T19:56:17.468Z,,,,,,,,,,,,,,,,,53,,,,,,,,,,,,,,340,,response,,,,99,,,,,,,Space,keypress(Space),,,,,,,,---- -- ----- -- ------ - ------- --- ----------<br>------------- ------ ------ ---- ---- ------- ----- -- ----<br>-------- ------- -- ---------- --- - --- ----- ----- ----<br>---- --- --- ----- --- ---- ---- ------- ----- ---- -------<br>--- --- -- ----- -- --- ---- -- --- ---- -- ------ really<br>--- ----- -- ----,273065,273004,272664,272642,272681,273099,,51,really
screen,html.Screen,2_1_0_1_52,2021-04-26T19:56:17.910Z,,,,,,,,,,,,,,,,,53,,,,,,,,,,,,,,362,,response,,,,99,,,,,,,Space,keypress(Space),,,,,,,,---- -- ----- -- ------ - ------- --- ----------<br>------------- ------ ------ ---- ---- ------- ----- -- ----<br>-------- ------- -- ---------- --- - --- ----- ----- ----<br>---- --- --- ----- --- ---- ---- ------- ----- ---- -------<br>--- --- -- ----- -- --- ---- -- --- ---- -- ------ ------<br>not ----- -- ----,273508,273446,273084,273066.00000000006,273099,273536,,52,not
screen,html.Screen,2_1_0_1_53,2021-04-26T19:56:18.287Z,,,,,,,,,,,,,,,,,53,,,,,,,,,,,,,,302,,response,,,,99,,,,,,,Space,keypress(Space),,,,,,,,---- -- ----- -- ------ - ------- --- ----------<br>------------- ------ ------ ---- ---- ------- ----- -- ----<br>-------- ------- -- ---------- --- - --- ----- ----- ----<br>---- --- --- ----- --- ---- ---- ------- ----- ---- -------<br>--- --- -- ----- -- --- ---- -- --- ---- -- ------ ------<br>--- close -- ----,273884,273822,273520,273508,273536,273906,,53,close
screen,html.Screen,2_1_0_1_54,2021-04-26T19:56:18.705Z,,,,,,,,,,,,,,,,,53,,,,,,,,,,,,,,351,,response,,,,99,,,,,,,Space,keypress(Space),,,,,,,,---- -- ----- -- ------ - ------- --- ----------<br>------------- ------ ------ ---- ---- ------- ----- -- ----<br>-------- ------- -- ---------- --- - --- ----- ----- ----<br>---- --- --- ----- --- ---- ---- ------- ----- ---- -------<br>--- --- -- ----- -- --- ---- -- --- ---- -- ------ ------<br>--- ----- at ----,274302,274240,273889,273885,273906,274342,,54,at
screen,html.Screen,2_1_0_1_55,2021-04-26T19:56:19.077Z,,,,,,,,,,,,,,,,,53,,,,,,,,,,,,,,287,,response,,,,99,,,,,,,Space,keypress(Space),,,,,,,,---- -- ----- -- ------ - ------- --- ----------<br>------------- ------ ------ ---- ---- ------- ----- -- ----<br>-------- ------- -- ---------- --- - --- ----- ----- ----<br>---- --- --- ----- --- ---- ---- ------- ----- ---- -------<br>--- --- -- ----- -- --- ---- -- --- ---- -- ------ ------<br>--- ----- -- all.,274674,274612,274325,274303,274342,274694,,55,all.
Item 99,flow.Loop,2_1_0_1,2021-04-26T19:56:19.077Z,,,,,,,,,,,,,,,,,,,,,,,,,,,,,,,25284,,completion,,,,,E,,,,,,,,,,,silence,,,,,274674,274612,249306,249306,249328,274694,,,
Question 1,html.Screen,2_1_0_2,2021-04-26T19:56:26.506Z,,,,,,,,,,,,,,,,,,,,,,,,,,,,true,FALSE,,7366,,response,,,,99,E,,,,,,FALSE,click #choice-2,,,,silence,,,,,282104,282043,274677,274675,274694,282131,,,
Question 2,html.Screen,2_1_0_3,2021-04-26T19:56:31.300Z,,,,,,,,,,,,,,,,,,,,,,,,,,,,true,TRUE,,4722,,response,,,,99,E,,,,,,TRUE,click #choice-1,,,,silence,,,,,286898,286837,282115,282104,282131,286943,,,
Item 99,flow.Sequence,2_1_0,2021-04-26T19:56:31.301Z,,,,,,,,,,,,,,,,,,,,,,,,,,,,,,,47516,,completion,,,,,,,,,,,,,,,,,,,,,286898,286837,239303,239297,239321,286943,,,
Holding screen,html.Screen,2_1_1_0,2021-04-26T19:56:41.329Z,,,,,,,,,,,,,,,,,,,,,,,,,,,,,,,9999,,timeout,,,,,,,,,,,,,,,,,,,,,296926,296926,286915,286898,286943,296942,,,
screen,html.Screen,2_1_1_1_0,2021-04-26T19:56:42.025Z,,,,,,,,,,,,,,,,,54,,,,,,,,,,,,,,631,,response,,,,100,,,,,,,Space,keypress(Space),,,,,,,,At --- ---- --- ------ ----- ------- ---- -- --- ------- --<br>------- ---------- ------ -- ----- -- ----- -- ---- ------<br>--- ----- --- --- ------ -------- ----- --- ------ ----- --<br>----- ----- ---------- --- --- ------ ------ ---- -- ------<br>------- --- ------ ----- --- ---- ------- -- ---- --- --<br>------- ------,297622,297557,296926,296926,296942,297662,,0,At
screen,html.Screen,2_1_1_1_1,2021-04-26T19:56:42.422Z,,,,,,,,,,,,,,,,,54,,,,,,,,,,,,,,311,,response,,,,100,,,,,,,Space,keypress(Space),,,,,,,,-- the ---- --- ------ ----- ------- ---- -- --- ------- --<br>------- ---------- ------ -- ----- -- ----- -- ---- ------<br>--- ----- --- --- ------ -------- ----- --- ------ ----- --<br>----- ----- ---------- --- --- ------ ------ ---- -- ------<br>------- --- ------ ----- --- ---- ------- -- ---- --- --<br>------- ------,298019,297957,297646,297623,297662,298051,,1,the
screen,html.Screen,2_1_1_1_2,2021-04-26T19:56:43.074Z,,,,,,,,,,,,,,,,,54,,,,,,,,,,,,,,574,,response,,,,100,,,,,,,Space,keypress(Space),,,,,,,,-- --- time --- ------ ----- ------- ---- -- --- ------- --<br>------- ---------- ------ -- ----- -- ----- -- ---- ------<br>--- ----- --- --- ------ -------- ----- --- ------ ----- --<br>----- ----- ---------- --- --- ------ ------ ---- -- ------<br>------- --- ------ ----- --- ---- ------- -- ---- --- --<br>------- ------,298671,298608,298034,298019,298051,298705,,2,time
screen,html.Screen,2_1_1_1_3,2021-04-26T19:56:43.543Z,,,,,,,,,,,,,,,,,54,,,,,,,,,,,,,,390,,response,,,,100,,,,,,,Space,keypress(Space),,,,,,,,-- --- ---- the ------ ----- ------- ---- -- --- ------- --<br>------- ---------- ------ -- ----- -- ----- -- ---- ------<br>--- ----- --- --- ------ -------- ----- --- ------ ----- --<br>----- ----- ---------- --- --- ------ ------ ---- -- ------<br>------- --- ------ ----- --- ---- ------- -- ---- --- --<br>------- ------,299140,299077,298687,298671,298705,299174,,3,the
screen,html.Screen,2_1_1_1_4,2021-04-26T19:56:43.884Z,,,,,,,,,,,,,,,,,54,,,,,,,,,,,,,,260,,response,,,,100,,,,,,,Space,keypress(Space),,,,,,,,-- --- ---- --- French ----- ------- ---- -- --- ------- --<br>------- ---------- ------ -- ----- -- ----- -- ---- ------<br>--- ----- --- --- ------ -------- ----- --- ------ ----- --<br>----- ----- ---------- --- --- ------ ------ ---- -- ------<br>------- --- ------ ----- --- ---- ------- -- ---- --- --<br>------- ------,299481,299418,299158,299140,299174,299510,,4,French
screen,html.Screen,2_1_1_1_5,2021-04-26T19:56:44.223Z,,,,,,,,,,,,,,,,,54,,,,,,,,,,,,,,264,,response,,,,100,,,,,,,Space,keypress(Space),,,,,,,,-- --- ---- --- ------ crown ------- ---- -- --- ------- --<br>------- ---------- ------ -- ----- -- ----- -- ---- ------<br>--- ----- --- --- ------ -------- ----- --- ------ ----- --<br>----- ----- ---------- --- --- ------ ------ ---- -- ------<br>------- --- ------ ----- --- ---- ------- -- ---- --- --<br>------- ------,299820,299758,299494,299481,299510,299848,,5,crown
screen,html.Screen,2_1_1_1_6,2021-04-26T19:56:44.649Z,,,,,,,,,,,,,,,,,54,,,,,,,,,,,,,,353,,response,,,,100,,,,,,,Space,keypress(Space),,,,,,,,-- --- ---- --- ------ ----- secured ---- -- --- ------- --<br>------- ---------- ------ -- ----- -- ----- -- ---- ------<br>--- ----- --- --- ------ -------- ----- --- ------ ----- --<br>----- ----- ---------- --- --- ------ ------ ---- -- ------<br>------- --- ------ ----- --- ---- ------- -- ---- --- --<br>------- ------,300246,300183,299830,299820,299848,300283,,6,secured
screen,html.Screen,2_1_1_1_7,2021-04-26T19:56:45.047Z,,,,,,,,,,,,,,,,,54,,,,,,,,,,,,,,315,,response,,,,100,,,,,,,Space,keypress(Space),,,,,,,,-- --- ---- --- ------ ----- ------- much -- --- ------- --<br>------- ---------- ------ -- ----- -- ----- -- ---- ------<br>--- ----- --- --- ------ -------- ----- --- ------ ----- --<br>----- ----- ---------- --- --- ------ ------ ---- -- ------<br>------- --- ------ ----- --- ---- ------- -- ---- --- --<br>------- ------,300644,300582,300267,300246,300283,300669,,7,much
screen,html.Screen,2_1_1_1_8,2021-04-26T19:56:45.501Z,,,,,,,,,,,,,,,,,54,,,,,,,,,,,,,,382,,response,,,,100,,,,,,,Space,keypress(Space),,,,,,,,-- --- ---- --- ------ ----- ------- ---- of --- ------- --<br>------- ---------- ------ -- ----- -- ----- -- ---- ------<br>--- ----- --- --- ------ -------- ----- --- ------ ----- --<br>----- ----- ---------- --- --- ------ ------ ---- -- ------<br>------- --- ------ ----- --- ---- ------- -- ---- --- --<br>------- ------,301098,301035,300653,300644,300669,301139,,8,of
screen,html.Screen,2_1_1_1_9,2021-04-26T19:56:45.879Z,,,,,,,,,,,,,,,,,54,,,,,,,,,,,,,,292,,response,,,,100,,,,,,,Space,keypress(Space),,,,,,,,-- --- ---- --- ------ ----- ------- ---- -- its ------- --<br>------- ---------- ------ -- ----- -- ----- -- ---- ------<br>--- ----- --- --- ------ -------- ----- --- ------ ----- --<br>----- ----- ---------- --- --- ------ ------ ---- -- ------<br>------- --- ------ ----- --- ---- ------- -- ---- --- --<br>------- ------,301476,301414,301122,301098,301139,301507,,9,its
screen,html.Screen,2_1_1_1_10,2021-04-26T19:56:46.263Z,,,,,,,,,,,,,,,,,54,,,,,,,,,,,,,,307,,response,,,,100,,,,,,,Space,keypress(Space),,,,,,,,-- --- ---- --- ------ ----- ------- ---- -- --- revenue --<br>------- ---------- ------ -- ----- -- ----- -- ---- ------<br>--- ----- --- --- ------ -------- ----- --- ------ ----- --<br>----- ----- ---------- --- --- ------ ------ ---- -- ------<br>------- --- ------ ----- --- ---- ------- -- ---- --- --<br>------- ------,301860,301798,301491,301477.00000000006,301507,301878,,10,revenue
screen,html.Screen,2_1_1_1_11,2021-04-26T19:56:46.648Z,,,,,,,,,,,,,,,,,54,,,,,,,,,,,,,,321,,response,,,,100,,,,,,,Space,keypress(Space),,,,,,,,-- --- ---- --- ------ ----- ------- ---- -- --- ------- by<br>------- ---------- ------ -- ----- -- ----- -- ---- ------<br>--- ----- --- --- ------ -------- ----- --- ------ ----- --<br>----- ----- ---------- --- --- ------ ------ ---- -- ------<br>------- --- ------ ----- --- ---- ------- -- ---- --- --<br>------- ------,302244,302182,301861,301860,301878,302264,,11,by
screen,html.Screen,2_1_1_1_12,2021-04-26T19:56:47.061Z,,,,,,,,,,,,,,,,,54,,,,,,,,,,,,,,347,,response,,,,100,,,,,,,Space,keypress(Space),,,,,,,,-- --- ---- --- ------ ----- ------- ---- -- --- ------- --<br>issuing ---------- ------ -- ----- -- ----- -- ---- ------<br>--- ----- --- --- ------ -------- ----- --- ------ ----- --<br>----- ----- ---------- --- --- ------ ------ ---- -- ------<br>------- --- ------ ----- --- ---- ------- -- ---- --- --<br>------- ------,302658,302595,302248,302245,302264,302699,,12,issuing
screen,html.Screen,2_1_1_1_13,2021-04-26T19:56:47.434Z,,,,,,,,,,,,,,,,,54,,,,,,,,,,,,,,285,,response,,,,100,,,,,,,Space,keypress(Space),,,,,,,,-- --- ---- --- ------ ----- ------- ---- -- --- ------- --<br>------- government ------ -- ----- -- ----- -- ---- ------<br>--- ----- --- --- ------ -------- ----- --- ------ ----- --<br>----- ----- ---------- --- --- ------ ------ ---- -- ------<br>------- --- ------ ----- --- ---- ------- -- ---- --- --<br>------- ------,303031,302969,302684,302658,302699,303053,,13,government
screen,html.Screen,2_1_1_1_14,2021-04-26T19:56:47.802Z,,,,,,,,,,,,,,,,,54,,,,,,,,,,,,,,301,,response,,,,100,,,,,,,Space,keypress(Space),,,,,,,,-- --- ---- --- ------ ----- ------- ---- -- --- ------- --<br>------- ---------- bonds. -- ----- -- ----- -- ---- ------<br>--- ----- --- --- ------ -------- ----- --- ------ ----- --<br>----- ----- ---------- --- --- ------ ------ ---- -- ------<br>------- --- ------ ----- --- ---- ------- -- ---- --- --<br>------- ------,303399,303337,303036,303031,303053,303422,,14,bonds.
screen,html.Screen,2_1_1_1_15,2021-04-26T19:56:48.189Z,,,,,,,,,,,,,,,,,54,,,,,,,,,,,,,,317,,response,,,,100,,,,,,,Space,keypress(Space),,,,,,,,-- --- ---- --- ------ ----- ------- ---- -- --- ------- --<br>------- ---------- ------ In ----- -- ----- -- ---- ------<br>--- ----- --- --- ------ -------- ----- --- ------ ----- --<br>----- ----- ---------- --- --- ------ ------ ---- -- ------<br>------- --- ------ ----- --- ---- ------- -- ---- --- --<br>------- ------,303785,303723,303406,303399,303422,303809,,15,In
screen,html.Screen,2_1_1_1_16,2021-04-26T19:56:48.566Z,,,,,,,,,,,,,,,,,54,,,,,,,,,,,,,,309,,response,,,,100,,,,,,,Space,keypress(Space),,,,,,,,"-- --- ---- --- ------ ----- ------- ---- -- --- ------- --<br>------- ---------- ------ -- 1727, -- ----- -- ---- ------<br>--- ----- --- --- ------ -------- ----- --- ------ ----- --<br>----- ----- ---------- --- --- ------ ------ ---- -- ------<br>------- --- ------ ----- --- ---- ------- -- ---- --- --<br>------- ------",304163,304101,303792,303785,303809,304195,,16,"1727,"
screen,html.Screen,2_1_1_1_17,2021-04-26T19:56:49.015Z,,,,,,,,,,,,,,,,,54,,,,,,,,,,,,,,370,,response,,,,100,,,,,,,Space,keypress(Space),,,,,,,,-- --- ---- --- ------ ----- ------- ---- -- --- ------- --<br>------- ---------- ------ -- ----- in ----- -- ---- ------<br>--- ----- --- --- ------ -------- ----- --- ------ ----- --<br>----- ----- ---------- --- --- ------ ------ ---- -- ------<br>------- --- ------ ----- --- ---- ------- -- ---- --- --<br>------- ------,304612,304549,304179,304163,304195,304648,,17,in
screen,html.Screen,2_1_1_1_18,2021-04-26T19:56:49.745Z,,,,,,,,,,,,,,,,,54,,,,,,,,,,,,,,649,,response,,,,100,,,,,,,Space,keypress(Space),,,,,,,,-- --- ---- --- ------ ----- ------- ---- -- --- ------- --<br>------- ---------- ------ -- ----- -- order -- ---- ------<br>--- ----- --- --- ------ -------- ----- --- ------ ----- --<br>----- ----- ---------- --- --- ------ ------ ---- -- ------<br>------- --- ------ ----- --- ---- ------- -- ---- --- --<br>------- ------,305342,305279,304630,304612,304648,305384,,18,order
screen,html.Screen,2_1_1_1_19,2021-04-26T19:56:50.188Z,,,,,,,,,,,,,,,,,54,,,,,,,,,,,,,,355,,response,,,,100,,,,,,,Space,keypress(Space),,,,,,,,-- --- ---- --- ------ ----- ------- ---- -- --- ------- --<br>------- ---------- ------ -- ----- -- ----- to ---- ------<br>--- ----- --- --- ------ -------- ----- --- ------ ----- --<br>----- ----- ---------- --- --- ------ ------ ---- -- ------<br>------- --- ------ ----- --- ---- ------- -- ---- --- --<br>------- ------,305785,305722,305367,305342,305384,305819,,19,to
screen,html.Screen,2_1_1_1_20,2021-04-26T19:56:50.639Z,,,,,,,,,,,,,,,,,54,,,,,,,,,,,,,,370,,response,,,,100,,,,,,,Space,keypress(Space),,,,,,,,-- --- ---- --- ------ ----- ------- ---- -- --- ------- --<br>------- ---------- ------ -- ----- -- ----- -- save ------<br>--- ----- --- --- ------ -------- ----- --- ------ ----- --<br>----- ----- ---------- --- --- ------ ------ ---- -- ------<br>------- --- ------ ----- --- ---- ------- -- ---- --- --<br>------- ------,306236,306173,305803,305785,305819,306273,,20,save
screen,html.Screen,2_1_1_1_21,2021-04-26T19:56:51.049Z,,,,,,,,,,,,,,,,,54,,,,,,,,,,,,,,326,,response,,,,100,,,,,,,Space,keypress(Space),,,,,,,,"-- --- ---- --- ------ ----- ------- ---- -- --- ------- --<br>------- ---------- ------ -- ----- -- ----- -- ---- money,<br>--- ----- --- --- ------ -------- ----- --- ------ ----- --<br>----- ----- ---------- --- --- ------ ------ ---- -- ------<br>------- --- ------ ----- --- ---- ------- -- ---- --- --<br>------- ------",306645,306582,306256,306236,306273,306676,,21,"money,"
screen,html.Screen,2_1_1_1_22,2021-04-26T19:56:51.391Z,,,,,,,,,,,,,,,,,54,,,,,,,,,,,,,,266,,response,,,,100,,,,,,,Space,keypress(Space),,,,,,,,-- --- ---- --- ------ ----- ------- ---- -- --- ------- --<br>------- ---------- ------ -- ----- -- ----- -- ---- ------<br>the ----- --- --- ------ -------- ----- --- ------ ----- --<br>----- ----- ---------- --- --- ------ ------ ---- -- ------<br>------- --- ------ ----- --- ---- ------- -- ---- --- --<br>------- ------,306988,306925,306659,306645,306676,307011,,22,the
screen,html.Screen,2_1_1_1_23,2021-04-26T19:56:51.781Z,,,,,,,,,,,,,,,,,54,,,,,,,,,,,,,,319,,response,,,,100,,,,,,,Space,keypress(Space),,,,,,,,-- --- ---- --- ------ ----- ------- ---- -- --- ------- --<br>------- ---------- ------ -- ----- -- ----- -- ---- ------<br>--- state --- --- ------ -------- ----- --- ------ ----- --<br>----- ----- ---------- --- --- ------ ------ ---- -- ------<br>------- --- ------ ----- --- ---- ------- -- ---- --- --<br>------- ------,307377,307314,306995,306988,307011,307398,,23,state
screen,html.Screen,2_1_1_1_24,2021-04-26T19:56:52.117Z,,,,,,,,,,,,,,,,,54,,,,,,,,,,,,,,269,,response,,,,100,,,,,,,Space,keypress(Space),,,,,,,,-- --- ---- --- ------ ----- ------- ---- -- --- ------- --<br>------- ---------- ------ -- ----- -- ----- -- ---- ------<br>--- ----- cut --- ------ -------- ----- --- ------ ----- --<br>----- ----- ---------- --- --- ------ ------ ---- -- ------<br>------- --- ------ ----- --- ---- ------- -- ---- --- --<br>------- ------,307713,307651,307382,307377,307398,307734,,24,cut
screen,html.Screen,2_1_1_1_25,2021-04-26T19:56:52.498Z,,,,,,,,,,,,,,,,,54,,,,,,,,,,,,,,313,,response,,,,100,,,,,,,Space,keypress(Space),,,,,,,,-- --- ---- --- ------ ----- ------- ---- -- --- ------- --<br>------- ---------- ------ -- ----- -- ----- -- ---- ------<br>--- ----- --- the ------ -------- ----- --- ------ ----- --<br>----- ----- ---------- --- --- ------ ------ ---- -- ------<br>------- --- ------ ----- --- ---- ------- -- ---- --- --<br>------- ------,308095,308031,307718,307713,307734,308121,,25,the
screen,html.Screen,2_1_1_1_26,2021-04-26T19:56:52.850Z,,,,,,,,,,,,,,,,,54,,,,,,,,,,,,,,278,,response,,,,100,,,,,,,Space,keypress(Space),,,,,,,,-- --- ---- --- ------ ----- ------- ---- -- --- ------- --<br>------- ---------- ------ -- ----- -- ----- -- ---- ------<br>--- ----- --- --- bonds' -------- ----- --- ------ ----- --<br>----- ----- ---------- --- --- ------ ------ ---- -- ------<br>------- --- ------ ----- --- ---- ------- -- ---- --- --<br>------- ------,308446,308383,308105,308095,308121,308474,,26,bonds'
screen,html.Screen,2_1_1_1_27,2021-04-26T19:56:53.312Z,,,,,,,,,,,,,,,,,54,,,,,,,,,,,,,,389,,response,,,,100,,,,,,,Space,keypress(Space),,,,,,,,-- --- ---- --- ------ ----- ------- ---- -- --- ------- --<br>------- ---------- ------ -- ----- -- ----- -- ---- ------<br>--- ----- --- --- ------ interest ----- --- ------ ----- --<br>----- ----- ---------- --- --- ------ ------ ---- -- ------<br>------- --- ------ ----- --- ---- ------- -- ---- --- --<br>------- ------,308909,308846,308457,308447,308474,308942,,27,interest
screen,html.Screen,2_1_1_1_28,2021-04-26T19:56:53.672Z,,,,,,,,,,,,,,,,,54,,,,,,,,,,,,,,279,,response,,,,100,,,,,,,Space,keypress(Space),,,,,,,,-- --- ---- --- ------ ----- ------- ---- -- --- ------- --<br>------- ---------- ------ -- ----- -- ----- -- ---- ------<br>--- ----- --- --- ------ -------- rate. --- ------ ----- --<br>----- ----- ---------- --- --- ------ ------ ---- -- ------<br>------- --- ------ ----- --- ---- ------- -- ---- --- --<br>------- ------,309268,309205,308926,308909,308942,309296,,28,rate.
screen,html.Screen,2_1_1_1_29,2021-04-26T19:56:54.141Z,,,,,,,,,,,,,,,,,54,,,,,,,,,,,,,,395,,response,,,,100,,,,,,,Space,keypress(Space),,,,,,,,-- --- ---- --- ------ ----- ------- ---- -- --- ------- --<br>------- ---------- ------ -- ----- -- ----- -- ---- ------<br>--- ----- --- --- ------ -------- ----- The ------ ----- --<br>----- ----- ---------- --- --- ------ ------ ---- -- ------<br>------- --- ------ ----- --- ---- ------- -- ---- --- --<br>------- ------,309737,309674,309279,309268,309296,309765,,29,The
screen,html.Screen,2_1_1_1_30,2021-04-26T19:56:54.495Z,,,,,,,,,,,,,,,,,54,,,,,,,,,,,,,,281,,response,,,,100,,,,,,,Space,keypress(Space),,,,,,,,-- --- ---- --- ------ ----- ------- ---- -- --- ------- --<br>------- ---------- ------ -- ----- -- ----- -- ---- ------<br>--- ----- --- --- ------ -------- ----- --- market ----- --<br>----- ----- ---------- --- --- ------ ------ ---- -- ------<br>------- --- ------ ----- --- ---- ------- -- ---- --- --<br>------- ------,310092,310029,309748,309738,309765,310118,,30,market
screen,html.Screen,2_1_1_1_31,2021-04-26T19:56:54.871Z,,,,,,,,,,,,,,,,,54,,,,,,,,,,,,,,302,,response,,,,100,,,,,,,Space,keypress(Space),,,,,,,,-- --- ---- --- ------ ----- ------- ---- -- --- ------- --<br>------- ---------- ------ -- ----- -- ----- -- ---- ------<br>--- ----- --- --- ------ -------- ----- --- ------ value --<br>----- ----- ---------- --- --- ------ ------ ---- -- ------<br>------- --- ------ ----- --- ---- ------- -- ---- --- --<br>------- ------,310467,310404,310102,310092,310118,310488,,31,value
screen,html.Screen,2_1_1_1_32,2021-04-26T19:56:55.457Z,,,,,,,,,,,,,,,,,54,,,,,,,,,,,,,,520,,response,,,,100,,,,,,,Space,keypress(Space),,,,,,,,-- --- ---- --- ------ ----- ------- ---- -- --- ------- --<br>------- ---------- ------ -- ----- -- ----- -- ---- ------<br>--- ----- --- --- ------ -------- ----- --- ------ ----- of<br>----- ----- ---------- --- --- ------ ------ ---- -- ------<br>------- --- ------ ----- --- ---- ------- -- ---- --- --<br>------- ------,311054.00000000006,310991,310471,310467,310488,311090,,32,of
screen,html.Screen,2_1_1_1_33,2021-04-26T19:56:55.813Z,,,,,,,,,,,,,,,,,54,,,,,,,,,,,,,,273,,response,,,,100,,,,,,,Space,keypress(Space),,,,,,,,-- --- ---- --- ------ ----- ------- ---- -- --- ------- --<br>------- ---------- ------ -- ----- -- ----- -- ---- ------<br>--- ----- --- --- ------ -------- ----- --- ------ ----- --<br>these ----- ---------- --- --- ------ ------ ---- -- ------<br>------- --- ------ ----- --- ---- ------- -- ---- --- --<br>------- ------,311409,311346,311073,311054.00000000006,311090,311443,,33,these
screen,html.Screen,2_1_1_1_34,2021-04-26T19:56:56.143Z,,,,,,,,,,,,,,,,,54,,,,,,,,,,,,,,251,,response,,,,100,,,,,,,Space,keypress(Space),,,,,,,,-- --- ---- --- ------ ----- ------- ---- -- --- ------- --<br>------- ---------- ------ -- ----- -- ----- -- ---- ------<br>--- ----- --- --- ------ -------- ----- --- ------ ----- --<br>----- bonds ---------- --- --- ------ ------ ---- -- ------<br>------- --- ------ ----- --- ---- ------- -- ---- --- --<br>------- ------,311740,311677,311426,311409,311443,311764,,34,bonds
screen,html.Screen,2_1_1_1_35,2021-04-26T19:56:56.491Z,,,,,,,,,,,,,,,,,54,,,,,,,,,,,,,,277,,response,,,,100,,,,,,,Space,keypress(Space),,,,,,,,"-- --- ---- --- ------ ----- ------- ---- -- --- ------- --<br>------- ---------- ------ -- ----- -- ----- -- ---- ------<br>--- ----- --- --- ------ -------- ----- --- ------ ----- --<br>----- ----- plummeted, --- --- ------ ------ ---- -- ------<br>------- --- ------ ----- --- ---- ------- -- ---- --- --<br>------- ------",312087,312024,311747,311740,311764,312116,,35,"plummeted,"
screen,html.Screen,2_1_1_1_36,2021-04-26T19:56:57.115Z,,,,,,,,,,,,,,,,,54,,,,,,,,,,,,,,549,,response,,,,100,,,,,,,Space,keypress(Space),,,,,,,,-- --- ---- --- ------ ----- ------- ---- -- --- ------- --<br>------- ---------- ------ -- ----- -- ----- -- ---- ------<br>--- ----- --- --- ------ -------- ----- --- ------ ----- --<br>----- ----- ---------- and --- ------ ------ ---- -- ------<br>------- --- ------ ----- --- ---- ------- -- ---- --- --<br>------- ------,312711,312648,312099,312087,312116,312752,,36,and
screen,html.Screen,2_1_1_1_37,2021-04-26T19:56:57.439Z,,,,,,,,,,,,,,,,,54,,,,,,,,,,,,,,237,,response,,,,100,,,,,,,Space,keypress(Space),,,,,,,,-- --- ---- --- ------ ----- ------- ---- -- --- ------- --<br>------- ---------- ------ -- ----- -- ----- -- ---- ------<br>--- ----- --- --- ------ -------- ----- --- ------ ----- --<br>----- ----- ---------- --- the ------ ------ ---- -- ------<br>------- --- ------ ----- --- ---- ------- -- ---- --- --<br>------- ------,313035,312972,312735,312711,312752,313055,,37,the
screen,html.Screen,2_1_1_1_38,2021-04-26T19:56:57.913Z,,,,,,,,,,,,,,,,,54,,,,,,,,,,,,,,408,,response,,,,100,,,,,,,Space,keypress(Space),,,,,,,,-- --- ---- --- ------ ----- ------- ---- -- --- ------- --<br>------- ---------- ------ -- ----- -- ----- -- ---- ------<br>--- ----- --- --- ------ -------- ----- --- ------ ----- --<br>----- ----- ---------- --- --- market ------ ---- -- ------<br>------- --- ------ ----- --- ---- ------- -- ---- --- --<br>------- ------,313509,313446,313038,313035,313055,313541,,38,market
screen,html.Screen,2_1_1_1_39,2021-04-26T19:56:58.328Z,,,,,,,,,,,,,,,,,54,,,,,,,,,,,,,,337,,response,,,,100,,,,,,,Space,keypress(Space),,,,,,,,-- --- ---- --- ------ ----- ------- ---- -- --- ------- --<br>------- ---------- ------ -- ----- -- ----- -- ---- ------<br>--- ----- --- --- ------ -------- ----- --- ------ ----- --<br>----- ----- ---------- --- --- ------ became ---- -- ------<br>------- --- ------ ----- --- ---- ------- -- ---- --- --<br>------- ------,313924,313861,313524,313509,313541,313961,,39,became
screen,html.Screen,2_1_1_1_40,2021-04-26T19:56:58.720Z,,,,,,,,,,,,,,,,,54,,,,,,,,,,,,,,309,,response,,,,100,,,,,,,Space,keypress(Space),,,,,,,,-- --- ---- --- ------ ----- ------- ---- -- --- ------- --<br>------- ---------- ------ -- ----- -- ----- -- ---- ------<br>--- ----- --- --- ------ -------- ----- --- ------ ----- --<br>----- ----- ---------- --- --- ------ ------ wary -- ------<br>------- --- ------ ----- --- ---- ------- -- ---- --- --<br>------- ------,314316.00000000006,314253,313944,313925,313961,314347,,40,wary
screen,html.Screen,2_1_1_1_41,2021-04-26T19:56:59.096Z,,,,,,,,,,,,,,,,,54,,,,,,,,,,,,,,298,,response,,,,100,,,,,,,Space,keypress(Space),,,,,,,,-- --- ---- --- ------ ----- ------- ---- -- --- ------- --<br>------- ---------- ------ -- ----- -- ----- -- ---- ------<br>--- ----- --- --- ------ -------- ----- --- ------ ----- --<br>----- ----- ---------- --- --- ------ ------ ---- of ------<br>------- --- ------ ----- --- ---- ------- -- ---- --- --<br>------- ------,314692,314629,314331,314316.00000000006,314347,314717,,41,of
screen,html.Screen,2_1_1_1_42,2021-04-26T19:56:59.446Z,,,,,,,,,,,,,,,,,54,,,,,,,,,,,,,,279,,response,,,,100,,,,,,,Space,keypress(Space),,,,,,,,-- --- ---- --- ------ ----- ------- ---- -- --- ------- --<br>------- ---------- ------ -- ----- -- ----- -- ---- ------<br>--- ----- --- --- ------ -------- ----- --- ------ ----- --<br>----- ----- ---------- --- --- ------ ------ ---- -- French<br>------- --- ------ ----- --- ---- ------- -- ---- --- --<br>------- ------,315042.00000000006,314979,314700,314692,314717,315070,,42,French
screen,html.Screen,2_1_1_1_43,2021-04-26T19:56:59.888Z,,,,,,,,,,,,,,,,,54,,,,,,,,,,,,,,368,,response,,,,100,,,,,,,Space,keypress(Space),,,,,,,,-- --- ---- --- ------ ----- ------- ---- -- --- ------- --<br>------- ---------- ------ -- ----- -- ----- -- ---- ------<br>--- ----- --- --- ------ -------- ----- --- ------ ----- --<br>----- ----- ---------- --- --- ------ ------ ---- -- ------<br>credit. --- ------ ----- --- ---- ------- -- ---- --- --<br>------- ------,315484,315421,315053,315042.00000000006,315070,315522,,43,credit.
screen,html.Screen,2_1_1_1_44,2021-04-26T19:57:00.241Z,,,,,,,,,,,,,,,,,54,,,,,,,,,,,,,,269,,response,,,,100,,,,,,,Space,keypress(Space),,,,,,,,-- --- ---- --- ------ ----- ------- ---- -- --- ------- --<br>------- ---------- ------ -- ----- -- ----- -- ---- ------<br>--- ----- --- --- ------ -------- ----- --- ------ ----- --<br>----- ----- ---------- --- --- ------ ------ ---- -- ------<br>------- The ------ ----- --- ---- ------- -- ---- --- --<br>------- ------,315837,315774,315505,315484,315522,315858,,44,The
screen,html.Screen,2_1_1_1_45,2021-04-26T19:57:00.602Z,,,,,,,,,,,,,,,,,54,,,,,,,,,,,,,,294,,response,,,,100,,,,,,,Space,keypress(Space),,,,,,,,-- --- ---- --- ------ ----- ------- ---- -- --- ------- --<br>------- ---------- ------ -- ----- -- ----- -- ---- ------<br>--- ----- --- --- ------ -------- ----- --- ------ ----- --<br>----- ----- ---------- --- --- ------ ------ ---- -- ------<br>------- --- French ----- --- ---- ------- -- ---- --- --<br>------- ------,316198,316135,315841,315837,315858,316227,,45,French
screen,html.Screen,2_1_1_1_46,2021-04-26T19:57:00.995Z,,,,,,,,,,,,,,,,,54,,,,,,,,,,,,,,318,,response,,,,100,,,,,,,Space,keypress(Space),,,,,,,,-- --- ---- --- ------ ----- ------- ---- -- --- ------- --<br>------- ---------- ------ -- ----- -- ----- -- ---- ------<br>--- ----- --- --- ------ -------- ----- --- ------ ----- --<br>----- ----- ---------- --- --- ------ ------ ---- -- ------<br>------- --- ------ state --- ---- ------- -- ---- --- --<br>------- ------,316592,316529,316211,316199,316227,316613,,46,state
screen,html.Screen,2_1_1_1_47,2021-04-26T19:57:01.352Z,,,,,,,,,,,,,,,,,54,,,,,,,,,,,,,,288,,response,,,,100,,,,,,,Space,keypress(Space),,,,,,,,-- --- ---- --- ------ ----- ------- ---- -- --- ------- --<br>------- ---------- ------ -- ----- -- ----- -- ---- ------<br>--- ----- --- --- ------ -------- ----- --- ------ ----- --<br>----- ----- ---------- --- --- ------ ------ ---- -- ------<br>------- --- ------ ----- was ---- ------- -- ---- --- --<br>------- ------,316948,316885,316597,316592,316613,316967,,47,was
screen,html.Screen,2_1_1_1_48,2021-04-26T19:57:01.794Z,,,,,,,,,,,,,,,,,54,,,,,,,,,,,,,,377,,response,,,,100,,,,,,,Space,keypress(Space),,,,,,,,-- --- ---- --- ------ ----- ------- ---- -- --- ------- --<br>------- ---------- ------ -- ----- -- ----- -- ---- ------<br>--- ----- --- --- ------ -------- ----- --- ------ ----- --<br>----- ----- ---------- --- --- ------ ------ ---- -- ------<br>------- --- ------ ----- --- left ------- -- ---- --- --<br>------- ------,317390,317327,316950,316949,316967,317420,,48,left
screen,html.Screen,2_1_1_1_49,2021-04-26T19:57:02.144Z,,,,,,,,,,,,,,,,,54,,,,,,,,,,,,,,275,,response,,,,100,,,,,,,Space,keypress(Space),,,,,,,,-- --- ---- --- ------ ----- ------- ---- -- --- ------- --<br>------- ---------- ------ -- ----- -- ----- -- ---- ------<br>--- ----- --- --- ------ -------- ----- --- ------ ----- --<br>----- ----- ---------- --- --- ------ ------ ---- -- ------<br>------- --- ------ ----- --- ---- without -- ---- --- --<br>------- ------,317741,317678,317403,317390,317420,317771,,49,without
screen,html.Screen,2_1_1_1_50,2021-04-26T19:57:02.552Z,,,,,,,,,,,,,,,,,54,,,,,,,,,,,,,,329,,response,,,,100,,,,,,,Space,keypress(Space),,,,,,,,-- --- ---- --- ------ ----- ------- ---- -- --- ------- --<br>------- ---------- ------ -- ----- -- ----- -- ---- ------<br>--- ----- --- --- ------ -------- ----- --- ------ ----- --<br>----- ----- ---------- --- --- ------ ------ ---- -- ------<br>------- --- ------ ----- --- ---- ------- an ---- --- --<br>------- ------,318148,318085,317756,317741,317771,318175,,50,an
screen,html.Screen,2_1_1_1_51,2021-04-26T19:57:02.913Z,,,,,,,,,,,,,,,,,54,,,,,,,,,,,,,,288,,response,,,,100,,,,,,,Space,keypress(Space),,,,,,,,-- --- ---- --- ------ ----- ------- ---- -- --- ------- --<br>------- ---------- ------ -- ----- -- ----- -- ---- ------<br>--- ----- --- --- ------ -------- ----- --- ------ ----- --<br>----- ----- ---------- --- --- ------ ------ ---- -- ------<br>------- --- ------ ----- --- ---- ------- -- easy --- --<br>------- ------,318509,318446,318158,318148,318175,318528,,51,easy
screen,html.Screen,2_1_1_1_52,2021-04-26T19:57:03.278Z,,,,,,,,,,,,,,,,,54,,,,,,,,,,,,,,300,,response,,,,100,,,,,,,Space,keypress(Space),,,,,,,,-- --- ---- --- ------ ----- ------- ---- -- --- ------- --<br>------- ---------- ------ -- ----- -- ----- -- ---- ------<br>--- ----- --- --- ------ -------- ----- --- ------ ----- --<br>----- ----- ---------- --- --- ------ ------ ---- -- ------<br>------- --- ------ ----- --- ---- ------- -- ---- way --<br>------- ------,318874,318811,318511,318509,318528,318897,,52,way
screen,html.Screen,2_1_1_1_53,2021-04-26T19:57:03.640Z,,,,,,,,,,,,,,,,,54,,,,,,,,,,,,,,292,,response,,,,100,,,,,,,Space,keypress(Space),,,,,,,,-- --- ---- --- ------ ----- ------- ---- -- --- ------- --<br>------- ---------- ------ -- ----- -- ----- -- ---- ------<br>--- ----- --- --- ------ -------- ----- --- ------ ----- --<br>----- ----- ---------- --- --- ------ ------ ---- -- ------<br>------- --- ------ ----- --- ---- ------- -- ---- --- of<br>------- ------,319236,319173,318881,318874,318897,319266,,53,of
screen,html.Screen,2_1_1_1_54,2021-04-26T19:57:04.062Z,,,,,,,,,,,,,,,,,54,,,,,,,,,,,,,,344,,response,,,,100,,,,,,,Space,keypress(Space),,,,,,,,-- --- ---- --- ------ ----- ------- ---- -- --- ------- --<br>------- ---------- ------ -- ----- -- ----- -- ---- ------<br>--- ----- --- --- ------ -------- ----- --- ------ ----- --<br>----- ----- ---------- --- --- ------ ------ ---- -- ------<br>------- --- ------ ----- --- ---- ------- -- ---- --- --<br>raising ------,319658,319595,319251,319236,319266,319686,,54,raising
screen,html.Screen,2_1_1_1_55,2021-04-26T19:57:04.468Z,,,,,,,,,,,,,,,,,54,,,,,,,,,,,,,,331.0000000000582,,response,,,,100,,,,,,,Space,keypress(Space),,,,,,,,-- --- ---- --- ------ ----- ------- ---- -- --- ------- --<br>------- ---------- ------ -- ----- -- ----- -- ---- ------<br>--- ----- --- --- ------ -------- ----- --- ------ ----- --<br>----- ----- ---------- --- --- ------ ------ ---- -- ------<br>------- --- ------ ----- --- ---- ------- -- ---- --- --<br>------- money.,320064,320001.00000000006,319670,319658,319686,320105,,55,money.
Item 100,flow.Loop,2_1_1_1,2021-04-26T19:57:04.468Z,,,,,,,,,,,,,,,,,,,,,,,,,,,,,,,23059.00000000006,,completion,,,,,E,,,,,,,,,,,silence,,,,,320064,320001.00000000006,296926,296926,296942,320105,,,
Question 1,html.Screen,2_1_1_2,2021-04-26T19:57:07.892Z,,,,,,,,,,,,,,,,,,,,,,,,,,,,true,TRUE,,3336,,response,,,,100,E,,,,,,TRUE,click #choice-1,,,,silence,,,,,323488,323425,320089,320064,320105,323510,,,
Question 2,html.Screen,2_1_1_3,2021-04-26T19:57:10.958Z,,,,,,,,,,,,,,,,,,,,,,,,,,,,true,FALSE,,2999,,response,,,,100,E,,,,,,FALSE,click #choice-2,,,,silence,,,,,326554.00000000006,326492,323493,323488,323510,326579,,,
Item 100,flow.Sequence,2_1_1,2021-04-26T19:57:10.958Z,,,,,,,,,,,,,,,,,,,,,,,,,,,,,,,39549,,completion,,,,,,,,,,,,,,,,,,,,,326554.00000000006,326492,286915,286898,286943,326579,,,
End of Practice,html.Page,2_1_2,2021-04-26T19:57:15.520Z,,,,,,,,,,,,,,,,,,,,,,,,,,,,,,,4537,,form submission,,,,,,,,,,,,,,,,,,,,,331116,331116,326560,326554.00000000006,326579,331137,,,
Practice,flow.Sequence,2_1,2021-04-26T19:57:15.520Z,,,,,,,,,,,,,,,,,,,,,,,,,,,,,,,91795,,completion,,,,,,,,,,,,,,,,,,,,,331116,331116,239303,239297,239321,331137,,,
Trap_instruction,html.Page,2_2_0,2021-04-26T19:57:21.234Z,,,,,,,,,,,,,,,,,,,,,,,,,,,,,,,5693,,form submission,,,,,,,,,,,,,,,,,,,,,336830,336830,331120,331116,331137,336862,,,
trap_trial,html.Screen,2_2_1,2021-04-26T19:57:24.227Z,,,,,,,,,,,,,,,,,,,,,,,,,,,,true,1,,2908,,response,,,,,,,,,,,1,click #choice-1,,,,,,,,,339822,339760,336852,336830,336862,339871,,,
end of trap trial,html.Page,2_2_2,2021-04-26T19:57:27.051Z,,,,,,,,,,,,,,,,,,,,,,,,,,,,,,,2776,,form submission,,,,,,,,,,,,,,,,,,,,,342647,342647,339868,339823,339871,342676,,,
Trap 1,flow.Sequence,2_2,2021-04-26T19:57:27.051Z,,,,,,,,,,,,,,,,,,,,,,,,,,,,,,,11510,,completion,,,,,,,,,,,,,,,,,,,,,342647,342647,331120,331116,331137,342676,,,
Standby,html.Page,2_3_0,2021-04-26T19:57:35.070Z,,,,,,,,,,,,,,,,,,,,,,,,,,,,,,,8006,,timeout,,,,,,,,,,,,,,,,,,,,,350665,350665,342658,342647,342676,350682,,,
Holding screen,html.Screen,2_3_1_0_0,2021-04-26T19:57:42.067Z,,,,,,,,,,,,,,,,,,,,,,,,,,,,,,,6996,,timeout,,,,,,,,,,,,,,,,,,,,,357662.00000000006,357661,350665,350666,350682,357678,,,
screen,html.Screen,2_3_1_0_1_0,2021-04-26T19:57:42.600Z,,,,,,,,,,,,,,,,,11,,,,,,,,,,,,,,469,,response,,,,4,E,,,,,,Space,keypress(Space),,,,lyrical,,,,Known -- ---- --- -- --- -------- ------------ ---------- --<br>- ------- ------ --------- -- ------------ -- --- ---- -----<br>------ ---- ---- ------ ------ ------- --- ----- ---------<br>---- --- -------- -------- --- --- -- ------- --- --- -----<br>-- --- ------ ------- --- --- -------- ---- --------- --<br>---------- -- -------- ----------------,358196,358130,357661,357662.00000000006,357678,358230,,0,Known
screen,html.Screen,2_3_1_0_1_1,2021-04-26T19:57:43.015Z,,,,,,,,,,,,,,,,,11,,,,,,,,,,,,,,331,,response,,,,4,E,,,,,,Space,keypress(Space),,,,lyrical,,,,----- as ---- --- -- --- -------- ------------ ---------- --<br>- ------- ------ --------- -- ------------ -- --- ---- -----<br>------ ---- ---- ------ ------ ------- --- ----- ---------<br>---- --- -------- -------- --- --- -- ------- --- --- -----<br>-- --- ------ ------- --- --- -------- ---- --------- --<br>---------- -- -------- ----------------,358610,358545,358214,358196,358230,358641,,1,as
screen,html.Screen,2_3_1_0_1_2,2021-04-26T19:57:43.380Z,,,,,,,,,,,,,,,,,11,,,,,,,,,,,,,,286,,response,,,,4,E,,,,,,Space,keypress(Space),,,,lyrical,,,,----- -- Rapa --- -- --- -------- ------------ ---------- --<br>- ------- ------ --------- -- ------------ -- --- ---- -----<br>------ ---- ---- ------ ------ ------- --- ----- ---------<br>---- --- -------- -------- --- --- -- ------- --- --- -----<br>-- --- ------ ------- --- --- -------- ---- --------- --<br>---------- -- -------- ----------------,358975,358910,358624,358611,358641,358995,,2,Rapa
screen,html.Screen,2_3_1_0_1_3,2021-04-26T19:57:43.779Z,,,,,,,,,,,,,,,,,11,,,,,,,,,,,,,,330,,response,,,,4,E,,,,,,Space,keypress(Space),,,,lyrical,,,,----- -- ---- Nui -- --- -------- ------------ ---------- --<br>- ------- ------ --------- -- ------------ -- --- ---- -----<br>------ ---- ---- ------ ------ ------- --- ----- ---------<br>---- --- -------- -------- --- --- -- ------- --- --- -----<br>-- --- ------ ------- --- --- -------- ---- --------- --<br>---------- -- -------- ----------------,359374,359308,358978,358975,358995,359413,,3,Nui
screen,html.Screen,2_3_1_0_1_4,2021-04-26T19:57:44.167Z,,,,,,,,,,,,,,,,,11,,,,,,,,,,,,,,300,,response,,,,4,E,,,,,,Space,keypress(Space),,,,lyrical,,,,----- -- ---- --- to --- -------- ------------ ---------- --<br>- ------- ------ --------- -- ------------ -- --- ---- -----<br>------ ---- ---- ------ ------ ------- --- ----- ---------<br>---- --- -------- -------- --- --- -- ------- --- --- -----<br>-- --- ------ ------- --- --- -------- ---- --------- --<br>---------- -- -------- ----------------,359762,359697,359397,359374,359413,359784,,4,to
screen,html.Screen,2_3_1_0_1_5,2021-04-26T19:57:44.565Z,,,,,,,,,,,,,,,,,11,,,,,,,,,,,,,,329,,response,,,,4,E,,,,,,Space,keypress(Space),,,,lyrical,,,,----- -- ---- --- -- the -------- ------------ ---------- --<br>- ------- ------ --------- -- ------------ -- --- ---- -----<br>------ ---- ---- ------ ------ ------- --- ----- ---------<br>---- --- -------- -------- --- --- -- ------- --- --- -----<br>-- --- ------ ------- --- --- -------- ---- --------- --<br>---------- -- -------- ----------------,360160,360095,359766,359762,359784,360202,,5,the
screen,html.Screen,2_3_1_0_1_6,2021-04-26T19:57:44.911Z,,,,,,,,,,,,,,,,,11,,,,,,,,,,,,,,254,,response,,,,4,E,,,,,,Space,keypress(Space),,,,lyrical,,,,----- -- ---- --- -- --- island's ------------ ---------- --<br>- ------- ------ --------- -- ------------ -- --- ---- -----<br>------ ---- ---- ------ ------ ------- --- ----- ---------<br>---- --- -------- -------- --- --- -- ------- --- --- -----<br>-- --- ------ ------- --- --- -------- ---- --------- --<br>---------- -- -------- ----------------,360506,360440,360186,360160,360202,360539,,6,island's
screen,html.Screen,2_3_1_0_1_7,2021-04-26T19:57:45.293Z,,,,,,,,,,,,,,,,,11,,,,,,,,,,,,,,299,,response,,,,4,E,,,,,,Space,keypress(Space),,,,lyrical,,,,"----- -- ---- --- -- --- -------- inhabitants, ---------- --<br>- ------- ------ --------- -- ------------ -- --- ---- -----<br>------ ---- ---- ------ ------ ------- --- ----- ---------<br>---- --- -------- -------- --- --- -- ------- --- --- -----<br>-- --- ------ ------- --- --- -------- ---- --------- --<br>---------- -- -------- ----------------",360888.00000000006,360822,360523,360506,360539,360909,,7,"inhabitants,"
screen,html.Screen,2_3_1_0_1_8,2021-04-26T19:57:45.739Z,,,,,,,,,,,,,,,,,11,,,,,,,,,,,,,,379,,response,,,,4,E,,,,,,Space,keypress(Space),,,,lyrical,,,,----- -- ---- --- -- --- -------- ------------ Rongorongo --<br>- ------- ------ --------- -- ------------ -- --- ---- -----<br>------ ---- ---- ------ ------ ------- --- ----- ---------<br>---- --- -------- -------- --- --- -- ------- --- --- -----<br>-- --- ------ ------- --- --- -------- ---- --------- --<br>---------- -- -------- ----------------,361334,361270,360891,360888.00000000006,360909,361361,,8,Rongorongo
screen,html.Screen,2_3_1_0_1_9,2021-04-26T19:57:46.308Z,,,,,,,,,,,,,,,,,11,,,,,,,,,,,,,,493,,response,,,,4,E,,,,,,Space,keypress(Space),,,,lyrical,,,,----- -- ---- --- -- --- -------- ------------ ---------- is<br>- ------- ------ --------- -- ------------ -- --- ---- -----<br>------ ---- ---- ------ ------ ------- --- ----- ---------<br>---- --- -------- -------- --- --- -- ------- --- --- -----<br>-- --- ------ ------- --- --- -------- ---- --------- --<br>---------- -- -------- ----------------,361903,361838,361345,361335,361361,361931,,9,is
screen,html.Screen,2_3_1_0_1_10,2021-04-26T19:57:46.766Z,,,,,,,,,,,,,,,,,11,,,,,,,,,,,,,,381,,response,,,,4,E,,,,,,Space,keypress(Space),,,,lyrical,,,,----- -- ---- --- -- --- -------- ------------ ---------- --<br>a ------- ------ --------- -- ------------ -- --- ---- -----<br>------ ---- ---- ------ ------ ------- --- ----- ---------<br>---- --- -------- -------- --- --- -- ------- --- --- -----<br>-- --- ------ ------- --- --- -------- ---- --------- --<br>---------- -- -------- ----------------,362361,362295,361914,361903,361931,362400,,10,a
screen,html.Screen,2_3_1_0_1_11,2021-04-26T19:57:47.227Z,,,,,,,,,,,,,,,,,11,,,,,,,,,,,,,,374,,response,,,,4,E,,,,,,Space,keypress(Space),,,,lyrical,,,,----- -- ---- --- -- --- -------- ------------ ---------- --<br>- writing ------ --------- -- ------------ -- --- ---- -----<br>------ ---- ---- ------ ------ ------- --- ----- ---------<br>---- --- -------- -------- --- --- -- ------- --- --- -----<br>-- --- ------ ------- --- --- -------- ---- --------- --<br>---------- -- -------- ----------------,362823.00000000006,362758,362384,362361,362400,362854,,11,writing
screen,html.Screen,2_3_1_0_1_12,2021-04-26T19:57:47.588Z,,,,,,,,,,,,,,,,,11,,,,,,,,,,,,,,279,,response,,,,4,E,,,,,,Space,keypress(Space),,,,lyrical,,,,----- -- ---- --- -- --- -------- ------------ ---------- --<br>- ------- system --------- -- ------------ -- --- ---- -----<br>------ ---- ---- ------ ------ ------- --- ----- ---------<br>---- --- -------- -------- --- --- -- ------- --- --- -----<br>-- --- ------ ------- --- --- -------- ---- --------- --<br>---------- -- -------- ----------------,363183,363117,362838,362823.00000000006,362854,363207,,12,system
screen,html.Screen,2_3_1_0_1_13,2021-04-26T19:57:48.004Z,,,,,,,,,,,,,,,,,11,,,,,,,,,,,,,,343,,response,,,,4,E,,,,,,Space,keypress(Space),,,,lyrical,,,,----- -- ---- --- -- --- -------- ------------ ---------- --<br>- ------- ------ comprised -- ------------ -- --- ---- -----<br>------ ---- ---- ------ ------ ------- --- ----- ---------<br>---- --- -------- -------- --- --- -- ------- --- --- -----<br>-- --- ------ ------- --- --- -------- ---- --------- --<br>---------- -- -------- ----------------,363599,363533,363190,363183,363207,363627,,13,comprised
screen,html.Screen,2_3_1_0_1_14,2021-04-26T19:57:48.376Z,,,,,,,,,,,,,,,,,11,,,,,,,,,,,,,,296,,response,,,,4,E,,,,,,Space,keypress(Space),,,,lyrical,,,,----- -- ---- --- -- --- -------- ------------ ---------- --<br>- ------- ------ --------- of ------------ -- --- ---- -----<br>------ ---- ---- ------ ------ ------- --- ----- ---------<br>---- --- -------- -------- --- --- -- ------- --- --- -----<br>-- --- ------ ------- --- --- -------- ---- --------- --<br>---------- -- -------- ----------------,363971,363906,363610,363599,363627,363995,,14,of
screen,html.Screen,2_3_1_0_1_15,2021-04-26T19:57:48.815Z,,,,,,,,,,,,,,,,,11,,,,,,,,,,,,,,365,,response,,,,4,E,,,,,,Space,keypress(Space),,,,lyrical,,,,----- -- ---- --- -- --- -------- ------------ ---------- --<br>- ------- ------ --------- -- pictographs. -- --- ---- -----<br>------ ---- ---- ------ ------ ------- --- ----- ---------<br>---- --- -------- -------- --- --- -- ------- --- --- -----<br>-- --- ------ ------- --- --- -------- ---- --------- --<br>---------- -- -------- ----------------,364410,364344,363979,363971,363995,364449,,15,pictographs.
screen,html.Screen,2_3_1_0_1_16,2021-04-26T19:57:49.342Z,,,,,,,,,,,,,,,,,11,,,,,,,,,,,,,,438,,response,,,,4,E,,,,,,Space,keypress(Space),,,,lyrical,,,,----- -- ---- --- -- --- -------- ------------ ---------- --<br>- ------- ------ --------- -- ------------ It --- ---- -----<br>------ ---- ---- ------ ------ ------- --- ----- ---------<br>---- --- -------- -------- --- --- -- ------- --- --- -----<br>-- --- ------ ------- --- --- -------- ---- --------- --<br>---------- -- -------- ----------------,364937,364871,364433,364410,364449,364969,,16,It
screen,html.Screen,2_3_1_0_1_17,2021-04-26T19:57:49.902Z,,,,,,,,,,,,,,,,,11,,,,,,,,,,,,,,480,,response,,,,4,E,,,,,,Space,keypress(Space),,,,lyrical,,,,----- -- ---- --- -- --- -------- ------------ ---------- --<br>- ------- ------ --------- -- ------------ -- has ---- -----<br>------ ---- ---- ------ ------ ------- --- ----- ---------<br>---- --- -------- -------- --- --- -- ------- --- --- -----<br>-- --- ------ ------- --- --- -------- ---- --------- --<br>---------- -- -------- ----------------,365497,365432,364952,364938,364969,365538,,17,has
screen,html.Screen,2_3_1_0_1_18,2021-04-26T19:57:50.369Z,,,,,,,,,,,,,,,,,11,,,,,,,,,,,,,,378,,response,,,,4,E,,,,,,Space,keypress(Space),,,,lyrical,,,,----- -- ---- --- -- --- -------- ------------ ---------- --<br>- ------- ------ --------- -- ------------ -- --- been -----<br>------ ---- ---- ------ ------ ------- --- ----- ---------<br>---- --- -------- -------- --- --- -- ------- --- --- -----<br>-- --- ------ ------- --- --- -------- ---- --------- --<br>---------- -- -------- ----------------,365964,365899,365521,365497,365538,365991,,18,been
screen,html.Screen,2_3_1_0_1_19,2021-04-26T19:57:50.777Z,,,,,,,,,,,,,,,,,11,,,,,,,,,,,,,,333,,response,,,,4,E,,,,,,Space,keypress(Space),,,,lyrical,,,,----- -- ---- --- -- --- -------- ------------ ---------- --<br>- ------- ------ --------- -- ------------ -- --- ---- found<br>------ ---- ---- ------ ------ ------- --- ----- ---------<br>---- --- -------- -------- --- --- -- ------- --- --- -----<br>-- --- ------ ------- --- --- -------- ---- --------- --<br>---------- -- -------- ----------------,366372,366307,365974,365964,365991,366410,,19,found
screen,html.Screen,2_3_1_0_1_20,2021-04-26T19:57:51.203Z,,,,,,,,,,,,,,,,,11,,,,,,,,,,,,,,338,,response,,,,4,E,,,,,,Space,keypress(Space),,,,lyrical,,,,----- -- ---- --- -- --- -------- ------------ ---------- --<br>- ------- ------ --------- -- ------------ -- --- ---- -----<br>carved ---- ---- ------ ------ ------- --- ----- ---------<br>---- --- -------- -------- --- --- -- ------- --- --- -----<br>-- --- ------ ------- --- --- -------- ---- --------- --<br>---------- -- -------- ----------------,366798,366732,366394,366372,366410,366830,,20,carved
screen,html.Screen,2_3_1_0_1_21,2021-04-26T19:57:51.626Z,,,,,,,,,,,,,,,,,11,,,,,,,,,,,,,,341.0000000000582,,response,,,,4,E,,,,,,Space,keypress(Space),,,,lyrical,,,,----- -- ---- --- -- --- -------- ------------ ---------- --<br>- ------- ------ --------- -- ------------ -- --- ---- -----<br>------ into ---- ------ ------ ------- --- ----- ---------<br>---- --- -------- -------- --- --- -- ------- --- --- -----<br>-- --- ------ ------- --- --- -------- ---- --------- --<br>---------- -- -------- ----------------,367221,367155.00000000006,366814,366798,366830,367250,,21,into
screen,html.Screen,2_3_1_0_1_22,2021-04-26T19:57:52.001Z,,,,,,,,,,,,,,,,,11,,,,,,,,,,,,,,296.0000000000582,,response,,,,4,E,,,,,,Space,keypress(Space),,,,lyrical,,,,----- -- ---- --- -- --- -------- ------------ ---------- --<br>- ------- ------ --------- -- ------------ -- --- ---- -----<br>------ ---- many ------ ------ ------- --- ----- ---------<br>---- --- -------- -------- --- --- -- ------- --- --- -----<br>-- --- ------ ------- --- --- -------- ---- --------- --<br>---------- -- -------- ----------------,367596,367530.00000000006,367234,367221,367250,367619,,22,many
screen,html.Screen,2_3_1_0_1_23,2021-04-26T19:57:52.404Z,,,,,,,,,,,,,,,,,11,,,,,,,,,,,,,,332,,response,,,,4,E,,,,,,Space,keypress(Space),,,,lyrical,,,,----- -- ---- --- -- --- -------- ------------ ---------- --<br>- ------- ------ --------- -- ------------ -- --- ---- -----<br>------ ---- ---- oblong ------ ------- --- ----- ---------<br>---- --- -------- -------- --- --- -- ------- --- --- -----<br>-- --- ------ ------- --- --- -------- ---- --------- --<br>---------- -- -------- ----------------,367999,367934,367602,367596,367619,368038,,23,oblong
screen,html.Screen,2_3_1_0_1_24,2021-04-26T19:57:52.832Z,,,,,,,,,,,,,,,,,11,,,,,,,,,,,,,,338,,response,,,,4,E,,,,,,Space,keypress(Space),,,,lyrical,,,,----- -- ---- --- -- --- -------- ------------ ---------- --<br>- ------- ------ --------- -- ------------ -- --- ---- -----<br>------ ---- ---- ------ wooden ------- --- ----- ---------<br>---- --- -------- -------- --- --- -- ------- --- --- -----<br>-- --- ------ ------- --- --- -------- ---- --------- --<br>---------- -- -------- ----------------,368427,368361,368023,367999,368038,368458,,24,wooden
screen,html.Screen,2_3_1_0_1_25,2021-04-26T19:57:53.264Z,,,,,,,,,,,,,,,,,11,,,,,,,,,,,,,,351,,response,,,,4,E,,,,,,Space,keypress(Space),,,,lyrical,,,,----- -- ---- --- -- --- -------- ------------ ---------- --<br>- ------- ------ --------- -- ------------ -- --- ---- -----<br>------ ---- ---- ------ ------ tablets --- ----- ---------<br>---- --- -------- -------- --- --- -- ------- --- --- -----<br>-- --- ------ ------- --- --- -------- ---- --------- --<br>---------- -- -------- ----------------,368859,368793,368442,368427,368458,368894,,25,tablets
screen,html.Screen,2_3_1_0_1_26,2021-04-26T19:57:53.676Z,,,,,,,,,,,,,,,,,11,,,,,,,,,,,,,,327,,response,,,,4,E,,,,,,Space,keypress(Space),,,,lyrical,,,,----- -- ---- --- -- --- -------- ------------ ---------- --<br>- ------- ------ --------- -- ------------ -- --- ---- -----<br>------ ---- ---- ------ ------ ------- and ----- ---------<br>---- --- -------- -------- --- --- -- ------- --- --- -----<br>-- --- ------ ------- --- --- -------- ---- --------- --<br>---------- -- -------- ----------------,369271,369205,368878,368859,368894,369314,,26,and
screen,html.Screen,2_3_1_0_1_27,2021-04-26T19:57:54.046Z,,,,,,,,,,,,,,,,,11,,,,,,,,,,,,,,279,,response,,,,4,E,,,,,,Space,keypress(Space),,,,lyrical,,,,----- -- ---- --- -- --- -------- ------------ ---------- --<br>- ------- ------ --------- -- ------------ -- --- ---- -----<br>------ ---- ---- ------ ------ ------- --- other ---------<br>---- --- -------- -------- --- --- -- ------- --- --- -----<br>-- --- ------ ------- --- --- -------- ---- --------- --<br>---------- -- -------- ----------------,369641,369576,369297,369271,369314,369667,,27,other
screen,html.Screen,2_3_1_0_1_28,2021-04-26T19:57:54.487Z,,,,,,,,,,,,,,,,,11,,,,,,,,,,,,,,365,,response,,,,4,E,,,,,,Space,keypress(Space),,,,lyrical,,,,----- -- ---- --- -- --- -------- ------------ ---------- --<br>- ------- ------ --------- -- ------------ -- --- ---- -----<br>------ ---- ---- ------ ------ ------- --- ----- artifacts<br>---- --- -------- -------- --- --- -- ------- --- --- -----<br>-- --- ------ ------- --- --- -------- ---- --------- --<br>---------- -- -------- ----------------,370082,370016,369651,369641,369667,370120,,28,artifacts
screen,html.Screen,2_3_1_0_1_29,2021-04-26T19:57:54.911Z,,,,,,,,,,,,,,,,,11,,,,,,,,,,,,,,337,,response,,,,4,E,,,,,,Space,keypress(Space),,,,lyrical,,,,----- -- ---- --- -- --- -------- ------------ ---------- --<br>- ------- ------ --------- -- ------------ -- --- ---- -----<br>------ ---- ---- ------ ------ ------- --- ----- ---------<br>from --- -------- -------- --- --- -- ------- --- --- -----<br>-- --- ------ ------- --- --- -------- ---- --------- --<br>---------- -- -------- ----------------,370506,370440,370103,370082,370120,370539,,29,from
screen,html.Screen,2_3_1_0_1_30,2021-04-26T19:57:55.339Z,,,,,,,,,,,,,,,,,11,,,,,,,,,,,,,,345,,response,,,,4,E,,,,,,Space,keypress(Space),,,,lyrical,,,,----- -- ---- --- -- --- -------- ------------ ---------- --<br>- ------- ------ --------- -- ------------ -- --- ---- -----<br>------ ---- ---- ------ ------ ------- --- ----- ---------<br>---- the -------- -------- --- --- -- ------- --- --- -----<br>-- --- ------ ------- --- --- -------- ---- --------- --<br>---------- -- -------- ----------------,370934,370868,370523,370506,370539,370976,,30,the
screen,html.Screen,2_3_1_0_1_31,2021-04-26T19:57:55.741Z,,,,,,,,,,,,,,,,,11,,,,,,,,,,,,,,312,,response,,,,4,E,,,,,,Space,keypress(Space),,,,lyrical,,,,----- -- ---- --- -- --- -------- ------------ ---------- --<br>- ------- ------ --------- -- ------------ -- --- ---- -----<br>------ ---- ---- ------ ------ ------- --- ----- ---------<br>---- --- island's -------- --- --- -- ------- --- --- -----<br>-- --- ------ ------- --- --- -------- ---- --------- --<br>---------- -- -------- ----------------,371336,371270,370958,370934,370976,371361,,31,island's
screen,html.Screen,2_3_1_0_1_32,2021-04-26T19:57:56.218Z,,,,,,,,,,,,,,,,,11,,,,,,,,,,,,,,402,,response,,,,4,E,,,,,,Space,keypress(Space),,,,lyrical,,,,----- -- ---- --- -- --- -------- ------------ ---------- --<br>- ------- ------ --------- -- ------------ -- --- ---- -----<br>------ ---- ---- ------ ------ ------- --- ----- ---------<br>---- --- -------- history. --- --- -- ------- --- --- -----<br>-- --- ------ ------- --- --- -------- ---- --------- --<br>---------- -- -------- ----------------,371813,371747,371345,371336,371361,371848,,32,history.
screen,html.Screen,2_3_1_0_1_33,2021-04-26T19:57:56.631Z,,,,,,,,,,,,,,,,,11,,,,,,,,,,,,,,330,,response,,,,4,E,,,,,,Space,keypress(Space),,,,lyrical,,,,----- -- ---- --- -- --- -------- ------------ ---------- --<br>- ------- ------ --------- -- ------------ -- --- ---- -----<br>------ ---- ---- ------ ------ ------- --- ----- ---------<br>---- --- -------- -------- The --- -- ------- --- --- -----<br>-- --- ------ ------- --- --- -------- ---- --------- --<br>---------- -- -------- ----------------,372226,372161,371831,371813,371848,372267,,33,The
screen,html.Screen,2_3_1_0_1_34,2021-04-26T19:57:57.079Z,,,,,,,,,,,,,,,,,11,,,,,,,,,,,,,,358,,response,,,,4,E,,,,,,Space,keypress(Space),,,,lyrical,,,,----- -- ---- --- -- --- -------- ------------ ---------- --<br>- ------- ------ --------- -- ------------ -- --- ---- -----<br>------ ---- ---- ------ ------ ------- --- ----- ---------<br>---- --- -------- -------- --- art -- ------- --- --- -----<br>-- --- ------ ------- --- --- -------- ---- --------- --<br>---------- -- -------- ----------------,372674.00000000006,372609,372251,372226,372267,372703,,34,art
screen,html.Screen,2_3_1_0_1_35,2021-04-26T19:57:57.495Z,,,,,,,,,,,,,,,,,11,,,,,,,,,,,,,,339.0000000000582,,response,,,,4,E,,,,,,Space,keypress(Space),,,,lyrical,,,,----- -- ---- --- -- --- -------- ------------ ---------- --<br>- ------- ------ --------- -- ------------ -- --- ---- -----<br>------ ---- ---- ------ ------ ------- --- ----- ---------<br>---- --- -------- -------- --- --- of ------- --- --- -----<br>-- --- ------ ------- --- --- -------- ---- --------- --<br>---------- -- -------- ----------------,373090.00000000006,373025.00000000006,372686,372674.00000000006,372703,373123,,35,of
screen,html.Screen,2_3_1_0_1_36,2021-04-26T19:57:57.903Z,,,,,,,,,,,,,,,,,11,,,,,,,,,,,,,,327,,response,,,,4,E,,,,,,Space,keypress(Space),,,,lyrical,,,,----- -- ---- --- -- --- -------- ------------ ---------- --<br>- ------- ------ --------- -- ------------ -- --- ---- -----<br>------ ---- ---- ------ ------ ------- --- ----- ---------<br>---- --- -------- -------- --- --- -- writing --- --- -----<br>-- --- ------ ------- --- --- -------- ---- --------- --<br>---------- -- -------- ----------------,373498,373433,373106,373090.00000000006,373123,373526,,36,writing
screen,html.Screen,2_3_1_0_1_37,2021-04-26T19:57:58.293Z,,,,,,,,,,,,,,,,,11,,,,,,,,,,,,,,313,,response,,,,4,E,,,,,,Space,keypress(Space),,,,lyrical,,,,----- -- ---- --- -- --- -------- ------------ ---------- --<br>- ------- ------ --------- -- ------------ -- --- ---- -----<br>------ ---- ---- ------ ------ ------- --- ----- ---------<br>---- --- -------- -------- --- --- -- ------- was --- -----<br>-- --- ------ ------- --- --- -------- ---- --------- --<br>---------- -- -------- ----------------,373888.00000000006,373822,373509,373498,373526,373912,,37,was
screen,html.Screen,2_3_1_0_1_38,2021-04-26T19:57:58.647Z,,,,,,,,,,,,,,,,,11,,,,,,,,,,,,,,280,,response,,,,4,E,,,,,,Space,keypress(Space),,,,lyrical,,,,----- -- ---- --- -- --- -------- ------------ ---------- --<br>- ------- ------ --------- -- ------------ -- --- ---- -----<br>------ ---- ---- ------ ------ ------- --- ----- ---------<br>---- --- -------- -------- --- --- -- ------- --- not -----<br>-- --- ------ ------- --- --- -------- ---- --------- --<br>---------- -- -------- ----------------,374241,374175,373895,373888.00000000006,373912,374264,,38,not
screen,html.Screen,2_3_1_0_1_39,2021-04-26T19:57:59.066Z,,,,,,,,,,,,,,,,,11,,,,,,,,,,,,,,347,,response,,,,4,E,,,,,,Space,keypress(Space),,,,lyrical,,,,----- -- ---- --- -- --- -------- ------------ ---------- --<br>- ------- ------ --------- -- ------------ -- --- ---- -----<br>------ ---- ---- ------ ------ ------- --- ----- ---------<br>---- --- -------- -------- --- --- -- ------- --- --- known<br>-- --- ------ ------- --- --- -------- ---- --------- --<br>---------- -- -------- ----------------,374661,374596,374249,374242,374264,374700,,39,known
screen,html.Screen,2_3_1_0_1_40,2021-04-26T19:57:59.470Z,,,,,,,,,,,,,,,,,11,,,,,,,,,,,,,,316,,response,,,,4,E,,,,,,Space,keypress(Space),,,,lyrical,,,,----- -- ---- --- -- --- -------- ------------ ---------- --<br>- ------- ------ --------- -- ------------ -- --- ---- -----<br>------ ---- ---- ------ ------ ------- --- ----- ---------<br>---- --- -------- -------- --- --- -- ------- --- --- -----<br>in --- ------ ------- --- --- -------- ---- --------- --<br>---------- -- -------- ----------------,375064,374999,374683,374661,374700,375086,,40,in
screen,html.Screen,2_3_1_0_1_41,2021-04-26T19:57:59.808Z,,,,,,,,,,,,,,,,,11,,,,,,,,,,,,,,267,,response,,,,4,E,,,,,,Space,keypress(Space),,,,lyrical,,,,----- -- ---- --- -- --- -------- ------------ ---------- --<br>- ------- ------ --------- -- ------------ -- --- ---- -----<br>------ ---- ---- ------ ------ ------- --- ----- ---------<br>---- --- -------- -------- --- --- -- ------- --- --- -----<br>-- any ------ ------- --- --- -------- ---- --------- --<br>---------- -- -------- ----------------,375403,375337,375070,375065,375086,375423,,41,any
screen,html.Screen,2_3_1_0_1_42,2021-04-26T19:58:00.198Z,,,,,,,,,,,,,,,,,11,,,,,,,,,,,,,,321.0000000000582,,response,,,,4,E,,,,,,Space,keypress(Space),,,,lyrical,,,,----- -- ---- --- -- --- -------- ------------ ---------- --<br>- ------- ------ --------- -- ------------ -- --- ---- -----<br>------ ---- ---- ------ ------ ------- --- ----- ---------<br>---- --- -------- -------- --- --- -- ------- --- --- -----<br>-- --- nearby ------- --- --- -------- ---- --------- --<br>---------- -- -------- ----------------,375793,375727.00000000006,375406,375403,375423,375826,,42,nearby
screen,html.Screen,2_3_1_0_1_43,2021-04-26T19:58:00.551Z,,,,,,,,,,,,,,,,,11,,,,,,,,,,,,,,272,,response,,,,4,E,,,,,,Space,keypress(Space),,,,lyrical,,,,----- -- ---- --- -- --- -------- ------------ ---------- --<br>- ------- ------ --------- -- ------------ -- --- ---- -----<br>------ ---- ---- ------ ------ ------- --- ----- ---------<br>---- --- -------- -------- --- --- -- ------- --- --- -----<br>-- --- ------ islands --- --- -------- ---- --------- --<br>---------- -- -------- ----------------,376146,376081,375809,375793,375826,376178,,43,islands
screen,html.Screen,2_3_1_0_1_44,2021-04-26T19:58:00.953Z,,,,,,,,,,,,,,,,,11,,,,,,,,,,,,,,321,,response,,,,4,E,,,,,,Space,keypress(Space),,,,lyrical,,,,----- -- ---- --- -- --- -------- ------------ ---------- --<br>- ------- ------ --------- -- ------------ -- --- ---- -----<br>------ ---- ---- ------ ------ ------- --- ----- ---------<br>---- --- -------- -------- --- --- -- ------- --- --- -----<br>-- --- ------ ------- and --- -------- ---- --------- --<br>---------- -- -------- ----------------,376548,376483,376162,376146,376178,376582,,44,and
screen,html.Screen,2_3_1_0_1_45,2021-04-26T19:58:01.318Z,,,,,,,,,,,,,,,,,11,,,,,,,,,,,,,,283,,response,,,,4,E,,,,,,Space,keypress(Space),,,,lyrical,,,,----- -- ---- --- -- --- -------- ------------ ---------- --<br>- ------- ------ --------- -- ------------ -- --- ---- -----<br>------ ---- ---- ------ ------ ------- --- ----- ---------<br>---- --- -------- -------- --- --- -- ------- --- --- -----<br>-- --- ------ ------- --- the -------- ---- --------- --<br>---------- -- -------- ----------------,376913,376848,376565,376548,376582,376934,,45,the
screen,html.Screen,2_3_1_0_1_46,2021-04-26T19:58:01.696Z,,,,,,,,,,,,,,,,,11,,,,,,,,,,,,,,308,,response,,,,4,E,,,,,,Space,keypress(Space),,,,lyrical,,,,----- -- ---- --- -- --- -------- ------------ ---------- --<br>- ------- ------ --------- -- ------------ -- --- ---- -----<br>------ ---- ---- ------ ------ ------- --- ----- ---------<br>---- --- -------- -------- --- --- -- ------- --- --- -----<br>-- --- ------ ------- --- --- script's ---- --------- --<br>---------- -- -------- ----------------,377291,377225,376917,376913,376934,377321,,46,script's
screen,html.Screen,2_3_1_0_1_47,2021-04-26T19:58:02.112Z,,,,,,,,,,,,,,,,,11,,,,,,,,,,,,,,337,,response,,,,4,E,,,,,,Space,keypress(Space),,,,lyrical,,,,----- -- ---- --- -- --- -------- ------------ ---------- --<br>- ------- ------ --------- -- ------------ -- --- ---- -----<br>------ ---- ---- ------ ------ ------- --- ----- ---------<br>---- --- -------- -------- --- --- -- ------- --- --- -----<br>-- --- ------ ------- --- --- -------- mere --------- --<br>---------- -- -------- ----------------,377706,377641,377304,377291,377321,377739,,47,mere
screen,html.Screen,2_3_1_0_1_48,2021-04-26T19:58:02.557Z,,,,,,,,,,,,,,,,,11,,,,,,,,,,,,,,362,,response,,,,4,E,,,,,,Space,keypress(Space),,,,lyrical,,,,----- -- ---- --- -- --- -------- ------------ ---------- --<br>- ------- ------ --------- -- ------------ -- --- ---- -----<br>------ ---- ---- ------ ------ ------- --- ----- ---------<br>---- --- -------- -------- --- --- -- ------- --- --- -----<br>-- --- ------ ------- --- --- -------- ---- existence --<br>---------- -- -------- ----------------,378152,378086,377724,377706,377739,378193,,48,existence
screen,html.Screen,2_3_1_0_1_49,2021-04-26T19:58:03.018Z,,,,,,,,,,,,,,,,,11,,,,,,,,,,,,,,371,,response,,,,4,E,,,,,,Space,keypress(Space),,,,lyrical,,,,----- -- ---- --- -- --- -------- ------------ ---------- --<br>- ------- ------ --------- -- ------------ -- --- ---- -----<br>------ ---- ---- ------ ------ ------- --- ----- ---------<br>---- --- -------- -------- --- --- -- ------- --- --- -----<br>-- --- ------ ------- --- --- -------- ---- --------- is<br>---------- -- -------- ----------------,378613,378547,378176,378152,378193,378646,,49,is
screen,html.Screen,2_3_1_0_1_50,2021-04-26T19:58:03.486Z,,,,,,,,,,,,,,,,,11,,,,,,,,,,,,,,386,,response,,,,4,E,,,,,,Space,keypress(Space),,,,lyrical,,,,----- -- ---- --- -- --- -------- ------------ ---------- --<br>- ------- ------ --------- -- ------------ -- --- ---- -----<br>------ ---- ---- ------ ------ ------- --- ----- ---------<br>---- --- -------- -------- --- --- -- ------- --- --- -----<br>-- --- ------ ------- --- --- -------- ---- --------- --<br>sufficient -- -------- ----------------,379081,379015,378629,378613,378646,379115,,50,sufficient
screen,html.Screen,2_3_1_0_1_51,2021-04-26T19:58:03.958Z,,,,,,,,,,,,,,,,,11,,,,,,,,,,,,,,388,,response,,,,4,E,,,,,,Space,keypress(Space),,,,lyrical,,,,----- -- ---- --- -- --- -------- ------------ ---------- --<br>- ------- ------ --------- -- ------------ -- --- ---- -----<br>------ ---- ---- ------ ------ ------- --- ----- ---------<br>---- --- -------- -------- --- --- -- ------- --- --- -----<br>-- --- ------ ------- --- --- -------- ---- --------- --<br>---------- to -------- ----------------,379553,379487,379099,379081,379115,379585,,51,to
screen,html.Screen,2_3_1_0_1_52,2021-04-26T19:58:04.392Z,,,,,,,,,,,,,,,,,11,,,,,,,,,,,,,,352,,response,,,,4,E,,,,,,Space,keypress(Space),,,,lyrical,,,,----- -- ---- --- -- --- -------- ------------ ---------- --<br>- ------- ------ --------- -- ------------ -- --- ---- -----<br>------ ---- ---- ------ ------ ------- --- ----- ---------<br>---- --- -------- -------- --- --- -- ------- --- --- -----<br>-- --- ------ ------- --- --- -------- ---- --------- --<br>---------- -- confound ----------------,379986,379920,379568,379553,379585,380021,,52,confound
screen,html.Screen,2_3_1_0_1_53,2021-04-26T19:58:05.056Z,,,,,,,,,,,,,,,,,11,,,,,,,,,,,,,,581,,response,,,,4,E,,,,,,Space,keypress(Space),,,,lyrical,,,,----- -- ---- --- -- --- -------- ------------ ---------- --<br>- ------- ------ --------- -- ------------ -- --- ---- -----<br>------ ---- ---- ------ ------ ------- --- ----- ---------<br>---- --- -------- -------- --- --- -- ------- --- --- -----<br>-- --- ------ ------- --- --- -------- ---- --------- --<br>---------- -- -------- anthropologists.,380651,380584,380003,379986,380021,380690,,53,anthropologists.
Item 4,flow.Loop,2_3_1_0_1,2021-04-26T19:58:05.056Z,,,,,,,,,,,,,,,,,,,,,,,,,,,,,,,22906,,completion,,,,,,,,,,,,,,,,,,,,,380651,380584,357661,357662.00000000006,357678,380690,,,
Question 1,html.Screen,2_3_1_0_2,2021-04-26T19:58:07.631Z,,,,,,,,,,,,,,,,,,,,,,,,,,,,true,FALSE,,2488,,response,,,,4,E,,,,,,FALSE,click #choice-2,,,,lyrical,,,,,383225,383161,380673,380651,380690,383245,,,
Question 2,html.Screen,2_3_1_0_3,2021-04-26T19:58:09.613Z,,,,,,,,,,,,,,,,,,,,,,,,,,,,true,TRUE,,1913,,response,,,,4,E,,,,,,TRUE,click #choice-1,,,,lyrical,,,,,385207,385142,383229,383225,383245,385237,,,
Item 4,flow.Sequence,2_3_1_0,2021-04-26T19:58:09.614Z,,,,,,,,,,,,,,,,,,,,,,,,,,,,,,,34460,,completion,,,,,,,,,,,,,,,,,,,,,385209,385142,350665,350666,350682,385237,,,
Holding screen,html.Screen,2_3_1_1_0,2021-04-26T19:58:16.619Z,,,,,,,,,,,,,,,,,,,,,,,,,,,,,,,6990,,timeout,,,,,,,,,,,,,,,,,,,,,392214,392213,385221,385209,385237,392227,,,
screen,html.Screen,2_3_1_1_1_0,2021-04-26T19:58:17.301Z,,,,,,,,,,,,,,,,,51,,,,,,,,,,,,,,616,,response,,,,13,E,,,,,,Space,keypress(Space),,,,lyrical,,,,American -------- --- --- ---- --- --- ------ -- --------<br>---- --------- --- ------- ------------ ---------- ---------<br>--- ---------- ------- ---------- ------- -- -------- ----<br>---- --- ------ ----- ------ -- ---- --- ----- -- - -------<br>-------- -- --- --- -- ----- ----------- ----- -----------<br>---- --- ---------- --- ---- --- -- ----------,392895,392829,392213,392214,392227,392931,,0,American
