sender,sender_type,sender_id,timestamp,meta,,Blues,Classical,Country,Dance,Electronic,Folk,Gospel,Hip-Hop,Jazz,Latin,Musical/Film,New-age,Pop,Prolific_id,Provo_ID,R&B,Rap,Reggae,Religious,Rock,Soul,Swing,Traditional,age,artist_name,correct,correctResponse,distraction,duration,education,ended_on,familiarity,gender,headphone_check_performance,item,list,music_frequency,offensiveness,pleasantness,position_correct,preference,response,response_action,snippet_file,song_name,song_rating,sound,stimulus_1,stimulus_2,stimulus_3,text,time_commit,time_end,time_render,time_run,time_show,time_switch,url,word,word_ID
Prolific ID,html.Form,0,2021-04-24T18:03:07.378Z,"{""labjs_version"":""20.2.2"",""labjs_build"":{""flavor"":""production"",""commit"":""a25486e0c714a0ae2ce03ff94b7bb6896854dcfa""},""location"":""https://run.pavlovia.org/mvasilev/prolific_music_e/"",""userAgent"":""Mozilla/5.0 (X11; CrOS x86_64 13729.84.0) AppleWebKit/537.36 (KHTML, like Gecko) Chrome/89.0.4389.130 Safari/537.36"",""platform"":""Linux x86_64"",""language"":""en-GB"",""locale"":""en-US"",""timeZone"":""Europe/London"",""timezoneOffset"":-60,""screen_width"":1366,""screen_height"":768,""scroll_width"":1366,""scroll_height"":601,""window_innerWidth"":1366,""window_innerHeight"":649,""devicePixelRatio"":1}",,,,,,,,,,,,,,,6005cc2c7b530e88cc5c1fcb,,,,,,,,,,,,,,,20590.79500000002,,form submission,,,,,,,,,,,,,,,,,,,,,39181.15499999999,39179.50000000002,18472.155,18482.129999999983,18588.705,39216.062,{},,
Introduction,html.Screen,1_0,2021-04-24T18:04:29.659Z,,,,,,,,,,,,,,,,,,,,,,,,,,,,,,,82223.198,,response,,,,,,,,,,,continue,click button,,,,,,,,,121462.09,121439.26,39149.311,39184.095000000016,39216.062,121459.844,,,
Volume calibration,html.Screen,1_1,2021-04-24T18:06:12.695Z,,,,,,,,,,,,,,,,,,,,,,,,,,,,,,,103014.89600000005,,response,,,,,,,,,,,continue,click button,,,,,,,,,224497.62000000005,224474.74000000005,121443.194,121462.84000000003,121459.844,224507.148,,,
Task instructions,html.Screen,1_2,2021-04-24T18:06:29.561Z,,,,,,,,,,,,,,,,,,,,,,,,,,,,,,,16841.69200000007,,response,,,,,,,,,,,continue,click button,,,,,,,,,241364.20500000002,241348.84000000005,224490.498,224498.02500000005,224507.148,241385.303,,,
Sounds,html.Screen,1_3_0_0,2021-04-24T18:06:33.822Z,,,,,,,,,,,,,,,,,,,,,,,,,,,,,,,4247.00999999998,,timeout,,,,,,,,,3,,,,,,,,I,O,S,,245624.4,245615.663,241368.653,241364.91500000007,241385.303,245632.313,,,
Judgement,html.Screen,1_3_0_1,2021-04-24T18:06:35.669Z,,,,,,,,,,,,,,,,,,,,,,,,,,,,true,3,,1826.2419999999984,,response,,,,,,,,,3,,3,click #choice-3,,,,,I,O,S,,247471.87000000002,247458.555,245615.663,245624.82500000004,245632.313,247499.513,,,
Trial,flow.Sequence,1_3_0,2021-04-24T18:06:35.670Z,,,,,,,,,,,,,,,,,,,,,,,,,,,,,,,6073.251999999979,,completion,,,,,,,,,3,,,,,,,,I,O,S,,247472.74499999997,247458.555,241368.653,241364.77500000005,241385.303,247499.513,,,
Sounds,html.Screen,1_3_1_0,2021-04-24T18:06:39.929Z,,,,,,,,,,,,,,,,,,,,,,,,,,,,,,,4246.076000000001,,timeout,,,,,,,,,3,,,,,,,,O,I,S,,251732.335,251728.939,247482.863,247473.15499999997,247499.513,251745.589,,,
Judgement,html.Screen,1_3_1_1,2021-04-24T18:06:40.920Z,,,,,,,,,,,,,,,,,,,,,,,,,,,,true,3,,963.9910000000091,,response,,,,,,,,,3,,3,click #choice-3,,,,,O,I,S,,252722.98500000004,252709.58000000002,251728.939,251733.58000000002,251745.589,252730.304,,,
Trial,flow.Sequence,1_3_1,2021-04-24T18:06:40.921Z,,,,,,,,,,,,,,,,,,,,,,,,,,,,,,,5210.06700000001,,completion,,,,,,,,,3,,,,,,,,O,I,S,,252723.63999999998,252709.58000000002,247482.863,247473.04000000004,247499.513,252730.304,,,
Sounds,html.Screen,1_3_2_0,2021-04-24T18:06:45.161Z,,,,,,,,,,,,,,,,,,,,,,,,,,,,,,,4246.135999999999,,timeout,,,,,,,,,1,,,,,,,,S,O,I,,256963.86000000002,256959.79,252713.654,252724.05499999996,252730.304,256976.44,,,
Judgement,html.Screen,1_3_2_1,2021-04-24T18:06:45.947Z,,,,,,,,,,,,,,,,,,,,,,,,,,,,true,1,,763.2950000000419,,response,,,,,,,,,1,,1,click #choice-1,,,,,S,O,I,,257750.38,257739.73500000004,256959.79,256964.70500000005,256976.44,257761.4,,,
Trial,flow.Sequence,1_3_2,2021-04-24T18:06:45.948Z,,,,,,,,,,,,,,,,,,,,,,,,,,,,,,,5009.4310000000405,,completion,,,,,,,,,1,,,,,,,,S,O,I,,257751.04500000004,257739.73500000004,252713.654,252723.93000000005,252730.304,257761.4,,,
Sounds,html.Screen,1_3_3_0,2021-04-24T18:06:50.193Z,,,,,,,,,,,,,,,,,,,,,,,,,,,,,,,4247.252999999997,,timeout,,,,,,,,,2,,,,,,,,I,S,O,,261995.47,261992.003,257744.75,257751.505,257761.4,262008.653,,,
Judgement,html.Screen,1_3_3_1,2021-04-24T18:06:52.073Z,,,,,,,,,,,,,,,,,,,,,,,,,,,,false,2,,1859.0869999999995,,response,,,,,,,,,2,,1,click #choice-1,,,,,I,S,O,,263875.83,263867.74,261992.003,261996.61,262008.653,263891.538,,,
Trial,flow.Sequence,1_3_3,2021-04-24T18:06:52.074Z,,,,,,,,,,,,,,,,,,,,,,,,,,,,,,,6106.3399999999965,,completion,,,,,,,,,2,,,,,,,,I,S,O,,263876.68,263867.74,257744.75,257751.33,257761.4,263891.538,,,
Sounds,html.Screen,1_3_4_0,2021-04-24T18:06:56.322Z,,,,,,,,,,,,,,,,,,,,,,,,,,,,,,,4246.228999999992,,timeout,,,,,,,,,1,,,,,,,,S,I,O,,268124.55500000005,268121.117,263874.888,263877.2900000001,263891.538,268137.767,,,
Judgement,html.Screen,1_3_4_1,2021-04-24T18:06:57.086Z,,,,,,,,,,,,,,,,,,,,,,,,,,,,true,1,,740.7679999999818,,response,,,,,,,,,1,,1,click #choice-1,,,,,S,I,O,,268889.2250000001,268878.535,268121.117,268125.32000000007,268137.767,268889.45,,,
Trial,flow.Sequence,1_3_4,2021-04-24T18:06:57.087Z,,,,,,,,,,,,,,,,,,,,,,,,,,,,,,,4986.996999999974,,completion,,,,,,,,,1,,,,,,,,S,I,O,,268890.12,268878.535,263874.888,263877.1,263891.538,268889.45,,,
Sounds,html.Screen,1_3_5_0,2021-04-24T18:07:01.318Z,,,,,,,,,,,,,,,,,,,,,,,,,,,,,,,4245.909999999974,,timeout,,,,,,,,,2,,,,,,,,O,S,I,,273121.02499999997,273118.71,268872.8,268890.78,268889.45,273135.36,,,
Judgement,html.Screen,1_3_5_1,2021-04-24T18:07:02.293Z,,,,,,,,,,,,,,,,,,,,,,,,,,,,true,2,,946.570000000007,,response,,,,,,,,,2,,2,click #choice-2,,,,,O,S,I,,274096.13500000007,274081.93,273118.71,273121.555,273135.36,274120.255,,,
Trial,flow.Sequence,1_3_5,2021-04-24T18:07:02.294Z,,,,,,,,,,,,,,,,,,,,,,,,,,,,,,,5192.479999999981,,completion,,,,,,,,,2,,,,,,,,O,S,I,,274097.055,274081.93,268872.8,268890.685,268889.45,274120.255,,,
Task,flow.Loop,1_3,2021-04-24T18:07:02.304Z,,,,,,,,,,,,,,,,,,,,,,,,,,,,,,,32696.62699999998,,completion,,,0.8333333333333334,,,,,,,,,,,,,,,,,,274107.235,274081.93,241368.653,241364.63499999995,241385.303,274120.255,,,
Trap,html.Screen,1_4,2021-04-24T18:07:02.310Z,,,,,,,,,,,,,,,,,,,,,,,,,,,,,,,NaN,,skipped,,,,,,,,,,,,,,,,,,,,,274112.82999999996,274081.93,,274112.325,,274120.255,,,
Thanks,html.Screen,1_5,2021-04-24T18:07:18.393Z,,,,,,,,,,,,,,,,,,,,,,,,,,,,,,,16064.415000000037,,response,,,,,,,,,,,continue,click button,,,,,,,,,290196.2300000001,290184.67000000004,274086.955,274113.1550000001,274120.255,294325.572,,,
Headphone screening,flow.Sequence,1,2021-04-24T18:07:18.394Z,,,,,,,,,,,,,,,,,,,,,,,,,,,,,,,250968.60800000004,,completion,,,,,,,,,,,,,,,,,,,,,290197.2,290184.67000000004,39149.311,39183.719999999994,39216.062,294325.572,,,
Instructions,html.Page,2_0,2021-04-24T18:07:57.022Z,,,,,,,,,,,,,,,,,,,,,,,,,,,,,,,34497.978,,form submission,,,,,,,,,,,,,,,,,,,,,328824.74500000005,328823.55,294308.922,294300.48500000004,294325.572,328843.036,,,
Holding screen,html.Screen,2_1_0_0,2021-04-24T18:08:07.023Z,,,,,,,,,,,,,,,,,,,,,,,,,,,,,,,10045.905999999959,,timeout,,,,,,,,,,,,,,,,,,,,,338826.12,338822.342,328809.736,328826.28500000003,328843.036,338888.942,,,
screen,html.Screen,2_1_0_1_0,2021-04-24T18:08:07.843Z,,,,,,,,,,,,,,,,,53,,,,,,,,,,,,,,742.6330000000889,,response,,,,99,,,,,,,Space,keypress(Space),,,,,,,,When -- ----- -- ------ - ------- --- ----------<br>------------- ------ ------ ---- ---- ------- ----- -- ----<br>-------- ------- -- ---------- --- - --- ----- ----- ----<br>---- --- --- ----- --- ---- ---- ------- ----- ---- -------<br>--- --- -- ----- -- --- ---- -- --- ---- -- ------ ------<br>--- ----- -- ----,339646.365,339631.57500000007,338822.342,338827.82,338888.942,339655.391,,0,When
screen,html.Screen,2_1_0_1_1,2021-04-24T18:08:08.822Z,,,,,,,,,,,,,,,,,53,,,,,,,,,,,,,,964.8189999999595,,response,,,,99,,,,,,,Space,keypress(Space),,,,,,,,---- it ----- -- ------ - ------- --- ----------<br>------------- ------ ------ ---- ---- ------- ----- -- ----<br>-------- ------- -- ---------- --- - --- ----- ----- ----<br>---- --- --- ----- --- ---- ---- ------- ----- ---- -------<br>--- --- -- ----- -- --- ---- -- --- ---- -- ------ ------<br>--- ----- -- ----,340624.55500000005,340620.20999999996,339638.741,339646.76,339655.391,340638.133,,1,it
screen,html.Screen,2_1_0_1_2,2021-04-24T18:08:09.696Z,,,,,,,,,,,,,,,,,53,,,,,,,,,,,,,,853.8770000000368,,response,,,,99,,,,,,,Space,keypress(Space),,,,,,,,---- -- comes -- ------ - ------- --- ----------<br>------------- ------ ------ ---- ---- ------- ----- -- ----<br>-------- ------- -- ---------- --- - --- ----- ----- ----<br>---- --- --- ----- --- ---- ---- ------- ----- ---- -------<br>--- --- -- ----- -- --- ---- -- --- ---- -- ------ ------<br>--- ----- -- ----,341498.69000000006,341492.01,340621.483,340625.79,340638.133,341504.455,,2,comes
screen,html.Screen,2_1_0_1_3,2021-04-24T18:08:10.685Z,,,,,,,,,,,,,,,,,53,,,,,,,,,,,,,,977.0300000000861,,response,,,,99,,,,,,,Space,keypress(Space),,,,,,,,---- -- ----- to ------ - ------- --- ----------<br>------------- ------ ------ ---- ---- ------- ----- -- ----<br>-------- ------- -- ---------- --- - --- ----- ----- ----<br>---- --- --- ----- --- ---- ---- ------- ----- ---- -------<br>--- --- -- ----- -- --- ---- -- --- ---- -- ------ ------<br>--- ----- -- ----,342488.38000000006,342481.4850000001,341487.805,341500.02999999997,341504.455,342503.905,,3,to
screen,html.Screen,2_1_0_1_4,2021-04-24T18:08:11.566Z,,,,,,,,,,,,,,,,,53,,,,,,,,,,,,,,856.1050000000396,,response,,,,99,,,,,,,Space,keypress(Space),,,,,,,,---- -- ----- -- having - ------- --- ----------<br>------------- ------ ------ ---- ---- ------- ----- -- ----<br>-------- ------- -- ---------- --- - --- ----- ----- ----<br>---- --- --- ----- --- ---- ---- ------- ----- ---- -------<br>--- --- -- ----- -- --- ---- -- --- ---- -- ------ ------<br>--- ----- -- ----,343368.52,343360.01000000007,342487.255,342488.765,342503.905,343386.867,,4,having
screen,html.Screen,2_1_0_1_5,2021-04-24T18:08:12.320Z,,,,,,,,,,,,,,,,,53,,,,,,,,,,,,,,728.533000000054,,response,,,,99,,,,,,,Space,keypress(Space),,,,,,,,---- -- ----- -- ------ a ------- --- ----------<br>------------- ------ ------ ---- ---- ------- ----- -- ----<br>-------- ------- -- ---------- --- - --- ----- ----- ----<br>---- --- --- ----- --- ---- ---- ------- ----- ---- -------<br>--- --- -- ----- -- --- ---- -- --- ---- -- ------ ------<br>--- ----- -- ----,344123.075,344115.4000000001,343370.217,343369.805,343386.867,344136.582,,5,a
screen,html.Screen,2_1_0_1_6,2021-04-24T18:08:13.332Z,,,,,,,,,,,,,,,,,53,,,,,,,,,,,,,,989.6980000000331,,response,,,,99,,,,,,,Space,keypress(Space),,,,,,,,---- -- ----- -- ------ - lasting --- ----------<br>------------- ------ ------ ---- ---- ------- ----- -- ----<br>-------- ------- -- ---------- --- - --- ----- ----- ----<br>---- --- --- ----- --- ---- ---- ------- ----- ---- -------<br>--- --- -- ----- -- --- ---- -- --- ---- -- ------ ------<br>--- ----- -- ----,345134.5850000001,345126.28,344119.932,344124.39999999997,344136.582,345152.622,,6,lasting
screen,html.Screen,2_1_0_1_7,2021-04-24T18:08:14.152Z,,,,,,,,,,,,,,,,,53,,,,,,,,,,,,,,795.1930000000866,,response,,,,99,,,,,,,Space,keypress(Space),,,,,,,,---- -- ----- -- ------ - ------- and ----------<br>------------- ------ ------ ---- ---- ------- ----- -- ----<br>-------- ------- -- ---------- --- - --- ----- ----- ----<br>---- --- --- ----- --- ---- ---- ------- ----- ---- -------<br>--- --- -- ----- -- --- ---- -- --- ---- -- ------ ------<br>--- ----- -- ----,345954.84,345947.81500000006,345135.972,345134.93,345152.622,345969.01,,7,and
screen,html.Screen,2_1_0_1_8,2021-04-24T18:08:15.135Z,,,,,,,,,,,,,,,,,53,,,,,,,,,,,,,,959.3250000000116,,response,,,,99,,,,,,,Space,keypress(Space),,,,,,,,---- -- ----- -- ------ - ------- --- fulfilling<br>------------- ------ ------ ---- ---- ------- ----- -- ----<br>-------- ------- -- ---------- --- - --- ----- ----- ----<br>---- --- --- ----- --- ---- ---- ------- ----- ---- -------<br>--- --- -- ----- -- --- ---- -- --- ---- -- ------ ------<br>--- ----- -- ----,346938.055,346928.335,345952.36,345955.19500000007,345969.01,346951.767,,8,fulfilling
screen,html.Screen,2_1_0_1_9,2021-04-24T18:08:16.098Z,,,,,,,,,,,,,,,,,53,,,,,,,,,,,,,,941.3179999999702,,response,,,,99,,,,,,,Space,keypress(Space),,,,,,,,"---- -- ----- -- ------ - ------- --- ----------<br>relationship, ------ ------ ---- ---- ------- ----- -- ----<br>-------- ------- -- ---------- --- - --- ----- ----- ----<br>---- --- --- ----- --- ---- ---- ------- ----- ---- -------<br>--- --- -- ----- -- --- ---- -- --- ---- -- ------ ------<br>--- ----- -- ----",347901.13,347893.08499999996,346935.117,346938.96,346951.767,347917.989,,9,"relationship,"
screen,html.Screen,2_1_0_1_10,2021-04-24T18:08:16.967Z,,,,,,,,,,,,,,,,,53,,,,,,,,,,,,,,843.8160000000498,,response,,,,99,,,,,,,Space,keypress(Space),,,,,,,,---- -- ----- -- ------ - ------- --- ----------<br>------------- common ------ ---- ---- ------- ----- -- ----<br>-------- ------- -- ---------- --- - --- ----- ----- ----<br>---- --- --- ----- --- ---- ---- ------- ----- ---- -------<br>--- --- -- ----- -- --- ---- -- --- ---- -- ------ ------<br>--- ----- -- ----,348769.83999999997,348761.80500000005,347901.339,347902.45499999996,347917.989,348784.299,,10,common
screen,html.Screen,2_1_0_1_11,2021-04-24T18:08:18.045Z,,,,,,,,,,,,,,,,,53,,,,,,,,,,,,,,1053.9309999999823,,response,,,,99,,,,,,,Space,keypress(Space),,,,,,,,---- -- ----- -- ------ - ------- --- ----------<br>------------- ------ wisdom ---- ---- ------- ----- -- ----<br>-------- ------- -- ---------- --- - --- ----- ----- ----<br>---- --- --- ----- --- ---- ---- ------- ----- ---- -------<br>--- --- -- ----- -- --- ---- -- --- ---- -- ------ ------<br>--- ----- -- ----,349847.87999999995,349838.23,348767.649,348771.085,348784.299,349850.351,,11,wisdom
screen,html.Screen,2_1_0_1_12,2021-04-24T18:08:19.527Z,,,,,,,,,,,,,,,,,53,,,,,,,,,,,,,,1470.5889999999781,,response,,,,99,,,,,,,Space,keypress(Space),,,,,,,,---- -- ----- -- ------ - ------- --- ----------<br>------------- ------ ------ says ---- ------- ----- -- ----<br>-------- ------- -- ---------- --- - --- ----- ----- ----<br>---- --- --- ----- --- ---- ---- ------- ----- ---- -------<br>--- --- -- ----- -- --- ---- -- --- ---- -- ------ ------<br>--- ----- -- ----,351330.24500000005,351320.94,349833.701,349849.06500000006,349850.351,351349.403,,12,says
screen,html.Screen,2_1_0_1_13,2021-04-24T18:08:20.355Z,,,,,,,,,,,,,,,,,53,,,,,,,,,,,,,,803.4320000000298,,response,,,,99,,,,,,,Space,keypress(Space),,,,,,,,---- -- ----- -- ------ - ------- --- ----------<br>------------- ------ ------ ---- that ------- ----- -- ----<br>-------- ------- -- ---------- --- - --- ----- ----- ----<br>---- --- --- ----- --- ---- ---- ------- ----- ---- -------<br>--- --- -- ----- -- --- ---- -- --- ---- -- ------ ------<br>--- ----- -- ----,352158.125,352152.835,351332.753,351331.60500000004,351349.403,352166.047,,13,that
screen,html.Screen,2_1_0_1_14,2021-04-24T18:08:21.275Z,,,,,,,,,,,,,,,,,53,,,,,,,,,,,,,,905.1679999999469,,response,,,,99,,,,,,,Space,keypress(Space),,,,,,,,---- -- ----- -- ------ - ------- --- ----------<br>------------- ------ ------ ---- ---- feeling ----- -- ----<br>-------- ------- -- ---------- --- - --- ----- ----- ----<br>---- --- --- ----- --- ---- ---- ------- ----- ---- -------<br>--- --- -- ----- -- --- ---- -- --- ---- -- ------ ------<br>--- ----- -- ----,353078.09,353071.21499999997,352149.397,352158.7,352166.047,353082.223,,14,feeling
screen,html.Screen,2_1_0_1_15,2021-04-24T18:08:22.238Z,,,,,,,,,,,,,,,,,53,,,,,,,,,,,,,,951.6770000000834,,response,,,,99,,,,,,,Space,keypress(Space),,,,,,,,---- -- ----- -- ------ - ------- --- ----------<br>------------- ------ ------ ---- ---- ------- close -- ----<br>-------- ------- -- ---------- --- - --- ----- ----- ----<br>---- --- --- ----- --- ---- ---- ------- ----- ---- -------<br>--- --- -- ----- -- --- ---- -- --- ---- -- ------ ------<br>--- ----- -- ----,354041.03,354033.9000000001,353065.573,353079.315,353082.223,354048.395,,15,close
screen,html.Screen,2_1_0_1_16,2021-04-24T18:08:22.973Z,,,,,,,,,,,,,,,,,53,,,,,,,,,,,,,,717.664999999979,,response,,,,99,,,,,,,Space,keypress(Space),,,,,,,,---- -- ----- -- ------ - ------- --- ----------<br>------------- ------ ------ ---- ---- ------- ----- to ----<br>-------- ------- -- ---------- --- - --- ----- ----- ----<br>---- --- --- ----- --- ---- ---- ------- ----- ---- -------<br>--- --- -- ----- -- --- ---- -- --- ---- -- ------ ------<br>--- ----- -- ----,354775.57000000007,354766.06,354031.745,354043.19000000006,354048.395,354781.498,,16,to
screen,html.Screen,2_1_0_1_17,2021-04-24T18:08:23.904Z,,,,,,,,,,,,,,,,,53,,,,,,,,,,,,,,919.7470000000321,,response,,,,99,,,,,,,Space,keypress(Space),,,,,,,,---- -- ----- -- ------ - ------- --- ----------<br>------------- ------ ------ ---- ---- ------- ----- -- your<br>-------- ------- -- ---------- --- - --- ----- ----- ----<br>---- --- --- ----- --- ---- ---- ------- ----- ---- -------<br>--- --- -- ----- -- --- ---- -- --- ---- -- ------ ------<br>--- ----- -- ----,355707.0850000001,355701.24500000005,354764.848,354776.91,354781.498,355714.292,,17,your
screen,html.Screen,2_1_0_1_18,2021-04-24T18:08:24.626Z,,,,,,,,,,,,,,,,,53,,,,,,,,,,,,,,707.5229999999865,,response,,,,99,,,,,,,Space,keypress(Space),,,,,,,,---- -- ----- -- ------ - ------- --- ----------<br>------------- ------ ------ ---- ---- ------- ----- -- ----<br>romantic ------- -- ---------- --- - --- ----- ----- ----<br>---- --- --- ----- --- ---- ---- ------- ----- ---- -------<br>--- --- -- ----- -- --- ---- -- --- ---- -- ------ ------<br>--- ----- -- ----,356429.30500000005,356421.815,355697.642,355707.99000000005,355714.292,356430.727,,18,romantic
screen,html.Screen,2_1_0_1_19,2021-04-24T18:08:25.584Z,,,,,,,,,,,,,,,,,53,,,,,,,,,,,,,,946.9280000000726,,response,,,,99,,,,,,,Space,keypress(Space),,,,,,,,---- -- ----- -- ------ - ------- --- ----------<br>------------- ------ ------ ---- ---- ------- ----- -- ----<br>-------- partner -- ---------- --- - --- ----- ----- ----<br>---- --- --- ----- --- ---- ---- ------- ----- ---- -------<br>--- --- -- ----- -- --- ---- -- --- ---- -- ------ ------<br>--- ----- -- ----,357386.51499999996,357377.6550000001,356414.077,356429.735,356430.727,357396.796,,19,partner
screen,html.Screen,2_1_0_1_20,2021-04-24T18:08:26.506Z,,,,,,,,,,,,,,,,,53,,,,,,,,,,,,,,905.2140000000945,,response,,,,99,,,,,,,Space,keypress(Space),,,,,,,,---- -- ----- -- ------ - ------- --- ----------<br>------------- ------ ------ ---- ---- ------- ----- -- ----<br>-------- ------- is ---------- --- - --- ----- ----- ----<br>---- --- --- ----- --- ---- ---- ------- ----- ---- -------<br>--- --- -- ----- -- --- ---- -- --- ---- -- ------ ------<br>--- ----- -- ----,358309.32,358302.01000000007,357380.146,357387.79500000004,357396.796,358313.055,,20,is
screen,html.Screen,2_1_0_1_21,2021-04-24T18:08:27.707Z,,,,,,,,,,,,,,,,,53,,,,,,,,,,,,,,1186.7350000000442,,response,,,,99,,,,,,,Space,keypress(Space),,,,,,,,---- -- ----- -- ------ - ------- --- ----------<br>------------- ------ ------ ---- ---- ------- ----- -- ----<br>-------- ------- -- paramount. --- - --- ----- ----- ----<br>---- --- --- ----- --- ---- ---- ------- ----- ---- -------<br>--- --- -- ----- -- --- ---- -- --- ---- -- ------ ------<br>--- ----- -- ----,359509.5400000001,359499.79000000004,358296.405,358310.93000000005,358313.055,359512.327,,21,paramount.
screen,html.Screen,2_1_0_1_22,2021-04-24T18:08:28.771Z,,,,,,,,,,,,,,,,,53,,,,,,,,,,,,,,1054.5380000000587,,response,,,,99,,,,,,,Space,keypress(Space),,,,,,,,---- -- ----- -- ------ - ------- --- ----------<br>------------- ------ ------ ---- ---- ------- ----- -- ----<br>-------- ------- -- ---------- But - --- ----- ----- ----<br>---- --- --- ----- --- ---- ---- ------- ----- ---- -------<br>--- --- -- ----- -- --- ---- -- --- ---- -- ------ ------<br>--- ----- -- ----,360574.32999999996,360566.86500000005,359495.677,359510.82,359512.327,360578.567,,22,But
screen,html.Screen,2_1_0_1_23,2021-04-24T18:08:29.555Z,,,,,,,,,,,,,,,,,53,,,,,,,,,,,,,,772.6630000000587,,response,,,,99,,,,,,,Space,keypress(Space),,,,,,,,---- -- ----- -- ------ - ------- --- ----------<br>------------- ------ ------ ---- ---- ------- ----- -- ----<br>-------- ------- -- ---------- --- a --- ----- ----- ----<br>---- --- --- ----- --- ---- ---- ------- ----- ---- -------<br>--- --- -- ----- -- --- ---- -- --- ---- -- ------ ------<br>--- ----- -- ----,361357.75500000006,361351.23000000004,360561.917,360574.895,360578.567,361361.665,,23,a
screen,html.Screen,2_1_0_1_24,2021-04-24T18:08:30.472Z,,,,,,,,,,,,,,,,,53,,,,,,,,,,,,,,905.4249999999884,,response,,,,99,,,,,,,Space,keypress(Space),,,,,,,,---- -- ----- -- ------ - ------- --- ----------<br>------------- ------ ------ ---- ---- ------- ----- -- ----<br>-------- ------- -- ---------- --- - new ----- ----- ----<br>---- --- --- ----- --- ---- ---- ------- ----- ---- -------<br>--- --- -- ----- -- --- ---- -- --- ---- -- ------ ------<br>--- ----- -- ----,362274.54500000004,362267.08999999997,361345.015,361358.93500000006,361361.665,362294.479,,24,new
screen,html.Screen,2_1_0_1_25,2021-04-24T18:08:31.416Z,,,,,,,,,,,,,,,,,53,,,,,,,,,,,,,,917.3960000000079,,response,,,,99,,,,,,,Space,keypress(Space),,,,,,,,---- -- ----- -- ------ - ------- --- ----------<br>------------- ------ ------ ---- ---- ------- ----- -- ----<br>-------- ------- -- ---------- --- - --- study ----- ----<br>---- --- --- ----- --- ---- ---- ------- ----- ---- -------<br>--- --- -- ----- -- --- ---- -- --- ---- -- ------ ------<br>--- ----- -- ----,363218.9,363211.875,362277.829,362274.885,362294.479,363227.36,,25,study
screen,html.Screen,2_1_0_1_26,2021-04-24T18:08:32.282Z,,,,,,,,,,,,,,,,,53,,,,,,,,,,,,,,847.2750000000233,,response,,,,99,,,,,,,Space,keypress(Space),,,,,,,,---- -- ----- -- ------ - ------- --- ----------<br>------------- ------ ------ ---- ---- ------- ----- -- ----<br>-------- ------- -- ---------- --- - --- ----- finds ----<br>---- --- --- ----- --- ---- ---- ------- ----- ---- -------<br>--- --- -- ----- -- --- ---- -- --- ---- -- ------ ------<br>--- ----- -- ----,364084.92500000005,364074.635,363210.71,363220.16500000004,363227.36,364093.657,,26,finds
screen,html.Screen,2_1_0_1_27,2021-04-24T18:08:33.141Z,,,,,,,,,,,,,,,,,53,,,,,,,,,,,,,,841.8329999999842,,response,,,,99,,,,,,,Space,keypress(Space),,,,,,,,---- -- ----- -- ------ - ------- --- ----------<br>------------- ------ ------ ---- ---- ------- ----- -- ----<br>-------- ------- -- ---------- --- - --- ----- ----- that<br>---- --- --- ----- --- ---- ---- ------- ----- ---- -------<br>--- --- -- ----- -- --- ---- -- --- ---- -- ------ ------<br>--- ----- -- ----,364943.9,364935.49,364077.007,364086.29000000004,364093.657,364959.907,,27,that
screen,html.Screen,2_1_0_1_28,2021-04-24T18:08:34.596Z,,,,,,,,,,,,,,,,,53,,,,,,,,,,,,,,1430.8080000000773,,response,,,,99,,,,,,,Space,keypress(Space),,,,,,,,---- -- ----- -- ------ - ------- --- ----------<br>------------- ------ ------ ---- ---- ------- ----- -- ----<br>-------- ------- -- ---------- --- - --- ----- ----- ----<br>it's --- --- ----- --- ---- ---- ------- ----- ---- -------<br>--- --- -- ----- -- --- ---- -- --- ---- -- ------ ------<br>--- ----- -- ----,366398.56000000006,366390.7150000001,364943.257,364946.85,364959.907,366408.901,,28,it's
screen,html.Screen,2_1_0_1_29,2021-04-24T18:08:35.321Z,,,,,,,,,,,,,,,,,53,,,,,,,,,,,,,,705.619000000006,,response,,,,99,,,,,,,Space,keypress(Space),,,,,,,,---- -- ----- -- ------ - ------- --- ----------<br>------------- ------ ------ ---- ---- ------- ----- -- ----<br>-------- ------- -- ---------- --- - --- ----- ----- ----<br>---- not --- ----- --- ---- ---- ------- ----- ---- -------<br>--- --- -- ----- -- --- ---- -- --- ---- -- ------ ------<br>--- ----- -- ----,367124.24000000005,367114.52,366392.251,366399.81000000006,366408.901,367142.269,,29,not
screen,html.Screen,2_1_0_1_30,2021-04-24T18:08:36.008Z,,,,,,,,,,,,,,,,,53,,,,,,,,,,,,,,660.316000000108,,response,,,,99,,,,,,,Space,keypress(Space),,,,,,,,---- -- ----- -- ------ - ------- --- ----------<br>------------- ------ ------ ---- ---- ------- ----- -- ----<br>-------- ------- -- ---------- --- - --- ----- ----- ----<br>---- --- how ----- --- ---- ---- ------- ----- ---- -------<br>--- --- -- ----- -- --- ---- -- --- ---- -- ------ ------<br>--- ----- -- ----,367810.54,367802.5850000001,367125.619,367125.32000000007,367142.269,367825.296,,30,how
screen,html.Screen,2_1_0_1_31,2021-04-24T18:08:36.724Z,,,,,,,,,,,,,,,,,53,,,,,,,,,,,,,,694.984000000055,,response,,,,99,,,,,,,Space,keypress(Space),,,,,,,,---- -- ----- -- ------ - ------- --- ----------<br>------------- ------ ------ ---- ---- ------- ----- -- ----<br>-------- ------- -- ---------- --- - --- ----- ----- ----<br>---- --- --- close --- ---- ---- ------- ----- ---- -------<br>--- --- -- ----- -- --- ---- -- --- ---- -- ------ ------<br>--- ----- -- ----,368527.03500000003,368520.28,367808.646,367810.82500000007,367825.296,368541.595,,31,close
screen,html.Screen,2_1_0_1_32,2021-04-24T18:08:37.446Z,,,,,,,,,,,,,,,,,53,,,,,,,,,,,,,,696.5750000000698,,response,,,,99,,,,,,,Space,keypress(Space),,,,,,,,---- -- ----- -- ------ - ------- --- ----------<br>------------- ------ ------ ---- ---- ------- ----- -- ----<br>-------- ------- -- ---------- --- - --- ----- ----- ----<br>---- --- --- ----- you ---- ---- ------- ----- ---- -------<br>--- --- -- ----- -- --- ---- -- --- ---- -- ------ ------<br>--- ----- -- ----,369249.335,369238.17000000004,368524.945,368527.395,368541.595,369257.916,,32,you
screen,html.Screen,2_1_0_1_33,2021-04-24T18:08:38.080Z,,,,,,,,,,,,,,,,,53,,,,,,,,,,,,,,616.9040000000386,,response,,,,99,,,,,,,Space,keypress(Space),,,,,,,,---- -- ----- -- ------ - ------- --- ----------<br>------------- ------ ------ ---- ---- ------- ----- -- ----<br>-------- ------- -- ---------- --- - --- ----- ----- ----<br>---- --- --- ----- --- feel ---- ------- ----- ---- -------<br>--- --- -- ----- -- --- ---- -- --- ---- -- ------ ------<br>--- ----- -- ----,369883.04,369874.82000000007,369241.266,369250.09500000003,369257.916,369890.999,,33,feel
screen,html.Screen,2_1_0_1_34,2021-04-24T18:08:38.811Z,,,,,,,,,,,,,,,,,53,,,,,,,,,,,,,,713.1110000000335,,response,,,,99,,,,,,,Space,keypress(Space),,,,,,,,---- -- ----- -- ------ - ------- --- ----------<br>------------- ------ ------ ---- ---- ------- ----- -- ----<br>-------- ------- -- ---------- --- - --- ----- ----- ----<br>---- --- --- ----- --- ---- that ------- ----- ---- -------<br>--- --- -- ----- -- --- ---- -- --- ---- -- ------ ------<br>--- ----- -- ----,370613.6500000001,370604.11000000004,369874.349,369884.2700000001,369890.999,370623.935,,34,that
screen,html.Screen,2_1_0_1_35,2021-04-24T18:08:39.550Z,,,,,,,,,,,,,,,,,53,,,,,,,,,,,,,,721.9300000000512,,response,,,,99,,,,,,,Space,keypress(Space),,,,,,,,---- -- ----- -- ------ - ------- --- ----------<br>------------- ------ ------ ---- ---- ------- ----- -- ----<br>-------- ------- -- ---------- --- - --- ----- ----- ----<br>---- --- --- ----- --- ---- ---- matters ----- ---- -------<br>--- --- -- ----- -- --- ---- -- --- ---- -- ------ ------<br>--- ----- -- ----,371353.05,371345.86500000005,370607.285,370614.75,370623.935,371356.925,,35,matters
screen,html.Screen,2_1_0_1_36,2021-04-24T18:08:40.241Z,,,,,,,,,,,,,,,,,53,,,,,,,,,,,,,,678.9650000000838,,response,,,,99,,,,,,,Space,keypress(Space),,,,,,,,"---- -- ----- -- ------ - ------- --- ----------<br>------------- ------ ------ ---- ---- ------- ----- -- ----<br>-------- ------- -- ---------- --- - --- ----- ----- ----<br>---- --- --- ----- --- ---- ---- ------- most, ---- -------<br>--- --- -- ----- -- --- ---- -- --- ---- -- ------ ------<br>--- ----- -- ----",372044.15,372035.8900000001,371340.275,371353.395,371356.925,372056.603,,36,"most,"
screen,html.Screen,2_1_0_1_37,2021-04-24T18:08:41.035Z,,,,,,,,,,,,,,,,,53,,,,,,,,,,,,,,771.5720000000438,,response,,,,99,,,,,,,Space,keypress(Space),,,,,,,,---- -- ----- -- ------ - ------- --- ----------<br>------------- ------ ------ ---- ---- ------- ----- -- ----<br>-------- ------- -- ---------- --- - --- ----- ----- ----<br>---- --- --- ----- --- ---- ---- ------- ----- it's -------<br>--- --- -- ----- -- --- ---- -- --- ---- -- ------ ------<br>--- ----- -- ----,372837.7100000001,372828.17500000005,372039.953,372045.38500000007,372056.603,372856.169,,37,it's
screen,html.Screen,2_1_0_1_38,2021-04-24T18:08:41.798Z,,,,,,,,,,,,,,,,,53,,,,,,,,,,,,,,740.3710000000428,,response,,,,99,,,,,,,Space,keypress(Space),,,,,,,,---- -- ----- -- ------ - ------- --- ----------<br>------------- ------ ------ ---- ---- ------- ----- -- ----<br>-------- ------- -- ---------- --- - --- ----- ----- ----<br>---- --- --- ----- --- ---- ---- ------- ----- ---- whether<br>--- --- -- ----- -- --- ---- -- --- ---- -- ------ ------<br>--- ----- -- ----,373601.0800000001,373596.54000000004,372839.519,372838.74500000005,372856.169,373605.819,,38,whether
screen,html.Screen,2_1_0_1_39,2021-04-24T18:08:42.647Z,,,,,,,,,,,,,,,,,53,,,,,,,,,,,,,,836.0359999999637,,response,,,,99,,,,,,,Space,keypress(Space),,,,,,,,---- -- ----- -- ------ - ------- --- ----------<br>------------- ------ ------ ---- ---- ------- ----- -- ----<br>-------- ------- -- ---------- --- - --- ----- ----- ----<br>---- --- --- ----- --- ---- ---- ------- ----- ---- -------<br>you --- -- ----- -- --- ---- -- --- ---- -- ------ ------<br>--- ----- -- ----,374449.7850000001,374441.855,373589.169,373601.345,373605.819,374455.373,,39,you
screen,html.Screen,2_1_0_1_40,2021-04-24T18:08:43.390Z,,,,,,,,,,,,,,,,,53,,,,,,,,,,,,,,731.6370000000461,,response,,,,99,,,,,,,Space,keypress(Space),,,,,,,,---- -- ----- -- ------ - ------- --- ----------<br>------------- ------ ------ ---- ---- ------- ----- -- ----<br>-------- ------- -- ---------- --- - --- ----- ----- ----<br>---- --- --- ----- --- ---- ---- ------- ----- ---- -------<br>--- are -- ----- -- --- ---- -- --- ---- -- ------ ------<br>--- ----- -- ----,375193.19,375187.01000000007,374438.723,374450.23,374455.373,375205.059,,40,are
screen,html.Screen,2_1_0_1_41,2021-04-24T18:08:44.143Z,,,,,,,,,,,,,,,,,53,,,,,,,,,,,,,,732.6160000000382,,response,,,,99,,,,,,,Space,keypress(Space),,,,,,,,---- -- ----- -- ------ - ------- --- ----------<br>------------- ------ ------ ---- ---- ------- ----- -- ----<br>-------- ------- -- ---------- --- - --- ----- ----- ----<br>---- --- --- ----- --- ---- ---- ------- ----- ---- -------<br>--- --- as ----- -- --- ---- -- --- ---- -- ------ ------<br>--- ----- -- ----,375946.22,375937.67500000005,375188.409,375194.05,375205.059,375954.711,,41,as
screen,html.Screen,2_1_0_1_42,2021-04-24T18:08:44.937Z,,,,,,,,,,,,,,,,,53,,,,,,,,,,,,,,777.204000000027,,response,,,,99,,,,,,,Space,keypress(Space),,,,,,,,---- -- ----- -- ------ - ------- --- ----------<br>------------- ------ ------ ---- ---- ------- ----- -- ----<br>-------- ------- -- ---------- --- - --- ----- ----- ----<br>---- --- --- ----- --- ---- ---- ------- ----- ---- -------<br>--- --- -- close -- --- ---- -- --- ---- -- ------ ------<br>--- ----- -- ----,376740.0900000001,376731.91500000004,375938.061,375947.325,375954.711,376754.307,,42,close
screen,html.Screen,2_1_0_1_43,2021-04-24T18:08:45.684Z,,,,,,,,,,,,,,,,,53,,,,,,,,,,,,,,726.3080000000191,,response,,,,99,,,,,,,Space,keypress(Space),,,,,,,,---- -- ----- -- ------ - ------- --- ----------<br>------------- ------ ------ ---- ---- ------- ----- -- ----<br>-------- ------- -- ---------- --- - --- ----- ----- ----<br>---- --- --- ----- --- ---- ---- ------- ----- ---- -------<br>--- --- -- ----- as --- ---- -- --- ---- -- ------ ------<br>--- ----- -- ----,377487.13000000006,377480.615,376737.657,376741.2150000001,376754.307,377503.965,,43,as
screen,html.Screen,2_1_0_1_44,2021-04-24T18:08:46.482Z,,,,,,,,,,,,,,,,,53,,,,,,,,,,,,,,770.1350000000093,,response,,,,99,,,,,,,Space,keypress(Space),,,,,,,,---- -- ----- -- ------ - ------- --- ----------<br>------------- ------ ------ ---- ---- ------- ----- -- ----<br>-------- ------- -- ---------- --- - --- ----- ----- ----<br>---- --- --- ----- --- ---- ---- ------- ----- ---- -------<br>--- --- -- ----- -- you ---- -- --- ---- -- ------ ------<br>--- ----- -- ----,378284.81500000006,378274.10000000003,377487.315,377487.80500000005,377503.965,378286.892,,44,you
screen,html.Screen,2_1_0_1_45,2021-04-24T18:08:47.224Z,,,,,,,,,,,,,,,,,53,,,,,,,,,,,,,,731.4330000000773,,response,,,,99,,,,,,,Space,keypress(Space),,,,,,,,---- -- ----- -- ------ - ------- --- ----------<br>------------- ------ ------ ---- ---- ------- ----- -- ----<br>-------- ------- -- ---------- --- - --- ----- ----- ----<br>---- --- --- ----- --- ---- ---- ------- ----- ---- -------<br>--- --- -- ----- -- --- want -- --- ---- -- ------ ------<br>--- ----- -- ----,379026.48000000004,379018.32500000007,378270.242,378285.14999999997,378286.892,379036.572,,45,want
screen,html.Screen,2_1_0_1_46,2021-04-24T18:08:47.965Z,,,,,,,,,,,,,,,,,53,,,,,,,,,,,,,,723.4529999999795,,response,,,,99,,,,,,,Space,keypress(Space),,,,,,,,---- -- ----- -- ------ - ------- --- ----------<br>------------- ------ ------ ---- ---- ------- ----- -- ----<br>-------- ------- -- ---------- --- - --- ----- ----- ----<br>---- --- --- ----- --- ---- ---- ------- ----- ---- -------<br>--- --- -- ----- -- --- ---- to --- ---- -- ------ ------<br>--- ----- -- ----,379767.545,379760.02499999997,379019.922,379027.61000000004,379036.572,379786.21,,46,to
screen,html.Screen,2_1_0_1_47,2021-04-24T18:08:48.728Z,,,,,,,,,,,,,,,,,53,,,,,,,,,,,,,,738.2649999999558,,response,,,,99,,,,,,,Space,keypress(Space),,,,,,,,"---- -- ----- -- ------ - ------- --- ----------<br>------------- ------ ------ ---- ---- ------- ----- -- ----<br>-------- ------- -- ---------- --- - --- ----- ----- ----<br>---- --- --- ----- --- ---- ---- ------- ----- ---- -------<br>--- --- -- ----- -- --- ---- -- be, ---- -- ------ ------<br>--- ----- -- ----",380531.11000000004,380524.475,379769.56,379768.06500000006,379786.21,380535.833,,47,"be,"
screen,html.Screen,2_1_0_1_48,2021-04-24T18:08:49.620Z,,,,,,,,,,,,,,,,,53,,,,,,,,,,,,,,879.4120000001276,,response,,,,99,,,,,,,Space,keypress(Space),,,,,,,,---- -- ----- -- ------ - ------- --- ----------<br>------------- ------ ------ ---- ---- ------- ----- -- ----<br>-------- ------- -- ---------- --- - --- ----- ----- ----<br>---- --- --- ----- --- ---- ---- ------- ----- ---- -------<br>--- --- -- ----- -- --- ---- -- --- even -- ------ ------<br>--- ----- -- ----,381422.66000000003,381415.2450000001,380519.183,380532.11500000005,380535.833,381435.343,,48,even
screen,html.Screen,2_1_0_1_49,2021-04-24T18:08:50.491Z,,,,,,,,,,,,,,,,,53,,,,,,,,,,,,,,850.7270000000717,,response,,,,99,,,,,,,Space,keypress(Space),,,,,,,,---- -- ----- -- ------ - ------- --- ----------<br>------------- ------ ------ ---- ---- ------- ----- -- ----<br>-------- ------- -- ---------- --- - --- ----- ----- ----<br>---- --- --- ----- --- ---- ---- ------- ----- ---- -------<br>--- --- -- ----- -- --- ---- -- --- ---- if ------ ------<br>--- ----- -- ----,382293.45000000007,382286.07000000007,381418.693,381423.05500000005,381435.343,382301.607,,49,if
screen,html.Screen,2_1_0_1_50,2021-04-24T18:08:51.389Z,,,,,,,,,,,,,,,,,53,,,,,,,,,,,,,,882.3530000000028,,response,,,,99,,,,,,,Space,keypress(Space),,,,,,,,---- -- ----- -- ------ - ------- --- ----------<br>------------- ------ ------ ---- ---- ------- ----- -- ----<br>-------- ------- -- ---------- --- - --- ----- ----- ----<br>---- --- --- ----- --- ---- ---- ------- ----- ---- -------<br>--- --- -- ----- -- --- ---- -- --- ---- -- that's ------<br>--- ----- -- ----,383191.95000000007,383183.96,382284.957,382293.76000000007,382301.607,383201.172,,50,that's
screen,html.Screen,2_1_0_1_51,2021-04-24T18:08:52.273Z,,,,,,,,,,,,,,,,,53,,,,,,,,,,,,,,865.1829999999609,,response,,,,99,,,,,,,Space,keypress(Space),,,,,,,,---- -- ----- -- ------ - ------- --- ----------<br>------------- ------ ------ ---- ---- ------- ----- -- ----<br>-------- ------- -- ---------- --- - --- ----- ----- ----<br>---- --- --- ----- --- ---- ---- ------- ----- ---- -------<br>--- --- -- ----- -- --- ---- -- --- ---- -- ------ really<br>--- ----- -- ----,384076.05500000005,384066.355,383184.522,383192.845,383201.172,384084.078,,51,really
screen,html.Screen,2_1_0_1_52,2021-04-24T18:08:53.111Z,,,,,,,,,,,,,,,,,53,,,,,,,,,,,,,,821.5670000000391,,response,,,,99,,,,,,,Space,keypress(Space),,,,,,,,---- -- ----- -- ------ - ------- --- ----------<br>------------- ------ ------ ---- ---- ------- ----- -- ----<br>-------- ------- -- ---------- --- - --- ----- ----- ----<br>---- --- --- ----- --- ---- ---- ------- ----- ---- -------<br>--- --- -- ----- -- --- ---- -- --- ---- -- ------ ------<br>not ----- -- ----,384913.515,384905.645,384067.428,384077.26000000007,384084.078,384917.045,,52,not
screen,html.Screen,2_1_0_1_53,2021-04-24T18:08:54.577Z,,,,,,,,,,,,,,,,,53,,,,,,,,,,,,,,1459.5400000000373,,response,,,,99,,,,,,,Space,keypress(Space),,,,,,,,---- -- ----- -- ------ - ------- --- ----------<br>------------- ------ ------ ---- ---- ------- ----- -- ----<br>-------- ------- -- ---------- --- - --- ----- ----- ----<br>---- --- --- ----- --- ---- ---- ------- ----- ---- -------<br>--- --- -- ----- -- --- ---- -- --- ---- -- ------ ------<br>--- close -- ----,386379.66,386376.585,384900.395,384914.18500000006,384917.045,386399.34,,53,close
screen,html.Screen,2_1_0_1_54,2021-04-24T18:08:55.383Z,,,,,,,,,,,,,,,,,53,,,,,,,,,,,,,,777.0050000000047,,response,,,,99,,,,,,,Space,keypress(Space),,,,,,,,---- -- ----- -- ------ - ------- --- ----------<br>------------- ------ ------ ---- ---- ------- ----- -- ----<br>-------- ------- -- ---------- --- - --- ----- ----- ----<br>---- --- --- ----- --- ---- ---- ------- ----- ---- -------<br>--- --- -- ----- -- --- ---- -- --- ---- -- ------ ------<br>--- ----- at ----,387185.575,387176.34500000003,386382.69,386382.0200000001,386399.34,387199.298,,54,at
screen,html.Screen,2_1_0_1_55,2021-04-24T18:08:59.040Z,,,,,,,,,,,,,,,,,53,,,,,,,,,,,,,,3636.092000000004,,response,,,,99,,,,,,,Space,keypress(Space),,,,,,,,---- -- ----- -- ------ - ------- --- ----------<br>------------- ------ ------ ---- ---- ------- ----- -- ----<br>-------- ------- -- ---------- --- - --- ----- ----- ----<br>---- --- --- ----- --- ---- ---- ------- ----- ---- -------<br>--- --- -- ----- -- --- ---- -- --- ---- -- ------ ------<br>--- ----- -- all.,390843.30000000005,390835.39,387182.648,387186.6800000001,387199.298,390862.718,,55,all.
Item 99,flow.Loop,2_1_0_1,2021-04-24T18:08:59.042Z,,,,,,,,,,,,,,,,,,,,,,,,,,,,,,,51946.44800000003,,completion,,,,,E,,,,,,,,,,,silence,,,,,390844.66000000003,390835.39,338822.342,338827.31000000006,338888.942,390862.718,,,
Question 1,html.Screen,2_1_0_2,2021-04-24T18:09:05.337Z,,,,,,,,,,,,,,,,,,,,,,,,,,,,false,FALSE,,6264.302000000083,,response,,,,99,E,,,,,,TRUE,click #choice-1,,,,silence,,,,,397140.0300000001,397127.0200000001,390846.068,390845.31,390862.718,397161.468,,,
Question 2,html.Screen,2_1_0_3,2021-04-24T18:09:14.503Z,,,,,,,,,,,,,,,,,,,,,,,,,,,,true,TRUE,,9129.637000000104,,response,,,,99,E,,,,,,TRUE,click #choice-1,,,,silence,,,,,406306.3650000001,406291.1050000001,397144.818,397140.69,397161.468,406307.169,,,
Item 99,flow.Sequence,2_1_0,2021-04-24T18:09:14.504Z,,,,,,,,,,,,,,,,,,,,,,,,,,,,,,,77448.06900000008,,completion,,,,,,,,,,,,,,,,,,,,,406307.015,406291.1050000001,328809.736,328826.04,328843.036,406307.169,,,
Holding screen,html.Screen,2_1_1_0,2021-04-24T18:09:24.485Z,,,,,,,,,,,,,,,,,,,,,,,,,,,,,,,9994.798999999999,,timeout,,,,,,,,,,,,,,,,,,,,,416287.65,416285.318,406290.519,406307.33,406307.169,416301.968,,,
screen,html.Screen,2_1_1_1_0,2021-04-24T18:09:25.715Z,,,,,,,,,,,,,,,,,54,,,,,,,,,,,,,,1208.0770000000484,,response,,,,100,,,,,,,Space,keypress(Space),,,,,,,,At --- ---- --- ------ ----- ------- ---- -- --- ------- --<br>------- ---------- ------ -- ----- -- ----- -- ---- ------<br>--- ----- --- --- ------ -------- ----- --- ------ ----- --<br>----- ----- ---------- --- --- ------ ------ ---- -- ------<br>------- --- ------ ----- --- ---- ------- -- ---- --- --<br>------- ------,417517.6000000001,417510.04500000004,416285.318,416288.33,416301.968,417534.576,,0,At
screen,html.Screen,2_1_1_1_1,2021-04-24T18:09:26.477Z,,,,,,,,,,,,,,,,,54,,,,,,,,,,,,,,737.1140000000014,,response,,,,100,,,,,,,Space,keypress(Space),,,,,,,,-- the ---- --- ------ ----- ------- ---- -- --- ------- --<br>------- ---------- ------ -- ----- -- ----- -- ---- ------<br>--- ----- --- --- ------ -------- ----- --- ------ ----- --<br>----- ----- ---------- --- --- ------ ------ ---- -- ------<br>------- --- ------ ----- --- ---- ------- -- ---- --- --<br>------- ------,418280.1650000001,418271.69,417517.926,417518.1800000001,417534.576,418284.471,,1,the
screen,html.Screen,2_1_1_1_2,2021-04-24T18:09:27.281Z,,,,,,,,,,,,,,,,,54,,,,,,,,,,,,,,792.9639999999781,,response,,,,100,,,,,,,Space,keypress(Space),,,,,,,,-- --- time --- ------ ----- ------- ---- -- --- ------- --<br>------- ---------- ------ -- ----- -- ----- -- ---- ------<br>--- ----- --- --- ------ -------- ----- --- ------ ----- --<br>----- ----- ---------- --- --- ------ ------ ---- -- ------<br>------- --- ------ ----- --- ---- ------- -- ---- --- --<br>------- ------,419084.37500000006,419077.435,418267.821,418281.27999999997,418284.471,419100.706,,2,time
screen,html.Screen,2_1_1_1_3,2021-04-24T18:09:27.986Z,,,,,,,,,,,,,,,,,54,,,,,,,,,,,,,,680.6589999999851,,response,,,,100,,,,,,,Space,keypress(Space),,,,,,,,-- --- ---- the ------ ----- ------- ---- -- --- ------- --<br>------- ---------- ------ -- ----- -- ----- -- ---- ------<br>--- ----- --- --- ------ -------- ----- --- ------ ----- --<br>----- ----- ---------- --- --- ------ ------ ---- -- ------<br>------- --- ------ ----- --- ---- ------- -- ---- --- --<br>------- ------,419789.05000000005,419781.365,419084.056,419085.0150000001,419100.706,419800.434,,3,the
screen,html.Screen,2_1_1_1_4,2021-04-24T18:09:28.677Z,,,,,,,,,,,,,,,,,54,,,,,,,,,,,,,,670.36599999998,,response,,,,100,,,,,,,Space,keypress(Space),,,,,,,,-- --- ---- --- French ----- ------- ---- -- --- ------- --<br>------- ---------- ------ -- ----- -- ----- -- ---- ------<br>--- ----- --- --- ------ -------- ----- --- ------ ----- --<br>----- ----- ---------- --- --- ------ ------ ---- -- ------<br>------- --- ------ ----- --- ---- ------- -- ---- --- --<br>------- ------,420479.63,420470.8,419783.784,419790.055,419800.434,420483.443,,4,French
screen,html.Screen,2_1_1_1_5,2021-04-24T18:09:29.394Z,,,,,,,,,,,,,,,,,54,,,,,,,,,,,,,,706.6620000000694,,response,,,,100,,,,,,,Space,keypress(Space),,,,,,,,-- --- ---- --- ------ crown ------- ---- -- --- ------- --<br>------- ---------- ------ -- ----- -- ----- -- ---- ------<br>--- ----- --- --- ------ -------- ----- --- ------ ----- --<br>----- ----- ---------- --- --- ------ ------ ---- -- ------<br>------- --- ------ ----- --- ---- ------- -- ---- --- --<br>------- ------,421196.5850000001,421190.1050000001,420466.793,420480.72500000003,420483.443,421199.752,,5,crown
screen,html.Screen,2_1_1_1_6,2021-04-24T18:09:30.178Z,,,,,,,,,,,,,,,,,54,,,,,,,,,,,,,,773.7730000000447,,response,,,,100,,,,,,,Space,keypress(Space),,,,,,,,-- --- ---- --- ------ ----- secured ---- -- --- ------- --<br>------- ---------- ------ -- ----- -- ----- -- ---- ------<br>--- ----- --- --- ------ -------- ----- --- ------ ----- --<br>----- ----- ---------- --- --- ------ ------ ---- -- ------<br>------- --- ------ ----- --- ---- ------- -- ---- --- --<br>------- ------,421981.155,421973.525,421183.102,421197.18000000005,421199.752,421999.332,,6,secured
screen,html.Screen,2_1_1_1_7,2021-04-24T18:09:31.095Z,,,,,,,,,,,,,,,,,54,,,,,,,,,,,,,,891.8430000000517,,response,,,,100,,,,,,,Space,keypress(Space),,,,,,,,-- --- ---- --- ------ ----- ------- much -- --- ------- --<br>------- ---------- ------ -- ----- -- ----- -- ---- ------<br>--- ----- --- --- ------ -------- ----- --- ------ ----- --<br>----- ----- ---------- --- --- ------ ------ ---- -- ------<br>------- --- ------ ----- --- ---- ------- -- ---- --- --<br>------- ------,422897.67,422891.17500000005,421982.682,421982.27,421999.332,422915.487,,7,much
screen,html.Screen,2_1_1_1_8,2021-04-24T18:09:32.011Z,,,,,,,,,,,,,,,,,54,,,,,,,,,,,,,,891.4280000000144,,response,,,,100,,,,,,,Space,keypress(Space),,,,,,,,-- --- ---- --- ------ ----- ------- ---- of --- ------- --<br>------- ---------- ------ -- ----- -- ----- -- ---- ------<br>--- ----- --- --- ------ -------- ----- --- ------ ----- --<br>----- ----- ---------- --- --- ------ ------ ---- -- ------<br>------- --- ------ ----- --- ---- ------- -- ---- --- --<br>------- ------,423813.72500000003,423806.91500000004,422898.837,422898.2300000001,422915.487,423831.719,,8,of
screen,html.Screen,2_1_1_1_9,2021-04-24T18:09:32.807Z,,,,,,,,,,,,,,,,,54,,,,,,,,,,,,,,769.6960000000545,,response,,,,100,,,,,,,Space,keypress(Space),,,,,,,,-- --- ---- --- ------ ----- ------- ---- -- its ------- --<br>------- ---------- ------ -- ----- -- ----- -- ---- ------<br>--- ----- --- --- ------ -------- ----- --- ------ ----- --<br>----- ----- ---------- --- --- ------ ------ ---- -- ------<br>------- --- ------ ----- --- ---- ------- -- ---- --- --<br>------- ------,424609.63,424601.41500000004,423815.069,423814.765,423831.719,424614.755,,9,its
screen,html.Screen,2_1_1_1_10,2021-04-24T18:09:33.768Z,,,,,,,,,,,,,,,,,54,,,,,,,,,,,,,,948.3700000000536,,response,,,,100,,,,,,,Space,keypress(Space),,,,,,,,-- --- ---- --- ------ ----- ------- ---- -- --- revenue --<br>------- ---------- ------ -- ----- -- ----- -- ---- ------<br>--- ----- --- --- ------ -------- ----- --- ------ ----- --<br>----- ----- ---------- --- --- ------ ------ ---- -- ------<br>------- --- ------ ----- --- ---- ------- -- ---- --- --<br>------- ------,425570.54,425563.12500000006,424598.105,424609.97000000003,424614.755,425580.874,,10,revenue
screen,html.Screen,2_1_1_1_11,2021-04-24T18:09:34.460Z,,,,,,,,,,,,,,,,,54,,,,,,,,,,,,,,666.3960000000079,,response,,,,100,,,,,,,Space,keypress(Space),,,,,,,,-- --- ---- --- ------ ----- ------- ---- -- --- ------- by<br>------- ---------- ------ -- ----- -- ----- -- ---- ------<br>--- ----- --- --- ------ -------- ----- --- ------ ----- --<br>----- ----- ---------- --- --- ------ ------ ---- -- ------<br>------- --- ------ ----- --- ---- ------- -- ---- --- --<br>------- ------,426263.29000000004,426247.27,425564.224,425571.535,425580.874,426280.679,,11,by
screen,html.Screen,2_1_1_1_12,2021-04-24T18:09:35.281Z,,,,,,,,,,,,,,,,,54,,,,,,,,,,,,,,797.5360000000801,,response,,,,100,,,,,,,Space,keypress(Space),,,,,,,,-- --- ---- --- ------ ----- ------- ---- -- --- ------- --<br>issuing ---------- ------ -- ----- -- ----- -- ---- ------<br>--- ----- --- --- ------ -------- ----- --- ------ ----- --<br>----- ----- ---------- --- --- ------ ------ ---- -- ------<br>------- --- ------ ----- --- ---- ------- -- ---- --- --<br>------- ------,427084.25000000006,427078.2150000001,426264.029,426264.25999999995,426280.679,427096.876,,12,issuing
screen,html.Screen,2_1_1_1_13,2021-04-24T18:09:36.178Z,,,,,,,,,,,,,,,,,54,,,,,,,,,,,,,,875.1940000000759,,response,,,,100,,,,,,,Space,keypress(Space),,,,,,,,-- --- ---- --- ------ ----- ------- ---- -- --- ------- --<br>------- government ------ -- ----- -- ----- -- ---- ------<br>--- ----- --- --- ------ -------- ----- --- ------ ----- --<br>----- ----- ---------- --- --- ------ ------ ---- -- ------<br>------- --- ------ ----- --- ---- ------- -- ---- --- --<br>------- ------,427980.60500000004,427972.07000000007,427080.226,427084.66000000003,427096.876,427996.423,,13,government
screen,html.Screen,2_1_1_1_14,2021-04-24T18:09:37.072Z,,,,,,,,,,,,,,,,,54,,,,,,,,,,,,,,870.2619999999879,,response,,,,100,,,,,,,Space,keypress(Space),,,,,,,,-- --- ---- --- ------ ----- ------- ---- -- --- ------- --<br>------- ---------- bonds. -- ----- -- ----- -- ---- ------<br>--- ----- --- --- ------ -------- ----- --- ------ ----- --<br>----- ----- ---------- --- --- ------ ------ ---- -- ------<br>------- --- ------ ----- --- ---- ------- -- ---- --- --<br>------- ------,428874.82000000007,428866.685,427979.773,427981.015,427996.423,428879.333,,14,bonds.
screen,html.Screen,2_1_1_1_15,2021-04-24T18:09:37.686Z,,,,,,,,,,,,,,,,,54,,,,,,,,,,,,,,602.737000000081,,response,,,,100,,,,,,,Space,keypress(Space),,,,,,,,-- --- ---- --- ------ ----- ------- ---- -- --- ------- --<br>------- ---------- ------ In ----- -- ----- -- ---- ------<br>--- ----- --- --- ------ -------- ----- --- ------ ----- --<br>----- ----- ---------- --- --- ------ ------ ---- -- ------<br>------- --- ------ ----- --- ---- ------- -- ---- --- --<br>------- ------,429489.2250000001,429482.07000000007,428862.683,428875.92,428879.333,429495.843,,15,In
screen,html.Screen,2_1_1_1_16,2021-04-24T18:09:39.987Z,,,,,,,,,,,,,,,,,54,,,,,,,,,,,,,,2283.512000000046,,response,,,,100,,,,,,,Space,keypress(Space),,,,,,,,"-- --- ---- --- ------ ----- ------- ---- -- --- ------- --<br>------- ---------- ------ -- 1727, -- ----- -- ---- ------<br>--- ----- --- --- ------ -------- ----- --- ------ ----- --<br>----- ----- ---------- --- --- ------ ------ ---- -- ------<br>------- --- ------ ----- --- ---- ------- -- ---- --- --<br>------- ------",431789.47,431779.35500000004,429479.193,429490.1750000001,429495.843,431793.868,,16,"1727,"
screen,html.Screen,2_1_1_1_17,2021-04-24T18:09:40.679Z,,,,,,,,,,,,,,,,,54,,,,,,,,,,,,,,680.3470000000088,,response,,,,100,,,,,,,Space,keypress(Space),,,,,,,,-- --- ---- --- ------ ----- ------- ---- -- --- ------- --<br>------- ---------- ------ -- ----- in ----- -- ---- ------<br>--- ----- --- --- ------ -------- ----- --- ------ ----- --<br>----- ----- ---------- --- --- ------ ------ ---- -- ------<br>------- --- ------ ----- --- ---- ------- -- ---- --- --<br>------- ------,432482.26000000007,432474.215,431777.218,431789.76000000007,431793.868,432494.372,,17,in
screen,html.Screen,2_1_1_1_18,2021-04-24T18:09:41.446Z,,,,,,,,,,,,,,,,,54,,,,,,,,,,,,,,745.51800000004,,response,,,,100,,,,,,,Space,keypress(Space),,,,,,,,-- --- ---- --- ------ ----- ------- ---- -- --- ------- --<br>------- ---------- ------ -- ----- -- order -- ---- ------<br>--- ----- --- --- ------ -------- ----- --- ------ ----- --<br>----- ----- ---------- --- --- ------ ------ ---- -- ------<br>------- --- ------ ----- --- ---- ------- -- ---- --- --<br>------- ------,433248.79000000004,433239.89,432477.722,432483.3400000001,432494.372,433260.638,,18,order
screen,html.Screen,2_1_1_1_19,2021-04-24T18:09:42.126Z,,,,,,,,,,,,,,,,,54,,,,,,,,,,,,,,660.292000000074,,response,,,,100,,,,,,,Space,keypress(Space),,,,,,,,-- --- ---- --- ------ ----- ------- ---- -- --- ------- --<br>------- ---------- ------ -- ----- -- ----- to ---- ------<br>--- ----- --- --- ------ -------- ----- --- ------ ----- --<br>----- ----- ---------- --- --- ------ ------ ---- -- ------<br>------- --- ------ ----- --- ---- ------- -- ---- --- --<br>------- ------,433928.76000000007,433920.93000000005,433243.988,433249.04,433260.638,433943.692,,19,to
screen,html.Screen,2_1_1_1_20,2021-04-24T18:09:42.974Z,,,,,,,,,,,,,,,,,54,,,,,,,,,,,,,,825.4330000001355,,response,,,,100,,,,,,,Space,keypress(Space),,,,,,,,-- --- ---- --- ------ ----- ------- ---- -- --- ------- --<br>------- ---------- ------ -- ----- -- ----- -- save ------<br>--- ----- --- --- ------ -------- ----- --- ------ ----- --<br>----- ----- ---------- --- --- ------ ------ ---- -- ------<br>------- --- ------ ----- --- ---- ------- -- ---- --- --<br>------- ------,434776.63,434769.1250000001,433927.042,433929.8900000001,433943.692,434793.193,,20,save
screen,html.Screen,2_1_1_1_21,2021-04-24T18:09:44.108Z,,,,,,,,,,,,,,,,,54,,,,,,,,,,,,,,1109.5370000000694,,response,,,,100,,,,,,,Space,keypress(Space),,,,,,,,"-- --- ---- --- ------ ----- ------- ---- -- --- ------- --<br>------- ---------- ------ -- ----- -- ----- -- ---- money,<br>--- ----- --- --- ------ -------- ----- --- ------ ----- --<br>----- ----- ---------- --- --- ------ ------ ---- -- ------<br>------- --- ------ ----- --- ---- ------- -- ---- --- --<br>------- ------",435910.7050000001,435902.7300000001,434776.543,434777,434793.193,435925.819,,21,"money,"
screen,html.Screen,2_1_1_1_22,2021-04-24T18:09:44.766Z,,,,,,,,,,,,,,,,,54,,,,,,,,,,,,,,635.9309999999823,,response,,,,100,,,,,,,Space,keypress(Space),,,,,,,,-- --- ---- --- ------ ----- ------- ---- -- --- ------- --<br>------- ---------- ------ -- ----- -- ----- -- ---- ------<br>the ----- --- --- ------ -------- ----- --- ------ ----- --<br>----- ----- ---------- --- --- ------ ------ ---- -- ------<br>------- --- ------ ----- --- ---- ------- -- ---- --- --<br>------- ------,436568.9750000001,436561.75,435909.169,435911.8350000001,435925.819,436575.779,,22,the
screen,html.Screen,2_1_1_1_23,2021-04-24T18:09:45.546Z,,,,,,,,,,,,,,,,,54,,,,,,,,,,,,,,767.6260000000475,,response,,,,100,,,,,,,Space,keypress(Space),,,,,,,,-- --- ---- --- ------ ----- ------- ---- -- --- ------- --<br>------- ---------- ------ -- ----- -- ----- -- ---- ------<br>--- state --- --- ------ -------- ----- --- ------ ----- --<br>----- ----- ---------- --- --- ------ ------ ---- -- ------<br>------- --- ------ ----- --- ---- ------- -- ---- --- --<br>------- ------,437349.1000000001,437343.405,436559.129,436569.35500000004,436575.779,437358.658,,23,state
screen,html.Screen,2_1_1_1_24,2021-04-24T18:09:46.814Z,,,,,,,,,,,,,,,,,54,,,,,,,,,,,,,,1248.6770000000834,,response,,,,100,,,,,,,Space,keypress(Space),,,,,,,,-- --- ---- --- ------ ----- ------- ---- -- --- ------- --<br>------- ---------- ------ -- ----- -- ----- -- ---- ------<br>--- ----- cut --- ------ -------- ----- --- ------ ----- --<br>----- ----- ---------- --- --- ------ ------ ---- -- ------<br>------- --- ------ ----- --- ---- ------- -- ---- --- --<br>------- ------,438616.6,438607.3350000001,437342.008,437349.69000000006,437358.658,438624.479,,24,cut
screen,html.Screen,2_1_1_1_25,2021-04-24T18:09:48.182Z,,,,,,,,,,,,,,,,,54,,,,,,,,,,,,,,1353.8060000000987,,response,,,,100,,,,,,,Space,keypress(Space),,,,,,,,-- --- ---- --- ------ ----- ------- ---- -- --- ------- --<br>------- ---------- ------ -- ----- -- ----- -- ---- ------<br>--- ----- --- the ------ -------- ----- --- ------ ----- --<br>----- ----- ---------- --- --- ------ ------ ---- -- ------<br>------- --- ------ ----- --- ---- ------- -- ---- --- --<br>------- ------,439985.13500000007,439978.2850000001,438607.829,438616.9,438624.479,439990.438,,25,the
screen,html.Screen,2_1_1_1_26,2021-04-24T18:09:49.618Z,,,,,,,,,,,,,,,,,54,,,,,,,,,,,,,,1423.7569999999832,,response,,,,100,,,,,,,Space,keypress(Space),,,,,,,,-- --- ---- --- ------ ----- ------- ---- -- --- ------- --<br>------- ---------- ------ -- ----- -- ----- -- ---- ------<br>--- ----- --- --- bonds' -------- ----- --- ------ ----- --<br>----- ----- ---------- --- --- ------ ------ ---- -- ------<br>------- --- ------ ----- --- ---- ------- -- ---- --- --<br>------- ------,441420.6500000001,441414.195,439973.788,439985.8050000001,439990.438,441423.054,,26,bonds'
screen,html.Screen,2_1_1_1_27,2021-04-24T18:09:50.628Z,,,,,,,,,,,,,,,,,54,,,,,,,,,,,,,,1000.3060000000405,,response,,,,100,,,,,,,Space,keypress(Space),,,,,,,,-- --- ---- --- ------ ----- ------- ---- -- --- ------- --<br>------- ---------- ------ -- ----- -- ----- -- ---- ------<br>--- ----- --- --- ------ interest ----- --- ------ ----- --<br>----- ----- ---------- --- --- ------ ------ ---- -- ------<br>------- --- ------ ----- --- ---- ------- -- ---- --- --<br>------- ------,442430.51000000007,442423.36000000004,441406.404,441420.955,441423.054,442439.442,,27,interest
screen,html.Screen,2_1_1_1_28,2021-04-24T18:09:51.988Z,,,,,,,,,,,,,,,,,54,,,,,,,,,,,,,,1342.798000000068,,response,,,,100,,,,,,,Space,keypress(Space),,,,,,,,-- --- ---- --- ------ ----- ------- ---- -- --- ------- --<br>------- ---------- ------ -- ----- -- ----- -- ---- ------<br>--- ----- --- --- ------ -------- rate. --- ------ ----- --<br>----- ----- ---------- --- --- ------ ------ ---- -- ------<br>------- --- ------ ----- --- ---- ------- -- ---- --- --<br>------- ------,443791.11000000004,443782.24000000005,442422.792,442431.66500000004,442439.442,443805.269,,28,rate.
screen,html.Screen,2_1_1_1_29,2021-04-24T18:09:52.765Z,,,,,,,,,,,,,,,,,54,,,,,,,,,,,,,,756.8960000000079,,response,,,,100,,,,,,,Space,keypress(Space),,,,,,,,-- --- ---- --- ------ ----- ------- ---- -- --- ------- --<br>------- ---------- ------ -- ----- -- ----- -- ---- ------<br>--- ----- --- --- ------ -------- ----- The ------ ----- --<br>----- ----- ---------- --- --- ------ ------ ---- -- ------<br>------- --- ------ ----- --- ---- ------- -- ---- --- --<br>------- ------,444568.3450000001,444562.165,443788.619,443792.21,443805.269,444571.886,,29,The
screen,html.Screen,2_1_1_1_30,2021-04-24T18:09:53.601Z,,,,,,,,,,,,,,,,,54,,,,,,,,,,,,,,821.7289999999921,,response,,,,100,,,,,,,Space,keypress(Space),,,,,,,,-- --- ---- --- ------ ----- ------- ---- -- --- ------- --<br>------- ---------- ------ -- ----- -- ----- -- ---- ------<br>--- ----- --- --- ------ -------- ----- --- market ----- --<br>----- ----- ---------- --- --- ------ ------ ---- -- ------<br>------- --- ------ ----- --- ---- ------- -- ---- --- --<br>------- ------,445403.73000000004,445393.615,444555.236,444568.78,444571.886,445421.453,,30,market
screen,html.Screen,2_1_1_1_31,2021-04-24T18:09:54.481Z,,,,,,,,,,,,,,,,,54,,,,,,,,,,,,,,854.792000000074,,response,,,,100,,,,,,,Space,keypress(Space),,,,,,,,-- --- ---- --- ------ ----- ------- ---- -- --- ------- --<br>------- ---------- ------ -- ----- -- ----- -- ---- ------<br>--- ----- --- --- ------ -------- ----- --- ------ value --<br>----- ----- ---------- --- --- ------ ------ ---- -- ------<br>------- --- ------ ----- --- ---- ------- -- ---- --- --<br>------- ------,446283.81500000006,446276.24500000005,445404.803,445404.775,445421.453,446287.67,,31,value
screen,html.Screen,2_1_1_1_32,2021-04-24T18:09:55.589Z,,,,,,,,,,,,,,,,,54,,,,,,,,,,,,,,1096,,response,,,,100,,,,,,,Space,keypress(Space),,,,,,,,-- --- ---- --- ------ ----- ------- ---- -- --- ------- --<br>------- ---------- ------ -- ----- -- ----- -- ---- ------<br>--- ----- --- --- ------ -------- ----- --- ------ ----- of<br>----- ----- ---------- --- --- ------ ------ ---- -- ------<br>------- --- ------ ----- --- ---- ------- -- ---- --- --<br>------- ------,447392.17000000004,447383.67,446271.02,446284.88500000007,446287.67,447403.694,,32,of
screen,html.Screen,2_1_1_1_33,2021-04-24T18:09:56.510Z,,,,,,,,,,,,,,,,,54,,,,,,,,,,,,,,900.2609999999986,,response,,,,100,,,,,,,Space,keypress(Space),,,,,,,,-- --- ---- --- ------ ----- ------- ---- -- --- ------- --<br>------- ---------- ------ -- ----- -- ----- -- ---- ------<br>--- ----- --- --- ------ -------- ----- --- ------ ----- --<br>these ----- ---------- --- --- ------ ------ ---- -- ------<br>------- --- ------ ----- --- ---- ------- -- ---- --- --<br>------- ------,448313.27,448303.955,447387.044,447393.25,447403.694,448320.031,,33,these
screen,html.Screen,2_1_1_1_34,2021-04-24T18:09:57.553Z,,,,,,,,,,,,,,,,,54,,,,,,,,,,,,,,1027.9390000000712,,response,,,,100,,,,,,,Space,keypress(Space),,,,,,,,-- --- ---- --- ------ ----- ------- ---- -- --- ------- --<br>------- ---------- ------ -- ----- -- ----- -- ---- ------<br>--- ----- --- --- ------ -------- ----- --- ------ ----- --<br>----- bonds ---------- --- --- ------ ------ ---- -- ------<br>------- --- ------ ----- --- ---- ------- -- ---- --- --<br>------- ------,449356.15,449347.9700000001,448303.381,448314.315,448320.031,449369.443,,34,bonds
screen,html.Screen,2_1_1_1_35,2021-04-24T18:09:58.884Z,,,,,,,,,,,,,,,,,54,,,,,,,,,,,,,,1309.7069999999367,,response,,,,100,,,,,,,Space,keypress(Space),,,,,,,,"-- --- ---- --- ------ ----- ------- ---- -- --- ------- --<br>------- ---------- ------ -- ----- -- ----- -- ---- ------<br>--- ----- --- --- ------ -------- ----- --- ------ ----- --<br>----- ----- plummeted, --- --- ------ ------ ---- -- ------<br>------- --- ------ ----- --- ---- ------- -- ---- --- --<br>------- ------",450686.855,450679.14999999997,449352.793,449358.13,449369.443,450702.006,,35,"plummeted,"
screen,html.Screen,2_1_1_1_36,2021-04-24T18:09:59.710Z,,,,,,,,,,,,,,,,,54,,,,,,,,,,,,,,802.5340000001015,,response,,,,100,,,,,,,Space,keypress(Space),,,,,,,,-- --- ---- --- ------ ----- ------- ---- -- --- ------- --<br>------- ---------- ------ -- ----- -- ----- -- ---- ------<br>--- ----- --- --- ------ -------- ----- --- ------ ----- --<br>----- ----- ---------- and --- ------ ------ ---- -- ------<br>------- --- ------ ----- --- ---- ------- -- ---- --- --<br>------- ------,451512.45,451504.5400000001,450685.356,450687.665,450702.006,451518.538,,36,and
screen,html.Screen,2_1_1_1_37,2021-04-24T18:10:00.713Z,,,,,,,,,,,,,,,,,54,,,,,,,,,,,,,,989.9569999999949,,response,,,,100,,,,,,,Space,keypress(Space),,,,,,,,-- --- ---- --- ------ ----- ------- ---- -- --- ------- --<br>------- ---------- ------ -- ----- -- ----- -- ---- ------<br>--- ----- --- --- ------ -------- ----- --- ------ ----- --<br>----- ----- ---------- --- the ------ ------ ---- -- ------<br>------- --- ------ ----- --- ---- ------- -- ---- --- --<br>------- ------,452516.06500000006,452508.495,451501.888,451512.9,451518.538,452534.613,,37,the
screen,html.Screen,2_1_1_1_38,2021-04-24T18:10:01.977Z,,,,,,,,,,,,,,,,,54,,,,,,,,,,,,,,1237.3020000000834,,response,,,,100,,,,,,,Space,keypress(Space),,,,,,,,-- --- ---- --- ------ ----- ------- ---- -- --- ------- --<br>------- ---------- ------ -- ----- -- ----- -- ---- ------<br>--- ----- --- --- ------ -------- ----- --- ------ ----- --<br>----- ----- ---------- --- --- market ------ ---- -- ------<br>------- --- ------ ----- --- ---- ------- -- ---- --- --<br>------- ------,453779.52,453771.9150000001,452517.963,452516.99000000005,452534.613,453783.886,,38,market
screen,html.Screen,2_1_1_1_39,2021-04-24T18:10:02.906Z,,,,,,,,,,,,,,,,,54,,,,,,,,,,,,,,913.3390000000363,,response,,,,100,,,,,,,Space,keypress(Space),,,,,,,,-- --- ---- --- ------ ----- ------- ---- -- --- ------- --<br>------- ---------- ------ -- ----- -- ----- -- ---- ------<br>--- ----- --- --- ------ -------- ----- --- ------ ----- --<br>----- ----- ---------- --- --- ------ became ---- -- ------<br>------- --- ------ ----- --- ---- ------- -- ---- --- --<br>------- ------,454708.685,454697.22500000003,453767.236,453780.59500000003,453783.886,454716.958,,39,became
screen,html.Screen,2_1_1_1_40,2021-04-24T18:10:03.963Z,,,,,,,,,,,,,,,,,54,,,,,,,,,,,,,,1040.6970000000438,,response,,,,100,,,,,,,Space,keypress(Space),,,,,,,,-- --- ---- --- ------ ----- ------- ---- -- --- ------- --<br>------- ---------- ------ -- ----- -- ----- -- ---- ------<br>--- ----- --- --- ------ -------- ----- --- ------ ----- --<br>----- ----- ---------- --- --- ------ ------ wary -- ------<br>------- --- ------ ----- --- ---- ------- -- ---- --- --<br>------- ------,455766.32,455757.655,454700.308,454709.0550000001,454716.958,455783.051,,40,wary
screen,html.Screen,2_1_1_1_41,2021-04-24T18:10:04.570Z,,,,,,,,,,,,,,,,,54,,,,,,,,,,,,,,584.1390000000247,,response,,,,100,,,,,,,Space,keypress(Space),,,,,,,,-- --- ---- --- ------ ----- ------- ---- -- --- ------- --<br>------- ---------- ------ -- ----- -- ----- -- ---- ------<br>--- ----- --- --- ------ -------- ----- --- ------ ----- --<br>----- ----- ---------- --- --- ------ ------ ---- of ------<br>------- --- ------ ----- --- ---- ------- -- ---- --- --<br>------- ------,456372.6500000001,456367.19,455766.401,455767.495,455783.051,456382.981,,41,of
screen,html.Screen,2_1_1_1_42,2021-04-24T18:10:05.479Z,,,,,,,,,,,,,,,,,54,,,,,,,,,,,,,,891.2189999999828,,response,,,,100,,,,,,,Space,keypress(Space),,,,,,,,-- --- ---- --- ------ ----- ------- ---- -- --- ------- --<br>------- ---------- ------ -- ----- -- ----- -- ---- ------<br>--- ----- --- --- ------ -------- ----- --- ------ ----- --<br>----- ----- ---------- --- --- ------ ------ ---- -- French<br>------- --- ------ ----- --- ---- ------- -- ---- --- --<br>------- ------,457281.98000000004,457274.2,456366.331,456373.27,456382.981,457299.064,,42,French
screen,html.Screen,2_1_1_1_43,2021-04-24T18:10:08.772Z,,,,,,,,,,,,,,,,,54,,,,,,,,,,,,,,3267.706000000064,,response,,,,100,,,,,,,Space,keypress(Space),,,,,,,,-- --- ---- --- ------ ----- ------- ---- -- --- ------- --<br>------- ---------- ------ -- ----- -- ----- -- ---- ------<br>--- ----- --- --- ------ -------- ----- --- ------ ----- --<br>----- ----- ---------- --- --- ------ ------ ---- -- ------<br>credit. --- ------ ----- --- ---- ------- -- ---- --- --<br>------- ------,460575.38000000006,460566.7700000001,457282.414,457282.26,457299.064,460579.581,,43,credit.
screen,html.Screen,2_1_1_1_44,2021-04-24T18:10:09.340Z,,,,,,,,,,,,,,,,,54,,,,,,,,,,,,,,552.579000000027,,response,,,,100,,,,,,,Space,keypress(Space),,,,,,,,-- --- ---- --- ------ ----- ------- ---- -- --- ------- --<br>------- ---------- ------ -- ----- -- ----- -- ---- ------<br>--- ----- --- --- ------ -------- ----- --- ------ ----- --<br>----- ----- ---------- --- --- ------ ------ ---- -- ------<br>------- The ------ ----- --- ---- ------- -- ---- --- --<br>------- ------,461143.06000000006,461132.16000000003,460562.931,460576.4600000001,460579.581,461147.409,,44,The
screen,html.Screen,2_1_1_1_45,2021-04-24T18:10:10.159Z,,,,,,,,,,,,,,,,,54,,,,,,,,,,,,,,805.1010000000242,,response,,,,100,,,,,,,Space,keypress(Space),,,,,,,,-- --- ---- --- ------ ----- ------- ---- -- --- ------- --<br>------- ---------- ------ -- ----- -- ----- -- ---- ------<br>--- ----- --- --- ------ -------- ----- --- ------ ----- --<br>----- ----- ---------- --- --- ------ ------ ---- -- ------<br>------- --- French ----- --- ---- ------- -- ---- --- --<br>------- ------,461961.73500000004,461952.51,461130.759,461143.305,461147.409,461980.197,,45,French
screen,html.Screen,2_1_1_1_46,2021-04-24T18:10:11.006Z,,,,,,,,,,,,,,,,,54,,,,,,,,,,,,,,823.5180000000983,,response,,,,100,,,,,,,Space,keypress(Space),,,,,,,,-- --- ---- --- ------ ----- ------- ---- -- --- ------- --<br>------- ---------- ------ -- ----- -- ----- -- ---- ------<br>--- ----- --- --- ------ -------- ----- --- ------ ----- --<br>----- ----- ---------- --- --- ------ ------ ---- -- ------<br>------- --- ------ state --- ---- ------- -- ---- --- --<br>------- ------,462808.81500000006,462803.7150000001,461963.547,461962.86000000004,461980.197,462813.126,,46,state
screen,html.Screen,2_1_1_1_47,2021-04-24T18:10:11.803Z,,,,,,,,,,,,,,,,,54,,,,,,,,,,,,,,785.2590000000782,,response,,,,100,,,,,,,Space,keypress(Space),,,,,,,,-- --- ---- --- ------ ----- ------- ---- -- --- ------- --<br>------- ---------- ------ -- ----- -- ----- -- ---- ------<br>--- ----- --- --- ------ -------- ----- --- ------ ----- --<br>----- ----- ---------- --- --- ------ ------ ---- -- ------<br>------- --- ------ ----- was ---- ------- -- ---- --- --<br>------- ------,463605.615,463598.38500000007,462796.476,462809.48500000004,462813.126,463612.775,,47,was
screen,html.Screen,2_1_1_1_48,2021-04-24T18:10:12.807Z,,,,,,,,,,,,,,,,,54,,,,,,,,,,,,,,988.789999999979,,response,,,,100,,,,,,,Space,keypress(Space),,,,,,,,-- --- ---- --- ------ ----- ------- ---- -- --- ------- --<br>------- ---------- ------ -- ----- -- ----- -- ---- ------<br>--- ----- --- --- ------ -------- ----- --- ------ ----- --<br>----- ----- ---------- --- --- ------ ------ ---- -- ------<br>------- --- ------ ----- --- left ------- -- ---- --- --<br>------- ------,464609.98,464601.565,463596.125,463606.2700000001,463612.775,464628.847,,48,left
screen,html.Screen,2_1_1_1_49,2021-04-24T18:10:13.848Z,,,,,,,,,,,,,,,,,54,,,,,,,,,,,,,,1012.9329999999609,,response,,,,100,,,,,,,Space,keypress(Space),,,,,,,,-- --- ---- --- ------ ----- ------- ---- -- --- ------- --<br>------- ---------- ------ -- ----- -- ----- -- ---- ------<br>--- ----- --- --- ------ -------- ----- --- ------ ----- --<br>----- ----- ---------- --- --- ------ ------ ---- -- ------<br>------- --- ------ ----- --- ---- without -- ---- --- --<br>------- ------,465651.095,465641.77999999997,464612.197,464611.0350000001,464628.847,465661.665,,49,without
screen,html.Screen,2_1_1_1_50,2021-04-24T18:10:14.515Z,,,,,,,,,,,,,,,,,54,,,,,,,,,,,,,,650.4750000000931,,response,,,,100,,,,,,,Space,keypress(Space),,,,,,,,-- --- ---- --- ------ ----- ------- ---- -- --- ------- --<br>------- ---------- ------ -- ----- -- ----- -- ---- ------<br>--- ----- --- --- ------ -------- ----- --- ------ ----- --<br>----- ----- ---------- --- --- ------ ------ ---- -- ------<br>------- --- ------ ----- --- ---- ------- an ---- --- --<br>------- ------,466317.655,466312.1400000001,465645.015,465652.29500000004,465661.665,466328.204,,50,an
screen,html.Screen,2_1_1_1_51,2021-04-24T18:10:15.439Z,,,,,,,,,,,,,,,,,54,,,,,,,,,,,,,,907.0610000000452,,response,,,,100,,,,,,,Space,keypress(Space),,,,,,,,-- --- ---- --- ------ ----- ------- ---- -- --- ------- --<br>------- ---------- ------ -- ----- -- ----- -- ---- ------<br>--- ----- --- --- ------ -------- ----- --- ------ ----- --<br>----- ----- ---------- --- --- ------ ------ ---- -- ------<br>------- --- ------ ----- --- ---- ------- -- easy --- --<br>------- ------,467242.3900000001,467235.2650000001,466311.554,466317.94500000007,466328.204,467260.955,,51,easy
screen,html.Screen,2_1_1_1_52,2021-04-24T18:10:16.293Z,,,,,,,,,,,,,,,,,54,,,,,,,,,,,,,,825.9650000000256,,response,,,,100,,,,,,,Space,keypress(Space),,,,,,,,-- --- ---- --- ------ ----- ------- ---- -- --- ------- --<br>------- ---------- ------ -- ----- -- ----- -- ---- ------<br>--- ----- --- --- ------ -------- ----- --- ------ ----- --<br>----- ----- ---------- --- --- ------ ------ ---- -- ------<br>------- --- ------ ----- --- ---- ------- -- ---- way --<br>------- ------,468095.52999999997,468086.92000000004,467244.305,467243.51000000007,467260.955,468110.589,,52,way
screen,html.Screen,2_1_1_1_53,2021-04-24T18:10:16.910Z,,,,,,,,,,,,,,,,,54,,,,,,,,,,,,,,594.9160000000848,,response,,,,100,,,,,,,Space,keypress(Space),,,,,,,,-- --- ---- --- ------ ----- ------- ---- -- --- ------- --<br>------- ---------- ------ -- ----- -- ----- -- ---- ------<br>--- ----- --- --- ------ -------- ----- --- ------ ----- --<br>----- ----- ---------- --- --- ------ ------ ---- -- ------<br>------- --- ------ ----- --- ---- ------- -- ---- --- of<br>------- ------,468713.105,468705.50500000006,468093.939,468096.59,468110.589,468727.089,,53,of
screen,html.Screen,2_1_1_1_54,2021-04-24T18:10:17.554Z,,,,,,,,,,,,,,,,,54,,,,,,,,,,,,,,621.1010000000242,,response,,,,100,,,,,,,Space,keypress(Space),,,,,,,,-- --- ---- --- ------ ----- ------- ---- -- --- ------- --<br>------- ---------- ------ -- ----- -- ----- -- ---- ------<br>--- ----- --- --- ------ -------- ----- --- ------ ----- --<br>----- ----- ---------- --- --- ------ ------ ---- -- ------<br>------- --- ------ ----- --- ---- ------- -- ---- --- --<br>raising ------,469356.67500000005,469348.19,468710.439,468714.13,468727.089,469376.743,,54,raising
screen,html.Screen,2_1_1_1_55,2021-04-24T18:10:18.475Z,,,,,,,,,,,,,,,,,54,,,,,,,,,,,,,,893.4419999999809,,response,,,,100,,,,,,,Space,keypress(Space),,,,,,,,-- --- ---- --- ------ ----- ------- ---- -- --- ------- --<br>------- ---------- ------ -- ----- -- ----- -- ---- ------<br>--- ----- --- --- ------ -------- ----- --- ------ ----- --<br>----- ----- ---------- --- --- ------ ------ ---- -- ------<br>------- --- ------ ----- --- ---- ------- -- ---- --- --<br>------- money.,470277.965,470270.185,469360.093,469357.765,469376.743,470292.844,,55,money.
Item 100,flow.Loop,2_1_1_1,2021-04-24T18:10:18.477Z,,,,,,,,,,,,,,,,,,,,,,,,,,,,,,,53968.217000000004,,completion,,,,,E,,,,,,,,,,,silence,,,,,470279.59,470270.185,416285.318,416288.13000000006,416301.968,470292.844,,,
Question 1,html.Screen,2_1_1_2,2021-04-24T18:10:21.899Z,,,,,,,,,,,,,,,,,,,,,,,,,,,,true,TRUE,,3395.276000000129,,response,,,,100,E,,,,,,TRUE,click #choice-1,,,,silence,,,,,473702.10000000003,473688.1200000001,470276.194,470280.3350000001,470292.844,473724.789,,,
Question 2,html.Screen,2_1_1_3,2021-04-24T18:10:25.626Z,,,,,,,,,,,,,,,,,,,,,,,,,,,,true,FALSE,,3690.381000000052,,response,,,,100,E,,,,,,FALSE,click #choice-2,,,,silence,,,,,477429.12000000005,477415.17000000004,473708.139,473702.375,473724.789,477439.524,,,
Item 100,flow.Sequence,2_1_1,2021-04-24T18:10:25.627Z,,,,,,,,,,,,,,,,,,,,,,,,,,,,,,,71108.00100000005,,completion,,,,,,,,,,,,,,,,,,,,,477429.8300000001,477415.17000000004,406290.519,406307.24000000005,406307.169,477439.524,,,
End of Practice,html.Page,2_1_2,2021-04-24T18:10:45.631Z,,,,,,,,,,,,,,,,,,,,,,,,,,,,,,,20007.10600000003,,timeout,,,,,,,,,,,,,,,,,,,,,497433.61,497429.98,477422.874,477430.03,477439.524,497446.63,,,
Practice,flow.Sequence,2_1,2021-04-24T18:10:45.633Z,,,,,,,,,,,,,,,,,,,,,,,,,,,,,,,168586.94399999996,,completion,,,,,,,,,,,,,,,,,,,,,497436.0000000001,497429.98,328809.736,328825.78500000003,328843.036,497446.63,,,
Trap_instruction,html.Page,2_2_0,2021-04-24T18:10:45.700Z,,,,,,,,,,,,,,,,,,,,,,,,,,,,,,,56.02500000008149,,form submission,,,,,,,,,,,,,,,,,,,,,497503.395,497502.6550000001,497429.98,497437.92000000004,497446.63,497563.592,,,
trap_trial,html.Screen,2_2_1,2021-04-24T18:10:49.734Z,,,,,,,,,,,,,,,,,,,,,,,,,,,,true,1,,3955.0930000000517,,response,,,,,,,,,,,1,click #choice-1,,,,,,,,,501536.88000000006,501518.68500000006,497513.615,497504.13000000006,497563.592,501559.782,,,
end of trap trial,html.Page,2_2_2,2021-04-24T18:10:58.511Z,,,,,,,,,,,,,,,,,,,,,,,,,,,,,,,8753.503000000026,,form submission,,,,,,,,,,,,,,,,,,,,,510313.85000000003,510313.28500000003,501543.132,501537.7250000001,501559.782,510323.164,,,
Trap 1,flow.Sequence,2_2,2021-04-24T18:10:58.511Z,,,,,,,,,,,,,,,,,,,,,,,,,,,,,,,12866.655000000028,,completion,,,,,,,,,,,,,,,,,,,,,510314.27999999997,510313.28500000003,497429.98,497437.50000000006,497446.63,510323.164,,,
Standby,html.Page,2_3_0,2021-04-24T18:11:06.499Z,,,,,,,,,,,,,,,,,,,,,,,,,,,,,,,7993.026000000013,,timeout,,,,,,,,,,,,,,,,,,,,,518302.195,518299.54,510306.514,510314.63,510323.164,518316.19,,,
Holding screen,html.Screen,2_3_1_0_0,2021-04-24T18:11:13.500Z,,,,,,,,,,,,,,,,,,,,,,,,,,,,,,,7000.3039999999455,,timeout,,,,,,,,,,,,,,,,,,,,,525302.5850000001,525299.844,518299.54,518303.0900000001,518316.19,525316.494,,,
screen,html.Screen,2_3_1_0_1_0,2021-04-24T18:11:14.783Z,,,,,,,,,,,,,,,,,51,,,,,,,,,,,,,,1258.0160000001779,,response,,,,13,E,,,,,,Space,keypress(Space),,,,lyrical,,,,American -------- --- --- ---- --- --- ------ -- --------<br>---- --------- --- ------- ------------ ---------- ---------<br>--- ---------- ------- ---------- ------- -- -------- ----<br>---- --- ------ ----- ------ -- ---- --- ----- -- - -------<br>-------- -- --- --- -- ----- ----------- ----- -----------<br>---- --- ---------- --- ---- --- -- ----------,526586.2400000001,526574.5100000001,525299.844,525303.4,525316.494,526599.064,,0,American
screen,html.Screen,2_3_1_0_1_1,2021-04-24T18:11:16.550Z,,,,,,,,,,,,,,,,,51,,,,,,,,,,,,,,1747.3310000000056,,response,,,,13,E,,,,,,Space,keypress(Space),,,,lyrical,,,,-------- industry --- --- ---- --- --- ------ -- --------<br>---- --------- --- ------- ------------ ---------- ---------<br>--- ---------- ------- ---------- ------- -- -------- ----<br>---- --- ------ ----- ------ -- ---- --- ----- -- - -------<br>-------- -- --- --- -- ----- ----------- ----- -----------<br>---- --- ---------- --- ---- --- -- ----------,528352.9049999999,528346.395,526582.414,526586.5750000001,526599.064,528364.636,,1,industry
screen,html.Screen,2_3_1_0_1_2,2021-04-24T18:11:17.922Z,,,,,,,,,,,,,,,,,51,,,,,,,,,,,,,,1353.2039999999106,,response,,,,13,E,,,,,,Space,keypress(Space),,,,lyrical,,,,-------- -------- may --- ---- --- --- ------ -- --------<br>---- --------- --- ------- ------------ ---------- ---------<br>--- ---------- ------- ---------- ------- -- -------- ----<br>---- --- ------ ----- ------ -- ---- --- ----- -- - -------<br>-------- -- --- --- -- ----- ----------- ----- -----------<br>---- --- ---------- --- ---- --- -- ----------,529724.755,529717.84,528347.986,528353.6550000001,528364.636,529730.859,,2,may
screen,html.Screen,2_3_1_0_1_3,2021-04-24T18:11:18.731Z,,,,,,,,,,,,,,,,,51,,,,,,,,,,,,,,795.8209999998799,,response,,,,13,E,,,,,,Space,keypress(Space),,,,lyrical,,,,-------- -------- --- not ---- --- --- ------ -- --------<br>---- --------- --- ------- ------------ ---------- ---------<br>--- ---------- ------- ---------- ------- -- -------- ----<br>---- --- ------ ----- ------ -- ---- --- ----- -- - -------<br>-------- -- --- --- -- ----- ----------- ----- -----------<br>---- --- ---------- --- ---- --- -- ----------,530533.7,530526.6799999999,529714.209,529725.255,529730.859,530547.44,,3,not
screen,html.Screen,2_3_1_0_1_4,2021-04-24T18:11:19.719Z,,,,,,,,,,,,,,,,,51,,,,,,,,,,,,,,969.315000000177,,response,,,,13,E,,,,,,Space,keypress(Space),,,,lyrical,,,,-------- -------- --- --- know --- --- ------ -- --------<br>---- --------- --- ------- ------------ ---------- ---------<br>--- ---------- ------- ---------- ------- -- -------- ----<br>---- --- ------ ----- ------ -- ---- --- ----- -- - -------<br>-------- -- --- --- -- ----- ----------- ----- -----------<br>---- --- ---------- --- ---- --- -- ----------,531522.0550000002,531516.7550000001,530530.79,530535.04,530547.44,531530.202,,4,know
screen,html.Screen,2_3_1_0_1_5,2021-04-24T18:11:20.481Z,,,,,,,,,,,,,,,,,51,,,,,,,,,,,,,,743.8229999998584,,response,,,,13,E,,,,,,Space,keypress(Space),,,,lyrical,,,,"-------- -------- --- --- ---- it, --- ------ -- --------<br>---- --------- --- ------- ------------ ---------- ---------<br>--- ---------- ------- ---------- ------- -- -------- ----<br>---- --- ------ ----- ------ -- ---- --- ----- -- - -------<br>-------- -- --- --- -- ----- ----------- ----- -----------<br>---- --- ---------- --- ---- --- -- ----------",532283.65,532274.0249999999,531513.552,531523.3350000001,531530.202,532296.619,,5,"it,"
screen,html.Screen,2_3_1_0_1_6,2021-04-24T18:11:21.303Z,,,,,,,,,,,,,,,,,51,,,,,,,,,,,,,,800.6460000001825,,response,,,,13,E,,,,,,Space,keypress(Space),,,,lyrical,,,,-------- -------- --- --- ---- --- but ------ -- --------<br>---- --------- --- ------- ------------ ---------- ---------<br>--- ---------- ------- ---------- ------- -- -------- ----<br>---- --- ------ ----- ------ -- ---- --- ----- -- - -------<br>-------- -- --- --- -- ----- ----------- ----- -----------<br>---- --- ---------- --- ---- --- -- ----------,533105.7849999999,533097.2650000001,532279.969,532285.0350000001,532296.619,533112.871,,6,but
screen,html.Screen,2_3_1_0_1_7,2021-04-24T18:11:22.170Z,,,,,,,,,,,,,,,,,51,,,,,,,,,,,,,,856.8390000000363,,response,,,,13,E,,,,,,Space,keypress(Space),,,,lyrical,,,,-------- -------- --- --- ---- --- --- debate -- --------<br>---- --------- --- ------- ------------ ---------- ---------<br>--- ---------- ------- ---------- ------- -- -------- ----<br>---- --- ------ ----- ------ -- ---- --- ----- -- - -------<br>-------- -- --- --- -- ----- ----------- ----- -----------<br>---- --- ---------- --- ---- --- -- ----------,533972.63,533969.7100000001,533096.221,533107.27,533112.871,533979.096,,7,debate
screen,html.Screen,2_3_1_0_1_8,2021-04-24T18:11:23.071Z,,,,,,,,,,,,,,,,,51,,,,,,,,,,,,,,886.0740000000224,,response,,,,13,E,,,,,,Space,keypress(Space),,,,lyrical,,,,-------- -------- --- --- ---- --- --- ------ in --------<br>---- --------- --- ------- ------------ ---------- ---------<br>--- ---------- ------- ---------- ------- -- -------- ----<br>---- --- ------ ----- ------ -- ---- --- ----- -- - -------<br>-------- -- --- --- -- ----- ----------- ----- -----------<br>---- --- ---------- --- ---- --- -- ----------,534874,534865.17,533962.446,533972.905,533979.096,534878.658,,8,in
screen,html.Screen,2_3_1_0_1_9,2021-04-24T18:11:24.486Z,,,,,,,,,,,,,,,,,51,,,,,,,,,,,,,,1403.8220000000438,,response,,,,13,E,,,,,,Space,keypress(Space),,,,lyrical,,,,-------- -------- --- --- ---- --- --- ------ -- Congress<br>---- --------- --- ------- ------------ ---------- ---------<br>--- ---------- ------- ---------- ------- -- -------- ----<br>---- --- ------ ----- ------ -- ---- --- ----- -- - -------<br>-------- -- --- --- -- ----- ----------- ----- -----------<br>---- --- ---------- --- ---- --- -- ----------,536288.7499999999,536282.4800000001,534862.008,534875.0800000001,534878.658,536294.374,,9,Congress
screen,html.Screen,2_3_1_0_1_10,2021-04-24T18:11:25.306Z,,,,,,,,,,,,,,,,,51,,,,,,,,,,,,,,803.3209999999963,,response,,,,13,E,,,,,,Space,keypress(Space),,,,lyrical,,,,-------- -------- --- --- ---- --- --- ------ -- --------<br>over --------- --- ------- ------------ ---------- ---------<br>--- ---------- ------- ---------- ------- -- -------- ----<br>---- --- ------ ----- ------ -- ---- --- ----- -- - -------<br>-------- -- --- --- -- ----- ----------- ----- -----------<br>---- --- ---------- --- ---- --- -- ----------,537109.285,537097.695,536277.724,536289.1300000001,536294.374,537127.61,,10,over
screen,html.Screen,2_3_1_0_1_11,2021-04-24T18:11:27.130Z,,,,,,,,,,,,,,,,,51,,,,,,,,,,,,,,1797.8000000000466,,response,,,,13,E,,,,,,Space,keypress(Space),,,,lyrical,,,,-------- -------- --- --- ---- --- --- ------ -- --------<br>---- reforming --- ------- ------------ ---------- ---------<br>--- ---------- ------- ---------- ------- -- -------- ----<br>---- --- ------ ----- ------ -- ---- --- ----- -- - -------<br>-------- -- --- --- -- ----- ----------- ----- -----------<br>---- --- ---------- --- ---- --- -- ----------,538932.955,538925.41,537110.96,537109.7,537127.61,538942.89,,11,reforming
screen,html.Screen,2_3_1_0_1_12,2021-04-24T18:11:28.241Z,,,,,,,,,,,,,,,,,51,,,,,,,,,,,,,,1090.719999999972,,response,,,,13,E,,,,,,Space,keypress(Space),,,,lyrical,,,,-------- -------- --- --- ---- --- --- ------ -- --------<br>---- --------- the ------- ------------ ---------- ---------<br>--- ---------- ------- ---------- ------- -- -------- ----<br>---- --- ------ ----- ------ -- ---- --- ----- -- - -------<br>-------- -- --- --- -- ----- ----------- ----- -----------<br>---- --- ---------- --- ---- --- -- ----------,540043.9750000001,540033.61,538926.24,538933.45,538942.89,540059.389,,12,the
screen,html.Screen,2_3_1_0_1_13,2021-04-24T18:11:29.788Z,,,,,,,,,,,,,,,,,51,,,,,,,,,,,,,,1525.3060000000987,,response,,,,13,E,,,,,,Space,keypress(Space),,,,lyrical,,,,-------- -------- --- --- ---- --- --- ------ -- --------<br>---- --------- --- federal ------------ ---------- ---------<br>--- ---------- ------- ---------- ------- -- -------- ----<br>---- --- ------ ----- ------ -- ---- --- ----- -- - -------<br>-------- -- --- --- -- ----- ----------- ----- -----------<br>---- --- ---------- --- ---- --- -- ----------,541591.3500000001,541584.6950000001,540042.739,540044.275,540059.389,541608.407,,13,federal
screen,html.Screen,2_3_1_0_1_14,2021-04-24T18:11:31.220Z,,,,,,,,,,,,,,,,,51,,,,,,,,,,,,,,1408.1530000000494,,response,,,,13,E,,,,,,Space,keypress(Space),,,,lyrical,,,,-------- -------- --- --- ---- --- --- ------ -- --------<br>---- --------- --- ------- government's ---------- ---------<br>--- ---------- ------- ---------- ------- -- -------- ----<br>---- --- ------ ----- ------ -- ---- --- ----- -- - -------<br>-------- -- --- --- -- ----- ----------- ----- -----------<br>---- --- ---------- --- ---- --- -- ----------,543023.3350000001,543016.56,541591.757,541591.7650000001,541608.407,543041.121,,14,government's
screen,html.Screen,2_3_1_0_1_15,2021-04-24T18:11:33.136Z,,,,,,,,,,,,,,,,,51,,,,,,,,,,,,,,1889.4790000000503,,response,,,,13,E,,,,,,Space,keypress(Space),,,,lyrical,,,,-------- -------- --- --- ---- --- --- ------ -- --------<br>---- --------- --- ------- ------------ regulatory ---------<br>--- ---------- ------- ---------- ------- -- -------- ----<br>---- --- ------ ----- ------ -- ---- --- ----- -- - -------<br>-------- -- --- --- -- ----- ----------- ----- -----------<br>---- --- ---------- --- ---- --- -- ----------,544939.18,544930.6000000001,543024.471,543023.805,543041.121,544956.626,,15,regulatory
screen,html.Screen,2_3_1_0_1_16,2021-04-24T18:11:34.634Z,,,,,,,,,,,,,,,,,51,,,,,,,,,,,,,,1470.079000000027,,response,,,,13,E,,,,,,Space,keypress(Space),,,,lyrical,,,,-------- -------- --- --- ---- --- --- ------ -- --------<br>---- --------- --- ------- ------------ ---------- apparatus<br>--- ---------- ------- ---------- ------- -- -------- ----<br>---- --- ------ ----- ------ -- ---- --- ----- -- - -------<br>-------- -- --- --- -- ----- ----------- ----- -----------<br>---- --- ---------- --- ---- --- -- ----------,546436.93,546426.7050000001,544939.976,544941.6200000001,544956.626,546439.483,,16,apparatus
screen,html.Screen,2_3_1_0_1_17,2021-04-24T18:11:35.917Z,,,,,,,,,,,,,,,,,51,,,,,,,,,,,,,,1273.422000000137,,response,,,,13,E,,,,,,Space,keypress(Space),,,,lyrical,,,,-------- -------- --- --- ---- --- --- ------ -- --------<br>---- --------- --- ------- ------------ ---------- ---------<br>may ---------- ------- ---------- ------- -- -------- ----<br>---- --- ------ ----- ------ -- ---- --- ----- -- - -------<br>-------- -- --- --- -- ----- ----------- ----- -----------<br>---- --- ---------- --- ---- --- -- ----------,547719.47,547712.9050000001,546422.833,546437.375,546439.483,547722.318,,17,may
screen,html.Screen,2_3_1_0_1_18,2021-04-24T18:11:37.626Z,,,,,,,,,,,,,,,,,51,,,,,,,,,,,,,,1698.987000000081,,response,,,,13,E,,,,,,Space,keypress(Space),,,,lyrical,,,,-------- -------- --- --- ---- --- --- ------ -- --------<br>---- --------- --- ------- ------------ ---------- ---------<br>--- profoundly ------- ---------- ------- -- -------- ----<br>---- --- ------ ----- ------ -- ---- --- ----- -- - -------<br>-------- -- --- --- -- ----- ----------- ----- -----------<br>---- --- ---------- --- ---- --- -- ----------,549429.21,549421.305,547705.668,547719.8900000001,547722.318,549437.926,,18,profoundly
screen,html.Screen,2_3_1_0_1_19,2021-04-24T18:11:39.199Z,,,,,,,,,,,,,,,,,51,,,,,,,,,,,,,,1556.2940000001108,,response,,,,13,E,,,,,,Space,keypress(Space),,,,lyrical,,,,-------- -------- --- --- ---- --- --- ------ -- --------<br>---- --------- --- ------- ------------ ---------- ---------<br>--- ---------- improve ---------- ------- -- -------- ----<br>---- --- ------ ----- ------ -- ---- --- ----- -- - -------<br>-------- -- --- --- -- ----- ----------- ----- -----------<br>---- --- ---------- --- ---- --- -- ----------,551001.88,550994.2200000001,549421.276,549430.3099999999,549437.926,551020.574,,19,improve
screen,html.Screen,2_3_1_0_1_20,2021-04-24T18:11:41.484Z,,,,,,,,,,,,,,,,,51,,,,,,,,,,,,,,2257.0059999999357,,response,,,,13,E,,,,,,Space,keypress(Space),,,,lyrical,,,,-------- -------- --- --- ---- --- --- ------ -- --------<br>---- --------- --- ------- ------------ ---------- ---------<br>--- ---------- ------- companies' ------- -- -------- ----<br>---- --- ------ ----- ------ -- ---- --- ----- -- - -------<br>-------- -- --- --- -- ----- ----------- ----- -----------<br>---- --- ---------- --- ---- --- -- ----------,553286.4750000001,553277.58,551003.924,551002.915,551020.574,553302.457,,20,companies'
screen,html.Screen,2_3_1_0_1_21,2021-04-24T18:11:42.200Z,,,,,,,,,,,,,,,,,51,,,,,,,,,,,,,,690.8330000001006,,response,,,,13,E,,,,,,Space,keypress(Space),,,,lyrical,,,,-------- -------- --- --- ---- --- --- ------ -- --------<br>---- --------- --- ------- ------------ ---------- ---------<br>--- ---------- ------- ---------- ability -- -------- ----<br>---- --- ------ ----- ------ -- ---- --- ----- -- - -------<br>-------- -- --- --- -- ----- ----------- ----- -----------<br>---- --- ---------- --- ---- --- -- ----------,554002.5600000002,553993.2900000002,553285.807,553287.8949999999,553302.457,554019.586,,21,ability
screen,html.Screen,2_3_1_0_1_22,2021-04-24T18:11:42.836Z,,,,,,,,,,,,,,,,,51,,,,,,,,,,,,,,614.1289999999572,,response,,,,13,E,,,,,,Space,keypress(Space),,,,lyrical,,,,-------- -------- --- --- ---- --- --- ------ -- --------<br>---- --------- --- ------- ------------ ---------- ---------<br>--- ---------- ------- ---------- ------- to -------- ----<br>---- --- ------ ----- ------ -- ---- --- ----- -- - -------<br>-------- -- --- --- -- ----- ----------- ----- -----------<br>---- --- ---------- --- ---- --- -- ----------,554639.1250000001,554633.715,554002.936,554002.9400000001,554019.586,554652.668,,22,to
screen,html.Screen,2_3_1_0_1_23,2021-04-24T18:11:43.693Z,,,,,,,,,,,,,,,,,51,,,,,,,,,,,,,,836.2820000000065,,response,,,,13,E,,,,,,Space,keypress(Space),,,,lyrical,,,,-------- -------- --- --- ---- --- --- ------ -- --------<br>---- --------- --- ------- ------------ ---------- ---------<br>--- ---------- ------- ---------- ------- -- survive. ----<br>---- --- ------ ----- ------ -- ---- --- ----- -- - -------<br>-------- -- --- --- -- ----- ----------- ----- -----------<br>---- --- ---------- --- ---- --- -- ----------,555495.545,555488.95,554636.018,554639.95,554652.668,555502.15,,23,survive.
screen,html.Screen,2_3_1_0_1_24,2021-04-24T18:11:44.753Z,,,,,,,,,,,,,,,,,51,,,,,,,,,,,,,,1046.7600000000093,,response,,,,13,E,,,,,,Space,keypress(Space),,,,lyrical,,,,-------- -------- --- --- ---- --- --- ------ -- --------<br>---- --------- --- ------- ------------ ---------- ---------<br>--- ---------- ------- ---------- ------- -- -------- This<br>---- --- ------ ----- ------ -- ---- --- ----- -- - -------<br>-------- -- --- --- -- ----- ----------- ----- -----------<br>---- --- ---------- --- ---- --- -- ----------,556555.9299999999,556548.91,555485.5,555496.8300000001,555502.15,556568.185,,24,This
screen,html.Screen,2_3_1_0_1_25,2021-04-24T18:11:46.135Z,,,,,,,,,,,,,,,,,51,,,,,,,,,,,,,,1364.1999999999534,,response,,,,13,E,,,,,,Space,keypress(Space),,,,lyrical,,,,-------- -------- --- --- ---- --- --- ------ -- --------<br>---- --------- --- ------- ------------ ---------- ---------<br>--- ---------- ------- ---------- ------- -- -------- ----<br>week --- ------ ----- ------ -- ---- --- ----- -- - -------<br>-------- -- --- --- -- ----- ----------- ----- -----------<br>---- --- ---------- --- ---- --- -- ----------,557938.1849999999,557932.385,556551.535,556556.345,556568.185,557950.691,,25,week
screen,html.Screen,2_3_1_0_1_26,2021-04-24T18:11:48.196Z,,,,,,,,,,,,,,,,,51,,,,,,,,,,,,,,2040.0840000000317,,response,,,,13,E,,,,,,Space,keypress(Space),,,,lyrical,,,,-------- -------- --- --- ---- --- --- ------ -- --------<br>---- --------- --- ------- ------------ ---------- ---------<br>--- ---------- ------- ---------- ------- -- -------- ----<br>---- the ------ ----- ------ -- ---- --- ----- -- - -------<br>-------- -- --- --- -- ----- ----------- ----- -----------<br>---- --- ---------- --- ---- --- -- ----------,559998.8250000001,559990.775,557934.041,557938.625,557950.691,560016.017,,26,the
screen,html.Screen,2_3_1_0_1_27,2021-04-24T18:11:50.231Z,,,,,,,,,,,,,,,,,51,,,,,,,,,,,,,,2010.2680000001565,,response,,,,13,E,,,,,,Space,keypress(Space),,,,lyrical,,,,-------- -------- --- --- ---- --- --- ------ -- --------<br>---- --------- --- ------- ------------ ---------- ---------<br>--- ---------- ------- ---------- ------- -- -------- ----<br>---- --- Senate ----- ------ -- ---- --- ----- -- - -------<br>-------- -- --- --- -- ----- ----------- ----- -----------<br>---- --- ---------- --- ---- --- -- ----------,562033.4800000001,562026.2850000001,559999.367,560000.17,560016.017,562048.394,,27,Senate
screen,html.Screen,2_3_1_0_1_28,2021-04-24T18:11:51.545Z,,,,,,,,,,,,,,,,,51,,,,,,,,,,,,,,1290.28600000008,,response,,,,13,E,,,,,,Space,keypress(Space),,,,lyrical,,,,-------- -------- --- --- ---- --- --- ------ -- --------<br>---- --------- --- ------- ------------ ---------- ---------<br>--- ---------- ------- ---------- ------- -- -------- ----<br>---- --- ------ seems ------ -- ---- --- ----- -- - -------<br>-------- -- --- --- -- ----- ----------- ----- -----------<br>---- --- ---------- --- ---- --- -- ----------,563347.765,563338.68,562031.744,562034.1100000001,562048.394,563364.811,,28,seems
screen,html.Screen,2_3_1_0_1_29,2021-04-24T18:11:53.186Z,,,,,,,,,,,,,,,,,51,,,,,,,,,,,,,,1617.9890000000596,,response,,,,13,E,,,,,,Space,keypress(Space),,,,lyrical,,,,-------- -------- --- --- ---- --- --- ------ -- --------<br>---- --------- --- ------- ------------ ---------- ---------<br>--- ---------- ------- ---------- ------- -- -------- ----<br>---- --- ------ ----- poised -- ---- --- ----- -- - -------<br>-------- -- --- --- -- ----- ----------- ----- -----------<br>---- --- ---------- --- ---- --- -- ----------,564988.9950000001,564982.8,563348.161,563348.87,563364.811,564997.201,,29,poised
screen,html.Screen,2_3_1_0_1_30,2021-04-24T18:11:53.993Z,,,,,,,,,,,,,,,,,51,,,,,,,,,,,,,,787.3840000000782,,response,,,,13,E,,,,,,Space,keypress(Space),,,,lyrical,,,,-------- -------- --- --- ---- --- --- ------ -- --------<br>---- --------- --- ------- ------------ ---------- ---------<br>--- ---------- ------- ---------- ------- -- -------- ----<br>---- --- ------ ----- ------ to ---- --- ----- -- - -------<br>-------- -- --- --- -- ----- ----------- ----- -----------<br>---- --- ---------- --- ---- --- -- ----------,565795.5449999999,565784.5850000001,564980.551,564989.94,564997.201,565797.254,,30,to
screen,html.Screen,2_3_1_0_1_31,2021-04-24T18:11:54.948Z,,,,,,,,,,,,,,,,,51,,,,,,,,,,,,,,945.6010000000242,,response,,,,13,E,,,,,,Space,keypress(Space),,,,lyrical,,,,-------- -------- --- --- ---- --- --- ------ -- --------<br>---- --------- --- ------- ------------ ---------- ---------<br>--- ---------- ------- ---------- ------- -- -------- ----<br>---- --- ------ ----- ------ -- join --- ----- -- - -------<br>-------- -- --- --- -- ----- ----------- ----- -----------<br>---- --- ---------- --- ---- --- -- ----------,566751.0050000001,566742.855,565780.604,565795.84,565797.254,566763.359,,31,join
screen,html.Screen,2_3_1_0_1_32,2021-04-24T18:11:56.151Z,,,,,,,,,,,,,,,,,51,,,,,,,,,,,,,,1183.5860000001267,,response,,,,13,E,,,,,,Space,keypress(Space),,,,lyrical,,,,-------- -------- --- --- ---- --- --- ------ -- --------<br>---- --------- --- ------- ------------ ---------- ---------<br>--- ---------- ------- ---------- ------- -- -------- ----<br>---- --- ------ ----- ------ -- ---- the ----- -- - -------<br>-------- -- --- --- -- ----- ----------- ----- -----------<br>---- --- ---------- --- ---- --- -- ----------,567954.2550000001,567946.9450000002,566746.709,566751.9950000001,566763.359,567962.669,,32,the
screen,html.Screen,2_3_1_0_1_33,2021-04-24T18:11:58.131Z,,,,,,,,,,,,,,,,,51,,,,,,,,,,,,,,1962.2859999999637,,response,,,,13,E,,,,,,Space,keypress(Space),,,,lyrical,,,,-------- -------- --- --- ---- --- --- ------ -- --------<br>---- --------- --- ------- ------------ ---------- ---------<br>--- ---------- ------- ---------- ------- -- -------- ----<br>---- --- ------ ----- ------ -- ---- --- House -- - -------<br>-------- -- --- --- -- ----- ----------- ----- -----------<br>---- --- ---------- --- ---- --- -- ----------,569933.9,569924.955,567946.019,567954.6950000002,567962.669,569944.647,,33,House
screen,html.Screen,2_3_1_0_1_34,2021-04-24T18:11:58.971Z,,,,,,,,,,,,,,,,,51,,,,,,,,,,,,,,821.283000000054,,response,,,,13,E,,,,,,Space,keypress(Space),,,,lyrical,,,,-------- -------- --- --- ---- --- --- ------ -- --------<br>---- --------- --- ------- ------------ ---------- ---------<br>--- ---------- ------- ---------- ------- -- -------- ----<br>---- --- ------ ----- ------ -- ---- --- ----- in - -------<br>-------- -- --- --- -- ----- ----------- ----- -----------<br>---- --- ---------- --- ---- --- -- ----------,570774.1450000001,570765.93,569927.997,569935.0650000002,569944.647,570778.179,,34,in
screen,html.Screen,2_3_1_0_1_35,2021-04-24T18:12:00.470Z,,,,,,,,,,,,,,,,,51,,,,,,,,,,,,,,1485.66100000008,,response,,,,13,E,,,,,,Space,keypress(Space),,,,lyrical,,,,-------- -------- --- --- ---- --- --- ------ -- --------<br>---- --------- --- ------- ------------ ---------- ---------<br>--- ---------- ------- ---------- ------- -- -------- ----<br>---- --- ------ ----- ------ -- ---- --- ----- -- a -------<br>-------- -- --- --- -- ----- ----------- ----- -----------<br>---- --- ---------- --- ---- --- -- ----------,572272.51,572263.8400000001,570761.529,570774.8000000002,570778.179,572277.117,,35,a
screen,html.Screen,2_3_1_0_1_36,2021-04-24T18:12:01.450Z,,,,,,,,,,,,,,,,,51,,,,,,,,,,,,,,966.6280000000261,,response,,,,13,E,,,,,,Space,keypress(Space),,,,lyrical,,,,-------- -------- --- --- ---- --- --- ------ -- --------<br>---- --------- --- ------- ------------ ---------- ---------<br>--- ---------- ------- ---------- ------- -- -------- ----<br>---- --- ------ ----- ------ -- ---- --- ----- -- - massive<br>-------- -- --- --- -- ----- ----------- ----- -----------<br>---- --- ---------- --- ---- --- -- ----------,573252.845,573243.745,572260.467,572273.8100000002,572277.117,573260.259,,36,massive
screen,html.Screen,2_3_1_0_1_37,2021-04-24T18:12:02.594Z,,,,,,,,,,,,,,,,,51,,,,,,,,,,,,,,1126.920999999973,,response,,,,13,E,,,,,,Space,keypress(Space),,,,lyrical,,,,-------- -------- --- --- ---- --- --- ------ -- --------<br>---- --------- --- ------- ------------ ---------- ---------<br>--- ---------- ------- ---------- ------- -- -------- ----<br>---- --- ------ ----- ------ -- ---- --- ----- -- - -------<br>overhaul -- --- --- -- ----- ----------- ----- -----------<br>---- --- ---------- --- ---- --- -- ----------,574396.735,574387.1799999999,573243.609,573253.9349999999,573260.259,574409.611,,37,overhaul
screen,html.Screen,2_3_1_0_1_38,2021-04-24T18:12:03.579Z,,,,,,,,,,,,,,,,,51,,,,,,,,,,,,,,965.7340000001714,,response,,,,13,E,,,,,,Space,keypress(Space),,,,lyrical,,,,-------- -------- --- --- ---- --- --- ------ -- --------<br>---- --------- --- ------- ------------ ---------- ---------<br>--- ---------- ------- ---------- ------- -- -------- ----<br>---- --- ------ ----- ------ -- ---- --- ----- -- - -------<br>-------- of --- --- -- ----- ----------- ----- -----------<br>---- --- ---------- --- ---- --- -- ----------,575382.0499999999,575375.3450000002,574392.961,574397.7400000001,574409.611,575392.578,,38,of
screen,html.Screen,2_3_1_0_1_39,2021-04-24T18:12:04.375Z,,,,,,,,,,,,,,,,,51,,,,,,,,,,,,,,776.2220000001835,,response,,,,13,E,,,,,,Space,keypress(Space),,,,lyrical,,,,-------- -------- --- --- ---- --- --- ------ -- --------<br>---- --------- --- ------- ------------ ---------- ---------<br>--- ---------- ------- ---------- ------- -- -------- ----<br>---- --- ------ ----- ------ -- ---- --- ----- -- - -------<br>-------- -- the --- -- ----- ----------- ----- -----------<br>---- --- ---------- --- ---- --- -- ----------,576177.905,576168.8000000002,575375.928,575382.705,575392.578,576192.283,,39,the
screen,html.Screen,2_3_1_0_1_40,2021-04-24T18:12:05.125Z,,,,,,,,,,,,,,,,,51,,,,,,,,,,,,,,728.2069999999367,,response,,,,13,E,,,,,,Space,keypress(Space),,,,lyrical,,,,-------- -------- --- --- ---- --- --- ------ -- --------<br>---- --------- --- ------- ------------ ---------- ---------<br>--- ---------- ------- ---------- ------- -- -------- ----<br>---- --- ------ ----- ------ -- ---- --- ----- -- - -------<br>-------- -- --- way -- ----- ----------- ----- -----------<br>---- --- ---------- --- ---- --- -- ----------,576927.8500000001,576920.49,576175.633,576179.56,576192.283,576941.948,,40,way
