sender,sender_type,sender_id,timestamp,meta,,Blues,Classical,Country,Dance,Electronic,Folk,Gospel,Hip-Hop,Jazz,Latin,Musical/Film,New-age,Pop,Prolific_id,Provo_ID,R&B,Rap,Reggae,Religious,Rock,Soul,Swing,Traditional,age,artist_name,correct,correctResponse,distraction,duration,education,ended_on,familiarity,gender,headphone_check_performance,item,list,music_frequency,offensiveness,pleasantness,position_correct,preference,response,response_action,snippet_file,song_name,song_rating,sound,stimulus_1,stimulus_2,stimulus_3,text,time_commit,time_end,time_render,time_run,time_show,time_switch,url,word,word_ID
Prolific ID,html.Form,0,2021-04-26T11:18:57.752Z,"{""labjs_version"":""20.2.2"",""labjs_build"":{""flavor"":""production"",""commit"":""a25486e0c714a0ae2ce03ff94b7bb6896854dcfa""},""location"":""https://run.pavlovia.org/mvasilev/prolific_music_b/"",""userAgent"":""Mozilla/5.0 (Windows NT 10.0; Win64; x64) AppleWebKit/537.36 (KHTML, like Gecko) Chrome/90.0.4430.85 Safari/537.36"",""platform"":""Win32"",""language"":""en-GB"",""locale"":""en-GB"",""timeZone"":""Europe/London"",""timezoneOffset"":-60,""screen_width"":2560,""screen_height"":1440,""scroll_width"":1902,""scroll_height"":864,""window_innerWidth"":1902,""window_innerHeight"":912,""devicePixelRatio"":1}",,,,,,,,,,,,,,,605b34dbc8afa00313d11543,,,,,,,,,,,,,,,12395.844999984763,,form submission,,,,,,,,,,,,,,,,,,,,,20124.010000028647,20123.514999984764,7706.837,7711.080000037327,7727.67,20130.499,{},,
Introduction,html.Screen,1_0,2021-04-26T11:19:03.509Z,,,,,,,,,,,,,,,,,,,,,,,,,,,,,,,5748.256000070669,,response,,,,,,,,,,,continue,click button,,,,,,,,,25880.42000005953,25878.75500007067,20116.59,20124.554999987595,20130.499,25880.507,,,
Volume calibration,html.Screen,1_1,2021-04-26T11:19:30.045Z,,,,,,,,,,,,,,,,,,,,,,,,,,,,,,,26534.248000034346,,response,,,,,,,,,,,continue,click button,,,,,,,,,52416.71000001952,52414.75500003435,25873.565,25880.55500003975,25880.507,52426.746,,,
Task instructions,html.Screen,1_2,2021-04-26T11:20:06.499Z,,,,,,,,,,,,,,,,,,,,,,,,,,,,,,,36443.96899996819,,response,,,,,,,,,,,continue,click button,,,,,,,,,88871.27000000328,88870.71499996819,52408.364,52416.84499999974,52426.746,88873.747,,,
Sounds,html.Screen,1_3_0_0,2021-04-26T11:20:10.746Z,,,,,,,,,,,,,,,,,,,,,,,,,,,,,,,4250.046999999991,,timeout,,,,,,,,,3,,,,,,,,I,O,S,,93118.33500000648,93116.846,88866.832,88871.47500005085,88873.747,93123.794,,,
Judgement,html.Screen,1_3_0_1,2021-04-26T11:20:11.819Z,,,,,,,,,,,,,,,,,,,,,,,,,,,,true,3,,1066.9360000311863,,response,,,,,,,,,3,,3,click #choice-3,,,,,I,O,S,,94191.39499997254,94190.73000003118,93116.846,93118.4999999823,93123.794,94193.212,,,
Trial,flow.Sequence,1_3_0,2021-04-26T11:20:11.819Z,,,,,,,,,,,,,,,,,,,,,,,,,,,,,,,5316.983000031178,,completion,,,,,,,,,3,,,,,,,,I,O,S,,94191.65499997325,94190.73000003118,88866.832,88871.43000005744,88873.747,94193.212,,,
Sounds,html.Screen,1_3_1_0,2021-04-26T11:20:16.064Z,,,,,,,,,,,,,,,,,,,,,,,,,,,,,,,4250.039999999994,,timeout,,,,,,,,,2,,,,,,,,I,S,O,,98436.6399999708,98436.307,94186.295,94191.79000006989,94193.212,98443.252,,,
Judgement,html.Screen,1_3_1_1,2021-04-26T11:20:18.321Z,,,,,,,,,,,,,,,,,,,,,,,,,,,,true,2,,2249.433000016361,,response,,,,,,,,,2,,2,click #choice-2,,,,,I,S,O,,100693.36999999359,100692.68500001635,98436.307,98436.74000003375,98443.252,100693.224,,,
Trial,flow.Sequence,1_3_1,2021-04-26T11:20:18.321Z,,,,,,,,,,,,,,,,,,,,,,,,,,,,,,,6499.4730000163545,,completion,,,,,,,,,2,,,,,,,,I,S,O,,100693.57000000309,100692.68500001635,94186.295,94191.74000003841,94193.212,100693.224,,,
Sounds,html.Screen,1_3_2_0,2021-04-26T11:20:22.564Z,,,,,,,,,,,,,,,,,,,,,,,,,,,,,,,4250.023000000001,,timeout,,,,,,,,,1,,,,,,,,S,O,I,,104936.68000004254,104936.301,100686.304,100693.68999998551,100693.224,104943.247,,,
Judgement,html.Screen,1_3_2_1,2021-04-26T11:20:23.107Z,,,,,,,,,,,,,,,,,,,,,,,,,,,,true,1,,535.473000013706,,response,,,,,,,,,1,,1,click #choice-1,,,,,S,O,I,,105479.30000000633,105478.72000001371,104936.301,104936.77999998908,104943.247,105484.941,,,
Trial,flow.Sequence,1_3_2,2021-04-26T11:20:23.107Z,,,,,,,,,,,,,,,,,,,,,,,,,,,,,,,4785.496000013707,,completion,,,,,,,,,1,,,,,,,,S,O,I,,105479.45500002243,105478.72000001371,100686.304,100693.65500006825,100693.224,105484.941,,,
Sounds,html.Screen,1_3_3_0,2021-04-26T11:20:27.356Z,,,,,,,,,,,,,,,,,,,,,,,,,,,,,,,4249.992999999988,,timeout,,,,,,,,,3,,,,,,,,O,I,S,,109728.37999998592,109727.993,105477.974,105479.57500000484,105484.941,109734.934,,,
Judgement,html.Screen,1_3_3_1,2021-04-26T11:20:27.795Z,,,,,,,,,,,,,,,,,,,,,,,,,,,,true,3,,431.8459999704646,,response,,,,,,,,,3,,3,click #choice-3,,,,,O,I,S,,110167.43999999017,110166.77999997046,109727.993,109728.46999997273,109734.934,110172.428,,,
Trial,flow.Sequence,1_3_3,2021-04-26T11:20:27.795Z,,,,,,,,,,,,,,,,,,,,,,,,,,,,,,,4681.838999970452,,completion,,,,,,,,,3,,,,,,,,O,I,S,,110167.59500000626,110166.77999997046,105477.974,105479.53000001144,105484.941,110172.428,,,
Sounds,html.Screen,1_3_4_0,2021-04-26T11:20:32.044Z,,,,,,,,,,,,,,,,,,,,,,,,,,,,,,,4250.017999999996,,timeout,,,,,,,,,2,,,,,,,,O,S,I,,114415.89499998372,114415.502,110165.5,110167.70500002895,110172.428,114422.446,,,
Judgement,html.Screen,1_3_4_1,2021-04-26T11:20:32.519Z,,,,,,,,,,,,,,,,,,,,,,,,,,,,true,2,,468.46400007465854,,response,,,,,,,,,2,,2,click #choice-2,,,,,O,S,I,,114891.51500002481,114890.91000007465,114415.502,114415.9900000086,114422.446,114894.662,,,
Trial,flow.Sequence,1_3_4,2021-04-26T11:20:32.519Z,,,,,,,,,,,,,,,,,,,,,,,,,,,,,,,4718.482000074655,,completion,,,,,,,,,2,,,,,,,,O,S,I,,114891.6700000409,114890.91000007465,110165.5,110167.66999999527,110172.428,114894.662,,,
Sounds,html.Screen,1_3_5_0,2021-04-26T11:20:36.766Z,,,,,,,,,,,,,,,,,,,,,,,,,,,,,,,4250.021999999997,,timeout,,,,,,,,,1,,,,,,,,S,I,O,,119138.15000001341,119137.729,114887.751,114891.76999998745,114894.662,119144.684,,,
Judgement,html.Screen,1_3_5_1,2021-04-26T11:20:37.243Z,,,,,,,,,,,,,,,,,,,,,,,,,,,,true,1,,470.00600007492176,,response,,,,,,,,,1,,1,click #choice-1,,,,,S,I,O,,119615.25000003166,119614.69000007492,119137.729,119138.2750000339,119144.684,119616.922,,,
Trial,flow.Sequence,1_3_5,2021-04-26T11:20:37.243Z,,,,,,,,,,,,,,,,,,,,,,,,,,,,,,,4720.028000074919,,completion,,,,,,,,,1,,,,,,,,S,I,O,,119615.40999996942,119614.69000007492,114887.751,114891.73999999184,114894.662,119616.922,,,
Task,flow.Loop,1_3,2021-04-26T11:20:37.246Z,,,,,,,,,,,,,,,,,,,,,,,,,,,,,,,30740.943000074913,,completion,,,1,,,,,,,,,,,,,,,,,,119618.12500003725,119614.69000007492,88866.832,88871.3749999879,88873.747,119616.922,,,
Trap,html.Screen,1_4,2021-04-26T11:20:37.248Z,,,,,,,,,,,,,,,,,,,,,,,,,,,,,,,NaN,,skipped,,,,,,,,,,,,,,,,,,,,,119620.45000004582,119614.69000007492,,119620.35500002094,,119616.922,,,
Thanks,html.Screen,1_5,2021-04-26T11:20:44.907Z,,,,,,,,,,,,,,,,,,,,,,,,,,,,,,,7661.8430000536755,,response,,,,,,,,,,,continue,click button,,,,,,,,,127279.34999996796,127278.76500005368,119609.978,119620.53499999456,119616.922,130825.28,,,
Headphone screening,flow.Sequence,1,2021-04-26T11:20:44.907Z,,,,,,,,,,,,,,,,,,,,,,,,,,,,,,,107148.26600005369,,completion,,,,,,,,,,,,,,,,,,,,,127279.5000000624,127278.76500005368,20116.59,20124.520000070333,20130.499,130825.28,,,
Instructions,html.Page,2_0,2021-04-26T11:21:20.894Z,,,,,,,,,,,,,,,,,,,,,,,,,,,,,,,32441.23500002481,,form submission,,,,,,,,,,,,,,,,,,,,,163266.80500002112,163266.5150000248,130818.363,130827.99000001978,130825.28,163269.86,,,
Holding screen,html.Screen,2_1_0_0,2021-04-26T11:21:30.890Z,,,,,,,,,,,,,,,,,,,,,,,,,,,,,,,10000.031000000017,,timeout,,,,,,,,,,,,,,,,,,,,,173263.1850000471,173262.912,163262.911,163266.99000003282,163269.86,173269.891,,,
screen,html.Screen,2_1_0_1_0,2021-04-26T11:21:32.904Z,,,,,,,,,,,,,,,,,53,,,,,,,,,,,,,,2005.954000054684,,response,,,,99,,,,,,,Space,keypress(Space),,,,,,,,When -- ----- -- ------ - ------- --- ----------<br>------------- ------ ------ ---- ---- ------- ----- -- ----<br>-------- ------- -- ---------- --- - --- ----- ----- ----<br>---- --- --- ----- --- ---- ---- ------- ----- ---- -------<br>--- --- -- ----- -- --- ---- -- --- ---- -- ------ ------<br>--- ----- -- ----,175277.2249999689,175275.8450000547,173262.912,173263.3350000251,173269.891,175283.792,,0,When
screen,html.Screen,2_1_0_1_1,2021-04-26T11:21:33.597Z,,,,,,,,,,,,,,,,,53,,,,,,,,,,,,,,686.0480000343232,,response,,,,99,,,,,,,Space,keypress(Space),,,,,,,,---- it ----- -- ------ - ------- --- ----------<br>------------- ------ ------ ---- ---- ------- ----- -- ----<br>-------- ------- -- ---------- --- - --- ----- ----- ----<br>---- --- --- ----- --- ---- ---- ------- ----- ---- -------<br>--- --- -- ----- -- --- ---- -- --- ---- -- ------ ------<br>--- ----- -- ----,175970.23500001524,175969.8400000343,175276.709,175277.34500006773,175283.792,175987.226,,1,it
screen,html.Screen,2_1_0_1_2,2021-04-26T11:21:34.262Z,,,,,,,,,,,,,,,,,53,,,,,,,,,,,,,,647.6840000225056,,response,,,,99,,,,,,,Space,keypress(Space),,,,,,,,---- -- comes -- ------ - ------- --- ----------<br>------------- ------ ------ ---- ---- ------- ----- -- ----<br>-------- ------- -- ---------- --- - --- ----- ----- ----<br>---- --- --- ----- --- ---- ---- ------- ----- ---- -------<br>--- --- -- ----- -- --- ---- -- --- ---- -- ------ ------<br>--- ----- -- ----,176635.2500000503,176634.9100000225,175964.299,175970.33000004012,175987.226,176637.927,,2,comes
screen,html.Screen,2_1_0_1_3,2021-04-26T11:21:34.740Z,,,,,,,,,,,,,,,,,53,,,,,,,,,,,,,,473.95800002026954,,response,,,,99,,,,,,,Space,keypress(Space),,,,,,,,---- -- ----- to ------ - ------- --- ----------<br>------------- ------ ------ ---- ---- ------- ----- -- ----<br>-------- ------- -- ---------- --- - --- ----- ----- ----<br>---- --- --- ----- --- ---- ---- ------- ----- ---- -------<br>--- --- -- ----- -- --- ---- -- --- ---- -- ------ ------<br>--- ----- -- ----,177112.2650000034,177111.88500002027,176632.34,176635.34500007518,176637.927,177117.097,,3,to
screen,html.Screen,2_1_0_1_4,2021-04-26T11:21:35.168Z,,,,,,,,,,,,,,,,,53,,,,,,,,,,,,,,422.8080000123591,,response,,,,99,,,,,,,Space,keypress(Space),,,,,,,,---- -- ----- -- having - ------- --- ----------<br>------------- ------ ------ ---- ---- ------- ----- -- ----<br>-------- ------- -- ---------- --- - --- ----- ----- ----<br>---- --- --- ----- --- ---- ---- ------- ----- ---- -------<br>--- --- -- ----- -- --- ---- -- --- ---- -- ------ ------<br>--- ----- -- ----,177540.2699999977,177539.90500001237,177110.134,177112.36000002827,177117.097,177551.645,,4,having
screen,html.Screen,2_1_0_1_5,2021-04-26T11:21:35.609Z,,,,,,,,,,,,,,,,,53,,,,,,,,,,,,,,430.234999977547,,response,,,,99,,,,,,,Space,keypress(Space),,,,,,,,---- -- ----- -- ------ a ------- --- ----------<br>------------- ------ ------ ---- ---- ------- ----- -- ----<br>-------- ------- -- ---------- --- - --- ----- ----- ----<br>---- --- --- ----- --- ---- ---- ------- ----- ---- -------<br>--- --- -- ----- -- --- ---- -- --- ---- -- ------ ------<br>--- ----- -- ----,177982.22999996506,177981.87999997754,177533.762,177540.3599999845,177551.645,177985.153,,5,a
screen,html.Screen,2_1_0_1_6,2021-04-26T11:21:35.999Z,,,,,,,,,,,,,,,,,53,,,,,,,,,,,,,,386.7770000229939,,response,,,,99,,,,,,,Space,keypress(Space),,,,,,,,---- -- ----- -- ------ - lasting --- ----------<br>------------- ------ ------ ---- ---- ------- ----- -- ----<br>-------- ------- -- ---------- --- - --- ----- ----- ----<br>---- --- --- ----- --- ---- ---- ------- ----- ---- -------<br>--- --- -- ----- -- --- ---- -- --- ---- -- ------ ------<br>--- ----- -- ----,178372.2350000171,178371.93000002299,177978.224,177982.32499998994,177985.153,178374.047,,6,lasting
screen,html.Screen,2_1_0_1_7,2021-04-26T11:21:36.387Z,,,,,,,,,,,,,,,,,53,,,,,,,,,,,,,,384.87300005115685,,response,,,,99,,,,,,,Space,keypress(Space),,,,,,,,---- -- ----- -- ------ - ------- and ----------<br>------------- ------ ------ ---- ---- ------- ----- -- ----<br>-------- ------- -- ---------- --- - --- ----- ----- ----<br>---- --- --- ----- --- ---- ---- ------- ----- ---- -------<br>--- --- -- ----- -- --- ---- -- --- ---- -- ------ ------<br>--- ----- -- ----,178759.28500003647,178758.92000005115,178367.112,178372.3250000039,178374.047,178762.93,,7,and
screen,html.Screen,2_1_0_1_8,2021-04-26T11:21:36.824Z,,,,,,,,,,,,,,,,,53,,,,,,,,,,,,,,433.9600000210921,,response,,,,99,,,,,,,Space,keypress(Space),,,,,,,,---- -- ----- -- ------ - ------- --- fulfilling<br>------------- ------ ------ ---- ---- ------- ----- -- ----<br>-------- ------- -- ---------- --- - --- ----- ----- ----<br>---- --- --- ----- --- ---- ---- ------- ----- ---- -------<br>--- --- -- ----- -- --- ---- -- --- ---- -- ------ ------<br>--- ----- -- ----,179197.26499996614,179196.89000002109,178755.996,178759.39000002109,178762.93,179200.438,,8,fulfilling
screen,html.Screen,2_1_0_1_9,2021-04-26T11:21:37.360Z,,,,,,,,,,,,,,,,,53,,,,,,,,,,,,,,531.9319999833533,,response,,,,99,,,,,,,Space,keypress(Space),,,,,,,,"---- -- ----- -- ------ - ------- --- ----------<br>relationship, ------ ------ ---- ---- ------- ----- -- ----<br>-------- ------- -- ---------- --- - --- ----- ----- ----<br>---- --- --- ----- --- ---- ---- ------- ----- ---- -------<br>--- --- -- ----- -- --- ---- -- --- ---- -- ------ ------<br>--- ----- -- ----",179732.71000001114,179732.36999998335,179193.471,179197.3650000291,179200.438,179735.165,,9,"relationship,"
screen,html.Screen,2_1_0_1_10,2021-04-26T11:21:37.804Z,,,,,,,,,,,,,,,,,53,,,,,,,,,,,,,,441.70000004491885,,response,,,,99,,,,,,,Space,keypress(Space),,,,,,,,---- -- ----- -- ------ - ------- --- ----------<br>------------- common ------ ---- ---- ------- ----- -- ----<br>-------- ------- -- ---------- --- - --- ----- ----- ----<br>---- --- --- ----- --- ---- ---- ------- ----- ---- -------<br>--- --- -- ----- -- --- ---- -- --- ---- -- ------ ------<br>--- ----- -- ----,180177.20500007272,180176.86500004493,179728.189,179732.80500003602,179735.165,180179.606,,10,common
screen,html.Screen,2_1_0_1_11,2021-04-26T11:21:38.232Z,,,,,,,,,,,,,,,,,53,,,,,,,,,,,,,,424.3490000568854,,response,,,,99,,,,,,,Space,keypress(Space),,,,,,,,---- -- ----- -- ------ - ------- --- ----------<br>------------- ------ wisdom ---- ---- ------- ----- -- ----<br>-------- ------- -- ---------- --- - --- ----- ----- ----<br>---- --- --- ----- --- ---- ---- ------- ----- ---- -------<br>--- --- -- ----- -- --- ---- -- --- ---- -- ------ ------<br>--- ----- -- ----,180604.29499996826,180603.95500005689,180172.661,180177.29500005953,180179.606,180610.183,,11,wisdom
screen,html.Screen,2_1_0_1_12,2021-04-26T11:21:38.650Z,,,,,,,,,,,,,,,,,53,,,,,,,,,,,,,,411.7770000418823,,response,,,,99,,,,,,,Space,keypress(Space),,,,,,,,---- -- ----- -- ------ - ------- --- ----------<br>------------- ------ ------ says ---- ------- ----- -- ----<br>-------- ------- -- ---------- --- - --- ----- ----- ----<br>---- --- --- ----- --- ---- ---- ------- ----- ---- -------<br>--- --- -- ----- -- --- ---- -- --- ---- -- ------ ------<br>--- ----- -- ----,181022.30000006966,181021.96000004187,180603.21,180604.3850000715,180610.183,181026.844,,12,says
screen,html.Screen,2_1_0_1_13,2021-04-26T11:21:38.971Z,,,,,,,,,,,,,,,,,53,,,,,,,,,,,,,,316.101000040333,,response,,,,99,,,,,,,Space,keypress(Space),,,,,,,,---- -- ----- -- ------ - ------- --- ----------<br>------------- ------ ------ ---- that ------- ----- -- ----<br>-------- ------- -- ---------- --- - --- ----- ----- ----<br>---- --- --- ----- --- ---- ---- ------- ----- ---- -------<br>--- --- -- ----- -- --- ---- -- --- ---- -- ------ ------<br>--- ----- -- ----,181343.26500003226,181342.94500004034,181019.887,181022.39000005648,181026.844,181346.275,,13,that
screen,html.Screen,2_1_0_1_14,2021-04-26T11:21:39.307Z,,,,,,,,,,,,,,,,,53,,,,,,,,,,,,,,332.62000001911656,,response,,,,99,,,,,,,Space,keypress(Space),,,,,,,,---- -- ----- -- ------ - ------- --- ----------<br>------------- ------ ------ ---- ---- feeling ----- -- ----<br>-------- ------- -- ---------- --- - --- ----- ----- ----<br>---- --- --- ----- --- ---- ---- ------- ----- ---- -------<br>--- --- -- ----- -- --- ---- -- --- ---- -- ------ ------<br>--- ----- -- ----,181679.2050000513,181678.8950000191,181339.307,181343.36000005715,181346.275,181694.807,,14,feeling
screen,html.Screen,2_1_0_1_15,2021-04-26T11:21:39.707Z,,,,,,,,,,,,,,,,,53,,,,,,,,,,,,,,384.10800007826765,,response,,,,99,,,,,,,Space,keypress(Space),,,,,,,,---- -- ----- -- ------ - ------- --- ----------<br>------------- ------ ------ ---- ---- ------- close -- ----<br>-------- ------- -- ---------- --- - --- ----- ----- ----<br>---- --- --- ----- --- ---- ---- ------- ----- ---- -------<br>--- --- -- ----- -- --- ---- -- --- ---- -- ------ ------<br>--- ----- -- ----,182079.2800000636,182078.91500007827,181672.64,181679.2950000381,181694.807,182082.38,,15,close
screen,html.Screen,2_1_0_1_16,2021-04-26T11:21:40.142Z,,,,,,,,,,,,,,,,,53,,,,,,,,,,,,,,431.5350000177277,,response,,,,99,,,,,,,Space,keypress(Space),,,,,,,,---- -- ----- -- ------ - ------- --- ----------<br>------------- ------ ------ ---- ---- ------- ----- to ----<br>-------- ------- -- ---------- --- - --- ----- ----- ----<br>---- --- --- ----- --- ---- ---- ------- ----- ---- -------<br>--- --- -- ----- -- --- ---- -- --- ---- -- ------ ------<br>--- ----- -- ----,182514.25500004552,182513.91500001773,182075.458,182079.37499997206,182082.38,182519.9,,16,to
screen,html.Screen,2_1_0_1_17,2021-04-26T11:21:40.563Z,,,,,,,,,,,,,,,,,53,,,,,,,,,,,,,,414.98000007346855,,response,,,,99,,,,,,,Space,keypress(Space),,,,,,,,---- -- ----- -- ------ - ------- --- ----------<br>------------- ------ ------ ---- ---- ------- ----- -- your<br>-------- ------- -- ---------- --- - --- ----- ----- ----<br>---- --- --- ----- --- ---- ---- ------- ----- ---- -------<br>--- --- -- ----- -- --- ---- -- --- ---- -- ------ ------<br>--- ----- -- ----,182935.24500005879,182934.88000007346,182512.94,182514.35499999207,182519.9,182936.562,,17,your
screen,html.Screen,2_1_0_1_18,2021-04-26T11:21:41.120Z,,,,,,,,,,,,,,,,,53,,,,,,,,,,,,,,555.3680000183231,,response,,,,99,,,,,,,Space,keypress(Space),,,,,,,,---- -- ----- -- ------ - ------- --- ----------<br>------------- ------ ------ ---- ---- ------- ----- -- ----<br>romantic ------- -- ---------- --- - --- ----- ----- ----<br>---- --- --- ----- --- ---- ---- ------- ----- ---- -------<br>--- --- -- ----- -- --- ---- -- --- ---- -- ------ ------<br>--- ----- -- ----,183492.24499997217,183491.93000001833,182929.587,182935.33999996725,182936.562,183499.1,,18,romantic
screen,html.Screen,2_1_0_1_19,2021-04-26T11:21:41.609Z,,,,,,,,,,,,,,,,,53,,,,,,,,,,,,,,482.3450000412704,,response,,,,99,,,,,,,Space,keypress(Space),,,,,,,,---- -- ----- -- ------ - ------- --- ----------<br>------------- ------ ------ ---- ---- ------- ----- -- ----<br>-------- partner -- ---------- --- - --- ----- ----- ----<br>---- --- --- ----- --- ---- ---- ------- ----- ---- -------<br>--- --- -- ----- -- --- ---- -- --- ---- -- ------ ------<br>--- ----- -- ----,183981.78999999072,183981.44500004128,183492.109,183492.34500003513,183499.1,183985.168,,19,partner
screen,html.Screen,2_1_0_1_20,2021-04-26T11:21:42.364Z,,,,,,,,,,,,,,,,,53,,,,,,,,,,,,,,750.7520000064396,,response,,,,99,,,,,,,Space,keypress(Space),,,,,,,,---- -- ----- -- ------ - ------- --- ----------<br>------------- ------ ------ ---- ---- ------- ----- -- ----<br>-------- ------- is ---------- --- - --- ----- ----- ----<br>---- --- --- ----- --- ---- ---- ------- ----- ---- -------<br>--- --- -- ----- -- --- ---- -- --- ---- -- ------ ------<br>--- ----- -- ----,184736.2350000767,184735.92000000644,183978.217,183981.8850000156,183985.168,184742.14,,20,is
screen,html.Screen,2_1_0_1_21,2021-04-26T11:21:42.850Z,,,,,,,,,,,,,,,,,53,,,,,,,,,,,,,,479.7650000421563,,response,,,,99,,,,,,,Space,keypress(Space),,,,,,,,---- -- ----- -- ------ - ------- --- ----------<br>------------- ------ ------ ---- ---- ------- ----- -- ----<br>-------- ------- -- paramount. --- - --- ----- ----- ----<br>---- --- --- ----- --- ---- ---- ------- ----- ---- -------<br>--- --- -- ----- -- --- ---- -- --- ---- -- ------ ------<br>--- ----- -- ----,185222.24500006996,185221.90500004217,184735.148,184736.32999998517,184742.14,185228.261,,21,paramount.
screen,html.Screen,2_1_0_1_22,2021-04-26T11:21:43.497Z,,,,,,,,,,,,,,,,,53,,,,,,,,,,,,,,641.0690000159084,,response,,,,99,,,,,,,Space,keypress(Space),,,,,,,,---- -- ----- -- ------ - ------- --- ----------<br>------------- ------ ------ ---- ---- ------- ----- -- ----<br>-------- ------- -- ---------- But - --- ----- ----- ----<br>---- --- --- ----- --- ---- ---- ------- ----- ---- -------<br>--- --- -- ----- -- --- ---- -- --- ---- -- ------ ------<br>--- ----- -- ----,185869.6550000459,185869.3300000159,185221.279,185222.3300000187,185228.261,185874.087,,22,But
screen,html.Screen,2_1_0_1_23,2021-04-26T11:21:43.959Z,,,,,,,,,,,,,,,,,53,,,,,,,,,,,,,,456.8029999829014,,response,,,,99,,,,,,,Space,keypress(Space),,,,,,,,---- -- ----- -- ------ - ------- --- ----------<br>------------- ------ ------ ---- ---- ------- ----- -- ----<br>-------- ------- -- ---------- --- a --- ----- ----- ----<br>---- --- --- ----- --- ---- ---- ------- ----- ---- -------<br>--- --- -- ----- -- --- ---- -- --- ---- -- ------ ------<br>--- ----- -- ----,186331.2150000129,186330.8899999829,185867.112,185869.75000007078,185874.087,186343.107,,23,a
screen,html.Screen,2_1_0_1_24,2021-04-26T11:21:44.379Z,,,,,,,,,,,,,,,,,53,,,,,,,,,,,,,,407.81300002042553,,response,,,,99,,,,,,,Space,keypress(Space),,,,,,,,---- -- ----- -- ------ - ------- --- ----------<br>------------- ------ ------ ---- ---- ------- ----- -- ----<br>-------- ------- -- ---------- --- - new ----- ----- ----<br>---- --- --- ----- --- ---- ---- ------- ----- ---- -------<br>--- --- -- ----- -- --- ---- -- --- ---- -- ------ ------<br>--- ----- -- ----,186751.24000001233,186750.92000002041,186325.458,186331.3049999997,186343.107,186756.038,,24,new
screen,html.Screen,2_1_0_1_25,2021-04-26T11:21:44.772Z,,,,,,,,,,,,,,,,,53,,,,,,,,,,,,,,387.87199998431606,,response,,,,99,,,,,,,Space,keypress(Space),,,,,,,,---- -- ----- -- ------ - ------- --- ----------<br>------------- ------ ------ ---- ---- ------- ----- -- ----<br>-------- ------- -- ---------- --- - --- study ----- ----<br>---- --- --- ----- --- ---- ---- ------- ----- ---- -------<br>--- --- -- ----- -- --- ---- -- --- ---- -- ------ ------<br>--- ----- -- ----,187144.25999997184,187143.90999998432,186749.081,186751.32999999914,186756.038,187159.281,,25,study
screen,html.Screen,2_1_0_1_26,2021-04-26T11:21:45.163Z,,,,,,,,,,,,,,,,,53,,,,,,,,,,,,,,375.6489999652549,,response,,,,99,,,,,,,Space,keypress(Space),,,,,,,,---- -- ----- -- ------ - ------- --- ----------<br>------------- ------ ------ ---- ---- ------- ----- -- ----<br>-------- ------- -- ---------- --- - --- ----- finds ----<br>---- --- --- ----- --- ---- ---- ------- ----- ---- -------<br>--- --- -- ----- -- --- ---- -- --- ---- -- ------ ------<br>--- ----- -- ----,187535.26500007138,187534.92999996524,187137.969,187144.36500007287,187159.281,187540.774,,26,finds
screen,html.Screen,2_1_0_1_27,2021-04-26T11:21:45.553Z,,,,,,,,,,,,,,,,,53,,,,,,,,,,,,,,384.155999979208,,response,,,,99,,,,,,,Space,keypress(Space),,,,,,,,---- -- ----- -- ------ - ------- --- ----------<br>------------- ------ ------ ---- ---- ------- ----- -- ----<br>-------- ------- -- ---------- --- - --- ----- ----- that<br>---- --- --- ----- --- ---- ---- ------- ----- ---- -------<br>--- --- -- ----- -- --- ---- -- --- ---- -- ------ ------<br>--- ----- -- ----,187925.3000000026,187924.9299999792,187533.799,187535.35999997985,187540.774,187929.622,,27,that
screen,html.Screen,2_1_0_1_28,2021-04-26T11:21:46.033Z,,,,,,,,,,,,,,,,,53,,,,,,,,,,,,,,475.70300005792524,,response,,,,99,,,,,,,Space,keypress(Space),,,,,,,,---- -- ----- -- ------ - ------- --- ----------<br>------------- ------ ------ ---- ---- ------- ----- -- ----<br>-------- ------- -- ---------- --- - --- ----- ----- ----<br>it's --- --- ----- --- ---- ---- ------- ----- ---- -------<br>--- --- -- ----- -- --- ---- -- --- ---- -- ------ ------<br>--- ----- -- ----,188405.6649999693,188405.32500005793,187922.696,187925.4100000253,187929.622,188408.796,,28,it's
screen,html.Screen,2_1_0_1_29,2021-04-26T11:21:46.427Z,,,,,,,,,,,,,,,,,53,,,,,,,,,,,,,,390.05900005911826,,response,,,,99,,,,,,,Space,keypress(Space),,,,,,,,---- -- ----- -- ------ - ------- --- ----------<br>------------- ------ ------ ---- ---- ------- ----- -- ----<br>-------- ------- -- ---------- --- - --- ----- ----- ----<br>---- not --- ----- --- ---- ---- ------- ----- ---- -------<br>--- --- -- ----- -- --- ---- -- --- ---- -- ------ ------<br>--- ----- -- ----,188799.17500005104,188798.85500005912,188401.847,188405.76500003226,188408.796,188804.657,,29,not
screen,html.Screen,2_1_0_1_30,2021-04-26T11:21:47.052Z,,,,,,,,,,,,,,,,,53,,,,,,,,,,,,,,619.2880000459263,,response,,,,99,,,,,,,Space,keypress(Space),,,,,,,,---- -- ----- -- ------ - ------- --- ----------<br>------------- ------ ------ ---- ---- ------- ----- -- ----<br>-------- ------- -- ---------- --- - --- ----- ----- ----<br>---- --- how ----- --- ---- ---- ------- ----- ---- -------<br>--- --- -- ----- -- --- ---- -- --- ---- -- ------ ------<br>--- ----- -- ----,189424.25999999978,189423.94500004593,188797.677,188799.27000007592,188804.657,189429.665,,30,how
screen,html.Screen,2_1_0_1_31,2021-04-26T11:21:47.536Z,,,,,,,,,,,,,,,,,53,,,,,,,,,,,,,,478.30000002033194,,response,,,,99,,,,,,,Space,keypress(Space),,,,,,,,---- -- ----- -- ------ - ------- --- ----------<br>------------- ------ ------ ---- ---- ------- ----- -- ----<br>-------- ------- -- ---------- --- - --- ----- ----- ----<br>---- --- --- close --- ---- ---- ------- ----- ---- -------<br>--- --- -- ----- -- --- ---- -- --- ---- -- ------ ------<br>--- ----- -- ----,189908.294999972,189907.96500002034,189422.661,189424.35500002466,189429.665,189923.429,,31,close
screen,html.Screen,2_1_0_1_32,2021-04-26T11:21:47.913Z,,,,,,,,,,,,,,,,,53,,,,,,,,,,,,,,361.44600001210347,,response,,,,99,,,,,,,Space,keypress(Space),,,,,,,,---- -- ----- -- ------ - ------- --- ----------<br>------------- ------ ------ ---- ---- ------- ----- -- ----<br>-------- ------- -- ---------- --- - --- ----- ----- ----<br>---- --- --- ----- you ---- ---- ------- ----- ---- -------<br>--- --- -- ----- -- --- ---- -- --- ---- -- ------ ------<br>--- ----- -- ----,190285.2150000399,190284.8750000121,189901.85,189908.38999999687,189923.429,190290.769,,32,you
screen,html.Screen,2_1_0_1_33,2021-04-26T11:21:48.255Z,,,,,,,,,,,,,,,,,53,,,,,,,,,,,,,,336.1409999917669,,response,,,,99,,,,,,,Space,keypress(Space),,,,,,,,---- -- ----- -- ------ - ------- --- ----------<br>------------- ------ ------ ---- ---- ------- ----- -- ----<br>-------- ------- -- ---------- --- - --- ----- ----- ----<br>---- --- --- ----- --- feel ---- ------- ----- ---- -------<br>--- --- -- ----- -- --- ---- -- --- ---- -- ------ ------<br>--- ----- -- ----,190627.22999998368,190626.90999999177,190283.815,190285.31499998644,190290.769,190631.032,,33,feel
screen,html.Screen,2_1_0_1_34,2021-04-26T11:21:48.597Z,,,,,,,,,,,,,,,,,53,,,,,,,,,,,,,,337.8930000519613,,response,,,,99,,,,,,,Space,keypress(Space),,,,,,,,---- -- ----- -- ------ - ------- --- ----------<br>------------- ------ ------ ---- ---- ------- ----- -- ----<br>-------- ------- -- ---------- --- - --- ----- ----- ----<br>---- --- --- ----- --- ---- that ------- ----- ---- -------<br>--- --- -- ----- -- --- ---- -- --- ---- -- ------ ------<br>--- ----- -- ----,190969.35500006657,190968.92500005197,190624.072,190627.3199999705,190631.032,190971.345,,34,that
screen,html.Screen,2_1_0_1_35,2021-04-26T11:21:48.962Z,,,,,,,,,,,,,,,,,53,,,,,,,,,,,,,,362.5800000426534,,response,,,,99,,,,,,,Space,keypress(Space),,,,,,,,---- -- ----- -- ------ - ------- --- ----------<br>------------- ------ ------ ---- ---- ------- ----- -- ----<br>-------- ------- -- ---------- --- - --- ----- ----- ----<br>---- --- --- ----- --- ---- ---- matters ----- ---- -------<br>--- --- -- ----- -- --- ---- -- --- ---- -- ------ ------<br>--- ----- -- ----,191334.2399999965,191333.92500004265,190964.364,190969.44500005338,190971.345,191339.385,,35,matters
screen,html.Screen,2_1_0_1_36,2021-04-26T11:21:49.275Z,,,,,,,,,,,,,,,,,53,,,,,,,,,,,,,,307.4850000550505,,response,,,,99,,,,,,,Space,keypress(Space),,,,,,,,"---- -- ----- -- ------ - ------- --- ----------<br>------------- ------ ------ ---- ---- ------- ----- -- ----<br>-------- ------- -- ---------- --- - --- ----- ----- ----<br>---- --- --- ----- --- ---- ---- ------- most, ---- -------<br>--- --- -- ----- -- --- ---- -- --- ---- -- ------ ------<br>--- ----- -- ----",191647.20500004478,191646.87000005506,191332.401,191334.7800000338,191339.385,191651.888,,36,"most,"
screen,html.Screen,2_1_0_1_37,2021-04-26T11:21:49.642Z,,,,,,,,,,,,,,,,,53,,,,,,,,,,,,,,362.05700001333025,,response,,,,99,,,,,,,Space,keypress(Space),,,,,,,,---- -- ----- -- ------ - ------- --- ----------<br>------------- ------ ------ ---- ---- ------- ----- -- ----<br>-------- ------- -- ---------- --- - --- ----- ----- ----<br>---- --- --- ----- --- ---- ---- ------- ----- it's -------<br>--- --- -- ----- -- --- ---- -- --- ---- -- ------ ------<br>--- ----- -- ----,192014.29500000086,192013.94500001334,191644.928,191647.2950000316,191651.888,192019.95,,37,it's
screen,html.Screen,2_1_0_1_38,2021-04-26T11:21:50.014Z,,,,,,,,,,,,,,,,,53,,,,,,,,,,,,,,365.9199999982375,,response,,,,99,,,,,,,Space,keypress(Space),,,,,,,,---- -- ----- -- ------ - ------- --- ----------<br>------------- ------ ------ ---- ---- ------- ----- -- ----<br>-------- ------- -- ---------- --- - --- ----- ----- ----<br>---- --- --- ----- --- ---- ---- ------- ----- ---- whether<br>--- --- -- ----- -- --- ---- -- --- ---- -- ------ ------<br>--- ----- -- ----,192386.19500002824,192385.86999999825,192012.983,192014.39000002574,192019.95,192387.988,,38,whether
screen,html.Screen,2_1_0_1_39,2021-04-26T11:21:50.371Z,,,,,,,,,,,,,,,,,53,,,,,,,,,,,,,,355.4969999844907,,response,,,,99,,,,,,,Space,keypress(Space),,,,,,,,---- -- ----- -- ------ - ------- --- ----------<br>------------- ------ ------ ---- ---- ------- ----- -- ----<br>-------- ------- -- ---------- --- - --- ----- ----- ----<br>---- --- --- ----- --- ---- ---- ------- ----- ---- -------<br>you --- -- ----- -- --- ---- -- --- ---- -- ------ ------<br>--- ----- -- ----,192743.7950000167,192743.4849999845,192381.013,192386.28500001505,192387.988,192749.118,,39,you
screen,html.Screen,2_1_0_1_40,2021-04-26T11:21:50.730Z,,,,,,,,,,,,,,,,,53,,,,,,,,,,,,,,352.827000002173,,response,,,,99,,,,,,,Space,keypress(Space),,,,,,,,---- -- ----- -- ------ - ------- --- ----------<br>------------- ------ ------ ---- ---- ------- ----- -- ----<br>-------- ------- -- ---------- --- - --- ----- ----- ----<br>---- --- --- ----- --- ---- ---- ------- ----- ---- -------<br>--- are -- ----- -- --- ---- -- --- ---- -- ------ ------<br>--- ----- -- ----,193102.30000002775,193101.94500000216,192742.141,192743.87999996543,192749.118,193120.508,,40,are
screen,html.Screen,2_1_0_1_41,2021-04-26T11:21:51.055Z,,,,,,,,,,,,,,,,,53,,,,,,,,,,,,,,306.392000078602,,response,,,,99,,,,,,,Space,keypress(Space),,,,,,,,---- -- ----- -- ------ - ------- --- ----------<br>------------- ------ ------ ---- ---- ------- ----- -- ----<br>-------- ------- -- ---------- --- - --- ----- ----- ----<br>---- --- --- ----- --- ---- ---- ------- ----- ---- -------<br>--- --- as ----- -- --- ---- -- --- ---- -- ------ ------<br>--- ----- -- ----,193427.23999998998,193426.9000000786,193096.323,193102.39500005264,193120.508,193429.666,,41,as
screen,html.Screen,2_1_0_1_42,2021-04-26T11:21:51.454Z,,,,,,,,,,,,,,,,,53,,,,,,,,,,,,,,396.2340000543918,,response,,,,99,,,,,,,Space,keypress(Space),,,,,,,,---- -- ----- -- ------ - ------- --- ----------<br>------------- ------ ------ ---- ---- ------- ----- -- ----<br>-------- ------- -- ---------- --- - --- ----- ----- ----<br>---- --- --- ----- --- ---- ---- ------- ----- ---- -------<br>--- --- -- close -- --- ---- -- --- ---- -- ------ ------<br>--- ----- -- ----,193826.2200000463,193825.9000000544,193422.689,193427.3299999768,193429.666,193832.469,,42,close
screen,html.Screen,2_1_0_1_43,2021-04-26T11:21:51.836Z,,,,,,,,,,,,,,,,,53,,,,,,,,,,,,,,375.35600004860316,,response,,,,99,,,,,,,Space,keypress(Space),,,,,,,,---- -- ----- -- ------ - ------- --- ----------<br>------------- ------ ------ ---- ---- ------- ----- -- ----<br>-------- ------- -- ---------- --- - --- ----- ----- ----<br>---- --- --- ----- --- ---- ---- ------- ----- ---- -------<br>--- --- -- ----- as --- ---- -- --- ---- -- ------ ------<br>--- ----- -- ----,194208.1650000764,194207.82500004862,193825.492,193826.30499999505,193832.469,194214.406,,43,as
screen,html.Screen,2_1_0_1_44,2021-04-26T11:21:52.175Z,,,,,,,,,,,,,,,,,53,,,,,,,,,,,,,,332.4540000022098,,response,,,,99,,,,,,,Space,keypress(Space),,,,,,,,---- -- ----- -- ------ - ------- --- ----------<br>------------- ------ ------ ---- ---- ------- ----- -- ----<br>-------- ------- -- ---------- --- - --- ----- ----- ----<br>---- --- --- ----- --- ---- ---- ------- ----- ---- -------<br>--- --- -- ----- -- you ---- -- --- ---- -- ------ ------<br>--- ----- -- ----,194547.19000007026,194546.8600000022,194207.441,194208.25500006322,194214.406,194569.01,,44,you
screen,html.Screen,2_1_0_1_45,2021-04-26T11:21:52.517Z,,,,,,,,,,,,,,,,,53,,,,,,,,,,,,,,319.779999997234,,response,,,,99,,,,,,,Space,keypress(Space),,,,,,,,---- -- ----- -- ------ - ------- --- ----------<br>------------- ------ ------ ---- ---- ------- ----- -- ----<br>-------- ------- -- ---------- --- - --- ----- ----- ----<br>---- --- --- ----- --- ---- ---- ------- ----- ---- -------<br>--- --- -- ----- -- --- want -- --- ---- -- ------ ------<br>--- ----- -- ----,194889.10000002943,194888.78999999724,194540.777,194547.275000019,194569.01,194894.971,,45,want
screen,html.Screen,2_1_0_1_46,2021-04-26T11:21:52.903Z,,,,,,,,,,,,,,,,,53,,,,,,,,,,,,,,379.9190000006056,,response,,,,99,,,,,,,Space,keypress(Space),,,,,,,,---- -- ----- -- ------ - ------- --- ----------<br>------------- ------ ------ ---- ---- ------- ----- -- ----<br>-------- ------- -- ---------- --- - --- ----- ----- ----<br>---- --- --- ----- --- ---- ---- ------- ----- ---- -------<br>--- --- -- ----- -- --- ---- to --- ---- -- ------ ------<br>--- ----- -- ----,195275.2249999903,195274.8900000006,194887.983,194889.19000001624,194894.971,195276.916,,46,to
screen,html.Screen,2_1_0_1_47,2021-04-26T11:21:53.288Z,,,,,,,,,,,,,,,,,53,,,,,,,,,,,,,,382.9539999740373,,response,,,,99,,,,,,,Space,keypress(Space),,,,,,,,"---- -- ----- -- ------ - ------- --- ----------<br>------------- ------ ------ ---- ---- ------- ----- -- ----<br>-------- ------- -- ---------- --- - --- ----- ----- ----<br>---- --- --- ----- --- ---- ---- ------- ----- ---- -------<br>--- --- -- ----- -- --- ---- -- be, ---- -- ------ ------<br>--- ----- -- ----",195660.2150000399,195659.86999997403,195269.931,195275.31000005547,195276.916,195665.795,,47,"be,"
screen,html.Screen,2_1_0_1_48,2021-04-26T11:21:53.724Z,,,,,,,,,,,,,,,,,53,,,,,,,,,,,,,,430.3900000312424,,response,,,,99,,,,,,,Space,keypress(Space),,,,,,,,---- -- ----- -- ------ - ------- --- ----------<br>------------- ------ ------ ---- ---- ------- ----- -- ----<br>-------- ------- -- ---------- --- - --- ----- ----- ----<br>---- --- --- ----- --- ---- ---- ------- ----- ---- -------<br>--- --- -- ----- -- --- ---- -- --- even -- ------ ------<br>--- ----- -- ----,196096.55000001658,196096.18500003126,195658.837,195660.3050000267,195665.795,196103.306,,48,even
screen,html.Screen,2_1_0_1_49,2021-04-26T11:21:54.131Z,,,,,,,,,,,,,,,,,53,,,,,,,,,,,,,,399.61900003705523,,response,,,,99,,,,,,,Space,keypress(Space),,,,,,,,---- -- ----- -- ------ - ------- --- ----------<br>------------- ------ ------ ---- ---- ------- ----- -- ----<br>-------- ------- -- ---------- --- - --- ----- ----- ----<br>---- --- --- ----- --- ---- ---- ------- ----- ---- -------<br>--- --- -- ----- -- --- ---- -- --- ---- if ------ ------<br>--- ----- -- ----,196503.28499998432,196502.92500003707,196096.328,196096.63000004366,196103.306,196506.052,,49,if
screen,html.Screen,2_1_0_1_50,2021-04-26T11:21:54.590Z,,,,,,,,,,,,,,,,,53,,,,,,,,,,,,,,456.31799996472546,,response,,,,99,,,,,,,Space,keypress(Space),,,,,,,,---- -- ----- -- ------ - ------- --- ----------<br>------------- ------ ------ ---- ---- ------- ----- -- ----<br>-------- ------- -- ---------- --- - --- ----- ----- ----<br>---- --- --- ----- --- ---- ---- ------- ----- ---- -------<br>--- --- -- ----- -- --- ---- -- --- ---- -- that's ------<br>--- ----- -- ----,196962.73500006646,196962.36999996472,196499.108,196503.38500004727,196506.052,196964.391,,50,that's
screen,html.Screen,2_1_0_1_51,2021-04-26T11:21:55.026Z,,,,,,,,,,,,,,,,,53,,,,,,,,,,,,,,433.56899997295113,,response,,,,99,,,,,,,Space,keypress(Space),,,,,,,,---- -- ----- -- ------ - ------- --- ----------<br>------------- ------ ------ ---- ---- ------- ----- -- ----<br>-------- ------- -- ---------- --- - --- ----- ----- ----<br>---- --- --- ----- --- ---- ---- ------- ----- ---- -------<br>--- --- -- ----- -- --- ---- -- --- ---- -- ------ really<br>--- ----- -- ----,197398.2950000791,197397.95999997295,196957.441,196962.82500005327,196964.391,197401.88,,51,really
screen,html.Screen,2_1_0_1_52,2021-04-26T11:21:55.410Z,,,,,,,,,,,,,,,,,53,,,,,,,,,,,,,,379.9750000665663,,response,,,,99,,,,,,,Space,keypress(Space),,,,,,,,---- -- ----- -- ------ - ------- --- ----------<br>------------- ------ ------ ---- ---- ------- ----- -- ----<br>-------- ------- -- ---------- --- - --- ----- ----- ----<br>---- --- --- ----- --- ---- ---- ------- ----- ---- -------<br>--- --- -- ----- -- --- ---- -- --- ---- -- ------ ------<br>not ----- -- ----,197782.1900000563,197781.85500006657,197395.699,197398.37499998976,197401.88,197783.846,,52,not
screen,html.Screen,2_1_0_1_53,2021-04-26T11:21:55.765Z,,,,,,,,,,,,,,,,,53,,,,,,,,,,,,,,353.0390000435582,,response,,,,99,,,,,,,Space,keypress(Space),,,,,,,,---- -- ----- -- ------ - ------- --- ----------<br>------------- ------ ------ ---- ---- ------- ----- -- ----<br>-------- ------- -- ---------- --- - --- ----- ----- ----<br>---- --- --- ----- --- ---- ---- ------- ----- ---- -------<br>--- --- -- ----- -- --- ---- -- --- ---- -- ------ ------<br>--- close -- ----,198137.25000002887,198136.88500004355,197776.89,197782.2800000431,197783.846,198151.972,,53,close
screen,html.Screen,2_1_0_1_54,2021-04-26T11:21:56.182Z,,,,,,,,,,,,,,,,,53,,,,,,,,,,,,,,401.93800001690397,,response,,,,99,,,,,,,Space,keypress(Space),,,,,,,,---- -- ----- -- ------ - ------- --- ----------<br>------------- ------ ------ ---- ---- ------- ----- -- ----<br>-------- ------- -- ---------- --- - --- ----- ----- ----<br>---- --- --- ----- --- ---- ---- ------- ----- ---- -------<br>--- --- -- ----- -- --- ---- -- --- ---- -- ------ ------<br>--- ----- at ----,198554.23000000883,198553.9100000169,198131.064,198137.3349999776,198151.972,198566.069,,54,at
screen,html.Screen,2_1_0_1_55,2021-04-26T11:21:57.074Z,,,,,,,,,,,,,,,,,53,,,,,,,,,,,,,,879.8659999670053,,response,,,,99,,,,,,,Space,keypress(Space),,,,,,,,---- -- ----- -- ------ - ------- --- ----------<br>------------- ------ ------ ---- ---- ------- ----- -- ----<br>-------- ------- -- ---------- --- - --- ----- ----- ----<br>---- --- --- ----- --- ---- ---- ------- ----- ---- -------<br>--- --- -- ----- -- --- ---- -- --- ---- -- ------ ------<br>--- ----- -- all.,199446.27000007313,199445.934999967,198547.73,198554.3100000359,198566.069,199450.524,,55,all.
Item 99,flow.Loop,2_1_0_1,2021-04-26T11:21:57.074Z,,,,,,,,,,,,,,,,,,,,,,,,,,,,,,,26176.04399996699,,completion,,,,,B,,,,,,,,,,,silence,,,,,199446.4549999684,199445.934999967,173262.912,173263.29500006977,173269.891,199450.524,,,
Question 1,html.Screen,2_1_0_2,2021-04-26T11:22:03.949Z,,,,,,,,,,,,,,,,,,,,,,,,,,,,true,FALSE,,6870.150999966281,,response,,,,99,B,,,,,,FALSE,click #choice-2,,,,silence,,,,,206321.29500003066,206320.6749999663,199443.537,199446.53000007384,199450.524,206325.527,,,
Question 2,html.Screen,2_1_0_3,2021-04-26T11:22:11.155Z,,,,,,,,,,,,,,,,,,,,,,,,,,,,true,TRUE,,7201.1230000143405,,response,,,,99,B,,,,,,TRUE,click #choice-1,,,,silence,,,,,213527.33000006992,213526.65000001434,206318.609,206321.41500001308,206325.527,213533.945,,,
Item 99,flow.Sequence,2_1_0,2021-04-26T11:22:11.155Z,,,,,,,,,,,,,,,,,,,,,,,,,,,,,,,50256.790000014356,,completion,,,,,,,,,,,,,,,,,,,,,213527.4849999696,213526.65000001434,163262.911,163266.9650000753,163269.86,213533.945,,,
Holding screen,html.Screen,2_1_1_0,2021-04-26T11:22:21.155Z,,,,,,,,,,,,,,,,,,,,,,,,,,,,,,,9999.986999999994,,timeout,,,,,,,,,,,,,,,,,,,,,223527.2549999645,223526.999,213526.962,213527.5799999945,213533.945,223533.932,,,
screen,html.Screen,2_1_1_1_0,2021-04-26T11:22:25.377Z,,,,,,,,,,,,,,,,,54,,,,,,,,,,,,,,4214.913000052824,,response,,,,100,,,,,,,Space,keypress(Space),,,,,,,,At --- ---- --- ------ ----- ------- ---- -- --- ------- --<br>------- ---------- ------ -- ----- -- ----- -- ---- ------<br>--- ----- --- --- ------ -------- ----- --- ------ ----- --<br>----- ----- ---------- --- --- ------ ------ ---- -- ------<br>------- --- ------ ----- --- ---- ------- -- ---- --- --<br>------- ------,227749.23499999568,227748.84500005282,223526.999,223527.36499998719,223533.932,227770.809,,0,At
screen,html.Screen,2_1_1_1_1,2021-04-26T11:22:25.726Z,,,,,,,,,,,,,,,,,54,,,,,,,,,,,,,,327.09599997324403,,response,,,,100,,,,,,,Space,keypress(Space),,,,,,,,-- the ---- --- ------ ----- ------- ---- -- --- ------- --<br>------- ---------- ------ -- ----- -- ----- -- ---- ------<br>--- ----- --- --- ------ -------- ----- --- ------ ----- --<br>----- ----- ---------- --- --- ------ ------ ---- -- ------<br>------- --- ------ ----- --- ---- ------- -- ---- --- --<br>------- ------,228098.2550000772,228097.90499997325,227748.937,227749.33000002056,227770.809,228103.394,,1,the
screen,html.Screen,2_1_1_1_2,2021-04-26T11:22:26.051Z,,,,,,,,,,,,,,,,,54,,,,,,,,,,,,,,319.5310000789759,,response,,,,100,,,,,,,Space,keypress(Space),,,,,,,,-- --- time --- ------ ----- ------- ---- -- --- ------- --<br>------- ---------- ------ -- ----- -- ----- -- ---- ------<br>--- ----- --- --- ------ -------- ----- --- ------ ----- --<br>----- ----- ---------- --- --- ------ ------ ---- -- ------<br>------- --- ------ ----- --- ---- ------- -- ---- --- --<br>------- ------,228423.2600000687,228422.92500007898,228096.425,228098.34999998566,228103.394,228429.803,,2,time
screen,html.Screen,2_1_1_1_3,2021-04-26T11:22:26.405Z,,,,,,,,,,,,,,,,,54,,,,,,,,,,,,,,347.08200005750405,,response,,,,100,,,,,,,Space,keypress(Space),,,,,,,,-- --- ---- the ------ ----- ------- ---- -- --- ------- --<br>------- ---------- ------ -- ----- -- ----- -- ---- ------<br>--- ----- --- --- ------ -------- ----- --- ------ ----- --<br>----- ----- ---------- --- --- ------ ------ ---- -- ------<br>------- --- ------ ----- --- ---- ------- -- ---- --- --<br>------- ------,228777.1949999733,228776.88500005752,228422.79,228423.35499997716,228429.803,228783.953,,3,the
screen,html.Screen,2_1_1_1_4,2021-04-26T11:22:26.750Z,,,,,,,,,,,,,,,,,54,,,,,,,,,,,,,,337.8720000383619,,response,,,,100,,,,,,,Space,keypress(Space),,,,,,,,-- --- ---- --- French ----- ------- ---- -- --- ------- --<br>------- ---------- ------ -- ----- -- ----- -- ---- ------<br>--- ----- --- --- ------ -------- ----- --- ------ ----- --<br>----- ----- ---------- --- --- ------ ------ ---- -- ------<br>------- --- ------ ----- --- ---- ------- -- ---- --- --<br>------- ------,229122.18000006396,229121.82500003837,228776.995,228777.28000003844,228783.953,229124.214,,4,French
screen,html.Screen,2_1_1_1_5,2021-04-26T11:22:27.079Z,,,,,,,,,,,,,,,,,54,,,,,,,,,,,,,,326.686000054382,,response,,,,100,,,,,,,Space,keypress(Space),,,,,,,,-- --- ---- --- ------ crown ------- ---- -- --- ------- --<br>------- ---------- ------ -- ----- -- ----- -- ---- ------<br>--- ----- --- --- ------ -------- ----- --- ------ ----- --<br>----- ----- ---------- --- --- ------ ------ ---- -- ------<br>------- --- ------ ----- --- ---- ------- -- ---- --- --<br>------- ------,229451.20000001043,229450.9000000544,229117.273,229122.2650000127,229124.214,229457.573,,5,crown
screen,html.Screen,2_1_1_1_6,2021-04-26T11:22:27.491Z,,,,,,,,,,,,,,,,,54,,,,,,,,,,,,,,405.37699998062453,,response,,,,100,,,,,,,Space,keypress(Space),,,,,,,,-- --- ---- --- ------ ----- secured ---- -- --- ------- --<br>------- ---------- ------ -- ----- -- ----- -- ---- ------<br>--- ----- --- --- ------ -------- ----- --- ------ ----- --<br>----- ----- ---------- --- --- ------ ------ ---- -- ------<br>------- --- ------ ----- --- ---- ------- -- ---- --- --<br>------- ------,229863.2650000509,229862.94999998063,229450.619,229451.29500003532,229457.573,229867.272,,6,secured
screen,html.Screen,2_1_1_1_7,2021-04-26T11:22:27.796Z,,,,,,,,,,,,,,,,,54,,,,,,,,,,,,,,300.5779999688966,,response,,,,100,,,,,,,Space,keypress(Space),,,,,,,,-- --- ---- --- ------ ----- ------- much -- --- ------- --<br>------- ---------- ------ -- ----- -- ----- -- ---- ------<br>--- ----- --- --- ------ -------- ----- --- ------ ----- --<br>----- ----- ---------- --- --- ------ ------ ---- -- ------<br>------- --- ------ ----- --- ---- ------- -- ---- --- --<br>------- ------,230168.20000007283,230167.8499999689,229860.291,229863.34500007797,229867.272,230172.846,,7,much
screen,html.Screen,2_1_1_1_8,2021-04-26T11:22:28.101Z,,,,,,,,,,,,,,,,,54,,,,,,,,,,,,,,300.0889999688661,,response,,,,100,,,,,,,Space,keypress(Space),,,,,,,,-- --- ---- --- ------ ----- ------- ---- of --- ------- --<br>------- ---------- ------ -- ----- -- ----- -- ---- ------<br>--- ----- --- --- ------ -------- ----- --- ------ ----- --<br>----- ----- ---------- --- --- ------ ------ ---- -- ------<br>------- --- ------ ----- --- ---- ------- -- ---- --- --<br>------- ------,230473.23000000324,230472.93499996886,230165.892,230168.28500002157,230172.846,230478.407,,8,of
screen,html.Screen,2_1_1_1_9,2021-04-26T11:22:28.441Z,,,,,,,,,,,,,,,,,54,,,,,,,,,,,,,,334.48300005926285,,response,,,,100,,,,,,,Space,keypress(Space),,,,,,,,-- --- ---- --- ------ ----- ------- ---- -- its ------- --<br>------- ---------- ------ -- ----- -- ----- -- ---- ------<br>--- ----- --- --- ------ -------- ----- --- ------ ----- --<br>----- ----- ---------- --- --- ------ ------ ---- -- ------<br>------- --- ------ ----- --- ---- ------- -- ---- --- --<br>------- ------,230813.1900000153,230812.89000005927,230471.423,230473.3150000684,230478.407,230818.69,,9,its
screen,html.Screen,2_1_1_1_10,2021-04-26T11:22:28.718Z,,,,,,,,,,,,,,,,,54,,,,,,,,,,,,,,271.09000003844267,,response,,,,100,,,,,,,Space,keypress(Space),,,,,,,,-- --- ---- --- ------ ----- ------- ---- -- --- revenue --<br>------- ---------- ------ -- ----- -- ----- -- ---- ------<br>--- ----- --- --- ------ -------- ----- --- ------ ----- --<br>----- ----- ---------- --- --- ------ ------ ---- -- ------<br>------- --- ------ ----- --- ---- ------- -- ---- --- --<br>------- ------,231090.13500006404,231089.78000003844,230811.724,230813.2700000424,230818.69,231096.476,,10,revenue
screen,html.Screen,2_1_1_1_11,2021-04-26T11:22:29.170Z,,,,,,,,,,,,,,,,,54,,,,,,,,,,,,,,445.41399999315036,,response,,,,100,,,,,,,Space,keypress(Space),,,,,,,,-- --- ---- --- ------ ----- ------- ---- -- --- ------- by<br>------- ---------- ------ -- ----- -- ----- -- ---- ------<br>--- ----- --- --- ------ -------- ----- --- ------ ----- --<br>----- ----- ---------- --- --- ------ ------ ---- -- ------<br>------- --- ------ ----- --- ---- ------- -- ---- --- --<br>------- ------,231542.20999998506,231541.88999999315,231089.498,231090.22000001278,231096.476,231547.863,,11,by
screen,html.Screen,2_1_1_1_12,2021-04-26T11:22:29.534Z,,,,,,,,,,,,,,,,,54,,,,,,,,,,,,,,358.60700004536193,,response,,,,100,,,,,,,Space,keypress(Space),,,,,,,,-- --- ---- --- ------ ----- ------- ---- -- --- ------- --<br>issuing ---------- ------ -- ----- -- ----- -- ---- ------<br>--- ----- --- --- ------ -------- ----- --- ------ ----- --<br>----- ----- ---------- --- --- ------ ------ ---- -- ------<br>------- --- ------ ----- --- ---- ------- -- ---- --- --<br>------- ------,231906.78499999922,231906.47000004537,231540.871,231542.29500005022,231547.863,231908.938,,12,issuing
screen,html.Screen,2_1_1_1_13,2021-04-26T11:22:30.090Z,,,,,,,,,,,,,,,,,54,,,,,,,,,,,,,,552.9520000350603,,response,,,,100,,,,,,,Space,keypress(Space),,,,,,,,-- --- ---- --- ------ ----- ------- ---- -- --- ------- --<br>------- government ------ -- ----- -- ----- -- ---- ------<br>--- ----- --- --- ------ -------- ----- --- ------ ----- --<br>----- ----- ---------- --- --- ------ ------ ---- -- ------<br>------- --- ------ ----- --- ---- ------- -- ---- --- --<br>------- ------,232462.18000003137,232461.89000003505,231902.01,231906.8650000263,231908.938,232464.503,,13,government
screen,html.Screen,2_1_1_1_14,2021-04-26T11:22:30.629Z,,,,,,,,,,,,,,,,,54,,,,,,,,,,,,,,536.3669999889389,,response,,,,100,,,,,,,Space,keypress(Space),,,,,,,,-- --- ---- --- ------ ----- ------- ---- -- --- ------- --<br>------- ---------- bonds. -- ----- -- ----- -- ---- ------<br>--- ----- --- --- ------ -------- ----- --- ------ ----- --<br>----- ----- ---------- --- --- ------ ------ ---- -- ------<br>------- --- ------ ----- --- ---- ------- -- ---- --- --<br>------- ------,233001.21999997646,233000.86999998894,232457.554,232462.2649999801,232464.503,233006.192,,14,bonds.
screen,html.Screen,2_1_1_1_15,2021-04-26T11:22:31.076Z,,,,,,,,,,,,,,,,,54,,,,,,,,,,,,,,441.7080000283022,,response,,,,100,,,,,,,Space,keypress(Space),,,,,,,,-- --- ---- --- ------ ----- ------- ---- -- --- ------- --<br>------- ---------- ------ In ----- -- ----- -- ---- ------<br>--- ----- --- --- ------ -------- ----- --- ------ ----- --<br>----- ----- ---------- --- --- ------ ------ ---- -- ------<br>------- --- ------ ----- --- ---- ------- -- ---- --- --<br>------- ------,233448.22999997996,233447.9000000283,232999.229,233001.31000007968,233006.192,233450.62,,15,In
screen,html.Screen,2_1_1_1_16,2021-04-26T11:22:31.691Z,,,,,,,,,,,,,,,,,54,,,,,,,,,,,,,,612.2200000277953,,response,,,,100,,,,,,,Space,keypress(Space),,,,,,,,"-- --- ---- --- ------ ----- ------- ---- -- --- ------- --<br>------- ---------- ------ -- 1727, -- ----- -- ---- ------<br>--- ----- --- --- ------ -------- ----- --- ------ ----- --<br>----- ----- ---------- --- --- ------ ------ ---- -- ------<br>------- --- ------ ----- --- ---- ------- -- ---- --- --<br>------- ------",234063.18499997724,234062.8400000278,233443.654,233448.31999996677,233450.62,234068.672,,16,"1727,"
screen,html.Screen,2_1_1_1_17,2021-04-26T11:22:32.283Z,,,,,,,,,,,,,,,,,54,,,,,,,,,,,,,,586.1829999715846,,response,,,,100,,,,,,,Space,keypress(Space),,,,,,,,-- --- ---- --- ------ ----- ------- ---- -- --- ------- --<br>------- ---------- ------ -- ----- in ----- -- ---- ------<br>--- ----- --- --- ------ -------- ----- --- ------ ----- --<br>----- ----- ---------- --- --- ------ ------ ---- -- ------<br>------- --- ------ ----- --- ---- ------- -- ---- --- --<br>------- ------,234655.19499999937,234654.85499997158,234061.707,234063.27500008047,234068.672,234658.956,,17,in
screen,html.Screen,2_1_1_1_18,2021-04-26T11:22:33.965Z,,,,,,,,,,,,,,,,,54,,,,,,,,,,,,,,1678.413999964716,,response,,,,100,,,,,,,Space,keypress(Space),,,,,,,,-- --- ---- --- ------ ----- ------- ---- -- --- ------- --<br>------- ---------- ------ -- ----- -- order -- ---- ------<br>--- ----- --- --- ------ -------- ----- --- ------ ----- --<br>----- ----- ---------- --- --- ------ ------ ---- -- ------<br>------- --- ------ ----- --- ---- ------- -- ---- --- --<br>------- ------,236337.7099999925,236337.36999996472,234651.969,234655.28499998618,234658.956,236339.522,,18,order
screen,html.Screen,2_1_1_1_19,2021-04-26T11:22:34.269Z,,,,,,,,,,,,,,,,,54,,,,,,,,,,,,,,301.3630000007106,,response,,,,100,,,,,,,Space,keypress(Space),,,,,,,,-- --- ---- --- ------ ----- ------- ---- -- --- ------- --<br>------- ---------- ------ -- ----- -- ----- to ---- ------<br>--- ----- --- --- ------ -------- ----- --- ------ ----- --<br>----- ----- ---------- --- --- ------ ------ ---- -- ------<br>------- --- ------ ----- --- ---- ------- -- ---- --- --<br>------- ------,236641.20499999262,236640.8850000007,236332.481,236337.79500005767,236339.522,236645.071,,19,to
screen,html.Screen,2_1_1_1_20,2021-04-26T11:22:34.560Z,,,,,,,,,,,,,,,,,54,,,,,,,,,,,,,,286.72900002030656,,response,,,,100,,,,,,,Space,keypress(Space),,,,,,,,-- --- ---- --- ------ ----- ------- ---- -- --- ------- --<br>------- ---------- ------ -- ----- -- ----- -- save ------<br>--- ----- --- --- ------ -------- ----- --- ------ ----- --<br>----- ----- ---------- --- --- ------ ------ ---- -- ------<br>------- --- ------ ----- --- ---- ------- -- ---- --- --<br>------- ------,236932.11499997415,236931.8000000203,236638.14,236641.29000005778,236645.071,236936.737,,20,save
screen,html.Screen,2_1_1_1_21,2021-04-26T11:22:34.831Z,,,,,,,,,,,,,,,,,54,,,,,,,,,,,,,,266.1530000732455,,response,,,,100,,,,,,,Space,keypress(Space),,,,,,,,"-- --- ---- --- ------ ----- ------- ---- -- --- ------- --<br>------- ---------- ------ -- ----- -- ----- -- ---- money,<br>--- ----- --- --- ------ -------- ----- --- ------ ----- --<br>----- ----- ---------- --- --- ------ ------ ---- -- ------<br>------- --- ------ ----- --- ---- ------- -- ---- --- --<br>------- ------",237203.20500002708,237202.89000007324,236929.77,236932.2000000393,236936.737,237207.593,,21,"money,"
screen,html.Screen,2_1_1_1_22,2021-04-26T11:22:35.232Z,,,,,,,,,,,,,,,,,54,,,,,,,,,,,,,,396.3369999829447,,response,,,,100,,,,,,,Space,keypress(Space),,,,,,,,-- --- ---- --- ------ ----- ------- ---- -- --- ------- --<br>------- ---------- ------ -- ----- -- ----- -- ---- ------<br>the ----- --- --- ------ -------- ----- --- ------ ----- --<br>----- ----- ---------- --- --- ------ ------ ---- -- ------<br>------- --- ------ ----- --- ---- ------- -- ---- --- --<br>------- ------,237604.27999997046,237603.92999998294,237200.643,237203.28500005417,237207.593,237610.375,,22,the
screen,html.Screen,2_1_1_1_23,2021-04-26T11:22:35.577Z,,,,,,,,,,,,,,,,,54,,,,,,,,,,,,,,338.86000006552786,,response,,,,100,,,,,,,Space,keypress(Space),,,,,,,,-- --- ---- --- ------ ----- ------- ---- -- --- ------- --<br>------- ---------- ------ -- ----- -- ----- -- ---- ------<br>--- state --- --- ------ -------- ----- --- ------ ----- --<br>----- ----- ---------- --- --- ------ ------ ---- -- ------<br>------- --- ------ ----- --- ---- ------- -- ---- --- --<br>------- ------,237949.5599999791,237949.23500006553,237603.405,237604.35999999754,237610.375,237970.729,,23,state
screen,html.Screen,2_1_1_1_24,2021-04-26T11:22:35.847Z,,,,,,,,,,,,,,,,,54,,,,,,,,,,,,,,248.15599998022662,,response,,,,100,,,,,,,Space,keypress(Space),,,,,,,,-- --- ---- --- ------ ----- ------- ---- -- --- ------- --<br>------- ---------- ------ -- ----- -- ----- -- ---- ------<br>--- ----- cut --- ------ -------- ----- --- ------ ----- --<br>----- ----- ---------- --- --- ------ ------ ---- -- ------<br>------- --- ------ ----- --- ---- ------- -- ---- --- --<br>------- ------,238219.2100000102,238218.88499998022,237943.693,237949.64000000618,237970.729,238221.479,,24,cut
screen,html.Screen,2_1_1_1_25,2021-04-26T11:22:36.134Z,,,,,,,,,,,,,,,,,54,,,,,,,,,,,,,,284.45099998480873,,response,,,,100,,,,,,,Space,keypress(Space),,,,,,,,-- --- ---- --- ------ ----- ------- ---- -- --- ------- --<br>------- ---------- ------ -- ----- -- ----- -- ---- ------<br>--- ----- --- the ------ -------- ----- --- ------ ----- --<br>----- ----- ---------- --- --- ------ ------ ---- -- ------<br>------- --- ------ ----- --- ---- ------- -- ---- --- --<br>------- ------,238506.2850000104,238505.9299999848,238214.525,238219.29500007536,238221.479,238513.169,,25,the
screen,html.Screen,2_1_1_1_26,2021-04-26T11:22:36.377Z,,,,,,,,,,,,,,,,,54,,,,,,,,,,,,,,235.64600005722605,,response,,,,100,,,,,,,Space,keypress(Space),,,,,,,,-- --- ---- --- ------ ----- ------- ---- -- --- ------- --<br>------- ---------- ------ -- ----- -- ----- -- ---- ------<br>--- ----- --- --- bonds' -------- ----- --- ------ ----- --<br>----- ----- ---------- --- --- ------ ------ ---- -- ------<br>------- --- ------ ----- --- ---- ------- -- ---- --- --<br>------- ------,238749.0949999774,238748.81500005722,238506.179,238506.3749999972,238513.169,238756.208,,26,bonds'
screen,html.Screen,2_1_1_1_27,2021-04-26T11:22:36.649Z,,,,,,,,,,,,,,,,,54,,,,,,,,,,,,,,264.59200005661114,,response,,,,100,,,,,,,Space,keypress(Space),,,,,,,,-- --- ---- --- ------ ----- ------- ---- -- --- ------- --<br>------- ---------- ------ -- ----- -- ----- -- ---- ------<br>--- ----- --- --- ------ interest ----- --- ------ ----- --<br>----- ----- ---------- --- --- ------ ------ ---- -- ------<br>------- --- ------ ----- --- ---- ------- -- ---- --- --<br>------- ------,239021.15000004414,239020.80000005662,238749.258,238749.17500000447,238756.208,239027.049,,27,interest
screen,html.Screen,2_1_1_1_28,2021-04-26T11:22:36.990Z,,,,,,,,,,,,,,,,,54,,,,,,,,,,,,,,334.81599998439196,,response,,,,100,,,,,,,Space,keypress(Space),,,,,,,,-- --- ---- --- ------ ----- ------- ---- -- --- ------- --<br>------- ---------- ------ -- ----- -- ----- -- ---- ------<br>--- ----- --- --- ------ -------- rate. --- ------ ----- --<br>----- ----- ---------- --- --- ------ ------ ---- -- ------<br>------- --- ------ ----- --- ---- ------- -- ---- --- --<br>------- ------,239362.1549999807,239361.8649999844,239020.086,239021.23499999288,239027.049,239367.323,,28,rate.
screen,html.Screen,2_1_1_1_29,2021-04-26T11:22:37.390Z,,,,,,,,,,,,,,,,,54,,,,,,,,,,,,,,394.5470000457426,,response,,,,100,,,,,,,Space,keypress(Space),,,,,,,,-- --- ---- --- ------ ----- ------- ---- -- --- ------- --<br>------- ---------- ------ -- ----- -- ----- -- ---- ------<br>--- ----- --- --- ------ -------- ----- The ------ ----- --<br>----- ----- ---------- --- --- ------ ------ ---- -- ------<br>------- --- ------ ----- --- ---- ------- -- ---- --- --<br>------- ------,239762.18000007793,239761.87000004575,239360.363,239362.24000004586,239367.323,239773.156,,29,The
screen,html.Screen,2_1_1_1_30,2021-04-26T11:22:37.851Z,,,,,,,,,,,,,,,,,54,,,,,,,,,,,,,,449.6739999842539,,response,,,,100,,,,,,,Space,keypress(Space),,,,,,,,-- --- ---- --- ------ ----- ------- ---- -- --- ------- --<br>------- ---------- ------ -- ----- -- ----- -- ---- ------<br>--- ----- --- --- ------ -------- ----- --- market ----- --<br>----- ----- ---------- --- --- ------ ------ ---- -- ------<br>------- --- ------ ----- --- ---- ------- -- ---- --- --<br>------- ------,240223.17999997176,240222.82999998424,239756.189,239762.27000006475,239773.156,240228.419,,30,market
screen,html.Screen,2_1_1_1_31,2021-04-26T11:22:38.155Z,,,,,,,,,,,,,,,,,54,,,,,,,,,,,,,,298.89100003405474,,response,,,,100,,,,,,,Space,keypress(Space),,,,,,,,-- --- ---- --- ------ ----- ------- ---- -- --- ------- --<br>------- ---------- ------ -- ----- -- ----- -- ---- ------<br>--- ----- --- --- ------ -------- ----- --- ------ value --<br>----- ----- ---------- --- --- ------ ------ ---- -- ------<br>------- --- ------ ----- --- ---- ------- -- ---- --- --<br>------- ------,240527.72000001278,240527.31000003405,240221.478,240223.27499999665,240228.419,240533.978,,31,value
screen,html.Screen,2_1_1_1_32,2021-04-26T11:22:38.437Z,,,,,,,,,,,,,,,,,54,,,,,,,,,,,,,,274.9520000574412,,response,,,,100,,,,,,,Space,keypress(Space),,,,,,,,-- --- ---- --- ------ ----- ------- ---- -- --- ------- --<br>------- ---------- ------ -- ----- -- ----- -- ---- ------<br>--- ----- --- --- ------ -------- ----- --- ------ ----- of<br>----- ----- ---------- --- --- ------ ------ ---- -- ------<br>------- --- ------ ----- --- ---- ------- -- ---- --- --<br>------- ------,240809.31000004057,240808.93000005744,240526.999,240527.8099999996,240533.978,240811.779,,32,of
screen,html.Screen,2_1_1_1_33,2021-04-26T11:22:38.805Z,,,,,,,,,,,,,,,,,54,,,,,,,,,,,,,,365.1160000405216,,response,,,,100,,,,,,,Space,keypress(Space),,,,,,,,-- --- ---- --- ------ ----- ------- ---- -- --- ------- --<br>------- ---------- ------ -- ----- -- ----- -- ---- ------<br>--- ----- --- --- ------ -------- ----- --- ------ ----- --<br>these ----- ---------- --- --- ------ ------ ---- -- ------<br>------- --- ------ ----- --- ---- ------- -- ---- --- --<br>------- ------,241177.23999998998,241176.89500004053,240804.79,240809.8900000332,240811.779,241179.811,,33,these
screen,html.Screen,2_1_1_1_34,2021-04-26T11:22:39.143Z,,,,,,,,,,,,,,,,,54,,,,,,,,,,,,,,335.04400007403456,,response,,,,100,,,,,,,Space,keypress(Space),,,,,,,,-- --- ---- --- ------ ----- ------- ---- -- --- ------- --<br>------- ---------- ------ -- ----- -- ----- -- ---- ------<br>--- ----- --- --- ------ -------- ----- --- ------ ----- --<br>----- bonds ---------- --- --- ------ ------ ---- -- ------<br>------- --- ------ ----- --- ---- ------- -- ---- --- --<br>------- ------,241515.20500006154,241514.85500007402,241172.865,241177.3299999768,241179.811,241520.109,,34,bonds
screen,html.Screen,2_1_1_1_35,2021-04-26T11:22:39.499Z,,,,,,,,,,,,,,,,,54,,,,,,,,,,,,,,350.8010000560316,,response,,,,100,,,,,,,Space,keypress(Space),,,,,,,,"-- --- ---- --- ------ ----- ------- ---- -- --- ------- --<br>------- ---------- ------ -- ----- -- ----- -- ---- ------<br>--- ----- --- --- ------ -------- ----- --- ------ ----- --<br>----- ----- plummeted, --- --- ------ ------ ---- -- ------<br>------- --- ------ ----- --- ---- ------- -- ---- --- --<br>------- ------",241871.24000000767,241870.91000005603,241513.136,241515.29500004835,241520.109,241874.259,,35,"plummeted,"
screen,html.Screen,2_1_1_1_36,2021-04-26T11:22:39.931Z,,,,,,,,,,,,,,,,,54,,,,,,,,,,,,,,428.6059999760182,,response,,,,100,,,,,,,Space,keypress(Space),,,,,,,,-- --- ---- --- ------ ----- ------- ---- -- --- ------- --<br>------- ---------- ------ -- ----- -- ----- -- ---- ------<br>--- ----- --- --- ------ -------- ----- --- ------ ----- --<br>----- ----- ---------- and --- ------ ------ ---- -- ------<br>------- --- ------ ----- --- ---- ------- -- ---- --- --<br>------- ------,242303.3600000199,242302.864999976,241867.291,241871.3299999945,241874.259,242304.858,,36,and
screen,html.Screen,2_1_1_1_37,2021-04-26T11:22:40.277Z,,,,,,,,,,,,,,,,,54,,,,,,,,,,,,,,343.98700007610023,,response,,,,100,,,,,,,Space,keypress(Space),,,,,,,,-- --- ---- --- ------ ----- ------- ---- -- --- ------- --<br>------- ---------- ------ -- ----- -- ----- -- ---- ------<br>--- ----- --- --- ------ -------- ----- --- ------ ----- --<br>----- ----- ---------- --- the ------ ------ ---- -- ------<br>------- --- ------ ----- --- ---- ------- -- ---- --- --<br>------- ------,242649.16999998968,242648.8450000761,242297.858,242303.44499996863,242304.858,242652.027,,37,the
screen,html.Screen,2_1_1_1_38,2021-04-26T11:22:40.594Z,,,,,,,,,,,,,,,,,54,,,,,,,,,,,,,,313.85800007055514,,response,,,,100,,,,,,,Space,keypress(Space),,,,,,,,-- --- ---- --- ------ ----- ------- ---- -- --- ------- --<br>------- ---------- ------ -- ----- -- ----- -- ---- ------<br>--- ----- --- --- ------ -------- ----- --- ------ ----- --<br>----- ----- ---------- --- --- market ------ ---- -- ------<br>------- --- ------ ----- --- ---- ------- -- ---- --- --<br>------- ------,242966.2150000222,242965.88500007056,242645.093,242649.26500001457,242652.027,242971.505,,38,market
screen,html.Screen,2_1_1_1_39,2021-04-26T11:22:40.971Z,,,,,,,,,,,,,,,,,54,,,,,,,,,,,,,,371.369999972987,,response,,,,100,,,,,,,Space,keypress(Space),,,,,,,,-- --- ---- --- ------ ----- ------- ---- -- --- ------- --<br>------- ---------- ------ -- ----- -- ----- -- ---- ------<br>--- ----- --- --- ------ -------- ----- --- ------ ----- --<br>----- ----- ---------- --- --- ------ became ---- -- ------<br>------- --- ------ ----- --- ---- ------- -- ---- --- --<br>------- ------,243343.17000000738,243342.874999973,242964.549,242966.29999997094,242971.505,243346.475,,39,became
screen,html.Screen,2_1_1_1_40,2021-04-26T11:22:41.323Z,,,,,,,,,,,,,,,,,54,,,,,,,,,,,,,,348.460000035906,,response,,,,100,,,,,,,Space,keypress(Space),,,,,,,,-- --- ---- --- ------ ----- ------- ---- -- --- ------- --<br>------- ---------- ------ -- ----- -- ----- -- ---- ------<br>--- ----- --- --- ------ -------- ----- --- ------ ----- --<br>----- ----- ---------- --- --- ------ ------ wary -- ------<br>------- --- ------ ----- --- ---- ------- -- ---- --- --<br>------- ------,243695.2900000615,243694.9350000359,243339.539,243343.26500003226,243346.475,243700.645,,40,wary
screen,html.Screen,2_1_1_1_41,2021-04-26T11:22:41.842Z,,,,,,,,,,,,,,,,,54,,,,,,,,,,,,,,513.2350000539154,,response,,,,100,,,,,,,Space,keypress(Space),,,,,,,,-- --- ---- --- ------ ----- ------- ---- -- --- ------- --<br>------- ---------- ------ -- ----- -- ----- -- ---- ------<br>--- ----- --- --- ------ -------- ----- --- ------ ----- --<br>----- ----- ---------- --- --- ------ ------ ---- of ------<br>------- --- ------ ----- --- ---- ------- -- ---- --- --<br>------- ------,244214.18999996968,244213.8800000539,243693.71,243695.38000004832,243700.645,244228.446,,41,of
screen,html.Screen,2_1_1_1_42,2021-04-26T11:22:42.310Z,,,,,,,,,,,,,,,,,54,,,,,,,,,,,,,,453.11899997713044,,response,,,,100,,,,,,,Space,keypress(Space),,,,,,,,-- --- ---- --- ------ ----- ------- ---- -- --- ------- --<br>------- ---------- ------ -- ----- -- ----- -- ---- ------<br>--- ----- --- --- ------ -------- ----- --- ------ ----- --<br>----- ----- ---------- --- --- ------ ------ ---- -- French<br>------- --- ------ ----- --- ---- ------- -- ---- --- --<br>------- ------,244681.8950000452,244681.56499997713,244221.515,244214.27500003483,244228.446,244686.787,,42,French
screen,html.Screen,2_1_1_1_43,2021-04-26T11:22:42.668Z,,,,,,,,,,,,,,,,,54,,,,,,,,,,,,,,353.1429999698885,,response,,,,100,,,,,,,Space,keypress(Space),,,,,,,,-- --- ---- --- ------ ----- ------- ---- -- --- ------- --<br>------- ---------- ------ -- ----- -- ----- -- ---- ------<br>--- ----- --- --- ------ -------- ----- --- ------ ----- --<br>----- ----- ---------- --- --- ------ ------ ---- -- ------<br>credit. --- ------ ----- --- ---- ------- -- ---- --- --<br>------- ------,245040.26500007603,245039.9299999699,244679.81,244681.985000032,244686.787,245055.609,,43,credit.
screen,html.Screen,2_1_1_1_44,2021-04-26T11:22:42.999Z,,,,,,,,,,,,,,,,,54,,,,,,,,,,,,,,315.3010000560316,,response,,,,100,,,,,,,Space,keypress(Space),,,,,,,,-- --- ---- --- ------ ----- ------- ---- -- --- ------- --<br>------- ---------- ------ -- ----- -- ----- -- ---- ------<br>--- ----- --- --- ------ -------- ----- --- ------ ----- --<br>----- ----- ---------- --- --- ------ ------ ---- -- ------<br>------- The ------ ----- --- ---- ------- -- ---- --- --<br>------- ------,245371.22500000987,245370.91000005603,245033.991,245040.35500006285,245055.609,245374.255,,44,The
screen,html.Screen,2_1_1_1_45,2021-04-26T11:22:43.339Z,,,,,,,,,,,,,,,,,54,,,,,,,,,,,,,,336.6550000234274,,response,,,,100,,,,,,,Space,keypress(Space),,,,,,,,-- --- ---- --- ------ ----- ------- ---- -- --- ------- --<br>------- ---------- ------ -- ----- -- ----- -- ---- ------<br>--- ----- --- --- ------ -------- ----- --- ------ ----- --<br>----- ----- ---------- --- --- ------ ------ ---- -- ------<br>------- --- French ----- --- ---- ------- -- ---- --- --<br>------- ------,245711.26999997068,245710.91000002343,245367.341,245371.30500003695,245374.255,245714.54,,45,French
screen,html.Screen,2_1_1_1_46,2021-04-26T11:22:43.643Z,,,,,,,,,,,,,,,,,54,,,,,,,,,,,,,,300.3349999934726,,response,,,,100,,,,,,,Space,keypress(Space),,,,,,,,-- --- ---- --- ------ ----- ------- ---- -- --- ------- --<br>------- ---------- ------ -- ----- -- ----- -- ---- ------<br>--- ----- --- --- ------ -------- ----- --- ------ ----- --<br>----- ----- ---------- --- --- ------ ------ ---- -- ------<br>------- --- ------ state --- ---- ------- -- ---- --- --<br>------- ------,246015.22000005934,246014.87499999348,245707.612,245711.37000003364,245714.54,246020.133,,46,state
screen,html.Screen,2_1_1_1_47,2021-04-26T11:22:44.005Z,,,,,,,,,,,,,,,,,54,,,,,,,,,,,,,,356.77200007010833,,response,,,,100,,,,,,,Space,keypress(Space),,,,,,,,-- --- ---- --- ------ ----- ------- ---- -- --- ------- --<br>------- ---------- ------ -- ----- -- ----- -- ---- ------<br>--- ----- --- --- ------ -------- ----- --- ------ ----- --<br>----- ----- ---------- --- --- ------ ------ ---- -- ------<br>------- --- ------ ----- was ---- ------- -- ---- --- --<br>------- ------,246377.25500005763,246376.9050000701,246013.17,246015.30500000808,246020.133,246381.21,,47,was
screen,html.Screen,2_1_1_1_48,2021-04-26T11:22:44.306Z,,,,,,,,,,,,,,,,,54,,,,,,,,,,,,,,296.66999997381936,,response,,,,100,,,,,,,Space,keypress(Space),,,,,,,,-- --- ---- --- ------ ----- ------- ---- -- --- ------- --<br>------- ---------- ------ -- ----- -- ----- -- ---- ------<br>--- ----- --- --- ------ -------- ----- --- ------ ----- --<br>----- ----- ---------- --- --- ------ ------ ---- -- ------<br>------- --- ------ ----- --- left ------- -- ---- --- --<br>------- ------,246678.2200000016,246677.8799999738,246374.265,246377.34000000637,246381.21,246679.823,,48,left
screen,html.Screen,2_1_1_1_49,2021-04-26T11:22:44.599Z,,,,,,,,,,,,,,,,,54,,,,,,,,,,,,,,291.0519999990647,,response,,,,100,,,,,,,Space,keypress(Space),,,,,,,,-- --- ---- --- ------ ----- ------- ---- -- --- ------- --<br>------- ---------- ------ -- ----- -- ----- -- ---- ------<br>--- ----- --- --- ------ -------- ----- --- ------ ----- --<br>----- ----- ---------- --- --- ------ ------ ---- -- ------<br>------- --- ------ ----- --- ---- without -- ---- --- --<br>------- ------,246971.2549999822,246970.87499999907,246672.853,246678.30500006676,246679.823,246978.478,,49,without
screen,html.Screen,2_1_1_1_50,2021-04-26T11:22:44.951Z,,,,,,,,,,,,,,,,,54,,,,,,,,,,,,,,344.3970000707777,,response,,,,100,,,,,,,Space,keypress(Space),,,,,,,,-- --- ---- --- ------ ----- ------- ---- -- --- ------- --<br>------- ---------- ------ -- ----- -- ----- -- ---- ------<br>--- ----- --- --- ------ -------- ----- --- ------ ----- --<br>----- ----- ---------- --- --- ------ ------ ---- -- ------<br>------- --- ------ ----- --- ---- ------- an ---- --- --<br>------- ------,247323.19000002462,247322.87500007078,246971.51,246971.34000004735,246978.478,247325.682,,50,an
screen,html.Screen,2_1_1_1_51,2021-04-26T11:22:45.319Z,,,,,,,,,,,,,,,,,54,,,,,,,,,,,,,,365.1830000113987,,response,,,,100,,,,,,,Space,keypress(Space),,,,,,,,-- --- ---- --- ------ ----- ------- ---- -- --- ------- --<br>------- ---------- ------ -- ----- -- ----- -- ---- ------<br>--- ----- --- --- ------ -------- ----- --- ------ ----- --<br>----- ----- ---------- --- --- ------ ------ ---- -- ------<br>------- --- ------ ----- --- ---- ------- -- easy --- --<br>------- ------,247691.25500007067,247690.8650000114,247318.68,247323.27499997336,247325.682,247693.732,,51,easy
screen,html.Screen,2_1_1_1_52,2021-04-26T11:22:45.611Z,,,,,,,,,,,,,,,,,54,,,,,,,,,,,,,,289.4430000594293,,response,,,,100,,,,,,,Space,keypress(Space),,,,,,,,-- --- ---- --- ------ ----- ------- ---- -- --- ------- --<br>------- ---------- ------ -- ----- -- ----- -- ---- ------<br>--- ----- --- --- ------ -------- ----- --- ------ ----- --<br>----- ----- ---------- --- --- ------ ------ ---- -- ------<br>------- --- ------ ----- --- ---- ------- -- ---- way --<br>------- ------,247983.53500000667,247983.17500005942,247686.748,247691.3400000194,247693.732,247985.396,,52,way
screen,html.Screen,2_1_1_1_53,2021-04-26T11:22:45.911Z,,,,,,,,,,,,,,,,,54,,,,,,,,,,,,,,297.40899996616645,,response,,,,100,,,,,,,Space,keypress(Space),,,,,,,,-- --- ---- --- ------ ----- ------- ---- -- --- ------- --<br>------- ---------- ------ -- ----- -- ----- -- ---- ------<br>--- ----- --- --- ------ -------- ----- --- ------ ----- --<br>----- ----- ---------- --- --- ------ ------ ---- -- ------<br>------- --- ------ ----- --- ---- ------- -- ---- --- of<br>------- ------,248283.1250000745,248282.80499996617,247978.424,247983.62000007182,247985.396,248297.335,,53,of
screen,html.Screen,2_1_1_1_54,2021-04-26T11:22:46.405Z,,,,,,,,,,,,,,,,,54,,,,,,,,,,,,,,479.55000005752663,,response,,,,100,,,,,,,Space,keypress(Space),,,,,,,,-- --- ---- --- ------ ----- ------- ---- -- --- ------- --<br>------- ---------- ------ -- ----- -- ----- -- ---- ------<br>--- ----- --- --- ------ -------- ----- --- ------ ----- --<br>----- ----- ---------- --- --- ------ ------ ---- -- ------<br>------- --- ------ ----- --- ---- ------- -- ---- --- --<br>raising ------,248777.19000005163,248776.88500005752,248277.074,248283.21500006132,248297.335,248784.036,,54,raising
screen,html.Screen,2_1_1_1_55,2021-04-26T11:22:47.147Z,,,,,,,,,,,,,,,,,54,,,,,,,,,,,,,,734.9090000180004,,response,,,,100,,,,,,,Space,keypress(Space),,,,,,,,-- --- ---- --- ------ ----- ------- ---- -- --- ------- --<br>------- ---------- ------ -- ----- -- ----- -- ---- ------<br>--- ----- --- --- ------ -------- ----- --- ------ ----- --<br>----- ----- ---------- --- --- ------ ------ ---- -- ------<br>------- --- ------ ----- --- ---- ------- -- ---- --- --<br>------- money.,249519.27000004798,249518.945000018,248777.058,248777.28000003844,248784.036,249529.7,,55,money.
Item 100,flow.Loop,2_1_1_1,2021-04-26T11:22:47.147Z,,,,,,,,,,,,,,,,,,,,,,,,,,,,,,,25985.013000017992,,completion,,,,,B,,,,,,,,,,,silence,,,,,249519.420000026,249518.945000018,223526.999,223527.34000002965,223533.932,249529.7,,,
Question 1,html.Screen,2_1_1_2,2021-04-26T11:22:53.603Z,,,,,,,,,,,,,,,,,,,,,,,,,,,,true,TRUE,,6444.975000063132,,response,,,,100,B,,,,,,TRUE,click #choice-1,,,,silence,,,,,255975.25500005577,255974.67500006314,249513.137,249519.48999997694,249529.7,255978.483,,,
Question 2,html.Screen,2_1_1_3,2021-04-26T11:22:57.473Z,,,,,,,,,,,,,,,,,,,,,,,,,,,,true,FALSE,,3866.1519999867305,,response,,,,100,B,,,,,,FALSE,click #choice-2,,,,silence,,,,,259845.1650000643,259844.63499998674,255971.547,255975.3400000045,255978.483,259846.537,,,
Item 100,flow.Sequence,2_1_1,2021-04-26T11:22:57.473Z,,,,,,,,,,,,,,,,,,,,,,,,,,,,,,,46310.68999998673,,completion,,,,,,,,,,,,,,,,,,,,,259845.29500000644,259844.63499998674,213526.962,213527.55500003695,213533.945,259846.537,,,
End of Practice,html.Page,2_1_2,2021-04-26T11:23:13.095Z,,,,,,,,,,,,,,,,,,,,,,,,,,,,,,,15620.742999982554,,form submission,,,,,,,,,,,,,,,,,,,,,275467.50999998767,275467.27999998257,259839.577,259845.3650000738,259846.537,275471.603,,,
Practice,flow.Sequence,2_1,2021-04-26T11:23:13.095Z,,,,,,,,,,,,,,,,,,,,,,,,,,,,,,,112197.41999998258,,completion,,,,,,,,,,,,,,,,,,,,,275467.67000004184,275467.27999998257,163262.911,163266.9300000416,163269.86,275471.603,,,
Trap_instruction,html.Page,2_2_0,2021-04-26T11:23:18.245Z,,,,,,,,,,,,,,,,,,,,,,,,,,,,,,,5145.607000054908,,form submission,,,,,,,,,,,,,,,,,,,,,280617.3950000666,280617.2100000549,275464.645,275467.7800000645,275471.603,280637.171,,,
trap_trial,html.Screen,2_2_1,2021-04-26T11:23:22.011Z,,,,,,,,,,,,,,,,,,,,,,,,,,,,true,1,,3745.4839999648975,,response,,,,,,,,,,,1,click #choice-1,,,,,,,,,284383.25499999337,284382.65499996487,280610.511,280617.48000001535,280637.171,284388.281,,,
end of trap trial,html.Page,2_2_2,2021-04-26T11:23:24.313Z,,,,,,,,,,,,,,,,,,,,,,,,,,,,,,,2296.938999984821,,form submission,,,,,,,,,,,,,,,,,,,,,286685.4250000324,286685.21999998484,284381.363,284383.3550000563,284388.281,286686.92,,,
Trap 1,flow.Sequence,2_2,2021-04-26T11:23:24.313Z,,,,,,,,,,,,,,,,,,,,,,,,,,,,,,,11213.616999984835,,completion,,,,,,,,,,,,,,,,,,,,,286685.58499997016,286685.21999998484,275464.645,275467.74500003085,275471.603,286686.92,,,
Standby,html.Page,2_3_0,2021-04-26T11:23:32.308Z,,,,,,,,,,,,,,,,,,,,,,,,,,,,,,,8000.010999999999,,timeout,,,,,,,,,,,,,,,,,,,,,294680.34500000067,294680.01,286679.962,286685.6850000331,286686.92,294686.931,,,
Holding screen,html.Screen,2_3_1_0_0,2021-04-26T11:23:39.308Z,,,,,,,,,,,,,,,,,,,,,,,,,,,,,,,7000.0410000000265,,timeout,,,,,,,,,,,,,,,,,,,,,301680.29000004753,301680.03,294680.01,294680.4649999831,294686.931,301686.972,,,
screen,html.Screen,2_3_1_0_1_0,2021-04-26T11:23:40.659Z,,,,,,,,,,,,,,,,,48,,,,,,,,,,,,,,1344.442999975814,,response,,,,10,B,,,,,,Space,keypress(Space),,,,lyrical,,,,As -- --- ------ ------- --------- ----------- --------<br>--------- -------- --- ------- -- ------- ---- -- ------<br>-- --- -------- -------- ---------- ---- ---- ---- ------<br>-- --------- -- ---- -- --- -- --- ------- -- - -----<br>---------- -- -- -- ---- ----- -- ------ -- --- ------<br>-------,303031.8200000329,303031.4149999758,301680.03,301680.41000002995,301686.972,303034.194,,0,As
screen,html.Screen,2_3_1_0_1_1,2021-04-26T11:23:41.015Z,,,,,,,,,,,,,,,,,48,,,,,,,,,,,,,,352.6209999761777,,response,,,,10,B,,,,,,Space,keypress(Space),,,,lyrical,,,,-- in --- ------ ------- --------- ----------- --------<br>--------- -------- --- ------- -- ------- ---- -- ------<br>-- --- -------- -------- ---------- ---- ---- ---- ------<br>-- --------- -- ---- -- --- -- --- ------- -- - -----<br>---------- -- -- -- ---- ----- -- ------ -- --- ------<br>-------,303387.155000004,303386.8149999762,303027.144,303031.9150000578,303034.194,303400.457,,1,in
screen,html.Screen,2_3_1_0_1_2,2021-04-26T11:23:41.344Z,,,,,,,,,,,,,,,,,48,,,,,,,,,,,,,,315.4029999966151,,response,,,,10,B,,,,,,Space,keypress(Space),,,,lyrical,,,,-- -- the ------ ------- --------- ----------- --------<br>--------- -------- --- ------- -- ------- ---- -- ------<br>-- --- -------- -------- ---------- ---- ---- ---- ------<br>-- --------- -- ---- -- --- -- --- ------- -- - -----<br>---------- -- -- -- ---- ----- -- ------ -- --- ------<br>-------,303716.1949999863,303715.8599999966,303381.402,303387.23500003107,303400.457,303721.707,,2,the
screen,html.Screen,2_3_1_0_1_3,2021-04-26T11:23:41.642Z,,,,,,,,,,,,,,,,,48,,,,,,,,,,,,,,292.1429999884567,,response,,,,10,B,,,,,,Space,keypress(Space),,,,lyrical,,,,-- -- --- United ------- --------- ----------- --------<br>--------- -------- --- ------- -- ------- ---- -- ------<br>-- --- -------- -------- ---------- ---- ---- ---- ------<br>-- --------- -- ---- -- --- -- --- ------- -- - -----<br>---------- -- -- -- ---- ----- -- ------ -- --- ------<br>-------,304014.199999976,304013.84999998845,303714.723,303716.2750000134,303721.707,304020.301,,3,United
screen,html.Screen,2_3_1_0_1_4,2021-04-26T11:23:41.978Z,,,,,,,,,,,,,,,,,48,,,,,,,,,,,,,,329.60400006826967,,response,,,,10,B,,,,,,Space,keypress(Space),,,,lyrical,,,,"-- -- --- ------ States, --------- ----------- --------<br>--------- -------- --- ------- -- ------- ---- -- ------<br>-- --- -------- -------- ---------- ---- ---- ---- ------<br>-- --------- -- ---- -- --- -- --- ------- -- - -----<br>---------- -- -- -- ---- ----- -- ------ -- --- ------<br>-------",304350.22500006016,304349.90500006825,304013.337,304014.28000000305,304020.301,304353.62,,4,"States,"
screen,html.Screen,2_3_1_0_1_5,2021-04-26T11:23:42.616Z,,,,,,,,,,,,,,,,,48,,,,,,,,,,,,,,634.2549999916228,,response,,,,10,B,,,,,,Space,keypress(Space),,,,lyrical,,,,-- -- --- ------ ------- Colombian ----------- --------<br>--------- -------- --- ------- -- ------- ---- -- ------<br>-- --- -------- -------- ---------- ---- ---- ---- ------<br>-- --------- -- ---- -- --- -- --- ------- -- - -----<br>---------- -- -- -- ---- ----- -- ------ -- --- ------<br>-------,304988.20999998134,304987.8749999916,304346.655,304350.3000000492,304353.62,304992.518,,5,Colombian
screen,html.Screen,2_3_1_0_1_6,2021-04-26T11:23:42.937Z,,,,,,,,,,,,,,,,,48,,,,,,,,,,,,,,316.661999982025,,response,,,,10,B,,,,,,Space,keypress(Space),,,,lyrical,,,,-- -- --- ------ ------- --------- legislation --------<br>--------- -------- --- ------- -- ------- ---- -- ------<br>-- --- -------- -------- ---------- ---- ---- ---- ------<br>-- --------- -- ---- -- --- -- --- ------- -- - -----<br>---------- -- -- -- ---- ----- -- ------ -- --- ------<br>-------,305309.505000012,305309.179999982,304985.557,304988.2950000465,304992.518,305311.991,,6,legislation
screen,html.Screen,2_3_1_0_1_7,2021-04-26T11:23:43.281Z,,,,,,,,,,,,,,,,,48,,,,,,,,,,,,,,340.85400003328687,,response,,,,10,B,,,,,,Space,keypress(Space),,,,lyrical,,,,-- -- --- ------ ------- --------- ----------- requires<br>--------- -------- --- ------- -- ------- ---- -- ------<br>-- --- -------- -------- ---------- ---- ---- ---- ------<br>-- --------- -- ---- -- --- -- --- ------- -- - -----<br>---------- -- -- -- ---- ----- -- ------ -- --- ------<br>-------,305653.180000023,305652.84500003327,305305.03,305309.5850000391,305311.991,305659.198,,7,requires
screen,html.Screen,2_3_1_0_1_8,2021-04-26T11:23:43.620Z,,,,,,,,,,,,,,,,,48,,,,,,,,,,,,,,332.60200007620733,,response,,,,10,B,,,,,,Space,keypress(Space),,,,lyrical,,,,-- -- --- ------ ------- --------- ----------- --------<br>travelers -------- --- ------- -- ------- ---- -- ------<br>-- --- -------- -------- ---------- ---- ---- ---- ------<br>-- --------- -- ---- -- --- -- --- ------- -- - -----<br>---------- -- -- -- ---- ----- -- ------ -- --- ------<br>-------,305992.17500002123,305991.8000000762,305652.251,305653.255000012,305659.198,305999.472,,8,travelers
screen,html.Screen,2_3_1_0_1_9,2021-04-26T11:23:43.941Z,,,,,,,,,,,,,,,,,48,,,,,,,,,,,,,,313.38800006365636,,response,,,,10,B,,,,,,Space,keypress(Space),,,,lyrical,,,,-- -- --- ------ ------- --------- ----------- --------<br>--------- entering --- ------- -- ------- ---- -- ------<br>-- --- -------- -------- ---------- ---- ---- ---- ------<br>-- --------- -- ---- -- --- -- --- ------- -- - -----<br>---------- -- -- -- ---- ----- -- ------ -- --- ------<br>-------,306313.2050000131,306312.86000006367,305985.584,305992.25000001024,305999.472,306318.924,,9,entering
screen,html.Screen,2_3_1_0_1_10,2021-04-26T11:23:44.222Z,,,,,,,,,,,,,,,,,48,,,,,,,,,,,,,,274.9159999868134,,response,,,,10,B,,,,,,Space,keypress(Space),,,,lyrical,,,,-- -- --- ------ ------- --------- ----------- --------<br>--------- -------- the ------- -- ------- ---- -- ------<br>-- --- -------- -------- ---------- ---- ---- ---- ------<br>-- --------- -- ---- -- --- -- --- ------- -- - -----<br>---------- -- -- -- ---- ----- -- ------ -- --- ------<br>-------,306594.1650000168,306593.8399999868,306311.966,306313.3600000292,306318.924,306596.686,,10,the
screen,html.Screen,2_3_1_0_1_11,2021-04-26T11:23:44.572Z,,,,,,,,,,,,,,,,,48,,,,,,,,,,,,,,347.0840000126045,,response,,,,10,B,,,,,,Space,keypress(Space),,,,lyrical,,,,-- -- --- ------ ------- --------- ----------- --------<br>--------- -------- --- country -- ------- ---- -- ------<br>-- --- -------- -------- ---------- ---- ---- ---- ------<br>-- --------- -- ---- -- --- -- --- ------- -- - -----<br>---------- -- -- -- ---- ----- -- ------ -- --- ------<br>-------,306944.1200000001,306943.7700000126,306589.746,306594.2700000014,306596.686,306950.89,,11,country
screen,html.Screen,2_3_1_0_1_12,2021-04-26T11:23:44.986Z,,,,,,,,,,,,,,,,,48,,,,,,,,,,,,,,407.52500002423767,,response,,,,10,B,,,,,,Space,keypress(Space),,,,lyrical,,,,-- -- --- ------ ------- --------- ----------- --------<br>--------- -------- --- ------- to ------- ---- -- ------<br>-- --- -------- -------- ---------- ---- ---- ---- ------<br>-- --------- -- ---- -- --- -- --- ------- -- - -----<br>---------- -- -- -- ---- ----- -- ------ -- --- ------<br>-------,307358.73500001617,307358.41500002425,306943.891,306944.1949999891,306950.89,307360.582,,12,to
screen,html.Screen,2_3_1_0_1_13,2021-04-26T11:23:45.301Z,,,,,,,,,,,,,,,,,48,,,,,,,,,,,,,,312.2229999801493,,response,,,,10,B,,,,,,Space,keypress(Space),,,,lyrical,,,,-- -- --- ------ ------- --------- ----------- --------<br>--------- -------- --- ------- -- declare ---- -- ------<br>-- --- -------- -------- ---------- ---- ---- ---- ------<br>-- --------- -- ---- -- --- -- --- ------- -- - -----<br>---------- -- -- -- ---- ----- -- ------ -- --- ------<br>-------,307673.11500001233,307672.80499998014,307353.636,307358.81500004325,307360.582,307680.064,,13,declare
screen,html.Screen,2_3_1_0_1_14,2021-04-26T11:23:45.638Z,,,,,,,,,,,,,,,,,48,,,,,,,,,,,,,,329.83100002468564,,response,,,,10,B,,,,,,Space,keypress(Space),,,,lyrical,,,,-- -- --- ------ ------- --------- ----------- --------<br>--------- -------- --- ------- -- ------- cash -- ------<br>-- --- -------- -------- ---------- ---- ---- ---- ------<br>-- --------- -- ---- -- --- -- --- ------- -- - -----<br>---------- -- -- -- ---- ----- -- ------ -- --- ------<br>-------,308010.25499997195,308009.8950000247,307673.099,307673.1950000394,307680.064,308013.355,,14,cash
screen,html.Screen,2_3_1_0_1_15,2021-04-26T11:23:45.967Z,,,,,,,,,,,,,,,,,48,,,,,,,,,,,,,,325.50500001804903,,response,,,,10,B,,,,,,Space,keypress(Space),,,,lyrical,,,,-- -- --- ------ ------- --------- ----------- --------<br>--------- -------- --- ------- -- ------- ---- in ------<br>-- --- -------- -------- ---------- ---- ---- ---- ------<br>-- --------- -- ---- -- --- -- --- ------- -- - -----<br>---------- -- -- -- ---- ----- -- ------ -- --- ------<br>-------,308339.1700000502,308338.86000001803,308006.424,308010.3300000774,308013.355,308356.659,,15,in
screen,html.Screen,2_3_1_0_1_16,2021-04-26T11:23:46.318Z,,,,,,,,,,,,,,,,,48,,,,,,,,,,,,,,333.1759999683127,,response,,,,10,B,,,,,,Space,keypress(Space),,,,lyrical,,,,-- -- --- ------ ------- --------- ----------- --------<br>--------- -------- --- ------- -- ------- ---- -- excess<br>-- --- -------- -------- ---------- ---- ---- ---- ------<br>-- --------- -- ---- -- --- -- --- ------- -- - -----<br>---------- -- -- -- ---- ----- -- ------ -- --- ------<br>-------,308690.16500003636,308689.8349999683,308332.815,308339.2450000392,308356.659,308693.918,,16,excess
screen,html.Screen,2_3_1_0_1_17,2021-04-26T11:23:46.689Z,,,,,,,,,,,,,,,,,48,,,,,,,,,,,,,,366.84700006019557,,response,,,,10,B,,,,,,Space,keypress(Space),,,,lyrical,,,,-- -- --- ------ ------- --------- ----------- --------<br>--------- -------- --- ------- -- ------- ---- -- ------<br>of --- -------- -------- ---------- ---- ---- ---- ------<br>-- --------- -- ---- -- --- -- --- ------- -- - -----<br>---------- -- -- -- ---- ----- -- ------ -- --- ------<br>-------,309061.1199999694,309060.7650000602,308686.991,308690.24500006344,308693.918,309083.835,,17,of
screen,html.Screen,2_3_1_0_1_18,2021-04-26T11:23:47.028Z,,,,,,,,,,,,,,,,,48,,,,,,,,,,,,,,315.97499997349223,,response,,,,10,B,,,,,,Space,keypress(Space),,,,lyrical,,,,-- -- --- ------ ------- --------- ----------- --------<br>--------- -------- --- ------- -- ------- ---- -- ------<br>-- ten -------- -------- ---------- ---- ---- ---- ------<br>-- --------- -- ---- -- --- -- --- ------- -- - -----<br>---------- -- -- -- ---- ----- -- ------ -- --- ------<br>-------,309400.185000035,309399.8099999735,309055.02,309061.19999999646,309083.835,309402.248,,18,ten
screen,html.Screen,2_3_1_0_1_19,2021-04-26T11:23:47.409Z,,,,,,,,,,,,,,,,,48,,,,,,,,,,,,,,378.4770000769058,,response,,,,10,B,,,,,,Space,keypress(Space),,,,lyrical,,,,-- -- --- ------ ------- --------- ----------- --------<br>--------- -------- --- ------- -- ------- ---- -- ------<br>-- --- thousand -------- ---------- ---- ---- ---- ------<br>-- --------- -- ---- -- --- -- --- ------- -- - -----<br>---------- -- -- -- ---- ----- -- ------ -- --- ------<br>-------,309781.04500006884,309780.7250000769,309395.323,309400.26500006206,309402.248,309784.187,,19,thousand
screen,html.Screen,2_3_1_0_1_20,2021-04-26T11:23:47.803Z,,,,,,,,,,,,,,,,,48,,,,,,,,,,,,,,390.6379999946221,,response,,,,10,B,,,,,,Space,keypress(Space),,,,lyrical,,,,-- -- --- ------ ------- --------- ----------- --------<br>--------- -------- --- ------- -- ------- ---- -- ------<br>-- --- -------- dollars. ---------- ---- ---- ---- ------<br>-- --------- -- ---- -- --- -- --- ------- -- - -----<br>---------- -- -- -- ---- ----- -- ------ -- --- ------<br>-------,310175.195000018,310174.8249999946,309777.246,309781.1249999795,309784.187,310180.073,,20,dollars.
screen,html.Screen,2_3_1_0_1_21,2021-04-26T11:23:48.807Z,,,,,,,,,,,,,,,,,48,,,,,,,,,,,,,,998.7820000638021,,response,,,,10,B,,,,,,Space,keypress(Space),,,,lyrical,,,,-- -- --- ------ ------- --------- ----------- --------<br>--------- -------- --- ------- -- ------- ---- -- ------<br>-- --- -------- -------- Concealing ---- ---- ---- ------<br>-- --------- -- ---- -- --- -- --- ------- -- - -----<br>---------- -- -- -- ---- ----- -- ------ -- --- ------<br>-------,311179.20999997295,311178.8550000638,310173.062,310175.27999996673,310180.073,311201.465,,21,Concealing
screen,html.Screen,2_3_1_0_1_22,2021-04-26T11:23:49.179Z,,,,,,,,,,,,,,,,,48,,,,,,,,,,,,,,349.8249999739346,,response,,,,10,B,,,,,,Space,keypress(Space),,,,lyrical,,,,-- -- --- ------ ------- --------- ----------- --------<br>--------- -------- --- ------- -- ------- ---- -- ------<br>-- --- -------- -------- ---------- more ---- ---- ------<br>-- --------- -- ---- -- --- -- --- ------- -- - -----<br>---------- -- -- -- ---- ----- -- ------ -- --- ------<br>-------,311551.6550000757,311551.28999997396,311173.055,311179.29000000004,311201.465,311555.026,,22,more
screen,html.Screen,2_3_1_0_1_23,2021-04-26T11:23:49.458Z,,,,,,,,,,,,,,,,,48,,,,,,,,,,,,,,274.7789999866509,,response,,,,10,B,,,,,,Space,keypress(Space),,,,lyrical,,,,-- -- --- ------ ------- --------- ----------- --------<br>--------- -------- --- ------- -- ------- ---- -- ------<br>-- --- -------- -------- ---------- ---- than ---- ------<br>-- --------- -- ---- -- --- -- --- ------- -- - -----<br>---------- -- -- -- ---- ----- -- ------ -- --- ------<br>-------,311830.169999972,311829.80499998666,311548.113,311551.74000002444,311555.026,311832.808,,23,than
screen,html.Screen,2_3_1_0_1_24,2021-04-26T11:23:49.744Z,,,,,,,,,,,,,,,,,48,,,,,,,,,,,,,,283.01699998619733,,response,,,,10,B,,,,,,Space,keypress(Space),,,,lyrical,,,,-- -- --- ------ ------- --------- ----------- --------<br>--------- -------- --- ------- -- ------- ---- -- ------<br>-- --- -------- -------- ---------- ---- ---- that ------<br>-- --------- -- ---- -- --- -- --- ------- -- - -----<br>---------- -- -- -- ---- ----- -- ------ -- --- ------<br>-------,312116.165000014,312115.8249999862,311825.883,311830.24999999907,311832.808,312117.535,,24,that
screen,html.Screen,2_3_1_0_1_25,2021-04-26T11:23:50.130Z,,,,,,,,,,,,,,,,,48,,,,,,,,,,,,,,384.32500007672934,,response,,,,10,B,,,,,,Space,keypress(Space),,,,lyrical,,,,-- -- --- ------ ------- --------- ----------- --------<br>--------- -------- --- ------- -- ------- ---- -- ------<br>-- --- -------- -------- ---------- ---- ---- ---- amount<br>-- --------- -- ---- -- --- -- --- ------- -- - -----<br>---------- -- -- -- ---- ----- -- ------ -- --- ------<br>-------,312502.1699999925,312501.8600000767,312110.608,312116.25000007916,312117.535,312506.451,,25,amount
screen,html.Screen,2_3_1_0_1_26,2021-04-26T11:23:50.463Z,,,,,,,,,,,,,,,,,48,,,,,,,,,,,,,,328.2940000001108,,response,,,,10,B,,,,,,Space,keypress(Space),,,,lyrical,,,,-- -- --- ------ ------- --------- ----------- --------<br>--------- -------- --- ------- -- ------- ---- -- ------<br>-- --- -------- -------- ---------- ---- ---- ---- ------<br>to --------- -- ---- -- --- -- --- ------- -- - -----<br>---------- -- -- -- ---- ----- -- ------ -- --- ------<br>-------,312835.0850000279,312834.7450000001,312499.481,312502.27000005543,312506.451,312839.784,,26,to
screen,html.Screen,2_3_1_0_1_27,2021-04-26T11:23:50.940Z,,,,,,,,,,,,,,,,,48,,,,,,,,,,,,,,472.0210000630468,,response,,,,10,B,,,,,,Space,keypress(Space),,,,lyrical,,,,-- -- --- ------ ------- --------- ----------- --------<br>--------- -------- --- ------- -- ------- ---- -- ------<br>-- --- -------- -------- ---------- ---- ---- ---- ------<br>-- transport -- ---- -- --- -- --- ------- -- - -----<br>---------- -- -- -- ---- ----- -- ------ -- --- ------<br>-------,313312.099999981,313311.80500006303,312832.8,312835.16999997664,312839.784,313318.964,,27,transport
screen,html.Screen,2_3_1_0_1_28,2021-04-26T11:23:51.311Z,,,,,,,,,,,,,,,,,48,,,,,,,,,,,,,,363.891000020958,,response,,,,10,B,,,,,,Space,keypress(Space),,,,lyrical,,,,-- -- --- ------ ------- --------- ----------- --------<br>--------- -------- --- ------- -- ------- ---- -- ------<br>-- --- -------- -------- ---------- ---- ---- ---- ------<br>-- --------- it ---- -- --- -- --- ------- -- - -----<br>---------- -- -- -- ---- ----- -- ------ -- --- ------<br>-------,313683.1849999726,313682.85500002094,313311.979,313312.1899999678,313318.964,313686.99,,28,it
screen,html.Screen,2_3_1_0_1_29,2021-04-26T11:23:51.588Z,,,,,,,,,,,,,,,,,48,,,,,,,,,,,,,,272.74500004039146,,response,,,,10,B,,,,,,Space,keypress(Space),,,,lyrical,,,,-- -- --- ------ ------- --------- ----------- --------<br>--------- -------- --- ------- -- ------- ---- -- ------<br>-- --- -------- -------- ---------- ---- ---- ---- ------<br>-- --------- -- into -- --- -- --- ------- -- - -----<br>---------- -- -- -- ---- ----- -- ------ -- --- ------<br>-------,313960.064999992,313959.7350000404,313680.035,313683.27000003774,313686.99,313964.786,,29,into
screen,html.Screen,2_3_1_0_1_30,2021-04-26T11:23:51.876Z,,,,,,,,,,,,,,,,,48,,,,,,,,,,,,,,283.02399997162865,,response,,,,10,B,,,,,,Space,keypress(Space),,,,lyrical,,,,-- -- --- ------ ------- --------- ----------- --------<br>--------- -------- --- ------- -- ------- ---- -- ------<br>-- --- -------- -------- ---------- ---- ---- ---- ------<br>-- --------- -- ---- or --- -- --- ------- -- - -----<br>---------- -- -- -- ---- ----- -- ------ -- --- ------<br>-------,314248.1450000778,314247.80999997165,313957.806,313960.15499997884,313964.786,314249.484,,30,or
screen,html.Screen,2_3_1_0_1_31,2021-04-26T11:23:52.119Z,,,,,,,,,,,,,,,,,48,,,,,,,,,,,,,,241.2659999972093,,response,,,,10,B,,,,,,Space,keypress(Space),,,,lyrical,,,,-- -- --- ------ ------- --------- ----------- --------<br>--------- -------- --- ------- -- ------- ---- -- ------<br>-- --- -------- -------- ---------- ---- ---- ---- ------<br>-- --------- -- ---- -- out -- --- ------- -- - -----<br>---------- -- -- -- ---- ----- -- ------ -- --- ------<br>-------,314491.1200000206,314490.7499999972,314242.551,314248.2350000646,314249.484,314492.557,,31,out
screen,html.Screen,2_3_1_0_1_32,2021-04-26T11:23:52.368Z,,,,,,,,,,,,,,,,,48,,,,,,,,,,,,,,247.218000023684,,response,,,,10,B,,,,,,Space,keypress(Space),,,,lyrical,,,,-- -- --- ------ ------- --------- ----------- --------<br>--------- -------- --- ------- -- ------- ---- -- ------<br>-- --- -------- -------- ---------- ---- ---- ---- ------<br>-- --------- -- ---- -- --- of --- ------- -- - -----<br>---------- -- -- -- ---- ----- -- ------ -- --- ------<br>-------,314740.10000005364,314739.77500002366,314485.609,314491.21999996714,314492.557,314742.553,,32,of
screen,html.Screen,2_3_1_0_1_33,2021-04-26T11:23:52.626Z,,,,,,,,,,,,,,,,,48,,,,,,,,,,,,,,255.21199997822987,,response,,,,10,B,,,,,,Space,keypress(Space),,,,lyrical,,,,-- -- --- ------ ------- --------- ----------- --------<br>--------- -------- --- ------- -- ------- ---- -- ------<br>-- --- -------- -------- ---------- ---- ---- ---- ------<br>-- --------- -- ---- -- --- -- the ------- -- - -----<br>---------- -- -- -- ---- ----- -- ------ -- --- ------<br>-------,314998.06999997236,314997.76499997824,314735.607,314740.1799999643,314742.553,314999.498,,33,the
screen,html.Screen,2_3_1_0_1_34,2021-04-26T11:23:52.870Z,,,,,,,,,,,,,,,,,48,,,,,,,,,,,,,,242.24199996853713,,response,,,,10,B,,,,,,Space,keypress(Space),,,,lyrical,,,,-- -- --- ------ ------- --------- ----------- --------<br>--------- -------- --- ------- -- ------- ---- -- ------<br>-- --- -------- -------- ---------- ---- ---- ---- ------<br>-- --------- -- ---- -- --- -- --- country -- - -----<br>---------- -- -- -- ---- ----- -- ------ -- --- ------<br>-------,315242.07999999635,315241.73999996856,314992.549,314998.1600000756,314999.498,315259.186,,34,country
screen,html.Screen,2_3_1_0_1_35,2021-04-26T11:23:53.167Z,,,,,,,,,,,,,,,,,48,,,,,,,,,,,,,,279.8589999831747,,response,,,,10,B,,,,,,Space,keypress(Space),,,,lyrical,,,,-- -- --- ------ ------- --------- ----------- --------<br>--------- -------- --- ------- -- ------- ---- -- ------<br>-- --- -------- -------- ---------- ---- ---- ---- ------<br>-- --------- -- ---- -- --- -- --- ------- is - -----<br>---------- -- -- -- ---- ----- -- ------ -- --- ------<br>-------,315539.3949999707,315539.04499998316,315235.613,315242.16999998316,315259.186,315541.16,,35,is
screen,html.Screen,2_3_1_0_1_36,2021-04-26T11:23:53.391Z,,,,,,,,,,,,,,,,,48,,,,,,,,,,,,,,222.16500006540446,,response,,,,10,B,,,,,,Space,keypress(Space),,,,lyrical,,,,-- -- --- ------ ------- --------- ----------- --------<br>--------- -------- --- ------- -- ------- ---- -- ------<br>-- --- -------- -------- ---------- ---- ---- ---- ------<br>-- --------- -- ---- -- --- -- --- ------- -- a -----<br>---------- -- -- -- ---- ----- -- ------ -- --- ------<br>-------,315763.6300000595,315763.3250000654,315534.213,315539.48000003584,315541.16,315770.342,,36,a
screen,html.Screen,2_3_1_0_1_37,2021-04-26T11:23:53.668Z,,,,,,,,,,,,,,,,,48,,,,,,,,,,,,,,269.52300005703,,response,,,,10,B,,,,,,Space,keypress(Space),,,,lyrical,,,,-- -- --- ------ ------- --------- ----------- --------<br>--------- -------- --- ------- -- ------- ---- -- ------<br>-- --- -------- -------- ---------- ---- ---- ---- ------<br>-- --------- -- ---- -- --- -- --- ------- -- - crime<br>---------- -- -- -- ---- ----- -- ------ -- --- ------<br>-------,316040.2400000021,316039.86500005703,315763.405,315763.71500000823,315770.342,316056.371,,37,crime
screen,html.Screen,2_3_1_0_1_38,2021-04-26T11:23:53.942Z,,,,,,,,,,,,,,,,,48,,,,,,,,,,,,,,257.4940000328352,,response,,,,10,B,,,,,,Space,keypress(Space),,,,lyrical,,,,-- -- --- ------ ------- --------- ----------- --------<br>--------- -------- --- ------- -- ------- ---- -- ------<br>-- --- -------- -------- ---------- ---- ---- ---- ------<br>-- --------- -- ---- -- --- -- --- ------- -- - -----<br>punishable -- -- -- ---- ----- -- ------ -- --- ------<br>-------,316314.1900000628,316313.8650000328,316034.215,316040.32000002917,316056.371,316318.961,,38,punishable
screen,html.Screen,2_3_1_0_1_39,2021-04-26T11:23:54.207Z,,,,,,,,,,,,,,,,,48,,,,,,,,,,,,,,259.80900002189446,,response,,,,10,B,,,,,,Space,keypress(Space),,,,lyrical,,,,-- -- --- ------ ------- --------- ----------- --------<br>--------- -------- --- ------- -- ------- ---- -- ------<br>-- --- -------- -------- ---------- ---- ---- ---- ------<br>-- --------- -- ---- -- --- -- --- ------- -- - -----<br>---------- by -- -- ---- ----- -- ------ -- --- ------<br>-------,316579.08499997575,316578.7700000219,316311.974,316314.27500001155,316318.961,316582.83,,39,by
screen,html.Screen,2_3_1_0_1_40,2021-04-26T11:23:54.451Z,,,,,,,,,,,,,,,,,48,,,,,,,,,,,,,,239.95000004587928,,response,,,,10,B,,,,,,Space,keypress(Space),,,,lyrical,,,,-- -- --- ------ ------- --------- ----------- --------<br>--------- -------- --- ------- -- ------- ---- -- ------<br>-- --- -------- -------- ---------- ---- ---- ---- ------<br>-- --------- -- ---- -- --- -- --- ------- -- - -----<br>---------- -- up -- ---- ----- -- ------ -- --- ------<br>-------,316823.08500004,316822.7800000459,316575.884,316579.1700000409,316582.83,316825.876,,40,up
