sender,sender_type,sender_id,timestamp,meta,,Blues,Classical,Country,Dance,Electronic,Folk,Gospel,Hip-Hop,Jazz,Latin,Musical/Film,New-age,Pop,Prolific_id,Provo_ID,R&B,Rap,Reggae,Religious,Rock,Soul,Swing,Traditional,age,artist_name,correct,correctResponse,distraction,duration,education,ended_on,familiarity,gender,headphone_check_performance,item,list,music_frequency,offensiveness,pleasantness,position_correct,preference,response,response_action,snippet_file,song_name,song_rating,sound,stimulus_1,stimulus_2,stimulus_3,text,time_commit,time_end,time_render,time_run,time_show,time_switch,url,word,word_ID
Prolific ID,html.Form,0,2021-04-30T10:43:15.213Z,"{""labjs_version"":""20.2.2"",""labjs_build"":{""flavor"":""production"",""commit"":""a25486e0c714a0ae2ce03ff94b7bb6896854dcfa""},""location"":""https://run.pavlovia.org/mvasilev/prolific_music_c/"",""userAgent"":""Mozilla/5.0 (Macintosh; Intel Mac OS X 10_15_7) AppleWebKit/537.36 (KHTML, like Gecko) Chrome/90.0.4430.93 Safari/537.36"",""platform"":""MacIntel"",""language"":""en-GB"",""locale"":""en-GB"",""timeZone"":""Europe/London"",""timezoneOffset"":-60,""screen_width"":2560,""screen_height"":1440,""scroll_width"":2099,""scroll_height"":1121,""window_innerWidth"":2099,""window_innerHeight"":1169,""devicePixelRatio"":1}",,,,,,,,,,,,,,,6064e0c468bd2b84f807b924,,,,,,,,,,,,,,,7444.355000000221,,form submission,,,,,,,,,,,,,,,,,,,,,15324.260000000095,15323.89500000022,7846.18,7861.885000000029,7879.54,15335.797,{},,
Introduction,html.Screen,1_0,2021-04-30T10:43:22.323Z,,,,,,,,,,,,,,,,,,,,,,,,,,,,,,,7096.743000000015,,response,,,,,,,,,,,continue,click button,,,,,,,,,22434.875000000146,22432.540000000015,15319.117,15324.485000000095,15335.797,22442.084,,,
Volume calibration,html.Screen,1_1,2021-04-30T10:44:07.708Z,,,,,,,,,,,,,,,,,,,,,,,,,,,,,,,45374.771000000255,,response,,,,,,,,,,,continue,click button,,,,,,,,,67819.59500000016,67816.85500000026,22425.404,22435.01500000002,22442.084,67829.729,,,
Task instructions,html.Screen,1_2,2021-04-30T10:44:22.682Z,,,,,,,,,,,,,,,,,,,,,,,,,,,,,,,14961.801000000181,,response,,,,,,,,,,,continue,click button,,,,,,,,,82792.7900000002,82791.53000000019,67813.049,67819.68000000028,67829.729,82808.369,,,
Sounds,html.Screen,1_3_0_0,2021-04-30T10:44:26.937Z,,,,,,,,,,,,,,,,,,,,,,,,,,,,,,,4254.225999999995,,timeout,,,,,,,,,3,,,,,,,,I,O,S,,87048.67500000024,87045.915,82791.689,82792.97500000006,82808.369,87062.595,,,
Judgement,html.Screen,1_3_0_1,2021-04-30T10:44:31.761Z,,,,,,,,,,,,,,,,,,,,,,,,,,,,false,3,,4808.039999999994,,response,,,,,,,,,3,,1,click #choice-1,,,,,I,O,S,,91871.985,91870.635,87045.915,87048.7800000003,87062.595,91883.115,,,
Trial,flow.Sequence,1_3_0,2021-04-30T10:44:31.762Z,,,,,,,,,,,,,,,,,,,,,,,,,,,,,,,9062.265999999989,,completion,,,,,,,,,3,,,,,,,,I,O,S,,91872.97499999999,91870.635,82791.689,82792.9300000003,82808.369,91883.115,,,
Sounds,html.Screen,1_3_1_0,2021-04-30T10:44:36.011Z,,,,,,,,,,,,,,,,,,,,,,,,,,,,,,,4253.399999999994,,timeout,,,,,,,,,3,,,,,,,,O,I,S,,96122.09499999994,96119.835,91866.435,91873.07000000033,91883.115,96136.515,,,
Judgement,html.Screen,1_3_1_1,2021-04-30T10:44:37.802Z,,,,,,,,,,,,,,,,,,,,,,,,,,,,true,3,,1775.5799999999144,,response,,,,,,,,,3,,3,click #choice-3,,,,,O,I,S,,97913.40000000014,97912.09499999991,96119.835,96122.19000000028,96136.515,97921.64,,,
Trial,flow.Sequence,1_3_1,2021-04-30T10:44:37.802Z,,,,,,,,,,,,,,,,,,,,,,,,,,,,,,,6028.979999999909,,completion,,,,,,,,,3,,,,,,,,O,I,S,,97913.60499999997,97912.09499999991,91866.435,91873.04500000004,91883.115,97921.64,,,
Sounds,html.Screen,1_3_2_0,2021-04-30T10:44:42.050Z,,,,,,,,,,,,,,,,,,,,,,,,,,,,,,,4253.399999999994,,timeout,,,,,,,,,1,,,,,,,,S,I,O,,102160.84999999998,102158.36,97904.96,97913.70500000016,97921.64,102175.04,,,
Judgement,html.Screen,1_3_2_1,2021-04-30T10:44:43.427Z,,,,,,,,,,,,,,,,,,,,,,,,,,,,true,1,,1362.2200000002922,,response,,,,,,,,,1,,1,click #choice-1,,,,,S,I,O,,103538.52500000017,103537.26000000029,102158.36,102160.93999999999,102175.04,103543.195,,,
Trial,flow.Sequence,1_3_2,2021-04-30T10:44:43.428Z,,,,,,,,,,,,,,,,,,,,,,,,,,,,,,,5615.620000000286,,completion,,,,,,,,,1,,,,,,,,S,I,O,,103538.65500000006,103537.26000000029,97904.96,97913.67000000014,97921.64,103543.195,,,
Sounds,html.Screen,1_3_3_0,2021-04-30T10:44:47.671Z,,,,,,,,,,,,,,,,,,,,,,,,,,,,,,,4253.399999999994,,timeout,,,,,,,,,1,,,,,,,,S,O,I,,107781.94499999995,107779.915,103526.515,103538.74999999994,103543.195,107796.595,,,
Judgement,html.Screen,1_3_3_1,2021-04-30T10:44:49.177Z,,,,,,,,,,,,,,,,,,,,,,,,,,,,true,1,,1489.7750000000378,,response,,,,,,,,,1,,1,click #choice-1,,,,,S,O,I,,109287.66999999994,109286.37000000004,107779.915,107782.03000000007,107796.595,109297.795,,,
Trial,flow.Sequence,1_3_3,2021-04-30T10:44:49.177Z,,,,,,,,,,,,,,,,,,,,,,,,,,,,,,,5743.175000000032,,completion,,,,,,,,,1,,,,,,,,S,O,I,,109287.8000000003,109286.37000000004,103526.515,103538.71499999991,103543.195,109297.795,,,
Sounds,html.Screen,1_3_4_0,2021-04-30T10:44:53.425Z,,,,,,,,,,,,,,,,,,,,,,,,,,,,,,,4253.400000000009,,timeout,,,,,,,,,2,,,,,,,,O,S,I,,113535.77000000018,113534.515,109281.115,109287.88499999997,109297.795,113551.195,,,
Judgement,html.Screen,1_3_4_1,2021-04-30T10:44:54.329Z,,,,,,,,,,,,,,,,,,,,,,,,,,,,true,2,,887.8050000000658,,response,,,,,,,,,2,,2,click #choice-2,,,,,O,S,I,,114440.38000000024,114439.00000000007,113534.515,113535.85500000032,113551.195,114452.357,,,
Trial,flow.Sequence,1_3_4,2021-04-30T10:44:54.329Z,,,,,,,,,,,,,,,,,,,,,,,,,,,,,,,5141.2050000000745,,completion,,,,,,,,,2,,,,,,,,O,S,I,,114440.50500000025,114439.00000000007,109281.115,109287.86000000013,109297.795,114452.357,,,
Sounds,html.Screen,1_3_5_0,2021-04-30T10:44:58.580Z,,,,,,,,,,,,,,,,,,,,,,,,,,,,,,,4253.399999999994,,timeout,,,,,,,,,2,,,,,,,,I,S,O,,118691.33000000034,118689.077,114435.677,114440.58999999992,114452.357,118705.757,,,
Judgement,html.Screen,1_3_5_1,2021-04-30T10:45:00.270Z,,,,,,,,,,,,,,,,,,,,,,,,,,,,true,2,,1673.5780000003142,,response,,,,,,,,,2,,2,click #choice-2,,,,,I,S,O,,120380.70500000026,120379.33500000031,118689.077,118691.40500000026,118705.757,120390.437,,,
Trial,flow.Sequence,1_3_5,2021-04-30T10:45:00.270Z,,,,,,,,,,,,,,,,,,,,,,,,,,,,,,,5926.978000000308,,completion,,,,,,,,,2,,,,,,,,I,S,O,,120380.8300000003,120379.33500000031,114435.677,114440.56999999998,114452.357,120390.437,,,
Task,flow.Loop,1_3,2021-04-30T10:45:00.272Z,,,,,,,,,,,,,,,,,,,,,,,,,,,,,,,37570.966000000306,,completion,,,0.8333333333333334,,,,,,,,,,,,,,,,,,120383.52499999997,120379.33500000031,82791.689,82792.88999999994,82808.369,120390.437,,,
Trap,html.Screen,1_4,2021-04-30T10:45:00.273Z,,,,,,,,,,,,,,,,,,,,,,,,,,,,,,,NaN,,skipped,,,,,,,,,,,,,,,,,,,,,120384.40000000014,120379.33500000031,,120384.29999999994,,120390.437,,,
Thanks,html.Screen,1_5,2021-04-30T10:45:04.477Z,,,,,,,,,,,,,,,,,,,,,,,,,,,,,,,4196.543000000267,,response,,,,,,,,,,,continue,click button,,,,,,,,,124588.35000000022,124586.98000000027,120373.757,120384.47500000006,120390.437,127529.915,,,
Headphone screening,flow.Sequence,1,2021-04-30T10:45:04.478Z,,,,,,,,,,,,,,,,,,,,,,,,,,,,,,,109251.18300000027,,completion,,,,,,,,,,,,,,,,,,,,,124588.50499999995,124586.98000000027,15319.117,15324.455000000171,15335.797,127529.915,,,
Instructions,html.Page,2_0,2021-04-30T10:45:30.703Z,,,,,,,,,,,,,,,,,,,,,,,,,,,,,,,23284.03499999999,,form submission,,,,,,,,,,,,,,,,,,,,,150814.1350000003,150813.94999999998,127513.235,127519.50499999998,127529.915,150815.195,,,
Holding screen,html.Screen,2_1_0_0,2021-04-30T10:45:40.682Z,,,,,,,,,,,,,,,,,,,,,,,,,,,,,,,9992.225000000006,,timeout,,,,,,,,,,,,,,,,,,,,,160792.6100000002,160790.74,150798.515,150814.26500000022,150815.195,160807.42,,,
screen,html.Screen,2_1_0_1_0,2021-04-30T10:45:41.572Z,,,,,,,,,,,,,,,,,53,,,,,,,,,,,,,,871.3500000002095,,response,,,,99,,,,,,,Space,keypress(Space),,,,,,,,When -- ----- -- ------ - ------- --- ----------<br>------------- ------ ------ ---- ---- ------- ----- -- ----<br>-------- ------- -- ---------- --- - --- ----- ----- ----<br>---- --- --- ----- --- ---- ---- ------- ----- ---- -------<br>--- --- -- ----- -- --- ---- -- --- ---- -- ------ ------<br>--- ----- -- ----,161683.26,161678.77000000022,160790.74,160792.7400000001,160807.42,161691.46,,0,When
screen,html.Screen,2_1_0_1_1,2021-04-30T10:45:42.143Z,,,,,,,,,,,,,,,,,53,,,,,,,,,,,,,,561.1400000000431,,response,,,,99,,,,,,,Space,keypress(Space),,,,,,,,---- it ----- -- ------ - ------- --- ----------<br>------------- ------ ------ ---- ---- ------- ----- -- ----<br>-------- ------- -- ---------- --- - --- ----- ----- ----<br>---- --- --- ----- --- ---- ---- ------- ----- ---- -------<br>--- --- -- ----- -- --- ---- -- --- ---- -- ------ ------<br>--- ----- -- ----,162254.25000000017,162252.60000000003,161674.78,161683.35,161691.46,162258.978,,1,it
screen,html.Screen,2_1_0_1_2,2021-04-30T10:45:42.753Z,,,,,,,,,,,,,,,,,53,,,,,,,,,,,,,,601.091999999946,,response,,,,99,,,,,,,Space,keypress(Space),,,,,,,,---- -- comes -- ------ - ------- --- ----------<br>------------- ------ ------ ---- ---- ------- ----- -- ----<br>-------- ------- -- ---------- --- - --- ----- ----- ----<br>---- --- --- ----- --- ---- ---- ------- ----- ---- -------<br>--- --- -- ----- -- --- ---- -- --- ---- -- ------ ------<br>--- ----- -- ----,162863.41000000015,162860.06999999995,162242.298,162254.3250000001,162258.978,162876.138,,2,comes
screen,html.Screen,2_1_0_1_3,2021-04-30T10:45:43.190Z,,,,,,,,,,,,,,,,,53,,,,,,,,,,,,,,422.73700000016834,,response,,,,99,,,,,,,Space,keypress(Space),,,,,,,,---- -- ----- to ------ - ------- --- ----------<br>------------- ------ ------ ---- ---- ------- ----- -- ----<br>-------- ------- -- ---------- --- - --- ----- ----- ----<br>---- --- --- ----- --- ---- ---- ------- ----- ---- -------<br>--- --- -- ----- -- --- ---- -- --- ---- -- ------ ------<br>--- ----- -- ----,163300.55500000002,163298.87500000017,162859.458,162863.4800000002,162876.138,163309.818,,3,to
screen,html.Screen,2_1_0_1_4,2021-04-30T10:45:43.754Z,,,,,,,,,,,,,,,,,53,,,,,,,,,,,,,,551.5620000000636,,response,,,,99,,,,,,,Space,keypress(Space),,,,,,,,---- -- ----- -- having - ------- --- ----------<br>------------- ------ ------ ---- ---- ------- ----- -- ----<br>-------- ------- -- ---------- --- - --- ----- ----- ----<br>---- --- --- ----- --- ---- ---- ------- ----- ---- -------<br>--- --- -- ----- -- --- ---- -- --- ---- -- ------ ------<br>--- ----- -- ----,163864.67000000016,163861.38000000006,163293.138,163300.64000000016,163309.818,163876.938,,4,having
screen,html.Screen,2_1_0_1_5,2021-04-30T10:45:44.180Z,,,,,,,,,,,,,,,,,53,,,,,,,,,,,,,,411.96200000023236,,response,,,,99,,,,,,,Space,keypress(Space),,,,,,,,---- -- ----- -- ------ a ------- --- ----------<br>------------- ------ ------ ---- ---- ------- ----- -- ----<br>-------- ------- -- ---------- --- - --- ----- ----- ----<br>---- --- --- ----- --- ---- ---- ------- ----- ---- -------<br>--- --- -- ----- -- --- ---- -- --- ---- -- ------ ------<br>--- ----- -- ----,164290.54500000007,164288.90000000023,163860.258,163864.74000000022,163876.938,164293.938,,5,a
screen,html.Screen,2_1_0_1_6,2021-04-30T10:45:44.755Z,,,,,,,,,,,,,,,,,53,,,,,,,,,,,,,,568.7020000000484,,response,,,,99,,,,,,,Space,keypress(Space),,,,,,,,---- -- ----- -- ------ - lasting --- ----------<br>------------- ------ ------ ---- ---- ------- ----- -- ----<br>-------- ------- -- ---------- --- - --- ----- ----- ----<br>---- --- --- ----- --- ---- ---- ------- ----- ---- -------<br>--- --- -- ----- -- --- ---- -- --- ---- -- ------ ------<br>--- ----- -- ----,164865.97499999995,164862.64000000004,164277.258,164290.63000000018,164293.938,164877.738,,6,lasting
screen,html.Screen,2_1_0_1_7,2021-04-30T10:45:45.327Z,,,,,,,,,,,,,,,,,53,,,,,,,,,,,,,,558.717000000237,,response,,,,99,,,,,,,Space,keypress(Space),,,,,,,,---- -- ----- -- ------ - ------- and ----------<br>------------- ------ ------ ---- ---- ------- ----- -- ----<br>-------- ------- -- ---------- --- - --- ----- ----- ----<br>---- --- --- ----- --- ---- ---- ------- ----- ---- -------<br>--- --- -- ----- -- --- ---- -- --- ---- -- ------ ------<br>--- ----- -- ----,165438.10000000006,165436.45500000025,164861.058,164866.0550000002,164877.738,165444.858,,7,and
screen,html.Screen,2_1_0_1_8,2021-04-30T10:45:46.049Z,,,,,,,,,,,,,,,,,53,,,,,,,,,,,,,,711.5469999999332,,response,,,,99,,,,,,,Space,keypress(Space),,,,,,,,---- -- ----- -- ------ - ------- --- fulfilling<br>------------- ------ ------ ---- ---- ------- ----- -- ----<br>-------- ------- -- ---------- --- - --- ----- ----- ----<br>---- --- --- ----- --- ---- ---- ------- ----- ---- -------<br>--- --- -- ----- -- --- ---- -- --- ---- -- ------ ------<br>--- ----- -- ----,166159.715,166156.40499999994,165428.178,165438.18000000034,165444.858,166162.098,,8,fulfilling
screen,html.Screen,2_1_0_1_9,2021-04-30T10:45:46.722Z,,,,,,,,,,,,,,,,,53,,,,,,,,,,,,,,669.4520000001066,,response,,,,99,,,,,,,Space,keypress(Space),,,,,,,,"---- -- ----- -- ------ - ------- --- ----------<br>relationship, ------ ------ ---- ---- ------- ----- -- ----<br>-------- ------- -- ---------- --- - --- ----- ----- ----<br>---- --- --- ----- --- ---- ---- ------- ----- ---- -------<br>--- --- -- ----- -- --- ---- -- --- ---- -- ------ ------<br>--- ----- -- ----",166833.13999999996,166831.5500000001,166145.418,166159.80000000013,166162.098,166845.978,,9,"relationship,"
screen,html.Screen,2_1_0_1_10,2021-04-30T10:45:47.287Z,,,,,,,,,,,,,,,,,53,,,,,,,,,,,,,,548.1020000002463,,response,,,,99,,,,,,,Space,keypress(Space),,,,,,,,---- -- ----- -- ------ - ------- --- ----------<br>------------- common ------ ---- ---- ------- ----- -- ----<br>-------- ------- -- ---------- --- - --- ----- ----- ----<br>---- --- --- ----- --- ---- ---- ------- ----- ---- -------<br>--- --- -- ----- -- --- ---- -- --- ---- -- ------ ------<br>--- ----- -- ----,167397.28500000024,167394.08000000025,166829.298,166833.22999999995,166845.978,167413.098,,10,common
screen,html.Screen,2_1_0_1_11,2021-04-30T10:45:47.791Z,,,,,,,,,,,,,,,,,53,,,,,,,,,,,,,,487.15199999991455,,response,,,,99,,,,,,,Space,keypress(Space),,,,,,,,---- -- ----- -- ------ - ------- --- ----------<br>------------- ------ wisdom ---- ---- ------- ----- -- ----<br>-------- ------- -- ---------- --- - --- ----- ----- ----<br>---- --- --- ----- --- ---- ---- ------- ----- ---- -------<br>--- --- -- ----- -- --- ---- -- --- ---- -- ------ ------<br>--- ----- -- ----,167901.88499999998,167900.2499999999,167396.418,167397.3699999999,167413.098,167913.498,,11,wisdom
screen,html.Screen,2_1_0_1_12,2021-04-30T10:45:48.209Z,,,,,,,,,,,,,,,,,53,,,,,,,,,,,,,,403.1270000001532,,response,,,,99,,,,,,,Space,keypress(Space),,,,,,,,---- -- ----- -- ------ - ------- --- ----------<br>------------- ------ ------ says ---- ------- ----- -- ----<br>-------- ------- -- ---------- --- - --- ----- ----- ----<br>---- --- --- ----- --- ---- ---- ------- ----- ---- -------<br>--- --- -- ----- -- --- ---- -- --- ---- -- ------ ------<br>--- ----- -- ----,168319.9000000002,168316.62500000015,167896.818,167901.96500000026,167913.498,168330.498,,12,says
screen,html.Screen,2_1_0_1_13,2021-04-30T10:45:48.691Z,,,,,,,,,,,,,,,,,53,,,,,,,,,,,,,,469.667000000336,,response,,,,99,,,,,,,Space,keypress(Space),,,,,,,,---- -- ----- -- ------ - ------- --- ----------<br>------------- ------ ------ ---- that ------- ----- -- ----<br>-------- ------- -- ---------- --- - --- ----- ----- ----<br>---- --- --- ----- --- ---- ---- ------- ----- ---- -------<br>--- --- -- ----- -- --- ---- -- --- ---- -- ------ ------<br>--- ----- -- ----,168801.77500000014,168800.16500000033,168313.818,168319.9900000002,168330.498,168814.218,,13,that
screen,html.Screen,2_1_0_1_14,2021-04-30T10:45:49.143Z,,,,,,,,,,,,,,,,,53,,,,,,,,,,,,,,436.1820000001462,,response,,,,99,,,,,,,Space,keypress(Space),,,,,,,,---- -- ----- -- ------ - ------- --- ----------<br>------------- ------ ------ ---- ---- feeling ----- -- ----<br>-------- ------- -- ---------- --- - --- ----- ----- ----<br>---- --- --- ----- --- ---- ---- ------- ----- ---- -------<br>--- --- -- ----- -- --- ---- -- --- ---- -- ------ ------<br>--- ----- -- ----,169253.62999999992,169250.40000000014,168797.538,168801.85499999992,168814.218,169264.578,,14,feeling
screen,html.Screen,2_1_0_1_15,2021-04-30T10:45:49.558Z,,,,,,,,,,,,,,,,,53,,,,,,,,,,,,,,401.98700000019744,,response,,,,99,,,,,,,Space,keypress(Space),,,,,,,,---- -- ----- -- ------ - ------- --- ----------<br>------------- ------ ------ ---- ---- ------- close -- ----<br>-------- ------- -- ---------- --- - --- ----- ----- ----<br>---- --- --- ----- --- ---- ---- ------- ----- ---- -------<br>--- --- -- ----- -- --- ---- -- --- ---- -- ------ ------<br>--- ----- -- ----,169668.25500000027,169666.5650000002,169247.898,169253.71500000005,169264.578,169681.578,,15,close
screen,html.Screen,2_1_0_1_16,2021-04-30T10:45:49.942Z,,,,,,,,,,,,,,,,,53,,,,,,,,,,,,,,367.5820000002568,,response,,,,99,,,,,,,Space,keypress(Space),,,,,,,,---- -- ----- -- ------ - ------- --- ----------<br>------------- ------ ------ ---- ---- ------- ----- to ----<br>-------- ------- -- ---------- --- - --- ----- ----- ----<br>---- --- --- ----- --- ---- ---- ------- ----- ---- -------<br>--- --- -- ----- -- --- ---- -- --- ---- -- ------ ------<br>--- ----- -- ----,170052.38500000018,170049.16000000027,169664.898,169668.33999999994,169681.578,170065.218,,16,to
screen,html.Screen,2_1_0_1_17,2021-04-30T10:45:50.424Z,,,,,,,,,,,,,,,,,53,,,,,,,,,,,,,,467.727000000159,,response,,,,99,,,,,,,Space,keypress(Space),,,,,,,,---- -- ----- -- ------ - ------- --- ----------<br>------------- ------ ------ ---- ---- ------- ----- -- your<br>-------- ------- -- ---------- --- - --- ----- ----- ----<br>---- --- --- ----- --- ---- ---- ------- ----- ---- -------<br>--- --- -- ----- -- --- ---- -- --- ---- -- ------ ------<br>--- ----- -- ----,170534.54500000022,170532.94500000015,170048.538,170052.4600000001,170065.218,170548.938,,17,your
screen,html.Screen,2_1_0_1_18,2021-04-30T10:45:50.932Z,,,,,,,,,,,,,,,,,53,,,,,,,,,,,,,,490.29200000010314,,response,,,,99,,,,,,,Space,keypress(Space),,,,,,,,---- -- ----- -- ------ - ------- --- ----------<br>------------- ------ ------ ---- ---- ------- ----- -- ----<br>romantic ------- -- ---------- --- - --- ----- ----- ----<br>---- --- --- ----- --- ---- ---- ------- ----- ---- -------<br>--- --- -- ----- -- --- ---- -- --- ---- -- ------ ------<br>--- ----- -- ----,171042.47499999998,171039.2300000001,170532.258,170534.63000000032,170548.938,171049.338,,18,romantic
screen,html.Screen,2_1_0_1_19,2021-04-30T10:45:51.414Z,,,,,,,,,,,,,,,,,53,,,,,,,,,,,,,,473.55199999996694,,response,,,,99,,,,,,,Space,keypress(Space),,,,,,,,---- -- ----- -- ------ - ------- --- ----------<br>------------- ------ ------ ---- ---- ------- ----- -- ----<br>-------- partner -- ---------- --- - --- ----- ----- ----<br>---- --- --- ----- --- ---- ---- ------- ----- ---- -------<br>--- --- -- ----- -- --- ---- -- --- ---- -- ------ ------<br>--- ----- -- ----,171524.52000000016,171522.88999999996,171032.658,171042.55000000034,171049.338,171533.058,,19,partner
screen,html.Screen,2_1_0_1_20,2021-04-30T10:45:51.854Z,,,,,,,,,,,,,,,,,53,,,,,,,,,,,,,,428.701999999932,,response,,,,99,,,,,,,Space,keypress(Space),,,,,,,,---- -- ----- -- ------ - ------- --- ----------<br>------------- ------ ------ ---- ---- ------- ----- -- ----<br>-------- ------- is ---------- --- - --- ----- ----- ----<br>---- --- --- ----- --- ---- ---- ------- ----- ---- -------<br>--- --- -- ----- -- --- ---- -- --- ---- -- ------ ------<br>--- ----- -- ----,171965.18500000026,171961.75999999992,171516.378,171524.59999999998,171533.058,171967.155,,20,is
screen,html.Screen,2_1_0_1_21,2021-04-30T10:45:52.820Z,,,,,,,,,,,,,,,,,53,,,,,,,,,,,,,,962.1450000000186,,response,,,,99,,,,,,,Space,keypress(Space),,,,,,,,---- -- ----- -- ------ - ------- --- ----------<br>------------- ------ ------ ---- ---- ------- ----- -- ----<br>-------- ------- -- paramount. --- - --- ----- ----- ----<br>---- --- --- ----- --- ---- ---- ------- ----- ---- -------<br>--- --- -- ----- -- --- ---- -- --- ---- -- ------ ------<br>--- ----- -- ----,172930.96500000023,172929.30000000002,171950.475,171965.26500000004,171967.155,172934.595,,21,paramount.
screen,html.Screen,2_1_0_1_22,2021-04-30T10:45:53.486Z,,,,,,,,,,,,,,,,,53,,,,,,,,,,,,,,658.4200000001583,,response,,,,99,,,,,,,Space,keypress(Space),,,,,,,,---- -- ----- -- ------ - ------- --- ----------<br>------------- ------ ------ ---- ---- ------- ----- -- ----<br>-------- ------- -- ---------- But - --- ----- ----- ----<br>---- --- --- ----- --- ---- ---- ------- ----- ---- -------<br>--- --- -- ----- -- --- ---- -- --- ---- -- ------ ------<br>--- ----- -- ----,173596.3549999999,173593.01500000016,172917.915,172931.0499999999,172934.595,173601.795,,22,But
screen,html.Screen,2_1_0_1_23,2021-04-30T10:45:53.900Z,,,,,,,,,,,,,,,,,53,,,,,,,,,,,,,,407.5000000000582,,response,,,,99,,,,,,,Space,keypress(Space),,,,,,,,---- -- ----- -- ------ - ------- --- ----------<br>------------- ------ ------ ---- ---- ------- ----- -- ----<br>-------- ------- -- ---------- --- a --- ----- ----- ----<br>---- --- --- ----- --- ---- ---- ------- ----- ---- -------<br>--- --- -- ----- -- --- ---- -- --- ---- -- ------ ------<br>--- ----- -- ----,174010.96000000028,174009.29500000007,173585.115,173596.43500000014,173601.795,174018.795,,23,a
screen,html.Screen,2_1_0_1_24,2021-04-30T10:45:54.296Z,,,,,,,,,,,,,,,,,53,,,,,,,,,,,,,,384.27000000019325,,response,,,,99,,,,,,,Space,keypress(Space),,,,,,,,---- -- ----- -- ------ - ------- --- ----------<br>------------- ------ ------ ---- ---- ------- ----- -- ----<br>-------- ------- -- ---------- --- - new ----- ----- ----<br>---- --- --- ----- --- ---- ---- ------- ----- ---- -------<br>--- --- -- ----- -- --- ---- -- --- ---- -- ------ ------<br>--- ----- -- ----,174406.4350000001,174403.0650000002,174002.115,174011.04499999995,174018.795,174419.115,,24,new
screen,html.Screen,2_1_0_1_25,2021-04-30T10:45:54.812Z,,,,,,,,,,,,,,,,,53,,,,,,,,,,,,,,501.5950000001176,,response,,,,99,,,,,,,Space,keypress(Space),,,,,,,,---- -- ----- -- ------ - ------- --- ----------<br>------------- ------ ------ ---- ---- ------- ----- -- ----<br>-------- ------- -- ---------- --- - --- study ----- ----<br>---- --- --- ----- --- ---- ---- ------- ----- ---- -------<br>--- --- -- ----- -- --- ---- -- --- ---- -- ------ ------<br>--- ----- -- ----,174922.37,174920.7100000001,174402.435,174406.51000000004,174419.115,174936.195,,25,study
screen,html.Screen,2_1_0_1_26,2021-04-30T10:45:55.274Z,,,,,,,,,,,,,,,,,53,,,,,,,,,,,,,,445.6650000001828,,response,,,,99,,,,,,,Space,keypress(Space),,,,,,,,---- -- ----- -- ------ - ------- --- ----------<br>------------- ------ ------ ---- ---- ------- ----- -- ----<br>-------- ------- -- ---------- --- - --- ----- finds ----<br>---- --- --- ----- --- ---- ---- ------- ----- ---- -------<br>--- --- -- ----- -- --- ---- -- --- ---- -- ------ ------<br>--- ----- -- ----,175385.0500000001,175381.8600000002,174919.515,174922.45000000024,174936.195,175386.555,,26,finds
screen,html.Screen,2_1_0_1_27,2021-04-30T10:45:55.723Z,,,,,,,,,,,,,,,,,53,,,,,,,,,,,,,,445.26000000024214,,response,,,,99,,,,,,,Space,keypress(Space),,,,,,,,---- -- ----- -- ------ - ------- --- ----------<br>------------- ------ ------ ---- ---- ------- ----- -- ----<br>-------- ------- -- ---------- --- - --- ----- ----- that<br>---- --- --- ----- --- ---- ---- ------- ----- ---- -------<br>--- --- -- ----- -- --- ---- -- --- ---- -- ------ ------<br>--- ----- -- ----,175833.47000000026,175831.81500000024,175369.875,175385.12500000003,175386.555,175836.915,,27,that
screen,html.Screen,2_1_0_1_28,2021-04-30T10:45:56.231Z,,,,,,,,,,,,,,,,,53,,,,,,,,,,,,,,501.2000000002445,,response,,,,99,,,,,,,Space,keypress(Space),,,,,,,,---- -- ----- -- ------ - ------- --- ----------<br>------------- ------ ------ ---- ---- ------- ----- -- ----<br>-------- ------- -- ---------- --- - --- ----- ----- ----<br>it's --- --- ----- --- ---- ---- ------- ----- ---- -------<br>--- --- -- ----- -- --- ---- -- --- ---- -- ------ ------<br>--- ----- -- ----,176341.34500000006,176338.11500000025,175820.235,175833.55499999993,175836.915,176353.995,,28,it's
screen,html.Screen,2_1_0_1_29,2021-04-30T10:45:56.612Z,,,,,,,,,,,,,,,,,53,,,,,,,,,,,,,,366.70000000021537,,response,,,,99,,,,,,,Space,keypress(Space),,,,,,,,---- -- ----- -- ------ - ------- --- ----------<br>------------- ------ ------ ---- ---- ------- ----- -- ----<br>-------- ------- -- ---------- --- - --- ----- ----- ----<br>---- not --- ----- --- ---- ---- ------- ----- ---- -------<br>--- --- -- ----- -- --- ---- -- --- ---- -- ------ ------<br>--- ----- -- ----,176722.3449999999,176720.6950000002,176337.315,176341.4250000003,176353.995,176737.635,,29,not
screen,html.Screen,2_1_0_1_30,2021-04-30T10:45:57.052Z,,,,,,,,,,,,,,,,,53,,,,,,,,,,,,,,421.86000000010245,,response,,,,99,,,,,,,Space,keypress(Space),,,,,,,,---- -- ----- -- ------ - ------- --- ----------<br>------------- ------ ------ ---- ---- ------- ----- -- ----<br>-------- ------- -- ---------- --- - --- ----- ----- ----<br>---- --- how ----- --- ---- ---- ------- ----- ---- -------<br>--- --- -- ----- -- --- ---- -- --- ---- -- ------ ------<br>--- ----- -- ----,177162.74500000032,177159.4950000001,176720.955,176722.43000000002,176737.635,177171.315,,30,how
screen,html.Screen,2_1_0_1_31,2021-04-30T10:45:57.568Z,,,,,,,,,,,,,,,,,53,,,,,,,,,,,,,,505.7150000000547,,response,,,,99,,,,,,,Space,keypress(Space),,,,,,,,---- -- ----- -- ------ - ------- --- ----------<br>------------- ------ ------ ---- ---- ------- ----- -- ----<br>-------- ------- -- ---------- --- - --- ----- ----- ----<br>---- --- --- close --- ---- ---- ------- ----- ---- -------<br>--- --- -- ----- -- --- ---- -- --- ---- -- ------ ------<br>--- ----- -- ----,177678.70000000016,177677.03000000006,177154.635,177162.8350000003,177171.315,177688.395,,31,close
screen,html.Screen,2_1_0_1_32,2021-04-30T10:45:58.031Z,,,,,,,,,,,,,,,,,53,,,,,,,,,,,,,,449.905000000319,,response,,,,99,,,,,,,Space,keypress(Space),,,,,,,,---- -- ----- -- ------ - ------- --- ----------<br>------------- ------ ------ ---- ---- ------- ----- -- ----<br>-------- ------- -- ---------- --- - --- ----- ----- ----<br>---- --- --- ----- you ---- ---- ------- ----- ---- -------<br>--- --- -- ----- -- --- ---- -- --- ---- -- ------ ------<br>--- ----- -- ----,178141.63500000018,178138.3000000003,177671.715,177678.77999999997,177688.395,178155.435,,32,you
screen,html.Screen,2_1_0_1_33,2021-04-30T10:45:58.524Z,,,,,,,,,,,,,,,,,53,,,,,,,,,,,,,,477.8250000003027,,response,,,,99,,,,,,,Space,keypress(Space),,,,,,,,---- -- ----- -- ------ - ------- --- ----------<br>------------- ------ ------ ---- ---- ------- ----- -- ----<br>-------- ------- -- ---------- --- - --- ----- ----- ----<br>---- --- --- ----- --- feel ---- ------- ----- ---- -------<br>--- --- -- ----- -- --- ---- -- --- ---- -- ------ ------<br>--- ----- -- ----,178634.90000000026,178633.2600000003,178138.755,178141.70500000022,178155.435,178639.155,,33,feel
screen,html.Screen,2_1_0_1_34,2021-04-30T10:45:59.100Z,,,,,,,,,,,,,,,,,53,,,,,,,,,,,,,,567.8650000000489,,response,,,,99,,,,,,,Space,keypress(Space),,,,,,,,---- -- ----- -- ------ - ------- --- ----------<br>------------- ------ ------ ---- ---- ------- ----- -- ----<br>-------- ------- -- ---------- --- - --- ----- ----- ----<br>---- --- --- ----- --- ---- that ------- ----- ---- -------<br>--- --- -- ----- -- --- ---- -- --- ---- -- ------ ------<br>--- ----- -- ----,179210.28,179207.02000000005,178622.475,178635.5500000002,178639.155,179222.955,,34,that
screen,html.Screen,2_1_0_1_35,2021-04-30T10:45:59.717Z,,,,,,,,,,,,,,,,,53,,,,,,,,,,,,,,602.8599999999278,,response,,,,99,,,,,,,Space,keypress(Space),,,,,,,,---- -- ----- -- ------ - ------- --- ----------<br>------------- ------ ------ ---- ---- ------- ----- -- ----<br>-------- ------- -- ---------- --- - --- ----- ----- ----<br>---- --- --- ----- --- ---- ---- matters ----- ---- -------<br>--- --- -- ----- -- --- ---- -- --- ---- -- ------ ------<br>--- ----- -- ----,179827.44000000026,179825.81499999992,179206.275,179210.36500000014,179222.955,179840.115,,35,matters
screen,html.Screen,2_1_0_1_36,2021-04-30T10:46:00.495Z,,,,,,,,,,,,,,,,,53,,,,,,,,,,,,,,761.8950000003097,,response,,,,99,,,,,,,Space,keypress(Space),,,,,,,,"---- -- ----- -- ------ - ------- --- ----------<br>------------- ------ ------ ---- ---- ------- ----- -- ----<br>-------- ------- -- ---------- --- - --- ----- ----- ----<br>---- --- --- ----- --- ---- ---- ------- most, ---- -------<br>--- --- -- ----- -- --- ---- -- --- ---- -- ------ ------<br>--- ----- -- ----",180605.22000000015,180602.0100000003,179823.435,179827.88499999992,179840.115,180607.395,,36,"most,"
screen,html.Screen,2_1_0_1_37,2021-04-30T10:46:00.999Z,,,,,,,,,,,,,,,,,53,,,,,,,,,,,,,,501.0050000003248,,response,,,,99,,,,,,,Space,keypress(Space),,,,,,,,---- -- ----- -- ------ - ------- --- ----------<br>------------- ------ ------ ---- ---- ------- ----- -- ----<br>-------- ------- -- ---------- --- - --- ----- ----- ----<br>---- --- --- ----- --- ---- ---- ------- ----- it's -------<br>--- --- -- ----- -- --- ---- -- --- ---- -- ------ ------<br>--- ----- -- ----,181110.03000000006,181108.4000000003,180590.715,180605.30500000028,180607.395,181124.475,,37,it's
screen,html.Screen,2_1_0_1_38,2021-04-30T10:46:01.462Z,,,,,,,,,,,,,,,,,53,,,,,,,,,,,,,,445,,response,,,,99,,,,,,,Space,keypress(Space),,,,,,,,---- -- ----- -- ------ - ------- --- ----------<br>------------- ------ ------ ---- ---- ------- ----- -- ----<br>-------- ------- -- ---------- --- - --- ----- ----- ----<br>---- --- --- ----- --- ---- ---- ------- ----- ---- whether<br>--- --- -- ----- -- --- ---- -- --- ---- -- ------ ------<br>--- ----- -- ----,181572.77,181569.475,181107.795,181110.11500000017,181124.475,181574.835,,38,whether
screen,html.Screen,2_1_0_1_39,2021-04-30T10:46:01.900Z,,,,,,,,,,,,,,,,,53,,,,,,,,,,,,,,433.6300000001211,,response,,,,99,,,,,,,Space,keypress(Space),,,,,,,,---- -- ----- -- ------ - ------- --- ----------<br>------------- ------ ------ ---- ---- ------- ----- -- ----<br>-------- ------- -- ---------- --- - --- ----- ----- ----<br>---- --- --- ----- --- ---- ---- ------- ----- ---- -------<br>you --- -- ----- -- --- ---- -- --- ---- -- ------ ------<br>--- ----- -- ----,182010.24500000017,182008.4650000001,181558.155,181572.85500000013,181574.835,182025.555,,39,you
screen,html.Screen,2_1_0_1_40,2021-04-30T10:46:02.306Z,,,,,,,,,,,,,,,,,53,,,,,,,,,,,,,,387.93000000028405,,response,,,,99,,,,,,,Space,keypress(Space),,,,,,,,---- -- ----- -- ------ - ------- --- ----------<br>------------- ------ ------ ---- ---- ------- ----- -- ----<br>-------- ------- -- ---------- --- - --- ----- ----- ----<br>---- --- --- ----- --- ---- ---- ------- ----- ---- -------<br>--- are -- ----- -- --- ---- -- --- ---- -- ------ ------<br>--- ----- -- ----,182416.66499999998,182413.48500000028,182008.875,182010.3200000001,182025.555,182425.875,,40,are
screen,html.Screen,2_1_0_1_41,2021-04-30T10:46:02.788Z,,,,,,,,,,,,,,,,,53,,,,,,,,,,,,,,471.36000000013155,,response,,,,99,,,,,,,Space,keypress(Space),,,,,,,,---- -- ----- -- ------ - ------- --- ----------<br>------------- ------ ------ ---- ---- ------- ----- -- ----<br>-------- ------- -- ---------- --- - --- ----- ----- ----<br>---- --- --- ----- --- ---- ---- ------- ----- ---- -------<br>--- --- as ----- -- --- ---- -- --- ---- -- ------ ------<br>--- ----- -- ----,182898.87000000023,182897.23500000013,182409.195,182416.74000000034,182425.875,182909.595,,41,as
screen,html.Screen,2_1_0_1_42,2021-04-30T10:46:03.262Z,,,,,,,,,,,,,,,,,53,,,,,,,,,,,,,,460.1650000002701,,response,,,,99,,,,,,,Space,keypress(Space),,,,,,,,---- -- ----- -- ------ - ------- --- ----------<br>------------- ------ ------ ---- ---- ------- ----- -- ----<br>-------- ------- -- ---------- --- - --- ----- ----- ----<br>---- --- --- ----- --- ---- ---- ------- ----- ---- -------<br>--- --- -- close -- --- ---- -- --- ---- -- ------ ------<br>--- ----- -- ----,183373.02000000022,183369.76000000027,182892.915,182898.94500000015,182909.595,183376.635,,42,close
screen,html.Screen,2_1_0_1_43,2021-04-30T10:46:03.722Z,,,,,,,,,,,,,,,,,53,,,,,,,,,,,,,,454.3200000001234,,response,,,,99,,,,,,,Space,keypress(Space),,,,,,,,---- -- ----- -- ------ - ------- --- ----------<br>------------- ------ ------ ---- ---- ------- ----- -- ----<br>-------- ------- -- ---------- --- - --- ----- ----- ----<br>---- --- --- ----- --- ---- ---- ------- ----- ---- -------<br>--- --- -- ----- as --- ---- -- --- ---- -- ------ ------<br>--- ----- -- ----,183832.60500000027,183830.95500000013,183359.955,183373.09500000015,183376.635,183843.675,,43,as
screen,html.Screen,2_1_0_1_44,2021-04-30T10:46:04.129Z,,,,,,,,,,,,,,,,,53,,,,,,,,,,,,,,392.314999999915,,response,,,,99,,,,,,,Space,keypress(Space),,,,,,,,---- -- ----- -- ------ - ------- --- ----------<br>------------- ------ ------ ---- ---- ------- ----- -- ----<br>-------- ------- -- ---------- --- - --- ----- ----- ----<br>---- --- --- ----- --- ---- ---- ------- ----- ---- -------<br>--- --- -- ----- -- you ---- -- --- ---- -- ------ ------<br>--- ----- -- ----,184239.26499999993,184235.9899999999,183826.995,183832.68500000008,183843.675,184243.995,,44,you
screen,html.Screen,2_1_0_1_45,2021-04-30T10:46:04.622Z,,,,,,,,,,,,,,,,,53,,,,,,,,,,,,,,486.88500000030035,,response,,,,99,,,,,,,Space,keypress(Space),,,,,,,,---- -- ----- -- ------ - ------- --- ----------<br>------------- ------ ------ ---- ---- ------- ----- -- ----<br>-------- ------- -- ---------- --- - --- ----- ----- ----<br>---- --- --- ----- --- ---- ---- ------- ----- ---- -------<br>--- --- -- ----- -- --- want -- --- ---- -- ------ ------<br>--- ----- -- ----,184732.54500000007,184730.8800000003,184227.315,184239.34500000018,184243.995,184744.395,,45,want
screen,html.Screen,2_1_0_1_46,2021-04-30T10:46:05.074Z,,,,,,,,,,,,,,,,,53,,,,,,,,,,,,,,436.61000000016065,,response,,,,99,,,,,,,Space,keypress(Space),,,,,,,,---- -- ----- -- ------ - ------- --- ----------<br>------------- ------ ------ ---- ---- ------- ----- -- ----<br>-------- ------- -- ---------- --- - --- ----- ----- ----<br>---- --- --- ----- --- ---- ---- ------- ----- ---- -------<br>--- --- -- ----- -- --- ---- to --- ---- -- ------ ------<br>--- ----- -- ----,185184.23000000007,185181.00500000015,184727.715,184732.63500000007,184744.395,185194.755,,46,to
screen,html.Screen,2_1_0_1_47,2021-04-30T10:46:05.590Z,,,,,,,,,,,,,,,,,53,,,,,,,,,,,,,,503.8700000002282,,response,,,,99,,,,,,,Space,keypress(Space),,,,,,,,"---- -- ----- -- ------ - ------- --- ----------<br>------------- ------ ------ ---- ---- ------- ----- -- ----<br>-------- ------- -- ---------- --- - --- ----- ----- ----<br>---- --- --- ----- --- ---- ---- ------- ----- ---- -------<br>--- --- -- ----- -- --- ---- -- be, ---- -- ------ ------<br>--- ----- -- ----",185700.25499999998,185698.62500000023,185178.075,185184.305,185194.755,185711.835,,47,"be,"
screen,html.Screen,2_1_0_1_48,2021-04-30T10:46:06.581Z,,,,,,,,,,,,,,,,,53,,,,,,,,,,,,,,976.7549999999756,,response,,,,99,,,,,,,Space,keypress(Space),,,,,,,,---- -- ----- -- ------ - ------- --- ----------<br>------------- ------ ------ ---- ---- ------- ----- -- ----<br>-------- ------- -- ---------- --- - --- ----- ----- ----<br>---- --- --- ----- --- ---- ---- ------- ----- ---- -------<br>--- --- -- ----- -- --- ---- -- --- even -- ------ ------<br>--- ----- -- ----,186691.89000000028,186688.58999999997,185695.155,185700.33500000022,185711.835,186695.955,,48,even
screen,html.Screen,2_1_0_1_49,2021-04-30T10:46:06.996Z,,,,,,,,,,,,,,,,,53,,,,,,,,,,,,,,408.9800000000687,,response,,,,99,,,,,,,Space,keypress(Space),,,,,,,,---- -- ----- -- ------ - ------- --- ----------<br>------------- ------ ------ ---- ---- ------- ----- -- ----<br>-------- ------- -- ---------- --- - --- ----- ----- ----<br>---- --- --- ----- --- ---- ---- ------- ----- ---- -------<br>--- --- -- ----- -- --- ---- -- --- ---- if ------ ------<br>--- ----- -- ----,187106.56500000026,187104.93500000006,186679.275,186691.95500000002,186695.955,187112.955,,49,if
screen,html.Screen,2_1_0_1_50,2021-04-30T10:46:07.436Z,,,,,,,,,,,,,,,,,53,,,,,,,,,,,,,,430.64500000022235,,response,,,,99,,,,,,,Space,keypress(Space),,,,,,,,---- -- ----- -- ------ - ------- --- ----------<br>------------- ------ ------ ---- ---- ------- ----- -- ----<br>-------- ------- -- ---------- --- - --- ----- ----- ----<br>---- --- --- ----- --- ---- ---- ------- ----- ---- -------<br>--- --- -- ----- -- --- ---- -- --- ---- -- that's ------<br>--- ----- -- ----,187546.7900000001,187543.6000000002,187096.275,187106.64500000008,187112.955,187563.315,,50,that's
screen,html.Screen,2_1_0_1_51,2021-04-30T10:46:07.896Z,,,,,,,,,,,,,,,,,53,,,,,,,,,,,,,,441.679999999993,,response,,,,99,,,,,,,Space,keypress(Space),,,,,,,,---- -- ----- -- ------ - ------- --- ----------<br>------------- ------ ------ ---- ---- ------- ----- -- ----<br>-------- ------- -- ---------- --- - --- ----- ----- ----<br>---- --- --- ----- --- ---- ---- ------- ----- ---- -------<br>--- --- -- ----- -- --- ---- -- --- ---- -- ------ really<br>--- ----- -- ----,188006.64500000016,188004.995,187546.635,187546.8699999999,187563.315,188013.675,,51,really
screen,html.Screen,2_1_0_1_52,2021-04-30T10:46:08.393Z,,,,,,,,,,,,,,,,,53,,,,,,,,,,,,,,486.24499999999534,,response,,,,99,,,,,,,Space,keypress(Space),,,,,,,,---- -- ----- -- ------ - ------- --- ----------<br>------------- ------ ------ ---- ---- ------- ----- -- ----<br>-------- ------- -- ---------- --- - --- ----- ----- ----<br>---- --- --- ----- --- ---- ---- ------- ----- ---- -------<br>--- --- -- ----- -- --- ---- -- --- ---- -- ------ ------<br>not ----- -- ----,188503.20000000033,188499.91999999998,187996.995,188006.7200000001,188013.675,188514.075,,52,not
screen,html.Screen,2_1_0_1_53,2021-04-30T10:46:08.796Z,,,,,,,,,,,,,,,,,53,,,,,,,,,,,,,,390.92499999995925,,response,,,,99,,,,,,,Space,keypress(Space),,,,,,,,---- -- ----- -- ------ - ------- --- ----------<br>------------- ------ ------ ---- ---- ------- ----- -- ----<br>-------- ------- -- ---------- --- - --- ----- ----- ----<br>---- --- --- ----- --- ---- ---- ------- ----- ---- -------<br>--- --- -- ----- -- --- ---- -- --- ---- -- ------ ------<br>--- close -- ----,188906.61000000022,188904.99999999997,188497.395,188503.26999999993,188514.075,188914.395,,53,close
screen,html.Screen,2_1_0_1_54,2021-04-30T10:46:09.225Z,,,,,,,,,,,,,,,,,53,,,,,,,,,,,,,,418.134999999922,,response,,,,99,,,,,,,Space,keypress(Space),,,,,,,,---- -- ----- -- ------ - ------- --- ----------<br>------------- ------ ------ ---- ---- ------- ----- -- ----<br>-------- ------- -- ---------- --- - --- ----- ----- ----<br>---- --- --- ----- --- ---- ---- ------- ----- ---- -------<br>--- --- -- ----- -- --- ---- -- --- ---- -- ------ ------<br>--- ----- at ----,189335.8450000003,189332.5299999999,188897.715,188906.69000000003,188914.395,189348.075,,54,at
screen,html.Screen,2_1_0_1_55,2021-04-30T10:46:09.899Z,,,,,,,,,,,,,,,,,53,,,,,,,,,,,,,,659.5499999999593,,response,,,,99,,,,,,,Space,keypress(Space),,,,,,,,---- -- ----- -- ------ - ------- --- ----------<br>------------- ------ ------ ---- ---- ------- ----- -- ----<br>-------- ------- -- ---------- --- - --- ----- ----- ----<br>---- --- --- ----- --- ---- ---- ------- ----- ---- -------<br>--- --- -- ----- -- --- ---- -- --- ---- -- ------ ------<br>--- ----- -- all.,190009.25500000018,190007.62499999997,189331.395,189335.91500000033,189348.075,190015.275,,55,all.
Item 99,flow.Loop,2_1_0_1,2021-04-30T10:46:09.899Z,,,,,,,,,,,,,,,,,,,,,,,,,,,,,,,29200.204999999958,,completion,,,,,C,,,,,,,,,,,silence,,,,,190009.40500000003,190007.62499999997,160790.74,160792.70500000007,160807.42,190015.275,,,
Question 1,html.Screen,2_1_0_2,2021-04-30T10:46:21.262Z,,,,,,,,,,,,,,,,,,,,,,,,,,,,true,FALSE,,11356.395000000222,,response,,,,99,C,,,,,,FALSE,click #choice-2,,,,silence,,,,,201373.01,201371.67000000022,189998.595,190009.4700000002,190015.275,201374.605,,,
Question 2,html.Screen,2_1_0_3,2021-04-30T10:46:40.141Z,,,,,,,,,,,,,,,,,,,,,,,,,,,,true,TRUE,,18875.54999999993,,response,,,,99,C,,,,,,TRUE,click #choice-1,,,,silence,,,,,220251.4450000001,220250.15499999994,201357.925,201373.09500000015,201374.605,220257.269,,,
Item 99,flow.Sequence,2_1_0,2021-04-30T10:46:40.141Z,,,,,,,,,,,,,,,,,,,,,,,,,,,,,,,69434.95999999993,,completion,,,,,,,,,,,,,,,,,,,,,220251.55999999994,220250.15499999994,150798.515,150814.24500000026,150815.195,220257.269,,,
Holding screen,html.Screen,2_1_1_0,2021-04-30T10:46:50.124Z,,,,,,,,,,,,,,,,,,,,,,,,,,,,,,,9991.736999999994,,timeout,,,,,,,,,,,,,,,,,,,,,230234.5750000002,230232.326,220240.589,220251.6400000002,220257.269,230249.006,,,
screen,html.Screen,2_1_1_1_0,2021-04-30T10:46:51.573Z,,,,,,,,,,,,,,,,,54,,,,,,,,,,,,,,1430.329000000056,,response,,,,100,,,,,,,Space,keypress(Space),,,,,,,,At --- ---- --- ------ ----- ------- ---- -- --- ------- --<br>------- ---------- ------ -- ----- -- ----- -- ---- ------<br>--- ----- --- --- ------ -------- ----- --- ------ ----- --<br>----- ----- ---------- --- --- ------ ------ ---- -- ------<br>------- --- ------ ----- --- ---- ------- -- ---- --- --<br>------- ------,231682.9150000001,231679.33500000005,230232.326,230234.68000000025,230249.006,231683.486,,0,At
screen,html.Screen,2_1_1_1_1,2021-04-30T10:46:51.976Z,,,,,,,,,,,,,,,,,54,,,,,,,,,,,,,,400.98900000032154,,response,,,,100,,,,,,,Space,keypress(Space),,,,,,,,-- the ---- --- ------ ----- ------- ---- -- --- ------- --<br>------- ---------- ------ -- ----- -- ----- -- ---- ------<br>--- ----- --- --- ------ -------- ----- --- ------ ----- --<br>----- ----- ---------- --- --- ------ ------ ---- -- ------<br>------- --- ------ ----- --- ---- ------- -- ---- --- --<br>------- ------,232086.12000000017,232084.47500000033,231666.806,231682.98500000013,231683.486,232100.486,,1,the
screen,html.Screen,2_1_1_1_2,2021-04-30T10:46:52.405Z,,,,,,,,,,,,,,,,,54,,,,,,,,,,,,,,411.5440000000817,,response,,,,100,,,,,,,Space,keypress(Space),,,,,,,,-- --- time --- ------ ----- ------- ---- -- --- ------- --<br>------- ---------- ------ -- ----- -- ----- -- ---- ------<br>--- ----- --- --- ------ -------- ----- --- ------ ----- --<br>----- ----- ---------- --- --- ------ ------ ---- -- ------<br>------- --- ------ ----- --- ---- ------- -- ---- --- --<br>------- ------,232515.28500000018,232512.0300000001,232083.806,232086.20500000028,232100.486,232517.486,,2,time
screen,html.Screen,2_1_1_1_3,2021-04-30T10:46:52.797Z,,,,,,,,,,,,,,,,,54,,,,,,,,,,,,,,388.13400000022375,,response,,,,100,,,,,,,Space,keypress(Space),,,,,,,,-- --- ---- the ------ ----- ------- ---- -- --- ------- --<br>------- ---------- ------ -- ----- -- ----- -- ---- ------<br>--- ----- --- --- ------ -------- ----- --- ------ ----- --<br>----- ----- ---------- --- --- ------ ------ ---- -- ------<br>------- --- ------ ----- --- ---- ------- -- ---- --- --<br>------- ------,232907.30000000008,232905.62000000023,232500.806,232515.3550000002,232517.486,232917.806,,3,the
screen,html.Screen,2_1_1_1_4,2021-04-30T10:46:53.226Z,,,,,,,,,,,,,,,,,54,,,,,,,,,,,,,,415.47400000004563,,response,,,,100,,,,,,,Space,keypress(Space),,,,,,,,-- --- ---- --- French ----- ------- ---- -- --- ------- --<br>------- ---------- ------ -- ----- -- ----- -- ---- ------<br>--- ----- --- --- ------ -------- ----- --- ------ ----- --<br>----- ----- ---------- --- --- ------ ------ ---- -- ------<br>------- --- ------ ----- --- ---- ------- -- ---- --- --<br>------- ------,233336.54,233333.28000000006,232901.126,232907.38000000032,232917.806,233351.486,,4,French
screen,html.Screen,2_1_1_1_5,2021-04-30T10:46:53.652Z,,,,,,,,,,,,,,,,,54,,,,,,,,,,,,,,409.27400000035414,,response,,,,100,,,,,,,Space,keypress(Space),,,,,,,,-- --- ---- --- ------ crown ------- ---- -- --- ------- --<br>------- ---------- ------ -- ----- -- ----- -- ---- ------<br>--- ----- --- --- ------ -------- ----- --- ------ ----- --<br>----- ----- ---------- --- --- ------ ------ ---- -- ------<br>------- --- ------ ----- --- ---- ------- -- ---- --- --<br>------- ------,233762.43,233760.76000000036,233334.806,233336.61499999993,233351.486,233768.486,,5,crown
screen,html.Screen,2_1_1_1_6,2021-04-30T10:46:54.306Z,,,,,,,,,,,,,,,,,54,,,,,,,,,,,,,,644.8540000002831,,response,,,,100,,,,,,,Space,keypress(Space),,,,,,,,-- --- ---- --- ------ ----- secured ---- -- --- ------- --<br>------- ---------- ------ -- ----- -- ----- -- ---- ------<br>--- ----- --- --- ------ -------- ----- --- ------ ----- --<br>----- ----- ---------- --- --- ------ ------ ---- -- ------<br>------- --- ------ ----- --- ---- ------- -- ---- --- --<br>------- ------,234416.53500000006,234413.3400000003,233751.806,233762.51000000024,233768.486,234419.356,,6,secured
screen,html.Screen,2_1_1_1_7,2021-04-30T10:46:54.878Z,,,,,,,,,,,,,,,,,54,,,,,,,,,,,,,,567.559000000183,,response,,,,100,,,,,,,Space,keypress(Space),,,,,,,,-- --- ---- --- ------ ----- ------- much -- --- ------- --<br>------- ---------- ------ -- ----- -- ----- -- ---- ------<br>--- ----- --- --- ------ -------- ----- --- ------ ----- --<br>----- ----- ---------- --- --- ------ ------ ---- -- ------<br>------- --- ------ ----- --- ---- ------- -- ---- --- --<br>------- ------,234988.55000000025,234986.91500000018,234402.676,234416.61,234419.356,235003.156,,7,much
screen,html.Screen,2_1_1_1_8,2021-04-30T10:46:55.330Z,,,,,,,,,,,,,,,,,54,,,,,,,,,,,,,,433.85400000034133,,response,,,,100,,,,,,,Space,keypress(Space),,,,,,,,-- --- ---- --- ------ ----- ------- ---- of --- ------- --<br>------- ---------- ------ -- ----- -- ----- -- ---- ------<br>--- ----- --- --- ------ -------- ----- --- ------ ----- --<br>----- ----- ---------- --- --- ------ ------ ---- -- ------<br>------- --- ------ ----- --- ---- ------- -- ---- --- --<br>------- ------,235440.18500000014,235437.01000000033,234986.476,234988.63499999992,235003.156,235453.516,,8,of
screen,html.Screen,2_1_1_1_9,2021-04-30T10:46:55.970Z,,,,,,,,,,,,,,,,,54,,,,,,,,,,,,,,624.8040000002948,,response,,,,100,,,,,,,Space,keypress(Space),,,,,,,,-- --- ---- --- ------ ----- ------- ---- -- its ------- --<br>------- ---------- ------ -- ----- -- ----- -- ---- ------<br>--- ----- --- --- ------ -------- ----- --- ------ ----- --<br>----- ----- ---------- --- --- ------ ------ ---- -- ------<br>------- --- ------ ----- --- ---- ------- -- ---- --- --<br>------- ------,236079.9950000003,236078.3200000003,235436.836,235440.26499999996,235453.516,236087.356,,9,its
screen,html.Screen,2_1_1_1_10,2021-04-30T10:46:56.556Z,,,,,,,,,,,,,,,,,54,,,,,,,,,,,,,,576.0440000001399,,response,,,,100,,,,,,,Space,keypress(Space),,,,,,,,-- --- ---- --- ------ ----- ------- ---- -- --- revenue --<br>------- ---------- ------ -- ----- -- ----- -- ---- ------<br>--- ----- --- --- ------ -------- ----- --- ------ ----- --<br>----- ----- ---------- --- --- ------ ------ ---- -- ------<br>------- --- ------ ----- --- ---- ------- -- ---- --- --<br>------- ------,236666.5300000002,236663.40000000014,236070.676,236080.0700000002,236087.356,236671.156,,10,revenue
screen,html.Screen,2_1_1_1_11,2021-04-30T10:46:57.027Z,,,,,,,,,,,,,,,,,54,,,,,,,,,,,,,,464.7740000001504,,response,,,,100,,,,,,,Space,keypress(Space),,,,,,,,-- --- ---- --- ------ ----- ------- ---- -- --- ------- by<br>------- ---------- ------ -- ----- -- ----- -- ---- ------<br>--- ----- --- --- ------ -------- ----- --- ------ ----- --<br>----- ----- ---------- --- --- ------ ------ ---- -- ------<br>------- --- ------ ----- --- ---- ------- -- ---- --- --<br>------- ------,237137.53999999995,237135.93000000014,236654.476,236666.61,236671.156,237138.196,,11,by
screen,html.Screen,2_1_1_1_12,2021-04-30T10:46:57.614Z,,,,,,,,,,,,,,,,,54,,,,,,,,,,,,,,582.7490000002726,,response,,,,100,,,,,,,Space,keypress(Space),,,,,,,,-- --- ---- --- ------ ----- ------- ---- -- --- ------- --<br>issuing ---------- ------ -- ----- -- ----- -- ---- ------<br>--- ----- --- --- ------ -------- ----- --- ------ ----- --<br>----- ----- ---------- --- --- ------ ------ ---- -- ------<br>------- --- ------ ----- --- ---- ------- -- ---- --- --<br>------- ------,237724.11000000034,237720.94500000027,237121.516,237137.6200000002,237138.196,237738.676,,12,issuing
screen,html.Screen,2_1_1_1_13,2021-04-30T10:46:58.242Z,,,,,,,,,,,,,,,,,54,,,,,,,,,,,,,,612.2040000001725,,response,,,,100,,,,,,,Space,keypress(Space),,,,,,,,-- --- ---- --- ------ ----- ------- ---- -- --- ------- --<br>------- government ------ -- ----- -- ----- -- ---- ------<br>--- ----- --- --- ------ -------- ----- --- ------ ----- --<br>----- ----- ---------- --- --- ------ ------ ---- -- ------<br>------- --- ------ ----- --- ---- ------- -- ---- --- --<br>------- ------,238352.56000000003,238350.88000000018,237721.996,237724.18500000026,237738.676,238355.836,,13,government
screen,html.Screen,2_1_1_1_14,2021-04-30T10:46:58.716Z,,,,,,,,,,,,,,,,,54,,,,,,,,,,,,,,467.65900000030524,,response,,,,100,,,,,,,Space,keypress(Space),,,,,,,,-- --- ---- --- ------ ----- ------- ---- -- --- ------- --<br>------- ---------- bonds. -- ----- -- ----- -- ---- ------<br>--- ----- --- --- ------ -------- ----- --- ------ ----- --<br>----- ----- ---------- --- --- ------ ------ ---- -- ------<br>------- --- ------ ----- --- ---- ------- -- ---- --- --<br>------- ------,238826.66500000027,238823.49500000032,238339.156,238352.6400000003,238355.836,238839.556,,14,bonds.
screen,html.Screen,2_1_1_1_15,2021-04-30T10:47:00.087Z,,,,,,,,,,,,,,,,,54,,,,,,,,,,,,,,1356.4940000002389,,response,,,,100,,,,,,,Space,keypress(Space),,,,,,,,-- --- ---- --- ------ ----- ------- ---- -- --- ------- --<br>------- ---------- ------ In ----- -- ----- -- ---- ------<br>--- ----- --- --- ------ -------- ----- --- ------ ----- --<br>----- ----- ---------- --- --- ------ ------ ---- -- ------<br>------- --- ------ ----- --- ---- ------- -- ---- --- --<br>------- ------,240197.71000000014,240196.05000000025,238822.876,238826.7400000002,238839.556,240207.316,,15,In
screen,html.Screen,2_1_1_1_16,2021-04-30T10:47:00.539Z,,,,,,,,,,,,,,,,,54,,,,,,,,,,,,,,438.69900000005146,,response,,,,100,,,,,,,Space,keypress(Space),,,,,,,,"-- --- ---- --- ------ ----- ------- ---- -- --- ------- --<br>------- ---------- ------ -- 1727, -- ----- -- ---- ------<br>--- ----- --- --- ------ -------- ----- --- ------ ----- --<br>----- ----- ---------- --- --- ------ ------ ---- -- ------<br>------- --- ------ ----- --- ---- ------- -- ---- --- --<br>------- ------",240649.37000000032,240646.01500000004,240190.636,240197.78999999995,240207.316,240657.676,,16,"1727,"
screen,html.Screen,2_1_1_1_17,2021-04-30T10:47:01.741Z,,,,,,,,,,,,,,,,,54,,,,,,,,,,,,,,1192.2090000002936,,response,,,,100,,,,,,,Space,keypress(Space),,,,,,,,-- --- ---- --- ------ ----- ------- ---- -- --- ------- --<br>------- ---------- ------ -- ----- in ----- -- ---- ------<br>--- ----- --- --- ------ -------- ----- --- ------ ----- --<br>----- ----- ---------- --- --- ------ ------ ---- -- ------<br>------- --- ------ ----- --- ---- ------- -- ---- --- --<br>------- ------,241851.64499999996,241849.8850000003,240640.996,240649.44500000024,240657.676,241858.636,,17,in
screen,html.Screen,2_1_1_1_18,2021-04-30T10:47:02.429Z,,,,,,,,,,,,,,,,,54,,,,,,,,,,,,,,677.5140000001411,,response,,,,100,,,,,,,Space,keypress(Space),,,,,,,,-- --- ---- --- ------ ----- ------- ---- -- --- ------- --<br>------- ---------- ------ -- ----- -- order -- ---- ------<br>--- ----- --- --- ------ -------- ----- --- ------ ----- --<br>----- ----- ---------- --- --- ------ ------ ---- -- ------<br>------- --- ------ ----- --- ---- ------- -- ---- --- --<br>------- ------,242539.33500000017,242536.15000000014,241841.956,241851.7250000002,241858.636,242542.516,,18,order
screen,html.Screen,2_1_1_1_19,2021-04-30T10:47:02.787Z,,,,,,,,,,,,,,,,,54,,,,,,,,,,,,,,353.6540000002133,,response,,,,100,,,,,,,Space,keypress(Space),,,,,,,,-- --- ---- --- ------ ----- ------- ---- -- --- ------- --<br>------- ---------- ------ -- ----- -- ----- to ---- ------<br>--- ----- --- --- ------ -------- ----- --- ------ ----- --<br>----- ----- ---------- --- --- ------ ------ ---- -- ------<br>------- --- ------ ----- --- ---- ------- -- ---- --- --<br>------- ------,242897.76499999993,242896.17000000022,242525.836,242539.41499999995,242542.516,242909.476,,19,to
screen,html.Screen,2_1_1_1_20,2021-04-30T10:47:03.172Z,,,,,,,,,,,,,,,,,54,,,,,,,,,,,,,,369.13899999993737,,response,,,,100,,,,,,,Space,keypress(Space),,,,,,,,-- --- ---- --- ------ ----- ------- ---- -- --- ------- --<br>------- ---------- ------ -- ----- -- ----- -- save ------<br>--- ----- --- --- ------ -------- ----- --- ------ ----- --<br>----- ----- ---------- --- --- ------ ------ ---- -- ------<br>------- --- ------ ----- --- ---- ------- -- ---- --- --<br>------- ------,243281.95500000016,243278.61499999993,242892.796,242897.84500000018,242909.476,243293.116,,20,save
screen,html.Screen,2_1_1_1_21,2021-04-30T10:47:03.586Z,,,,,,,,,,,,,,,,,54,,,,,,,,,,,,,,401.76900000011665,,response,,,,100,,,,,,,Space,keypress(Space),,,,,,,,"-- --- ---- --- ------ ----- ------- ---- -- --- ------- --<br>------- ---------- ------ -- ----- -- ----- -- ---- money,<br>--- ----- --- --- ------ -------- ----- --- ------ ----- --<br>----- ----- ---------- --- --- ------ ------ ---- -- ------<br>------- --- ------ ----- --- ---- ------- -- ---- --- --<br>------- ------",243696.5150000003,243694.88500000013,243276.436,243282.0300000001,243293.116,243710.116,,21,"money,"
screen,html.Screen,2_1_1_1_22,2021-04-30T10:47:04.094Z,,,,,,,,,,,,,,,,,54,,,,,,,,,,,,,,491.0840000001772,,response,,,,100,,,,,,,Space,keypress(Space),,,,,,,,-- --- ---- --- ------ ----- ------- ---- -- --- ------- --<br>------- ---------- ------ -- ----- -- ----- -- ---- ------<br>the ----- --- --- ------ -------- ----- --- ------ ----- --<br>----- ----- ---------- --- --- ------ ------ ---- -- ------<br>------- --- ------ ----- --- ---- ------- -- ---- --- --<br>------- ------,244204.47000000035,244201.2000000002,243693.436,243696.59000000023,243710.116,244210.516,,22,the
screen,html.Screen,2_1_1_1_23,2021-04-30T10:47:04.565Z,,,,,,,,,,,,,,,,,54,,,,,,,,,,,,,,463.1840000000375,,response,,,,100,,,,,,,Space,keypress(Space),,,,,,,,-- --- ---- --- ------ ----- ------- ---- -- --- ------- --<br>------- ---------- ------ -- ----- -- ----- -- ---- ------<br>--- state --- --- ------ -------- ----- --- ------ ----- --<br>----- ----- ---------- --- --- ------ ------ ---- -- ------<br>------- --- ------ ----- --- ---- ------- -- ---- --- --<br>------- ------,244675.49500000017,244673.70000000004,244193.836,244204.53999999995,244210.516,244677.936,,23,state
screen,html.Screen,2_1_1_1_24,2021-04-30T10:47:05.107Z,,,,,,,,,,,,,,,,,54,,,,,,,,,,,,,,535.8290000002016,,response,,,,100,,,,,,,Space,keypress(Space),,,,,,,,-- --- ---- --- ------ ----- ------- ---- -- --- ------- --<br>------- ---------- ------ -- ----- -- ----- -- ---- ------<br>--- ----- cut --- ------ -------- ----- --- ------ ----- --<br>----- ----- ---------- --- --- ------ ------ ---- -- ------<br>------- --- ------ ----- --- ---- ------- -- ---- --- --<br>------- ------,245216.97500000003,245213.7650000002,244661.256,244675.57499999998,244677.936,245228.376,,24,cut
screen,html.Screen,2_1_1_1_25,2021-04-30T10:47:05.724Z,,,,,,,,,,,,,,,,,54,,,,,,,,,,,,,,604.1740000003192,,response,,,,100,,,,,,,Space,keypress(Space),,,,,,,,-- --- ---- --- ------ ----- ------- ---- -- --- ------- --<br>------- ---------- ------ -- ----- -- ----- -- ---- ------<br>--- ----- --- the ------ -------- ----- --- ------ ----- --<br>----- ----- ---------- --- --- ------ ------ ---- -- ------<br>------- --- ------ ----- --- ---- ------- -- ---- --- --<br>------- ------,245834.2,245832.5500000003,245211.696,245217.04999999996,245228.376,245845.536,,25,the
screen,html.Screen,2_1_1_1_26,2021-04-30T10:47:06.254Z,,,,,,,,,,,,,,,,,54,,,,,,,,,,,,,,515.7890000000771,,response,,,,100,,,,,,,Space,keypress(Space),,,,,,,,-- --- ---- --- ------ ----- ------- ---- -- --- ------- --<br>------- ---------- ------ -- ----- -- ----- -- ---- ------<br>--- ----- --- --- bonds' -------- ----- --- ------ ----- --<br>----- ----- ---------- --- --- ------ ------ ---- -- ------<br>------- --- ------ ----- --- ---- ------- -- ---- --- --<br>------- ------,246364.6550000001,246361.32500000007,245828.856,245834.28000000026,245845.536,246379.296,,26,bonds'
screen,html.Screen,2_1_1_1_27,2021-04-30T10:47:06.748Z,,,,,,,,,,,,,,,,,54,,,,,,,,,,,,,,477.06900000030873,,response,,,,100,,,,,,,Space,keypress(Space),,,,,,,,-- --- ---- --- ------ ----- ------- ---- -- --- ------- --<br>------- ---------- ------ -- ----- -- ----- -- ---- ------<br>--- ----- --- --- ------ interest ----- --- ------ ----- --<br>----- ----- ---------- --- --- ------ ------ ---- -- ------<br>------- --- ------ ----- --- ---- ------- -- ---- --- --<br>------- ------,246858.0400000003,246856.3650000003,246362.616,246364.72000000026,246379.296,246863.016,,27,interest
screen,html.Screen,2_1_1_1_28,2021-04-30T10:47:07.559Z,,,,,,,,,,,,,,,,,54,,,,,,,,,,,,,,803.2940000002855,,response,,,,100,,,,,,,Space,keypress(Space),,,,,,,,-- --- ---- --- ------ ----- ------- ---- -- --- ------- --<br>------- ---------- ------ -- ----- -- ----- -- ---- ------<br>--- ----- --- --- ------ -------- rate. --- ------ ----- --<br>----- ----- ---------- --- --- ------ ------ ---- -- ------<br>------- --- ------ ----- --- ---- ------- -- ---- --- --<br>------- ------,247669.57000000024,247666.3100000003,246846.336,246858.1200000001,246863.016,247680.336,,28,rate.
screen,html.Screen,2_1_1_1_29,2021-04-30T10:47:08.154Z,,,,,,,,,,,,,,,,,54,,,,,,,,,,,,,,582.2790000003006,,response,,,,100,,,,,,,Space,keypress(Space),,,,,,,,-- --- ---- --- ------ ----- ------- ---- -- --- ------- --<br>------- ---------- ------ -- ----- -- ----- -- ---- ------<br>--- ----- --- --- ------ -------- ----- The ------ ----- --<br>----- ----- ---------- --- --- ------ ------ ---- -- ------<br>------- --- ------ ----- --- ---- ------- -- ---- --- --<br>------- ------,248264.27000000034,248262.6150000003,247663.656,247669.6549999999,247680.336,248280.816,,29,The
screen,html.Screen,2_1_1_1_30,2021-04-30T10:47:08.594Z,,,,,,,,,,,,,,,,,54,,,,,,,,,,,,,,420.6190000001807,,response,,,,100,,,,,,,Space,keypress(Space),,,,,,,,-- --- ---- --- ------ ----- ------- ---- -- --- ------- --<br>------- ---------- ------ -- ----- -- ----- -- ---- ------<br>--- ----- --- --- ------ -------- ----- --- market ----- --<br>----- ----- ---------- --- --- ------ ------ ---- -- ------<br>------- --- ------ ----- --- ---- ------- -- ---- --- --<br>------- ------,248704.65500000023,248701.43500000017,248264.136,248264.34500000026,248280.816,248714.496,,30,market
screen,html.Screen,2_1_1_1_31,2021-04-30T10:47:09.347Z,,,,,,,,,,,,,,,,,54,,,,,,,,,,,,,,740.7390000001178,,response,,,,100,,,,,,,Space,keypress(Space),,,,,,,,-- --- ---- --- ------ ----- ------- ---- -- --- ------- --<br>------- ---------- ------ -- ----- -- ----- -- ---- ------<br>--- ----- --- --- ------ -------- ----- --- ------ value --<br>----- ----- ---------- --- --- ------ ------ ---- -- ------<br>------- --- ------ ----- --- ---- ------- -- ---- --- --<br>------- ------,249456.8750000001,249455.23500000013,248697.816,248704.73000000016,248714.496,249465.096,,31,value
screen,html.Screen,2_1_1_1_32,2021-04-30T10:47:09.742Z,,,,,,,,,,,,,,,,,54,,,,,,,,,,,,,,383.9190000000235,,response,,,,100,,,,,,,Space,keypress(Space),,,,,,,,-- --- ---- --- ------ ----- ------- ---- -- --- ------- --<br>------- ---------- ------ -- ----- -- ----- -- ---- ------<br>--- ----- --- --- ------ -------- ----- --- ------ ----- of<br>----- ----- ---------- --- --- ------ ------ ---- -- ------<br>------- --- ------ ----- --- ---- ------- -- ---- --- --<br>------- ------,249852.30000000025,249849.015,249448.416,249456.95500000034,249465.096,249865.416,,32,of
screen,html.Screen,2_1_1_1_33,2021-04-30T10:47:10.168Z,,,,,,,,,,,,,,,,,54,,,,,,,,,,,,,,411.1040000001085,,response,,,,100,,,,,,,Space,keypress(Space),,,,,,,,-- --- ---- --- ------ ----- ------- ---- -- --- ------- --<br>------- ---------- ------ -- ----- -- ----- -- ---- ------<br>--- ----- --- --- ------ -------- ----- --- ------ ----- --<br>these ----- ---------- --- --- ------ ------ ---- -- ------<br>------- --- ------ ----- --- ---- ------- -- ---- --- --<br>------- ------,250278.145,250276.5200000001,249848.736,249852.3700000003,249865.416,250282.416,,33,these
screen,html.Screen,2_1_1_1_34,2021-04-30T10:47:10.980Z,,,,,,,,,,,,,,,,,54,,,,,,,,,,,,,,804.2140000000072,,response,,,,100,,,,,,,Space,keypress(Space),,,,,,,,-- --- ---- --- ------ ----- ------- ---- -- --- ------- --<br>------- ---------- ------ -- ----- -- ----- -- ---- ------<br>--- ----- --- --- ------ -------- ----- --- ------ ----- --<br>----- bonds ---------- --- --- ------ ------ ---- -- ------<br>------- --- ------ ----- --- ---- ------- -- ---- --- --<br>------- ------,251089.90999999992,251086.63,250265.736,250278.23000000013,250282.416,251099.736,,34,bonds
screen,html.Screen,2_1_1_1_35,2021-04-30T10:47:11.619Z,,,,,,,,,,,,,,,,,54,,,,,,,,,,,,,,628.1390000002575,,response,,,,100,,,,,,,Space,keypress(Space),,,,,,,,"-- --- ---- --- ------ ----- ------- ---- -- --- ------- --<br>------- ---------- ------ -- ----- -- ----- -- ---- ------<br>--- ----- --- --- ------ -------- ----- --- ------ ----- --<br>----- ----- plummeted, --- --- ------ ------ ---- -- ------<br>------- --- ------ ----- --- ---- ------- -- ---- --- --<br>------- ------",251729.5200000001,251727.87500000026,251083.056,251089.97999999998,251099.736,251733.576,,35,"plummeted,"
screen,html.Screen,2_1_1_1_36,2021-04-30T10:47:12.622Z,,,,,,,,,,,,,,,,,54,,,,,,,,,,,,,,995.5440000001981,,response,,,,100,,,,,,,Space,keypress(Space),,,,,,,,-- --- ---- --- ------ ----- ------- ---- -- --- ------- --<br>------- ---------- ------ -- ----- -- ----- -- ---- ------<br>--- ----- --- --- ------ -------- ----- --- ------ ----- --<br>----- ----- ---------- and --- ------ ------ ---- -- ------<br>------- --- ------ ----- --- ---- ------- -- ---- --- --<br>------- ------,252732.40499999997,252729.1200000002,251716.896,251729.64000000025,251733.576,252734.376,,36,and
screen,html.Screen,2_1_1_1_37,2021-04-30T10:47:12.992Z,,,,,,,,,,,,,,,,,54,,,,,,,,,,,,,,366.02899999992223,,response,,,,100,,,,,,,Space,keypress(Space),,,,,,,,-- --- ---- --- ------ ----- ------- ---- -- --- ------- --<br>------- ---------- ------ -- ----- -- ----- -- ---- ------<br>--- ----- --- --- ------ -------- ----- --- ------ ----- --<br>----- ----- ---------- --- the ------ ------ ---- -- ------<br>------- --- ------ ----- --- ---- ------- -- ---- --- --<br>------- ------,253102.03000000023,253100.4049999999,252717.696,252732.48000000036,252734.376,253118.016,,37,the
screen,html.Screen,2_1_1_1_38,2021-04-30T10:47:13.398Z,,,,,,,,,,,,,,,,,54,,,,,,,,,,,,,,387.3690000001516,,response,,,,100,,,,,,,Space,keypress(Space),,,,,,,,-- --- ---- --- ------ ----- ------- ---- -- --- ------- --<br>------- ---------- ------ -- ----- -- ----- -- ---- ------<br>--- ----- --- --- ------ -------- ----- --- ------ ----- --<br>----- ----- ---------- --- --- market ------ ---- -- ------<br>------- --- ------ ----- --- ---- ------- -- ---- --- --<br>------- ------,253508.68500000003,253505.38500000015,253101.336,253102.1000000003,253118.016,253518.336,,38,market
screen,html.Screen,2_1_1_1_39,2021-04-30T10:47:13.802Z,,,,,,,,,,,,,,,,,54,,,,,,,,,,,,,,392.0440000000235,,response,,,,100,,,,,,,Space,keypress(Space),,,,,,,,-- --- ---- --- ------ ----- ------- ---- -- --- ------- --<br>------- ---------- ------ -- ----- -- ----- -- ---- ------<br>--- ----- --- --- ------ -------- ----- --- ------ ----- --<br>----- ----- ---------- --- --- ------ became ---- -- ------<br>------- --- ------ ----- --- ---- ------- -- ---- --- --<br>------- ------,253912.02,253910.38000000003,253501.656,253508.75999999995,253518.336,253918.656,,39,became
screen,html.Screen,2_1_1_1_40,2021-04-30T10:47:14.220Z,,,,,,,,,,,,,,,,,54,,,,,,,,,,,,,,408.03899999998976,,response,,,,100,,,,,,,Space,keypress(Space),,,,,,,,-- --- ---- --- ------ ----- ------- ---- -- --- ------- --<br>------- ---------- ------ -- ----- -- ----- -- ---- ------<br>--- ----- --- --- ------ -------- ----- --- ------ ----- --<br>----- ----- ---------- --- --- ------ ------ wary -- ------<br>------- --- ------ ----- --- ---- ------- -- ---- --- --<br>------- ------,254330.04000000007,254326.69499999998,253901.976,253912.0949999999,253918.656,254335.656,,40,wary
screen,html.Screen,2_1_1_1_41,2021-04-30T10:47:14.724Z,,,,,,,,,,,,,,,,,54,,,,,,,,,,,,,,497.2190000003029,,response,,,,100,,,,,,,Space,keypress(Space),,,,,,,,-- --- ---- --- ------ ----- ------- ---- -- --- ------- --<br>------- ---------- ------ -- ----- -- ----- -- ---- ------<br>--- ----- --- --- ------ -------- ----- --- ------ ----- --<br>----- ----- ---------- --- --- ------ ------ ---- of ------<br>------- --- ------ ----- --- ---- ------- -- ---- --- --<br>------- ------,254834.48500000007,254832.8750000003,254318.976,254330.1100000001,254335.656,254836.487,,41,of
screen,html.Screen,2_1_1_1_42,2021-04-30T10:47:15.198Z,,,,,,,,,,,,,,,,,54,,,,,,,,,,,,,,468.98800000036135,,response,,,,100,,,,,,,Space,keypress(Space),,,,,,,,-- --- ---- --- ------ ----- ------- ---- -- --- ------- --<br>------- ---------- ------ -- ----- -- ----- -- ---- ------<br>--- ----- --- --- ------ -------- ----- --- ------ ----- --<br>----- ----- ---------- --- --- ------ ------ ---- -- French<br>------- --- ------ ----- --- ---- ------- -- ---- --- --<br>------- ------,255308.7750000002,255305.47500000036,254819.807,254834.56,254836.487,255320.207,,42,French
screen,html.Screen,2_1_1_1_43,2021-04-30T10:47:15.624Z,,,,,,,,,,,,,,,,,54,,,,,,,,,,,,,,412.8080000000191,,response,,,,100,,,,,,,Space,keypress(Space),,,,,,,,-- --- ---- --- ------ ----- ------- ---- -- --- ------- --<br>------- ---------- ------ -- ----- -- ----- -- ---- ------<br>--- ----- --- --- ------ -------- ----- --- ------ ----- --<br>----- ----- ---------- --- --- ------ ------ ---- -- ------<br>credit. --- ------ ----- --- ---- ------- -- ---- --- --<br>------- ------,255734.63000000015,255733.015,255303.527,255308.84500000023,255320.207,255737.207,,43,credit.
screen,html.Screen,2_1_1_1_44,2021-04-30T10:47:16.054Z,,,,,,,,,,,,,,,,,54,,,,,,,,,,,,,,423.4130000003497,,response,,,,100,,,,,,,Space,keypress(Space),,,,,,,,-- --- ---- --- ------ ----- ------- ---- -- --- ------- --<br>------- ---------- ------ -- ----- -- ----- -- ---- ------<br>--- ----- --- --- ------ -------- ----- --- ------ ----- --<br>----- ----- ---------- --- --- ------ ------ ---- -- ------<br>------- The ------ ----- --- ---- ------- -- ---- --- --<br>------- ------,256163.90999999997,256160.62000000034,255720.527,255734.70999999996,255737.207,256170.887,,44,The
screen,html.Screen,2_1_1_1_45,2021-04-30T10:47:16.479Z,,,,,,,,,,,,,,,,,54,,,,,,,,,,,,,,416.9230000002426,,response,,,,100,,,,,,,Space,keypress(Space),,,,,,,,-- --- ---- --- ------ ----- ------- ---- -- --- ------- --<br>------- ---------- ------ -- ----- -- ----- -- ---- ------<br>--- ----- --- --- ------ -------- ----- --- ------ ----- --<br>----- ----- ---------- --- --- ------ ------ ---- -- ------<br>------- --- French ----- --- ---- ------- -- ---- --- --<br>------- ------,256589.6250000003,256587.81000000023,256154.207,256163.98000000004,256170.887,256604.567,,45,French
screen,html.Screen,2_1_1_1_46,2021-04-30T10:47:16.864Z,,,,,,,,,,,,,,,,,54,,,,,,,,,,,,,,366.1280000002007,,response,,,,100,,,,,,,Space,keypress(Space),,,,,,,,-- --- ---- --- ------ ----- ------- ---- -- --- ------- --<br>------- ---------- ------ -- ----- -- ----- -- ---- ------<br>--- ----- --- --- ------ -------- ----- --- ------ ----- --<br>----- ----- ---------- --- --- ------ ------ ---- -- ------<br>------- --- ------ state --- ---- ------- -- ---- --- --<br>------- ------,256973.86500000017,256970.6950000002,256587.887,256589.70999999996,256604.567,256988.207,,46,state
screen,html.Screen,2_1_1_1_47,2021-04-30T10:47:17.424Z,,,,,,,,,,,,,,,,,54,,,,,,,,,,,,,,544.8430000002263,,response,,,,100,,,,,,,Space,keypress(Space),,,,,,,,-- --- ---- --- ------ ----- ------- ---- -- --- ------- --<br>------- ---------- ------ -- ----- -- ----- -- ---- ------<br>--- ----- --- --- ------ -------- ----- --- ------ ----- --<br>----- ----- ---------- --- --- ------ ------ ---- -- ------<br>------- --- ------ ----- was ---- ------- -- ---- --- --<br>------- ------,257534.68500000032,257533.05000000022,256971.527,256973.95000000027,256988.207,257538.647,,47,was
screen,html.Screen,2_1_1_1_48,2021-04-30T10:47:18.090Z,,,,,,,,,,,,,,,,,54,,,,,,,,,,,,,,658.1980000001786,,response,,,,100,,,,,,,Space,keypress(Space),,,,,,,,-- --- ---- --- ------ ----- ------- ---- -- --- ------- --<br>------- ---------- ------ -- ----- -- ----- -- ---- ------<br>--- ----- --- --- ------ -------- ----- --- ------ ----- --<br>----- ----- ---------- --- --- ------ ------ ---- -- ------<br>------- --- ------ ----- --- left ------- -- ---- --- --<br>------- ------,258199.98499999996,258196.84500000018,257521.967,257534.76000000024,257538.647,258205.847,,48,left
screen,html.Screen,2_1_1_1_49,2021-04-30T10:47:18.527Z,,,,,,,,,,,,,,,,,54,,,,,,,,,,,,,,429.7679999998945,,response,,,,100,,,,,,,Space,keypress(Space),,,,,,,,-- --- ---- --- ------ ----- ------- ---- -- --- ------- --<br>------- ---------- ------ -- ----- -- ----- -- ---- ------<br>--- ----- --- --- ------ -------- ----- --- ------ ----- --<br>----- ----- ---------- --- --- ------ ------ ---- -- ------<br>------- --- ------ ----- --- ---- without -- ---- --- --<br>------- ------,258637.2200000003,258635.6149999999,258189.167,258200.06500000024,258205.847,258639.527,,49,without
screen,html.Screen,2_1_1_1_50,2021-04-30T10:47:18.922Z,,,,,,,,,,,,,,,,,54,,,,,,,,,,,,,,389.8180000001448,,response,,,,100,,,,,,,Space,keypress(Space),,,,,,,,-- --- ---- --- ------ ----- ------- ---- -- --- ------- --<br>------- ---------- ------ -- ----- -- ----- -- ---- ------<br>--- ----- --- --- ------ -------- ----- --- ------ ----- --<br>----- ----- ---------- --- --- ------ ------ ---- -- ------<br>------- --- ------ ----- --- ---- ------- an ---- --- --<br>------- ------,259032.645,259029.34500000015,258622.847,258637.29500000022,258639.527,259039.847,,50,an
screen,html.Screen,2_1_1_1_51,2021-04-30T10:47:19.337Z,,,,,,,,,,,,,,,,,54,,,,,,,,,,,,,,405.6379999999481,,response,,,,100,,,,,,,Space,keypress(Space),,,,,,,,-- --- ---- --- ------ ----- ------- ---- -- --- ------- --<br>------- ---------- ------ -- ----- -- ----- -- ---- ------<br>--- ----- --- --- ------ -------- ----- --- ------ ----- --<br>----- ----- ---------- --- --- ------ ------ ---- -- ------<br>------- --- ------ ----- --- ---- ------- -- easy --- --<br>------- ------,259447.1000000001,259445.48499999996,259023.167,259032.71500000005,259039.847,259456.847,,51,easy
screen,html.Screen,2_1_1_1_52,2021-04-30T10:47:20.104Z,,,,,,,,,,,,,,,,,54,,,,,,,,,,,,,,753.7480000002251,,response,,,,100,,,,,,,Space,keypress(Space),,,,,,,,-- --- ---- --- ------ ----- ------- ---- -- --- ------- --<br>------- ---------- ------ -- ----- -- ----- -- ---- ------<br>--- ----- --- --- ------ -------- ----- --- ------ ----- --<br>----- ----- ---------- --- --- ------ ------ ---- -- ------<br>------- --- ------ ----- --- ---- ------- -- ---- way --<br>------- ------,260213.77499999994,260210.59500000023,259440.167,259447.18500000023,259456.847,260224.127,,52,way
screen,html.Screen,2_1_1_1_53,2021-04-30T10:47:20.530Z,,,,,,,,,,,,,,,,,54,,,,,,,,,,,,,,414.068000000203,,response,,,,100,,,,,,,Space,keypress(Space),,,,,,,,-- --- ---- --- ------ ----- ------- ---- -- --- ------- --<br>------- ---------- ------ -- ----- -- ----- -- ---- ------<br>--- ----- --- --- ------ -------- ----- --- ------ ----- --<br>----- ----- ---------- --- --- ------ ------ ---- -- ------<br>------- --- ------ ----- --- ---- ------- -- ---- --- of<br>------- ------,260639.85000000024,260638.1950000002,260207.447,260213.86499999993,260224.127,260641.127,,53,of
screen,html.Screen,2_1_1_1_54,2021-04-30T10:47:20.959Z,,,,,,,,,,,,,,,,,54,,,,,,,,,,,,,,424.64299999992363,,response,,,,100,,,,,,,Space,keypress(Space),,,,,,,,-- --- ---- --- ------ ----- ------- ---- -- --- ------- --<br>------- ---------- ------ -- ----- -- ----- -- ---- ------<br>--- ----- --- --- ------ -------- ----- --- ------ ----- --<br>----- ----- ---------- --- --- ------ ------ ---- -- ------<br>------- --- ------ ----- --- ---- ------- -- ---- --- --<br>raising ------,261069.00000000017,261065.76999999993,260624.447,260639.92500000016,260641.127,261074.807,,54,raising
screen,html.Screen,2_1_1_1_55,2021-04-30T10:47:21.362Z,,,,,,,,,,,,,,,,,54,,,,,,,,,,,,,,395.9529999999213,,response,,,,100,,,,,,,Space,keypress(Space),,,,,,,,-- --- ---- --- ------ ----- ------- ---- -- --- ------- --<br>------- ---------- ------ -- ----- -- ----- -- ---- ------<br>--- ----- --- --- ------ -------- ----- --- ------ ----- --<br>----- ----- ---------- --- --- ------ ------ ---- -- ------<br>------- --- ------ ----- --- ---- ------- -- ---- --- --<br>------- money.,261472.41499999995,261470.75999999992,261058.127,261069.0750000001,261074.807,261475.127,,55,money.
Item 100,flow.Loop,2_1_1_1,2021-04-30T10:47:21.362Z,,,,,,,,,,,,,,,,,,,,,,,,,,,,,,,31221.753999999928,,completion,,,,,C,,,,,,,,,,,silence,,,,,261472.55500000005,261470.75999999992,230232.326,230234.65499999997,230249.006,261475.127,,,
Question 1,html.Screen,2_1_1_2,2021-04-30T10:47:24.828Z,,,,,,,,,,,,,,,,,,,,,,,,,,,,true,TRUE,,3461.9780000002065,,response,,,,100,C,,,,,,TRUE,click #choice-1,,,,silence,,,,,264938.42999999993,264937.1050000002,261458.447,261472.6149999999,261475.127,264944.567,,,
Question 2,html.Screen,2_1_1_3,2021-04-30T10:47:27.821Z,,,,,,,,,,,,,,,,,,,,,,,,,,,,true,FALSE,,2985.068000000203,,response,,,,100,C,,,,,,FALSE,click #choice-2,,,,silence,,,,,267931.03500000027,267929.6350000002,264927.887,264938.5150000001,264944.567,267947.362,,,
Item 100,flow.Sequence,2_1_1,2021-04-30T10:47:27.821Z,,,,,,,,,,,,,,,,,,,,,,,,,,,,,,,47672.366000000184,,completion,,,,,,,,,,,,,,,,,,,,,267931.15499999997,267929.6350000002,220240.589,220251.6149999999,220257.269,267947.362,,,
End of Practice,html.Page,2_1_2,2021-04-30T10:47:32.254Z,,,,,,,,,,,,,,,,,,,,,,,,,,,,,,,4416.432999999961,,form submission,,,,,,,,,,,,,,,,,,,,,272363.9450000003,272363.795,267930.682,267931.22000000015,267947.362,272367.562,,,
Practice,flow.Sequence,2_1,2021-04-30T10:47:32.254Z,,,,,,,,,,,,,,,,,,,,,,,,,,,,,,,121548.59999999998,,completion,,,,,,,,,,,,,,,,,,,,,272364.0600000001,272363.795,150798.515,150814.2250000003,150815.195,272367.562,,,
Trap_instruction,html.Page,2_2_0,2021-04-30T10:47:36.934Z,,,,,,,,,,,,,,,,,,,,,,,,,,,,,,,4676.448000000324,,form submission,,,,,,,,,,,,,,,,,,,,,277044.14999999997,277044.0100000003,272350.882,272364.1300000002,272367.562,277054.642,,,
trap_trial,html.Screen,2_2_1,2021-04-30T10:47:41.006Z,,,,,,,,,,,,,,,,,,,,,,,,,,,,true,1,,4060.6479999999865,,response,,,,,,,,,,,1,click #choice-1,,,,,,,,,281116.62500000035,281115.29,277037.962,277044.2250000003,277054.642,281124.842,,,
end of trap trial,html.Page,2_2_2,2021-04-30T10:47:43.043Z,,,,,,,,,,,,,,,,,,,,,,,,,,,,,,,2028.2530000003171,,form submission,,,,,,,,,,,,,,,,,,,,,283153.24500000017,283153.0950000003,281108.162,281116.71,281124.842,283159.802,,,
Trap 1,flow.Sequence,2_2,2021-04-30T10:47:43.043Z,,,,,,,,,,,,,,,,,,,,,,,,,,,,,,,10785.533000000345,,completion,,,,,,,,,,,,,,,,,,,,,283153.35000000027,283153.0950000003,272350.882,272364.1100000002,272367.562,283159.802,,,
Standby,html.Page,2_3_0,2021-04-30T10:47:51.042Z,,,,,,,,,,,,,,,,,,,,,,,,,,,,,,,8006.399999999965,,timeout,,,,,,,,,,,,,,,,,,,,,291152.0550000002,291149.522,283143.122,283153.43000000005,283159.802,291166.202,,,
Holding screen,html.Screen,2_3_1_0_0,2021-04-30T10:47:58.048Z,,,,,,,,,,,,,,,,,,,,,,,,,,,,,,,7006.207999999984,,timeout,,,,,,,,,,,,,,,,,,,,,298158.3600000001,298155.73,291149.522,291152.1800000003,291166.202,298172.41,,,
screen,html.Screen,2_3_1_0_1_0,2021-04-30T10:47:59.267Z,,,,,,,,,,,,,,,,,51,,,,,,,,,,,,,,1201.260000000184,,response,,,,13,C,,,,,,Space,keypress(Space),,,,instrumental,,,,American -------- --- --- ---- --- --- ------ -- --------<br>---- --------- --- ------- ------------ ---------- ---------<br>--- ---------- ------- ---------- ------- -- -------- ----<br>---- --- ------ ----- ------ -- ---- --- ----- -- - -------<br>-------- -- --- --- -- ----- ----------- ----- -----------<br>---- --- ---------- --- ---- --- -- ----------,299377.2000000001,299373.67000000016,298155.73,298158.4700000001,298172.41,299390.05,,0,American
screen,html.Screen,2_3_1_0_1_1,2021-04-30T10:47:59.918Z,,,,,,,,,,,,,,,,,51,,,,,,,,,,,,,,636.0099999999511,,response,,,,13,C,,,,,,Space,keypress(Space),,,,instrumental,,,,-------- industry --- --- ---- --- --- ------ -- --------<br>---- --------- --- ------- ------------ ---------- ---------<br>--- ---------- ------- ---------- ------- -- -------- ----<br>---- --- ------ ----- ------ -- ---- --- ----- -- - -------<br>-------- -- --- --- -- ----- ----------- ----- -----------<br>---- --- ---------- --- ---- --- -- ----------,300027.73500000034,300026.05999999994,299373.37,299377.2750000001,299390.05,300040.57,,1,industry
screen,html.Screen,2_3_1_0_1_2,2021-04-30T10:48:00.403Z,,,,,,,,,,,,,,,,,51,,,,,,,,,,,,,,469.25,,response,,,,13,C,,,,,,Space,keypress(Space),,,,instrumental,,,,-------- -------- may --- ---- --- --- ------ -- --------<br>---- --------- --- ------- ------------ ---------- ---------<br>--- ---------- ------- ---------- ------- -- -------- ----<br>---- --- ------ ----- ------ -- ---- --- ----- -- - -------<br>-------- -- --- --- -- ----- ----------- ----- -----------<br>---- --- ---------- --- ---- --- -- ----------,300512.97,300509.82,300023.89,300027.8100000003,300040.57,300524.29,,2,may
screen,html.Screen,2_3_1_0_1_3,2021-04-30T10:48:00.897Z,,,,,,,,,,,,,,,,,51,,,,,,,,,,,,,,480.765000000305,,response,,,,13,C,,,,,,Space,keypress(Space),,,,instrumental,,,,-------- -------- --- not ---- --- --- ------ -- --------<br>---- --------- --- ------- ------------ ---------- ---------<br>--- ---------- ------- ---------- ------- -- -------- ----<br>---- --- ------ ----- ------ -- ---- --- ----- -- - -------<br>-------- -- --- --- -- ----- ----------- ----- -----------<br>---- --- ---------- --- ---- --- -- ----------,301006.68500000006,301005.0550000003,300507.61,300513.03500000015,300524.29,301008.01,,3,not
screen,html.Screen,2_3_1_0_1_4,2021-04-30T10:48:01.382Z,,,,,,,,,,,,,,,,,51,,,,,,,,,,,,,,480.7950000001583,,response,,,,13,C,,,,,,Space,keypress(Space),,,,instrumental,,,,-------- -------- --- --- know --- --- ------ -- --------<br>---- --------- --- ------- ------------ ---------- ---------<br>--- ---------- ------- ---------- ------- -- -------- ----<br>---- --- ------ ----- ------ -- ---- --- ----- -- - -------<br>-------- -- --- --- -- ----- ----------- ----- -----------<br>---- --- ---------- --- ---- --- -- ----------,301492.1150000002,301488.80500000017,300991.33,301006.76,301008.01,301508.41,,4,know
screen,html.Screen,2_3_1_0_1_5,2021-04-30T10:48:02.213Z,,,,,,,,,,,,,,,,,51,,,,,,,,,,,,,,812.9550000000163,,response,,,,13,C,,,,,,Space,keypress(Space),,,,instrumental,,,,"-------- -------- --- --- ---- it, --- ------ -- --------<br>---- --------- --- ------- ------------ ---------- ---------<br>--- ---------- ------- ---------- ------- -- -------- ----<br>---- --- ------ ----- ------ -- ---- --- ----- -- - -------<br>-------- -- --- --- -- ----- ----------- ----- -----------<br>---- --- ---------- --- ---- --- -- ----------",302323.04500000033,302321.365,301491.73,301492.1850000003,301508.41,302325.73,,5,"it,"
screen,html.Screen,2_3_1_0_1_6,2021-04-30T10:48:02.721Z,,,,,,,,,,,,,,,,,51,,,,,,,,,,,,,,501.7749999999651,,response,,,,13,C,,,,,,Space,keypress(Space),,,,instrumental,,,,-------- -------- --- --- ---- --- but ------ -- --------<br>---- --------- --- ------- ------------ ---------- ---------<br>--- ---------- ------- ---------- ------- -- -------- ----<br>---- --- ------ ----- ------ -- ---- --- ----- -- - -------<br>-------- -- --- --- -- ----- ----------- ----- -----------<br>---- --- ---------- --- ---- --- -- ----------,302830.61999999994,302827.50499999995,302309.05,302323.1200000002,302325.73,302843.2,,6,but
screen,html.Screen,2_3_1_0_1_7,2021-04-30T10:48:03.158Z,,,,,,,,,,,,,,,,,51,,,,,,,,,,,,,,423.2050000000745,,response,,,,13,C,,,,,,Space,keypress(Space),,,,instrumental,,,,-------- -------- --- --- ---- --- --- debate -- --------<br>---- --------- --- ------- ------------ ---------- ---------<br>--- ---------- ------- ---------- ------- -- -------- ----<br>---- --- ------ ----- ------ -- ---- --- ----- -- - -------<br>-------- -- --- --- -- ----- ----------- ----- -----------<br>---- --- ---------- --- ---- --- -- ----------,303268.135,303266.4050000001,302826.52,302830.69,302843.2,303276.88,,7,debate
screen,html.Screen,2_3_1_0_1_8,2021-04-30T10:48:03.632Z,,,,,,,,,,,,,,,,,51,,,,,,,,,,,,,,461.90000000037253,,response,,,,13,C,,,,,,Space,keypress(Space),,,,instrumental,,,,-------- -------- --- --- ---- --- --- ------ in --------<br>---- --------- --- ------- ------------ ---------- ---------<br>--- ---------- ------- ---------- ------- -- -------- ----<br>---- --- ------ ----- ------ -- ---- --- ----- -- - -------<br>-------- -- --- --- -- ----- ----------- ----- -----------<br>---- --- ---------- --- ---- --- -- ----------,303742.05000000005,303738.7800000004,303260.2,303268.20999999996,303276.88,303743.92,,8,in
screen,html.Screen,2_3_1_0_1_9,2021-04-30T10:48:04.272Z,,,,,,,,,,,,,,,,,51,,,,,,,,,,,,,,636.2550000000047,,response,,,,13,C,,,,,,Space,keypress(Space),,,,instrumental,,,,-------- -------- --- --- ---- --- --- ------ -- Congress<br>---- --------- --- ------- ------------ ---------- ---------<br>--- ---------- ------- ---------- ------- -- -------- ----<br>---- --- ------ ----- ------ -- ---- --- ----- -- - -------<br>-------- -- --- --- -- ----- ----------- ----- -----------<br>---- --- ---------- --- ---- --- -- ----------,304381.8050000002,304380.175,303727.24,303742.1200000001,303743.92,304394.44,,9,Congress
screen,html.Screen,2_3_1_0_1_10,2021-04-30T10:48:04.937Z,,,,,,,,,,,,,,,,,51,,,,,,,,,,,,,,649.5200000001932,,response,,,,13,C,,,,,,Space,keypress(Space),,,,instrumental,,,,-------- -------- --- --- ---- --- --- ------ -- --------<br>over --------- --- ------- ------------ ---------- ---------<br>--- ---------- ------- ---------- ------- -- -------- ----<br>---- --- ------ ----- ------ -- ---- --- ----- -- - -------<br>-------- -- --- --- -- ----- ----------- ----- -----------<br>---- --- ---------- --- ---- --- -- ----------,305047.2649999999,305043.9600000002,304377.76,304381.885,304394.44,305061.64,,10,over
screen,html.Screen,2_3_1_0_1_11,2021-04-30T10:48:05.543Z,,,,,,,,,,,,,,,,,51,,,,,,,,,,,,,,589.7550000000629,,response,,,,13,C,,,,,,Space,keypress(Space),,,,instrumental,,,,-------- -------- --- --- ---- --- --- ------ -- --------<br>---- reforming --- ------- ------------ ---------- ---------<br>--- ---------- ------- ---------- ------- -- -------- ----<br>---- --- ------ ----- ------ -- ---- --- ----- -- - -------<br>-------- -- --- --- -- ----- ----------- ----- -----------<br>---- --- ---------- --- ---- --- -- ----------,305653.07499999995,305651.3950000001,305044.96,305047.3400000003,305061.64,305662.12,,11,reforming
screen,html.Screen,2_3_1_0_1_12,2021-04-30T10:48:05.984Z,,,,,,,,,,,,,,,,,51,,,,,,,,,,,,,,428.2399999999325,,response,,,,13,C,,,,,,Space,keypress(Space),,,,instrumental,,,,-------- -------- --- --- ---- --- --- ------ -- --------<br>---- --------- the ------- ------------ ---------- ---------<br>--- ---------- ------- ---------- ------- -- -------- ----<br>---- --- ------ ----- ------ -- ---- --- ----- -- - -------<br>-------- -- --- --- -- ----- ----------- ----- -----------<br>---- --- ---------- --- ---- --- -- ----------,306093.7150000002,306090.3599999999,305645.44,305653.145,305662.12,306095.8,,12,the
screen,html.Screen,2_3_1_0_1_13,2021-04-30T10:48:06.544Z,,,,,,,,,,,,,,,,,51,,,,,,,,,,,,,,556.9050000002026,,response,,,,13,C,,,,,,Space,keypress(Space),,,,instrumental,,,,-------- -------- --- --- ---- --- --- ------ -- --------<br>---- --------- --- federal ------------ ---------- ---------<br>--- ---------- ------- ---------- ------- -- -------- ----<br>---- --- ------ ----- ------ -- ---- --- ----- -- - -------<br>-------- -- --- --- -- ----- ----------- ----- -----------<br>---- --- ---------- --- ---- --- -- ----------,306654.3600000002,306652.7050000002,306079.12,306093.79000000015,306095.8,306662.92,,13,federal
screen,html.Screen,2_3_1_0_1_14,2021-04-30T10:48:07.266Z,,,,,,,,,,,,,,,,,51,,,,,,,,,,,,,,709.7400000002235,,response,,,,13,C,,,,,,Space,keypress(Space),,,,instrumental,,,,-------- -------- --- --- ---- --- --- ------ -- --------<br>---- --------- --- ------- government's ---------- ---------<br>--- ---------- ------- ---------- ------- -- -------- ----<br>---- --- ------ ----- ------ -- ---- --- ----- -- - -------<br>-------- -- --- --- -- ----- ----------- ----- -----------<br>---- --- ---------- --- ---- --- -- ----------,307375.98000000004,307372.6600000002,306646.24,306654.44,306662.92,307380.16,,14,government's
screen,html.Screen,2_3_1_0_1_15,2021-04-30T10:48:07.928Z,,,,,,,,,,,,,,,,,51,,,,,,,,,,,,,,656.445000000007,,response,,,,13,C,,,,,,Space,keypress(Space),,,,instrumental,,,,-------- -------- --- --- ---- --- --- ------ -- --------<br>---- --------- --- ------- ------------ regulatory ---------<br>--- ---------- ------- ---------- ------- -- -------- ----<br>---- --- ------ ----- ------ -- ---- --- ----- -- - -------<br>-------- -- --- --- -- ----- ----------- ----- -----------<br>---- --- ---------- --- ---- --- -- ----------,308038.38500000007,308036.605,307363.48,307376.0650000002,307380.16,308047.36,,15,regulatory
screen,html.Screen,2_3_1_0_1_16,2021-04-30T10:48:08.886Z,,,,,,,,,,,,,,,,,51,,,,,,,,,,,,,,945.4400000002352,,response,,,,13,C,,,,,,Space,keypress(Space),,,,instrumental,,,,-------- -------- --- --- ---- --- --- ------ -- --------<br>---- --------- --- ------- ------------ ---------- apparatus<br>--- ---------- ------- ---------- ------- -- -------- ----<br>---- --- ------ ----- ------ -- ---- --- ----- -- - -------<br>-------- -- --- --- -- ----- ----------- ----- -----------<br>---- --- ---------- --- ---- --- -- ----------,308996.19499999995,308992.8000000002,308030.68,308038.45999999996,308047.36,308998.12,,16,apparatus
screen,html.Screen,2_3_1_0_1_17,2021-04-30T10:48:09.459Z,,,,,,,,,,,,,,,,,51,,,,,,,,,,,,,,568.555000000284,,response,,,,13,C,,,,,,Space,keypress(Space),,,,instrumental,,,,-------- -------- --- --- ---- --- --- ------ -- --------<br>---- --------- --- ------- ------------ ---------- ---------<br>may ---------- ------- ---------- ------- -- -------- ----<br>---- --- ------ ----- ------ -- ---- --- ----- -- - -------<br>-------- -- --- --- -- ----- ----------- ----- -----------<br>---- --- ---------- --- ---- --- -- ----------,309568.53000000026,309566.6750000003,308981.44,308996.2700000003,308998.12,309581.92,,17,may
screen,html.Screen,2_3_1_0_1_18,2021-04-30T10:48:10.034Z,,,,,,,,,,,,,,,,,51,,,,,,,,,,,,,,558.5400000003283,,response,,,,13,C,,,,,,Space,keypress(Space),,,,instrumental,,,,-------- -------- --- --- ---- --- --- ------ -- --------<br>---- --------- --- ------- ------------ ---------- ---------<br>--- profoundly ------- ---------- ------- -- -------- ----<br>---- --- ------ ----- ------ -- ---- --- ----- -- - -------<br>-------- -- --- --- -- ----- ----------- ----- -----------<br>---- --- ---------- --- ---- --- -- ----------,310143.9750000002,310140.4600000003,309565.24,309568.61499999993,309581.92,310149.04,,18,profoundly
screen,html.Screen,2_3_1_0_1_19,2021-04-30T10:48:10.954Z,,,,,,,,,,,,,,,,,51,,,,,,,,,,,,,,913.7049999999581,,response,,,,13,C,,,,,,Space,keypress(Space),,,,instrumental,,,,-------- -------- --- --- ---- --- --- ------ -- --------<br>---- --------- --- ------- ------------ ---------- ---------<br>--- ---------- improve ---------- ------- -- -------- ----<br>---- --- ------ ----- ------ -- ---- --- ----- -- - -------<br>-------- -- --- --- -- ----- ----------- ----- -----------<br>---- --- ---------- --- ---- --- -- ----------,311064.44000000035,311062.74499999994,310132.36,310144.055,310149.04,311066.44,,19,improve
screen,html.Screen,2_3_1_0_1_20,2021-04-30T10:48:12.002Z,,,,,,,,,,,,,,,,,51,,,,,,,,,,,,,,1042.7649999999558,,response,,,,13,C,,,,,,Space,keypress(Space),,,,instrumental,,,,-------- -------- --- --- ---- --- --- ------ -- --------<br>---- --------- --- ------- ------------ ---------- ---------<br>--- ---------- ------- companies' ------- -- -------- ----<br>---- --- ------ ----- ------ -- ---- --- ----- -- - -------<br>-------- -- --- --- -- ----- ----------- ----- -----------<br>---- --- ---------- --- ---- --- -- ----------,312112.4500000003,312109.20499999996,311049.76,311064.52000000014,311066.44,312117.28,,20,companies'
screen,html.Screen,2_3_1_0_1_21,2021-04-30T10:48:13.171Z,,,,,,,,,,,,,,,,,51,,,,,,,,,,,,,,1162.0500000000466,,response,,,,13,C,,,,,,Space,keypress(Space),,,,instrumental,,,,-------- -------- --- --- ---- --- --- ------ -- --------<br>---- --------- --- ------- ------------ ---------- ---------<br>--- ---------- ------- ---------- ability -- -------- ----<br>---- --- ------ ----- ------ -- ---- --- ----- -- - -------<br>-------- -- --- --- -- ----- ----------- ----- -----------<br>---- --- ---------- --- ---- --- -- ----------,313281.00999999995,313279.3300000001,312100.6,312112.52500000026,312117.28,313284.88,,21,ability
screen,html.Screen,2_3_1_0_1_22,2021-04-30T10:48:13.623Z,,,,,,,,,,,,,,,,,51,,,,,,,,,,,,,,444.2849999999744,,response,,,,13,C,,,,,,Space,keypress(Space),,,,instrumental,,,,-------- -------- --- --- ---- --- --- ------ -- --------<br>---- --------- --- ------- ------------ ---------- ---------<br>--- ---------- ------- ---------- ------- to -------- ----<br>---- --- ------ ----- ------ -- ---- --- ----- -- - -------<br>-------- -- --- --- -- ----- ----------- ----- -----------<br>---- --- ---------- --- ---- --- -- ----------,313732.52000000025,313729.165,313268.2,313281.0850000003,313284.88,313735.685,,22,to
screen,html.Screen,2_3_1_0_1_23,2021-04-30T10:48:14.105Z,,,,,,,,,,,,,,,,,51,,,,,,,,,,,,,,477.4350000001141,,response,,,,13,C,,,,,,Space,keypress(Space),,,,instrumental,,,,-------- -------- --- --- ---- --- --- ------ -- --------<br>---- --------- --- ------- ------------ ---------- ---------<br>--- ---------- ------- ---------- ------- -- survive. ----<br>---- --- ------ ----- ------ -- ---- --- ----- -- - -------<br>-------- -- --- --- -- ----- ----------- ----- -----------<br>---- --- ---------- --- ---- --- -- ----------,314214.8050000003,314213.1200000001,313719.005,313732.59500000015,313735.685,314219.405,,23,survive.
screen,html.Screen,2_3_1_0_1_24,2021-04-30T10:48:14.759Z,,,,,,,,,,,,,,,,,51,,,,,,,,,,,,,,646.1250000002328,,response,,,,13,C,,,,,,Space,keypress(Space),,,,instrumental,,,,-------- -------- --- --- ---- --- --- ------ -- --------<br>---- --------- --- ------- ------------ ---------- ---------<br>--- ---------- ------- ---------- ------- -- -------- This<br>---- --- ------ ----- ------ -- ---- --- ----- -- - -------<br>-------- -- --- --- -- ----- ----------- ----- -----------<br>---- --- ---------- --- ---- --- -- ----------,314868.77000000025,314865.53000000026,314202.725,314214.88000000024,314219.405,314869.925,,24,This
screen,html.Screen,2_3_1_0_1_25,2021-04-30T10:48:15.196Z,,,,,,,,,,,,,,,,,51,,,,,,,,,,,,,,434.5000000000582,,response,,,,13,C,,,,,,Space,keypress(Space),,,,instrumental,,,,-------- -------- --- --- ---- --- --- ------ -- --------<br>---- --------- --- ------- ------------ ---------- ---------<br>--- ---------- ------- ---------- ------- -- -------- ----<br>week --- ------ ----- ------ -- ---- --- ----- -- - -------<br>-------- -- --- --- -- ----- ----------- ----- -----------<br>---- --- ---------- --- ---- --- -- ----------,315306.065,315304.42500000005,314853.245,314868.83499999996,314869.925,315320.285,,25,week
screen,html.Screen,2_3_1_0_1_26,2021-04-30T10:48:15.625Z,,,,,,,,,,,,,,,,,51,,,,,,,,,,,,,,411.55500000016764,,response,,,,13,C,,,,,,Space,keypress(Space),,,,instrumental,,,,-------- -------- --- --- ---- --- --- ------ -- --------<br>---- --------- --- ------- ------------ ---------- ---------<br>--- ---------- ------- ---------- ------- -- -------- ----<br>---- the ------ ----- ------ -- ---- --- ----- -- - -------<br>-------- -- --- --- -- ----- ----------- ----- -----------<br>---- --- ---------- --- ---- --- -- ----------,315735.19499999995,315731.84000000014,315303.605,315306.1399999999,315320.285,315737.285,,26,the
screen,html.Screen,2_3_1_0_1_27,2021-04-30T10:48:16.063Z,,,,,,,,,,,,,,,,,51,,,,,,,,,,,,,,433.375,,response,,,,13,C,,,,,,Space,keypress(Space),,,,instrumental,,,,-------- -------- --- --- ---- --- --- ------ -- --------<br>---- --------- --- ------- ------------ ---------- ---------<br>--- ---------- ------- ---------- ------- -- -------- ----<br>---- --- Senate ----- ------ -- ---- --- ----- -- - -------<br>-------- -- --- --- -- ----- ----------- ----- -----------<br>---- --- ---------- --- ---- --- -- ----------,316173.0150000001,316170.66,315720.605,315735.27500000026,315737.285,316187.645,,27,Senate
screen,html.Screen,2_3_1_0_1_28,2021-04-30T10:48:16.491Z,,,,,,,,,,,,,,,,,51,,,,,,,,,,,,,,410.38500000030035,,response,,,,13,C,,,,,,Space,keypress(Space),,,,instrumental,,,,-------- -------- --- --- ---- --- --- ------ -- --------<br>---- --------- --- ------- ------------ ---------- ---------<br>--- ---------- ------- ---------- ------- -- -------- ----<br>---- --- ------ seems ------ -- ---- --- ----- -- - -------<br>-------- -- --- --- -- ----- ----------- ----- -----------<br>---- --- ---------- --- ---- --- -- ----------,316601.3949999999,316598.0300000003,316170.965,316173.0950000003,316187.645,316604.645,,28,seems
screen,html.Screen,2_3_1_0_1_29,2021-04-30T10:48:16.873Z,,,,,,,,,,,,,,,,,51,,,,,,,,,,,,,,376.0750000002445,,response,,,,13,C,,,,,,Space,keypress(Space),,,,instrumental,,,,-------- -------- --- --- ---- --- --- ------ -- --------<br>---- --------- --- ------- ------------ ---------- ---------<br>--- ---------- ------- ---------- ------- -- -------- ----<br>---- --- ------ ----- poised -- ---- --- ----- -- - -------<br>-------- -- --- --- -- ----- ----------- ----- -----------<br>---- --- ---------- --- ---- --- -- ----------,316982.4350000001,316980.72000000026,316587.965,316601.47000000026,316604.645,316988.285,,29,poised
screen,html.Screen,2_3_1_0_1_30,2021-04-30T10:48:17.279Z,,,,,,,,,,,,,,,,,51,,,,,,,,,,,,,,397.5150000002468,,response,,,,13,C,,,,,,Space,keypress(Space),,,,instrumental,,,,-------- -------- --- --- ---- --- --- ------ -- --------<br>---- --------- --- ------- ------------ ---------- ---------<br>--- ---------- ------- ---------- ------- -- -------- ----<br>---- --- ------ ----- ------ to ---- --- ----- -- - -------<br>-------- -- --- --- -- ----- ----------- ----- -----------<br>---- --- ---------- --- ---- --- -- ----------,317389.12499999994,317385.8000000002,316971.605,316982.51000000007,316988.285,317405.285,,30,to
screen,html.Screen,2_3_1_0_1_31,2021-04-30T10:48:17.705Z,,,,,,,,,,,,,,,,,51,,,,,,,,,,,,,,407.97500000015134,,response,,,,13,C,,,,,,Space,keypress(Space),,,,instrumental,,,,-------- -------- --- --- ---- --- --- ------ -- --------<br>---- --------- --- ------- ------------ ---------- ---------<br>--- ---------- ------- ---------- ------- -- -------- ----<br>---- --- ------ ----- ------ -- join --- ----- -- - -------<br>-------- -- --- --- -- ----- ----------- ----- -----------<br>---- --- ---------- --- ---- --- -- ----------,317814.8900000003,317813.2600000001,317388.605,317389.19499999995,317405.285,317822.285,,31,join
screen,html.Screen,2_3_1_0_1_32,2021-04-30T10:48:18.055Z,,,,,,,,,,,,,,,,,51,,,,,,,,,,,,,,339.76000000030035,,response,,,,13,C,,,,,,Space,keypress(Space),,,,instrumental,,,,-------- -------- --- --- ---- --- --- ------ -- --------<br>---- --------- --- ------- ------------ ---------- ---------<br>--- ---------- ------- ---------- ------- -- -------- ----<br>---- --- ------ ----- ------ -- ---- the ----- -- - -------<br>-------- -- --- --- -- ----- ----------- ----- -----------<br>---- --- ---------- --- ---- --- -- ----------,318165.31499999994,318162.0450000003,317805.605,317814.97000000015,317822.285,318172.565,,32,the
screen,html.Screen,2_3_1_0_1_33,2021-04-30T10:48:18.459Z,,,,,,,,,,,,,,,,,51,,,,,,,,,,,,,,394.4850000003353,,response,,,,13,C,,,,,,Space,keypress(Space),,,,instrumental,,,,-------- -------- --- --- ---- --- --- ------ -- --------<br>---- --------- --- ------- ------------ ---------- ---------<br>--- ---------- ------- ---------- ------- -- -------- ----<br>---- --- ------ ----- ------ -- ---- --- House -- - -------<br>-------- -- --- --- -- ----- ----------- ----- -----------<br>---- --- ---------- --- ---- --- -- ----------,318568.7150000001,318567.05000000034,318155.885,318165.3950000002,318172.565,318572.885,,33,House
screen,html.Screen,2_3_1_0_1_34,2021-04-30T10:48:18.832Z,,,,,,,,,,,,,,,,,51,,,,,,,,,,,,,,365.43499999993946,,response,,,,13,C,,,,,,Space,keypress(Space),,,,instrumental,,,,-------- -------- --- --- ---- --- --- ------ -- --------<br>---- --------- --- ------- ------------ ---------- ---------<br>--- ---------- ------- ---------- ------- -- -------- ----<br>---- --- ------ ----- ------ -- ---- --- ----- in - -------<br>-------- -- --- --- -- ----- ----------- ----- -----------<br>---- --- ---------- --- ---- --- -- ----------,318941.64000000025,318938.31999999995,318556.205,318568.7949999999,318572.885,318956.525,,34,in
screen,html.Screen,2_3_1_0_1_35,2021-04-30T10:48:19.190Z,,,,,,,,,,,,,,,,,51,,,,,,,,,,,,,,341.7950000001001,,response,,,,13,C,,,,,,Space,keypress(Space),,,,instrumental,,,,-------- -------- --- --- ---- --- --- ------ -- --------<br>---- --------- --- ------- ------------ ---------- ---------<br>--- ---------- ------- ---------- ------- -- -------- ----<br>---- --- ------ ----- ------ -- ---- --- ----- -- a -------<br>-------- -- --- --- -- ----- ----------- ----- -----------<br>---- --- ---------- --- ---- --- -- ----------,319300.0300000001,319298.3200000001,318939.845,318941.71500000014,318956.525,319306.805,,35,a
screen,html.Screen,2_3_1_0_1_36,2021-04-30T10:48:19.608Z,,,,,,,,,,,,,,,,,51,,,,,,,,,,,,,,407.7300000003306,,response,,,,13,C,,,,,,Space,keypress(Space),,,,instrumental,,,,-------- -------- --- --- ---- --- --- ------ -- --------<br>---- --------- --- ------- ------------ ---------- ---------<br>--- ---------- ------- ---------- ------- -- -------- ----<br>---- --- ------ ----- ------ -- ---- --- ----- -- - massive<br>-------- -- --- --- -- ----- ----------- ----- -----------<br>---- --- ---------- --- ---- --- -- ----------,319717.87500000006,319714.5350000003,319290.125,319300.10500000004,319306.805,319723.805,,36,massive
screen,html.Screen,2_3_1_0_1_37,2021-04-30T10:48:20.180Z,,,,,,,,,,,,,,,,,51,,,,,,,,,,,,,,564.445000000298,,response,,,,13,C,,,,,,Space,keypress(Space),,,,instrumental,,,,-------- -------- --- --- ---- --- --- ------ -- --------<br>---- --------- --- ------- ------------ ---------- ---------<br>--- ---------- ------- ---------- ------- -- -------- ----<br>---- --- ------ ----- ------ -- ---- --- ----- -- - -------<br>overhaul -- --- --- -- ----- ----------- ----- -----------<br>---- --- ---------- --- ---- --- -- ----------,320289.89000000025,320288.2500000003,319707.125,319717.9450000001,319723.805,320290.925,,37,overhaul
