sender,sender_type,sender_id,timestamp,meta,,Blues,Classical,Country,Dance,Electronic,Folk,Gospel,Hip-Hop,Jazz,Latin,Musical/Film,New-age,Pop,Prolific_id,Provo_ID,R&B,Rap,Reggae,Religious,Rock,Soul,Swing,Traditional,age,artist_name,correct,correctResponse,distraction,duration,education,ended_on,familiarity,gender,headphone_check_performance,item,list,music_frequency,offensiveness,pleasantness,position_correct,preference,response,response_action,snippet_file,song_name,song_rating,sound,stimulus_1,stimulus_2,stimulus_3,text,time_commit,time_end,time_render,time_run,time_show,time_switch,url,word,word_ID
Prolific ID,html.Form,0,2021-04-30T11:11:28.823Z,"{""labjs_version"":""20.2.2"",""labjs_build"":{""flavor"":""production"",""commit"":""a25486e0c714a0ae2ce03ff94b7bb6896854dcfa""},""location"":""https://run.pavlovia.org/mvasilev/prolific_music_c/"",""userAgent"":""Mozilla/5.0 (Windows NT 10.0; Win64; x64) AppleWebKit/537.36 (KHTML, like Gecko) Chrome/90.0.4430.93 Safari/537.36"",""platform"":""Win32"",""language"":""en-US"",""locale"":""en-US"",""timeZone"":""Europe/London"",""timezoneOffset"":-60,""screen_width"":1366,""screen_height"":768,""scroll_width"":1366,""scroll_height"":609,""window_innerWidth"":1366,""window_innerHeight"":657,""devicePixelRatio"":1}",,,,,,,,,,,,,,,5f84e472052cf81ae5752252,,,,,,,,,,,,,,,6505.471000003468,,form submission,,,,,,,,,,,,,,,,,,,,,22537.515000003623,22536.22500000347,16013.911,16018.430000010994,16030.754,22541.172,{},,
Introduction,html.Screen,1_0,2021-04-30T11:11:31.804Z,,,,,,,,,,,,,,,,,,,,,,,,,,,,,,,2971.9130000132354,,response,,,,,,,,,,,continue,click button,,,,,,,,,25518.630000005942,25513.085000013234,22524.714,22538.450000007288,22541.172,25521.569,,,
Volume calibration,html.Screen,1_1,2021-04-30T11:11:49.780Z,,,,,,,,,,,,,,,,,,,,,,,,,,,,,,,17970.146000011027,,response,,,,,,,,,,,continue,click button,,,,,,,,,43494.49500000628,43491.71500001103,25504.793,25519.060000005993,25521.569,43504.006,,,
Task instructions,html.Screen,1_2,2021-04-30T11:11:55.858Z,,,,,,,,,,,,,,,,,,,,,,,,,,,,,,,6067.9240000055215,,response,,,,,,,,,,,continue,click button,,,,,,,,,49572.5400000083,49571.93000000552,43487.247,43494.59000000206,43504.006,49581.353,,,
Sounds,html.Screen,1_3_0_0,2021-04-30T11:12:00.106Z,,,,,,,,,,,,,,,,,,,,,,,,,,,,,,,4245.758999999998,,timeout,,,,,,,,,3,,,,,,,,O,I,S,,53820.44000001042,53810.669,49564.661,49572.710000007646,49581.353,53827.112,,,
Judgement,html.Screen,1_3_0_1,2021-04-30T11:12:01.266Z,,,,,,,,,,,,,,,,,,,,,,,,,,,,true,3,,1152.6330000041853,,response,,,,,,,,,3,,3,click #choice-3,,,,,O,I,S,,54980.60500000429,54979.745000004186,53810.669,53820.605000000796,53827.112,54992.706,,,
Trial,flow.Sequence,1_3_0,2021-04-30T11:12:01.267Z,,,,,,,,,,,,,,,,,,,,,,,,,,,,,,,5398.3920000041835,,completion,,,,,,,,,3,,,,,,,,O,I,S,,54980.93499999959,54979.745000004186,49564.661,49572.67500000307,49581.353,54992.706,,,
Sounds,html.Screen,1_3_1_0,2021-04-30T11:12:05.508Z,,,,,,,,,,,,,,,,,,,,,,,,,,,,,,,4245.731,,timeout,,,,,,,,,1,,,,,,,,S,O,I,,59222.240000002785,59221.763,54976.167,54981.1950000003,54992.706,59238.437,,,
Judgement,html.Screen,1_3_1_1,2021-04-30T11:12:06.256Z,,,,,,,,,,,,,,,,,,,,,,,,,,,,true,1,,730.4730000105119,,response,,,,,,,,,1,,1,click #choice-1,,,,,S,O,I,,59970.40500000003,59968.91000001051,59221.763,59222.32500000973,59238.437,59994.241,,,
Trial,flow.Sequence,1_3_1,2021-04-30T11:12:06.257Z,,,,,,,,,,,,,,,,,,,,,,,,,,,,,,,4976.204000010512,,completion,,,,,,,,,1,,,,,,,,S,O,I,,59970.95000000263,59968.91000001051,54976.167,54981.06000000553,54992.706,59994.241,,,
Sounds,html.Screen,1_3_2_0,2021-04-30T11:12:10.520Z,,,,,,,,,,,,,,,,,,,,,,,,,,,,,,,4256.144999999997,,timeout,,,,,,,,,2,,,,,,,,O,S,I,,64234.525000007125,64233.843,59954.494,59971.32500000589,59994.241,64250.386,,,
Judgement,html.Screen,1_3_2_1,2021-04-30T11:12:11.186Z,,,,,,,,,,,,,,,,,,,,,,,,,,,,true,2,,649.3240000124206,,response,,,,,,,,,2,,2,click #choice-2,,,,,O,S,I,,64900.465000013355,64899.71000001242,64233.843,64234.660000001895,64250.386,64916.399,,,
Trial,flow.Sequence,1_3_2,2021-04-30T11:12:11.187Z,,,,,,,,,,,,,,,,,,,,,,,,,,,,,,,4905.469000012417,,completion,,,,,,,,,2,,,,,,,,O,S,I,,64900.69500000391,64899.71000001242,59954.494,59971.20500000892,59994.241,64916.399,,,
Sounds,html.Screen,1_3_3_0,2021-04-30T11:12:15.433Z,,,,,,,,,,,,,,,,,,,,,,,,,,,,,,,4245.7430000000095,,timeout,,,,,,,,,3,,,,,,,,I,O,S,,69147.09500000754,69145.708,64899.509,64900.854999999865,64916.399,69162.142,,,
Judgement,html.Screen,1_3_3_1,2021-04-30T11:12:16.135Z,,,,,,,,,,,,,,,,,,,,,,,,,,,,true,3,,685.4580000082351,,response,,,,,,,,,3,,3,click #choice-3,,,,,I,O,S,,69849.29500000726,69847.60000000824,69145.708,69147.40500001062,69162.142,69861.623,,,
Trial,flow.Sequence,1_3_3,2021-04-30T11:12:16.136Z,,,,,,,,,,,,,,,,,,,,,,,,,,,,,,,4931.201000008245,,completion,,,,,,,,,3,,,,,,,,I,O,S,,69849.8099999997,69847.60000000824,64899.509,64900.80000000307,64916.399,69861.623,,,
Sounds,html.Screen,1_3_4_0,2021-04-30T11:12:20.378Z,,,,,,,,,,,,,,,,,,,,,,,,,,,,,,,4245.678,,timeout,,,,,,,,,1,,,,,,,,S,I,O,,74092.07000001334,74090.631,69844.826,69850.14000000956,69861.623,74107.301,,,
Judgement,html.Screen,1_3_4_1,2021-04-30T11:12:21.005Z,,,,,,,,,,,,,,,,,,,,,,,,,,,,true,1,,610.8540000095672,,response,,,,,,,,,1,,1,click #choice-1,,,,,S,I,O,,74718.80500001134,74718.15500000957,74090.631,74092.37500000745,74107.301,74723.342,,,
Trial,flow.Sequence,1_3_4,2021-04-30T11:12:21.005Z,,,,,,,,,,,,,,,,,,,,,,,,,,,,,,,4856.532000009567,,completion,,,,,,,,,1,,,,,,,,S,I,O,,74718.9800000051,74718.15500000957,69844.826,69850.04500001378,69861.623,74723.342,,,
Sounds,html.Screen,1_3_5_0,2021-04-30T11:12:25.239Z,,,,,,,,,,,,,,,,,,,,,,,,,,,,,,,4245.729999999996,,timeout,,,,,,,,,2,,,,,,,,I,S,O,,78953.010000012,78952.431,74706.64,74719.09000001324,74723.342,78969.072,,,
Judgement,html.Screen,1_3_5_1,2021-04-30T11:12:26.093Z,,,,,,,,,,,,,,,,,,,,,,,,,,,,true,2,,837.7380000091362,,response,,,,,,,,,2,,2,click #choice-2,,,,,I,S,O,,79807.4850000121,79806.81000000914,78952.431,78953.12000000558,78969.072,79818.237,,,
Trial,flow.Sequence,1_3_5,2021-04-30T11:12:26.094Z,,,,,,,,,,,,,,,,,,,,,,,,,,,,,,,5083.468000009132,,completion,,,,,,,,,2,,,,,,,,I,S,O,,79807.61500001245,79806.81000000914,74706.64,74719.06000000308,74723.342,79818.237,,,
Task,flow.Loop,1_3,2021-04-30T11:12:26.096Z,,,,,,,,,,,,,,,,,,,,,,,,,,,,,,,30225.457000009133,,completion,,,1,,,,,,,,,,,,,,,,,,79810.36000000313,79806.81000000914,49564.661,49572.635000004084,49581.353,79818.237,,,
Trap,html.Screen,1_4,2021-04-30T11:12:26.097Z,,,,,,,,,,,,,,,,,,,,,,,,,,,,,,,NaN,,skipped,,,,,,,,,,,,,,,,,,,,,79811.08500000846,79806.81000000914,,79811.0100000049,,79818.237,,,
Thanks,html.Screen,1_5,2021-04-30T11:12:28.624Z,,,,,,,,,,,,,,,,,,,,,,,,,,,,,,,2518.1880000013334,,response,,,,,,,,,,,continue,click button,,,,,,,,,82338.13000000373,82336.42500000133,79801.598,79811.15000000864,79818.237,85246.298,,,
Headphone screening,flow.Sequence,1,2021-04-30T11:12:28.625Z,,,,,,,,,,,,,,,,,,,,,,,,,,,,,,,59795.25300000133,,completion,,,,,,,,,,,,,,,,,,,,,82338.72500000871,82336.42500000133,22524.714,22538.340000013704,22541.172,85246.298,,,
Instructions,html.Page,2_0,2021-04-30T11:12:40.122Z,,,,,,,,,,,,,,,,,,,,,,,,,,,,,,,8588.752000008782,,form submission,,,,,,,,,,,,,,,,,,,,,93835.65000000817,93835.05000000878,85229.654,85240.95500000112,85246.298,93838,,,
Holding screen,html.Screen,2_1_0_0,2021-04-30T11:12:50.115Z,,,,,,,,,,,,,,,,,,,,,,,,,,,,,,,10040.077000000005,,timeout,,,,,,,,,,,,,,,,,,,,,103829.38500000455,103828.199,93821.48,93836.1600000062,93838,103878.077,,,
screen,html.Screen,2_1_0_1_0,2021-04-30T11:12:51.330Z,,,,,,,,,,,,,,,,,53,,,,,,,,,,,,,,1164.0980000095878,,response,,,,99,,,,,,,Space,keypress(Space),,,,,,,,When -- ----- -- ------ - ------- --- ----------<br>------------- ------ ------ ---- ---- ------- ----- -- ----<br>-------- ------- -- ---------- --- - --- ----- ----- ----<br>---- --- --- ----- --- ---- ---- ------- ----- ---- -------<br>--- --- -- ----- -- --- ---- -- --- ---- -- ------ ------<br>--- ----- -- ----,105044.20500001288,105042.17500000959,103828.199,103829.8450000002,103878.077,105071.934,,0,When
screen,html.Screen,2_1_0_1_1,2021-04-30T11:12:52.199Z,,,,,,,,,,,,,,,,,53,,,,,,,,,,,,,,840.6010000103997,,response,,,,99,,,,,,,Space,keypress(Space),,,,,,,,---- it ----- -- ------ - ------- --- ----------<br>------------- ------ ------ ---- ---- ------- ----- -- ----<br>-------- ------- -- ---------- --- - --- ----- ----- ----<br>---- --- --- ----- --- ---- ---- ------- ----- ---- -------<br>--- --- -- ----- -- --- ---- -- --- ---- -- ------ ------<br>--- ----- -- ----,105913.29000001133,105912.5350000104,105026.879,105044.32500000985,105071.934,105926.357,,1,it
screen,html.Screen,2_1_0_1_2,2021-04-30T11:12:52.719Z,,,,,,,,,,,,,,,,,53,,,,,,,,,,,,,,505.95300000377756,,response,,,,99,,,,,,,Space,keypress(Space),,,,,,,,---- -- comes -- ------ - ------- --- ----------<br>------------- ------ ------ ---- ---- ------- ----- -- ----<br>-------- ------- -- ---------- --- - --- ----- ----- ----<br>---- --- --- ----- --- ---- ---- ------- ----- ---- -------<br>--- --- -- ----- -- --- ---- -- --- ---- -- ------ ------<br>--- ----- -- ----,106433.38500001119,106432.31000000378,105909.762,105914.69000000507,105926.357,106442.294,,2,comes
screen,html.Screen,2_1_0_1_3,2021-04-30T11:12:53.101Z,,,,,,,,,,,,,,,,,53,,,,,,,,,,,,,,372.0060000127414,,response,,,,99,,,,,,,Space,keypress(Space),,,,,,,,---- -- ----- to ------ - ------- --- ----------<br>------------- ------ ------ ---- ---- ------- ----- -- ----<br>-------- ------- -- ---------- --- - --- ----- ----- ----<br>---- --- --- ----- --- ---- ---- ------- ----- ---- -------<br>--- --- -- ----- -- --- ---- -- --- ---- -- ------ ------<br>--- ----- -- ----,106815.41500000458,106814.30000001274,106425.814,106433.70000000868,106442.294,106825.343,,3,to
screen,html.Screen,2_1_0_1_4,2021-04-30T11:12:53.529Z,,,,,,,,,,,,,,,,,53,,,,,,,,,,,,,,416.90700001025107,,response,,,,99,,,,,,,Space,keypress(Space),,,,,,,,---- -- ----- -- having - ------- --- ----------<br>------------- ------ ------ ---- ---- ------- ----- -- ----<br>-------- ------- -- ---------- --- - --- ----- ----- ----<br>---- --- --- ----- --- ---- ---- ------- ----- ---- -------<br>--- --- -- ----- -- --- ---- -- --- ---- -- ------ ------<br>--- ----- -- ----,107243.16500000714,107242.25000001024,106808.573,106815.71500000427,106825.343,107258.165,,4,having
screen,html.Screen,2_1_0_1_5,2021-04-30T11:12:53.844Z,,,,,,,,,,,,,,,,,53,,,,,,,,,,,,,,299.1650000105583,,response,,,,99,,,,,,,Space,keypress(Space),,,,,,,,---- -- ----- -- ------ a ------- --- ----------<br>------------- ------ ------ ---- ---- ------- ----- -- ----<br>-------- ------- -- ---------- --- - --- ----- ----- ----<br>---- --- --- ----- --- ---- ---- ------- ----- ---- -------<br>--- --- -- ----- -- --- ---- -- --- ---- -- ------ ------<br>--- ----- -- ----,107558.43500001356,107557.33000001055,107241.461,107243.37000001105,107258.165,107574.592,,5,a
screen,html.Screen,2_1_0_1_6,2021-04-30T11:12:54.173Z,,,,,,,,,,,,,,,,,53,,,,,,,,,,,,,,310.9580000063288,,response,,,,99,,,,,,,Space,keypress(Space),,,,,,,,---- -- ----- -- ------ - lasting --- ----------<br>------------- ------ ------ ---- ---- ------- ----- -- ----<br>-------- ------- -- ---------- --- - --- ----- ----- ----<br>---- --- --- ----- --- ---- ---- ------- ----- ---- -------<br>--- --- -- ----- -- --- ---- -- --- ---- -- ------ ------<br>--- ----- -- ----,107886.60000001255,107885.55000000633,107558.025,107558.75000001106,107574.592,107890.891,,6,lasting
screen,html.Screen,2_1_0_1_7,2021-04-30T11:12:54.433Z,,,,,,,,,,,,,,,,,53,,,,,,,,,,,,,,254.6490000122576,,response,,,,99,,,,,,,Space,keypress(Space),,,,,,,,---- -- ----- -- ------ - ------- and ----------<br>------------- ------ ------ ---- ---- ------- ----- -- ----<br>-------- ------- -- ---------- --- - --- ----- ----- ----<br>---- --- --- ----- --- ---- ---- ------- ----- ---- -------<br>--- --- -- ----- -- --- ---- -- --- ---- -- ------ ------<br>--- ----- -- ----,108146.60500000173,108145.54000001226,107874.18,107886.91500001005,107890.891,108157.531,,7,and
screen,html.Screen,2_1_0_1_8,2021-04-30T11:12:54.723Z,,,,,,,,,,,,,,,,,53,,,,,,,,,,,,,,277.99400000805326,,response,,,,99,,,,,,,Space,keypress(Space),,,,,,,,---- -- ----- -- ------ - ------- --- fulfilling<br>------------- ------ ------ ---- ---- ------- ----- -- ----<br>-------- ------- -- ---------- --- - --- ----- ----- ----<br>---- --- --- ----- --- ---- ---- ------- ----- ---- -------<br>--- --- -- ----- -- --- ---- -- --- ---- -- ------ ------<br>--- ----- -- ----,108436.71500000346,108435.52500000806,108140.836,108146.91500000481,108157.531,108440.281,,8,fulfilling
screen,html.Screen,2_1_0_1_9,2021-04-30T11:12:55.110Z,,,,,,,,,,,,,,,,,53,,,,,,,,,,,,,,382.9090000100696,,response,,,,99,,,,,,,Space,keypress(Space),,,,,,,,"---- -- ----- -- ------ - ------- --- ----------<br>relationship, ------ ------ ---- ---- ------- ----- -- ----<br>-------- ------- -- ---------- --- - --- ----- ----- ----<br>---- --- --- ----- --- ---- ---- ------- ----- ---- -------<br>--- --- -- ----- -- --- ---- -- --- ---- -- ------ ------<br>--- ----- -- ----",108823.58999999997,108823.19000001007,108423.888,108437.02000001213,108440.281,108839.954,,9,"relationship,"
screen,html.Screen,2_1_0_1_10,2021-04-30T11:12:55.476Z,,,,,,,,,,,,,,,,,53,,,,,,,,,,,,,,349.33100000038394,,response,,,,99,,,,,,,Space,keypress(Space),,,,,,,,---- -- ----- -- ------ - ------- --- ----------<br>------------- common ------ ---- ---- ------- ----- -- ----<br>-------- ------- -- ---------- --- - --- ----- ----- ----<br>---- --- --- ----- --- ---- ---- ------- ----- ---- -------<br>--- --- -- ----- -- --- ---- -- --- ---- -- ------ ------<br>--- ----- -- ----,109189.65000000026,109189.28500000038,108823.287,108823.66500000353,108839.954,109206.135,,10,common
screen,html.Screen,2_1_0_1_11,2021-04-30T11:12:55.797Z,,,,,,,,,,,,,,,,,53,,,,,,,,,,,,,,304.59000000009837,,response,,,,99,,,,,,,Space,keypress(Space),,,,,,,,---- -- ----- -- ------ - ------- --- ----------<br>------------- ------ wisdom ---- ---- ------- ----- -- ----<br>-------- ------- -- ---------- --- - --- ----- ----- ----<br>---- --- --- ----- --- ---- ---- ------- ----- ---- -------<br>--- --- -- ----- -- --- ---- -- --- ---- -- ------ ------<br>--- ----- -- ----,109511.02000000537,109510.7250000001,109189.452,109189.750000005,109206.135,109522.514,,11,wisdom
screen,html.Screen,2_1_0_1_12,2021-04-30T11:12:56.085Z,,,,,,,,,,,,,,,,,53,,,,,,,,,,,,,,275.9860000044282,,response,,,,99,,,,,,,Space,keypress(Space),,,,,,,,---- -- ----- -- ------ - ------- --- ----------<br>------------- ------ ------ says ---- ------- ----- -- ----<br>-------- ------- -- ---------- --- - --- ----- ----- ----<br>---- --- --- ----- --- ---- ---- ------- ----- ---- -------<br>--- --- -- ----- -- --- ---- -- --- ---- -- ------ ------<br>--- ----- -- ----,109798.8500000065,109798.50000000442,109505.787,109511.08999999997,109522.514,109805.526,,12,says
screen,html.Screen,2_1_0_1_13,2021-04-30T11:12:56.348Z,,,,,,,,,,,,,,,,,53,,,,,,,,,,,,,,256.24400000025344,,response,,,,99,,,,,,,Space,keypress(Space),,,,,,,,---- -- ----- -- ------ - ------- --- ----------<br>------------- ------ ------ ---- that ------- ----- -- ----<br>-------- ------- -- ---------- --- - --- ----- ----- ----<br>---- --- --- ----- --- ---- ---- ------- ----- ---- -------<br>--- --- -- ----- -- --- ---- -- --- ---- -- ------ ------<br>--- ----- -- ----,110062.16500001028,110061.77000000025,109788.91,109798.92500001006,109805.526,110071.956,,13,that
screen,html.Screen,2_1_0_1_14,2021-04-30T11:12:56.582Z,,,,,,,,,,,,,,,,,53,,,,,,,,,,,,,,223.21900000656024,,response,,,,99,,,,,,,Space,keypress(Space),,,,,,,,---- -- ----- -- ------ - ------- --- ----------<br>------------- ------ ------ ---- ---- feeling ----- -- ----<br>-------- ------- -- ---------- --- - --- ----- ----- ----<br>---- --- --- ----- --- ---- ---- ------- ----- ---- -------<br>--- --- -- ----- -- --- ---- -- --- ---- -- ------ ------<br>--- ----- -- ----,110295.62500001339,110295.17500000657,110055.289,110062.25000000268,110071.956,110305.05,,14,feeling
screen,html.Screen,2_1_0_1_15,2021-04-30T11:12:56.850Z,,,,,,,,,,,,,,,,,53,,,,,,,,,,,,,,259.0650000010355,,response,,,,99,,,,,,,Space,keypress(Space),,,,,,,,---- -- ----- -- ------ - ------- --- ----------<br>------------- ------ ------ ---- ---- ------- close -- ----<br>-------- ------- -- ---------- --- - --- ----- ----- ----<br>---- --- --- ----- --- ---- ---- ------- ----- ---- -------<br>--- --- -- ----- -- --- ---- -- --- ---- -- ------ ------<br>--- ----- -- ----,110564.53000000329,110564.11500000104,110288.396,110295.70500001137,110305.05,110571.515,,15,close
screen,html.Screen,2_1_0_1_16,2021-04-30T11:12:57.153Z,,,,,,,,,,,,,,,,,53,,,,,,,,,,,,,,294.7700000109762,,response,,,,99,,,,,,,Space,keypress(Space),,,,,,,,---- -- ----- -- ------ - ------- --- ----------<br>------------- ------ ------ ---- ---- ------- ----- to ----<br>-------- ------- -- ---------- --- - --- ----- ----- ----<br>---- --- --- ----- --- ---- ---- ------- ----- ---- -------<br>--- --- -- ----- -- --- ---- -- --- ---- -- ------ ------<br>--- ----- -- ----,110867.41500000062,110866.28500001098,110554.964,110564.64000001142,110571.515,110871.247,,16,to
screen,html.Screen,2_1_0_1_17,2021-04-30T11:12:57.439Z,,,,,,,,,,,,,,,,,53,,,,,,,,,,,,,,281.373000008025,,response,,,,99,,,,,,,Space,keypress(Space),,,,,,,,---- -- ----- -- ------ - ------- --- ----------<br>------------- ------ ------ ---- ---- ------- ----- -- your<br>-------- ------- -- ---------- --- - --- ----- ----- ----<br>---- --- --- ----- --- ---- ---- ------- ----- ---- -------<br>--- --- -- ----- -- --- ---- -- --- ---- -- ------ ------<br>--- ----- -- ----,111153.0150000035,111152.62000000803,110854.784,110867.7400000015,110871.247,111185.327,,17,your
screen,html.Screen,2_1_0_1_18,2021-04-30T11:12:57.791Z,,,,,,,,,,,,,,,,,53,,,,,,,,,,,,,,319.4030000005587,,response,,,,99,,,,,,,Space,keypress(Space),,,,,,,,---- -- ----- -- ------ - ------- --- ----------<br>------------- ------ ------ ---- ---- ------- ----- -- ----<br>romantic ------- -- ---------- --- - --- ----- ----- ----<br>---- --- --- ----- --- ---- ---- ------- ----- ---- -------<br>--- --- -- ----- -- --- ---- -- --- ---- -- ------ ------<br>--- ----- -- ----,111505.14500000281,111504.73000000056,111137.69,111153.09500000149,111185.327,111520.833,,18,romantic
screen,html.Screen,2_1_0_1_19,2021-04-30T11:12:58.083Z,,,,,,,,,,,,,,,,,53,,,,,,,,,,,,,,275.3920000127837,,response,,,,99,,,,,,,Space,keypress(Space),,,,,,,,---- -- ----- -- ------ - ------- --- ----------<br>------------- ------ ------ ---- ---- ------- ----- -- ----<br>-------- partner -- ---------- --- - --- ----- ----- ----<br>---- --- --- ----- --- ---- ---- ------- ----- ---- -------<br>--- --- -- ----- -- --- ---- -- --- ---- -- ------ ------<br>--- ----- -- ----,111797.1200000029,111796.22500001278,111504.181,111505.22500000079,111520.833,111803.706,,19,partner
screen,html.Screen,2_1_0_1_20,2021-04-30T11:12:58.357Z,,,,,,,,,,,,,,,,,53,,,,,,,,,,,,,,266.50400000531226,,response,,,,99,,,,,,,Space,keypress(Space),,,,,,,,---- -- ----- -- ------ - ------- --- ----------<br>------------- ------ ------ ---- ---- ------- ----- -- ----<br>-------- ------- is ---------- --- - --- ----- ----- ----<br>---- --- --- ----- --- ---- ---- ------- ----- ---- -------<br>--- --- -- ----- -- --- ---- -- --- ---- -- ------ ------<br>--- ----- -- ----,112071.23500001035,112070.21000000532,111787.189,111797.38500001258,111803.706,112086.724,,20,is
screen,html.Screen,2_1_0_1_21,2021-04-30T11:12:58.616Z,,,,,,,,,,,,,,,,,53,,,,,,,,,,,,,,241.89100000580947,,response,,,,99,,,,,,,Space,keypress(Space),,,,,,,,---- -- ----- -- ------ - ------- --- ----------<br>------------- ------ ------ ---- ---- ------- ----- -- ----<br>-------- ------- -- paramount. --- - --- ----- ----- ----<br>---- --- --- ----- --- ---- ---- ------- ----- ---- -------<br>--- --- -- ----- -- --- ---- -- --- ---- -- ------ ------<br>--- ----- -- ----,112329.64999999967,112328.61500000581,112070.411,112071.54000000446,112086.724,112336.532,,21,paramount.
screen,html.Screen,2_1_0_1_22,2021-04-30T11:12:58.977Z,,,,,,,,,,,,,,,,,53,,,,,,,,,,,,,,353.7630000076024,,response,,,,99,,,,,,,Space,keypress(Space),,,,,,,,---- -- ----- -- ------ - ------- --- ----------<br>------------- ------ ------ ---- ---- ------- ----- -- ----<br>-------- ------- -- ---------- But - --- ----- ----- ----<br>---- --- --- ----- --- ---- ---- ------- ----- ---- -------<br>--- --- -- ----- -- --- ---- -- --- ---- -- ------ ------<br>--- ----- -- ----,112691.31500000367,112690.29500000761,112319.869,112329.97500000056,112336.532,112703.01,,22,But
screen,html.Screen,2_1_0_1_23,2021-04-30T11:12:59.245Z,,,,,,,,,,,,,,,,,53,,,,,,,,,,,,,,254.94500000531843,,response,,,,99,,,,,,,Space,keypress(Space),,,,,,,,---- -- ----- -- ------ - ------- --- ----------<br>------------- ------ ------ ---- ---- ------- ----- -- ----<br>-------- ------- -- ---------- --- a --- ----- ----- ----<br>---- --- --- ----- --- ---- ---- ------- ----- ---- -------<br>--- --- -- ----- -- --- ---- -- --- ---- -- ------ ------<br>--- ----- -- ----,112958.99000001373,112957.95500000531,112686.304,112691.5399999998,112703.01,112969.305,,23,a
screen,html.Screen,2_1_0_1_24,2021-04-30T11:12:59.499Z,,,,,,,,,,,,,,,,,53,,,,,,,,,,,,,,242.4850000012084,,response,,,,99,,,,,,,Space,keypress(Space),,,,,,,,---- -- ----- -- ------ - ------- --- ----------<br>------------- ------ ------ ---- ---- ------- ----- -- ----<br>-------- ------- -- ---------- --- - new ----- ----- ----<br>---- --- --- ----- --- ---- ---- ------- ----- ---- -------<br>--- --- -- ----- -- --- ---- -- --- ---- -- ------ ------<br>--- ----- -- ----,113212.78000000166,113211.7900000012,112952.723,112959.29500000784,112969.305,113218.952,,24,new
screen,html.Screen,2_1_0_1_25,2021-04-30T11:12:59.748Z,,,,,,,,,,,,,,,,,53,,,,,,,,,,,,,,242.9580000127171,,response,,,,99,,,,,,,Space,keypress(Space),,,,,,,,---- -- ----- -- ------ - ------- --- ----------<br>------------- ------ ------ ---- ---- ------- ----- -- ----<br>-------- ------- -- ---------- --- - --- study ----- ----<br>---- --- --- ----- --- ---- ---- ------- ----- ---- -------<br>--- --- -- ----- -- --- ---- -- --- ---- -- ------ ------<br>--- ----- -- ----,113462.37000000838,113461.91000001272,113202.558,113213.08000000136,113218.952,113468.693,,25,study
screen,html.Screen,2_1_0_1_26,2021-04-30T11:13:00.023Z,,,,,,,,,,,,,,,,,53,,,,,,,,,,,,,,268.4570000008389,,response,,,,99,,,,,,,Space,keypress(Space),,,,,,,,---- -- ----- -- ------ - ------- --- ----------<br>------------- ------ ------ ---- ---- ------- ----- -- ----<br>-------- ------- -- ---------- --- - --- ----- finds ----<br>---- --- --- ----- --- ---- ---- ------- ----- ---- -------<br>--- --- -- ----- -- --- ---- -- --- ---- -- ------ ------<br>--- ----- -- ----,113737.53000001307,113737.15000000084,113452.2,113462.48500001093,113468.693,113751.752,,26,finds
screen,html.Screen,2_1_0_1_27,2021-04-30T11:13:00.324Z,,,,,,,,,,,,,,,,,53,,,,,,,,,,,,,,285.8880000095669,,response,,,,99,,,,,,,Space,keypress(Space),,,,,,,,---- -- ----- -- ------ - ------- --- ----------<br>------------- ------ ------ ---- ---- ------- ----- -- ----<br>-------- ------- -- ---------- --- - --- ----- ----- that<br>---- --- --- ----- --- ---- ---- ------- ----- ---- -------<br>--- --- -- ----- -- --- ---- -- --- ---- -- ------ ------<br>--- ----- -- ----,114038.32500000135,114037.64000000956,113735.139,113737.60000000766,113751.752,114051.746,,27,that
screen,html.Screen,2_1_0_1_28,2021-04-30T11:13:00.618Z,,,,,,,,,,,,,,,,,53,,,,,,,,,,,,,,279.73900000243157,,response,,,,99,,,,,,,Space,keypress(Space),,,,,,,,---- -- ----- -- ------ - ------- --- ----------<br>------------- ------ ------ ---- ---- ------- ----- -- ----<br>-------- ------- -- ---------- --- - --- ----- ----- ----<br>it's --- --- ----- --- ---- ---- ------- ----- ---- -------<br>--- --- -- ----- -- --- ---- -- --- ---- -- ------ ------<br>--- ----- -- ----,114332.51000000746,114331.48500000243,114035.118,114038.52000000188,114051.746,114355.133,,28,it's
screen,html.Screen,2_1_0_1_29,2021-04-30T11:13:00.873Z,,,,,,,,,,,,,,,,,53,,,,,,,,,,,,,,231.1620000009716,,response,,,,99,,,,,,,Space,keypress(Space),,,,,,,,---- -- ----- -- ------ - ------- --- ----------<br>------------- ------ ------ ---- ---- ------- ----- -- ----<br>-------- ------- -- ---------- --- - --- ----- ----- ----<br>---- not --- ----- --- ---- ---- ------- ----- ---- -------<br>--- --- -- ----- -- --- ---- -- --- ---- -- ------ ------<br>--- ----- -- ----,114587.39500000956,114586.29500000097,114318.14,114332.81500000157,114355.133,114601.154,,29,not
screen,html.Screen,2_1_0_1_30,2021-04-30T11:13:01.148Z,,,,,,,,,,,,,,,,,53,,,,,,,,,,,,,,260.3110000090528,,response,,,,99,,,,,,,Space,keypress(Space),,,,,,,,---- -- ----- -- ------ - ------- --- ----------<br>------------- ------ ------ ---- ---- ------- ----- -- ----<br>-------- ------- -- ---------- --- - --- ----- ----- ----<br>---- --- how ----- --- ---- ---- ------- ----- ---- -------<br>--- --- -- ----- -- --- ---- -- --- ---- -- ------ ------<br>--- ----- -- ----,114861.8950000091,114861.46500000905,114584.575,114587.69500000926,114601.154,114867.406,,30,how
screen,html.Screen,2_1_0_1_31,2021-04-30T11:13:01.414Z,,,,,,,,,,,,,,,,,53,,,,,,,,,,,,,,259.2890000135667,,response,,,,99,,,,,,,Space,keypress(Space),,,,,,,,---- -- ----- -- ------ - ------- --- ----------<br>------------- ------ ------ ---- ---- ------- ----- -- ----<br>-------- ------- -- ---------- --- - --- ----- ----- ----<br>---- --- --- close --- ---- ---- ------- ----- ---- -------<br>--- --- -- ----- -- --- ---- -- --- ---- -- ------ ------<br>--- ----- -- ----,115127.60000000708,115126.69500001357,114850.932,114861.97000001266,114867.406,115133.743,,31,close
screen,html.Screen,2_1_0_1_32,2021-04-30T11:13:01.674Z,,,,,,,,,,,,,,,,,53,,,,,,,,,,,,,,253.10200000090117,,response,,,,99,,,,,,,Space,keypress(Space),,,,,,,,---- -- ----- -- ------ - ------- --- ----------<br>------------- ------ ------ ---- ---- ------- ----- -- ----<br>-------- ------- -- ---------- --- - --- ----- ----- ----<br>---- --- --- ----- you ---- ---- ------- ----- ---- -------<br>--- --- -- ----- -- --- ---- -- --- ---- -- ------ ------<br>--- ----- -- ----,115387.81500000914,115386.8450000009,115117.293,115127.87000001117,115133.743,115400.379,,32,you
screen,html.Screen,2_1_0_1_33,2021-04-30T11:13:01.935Z,,,,,,,,,,,,,,,,,53,,,,,,,,,,,,,,247.84600001173385,,response,,,,99,,,,,,,Space,keypress(Space),,,,,,,,---- -- ----- -- ------ - ------- --- ----------<br>------------- ------ ------ ---- ---- ------- ----- -- ----<br>-------- ------- -- ---------- --- - --- ----- ----- ----<br>---- --- --- ----- --- feel ---- ------- ----- ---- -------<br>--- --- -- ----- -- --- ---- -- --- ---- -- ------ ------<br>--- ----- -- ----,115649.24000001338,115648.22500001173,115383.756,115388.11500000884,115400.379,115666.861,,33,feel
screen,html.Screen,2_1_0_1_34,2021-04-30T11:13:02.201Z,,,,,,,,,,,,,,,,,53,,,,,,,,,,,,,,246.99900000056368,,response,,,,99,,,,,,,Space,keypress(Space),,,,,,,,---- -- ----- -- ------ - ------- --- ----------<br>------------- ------ ------ ---- ---- ------- ----- -- ----<br>-------- ------- -- ---------- --- - --- ----- ----- ----<br>---- --- --- ----- --- ---- that ------- ----- ---- -------<br>--- --- -- ----- -- --- ---- -- --- ---- -- ------ ------<br>--- ----- -- ----,115914.66000000946,115913.86000000057,115649.893,115649.55500001088,115666.861,115948.119,,34,that
screen,html.Screen,2_1_0_1_35,2021-04-30T11:13:02.476Z,,,,,,,,,,,,,,,,,53,,,,,,,,,,,,,,240.65600000234554,,response,,,,99,,,,,,,Space,keypress(Space),,,,,,,,---- -- ----- -- ------ - ------- --- ----------<br>------------- ------ ------ ---- ---- ------- ----- -- ----<br>-------- ------- -- ---------- --- - --- ----- ----- ----<br>---- --- --- ----- --- ---- ---- matters ----- ---- -------<br>--- --- -- ----- -- --- ---- -- --- ---- -- ------ ------<br>--- ----- -- ----,116189.84000000637,116188.77500000235,115899.646,115914.89000000001,115948.119,116199.628,,35,matters
screen,html.Screen,2_1_0_1_36,2021-04-30T11:13:02.734Z,,,,,,,,,,,,,,,,,53,,,,,,,,,,,,,,247.2870000077237,,response,,,,99,,,,,,,Space,keypress(Space),,,,,,,,"---- -- ----- -- ------ - ------- --- ----------<br>------------- ------ ------ ---- ---- ------- ----- -- ----<br>-------- ------- -- ---------- --- - --- ----- ----- ----<br>---- --- --- ----- --- ---- ---- ------- most, ---- -------<br>--- --- -- ----- -- --- ---- -- --- ---- -- ------ ------<br>--- ----- -- ----",116448.00500001293,116446.91500000772,116182.747,116190.84500000463,116199.628,116481.545,,36,"most,"
screen,html.Screen,2_1_0_1_37,2021-04-30T11:13:02.996Z,,,,,,,,,,,,,,,,,53,,,,,,,,,,,,,,227.85000001259323,,response,,,,99,,,,,,,Space,keypress(Space),,,,,,,,---- -- ----- -- ------ - ------- --- ----------<br>------------- ------ ------ ---- ---- ------- ----- -- ----<br>-------- ------- -- ---------- --- - --- ----- ----- ----<br>---- --- --- ----- --- ---- ---- ------- ----- it's -------<br>--- --- -- ----- -- --- ---- -- --- ---- -- ------ ------<br>--- ----- -- ----,116709.76000001247,116709.39500001259,116432.649,116448.29000000027,116481.545,116715.414,,37,it's
screen,html.Screen,2_1_0_1_38,2021-04-30T11:13:03.274Z,,,,,,,,,,,,,,,,,53,,,,,,,,,,,,,,271.3860000133136,,response,,,,99,,,,,,,Space,keypress(Space),,,,,,,,---- -- ----- -- ------ - ------- --- ----------<br>------------- ------ ------ ---- ---- ------- ----- -- ----<br>-------- ------- -- ---------- --- - --- ----- ----- ----<br>---- --- --- ----- --- ---- ---- ------- ----- ---- whether<br>--- --- -- ----- -- --- ---- -- --- ---- -- ------ ------<br>--- ----- -- ----,116987.80500001158,116986.80000001332,116699.058,116709.83500000148,116715.414,116998.873,,38,whether
screen,html.Screen,2_1_0_1_39,2021-04-30T11:13:03.545Z,,,,,,,,,,,,,,,,,53,,,,,,,,,,,,,,259.49700001046585,,response,,,,99,,,,,,,Space,keypress(Space),,,,,,,,---- -- ----- -- ------ - ------- --- ----------<br>------------- ------ ------ ---- ---- ------- ----- -- ----<br>-------- ------- -- ---------- --- - --- ----- ----- ----<br>---- --- --- ----- --- ---- ---- ------- ----- ---- -------<br>you --- -- ----- -- --- ---- -- --- ---- -- ------ ------<br>--- ----- -- ----,117258.72500000696,117258.37000001047,116982.324,116988.09500000789,116998.873,117264.985,,39,you
screen,html.Screen,2_1_0_1_40,2021-04-30T11:13:03.806Z,,,,,,,,,,,,,,,,,53,,,,,,,,,,,,,,254.17500001074222,,response,,,,99,,,,,,,Space,keypress(Space),,,,,,,,---- -- ----- -- ------ - ------- --- ----------<br>------------- ------ ------ ---- ---- ------- ----- -- ----<br>-------- ------- -- ---------- --- - --- ----- ----- ----<br>---- --- --- ----- --- ---- ---- ------- ----- ---- -------<br>--- are -- ----- -- --- ---- -- --- ---- -- ------ ------<br>--- ----- -- ----,117519.61500001198,117519.16000001074,117248.237,117258.80000001052,117264.985,117531.677,,40,are
screen,html.Screen,2_1_0_1_41,2021-04-30T11:13:04.036Z,,,,,,,,,,,,,,,,,53,,,,,,,,,,,,,,217.91300000672345,,response,,,,99,,,,,,,Space,keypress(Space),,,,,,,,---- -- ----- -- ------ - ------- --- ----------<br>------------- ------ ------ ---- ---- ------- ----- -- ----<br>-------- ------- -- ---------- --- - --- ----- ----- ----<br>---- --- --- ----- --- ---- ---- ------- ----- ---- -------<br>--- --- as ----- -- --- ---- -- --- ---- -- ------ ------<br>--- ----- -- ----,117749.96500000998,117749.59000000672,117514.742,117519.72500000556,117531.677,117764.859,,41,as
screen,html.Screen,2_1_0_1_42,2021-04-30T11:13:04.284Z,,,,,,,,,,,,,,,,,53,,,,,,,,,,,,,,231.6860000017914,,response,,,,99,,,,,,,Space,keypress(Space),,,,,,,,---- -- ----- -- ------ - ------- --- ----------<br>------------- ------ ------ ---- ---- ------- ----- -- ----<br>-------- ------- -- ---------- --- - --- ----- ----- ----<br>---- --- --- ----- --- ---- ---- ------- ----- ---- -------<br>--- --- -- close -- --- ---- -- --- ---- -- ------ ------<br>--- ----- -- ----,117997.57000000682,117996.54500000179,117747.864,117750.06000000576,117764.859,118014.573,,42,close
screen,html.Screen,2_1_0_1_43,2021-04-30T11:13:04.522Z,,,,,,,,,,,,,,,,,53,,,,,,,,,,,,,,221.46700000340934,,response,,,,99,,,,,,,Space,keypress(Space),,,,,,,,---- -- ----- -- ------ - ------- --- ----------<br>------------- ------ ------ ---- ---- ------- ----- -- ----<br>-------- ------- -- ---------- --- - --- ----- ----- ----<br>---- --- --- ----- --- ---- ---- ------- ----- ---- -------<br>--- --- -- ----- as --- ---- -- --- ---- -- ------ ------<br>--- ----- -- ----,118236.46000000008,118236.04000000341,117997.809,117997.8650000121,118014.573,118247.349,,43,as
screen,html.Screen,2_1_0_1_44,2021-04-30T11:13:04.779Z,,,,,,,,,,,,,,,,,53,,,,,,,,,,,,,,245.25600000673148,,response,,,,99,,,,,,,Space,keypress(Space),,,,,,,,---- -- ----- -- ------ - ------- --- ----------<br>------------- ------ ------ ---- ---- ------- ----- -- ----<br>-------- ------- -- ---------- --- - --- ----- ----- ----<br>---- --- --- ----- --- ---- ---- ------- ----- ---- -------<br>--- --- -- ----- -- you ---- -- --- ---- -- ------ ------<br>--- ----- -- ----,118493.18499999936,118492.60500000673,118230.96,118236.56000000483,118247.349,118497.029,,44,you
screen,html.Screen,2_1_0_1_45,2021-04-30T11:13:05.035Z,,,,,,,,,,,,,,,,,53,,,,,,,,,,,,,,250.40100000308303,,response,,,,99,,,,,,,Space,keypress(Space),,,,,,,,---- -- ----- -- ------ - ------- --- ----------<br>------------- ------ ------ ---- ---- ------- ----- -- ----<br>-------- ------- -- ---------- --- - --- ----- ----- ----<br>---- --- --- ----- --- ---- ---- ------- ----- ---- -------<br>--- --- -- ----- -- --- want -- --- ---- -- ------ ------<br>--- ----- -- ----,118749.0850000031,118747.43000000308,118480.634,118494.51000000408,118497.029,118763.862,,45,want
screen,html.Screen,2_1_0_1_46,2021-04-30T11:13:05.310Z,,,,,,,,,,,,,,,,,53,,,,,,,,,,,,,,259.4630000019388,,response,,,,99,,,,,,,Space,keypress(Space),,,,,,,,---- -- ----- -- ------ - ------- --- ----------<br>------------- ------ ------ ---- ---- ------- ----- -- ----<br>-------- ------- -- ---------- --- - --- ----- ----- ----<br>---- --- --- ----- --- ---- ---- ------- ----- ---- -------<br>--- --- -- ----- -- --- ---- to --- ---- -- ------ ------<br>--- ----- -- ----,119024.32000001136,119023.32500000193,118747.038,118749.38000000839,118763.862,119029.908,,46,to
screen,html.Screen,2_1_0_1_47,2021-04-30T11:13:05.576Z,,,,,,,,,,,,,,,,,53,,,,,,,,,,,,,,259.44200000638375,,response,,,,99,,,,,,,Space,keypress(Space),,,,,,,,"---- -- ----- -- ------ - ------- --- ----------<br>------------- ------ ------ ---- ---- ------- ----- -- ----<br>-------- ------- -- ---------- --- - --- ----- ----- ----<br>---- --- --- ----- --- ---- ---- ------- ----- ---- -------<br>--- --- -- ----- -- --- ---- -- be, ---- -- ------ ------<br>--- ----- -- ----",119289.70500000287,119289.35000000638,119013.639,119024.61000000767,119029.908,119296.558,,47,"be,"
screen,html.Screen,2_1_0_1_48,2021-04-30T11:13:05.865Z,,,,,,,,,,,,,,,,,53,,,,,,,,,,,,,,281.8370000040886,,response,,,,99,,,,,,,Space,keypress(Space),,,,,,,,---- -- ----- -- ------ - ------- --- ----------<br>------------- ------ ------ ---- ---- ------- ----- -- ----<br>-------- ------- -- ---------- --- - --- ----- ----- ----<br>---- --- --- ----- --- ---- ---- ------- ----- ---- -------<br>--- --- -- ----- -- --- ---- -- --- even -- ------ ------<br>--- ----- -- ----,119579.42000000912,119578.3950000041,119279.93,119289.77000000305,119296.558,119596.319,,48,even
screen,html.Screen,2_1_0_1_49,2021-04-30T11:13:06.128Z,,,,,,,,,,,,,,,,,53,,,,,,,,,,,,,,244.81600000966864,,response,,,,99,,,,,,,Space,keypress(Space),,,,,,,,---- -- ----- -- ------ - ------- --- ----------<br>------------- ------ ------ ---- ---- ------- ----- -- ----<br>-------- ------- -- ---------- --- - --- ----- ----- ----<br>---- --- --- ----- --- ---- ---- ------- ----- ---- -------<br>--- --- -- ----- -- --- ---- -- --- ---- if ------ ------<br>--- ----- -- ----,119842.13000000454,119841.13500000967,119579.578,119579.71499999985,119596.319,119845.826,,49,if
screen,html.Screen,2_1_0_1_50,2021-04-30T11:13:06.432Z,,,,,,,,,,,,,,,,,53,,,,,,,,,,,,,,299.88900000602007,,response,,,,99,,,,,,,Space,keypress(Space),,,,,,,,---- -- ----- -- ------ - ------- --- ----------<br>------------- ------ ------ ---- ---- ------- ----- -- ----<br>-------- ------- -- ---------- --- - --- ----- ----- ----<br>---- --- --- ----- --- ---- ---- ------- ----- ---- -------<br>--- --- -- ----- -- --- ---- -- --- ---- -- that's ------<br>--- ----- -- ----,120146.16500001284,120145.71500000602,119829.416,119842.40500000305,119845.826,120162.319,,50,that's
screen,html.Screen,2_1_0_1_51,2021-04-30T11:13:06.784Z,,,,,,,,,,,,,,,,,53,,,,,,,,,,,,,,334.5410000138363,,response,,,,99,,,,,,,Space,keypress(Space),,,,,,,,---- -- ----- -- ------ - ------- --- ----------<br>------------- ------ ------ ---- ---- ------- ----- -- ----<br>-------- ------- -- ---------- --- - --- ----- ----- ----<br>---- --- --- ----- --- ---- ---- ------- ----- ---- -------<br>--- --- -- ----- -- --- ---- -- --- ---- -- ------ really<br>--- ----- -- ----,120497.87000000651,120496.86000001384,120145.655,120146.28000000084,120162.319,120511.862,,51,really
screen,html.Screen,2_1_0_1_52,2021-04-30T11:13:07.119Z,,,,,,,,,,,,,,,,,53,,,,,,,,,,,,,,320.8580000057991,,response,,,,99,,,,,,,Space,keypress(Space),,,,,,,,---- -- ----- -- ------ - ------- --- ----------<br>------------- ------ ------ ---- ---- ------- ----- -- ----<br>-------- ------- -- ---------- --- - --- ----- ----- ----<br>---- --- --- ----- --- ---- ---- ------- ----- ---- -------<br>--- --- -- ----- -- --- ---- -- --- ---- -- ------ ------<br>not ----- -- ----,120833.27500001178,120832.7200000058,120495.397,120498.15500000841,120511.862,120844.991,,52,not
screen,html.Screen,2_1_0_1_53,2021-04-30T11:13:07.413Z,,,,,,,,,,,,,,,,,53,,,,,,,,,,,,,,281.65400001119997,,response,,,,99,,,,,,,Space,keypress(Space),,,,,,,,---- -- ----- -- ------ - ------- --- ----------<br>------------- ------ ------ ---- ---- ------- ----- -- ----<br>-------- ------- -- ---------- --- - --- ----- ----- ----<br>---- --- --- ----- --- ---- ---- ------- ----- ---- -------<br>--- --- -- ----- -- --- ---- -- --- ---- -- ------ ------<br>--- close -- ----,121126.98500000988,121126.6450000112,120828.21,120833.44500001112,120844.991,121157.849,,53,close
screen,html.Screen,2_1_0_1_54,2021-04-30T11:13:07.736Z,,,,,,,,,,,,,,,,,53,,,,,,,,,,,,,,291.1660000055999,,response,,,,99,,,,,,,Space,keypress(Space),,,,,,,,---- -- ----- -- ------ - ------- --- ----------<br>------------- ------ ------ ---- ---- ------- ----- -- ----<br>-------- ------- -- ---------- --- - --- ----- ----- ----<br>---- --- --- ----- --- ---- ---- ------- ----- ---- -------<br>--- --- -- ----- -- --- ---- -- --- ---- -- ------ ------<br>--- ----- at ----,121449.97500001045,121449.0150000056,121111.661,121127.05500000448,121157.849,121460.93,,54,at
screen,html.Screen,2_1_0_1_55,2021-04-30T11:13:08.589Z,,,,,,,,,,,,,,,,,53,,,,,,,,,,,,,,841.9700000096927,,response,,,,99,,,,,,,Space,keypress(Space),,,,,,,,---- -- ----- -- ------ - ------- --- ----------<br>------------- ------ ------ ---- ---- ------- ----- -- ----<br>-------- ------- -- ---------- --- - --- ----- ----- ----<br>---- --- --- ----- --- ---- ---- ------- ----- ---- -------<br>--- --- -- ----- -- --- ---- -- --- ---- -- ------ ------<br>--- ----- -- all.,122303.55500000587,122302.90000000969,121444.4,121450.26000001235,121460.93,122310.029,,55,all.
Item 99,flow.Loop,2_1_0_1,2021-04-30T11:13:08.590Z,,,,,,,,,,,,,,,,,,,,,,,,,,,,,,,18424.82300000968,,completion,,,,,C,,,,,,,,,,,silence,,,,,122303.88000000676,122302.90000000969,103828.199,103829.72000000882,103878.077,122310.029,,,
Question 1,html.Screen,2_1_0_2,2021-04-30T11:13:12.646Z,,,,,,,,,,,,,,,,,,,,,,,,,,,,true,FALSE,,4049.8660000014206,,response,,,,99,C,,,,,,FALSE,click #choice-2,,,,silence,,,,,126360.61500001233,126359.89500000142,122293.542,122304.0350000083,122310.029,126372.752,,,
Question 2,html.Screen,2_1_0_3,2021-04-30T11:13:16.296Z,,,,,,,,,,,,,,,,,,,,,,,,,,,,true,TRUE,,3635.583000005907,,response,,,,99,C,,,,,,TRUE,click #choice-1,,,,silence,,,,,130009.7650000098,130008.3350000059,126356.098,126360.69500001031,126372.752,130019.311,,,
Item 99,flow.Sequence,2_1_0,2021-04-30T11:13:16.296Z,,,,,,,,,,,,,,,,,,,,,,,,,,,,,,,36170.3350000059,,completion,,,,,,,,,,,,,,,,,,,,,130010.20000000426,130008.3350000059,93821.48,93836.06500001042,93838,130019.311,,,
Holding screen,html.Screen,2_1_1_0,2021-04-30T11:13:26.296Z,,,,,,,,,,,,,,,,,,,,,,,,,,,,,,,10006.968000000008,,timeout,,,,,,,,,,,,,,,,,,,,,140010.17500000307,140009.669,130002.542,130010.50500001293,130019.311,140026.279,,,
screen,html.Screen,2_1_1_1_0,2021-04-30T11:13:27.083Z,,,,,,,,,,,,,,,,,54,,,,,,,,,,,,,,769.9410000038042,,response,,,,100,,,,,,,Space,keypress(Space),,,,,,,,At --- ---- --- ------ ----- ------- ---- -- --- ------- --<br>------- ---------- ------ -- ----- -- ----- -- ---- ------<br>--- ----- --- --- ------ -------- ----- --- ------ ----- --<br>----- ----- ---------- --- --- ------ ------ ---- -- ------<br>------- --- ------ ----- --- ---- ------- -- ---- --- --<br>------- ------,140797.27000001003,140796.2200000038,140009.669,140010.29000000563,140026.279,140808.864,,0,At
screen,html.Screen,2_1_1_1_1,2021-04-30T11:13:27.445Z,,,,,,,,,,,,,,,,,54,,,,,,,,,,,,,,349.85100001230603,,response,,,,100,,,,,,,Space,keypress(Space),,,,,,,,-- the ---- --- ------ ----- ------- ---- -- --- ------- --<br>------- ---------- ------ -- ----- -- ----- -- ---- ------<br>--- ----- --- --- ------ -------- ----- --- ------ ----- --<br>----- ----- ---------- --- --- ------ ------ ---- -- ------<br>------- --- ------ ----- --- ---- ------- -- ---- --- --<br>------- ------,141159.5900000102,141158.7150000123,140792.081,140797.57000000973,140808.864,141174.922,,1,the
screen,html.Screen,2_1_1_1_2,2021-04-30T11:13:27.745Z,,,,,,,,,,,,,,,,,54,,,,,,,,,,,,,,282.8130000036035,,response,,,,100,,,,,,,Space,keypress(Space),,,,,,,,-- --- time --- ------ ----- ------- ---- -- --- ------- --<br>------- ---------- ------ -- ----- -- ----- -- ---- ------<br>--- ----- --- --- ------ -------- ----- --- ------ ----- --<br>----- ----- ---------- --- --- ------ ------ ---- -- ------<br>------- --- ------ ----- --- ---- ------- -- ---- --- --<br>------- ------,141458.90500000678,141457.7350000036,141158.26,141159.84000000753,141174.922,141474.578,,2,time
screen,html.Screen,2_1_1_1_3,2021-04-30T11:13:28.030Z,,,,,,,,,,,,,,,,,54,,,,,,,,,,,,,,269.39700000485755,,response,,,,100,,,,,,,Space,keypress(Space),,,,,,,,-- --- ---- the ------ ----- ------- ---- -- --- ------- --<br>------- ---------- ------ -- ----- -- ----- -- ---- ------<br>--- ----- --- --- ------ -------- ----- --- ------ ----- --<br>----- ----- ---------- --- --- ------ ------ ---- -- ------<br>------- --- ------ ----- --- ---- ------- -- ---- --- --<br>------- ------,141744.40500000492,141743.97500000487,141458.222,141459.27500000107,141474.578,141757.838,,3,the
screen,html.Screen,2_1_1_1_4,2021-04-30T11:13:28.300Z,,,,,,,,,,,,,,,,,54,,,,,,,,,,,,,,254.98200000356883,,response,,,,100,,,,,,,Space,keypress(Space),,,,,,,,-- --- ---- --- French ----- ------- ---- -- --- ------- --<br>------- ---------- ------ -- ----- -- ----- -- ---- ------<br>--- ----- --- --- ------ -------- ----- --- ------ ----- --<br>----- ----- ---------- --- --- ------ ------ ---- -- ------<br>------- --- ------ ----- --- ---- ------- -- ---- --- --<br>------- ------,142013.72500001162,142012.82000000356,141741.153,141744.49000001187,141757.838,142024.099,,4,French
screen,html.Screen,2_1_1_1_5,2021-04-30T11:13:28.535Z,,,,,,,,,,,,,,,,,54,,,,,,,,,,,,,,224.5910000076401,,response,,,,100,,,,,,,Space,keypress(Space),,,,,,,,-- --- ---- --- ------ crown ------- ---- -- --- ------- --<br>------- ---------- ------ -- ----- -- ----- -- ---- ------<br>--- ----- --- --- ------ -------- ----- --- ------ ----- --<br>----- ----- ---------- --- --- ------ ------ ---- -- ------<br>------- --- ------ ----- --- ---- ------- -- ---- --- --<br>------- ------,142249.6100000135,142248.69000000763,142007.56,142013.96999999997,142024.099,142257.157,,5,crown
screen,html.Screen,2_1_1_1_6,2021-04-30T11:13:28.771Z,,,,,,,,,,,,,,,,,54,,,,,,,,,,,,,,227.24300000118092,,response,,,,100,,,,,,,Space,keypress(Space),,,,,,,,-- --- ---- --- ------ ----- secured ---- -- --- ------- --<br>------- ---------- ------ -- ----- -- ----- -- ---- ------<br>--- ----- --- --- ------ -------- ----- --- ------ ----- --<br>----- ----- ---------- --- --- ------ ------ ---- -- ------<br>------- --- ------ ----- --- ---- ------- -- ---- --- --<br>------- ------,142484.72500000207,142484.4000000012,142240.825,142249.86500000523,142257.157,142490.329,,6,secured
screen,html.Screen,2_1_1_1_7,2021-04-30T11:13:29.072Z,,,,,,,,,,,,,,,,,54,,,,,,,,,,,,,,294.65100001127576,,response,,,,100,,,,,,,Space,keypress(Space),,,,,,,,-- --- ---- --- ------ ----- ------- much -- --- ------- --<br>------- ---------- ------ -- ----- -- ----- -- ---- ------<br>--- ----- --- --- ------ -------- ----- --- ------ ----- --<br>----- ----- ---------- --- --- ------ ------ ---- -- ------<br>------- --- ------ ----- --- ---- ------- -- ---- --- --<br>------- ------,142785.87000000698,142784.98000001127,142473.961,142484.80000000563,142490.329,142789.971,,7,much
screen,html.Screen,2_1_1_1_8,2021-04-30T11:13:29.365Z,,,,,,,,,,,,,,,,,54,,,,,,,,,,,,,,288.2390000069572,,response,,,,100,,,,,,,Space,keypress(Space),,,,,,,,-- --- ---- --- ------ ----- ------- ---- of --- ------- --<br>------- ---------- ------ -- ----- -- ----- -- ---- ------<br>--- ----- --- --- ------ -------- ----- --- ------ ----- --<br>----- ----- ---------- --- --- ------ ------ ---- -- ------<br>------- --- ------ ----- --- ---- ------- -- ---- --- --<br>------- ------,143079.10500001162,143078.21000000695,142773.343,142786.1150000099,142789.971,143089.735,,8,of
screen,html.Screen,2_1_1_1_9,2021-04-30T11:13:29.621Z,,,,,,,,,,,,,,,,,54,,,,,,,,,,,,,,244.8550000131363,,response,,,,100,,,,,,,Space,keypress(Space),,,,,,,,-- --- ---- --- ------ ----- ------- ---- -- its ------- --<br>------- ---------- ------ -- ----- -- ----- -- ---- ------<br>--- ----- --- --- ------ -------- ----- --- ------ ----- --<br>----- ----- ---------- --- --- ------ ------ ---- -- ------<br>------- --- ------ ----- --- ---- ------- -- ---- --- --<br>------- ------,143335.5300000112,143334.59000001312,143073.048,143079.35500000895,143089.735,143339.422,,9,its
screen,html.Screen,2_1_1_1_10,2021-04-30T11:13:29.886Z,,,,,,,,,,,,,,,,,54,,,,,,,,,,,,,,259.4480000016338,,response,,,,100,,,,,,,Space,keypress(Space),,,,,,,,-- --- ---- --- ------ ----- ------- ---- -- --- revenue --<br>------- ---------- ------ -- ----- -- ----- -- ---- ------<br>--- ----- --- --- ------ -------- ----- --- ------ ----- --<br>----- ----- ---------- --- --- ------ ------ ---- -- ------<br>------- --- ------ ----- --- ---- ------- -- ---- --- --<br>------- ------,143599.89000001224,143598.87000000163,143323.067,143335.77499999956,143339.422,143605.831,,10,revenue
screen,html.Screen,2_1_1_1_11,2021-04-30T11:13:30.186Z,,,,,,,,,,,,,,,,,54,,,,,,,,,,,,,,293.3190000120085,,response,,,,100,,,,,,,Space,keypress(Space),,,,,,,,-- --- ---- --- ------ ----- ------- ---- -- --- ------- by<br>------- ---------- ------ -- ----- -- ----- -- ---- ------<br>--- ----- --- --- ------ -------- ----- --- ------ ----- --<br>----- ----- ---------- --- --- ------ ------ ---- -- ------<br>------- --- ------ ----- --- ---- ------- -- ---- --- --<br>------- ------,143900.18500000588,143899.150000012,143589.439,143600.17499999958,143605.831,143905.522,,11,by
screen,html.Screen,2_1_1_1_12,2021-04-30T11:13:30.518Z,,,,,,,,,,,,,,,,,54,,,,,,,,,,,,,,326.52800000598654,,response,,,,100,,,,,,,Space,keypress(Space),,,,,,,,-- --- ---- --- ------ ----- ------- ---- -- --- ------- --<br>issuing ---------- ------ -- ----- -- ----- -- ---- ------<br>--- ----- --- --- ------ -------- ----- --- ------ ----- --<br>----- ----- ---------- --- --- ------ ------ ---- -- ------<br>------- --- ------ ----- --- ---- ------- -- ---- --- --<br>------- ------,144232.55000000063,144232.05000000598,143888.943,143900.46500001336,143905.522,144238.602,,12,issuing
screen,html.Screen,2_1_1_1_13,2021-04-30T11:13:30.825Z,,,,,,,,,,,,,,,,,54,,,,,,,,,,,,,,299.78300000709714,,response,,,,100,,,,,,,Space,keypress(Space),,,,,,,,-- --- ---- --- ------ ----- ------- ---- -- --- ------- --<br>------- government ------ -- ----- -- ----- -- ---- ------<br>--- ----- --- --- ------ -------- ----- --- ------ ----- --<br>----- ----- ---------- --- --- ------ ------ ---- -- ------<br>------- --- ------ ----- --- ---- ------- -- ---- --- --<br>------- ------,144539.35000000638,144538.3850000071,144222.106,144232.66500000318,144238.602,144555.163,,13,government
screen,html.Screen,2_1_1_1_14,2021-04-30T11:13:31.107Z,,,,,,,,,,,,,,,,,54,,,,,,,,,,,,,,265.5120000099414,,response,,,,100,,,,,,,Space,keypress(Space),,,,,,,,-- --- ---- --- ------ ----- ------- ---- -- --- ------- --<br>------- ---------- bonds. -- ----- -- ----- -- ---- ------<br>--- ----- --- --- ------ -------- ----- --- ------ ----- --<br>----- ----- ---------- --- --- ------ ------ ---- -- ------<br>------- --- ------ ----- --- ---- ------- -- ---- --- --<br>------- ------,144821.1650000012,144820.67500000994,144538.313,144539.59500000929,144555.163,144838.288,,14,bonds.
screen,html.Screen,2_1_1_1_15,2021-04-30T11:13:31.394Z,,,,,,,,,,,,,,,,,54,,,,,,,,,,,,,,269.4120000077528,,response,,,,100,,,,,,,Space,keypress(Space),,,,,,,,-- --- ---- --- ------ ----- ------- ---- -- --- ------- --<br>------- ---------- ------ In ----- -- ----- -- ---- ------<br>--- ----- --- --- ------ -------- ----- --- ------ ----- --<br>----- ----- ---------- --- --- ------ ------ ---- -- ------<br>------- --- ------ ----- --- ---- ------- -- ---- --- --<br>------- ------,145108.56500000227,145107.70000000775,144821.555,144821.30000001052,144838.288,145121.08,,15,In
screen,html.Screen,2_1_1_1_16,2021-04-30T11:13:33.006Z,,,,,,,,,,,,,,,,,54,,,,,,,,,,,,,,1598.4900000011257,,response,,,,100,,,,,,,Space,keypress(Space),,,,,,,,"-- --- ---- --- ------ ----- ------- ---- -- --- ------- --<br>------- ---------- ------ -- 1727, -- ----- -- ---- ------<br>--- ----- --- --- ------ -------- ----- --- ------ ----- --<br>----- ----- ---------- --- --- ------ ------ ---- -- ------<br>------- --- ------ ----- --- ---- ------- -- ---- --- --<br>------- ------",146720.2099999995,146719.5700000011,145104.454,145108.81000000518,145121.08,146736.017,,16,"1727,"
screen,html.Screen,2_1_1_1_17,2021-04-30T11:13:33.318Z,,,,,,,,,,,,,,,,,54,,,,,,,,,,,,,,295.2830000023823,,response,,,,100,,,,,,,Space,keypress(Space),,,,,,,,-- --- ---- --- ------ ----- ------- ---- -- --- ------- --<br>------- ---------- ------ -- ----- in ----- -- ---- ------<br>--- ----- --- --- ------ -------- ----- --- ------ ----- --<br>----- ----- ---------- --- --- ------ ------ ---- -- ------<br>------- --- ------ ----- --- ---- ------- -- ---- --- --<br>------- ------,147031.93500000634,147031.30000000237,146719.47,146720.30000000086,146736.017,147035.774,,17,in
screen,html.Screen,2_1_1_1_18,2021-04-30T11:13:33.594Z,,,,,,,,,,,,,,,,,54,,,,,,,,,,,,,,271.0610000103188,,response,,,,100,,,,,,,Space,keypress(Space),,,,,,,,-- --- ---- --- ------ ----- ------- ---- -- --- ------- --<br>------- ---------- ------ -- ----- -- order -- ---- ------<br>--- ----- --- --- ------ -------- ----- --- ------ ----- --<br>----- ----- ---------- --- --- ------ ------ ---- -- ------<br>------- --- ------ ----- --- ---- ------- -- ---- --- --<br>------- ------,147307.81000001298,147306.83500001032,147019.096,147032.25000000384,147035.774,147319.17,,18,order
screen,html.Screen,2_1_1_1_19,2021-04-30T11:13:33.878Z,,,,,,,,,,,,,,,,,54,,,,,,,,,,,,,,271.9150000072841,,response,,,,100,,,,,,,Space,keypress(Space),,,,,,,,-- --- ---- --- ------ ----- ------- ---- -- --- ------- --<br>------- ---------- ------ -- ----- -- ----- to ---- ------<br>--- ----- --- --- ------ -------- ----- --- ------ ----- --<br>----- ----- ---------- --- --- ------ ------ ---- -- ------<br>------- --- ------ ----- --- ---- ------- -- ---- --- --<br>------- ------,147591.76000001025,147591.0850000073,147302.3,147308.0600000103,147319.17,147602.203,,19,to
screen,html.Screen,2_1_1_1_20,2021-04-30T11:13:34.119Z,,,,,,,,,,,,,,,,,54,,,,,,,,,,,,,,229.54200000312994,,response,,,,100,,,,,,,Space,keypress(Space),,,,,,,,-- --- ---- --- ------ ----- ------- ---- -- --- ------- --<br>------- ---------- ------ -- ----- -- ----- -- save ------<br>--- ----- --- --- ------ -------- ----- --- ------ ----- --<br>----- ----- ---------- --- --- ------ ------ ---- -- ------<br>------- --- ------ ----- --- ---- ------- -- ---- --- --<br>------- ------,147832.65500000562,147831.74500000314,147585.541,147591.95500001078,147602.203,147835.052,,20,save
screen,html.Screen,2_1_1_1_21,2021-04-30T11:13:34.326Z,,,,,,,,,,,,,,,,,54,,,,,,,,,,,,,,204.4780000091123,,response,,,,100,,,,,,,Space,keypress(Space),,,,,,,,"-- --- ---- --- ------ ----- ------- ---- -- --- ------- --<br>------- ---------- ------ -- ----- -- ----- -- ---- money,<br>--- ----- --- --- ------ -------- ----- --- ------ ----- --<br>----- ----- ---------- --- --- ------ ------ ---- -- ------<br>------- --- ------ ----- --- ---- ------- -- ---- --- --<br>------- ------",148040.0750000117,148039.5300000091,147818.438,147832.9400000075,147835.052,148051.708,,21,"money,"
screen,html.Screen,2_1_1_1_22,2021-04-30T11:13:34.667Z,,,,,,,,,,,,,,,,,54,,,,,,,,,,,,,,328.9670000076003,,response,,,,100,,,,,,,Space,keypress(Space),,,,,,,,-- --- ---- --- ------ ----- ------- ---- -- --- ------- --<br>------- ---------- ------ -- ----- -- ----- -- ---- ------<br>the ----- --- --- ------ -------- ----- --- ------ ----- --<br>----- ----- ---------- --- --- ------ ------ ---- -- ------<br>------- --- ------ ----- --- ---- ------- -- ---- --- --<br>------- ------,148381.6200000001,148380.6750000076,148035.199,148040.22500000428,148051.708,148384.541,,22,the
screen,html.Screen,2_1_1_1_23,2021-04-30T11:13:34.888Z,,,,,,,,,,,,,,,,,54,,,,,,,,,,,,,,216.66900000799797,,response,,,,100,,,,,,,Space,keypress(Space),,,,,,,,-- --- ---- --- ------ ----- ------- ---- -- --- ------- --<br>------- ---------- ------ -- ----- -- ----- -- ---- ------<br>--- state --- --- ------ -------- ----- --- ------ ----- --<br>----- ----- ---------- --- --- ------ ------ ---- -- ------<br>------- --- ------ ----- --- ---- ------- -- ---- --- --<br>------- ------,148601.7400000128,148601.210000008,148367.873,148381.9000000076,148384.541,148617.948,,23,state
screen,html.Screen,2_1_1_1_24,2021-04-30T11:13:35.142Z,,,,,,,,,,,,,,,,,54,,,,,,,,,,,,,,237.5470000107016,,response,,,,100,,,,,,,Space,keypress(Space),,,,,,,,-- --- ---- --- ------ ----- ------- ---- -- --- ------- --<br>------- ---------- ------ -- ----- -- ----- -- ---- ------<br>--- ----- cut --- ------ -------- ----- --- ------ ----- --<br>----- ----- ---------- --- --- ------ ------ ---- -- ------<br>------- --- ------ ----- --- ---- ------- -- ---- --- --<br>------- ------,148856.495,148855.4950000107,148601.17,148601.88000000198,148617.948,148867.509,,24,cut
screen,html.Screen,2_1_1_1_25,2021-04-30T11:13:35.379Z,,,,,,,,,,,,,,,,,54,,,,,,,,,,,,,,225.06600000240724,,response,,,,100,,,,,,,Space,keypress(Space),,,,,,,,-- --- ---- --- ------ ----- ------- ---- -- --- ------- --<br>------- ---------- ------ -- ----- -- ----- -- ---- ------<br>--- ----- --- the ------ -------- ----- --- ------ ----- --<br>----- ----- ---------- --- --- ------ ------ ---- -- ------<br>------- --- ------ ----- --- ---- ------- -- ---- --- --<br>------- ------,149093.59000000404,149092.5750000024,148850.731,148856.77000001306,148867.509,149100.431,,25,the
screen,html.Screen,2_1_1_1_26,2021-04-30T11:13:35.638Z,,,,,,,,,,,,,,,,,54,,,,,,,,,,,,,,250.50900000389083,,response,,,,100,,,,,,,Space,keypress(Space),,,,,,,,-- --- ---- --- ------ ----- ------- ---- -- --- ------- --<br>------- ---------- ------ -- ----- -- ----- -- ---- ------<br>--- ----- --- --- bonds' -------- ----- --- ------ ----- --<br>----- ----- ---------- --- --- ------ ------ ---- -- ------<br>------- --- ------ ----- --- ---- ------- -- ---- --- --<br>------- ------,149352.0150000113,149350.9400000039,149084.132,149093.86000000814,149100.431,149366.911,,26,bonds'
screen,html.Screen,2_1_1_1_27,2021-04-30T11:13:35.892Z,,,,,,,,,,,,,,,,,54,,,,,,,,,,,,,,238.12400000050548,,response,,,,100,,,,,,,Space,keypress(Space),,,,,,,,-- --- ---- --- ------ ----- ------- ---- -- --- ------- --<br>------- ---------- ------ -- ----- -- ----- -- ---- ------<br>--- ----- --- --- ------ interest ----- --- ------ ----- --<br>----- ----- ---------- --- --- ------ ------ ---- -- ------<br>------- --- ------ ----- --- ---- ------- -- ---- --- --<br>------- ------,149605.8350000094,149605.0350000005,149350.191,149352.31000000203,149366.911,149616.795,,27,interest
screen,html.Screen,2_1_1_1_28,2021-04-30T11:13:36.137Z,,,,,,,,,,,,,,,,,54,,,,,,,,,,,,,,232.90500000611064,,response,,,,100,,,,,,,Space,keypress(Space),,,,,,,,-- --- ---- --- ------ ----- ------- ---- -- --- ------- --<br>------- ---------- ------ -- ----- -- ----- -- ---- ------<br>--- ----- --- --- ------ -------- rate. --- ------ ----- --<br>----- ----- ---------- --- --- ------ ------ ---- -- ------<br>------- --- ------ ----- --- ---- ------- -- ---- --- --<br>------- ------,149850.9400000039,149849.70000000612,149600.183,149606.08500000671,149616.795,149866.59,,28,rate.
screen,html.Screen,2_1_1_1_29,2021-04-30T11:13:36.410Z,,,,,,,,,,,,,,,,,54,,,,,,,,,,,,,,256.46000000924687,,response,,,,100,,,,,,,Space,keypress(Space),,,,,,,,-- --- ---- --- ------ ----- ------- ---- -- --- ------- --<br>------- ---------- ------ -- ----- -- ----- -- ---- ------<br>--- ----- --- --- ------ -------- ----- The ------ ----- --<br>----- ----- ---------- --- --- ------ ------ ---- -- ------<br>------- --- ------ ----- --- ---- ------- -- ---- --- --<br>------- ------,150123.99500000174,150123.05000000924,149849.885,149851.35000001173,149866.59,150132.73,,29,The
screen,html.Screen,2_1_1_1_30,2021-04-30T11:13:36.688Z,,,,,,,,,,,,,,,,,54,,,,,,,,,,,,,,269.160000008269,,response,,,,100,,,,,,,Space,keypress(Space),,,,,,,,-- --- ---- --- ------ ----- ------- ---- -- --- ------- --<br>------- ---------- ------ -- ----- -- ----- -- ---- ------<br>--- ----- --- --- ------ -------- ----- --- market ----- --<br>----- ----- ---------- --- --- ------ ------ ---- -- ------<br>------- --- ------ ----- --- ---- ------- -- ---- --- --<br>------- ------,150402.32500000275,150401.89000000828,150116.263,150124.24500001362,150132.73,150416.019,,30,market
screen,html.Screen,2_1_1_1_31,2021-04-30T11:13:37.007Z,,,,,,,,,,,,,,,,,54,,,,,,,,,,,,,,304.7210000042978,,response,,,,100,,,,,,,Space,keypress(Space),,,,,,,,-- --- ---- --- ------ ----- ------- ---- -- --- ------- --<br>------- ---------- ------ -- ----- -- ----- -- ---- ------<br>--- ----- --- --- ------ -------- ----- --- ------ value --<br>----- ----- ---------- --- --- ------ ------ ---- -- ------<br>------- --- ------ ----- --- ---- ------- -- ---- --- --<br>------- ------,150721.19500000554,150720.7400000043,150399.131,150402.4400000053,150416.019,150732.299,,31,value
screen,html.Screen,2_1_1_1_32,2021-04-30T11:13:37.312Z,,,,,,,,,,,,,,,,,54,,,,,,,,,,,,,,293.34600000153296,,response,,,,100,,,,,,,Space,keypress(Space),,,,,,,,-- --- ---- --- ------ ----- ------- ---- -- --- ------- --<br>------- ---------- ------ -- ----- -- ----- -- ---- ------<br>--- ----- --- --- ------ -------- ----- --- ------ ----- of<br>----- ----- ---------- --- --- ------ ------ ---- -- ------<br>------- --- ------ ----- --- ---- ------- -- ---- --- --<br>------- ------,151026.05500000936,151025.64500000153,150715.53,150721.28000001248,150732.299,151031.991,,32,of
screen,html.Screen,2_1_1_1_33,2021-04-30T11:13:37.571Z,,,,,,,,,,,,,,,,,54,,,,,,,,,,,,,,252.0490000131831,,response,,,,100,,,,,,,Space,keypress(Space),,,,,,,,-- --- ---- --- ------ ----- ------- ---- -- --- ------- --<br>------- ---------- ------ -- ----- -- ----- -- ---- ------<br>--- ----- --- --- ------ -------- ----- --- ------ ----- --<br>these ----- ---------- --- --- ------ ------ ---- -- ------<br>------- --- ------ ----- --- ---- ------- -- ---- --- --<br>------- ------,151285.03000001365,151284.0400000132,151015.56,151026.13500000734,151031.991,151298.37,,33,these
screen,html.Screen,2_1_1_1_34,2021-04-30T11:13:37.798Z,,,,,,,,,,,,,,,,,54,,,,,,,,,,,,,,213.73000000719912,,response,,,,100,,,,,,,Space,keypress(Space),,,,,,,,-- --- ---- --- ------ ----- ------- ---- -- --- ------- --<br>------- ---------- ------ -- ----- -- ----- -- ---- ------<br>--- ----- --- --- ------ -------- ----- --- ------ ----- --<br>----- bonds ---------- --- --- ------ ------ ---- -- ------<br>------- --- ------ ----- --- ---- ------- -- ---- --- --<br>------- ------,151512.53000000725,151512.1000000072,151281.859,151285.33500000776,151298.37,151514.682,,34,bonds
screen,html.Screen,2_1_1_1_35,2021-04-30T11:13:38.436Z,,,,,,,,,,,,,,,,,54,,,,,,,,,,,,,,634.4030000118364,,response,,,,100,,,,,,,Space,keypress(Space),,,,,,,,"-- --- ---- --- ------ ----- ------- ---- -- --- ------- --<br>------- ---------- ------ -- ----- -- ----- -- ---- ------<br>--- ----- --- --- ------ -------- ----- --- ------ ----- --<br>----- ----- plummeted, --- --- ------ ------ ---- -- ------<br>------- --- ------ ----- --- ---- ------- -- ---- --- --<br>------- ------",152150.26500000386,152149.08500001184,151498.286,151512.6050000108,151514.682,152164.271,,35,"plummeted,"
screen,html.Screen,2_1_1_1_36,2021-04-30T11:13:38.759Z,,,,,,,,,,,,,,,,,54,,,,,,,,,,,,,,307.9940000039642,,response,,,,100,,,,,,,Space,keypress(Space),,,,,,,,-- --- ---- --- ------ ----- ------- ---- -- --- ------- --<br>------- ---------- ------ -- ----- -- ----- -- ---- ------<br>--- ----- --- --- ------ -------- ----- --- ------ ----- --<br>----- ----- ---------- and --- ------ ------ ---- -- ------<br>------- --- ------ ----- --- ---- ------- -- ---- --- --<br>------- ------,152473.27000000223,152472.26500000397,152147.481,152150.6600000139,152164.271,152480.701,,36,and
screen,html.Screen,2_1_1_1_37,2021-04-30T11:13:39.032Z,,,,,,,,,,,,,,,,,54,,,,,,,,,,,,,,264.8740000081016,,response,,,,100,,,,,,,Space,keypress(Space),,,,,,,,-- --- ---- --- ------ ----- ------- ---- -- --- ------- --<br>------- ---------- ------ -- ----- -- ----- -- ---- ------<br>--- ----- --- --- ------ -------- ----- --- ------ ----- --<br>----- ----- ---------- --- the ------ ------ ---- -- ------<br>------- --- ------ ----- --- ---- ------- -- ---- --- --<br>------- ------,152746.58000000636,152745.5750000081,152464.04,152473.5500000097,152480.701,152763.549,,37,the
screen,html.Screen,2_1_1_1_38,2021-04-30T11:13:39.419Z,,,,,,,,,,,,,,,,,54,,,,,,,,,,,,,,369.3510000114329,,response,,,,100,,,,,,,Space,keypress(Space),,,,,,,,-- --- ---- --- ------ ----- ------- ---- -- --- ------- --<br>------- ---------- ------ -- ----- -- ----- -- ---- ------<br>--- ----- --- --- ------ -------- ----- --- ------ ----- --<br>----- ----- ---------- --- --- market ------ ---- -- ------<br>------- --- ------ ----- --- ---- ------- -- ---- --- --<br>------- ------,153133.48500001302,153132.90000001143,152746.889,152746.86000001384,152763.549,153146.466,,38,market
screen,html.Screen,2_1_1_1_39,2021-04-30T11:13:39.720Z,,,,,,,,,,,,,,,,,54,,,,,,,,,,,,,,287.52899999942747,,response,,,,100,,,,,,,Space,keypress(Space),,,,,,,,-- --- ---- --- ------ ----- ------- ---- -- --- ------- --<br>------- ---------- ------ -- ----- -- ----- -- ---- ------<br>--- ----- --- --- ------ -------- ----- --- ------ ----- --<br>----- ----- ---------- --- --- ------ became ---- -- ------<br>------- --- ------ ----- --- ---- ------- -- ---- --- --<br>------- ------,153434.60000000778,153433.9949999994,153130.082,153133.63000001118,153146.466,153446.467,,39,became
screen,html.Screen,2_1_1_1_40,2021-04-30T11:13:40.220Z,,,,,,,,,,,,,,,,,54,,,,,,,,,,,,,,486.94300001236843,,response,,,,100,,,,,,,Space,keypress(Space),,,,,,,,-- --- ---- --- ------ ----- ------- ---- -- --- ------- --<br>------- ---------- ------ -- ----- -- ----- -- ---- ------<br>--- ----- --- --- ------ -------- ----- --- ------ ----- --<br>----- ----- ---------- --- --- ------ ------ wary -- ------<br>------- --- ------ ----- --- ---- ------- -- ---- --- --<br>------- ------,153933.83500000346,153933.41000001237,153429.721,153434.7650000127,153446.467,153946.04,,40,wary
screen,html.Screen,2_1_1_1_41,2021-04-30T11:13:41.128Z,,,,,,,,,,,,,,,,,54,,,,,,,,,,,,,,895.1200000108511,,response,,,,100,,,,,,,Space,keypress(Space),,,,,,,,-- --- ---- --- ------ ----- ------- ---- -- --- ------- --<br>------- ---------- ------ -- ----- -- ----- -- ---- ------<br>--- ----- --- --- ------ -------- ----- --- ------ ----- --<br>----- ----- ---------- --- --- ------ ------ ---- of ------<br>------- --- ------ ----- --- ---- ------- -- ---- --- --<br>------- ------,154842.0299999998,154841.16000001086,153929.124,153933.9200000104,153946.04,154844.782,,41,of
screen,html.Screen,2_1_1_1_42,2021-04-30T11:13:41.468Z,,,,,,,,,,,,,,,,,54,,,,,,,,,,,,,,336.8130000018282,,response,,,,100,,,,,,,Space,keypress(Space),,,,,,,,-- --- ---- --- ------ ----- ------- ---- -- --- ------- --<br>------- ---------- ------ -- ----- -- ----- -- ---- ------<br>--- ----- --- --- ------ -------- ----- --- ------ ----- --<br>----- ----- ---------- --- --- ------ ------ ---- -- French<br>------- --- ------ ----- --- ---- ------- -- ---- --- --<br>------- ------,155182.62000000686,155181.59500000183,154828.481,154842.27000000828,154844.782,155194.866,,42,French
screen,html.Screen,2_1_1_1_43,2021-04-30T11:13:42.255Z,,,,,,,,,,,,,,,,,54,,,,,,,,,,,,,,773.5690000024915,,response,,,,100,,,,,,,Space,keypress(Space),,,,,,,,-- --- ---- --- ------ ----- ------- ---- -- --- ------- --<br>------- ---------- ------ -- ----- -- ----- -- ---- ------<br>--- ----- --- --- ------ -------- ----- --- ------ ----- --<br>----- ----- ---------- --- --- ------ ------ ---- -- ------<br>credit. --- ------ ----- --- ---- ------- -- ---- --- --<br>------- ------,155969.45000000414,155968.4350000025,155178.082,155182.92500000098,155194.866,155977.151,,43,credit.
screen,html.Screen,2_1_1_1_44,2021-04-30T11:13:42.757Z,,,,,,,,,,,,,,,,,54,,,,,,,,,,,,,,493.20900000660913,,response,,,,100,,,,,,,Space,keypress(Space),,,,,,,,-- --- ---- --- ------ ----- ------- ---- -- --- ------- --<br>------- ---------- ------ -- ----- -- ----- -- ---- ------<br>--- ----- --- --- ------ -------- ----- --- ------ ----- --<br>----- ----- ---------- --- --- ------ ------ ---- -- ------<br>------- The ------ ----- --- ---- ------- -- ---- --- --<br>------- ------,156470.97500000382,156470.36000000662,155960.444,155969.72000000824,155977.151,156476.586,,44,The
screen,html.Screen,2_1_1_1_45,2021-04-30T11:13:43.471Z,,,,,,,,,,,,,,,,,54,,,,,,,,,,,,,,708.4990000046091,,response,,,,100,,,,,,,Space,keypress(Space),,,,,,,,-- --- ---- --- ------ ----- ------- ---- -- --- ------- --<br>------- ---------- ------ -- ----- -- ----- -- ---- ------<br>--- ----- --- --- ------ -------- ----- --- ------ ----- --<br>----- ----- ---------- --- --- ------ ------ ---- -- ------<br>------- --- French ----- --- ---- ------- -- ---- --- --<br>------- ------,157185.45500001346,157185.08500000462,156459.892,156471.13000000536,156476.586,157192.557,,45,French
screen,html.Screen,2_1_1_1_46,2021-04-30T11:13:44.149Z,,,,,,,,,,,,,,,,,54,,,,,,,,,,,,,,669.5430000130145,,response,,,,100,,,,,,,Space,keypress(Space),,,,,,,,-- --- ---- --- ------ ----- ------- ---- -- --- ------- --<br>------- ---------- ------ -- ----- -- ----- -- ---- ------<br>--- ----- --- --- ------ -------- ----- --- ------ ----- --<br>----- ----- ---------- --- --- ------ ------ ---- -- ------<br>------- --- ------ state --- ---- ------- -- ---- --- --<br>------- ------,157863.1100000057,157862.10000001302,157176.132,157185.54000000586,157192.557,157875.467,,46,state
screen,html.Screen,2_1_1_1_47,2021-04-30T11:13:45.026Z,,,,,,,,,,,,,,,,,54,,,,,,,,,,,,,,863.3430000098306,,response,,,,100,,,,,,,Space,keypress(Space),,,,,,,,-- --- ---- --- ------ ----- ------- ---- -- --- ------- --<br>------- ---------- ------ -- ----- -- ----- -- ---- ------<br>--- ----- --- --- ------ -------- ----- --- ------ ----- --<br>----- ----- ---------- --- --- ------ ------ ---- -- ------<br>------- --- ------ ----- was ---- ------- -- ---- --- --<br>------- ------,158739.66500000097,158738.81000000983,157858.723,157863.4100000054,157875.467,158768.347,,47,was
screen,html.Screen,2_1_1_1_48,2021-04-30T11:13:45.402Z,,,,,,,,,,,,,,,,,54,,,,,,,,,,,,,,347.17300000664545,,response,,,,100,,,,,,,Space,keypress(Space),,,,,,,,-- --- ---- --- ------ ----- ------- ---- -- --- ------- --<br>------- ---------- ------ -- ----- -- ----- -- ---- ------<br>--- ----- --- --- ------ -------- ----- --- ------ ----- --<br>----- ----- ---------- --- --- ------ ------ ---- -- ------<br>------- --- ------ ----- --- left ------- -- ---- --- --<br>------- ------,159116.02500001027,159115.52000000665,158724.682,158739.90500000946,158768.347,159123.978,,48,left
screen,html.Screen,2_1_1_1_49,2021-04-30T11:13:45.859Z,,,,,,,,,,,,,,,,,54,,,,,,,,,,,,,,448.0220000001136,,response,,,,100,,,,,,,Space,keypress(Space),,,,,,,,-- --- ---- --- ------ ----- ------- ---- -- --- ------- --<br>------- ---------- ------ -- ----- -- ----- -- ---- ------<br>--- ----- --- --- ------ -------- ----- --- ------ ----- --<br>----- ----- ---------- --- --- ------ ------ ---- -- ------<br>------- --- ------ ----- --- ---- without -- ---- --- --<br>------- ------,159572.8650000092,159572.00000000012,159107.359,159116.10000001383,159123.978,159607.037,,49,without
screen,html.Screen,2_1_1_1_50,2021-04-30T11:13:46.219Z,,,,,,,,,,,,,,,,,54,,,,,,,,,,,,,,325.61800001142547,,response,,,,100,,,,,,,Space,keypress(Space),,,,,,,,-- --- ---- --- ------ ----- ------- ---- -- --- ------- --<br>------- ---------- ------ -- ----- -- ----- -- ---- ------<br>--- ----- --- --- ------ -------- ----- --- ------ ----- --<br>----- ----- ---------- --- --- ------ ------ ---- -- ------<br>------- --- ------ ----- --- ---- ------- an ---- --- --<br>------- ------,159933.14000000828,159932.65500001144,159590.491,159573.1100000121,159607.037,159939.857,,50,an
screen,html.Screen,2_1_1_1_51,2021-04-30T11:13:46.790Z,,,,,,,,,,,,,,,,,54,,,,,,,,,,,,,,562.8929999996617,,response,,,,100,,,,,,,Space,keypress(Space),,,,,,,,-- --- ---- --- ------ ----- ------- ---- -- --- ------- --<br>------- ---------- ------ -- ----- -- ----- -- ---- ------<br>--- ----- --- --- ------ -------- ----- --- ------ ----- --<br>----- ----- ---------- --- --- ------ ------ ---- -- ------<br>------- --- ------ ----- --- ---- ------- -- easy --- --<br>------- ------,160503.69000001228,160502.74999999965,159923.498,159933.27000000863,159939.857,160505.958,,51,easy
screen,html.Screen,2_1_1_1_52,2021-04-30T11:13:47.072Z,,,,,,,,,,,,,,,,,54,,,,,,,,,,,,,,278.68200001257355,,response,,,,100,,,,,,,Space,keypress(Space),,,,,,,,-- --- ---- --- ------ ----- ------- ---- -- --- ------- --<br>------- ---------- ------ -- ----- -- ----- -- ---- ------<br>--- ----- --- --- ------ -------- ----- --- ------ ----- --<br>----- ----- ---------- --- --- ------ ------ ---- -- ------<br>------- --- ------ ----- --- ---- ------- -- ---- way --<br>------- ------,160785.65499999968,160784.6400000126,160489.504,160503.94500000402,160505.958,160788.966,,52,way
screen,html.Screen,2_1_1_1_53,2021-04-30T11:13:47.637Z,,,,,,,,,,,,,,,,,54,,,,,,,,,,,,,,561.8990000003541,,response,,,,100,,,,,,,Space,keypress(Space),,,,,,,,-- --- ---- --- ------ ----- ------- ---- -- --- ------- --<br>------- ---------- ------ -- ----- -- ----- -- ---- ------<br>--- ----- --- --- ------ -------- ----- --- ------ ----- --<br>----- ----- ---------- --- --- ------ ------ ---- -- ------<br>------- --- ------ ----- --- ---- ------- -- ---- --- of<br>------- ------,161351.2250000058,161350.86500000034,160772.641,160785.93000001274,160788.966,161355.034,,53,of
screen,html.Screen,2_1_1_1_54,2021-04-30T11:13:48.213Z,,,,,,,,,,,,,,,,,54,,,,,,,,,,,,,,571.141000000498,,response,,,,100,,,,,,,Space,keypress(Space),,,,,,,,-- --- ---- --- ------ ----- ------- ---- -- --- ------- --<br>------- ---------- ------ -- ----- -- ----- -- ---- ------<br>--- ----- --- --- ------ -------- ----- --- ------ ----- --<br>----- ----- ---------- --- --- ------ ------ ---- -- ------<br>------- --- ------ ----- --- ---- ------- -- ---- --- --<br>raising ------,161927.17000000994,161926.1750000005,161338.613,161351.30500000378,161355.034,161938.266,,54,raising
screen,html.Screen,2_1_1_1_55,2021-04-30T11:13:48.820Z,,,,,,,,,,,,,,,,,54,,,,,,,,,,,,,,595.4390000089188,,response,,,,100,,,,,,,Space,keypress(Space),,,,,,,,-- --- ---- --- ------ ----- ------- ---- -- --- ------- --<br>------- ---------- ------ -- ----- -- ----- -- ---- ------<br>--- ----- --- --- ------ -------- ----- --- ------ ----- --<br>----- ----- ---------- --- --- ------ ------ ---- -- ------<br>------- --- ------ ----- --- ---- ------- -- ---- --- --<br>------- money.,162534.62500000023,162533.70500000892,161921.438,161927.44500000845,161938.266,162537.282,,55,money.
Item 100,flow.Loop,2_1_1_1,2021-04-30T11:13:48.821Z,,,,,,,,,,,,,,,,,,,,,,,,,,,,,,,22507.426000008913,,completion,,,,,C,,,,,,,,,,,silence,,,,,162535.02500000468,162533.70500000892,140009.669,140010.2700000134,140026.279,162537.282,,,
Question 1,html.Screen,2_1_1_2,2021-04-30T11:13:53.175Z,,,,,,,,,,,,,,,,,,,,,,,,,,,,true,TRUE,,4350.44300000777,,response,,,,100,C,,,,,,TRUE,click #choice-1,,,,silence,,,,,166889.28000000305,166887.72500000778,162520.908,162535.25500000978,162537.282,166899.718,,,
Question 2,html.Screen,2_1_1_3,2021-04-30T11:13:56.592Z,,,,,,,,,,,,,,,,,,,,,,,,,,,,true,FALSE,,3404.7220000071684,,response,,,,100,C,,,,,,FALSE,click #choice-2,,,,silence,,,,,170305.87000001105,170304.44000000716,166883.302,166889.56500000495,166899.718,170313.047,,,
Item 100,flow.Sequence,2_1_1,2021-04-30T11:13:56.592Z,,,,,,,,,,,,,,,,,,,,,,,,,,,,,,,40285.12900000716,,completion,,,,,,,,,,,,,,,,,,,,,170306.29500000214,170304.44000000716,130002.542,130010.41500001156,130019.311,170313.047,,,
End of Practice,html.Page,2_1_2,2021-04-30T11:14:07.863Z,,,,,,,,,,,,,,,,,,,,,,,,,,,,,,,11264.003000007157,,form submission,,,,,,,,,,,,,,,,,,,,,181577.2050000087,181577.05000000715,170296.577,170306.51000000944,170313.047,181585.325,,,
Practice,flow.Sequence,2_1,2021-04-30T11:14:07.863Z,,,,,,,,,,,,,,,,,,,,,,,,,,,,,,,87739.05000000715,,completion,,,,,,,,,,,,,,,,,,,,,181577.32000001124,181577.05000000715,93821.48,93835.96500000567,93838,181585.325,,,
Trap_instruction,html.Page,2_2_0,2021-04-30T11:14:11.671Z,,,,,,,,,,,,,,,,,,,,,,,,,,,,,,,3799.300000006042,,form submission,,,,,,,,,,,,,,,,,,,,,185385.09000001068,185384.62500000605,181568.916,181577.40000000922,181585.325,185398.275,,,
trap_trial,html.Screen,2_2_1,2021-04-30T11:14:15.176Z,,,,,,,,,,,,,,,,,,,,,,,,,,,,true,1,,3490.855000010488,,response,,,,,,,,,,,1,click #choice-1,,,,,,,,,188890.61500001117,188889.13000001048,185381.578,185385.34500000242,185398.275,188894.847,,,
end of trap trial,html.Page,2_2_2,2021-04-30T11:14:16.485Z,,,,,,,,,,,,,,,,,,,,,,,,,,,,,,,1304.4380000096862,,form submission,,,,,,,,,,,,,,,,,,,,,190199.76000000315,190199.2850000097,188878.176,188890.93000000867,188894.847,190210.277,,,
Trap 1,flow.Sequence,2_2,2021-04-30T11:14:16.486Z,,,,,,,,,,,,,,,,,,,,,,,,,,,,,,,8613.960000009683,,completion,,,,,,,,,,,,,,,,,,,,,190200.16500000202,190199.2850000097,181568.916,181577.37500000803,181585.325,190210.277,,,
Standby,html.Page,2_3_0,2021-04-30T11:14:24.473Z,,,,,,,,,,,,,,,,,,,,,,,,,,,,,,,7992.100000000006,,timeout,,,,,,,,,,,,,,,,,,,,,198187.29000000167,198185.933,190193.781,190200.47999999952,190210.277,198202.377,,,
Holding screen,html.Screen,2_3_1_0_0,2021-04-30T11:14:31.466Z,,,,,,,,,,,,,,,,,,,,,,,,,,,,,,,6993.130999999994,,timeout,,,,,,,,,,,,,,,,,,,,,205180.1550000091,205179.044,198185.933,198187.71000001288,198202.377,205195.508,,,
screen,html.Screen,2_3_1_0_1_0,2021-04-30T11:14:38.460Z,,,,,,,,,,,,,,,,,51,,,,,,,,,,,,,,6993.375999999989,,timeout,,,,13,C,,,,,,,,,,,instrumental,,,,American -------- --- --- ---- --- --- ------ -- --------<br>---- --------- --- ------- ------------ ---------- ---------<br>--- ---------- ------- ---------- ------- -- -------- ----<br>---- --- ------ ----- ------ -- ---- --- ----- -- - -------<br>-------- -- --- --- -- ----- ----------- ----- -----------<br>---- --- ---------- --- ---- --- -- ----------,212174.07500000263,212171.989,205179.044,205180.5500000046,205195.508,212188.884,,0,American
screen,html.Screen,2_3_1_0_1_1,2021-04-30T11:14:39.824Z,,,,,,,,,,,,,,,,,51,,,,,,,,,,,,,,1348.4010000130802,,response,,,,13,C,,,,,,Space,keypress(Space),,,,instrumental,,,,-------- industry --- --- ---- --- --- ------ -- --------<br>---- --------- --- ------- ------------ ---------- ---------<br>--- ---------- ------- ---------- ------- -- -------- ----<br>---- --- ------ ----- ------ -- ---- --- ----- -- - -------<br>-------- -- --- --- -- ----- ----------- ----- -----------<br>---- --- ---------- --- ---- --- -- ----------,213538.6150000122,213537.28500001307,212171.989,212174.1550000006,212188.884,213554.278,,1,industry
screen,html.Screen,2_3_1_0_1_2,2021-04-30T11:14:40.527Z,,,,,,,,,,,,,,,,,51,,,,,,,,,,,,,,686.4720000117668,,response,,,,13,C,,,,,,Space,keypress(Space),,,,instrumental,,,,-------- -------- may --- ---- --- --- ------ -- --------<br>---- --------- --- ------- ------------ ---------- ---------<br>--- ---------- ------- ---------- ------- -- -------- ----<br>---- --- ------ ----- ------ -- ---- --- ----- -- - -------<br>-------- -- --- --- -- ----- ----------- ----- -----------<br>---- --- ---------- --- ---- --- -- ----------,214241.4800000115,214240.75000001176,213537.454,213538.92500000075,213554.278,214253.592,,2,may
screen,html.Screen,2_3_1_0_1_3,2021-04-30T11:14:41.204Z,,,,,,,,,,,,,,,,,51,,,,,,,,,,,,,,663.6580000131507,,response,,,,13,C,,,,,,Space,keypress(Space),,,,instrumental,,,,-------- -------- --- not ---- --- --- ------ -- --------<br>---- --------- --- ------- ------------ ---------- ---------<br>--- ---------- ------- ---------- ------- -- -------- ----<br>---- --- ------ ----- ------ -- ---- --- ----- -- - -------<br>-------- -- --- --- -- ----- ----------- ----- -----------<br>---- --- ---------- --- ---- --- -- ----------,214918.3400000038,214917.25000001315,214236.792,214241.66500000865,214253.592,214952.547,,3,not
screen,html.Screen,2_3_1_0_1_4,2021-04-30T11:14:41.504Z,,,,,,,,,,,,,,,,,51,,,,,,,,,,,,,,265.28300000869785,,response,,,,13,C,,,,,,Space,keypress(Space),,,,instrumental,,,,-------- -------- --- --- know --- --- ------ -- --------<br>---- --------- --- ------- ------------ ---------- ---------<br>--- ---------- ------- ---------- ------- -- -------- ----<br>---- --- ------ ----- ------ -- ---- --- ----- -- - -------<br>-------- -- --- --- -- ----- ----------- ----- -----------<br>---- --- ---------- --- ---- --- -- ----------,215218.81500000018,215217.8300000087,214935.847,214918.6200000113,214952.547,215235.716,,4,know
screen,html.Screen,2_3_1_0_1_5,2021-04-30T11:14:41.845Z,,,,,,,,,,,,,,,,,51,,,,,,,,,,,,,,322.483999999502,,response,,,,13,C,,,,,,Space,keypress(Space),,,,instrumental,,,,"-------- -------- --- --- ---- it, --- ------ -- --------<br>---- --------- --- ------- ------------ ---------- ---------<br>--- ---------- ------- ---------- ------- -- -------- ----<br>---- --- ------ ----- ------ -- ---- --- ----- -- - -------<br>-------- -- --- --- -- ----- ----------- ----- -----------<br>---- --- ---------- --- ---- --- -- ----------",215559.17500000214,215558.1999999995,215218.906,215219.09500000766,215235.716,215568.728,,5,"it,"
screen,html.Screen,2_3_1_0_1_6,2021-04-30T11:14:42.205Z,,,,,,,,,,,,,,,,,51,,,,,,,,,,,,,,349.94700000807643,,response,,,,13,C,,,,,,Space,keypress(Space),,,,instrumental,,,,-------- -------- --- --- ---- --- but ------ -- --------<br>---- --------- --- ------- ------------ ---------- ---------<br>--- ---------- ------- ---------- ------- -- -------- ----<br>---- --- ------ ----- ------ -- ---- --- ----- -- - -------<br>-------- -- --- --- -- ----- ----------- ----- -----------<br>---- --- ---------- --- ---- --- -- ----------,215919.36500000884,215918.67500000808,215552.23,215559.45000000065,215568.728,215935.031,,6,but
screen,html.Screen,2_3_1_0_1_7,2021-04-30T11:14:42.573Z,,,,,,,,,,,,,,,,,51,,,,,,,,,,,,,,351.5340000021679,,response,,,,13,C,,,,,,Space,keypress(Space),,,,instrumental,,,,-------- -------- --- --- ---- --- --- debate -- --------<br>---- --------- --- ------- ------------ ---------- ---------<br>--- ---------- ------- ---------- ------- -- -------- ----<br>---- --- ------ ----- ------ -- ---- --- ----- -- - -------<br>-------- -- --- --- -- ----- ----------- ----- -----------<br>---- --- ---------- --- ---- --- -- ----------,216287.65000001295,216286.56500000216,215918.379,215919.4400000124,215935.031,216301.314,,7,debate
screen,html.Screen,2_3_1_0_1_8,2021-04-30T11:14:42.947Z,,,,,,,,,,,,,,,,,51,,,,,,,,,,,,,,359.0910000023432,,response,,,,13,C,,,,,,Space,keypress(Space),,,,instrumental,,,,-------- -------- --- --- ---- --- --- ------ in --------<br>---- --------- --- ------- ------------ ---------- ---------<br>--- ---------- ------- ---------- ------- -- -------- ----<br>---- --- ------ ----- ------ -- ---- --- ----- -- - -------<br>-------- -- --- --- -- ----- ----------- ----- -----------<br>---- --- ---------- --- ---- --- -- ----------,216661.1350000021,216660.40500000236,216284.78,216288.0550000118,216301.314,216667.575,,8,in
screen,html.Screen,2_3_1_0_1_9,2021-04-30T11:14:43.277Z,,,,,,,,,,,,,,,,,51,,,,,,,,,,,,,,322.4550000008312,,response,,,,13,C,,,,,,Space,keypress(Space),,,,instrumental,,,,-------- -------- --- --- ---- --- --- ------ -- Congress<br>---- --------- --- ------- ------------ ---------- ---------<br>--- ---------- ------- ---------- ------- -- -------- ----<br>---- --- ------ ----- ------ -- ---- --- ----- -- - -------<br>-------- -- --- --- -- ----- ----------- ----- -----------<br>---- --- ---------- --- ---- --- -- ----------,216991.08000000706,216990.03000000084,216650.888,216661.3350000116,216667.575,217000.887,,9,Congress
screen,html.Screen,2_3_1_0_1_10,2021-04-30T11:14:43.622Z,,,,,,,,,,,,,,,,,51,,,,,,,,,,,,,,334.8229999993928,,response,,,,13,C,,,,,,Space,keypress(Space),,,,instrumental,,,,-------- -------- --- --- ---- --- --- ------ -- --------<br>over --------- --- ------- ------------ ---------- ---------<br>--- ---------- ------- ---------- ------- -- -------- ----<br>---- --- ------ ----- ------ -- ---- --- ----- -- - -------<br>-------- -- --- --- -- ----- ----------- ----- -----------<br>---- --- ---------- --- ---- --- -- ----------,217336.22000001196,217335.70999999938,216984.194,216991.36500000895,217000.887,217350.333,,10,over
screen,html.Screen,2_3_1_0_1_11,2021-04-30T11:14:43.979Z,,,,,,,,,,,,,,,,,51,,,,,,,,,,,,,,342.0520000020915,,response,,,,13,C,,,,,,Space,keypress(Space),,,,instrumental,,,,-------- -------- --- --- ---- --- --- ------ -- --------<br>---- reforming --- ------- ------------ ---------- ---------<br>--- ---------- ------- ---------- ------- -- -------- ----<br>---- --- ------ ----- ------ -- ---- --- ----- -- - -------<br>-------- -- --- --- -- ----- ----------- ----- -----------<br>---- --- ---------- --- ---- --- -- ----------,217693.39500000933,217692.3850000021,217333.632,217336.33499999996,217350.333,217699.94,,11,reforming
screen,html.Screen,2_3_1_0_1_12,2021-04-30T11:14:44.291Z,,,,,,,,,,,,,,,,,51,,,,,,,,,,,,,,304.6050000034156,,response,,,,13,C,,,,,,Space,keypress(Space),,,,instrumental,,,,-------- -------- --- --- ---- --- --- ------ -- --------<br>---- --------- the ------- ------------ ---------- ---------<br>--- ---------- ------- ---------- ------- -- -------- ----<br>---- --- ------ ----- ------ -- ---- --- ----- -- - -------<br>-------- -- --- --- -- ----- ----------- ----- -----------<br>---- --- ---------- --- ---- --- -- ----------,218005.7550000056,218004.54500000342,217683.327,217693.68000001123,217699.94,218016.307,,12,the
screen,html.Screen,2_3_1_0_1_13,2021-04-30T11:14:44.661Z,,,,,,,,,,,,,,,,,51,,,,,,,,,,,,,,358.14800001194817,,response,,,,13,C,,,,,,Space,keypress(Space),,,,instrumental,,,,-------- -------- --- --- ---- --- --- ------ -- --------<br>---- --------- --- federal ------------ ---------- ---------<br>--- ---------- ------- ---------- ------- -- -------- ----<br>---- --- ------ ----- ------ -- ---- --- ----- -- - -------<br>-------- -- --- --- -- ----- ----------- ----- -----------<br>---- --- ---------- --- ---- --- -- ----------,218375.5000000092,218374.45500001195,217999.898,218006.16000000446,218016.307,218382.59,,13,federal
screen,html.Screen,2_3_1_0_1_14,2021-04-30T11:14:44.974Z,,,,,,,,,,,,,,,,,51,,,,,,,,,,,,,,305.01000000475324,,response,,,,13,C,,,,,,Space,keypress(Space),,,,instrumental,,,,-------- -------- --- --- ---- --- --- ------ -- --------<br>---- --------- --- ------- government's ---------- ---------<br>--- ---------- ------- ---------- ------- -- -------- ----<br>---- --- ------ ----- ------ -- ---- --- ----- -- - -------<br>-------- -- --- --- -- ----- ----------- ----- -----------<br>---- --- ---------- --- ---- --- -- ----------,218688.5900000052,218687.60000000475,218365.844,218375.8150000067,218382.59,218699.028,,14,government's
screen,html.Screen,2_3_1_0_1_15,2021-04-30T11:14:45.313Z,,,,,,,,,,,,,,,,,51,,,,,,,,,,,,,,328.1370000067982,,response,,,,13,C,,,,,,Space,keypress(Space),,,,instrumental,,,,-------- -------- --- --- ---- --- --- ------ -- --------<br>---- --------- --- ------- ------------ regulatory ---------<br>--- ---------- ------- ---------- ------- -- -------- ----<br>---- --- ------ ----- ------ -- ---- --- ----- -- - -------<br>-------- -- --- --- -- ----- ----------- ----- -----------<br>---- --- ---------- --- ---- --- -- ----------,219027.6550000126,219027.1650000068,218682.274,218688.88000000152,218699.028,219032.062,,15,regulatory
screen,html.Screen,2_3_1_0_1_16,2021-04-30T11:14:45.657Z,,,,,,,,,,,,,,,,,51,,,,,,,,,,,,,,339.1530000064813,,response,,,,13,C,,,,,,Space,keypress(Space),,,,instrumental,,,,-------- -------- --- --- ---- --- --- ------ -- --------<br>---- --------- --- ------- ------------ ---------- apparatus<br>--- ---------- ------- ---------- ------- -- -------- ----<br>---- --- ------ ----- ------ -- ---- --- ----- -- - -------<br>-------- -- --- --- -- ----- ----------- ----- -----------<br>---- --- ---------- --- ---- --- -- ----------,219371.65000000095,219371.2150000065,219015.327,219027.76000001177,219032.062,219381.788,,16,apparatus
screen,html.Screen,2_3_1_0_1_17,2021-04-30T11:14:45.976Z,,,,,,,,,,,,,,,,,51,,,,,,,,,,,,,,307.0920000015176,,response,,,,13,C,,,,,,Space,keypress(Space),,,,instrumental,,,,-------- -------- --- --- ---- --- --- ------ -- --------<br>---- --------- --- ------- ------------ ---------- ---------<br>may ---------- ------- ---------- ------- -- -------- ----<br>---- --- ------ ----- ------ -- ---- --- ----- -- - -------<br>-------- -- --- --- -- ----- ----------- ----- -----------<br>---- --- ---------- --- ---- --- -- ----------,219690.07000001147,219688.88000000152,219365.159,219371.7350000079,219381.788,219698.007,,17,may
screen,html.Screen,2_3_1_0_1_18,2021-04-30T11:14:46.280Z,,,,,,,,,,,,,,,,,51,,,,,,,,,,,,,,295.948000012635,,response,,,,13,C,,,,,,Space,keypress(Space),,,,instrumental,,,,-------- -------- --- --- ---- --- --- ------ -- --------<br>---- --------- --- ------- ------------ ---------- ---------<br>--- profoundly ------- ---------- ------- -- -------- ----<br>---- --- ------ ----- ------ -- ---- --- ----- -- - -------<br>-------- -- --- --- -- ----- ----------- ----- -----------<br>---- --- ---------- --- ---- --- -- ----------,219994.4250000117,219993.95500001265,219681.35,219690.43500001135,219698.007,219997.768,,18,profoundly
screen,html.Screen,2_3_1_0_1_19,2021-04-30T11:14:46.631Z,,,,,,,,,,,,,,,,,51,,,,,,,,,,,,,,347.42200000726734,,response,,,,13,C,,,,,,Space,keypress(Space),,,,instrumental,,,,-------- -------- --- --- ---- --- --- ------ -- --------<br>---- --------- --- ------- ------------ ---------- ---------<br>--- ---------- improve ---------- ------- -- -------- ----<br>---- --- ------ ----- ------ -- ---- --- ----- -- - -------<br>-------- -- --- --- -- ----- ----------- ----- -----------<br>---- --- ---------- --- ---- --- -- ----------,220345.76000001107,220345.19000000728,219981.289,219994.52000000747,219997.768,220347.237,,19,improve
screen,html.Screen,2_3_1_0_1_20,2021-04-30T11:14:46.994Z,,,,,,,,,,,,,,,,,51,,,,,,,,,,,,,,360.0130000067584,,response,,,,13,C,,,,,,Space,keypress(Space),,,,instrumental,,,,-------- -------- --- --- ---- --- --- ------ -- --------<br>---- --------- --- ------- ------------ ---------- ---------<br>--- ---------- ------- companies' ------- -- -------- ----<br>---- --- ------ ----- ------ -- ---- --- ----- -- - -------<br>-------- -- --- --- -- ----- ----------- ----- -----------<br>---- --- ---------- --- ---- --- -- ----------,220708.39500000875,220707.25000000675,220330.831,220345.85000001243,220347.237,220713.633,,20,companies'
screen,html.Screen,2_3_1_0_1_21,2021-04-30T11:14:47.345Z,,,,,,,,,,,,,,,,,51,,,,,,,,,,,,,,344.21200000299723,,response,,,,13,C,,,,,,Space,keypress(Space),,,,instrumental,,,,-------- -------- --- --- ---- --- --- ------ -- --------<br>---- --------- --- ------- ------------ ---------- ---------<br>--- ---------- ------- ---------- ability -- -------- ----<br>---- --- ------ ----- ------ -- ---- --- ----- -- - -------<br>-------- -- --- --- -- ----- ----------- ----- -----------<br>---- --- ---------- --- ---- --- -- ----------,221058.85000000126,221057.845000003,220696.942,220708.8700000022,220713.633,221063.282,,21,ability
screen,html.Screen,2_3_1_0_1_22,2021-04-30T11:14:47.662Z,,,,,,,,,,,,,,,,,51,,,,,,,,,,,,,,312.3080000105547,,response,,,,13,C,,,,,,Space,keypress(Space),,,,instrumental,,,,-------- -------- --- --- ---- --- --- ------ -- --------<br>---- --------- --- ------- ------------ ---------- ---------<br>--- ---------- ------- ---------- ------- to -------- ----<br>---- --- ------ ----- ------ -- ---- --- ----- -- - -------<br>-------- -- --- --- -- ----- ----------- ----- -----------<br>---- --- ---------- --- ---- --- -- ----------,221375.97500000265,221375.59000001056,221046.795,221059.14000001212,221063.282,221379.64,,22,to
screen,html.Screen,2_3_1_0_1_23,2021-04-30T11:14:47.988Z,,,,,,,,,,,,,,,,,51,,,,,,,,,,,,,,322.0500000016764,,response,,,,13,C,,,,,,Space,keypress(Space),,,,instrumental,,,,-------- -------- --- --- ---- --- --- ------ -- --------<br>---- --------- --- ------- ------------ ---------- ---------<br>--- ---------- ------- ---------- ------- -- survive. ----<br>---- --- ------ ----- ------ -- ---- --- ----- -- - -------<br>-------- -- --- --- -- ----- ----------- ----- -----------<br>---- --- ---------- --- ---- --- -- ----------,221702.2250000009,221701.6900000017,221363.006,221376.070000013,221379.64,221712.704,,23,survive.
screen,html.Screen,2_3_1_0_1_24,2021-04-30T11:14:48.383Z,,,,,,,,,,,,,,,,,51,,,,,,,,,,,,,,384.01600000137114,,response,,,,13,C,,,,,,Space,keypress(Space),,,,instrumental,,,,-------- -------- --- --- ---- --- --- ------ -- --------<br>---- --------- --- ------- ------------ ---------- ---------<br>--- ---------- ------- ---------- ------- -- -------- This<br>---- --- ------ ----- ------ -- ---- --- ----- -- - -------<br>-------- -- --- --- -- ----- ----------- ----- -----------<br>---- --- ---------- --- ---- --- -- ----------,222097.67000000284,222096.72000000137,221696.008,221702.35500000126,221712.704,222112.609,,24,This
screen,html.Screen,2_3_1_0_1_25,2021-04-30T11:14:48.724Z,,,,,,,,,,,,,,,,,51,,,,,,,,,,,,,,325.64600000093924,,response,,,,13,C,,,,,,Space,keypress(Space),,,,instrumental,,,,-------- -------- --- --- ---- --- --- ------ -- --------<br>---- --------- --- ------- ------------ ---------- ---------<br>--- ---------- ------- ---------- ------- -- -------- ----<br>week --- ------ ----- ------ -- ---- --- ----- -- - -------<br>-------- -- --- --- -- ----- ----------- ----- -----------<br>---- --- ---------- --- ---- --- -- ----------,222438.65500000538,222438.25500000094,222095.579,222097.9500000103,222112.609,222445.301,,25,week
screen,html.Screen,2_3_1_0_1_26,2021-04-30T11:14:49.097Z,,,,,,,,,,,,,,,,,51,,,,,,,,,,,,,,364.66400000764406,,response,,,,13,C,,,,,,Space,keypress(Space),,,,instrumental,,,,-------- -------- --- --- ---- --- --- ------ -- --------<br>---- --------- --- ------- ------------ ---------- ---------<br>--- ---------- ------- ---------- ------- -- -------- ----<br>---- the ------ ----- ------ -- ---- --- ----- -- - -------<br>-------- -- --- --- -- ----- ----------- ----- -----------<br>---- --- ---------- --- ---- --- -- ----------,222810.9400000103,222809.96500000765,222428.82,222438.75500001013,222445.301,222828.573,,26,the
screen,html.Screen,2_3_1_0_1_27,2021-04-30T11:14:49.434Z,,,,,,,,,,,,,,,,,51,,,,,,,,,,,,,,318.8720000096073,,response,,,,13,C,,,,,,Space,keypress(Space),,,,instrumental,,,,-------- -------- --- --- ---- --- --- ------ -- --------<br>---- --------- --- ------- ------------ ---------- ---------<br>--- ---------- ------- ---------- ------- -- -------- ----<br>---- --- Senate ----- ------ -- ---- --- ----- -- - -------<br>-------- -- --- --- -- ----- ----------- ----- -----------<br>---- --- ---------- --- ---- --- -- ----------,223147.94000000984,223147.4450000096,222811.83,222811.22000000323,222828.573,223161.289,,27,Senate
screen,html.Screen,2_3_1_0_1_28,2021-04-30T11:14:49.742Z,,,,,,,,,,,,,,,,,51,,,,,,,,,,,,,,293.6460000015795,,response,,,,13,C,,,,,,Space,keypress(Space),,,,instrumental,,,,-------- -------- --- --- ---- --- --- ------ -- --------<br>---- --------- --- ------- ------------ ---------- ---------<br>--- ---------- ------- ---------- ------- -- -------- ----<br>---- --- ------ seems ------ -- ---- --- ----- -- - -------<br>-------- -- --- --- -- ----- ----------- ----- -----------<br>---- --- ---------- --- ---- --- -- ----------,223456.06000001135,223454.93500000157,223144.906,223148.05000000342,223161.289,223460.907,,28,seems
screen,html.Screen,2_3_1_0_1_29,2021-04-30T11:14:50.121Z,,,,,,,,,,,,,,,,,51,,,,,,,,,,,,,,372.83800001081545,,response,,,,13,C,,,,,,Space,keypress(Space),,,,instrumental,,,,-------- -------- --- --- ---- --- --- ------ -- --------<br>---- --------- --- ------- ------------ ---------- ---------<br>--- ---------- ------- ---------- ------- -- -------- ----<br>---- --- ------ ----- poised -- ---- --- ----- -- - -------<br>-------- -- --- --- -- ----- ----------- ----- -----------<br>---- --- ---------- --- ---- --- -- ----------,223835.0400000054,223833.74500001082,223444.532,223456.34000000427,223460.907,223843.896,,29,poised
screen,html.Screen,2_3_1_0_1_30,2021-04-30T11:14:50.452Z,,,,,,,,,,,,,,,,,51,,,,,,,,,,,,,,322.37900001049275,,response,,,,13,C,,,,,,Space,keypress(Space),,,,instrumental,,,,-------- -------- --- --- ---- --- --- ------ -- --------<br>---- --------- --- ------- ------------ ---------- ---------<br>--- ---------- ------- ---------- ------- -- -------- ----<br>---- --- ------ ----- ------ to ---- --- ----- -- - -------<br>-------- -- --- --- -- ----- ----------- ----- -----------<br>---- --- ---------- --- ---- --- -- ----------,224166.66500001156,224166.2750000105,223827.237,223835.43500000087,223843.896,224177.06,,30,to
screen,html.Screen,2_3_1_0_1_31,2021-04-30T11:14:50.787Z,,,,,,,,,,,,,,,,,51,,,,,,,,,,,,,,324.0300000052084,,response,,,,13,C,,,,,,Space,keypress(Space),,,,instrumental,,,,-------- -------- --- --- ---- --- --- ------ -- --------<br>---- --------- --- ------- ------------ ---------- ---------<br>--- ---------- ------- ---------- ------- -- -------- ----<br>---- --- ------ ----- ------ -- join --- ----- -- - -------<br>-------- -- --- --- -- ----- ----------- ----- -----------<br>---- --- ---------- --- ---- --- -- ----------,224501.51500001084,224501.0900000052,224160.211,224166.73000001174,224177.06,224509.849,,31,join
screen,html.Screen,2_3_1_0_1_32,2021-04-30T11:14:51.148Z,,,,,,,,,,,,,,,,,51,,,,,,,,,,,,,,351.8660000063828,,response,,,,13,C,,,,,,Space,keypress(Space),,,,instrumental,,,,-------- -------- --- --- ---- --- --- ------ -- --------<br>---- --------- --- ------- ------------ ---------- ---------<br>--- ---------- ------- ---------- ------- -- -------- ----<br>---- --- ------ ----- ------ -- ---- the ----- -- - -------<br>-------- -- --- --- -- ----- ----------- ----- -----------<br>---- --- ---------- --- ---- --- -- ----------,224862.33000000357,224861.71500000637,224493.216,224501.59500000882,224509.849,224876.172,,32,the
screen,html.Screen,2_3_1_0_1_33,2021-04-30T11:14:51.472Z,,,,,,,,,,,,,,,,,51,,,,,,,,,,,,,,309.46300000164774,,response,,,,13,C,,,,,,Space,keypress(Space),,,,instrumental,,,,-------- -------- --- --- ---- --- --- ------ -- --------<br>---- --------- --- ------- ------------ ---------- ---------<br>--- ---------- ------- ---------- ------- -- -------- ----<br>---- --- ------ ----- ------ -- ---- --- House -- - -------<br>-------- -- --- --- -- ----- ----------- ----- -----------<br>---- --- ---------- --- ---- --- -- ----------,225186.05500001286,225185.63500000164,224859.476,224862.4000000127,224876.172,225192.52,,33,House
screen,html.Screen,2_3_1_0_1_34,2021-04-30T11:14:51.803Z,,,,,,,,,,,,,,,,,51,,,,,,,,,,,,,,323.8450000031444,,response,,,,13,C,,,,,,Space,keypress(Space),,,,instrumental,,,,-------- -------- --- --- ---- --- --- ------ -- --------<br>---- --------- --- ------- ------------ ---------- ---------<br>--- ---------- ------- ---------- ------- -- -------- ----<br>---- --- ------ ----- ------ -- ---- --- ----- in - -------<br>-------- -- --- --- -- ----- ----------- ----- -----------<br>---- --- ---------- --- ---- --- -- ----------,225516.9850000093,225516.36500000313,225175.845,225186.13500001084,225192.52,225525.572,,34,in
screen,html.Screen,2_3_1_0_1_35,2021-04-30T11:14:52.141Z,,,,,,,,,,,,,,,,,51,,,,,,,,,,,,,,329.1630000008154,,response,,,,13,C,,,,,,Space,keypress(Space),,,,instrumental,,,,-------- -------- --- --- ---- --- --- ------ -- --------<br>---- --------- --- ------- ------------ ---------- ---------<br>--- ---------- ------- ---------- ------- -- -------- ----<br>---- --- ------ ----- ------ -- ---- --- ----- -- a -------<br>-------- -- --- --- -- ----- ----------- ----- -----------<br>---- --- ---------- --- ---- --- -- ----------,225855.0749999995,225854.7350000008,225508.865,225517.14500000526,225525.572,225858.51,,35,a
screen,html.Screen,2_3_1_0_1_36,2021-04-30T11:14:52.443Z,,,,,,,,,,,,,,,,,51,,,,,,,,,,,,,,297.6350000008242,,response,,,,13,C,,,,,,Space,keypress(Space),,,,instrumental,,,,-------- -------- --- --- ---- --- --- ------ -- --------<br>---- --------- --- ------- ------------ ---------- ---------<br>--- ---------- ------- ---------- ------- -- -------- ----<br>---- --- ------ ----- ------ -- ---- --- ----- -- - massive<br>-------- -- --- --- -- ----- ----------- ----- -----------<br>---- --- ---------- --- ---- --- -- ----------,226157.11500000907,226156.14500000083,225842.205,225855.14500000863,225858.51,226175.831,,36,massive
