sender,sender_type,sender_id,timestamp,meta,,Blues,Classical,Country,Dance,Electronic,Folk,Gospel,Hip-Hop,Jazz,Latin,Musical/Film,New-age,Pop,Prolific_id,Provo_ID,R&B,Rap,Reggae,Religious,Rock,Soul,Swing,Traditional,age,artist_name,correct,correctResponse,distraction,duration,education,ended_on,familiarity,gender,headphone_check_performance,item,list,music_frequency,offensiveness,pleasantness,position_correct,preference,response,response_action,snippet_file,song_name,song_rating,sound,stimulus_1,stimulus_2,stimulus_3,text,time_commit,time_end,time_render,time_run,time_show,time_switch,url,word,word_ID
Prolific ID,html.Form,0,2021-04-26T12:11:49.510Z,"{""labjs_version"":""20.2.2"",""labjs_build"":{""flavor"":""production"",""commit"":""a25486e0c714a0ae2ce03ff94b7bb6896854dcfa""},""location"":""https://run.pavlovia.org/mvasilev/prolific_music_b/"",""userAgent"":""Mozilla/5.0 (Macintosh; Intel Mac OS X 10_15_6) AppleWebKit/537.36 (KHTML, like Gecko) Chrome/90.0.4430.85 Safari/537.36"",""platform"":""MacIntel"",""language"":""en-GB"",""locale"":""en-GB"",""timeZone"":""Europe/London"",""timezoneOffset"":-60,""screen_width"":1440,""screen_height"":900,""scroll_width"":1440,""scroll_height"":677,""window_innerWidth"":1440,""window_innerHeight"":725,""devicePixelRatio"":2}",,,,,,,,,,,,,,,604d0733919f70839ae9e1e7,,,,,,,,,,,,,,,27250.193999999196,,form submission,,,,,,,,,,,,,,,,,,,,,34034.780000001774,34034.4499999992,6750.924,6765.850000003411,6784.256,34042.987,{},,
Introduction,html.Screen,1_0,2021-04-26T12:11:53.363Z,,,,,,,,,,,,,,,,,,,,,,,,,,,,,,,3841.3680000019594,,response,,,,,,,,,,,continue,click button,,,,,,,,,37888.04499999969,37884.35500000196,34026.321,34035.015000001295,34042.987,37909.499,,,
Volume calibration,html.Screen,1_1,2021-04-26T12:12:46.304Z,,,,,,,,,,,,,,,,,,,,,,,,,,,,,,,52911.975999997005,,response,,,,,,,,,,,continue,click button,,,,,,,,,90828.45000000088,90821.47499999701,37892.833,37888.17500000005,37909.499,90848.524,,,
Task instructions,html.Screen,1_2,2021-04-26T12:12:50.932Z,,,,,,,,,,,,,,,,,,,,,,,,,,,,,,,4605.641000002826,,response,,,,,,,,,,,continue,click button,,,,,,,,,95456.8500000023,95454.16500000283,90831.858,90829.0049999996,90848.524,95473.656,,,
Sounds,html.Screen,1_3_0_0,2021-04-26T12:12:55.187Z,,,,,,,,,,,,,,,,,,,,,,,,,,,,,,,4249.830000000002,,timeout,,,,,,,,,1,,,,,,,,S,O,I,,99711.84999999969,99706.82,95456.99,95457.25500000117,95473.656,99723.486,,,
Judgement,html.Screen,1_3_0_1,2021-04-26T12:12:57.893Z,,,,,,,,,,,,,,,,,,,,,,,,,,,,true,1,,2692.1089999985707,,response,,,,,,,,,1,,1,click #choice-1,,,,,S,O,I,,102417.60000000068,102415.59499999858,99706.82,99712.09500000259,99723.486,102437.184,,,
Trial,flow.Sequence,1_3_0,2021-04-26T12:12:57.893Z,,,,,,,,,,,,,,,,,,,,,,,,,,,,,,,6941.938999998572,,completion,,,,,,,,,1,,,,,,,,S,O,I,,102417.88999999699,102415.59499999858,95456.99,95457.1550000037,95473.656,102437.184,,,
Sounds,html.Screen,1_3_1_0,2021-04-26T12:13:02.147Z,,,,,,,,,,,,,,,,,,,,,,,,,,,,,,,4249.830000000002,,timeout,,,,,,,,,2,,,,,,,,I,S,O,,106671.65000000386,106670.348,102420.518,102418.01000000123,102437.184,106687.014,,,
Judgement,html.Screen,1_3_1_1,2021-04-26T12:13:03.666Z,,,,,,,,,,,,,,,,,,,,,,,,,,,,true,2,,1500.4359999976296,,response,,,,,,,,,2,,2,click #choice-2,,,,,I,S,O,,108190.21000000066,108187.44999999763,106670.348,106671.8600000022,106687.014,108203.62,,,
Trial,flow.Sequence,1_3_1,2021-04-26T12:13:03.666Z,,,,,,,,,,,,,,,,,,,,,,,,,,,,,,,5750.265999997631,,completion,,,,,,,,,2,,,,,,,,I,S,O,,108190.52499999816,108187.44999999763,102420.518,102417.97500000393,102437.184,108203.62,,,
Sounds,html.Screen,1_3_2_0,2021-04-26T12:13:07.916Z,,,,,,,,,,,,,,,,,,,,,,,,,,,,,,,4249.830000000002,,timeout,,,,,,,,,3,,,,,,,,I,O,S,,112439.93000000046,112436.784,108186.954,108190.73999999819,108203.62,112453.45,,,
Judgement,html.Screen,1_3_2_1,2021-04-26T12:13:08.583Z,,,,,,,,,,,,,,,,,,,,,,,,,,,,true,3,,651.2099999972415,,response,,,,,,,,,3,,3,click #choice-3,,,,,I,O,S,,113107.38000000129,113104.65999999724,112436.784,112440.1349999971,112453.45,113128.469,,,
Trial,flow.Sequence,1_3_2,2021-04-26T12:13:08.583Z,,,,,,,,,,,,,,,,,,,,,,,,,,,,,,,4901.039999997243,,completion,,,,,,,,,3,,,,,,,,I,O,S,,113107.67499999929,113104.65999999724,108186.954,108190.67000000359,108203.62,113128.469,,,
Sounds,html.Screen,1_3_3_0,2021-04-26T12:13:12.840Z,,,,,,,,,,,,,,,,,,,,,,,,,,,,,,,4249.830000000002,,timeout,,,,,,,,,1,,,,,,,,S,I,O,,117364.07499999768,117361.633,113111.803,113107.89500000101,113128.469,117378.299,,,
Judgement,html.Screen,1_3_3_1,2021-04-26T12:13:14.034Z,,,,,,,,,,,,,,,,,,,,,,,,,,,,true,1,,1176.6810000007972,,response,,,,,,,,,1,,1,click #choice-1,,,,,S,I,O,,118557.8749999986,118554.9800000008,117361.633,117364.2650000038,117378.299,118578.251,,,
Trial,flow.Sequence,1_3_3,2021-04-26T12:13:14.034Z,,,,,,,,,,,,,,,,,,,,,,,,,,,,,,,5426.511000000799,,completion,,,,,,,,,1,,,,,,,,S,I,O,,118558.17000000388,118554.9800000008,113111.803,113107.81000000134,113128.469,118578.251,,,
Sounds,html.Screen,1_3_4_0,2021-04-26T12:13:18.289Z,,,,,,,,,,,,,,,,,,,,,,,,,,,,,,,4249.830000000002,,timeout,,,,,,,,,2,,,,,,,,O,S,I,,122813.645000002,122811.415,118561.585,118558.35500000103,118578.251,122828.081,,,
Judgement,html.Screen,1_3_4_1,2021-04-26T12:13:19.030Z,,,,,,,,,,,,,,,,,,,,,,,,,,,,true,2,,723.6889999982086,,response,,,,,,,,,2,,2,click #choice-2,,,,,O,S,I,,123554.62000000261,123551.76999999821,122811.415,122813.84499999695,122828.081,123570.112,,,
Trial,flow.Sequence,1_3_4,2021-04-26T12:13:19.031Z,,,,,,,,,,,,,,,,,,,,,,,,,,,,,,,4973.51899999821,,completion,,,,,,,,,2,,,,,,,,O,S,I,,123554.90999999893,123551.76999999821,118561.585,118558.30499999865,118578.251,123570.112,,,
Sounds,html.Screen,1_3_5_0,2021-04-26T12:13:23.281Z,,,,,,,,,,,,,,,,,,,,,,,,,,,,,,,4249.830000000002,,timeout,,,,,,,,,3,,,,,,,,O,I,S,,127805.43500000203,127803.276,123553.446,123555.09999999776,123570.112,127819.942,,,
Judgement,html.Screen,1_3_5_1,2021-04-26T12:13:23.811Z,,,,,,,,,,,,,,,,,,,,,,,,,,,,true,3,,512.2579999971058,,response,,,,,,,,,3,,3,click #choice-3,,,,,O,I,S,,128335.12000000337,128332.1999999971,127803.276,127805.61499999749,127819.942,128353.254,,,
Trial,flow.Sequence,1_3_5,2021-04-26T12:13:23.811Z,,,,,,,,,,,,,,,,,,,,,,,,,,,,,,,4762.0879999971075,,completion,,,,,,,,,3,,,,,,,,O,I,S,,128335.39500000188,128332.1999999971,123553.446,123555.05000000267,123570.112,128353.254,,,
Task,flow.Loop,1_3,2021-04-26T12:13:23.819Z,,,,,,,,,,,,,,,,,,,,,,,,,,,,,,,32858.5439999971,,completion,,,1,,,,,,,,,,,,,,,,,,128342.84499999922,128332.1999999971,95456.99,95457.05499999895,95473.656,128353.254,,,
Trap,html.Screen,1_4,2021-04-26T12:13:23.820Z,,,,,,,,,,,,,,,,,,,,,,,,,,,,,,,NaN,,skipped,,,,,,,,,,,,,,,,,,,,,128343.91999999934,128332.1999999971,,128343.80999999848,,128353.254,,,
Thanks,html.Screen,1_5,2021-04-26T12:13:26.080Z,,,,,,,,,,,,,,,,,,,,,,,,,,,,,,,2249.296000003247,,response,,,,,,,,,,,continue,click button,,,,,,,,,130604.12999999971,130602.55000000325,128336.588,128344.0150000024,128353.254,132586.418,,,
Headphone screening,flow.Sequence,1,2021-04-26T12:13:26.080Z,,,,,,,,,,,,,,,,,,,,,,,,,,,,,,,96559.56300000325,,completion,,,,,,,,,,,,,,,,,,,,,130604.27499999787,130602.55000000325,34026.321,34034.984999998414,34042.987,132586.418,,,
Instructions,html.Page,2_0,2021-04-26T12:13:40.856Z,,,,,,,,,,,,,,,,,,,,,,,,,,,,,,,12793.716999999422,,form submission,,,,,,,,,,,,,,,,,,,,,145380.4700000037,145380.13499999943,132569.752,132572.87499999802,132586.418,145394.487,,,
Holding screen,html.Screen,2_1_0_0,2021-04-26T12:13:50.853Z,,,,,,,,,,,,,,,,,,,,,,,,,,,,,,,9996.869999999995,,timeout,,,,,,,,,,,,,,,,,,,,,155377.0300000033,155374.691,145377.821,145380.69499999983,145394.487,155391.357,,,
screen,html.Screen,2_1_0_1_0,2021-04-26T12:13:51.747Z,,,,,,,,,,,,,,,,,53,,,,,,,,,,,,,,866.4730000022973,,response,,,,99,,,,,,,Space,keypress(Space),,,,,,,,When -- ----- -- ------ - ------- --- ----------<br>------------- ------ ------ ---- ---- ------- ----- -- ----<br>-------- ------- -- ---------- --- - --- ----- ----- ----<br>---- --- --- ----- --- ---- ---- ------- ----- ---- -------<br>--- --- -- ----- -- --- ---- -- --- ---- -- ------ ------<br>--- ----- -- ----,156270.5350000033,156257.8300000023,155374.691,155377.3349999974,155391.357,156274.655,,0,When
screen,html.Screen,2_1_0_1_1,2021-04-26T12:13:52.114Z,,,,,,,,,,,,,,,,,53,,,,,,,,,,,,,,358.30500000264146,,response,,,,99,,,,,,,Space,keypress(Space),,,,,,,,---- it ----- -- ------ - ------- --- ----------<br>------------- ------ ------ ---- ---- ------- ----- -- ----<br>-------- ------- -- ---------- --- - --- ----- ----- ----<br>---- --- --- ----- --- ---- ---- ------- ----- ---- -------<br>--- --- -- ----- -- --- ---- -- --- ---- -- ------ ------<br>--- ----- -- ----,156638.20000000123,156632.96000000264,156257.989,156270.76500000112,156274.655,156649.657,,1,it
screen,html.Screen,2_1_0_1_2,2021-04-26T12:13:52.658Z,,,,,,,,,,,,,,,,,53,,,,,,,,,,,,,,527.3380000016186,,response,,,,99,,,,,,,Space,keypress(Space),,,,,,,,---- -- comes -- ------ - ------- --- ----------<br>------------- ------ ------ ---- ---- ------- ----- -- ----<br>-------- ------- -- ---------- --- - --- ----- ----- ----<br>---- --- --- ----- --- ---- ---- ------- ----- ---- -------<br>--- --- -- ----- -- --- ---- -- --- ---- -- ------ ------<br>--- ----- -- ----,157182.16000000393,157176.99500000163,156632.991,156638.40999999957,156649.657,157199.635,,2,comes
screen,html.Screen,2_1_0_1_3,2021-04-26T12:13:53.039Z,,,,,,,,,,,,,,,,,53,,,,,,,,,,,,,,358.2750000031665,,response,,,,99,,,,,,,Space,keypress(Space),,,,,,,,---- -- ----- to ------ - ------- --- ----------<br>------------- ------ ------ ---- ---- ------- ----- -- ----<br>-------- ------- -- ---------- --- - --- ----- ----- ----<br>---- --- --- ----- --- ---- ---- ------- ----- ---- -------<br>--- --- -- ----- -- --- ---- -- --- ---- -- ------ ------<br>--- ----- -- ----,157563.350000004,157557.91000000318,157182.969,157182.35999999888,157199.635,157566.287,,3,to
screen,html.Screen,2_1_0_1_4,2021-04-26T12:13:53.438Z,,,,,,,,,,,,,,,,,53,,,,,,,,,,,,,,390.60300000128336,,response,,,,99,,,,,,,Space,keypress(Space),,,,,,,,---- -- ----- -- having - ------- --- ----------<br>------------- ------ ------ ---- ---- ------- ----- -- ----<br>-------- ------- -- ---------- --- - --- ----- ----- ----<br>---- --- --- ----- --- ---- ---- ------- ----- ---- -------<br>--- --- -- ----- -- --- ---- -- --- ---- -- ------ ------<br>--- ----- -- ----,157962.0900000009,157956.8900000013,157549.621,157563.53500000114,157566.287,157966.271,,4,having
screen,html.Screen,2_1_0_1_5,2021-04-26T12:13:53.892Z,,,,,,,,,,,,,,,,,53,,,,,,,,,,,,,,444.6789999976754,,response,,,,99,,,,,,,Space,keypress(Space),,,,,,,,---- -- ----- -- ------ a ------- --- ----------<br>------------- ------ ------ ---- ---- ------- ----- -- ----<br>-------- ------- -- ---------- --- - --- ----- ----- ----<br>---- --- --- ----- --- ---- ---- ------- ----- ---- -------<br>--- --- -- ----- -- --- ---- -- --- ---- -- ------ ------<br>--- ----- -- ----,158416.1099999983,158410.94999999768,157949.605,157962.29000000312,157966.271,158432.919,,5,a
screen,html.Screen,2_1_0_1_6,2021-04-26T12:13:54.280Z,,,,,,,,,,,,,,,,,53,,,,,,,,,,,,,,365.9759999999078,,response,,,,99,,,,,,,Space,keypress(Space),,,,,,,,---- -- ----- -- ------ - lasting --- ----------<br>------------- ------ ------ ---- ---- ------- ----- -- ----<br>-------- ------- -- ---------- --- - --- ----- ----- ----<br>---- --- --- ----- --- ---- ---- ------- ----- ---- -------<br>--- --- -- ----- -- --- ---- -- --- ---- -- ------ ------<br>--- ----- -- ----,158804.02499999764,158798.8949999999,158416.253,158416.31000000052,158432.919,158816.237,,6,lasting
screen,html.Screen,2_1_0_1_7,2021-04-26T12:13:54.717Z,,,,,,,,,,,,,,,,,53,,,,,,,,,,,,,,419.65799999798764,,response,,,,99,,,,,,,Space,keypress(Space),,,,,,,,---- -- ----- -- ------ - ------- and ----------<br>------------- ------ ------ ---- ---- ------- ----- -- ----<br>-------- ------- -- ---------- --- - --- ----- ----- ----<br>---- --- --- ----- --- ---- ---- ------- ----- ---- -------<br>--- --- -- ----- -- --- ---- -- --- ---- -- ------ ------<br>--- ----- -- ----,159240.93500000163,159235.89499999798,158799.571,158804.20500000037,158816.237,159249.553,,7,and
screen,html.Screen,2_1_0_1_8,2021-04-26T12:13:55.242Z,,,,,,,,,,,,,,,,,53,,,,,,,,,,,,,,510.5219999983092,,response,,,,99,,,,,,,Space,keypress(Space),,,,,,,,---- -- ----- -- ------ - ------- --- fulfilling<br>------------- ------ ------ ---- ---- ------- ----- -- ----<br>-------- ------- -- ---------- --- - --- ----- ----- ----<br>---- --- --- ----- --- ---- ---- ------- ----- ---- -------<br>--- --- -- ----- -- --- ---- -- --- ---- -- ------ ------<br>--- ----- -- ----,159765.6050000005,159760.07499999832,159232.887,159241.11000000266,159249.553,159782.865,,8,fulfilling
screen,html.Screen,2_1_0_1_9,2021-04-26T12:13:55.694Z,,,,,,,,,,,,,,,,,53,,,,,,,,,,,,,,430.0099999974482,,response,,,,99,,,,,,,Space,keypress(Space),,,,,,,,"---- -- ----- -- ------ - ------- --- ----------<br>relationship, ------ ------ ---- ---- ------- ----- -- ----<br>-------- ------- -- ---------- --- - --- ----- ----- ----<br>---- --- --- ----- --- ---- ---- ------- ----- ---- -------<br>--- --- -- ----- -- --- ---- -- --- ---- -- ------ ------<br>--- ----- -- ----",160218.24500000366,160212.87499999744,159766.199,159765.78500000323,159782.865,160232.847,,9,"relationship,"
screen,html.Screen,2_1_0_1_10,2021-04-26T12:13:56.342Z,,,,,,,,,,,,,,,,,53,,,,,,,,,,,,,,628.007999998983,,response,,,,99,,,,,,,Space,keypress(Space),,,,,,,,---- -- ----- -- ------ - ------- --- ----------<br>------------- common ------ ---- ---- ------- ----- -- ----<br>-------- ------- -- ---------- --- - --- ----- ----- ----<br>---- --- --- ----- --- ---- ---- ------- ----- ---- -------<br>--- --- -- ----- -- --- ---- -- --- ---- -- ------ ------<br>--- ----- -- ----,160865.94000000332,160860.854999999,160216.181,160218.41999999742,160232.847,160882.821,,10,common
screen,html.Screen,2_1_0_1_11,2021-04-26T12:13:56.851Z,,,,,,,,,,,,,,,,,53,,,,,,,,,,,,,,487.02400000108173,,response,,,,99,,,,,,,Space,keypress(Space),,,,,,,,---- -- ----- -- ------ - ------- --- ----------<br>------------- ------ wisdom ---- ---- ------- ----- -- ----<br>-------- ------- -- ---------- --- - --- ----- ----- ----<br>---- --- --- ----- --- ---- ---- ------- ----- ---- -------<br>--- --- -- ----- -- --- ---- -- --- ---- -- ------ ------<br>--- ----- -- ----,161375.03000000288,161369.84500000108,160866.155,160866.11999999877,160882.821,161382.801,,11,wisdom
screen,html.Screen,2_1_0_1_12,2021-04-26T12:13:57.285Z,,,,,,,,,,,,,,,,,53,,,,,,,,,,,,,,420.9939999998023,,response,,,,99,,,,,,,Space,keypress(Space),,,,,,,,---- -- ----- -- ------ - ------- --- ----------<br>------------- ------ ------ says ---- ------- ----- -- ----<br>-------- ------- -- ---------- --- - --- ----- ----- ----<br>---- --- --- ----- --- ---- ---- ------- ----- ---- -------<br>--- --- -- ----- -- --- ---- -- --- ---- -- ------ ------<br>--- ----- -- ----,161808.85000000126,161803.7949999998,161366.135,161375.20999999833,161382.801,161816.117,,12,says
screen,html.Screen,2_1_0_1_13,2021-04-26T12:13:57.806Z,,,,,,,,,,,,,,,,,53,,,,,,,,,,,,,,508.5930000007793,,response,,,,99,,,,,,,Space,keypress(Space),,,,,,,,---- -- ----- -- ------ - ------- --- ----------<br>------------- ------ ------ ---- that ------- ----- -- ----<br>-------- ------- -- ---------- --- - --- ----- ----- ----<br>---- --- --- ----- --- ---- ---- ------- ----- ---- -------<br>--- --- -- ----- -- --- ---- -- --- ---- -- ------ ------<br>--- ----- -- ----,162329.859999998,162324.71000000078,161799.451,161809.030000004,161816.117,162332.763,,13,that
screen,html.Screen,2_1_0_1_14,2021-04-26T12:13:58.297Z,,,,,,,,,,,,,,,,,53,,,,,,,,,,,,,,482.992000003258,,response,,,,99,,,,,,,Space,keypress(Space),,,,,,,,---- -- ----- -- ------ - ------- --- ----------<br>------------- ------ ------ ---- ---- feeling ----- -- ----<br>-------- ------- -- ---------- --- - --- ----- ----- ----<br>---- --- --- ----- --- ---- ---- ------- ----- ---- -------<br>--- --- -- ----- -- --- ---- -- --- ---- -- ------ ------<br>--- ----- -- ----,162821.08999999764,162815.75500000326,162316.097,162330.04500000243,162332.763,162832.743,,14,feeling
screen,html.Screen,2_1_0_1_15,2021-04-26T12:13:58.676Z,,,,,,,,,,,,,,,,,53,,,,,,,,,,,,,,362.10199999817996,,response,,,,99,,,,,,,Space,keypress(Space),,,,,,,,---- -- ----- -- ------ - ------- --- ----------<br>------------- ------ ------ ---- ---- ------- close -- ----<br>-------- ------- -- ---------- --- - --- ----- ----- ----<br>---- --- --- ----- --- ---- ---- ------- ----- ---- -------<br>--- --- -- ----- -- --- ---- -- --- ---- -- ------ ------<br>--- ----- -- ----,163199.9050000013,163194.84499999817,162816.077,162821.26499999868,162832.743,163216.061,,15,close
screen,html.Screen,2_1_0_1_16,2021-04-26T12:13:59.018Z,,,,,,,,,,,,,,,,,53,,,,,,,,,,,,,,321.5439999977243,,response,,,,99,,,,,,,Space,keypress(Space),,,,,,,,---- -- ----- -- ------ - ------- --- ----------<br>------------- ------ ------ ---- ---- ------- ----- to ----<br>-------- ------- -- ---------- --- - --- ----- ----- ----<br>---- --- --- ----- --- ---- ---- ------- ----- ---- -------<br>--- --- -- ----- -- --- ---- -- --- ---- -- ------ ------<br>--- ----- -- ----,163541.44000000088,163537.6049999977,163199.395,163200.1850000015,163216.061,163549.381,,16,to
screen,html.Screen,2_1_0_1_17,2021-04-26T12:13:59.534Z,,,,,,,,,,,,,,,,,53,,,,,,,,,,,,,,503.3690000025672,,response,,,,99,,,,,,,Space,keypress(Space),,,,,,,,---- -- ----- -- ------ - ------- --- ----------<br>------------- ------ ------ ---- ---- ------- ----- -- your<br>-------- ------- -- ---------- --- - --- ----- ----- ----<br>---- --- --- ----- --- ---- ---- ------- ----- ---- -------<br>--- --- -- ----- -- --- ---- -- --- ---- -- ------ ------<br>--- ----- -- ----,164058.08499999694,164052.75000000256,163532.715,163541.57500000292,163549.381,164066.027,,17,your
screen,html.Screen,2_1_0_1_18,2021-04-26T12:14:00.412Z,,,,,,,,,,,,,,,,,53,,,,,,,,,,,,,,864.7680000002147,,response,,,,99,,,,,,,Space,keypress(Space),,,,,,,,---- -- ----- -- ------ - ------- --- ----------<br>------------- ------ ------ ---- ---- ------- ----- -- ----<br>romantic ------- -- ---------- --- - --- ----- ----- ----<br>---- --- --- ----- --- ---- ---- ------- ----- ---- -------<br>--- --- -- ----- -- --- ---- -- --- ---- -- ------ ------<br>--- ----- -- ----,164935.7200000013,164930.79500000022,164049.361,164058.29500000254,164066.027,164949.325,,18,romantic
screen,html.Screen,2_1_0_1_19,2021-04-26T12:14:00.962Z,,,,,,,,,,,,,,,,,53,,,,,,,,,,,,,,530.3750000034925,,response,,,,99,,,,,,,Space,keypress(Space),,,,,,,,---- -- ----- -- ------ - ------- --- ----------<br>------------- ------ ------ ---- ---- ------- ----- -- ----<br>-------- partner -- ---------- --- - --- ----- ----- ----<br>---- --- --- ----- --- ---- ---- ------- ----- ---- -------<br>--- --- -- ----- -- --- ---- -- --- ---- -- ------ ------<br>--- ----- -- ----,165485.7600000032,165479.7000000035,164932.659,164935.91500000184,164949.325,165499.303,,19,partner
screen,html.Screen,2_1_0_1_20,2021-04-26T12:14:01.459Z,,,,,,,,,,,,,,,,,53,,,,,,,,,,,,,,478.3670000002021,,response,,,,99,,,,,,,Space,keypress(Space),,,,,,,,---- -- ----- -- ------ - ------- --- ----------<br>------------- ------ ------ ---- ---- ------- ----- -- ----<br>-------- ------- is ---------- --- - --- ----- ----- ----<br>---- --- --- ----- --- ---- ---- ------- ----- ---- -------<br>--- --- -- ----- -- --- ---- -- --- ---- -- ------ ------<br>--- ----- -- ----,165982.6749999993,165977.67000000022,165482.637,165485.95500000374,165499.303,165999.283,,20,is
screen,html.Screen,2_1_0_1_21,2021-04-26T12:14:01.970Z,,,,,,,,,,,,,,,,,53,,,,,,,,,,,,,,488.15699999715434,,response,,,,99,,,,,,,Space,keypress(Space),,,,,,,,---- -- ----- -- ------ - ------- --- ----------<br>------------- ------ ------ ---- ---- ------- ----- -- ----<br>-------- ------- -- paramount. --- - --- ----- ----- ----<br>---- --- --- ----- --- ---- ---- ------- ----- ---- -------<br>--- --- -- ----- -- --- ---- -- --- ---- -- ------ ------<br>--- ----- -- ----,166493.96500000148,166487.43999999715,165982.617,165982.8750000015,165999.283,166507.376,,21,paramount.
screen,html.Screen,2_1_0_1_22,2021-04-26T12:14:02.704Z,,,,,,,,,,,,,,,,,53,,,,,,,,,,,,,,715.2589999982738,,response,,,,99,,,,,,,Space,keypress(Space),,,,,,,,---- -- ----- -- ------ - ------- --- ----------<br>------------- ------ ------ ---- ---- ------- ----- -- ----<br>-------- ------- -- ---------- But - --- ----- ----- ----<br>---- --- --- ----- --- ---- ---- ------- ----- ---- -------<br>--- --- -- ----- -- --- ---- -- --- ---- -- ------ ------<br>--- ----- -- ----,167227.68499999802,167222.63499999826,166490.71,166494.160000002,166507.376,167240.68,,22,But
screen,html.Screen,2_1_0_1_23,2021-04-26T12:14:03.150Z,,,,,,,,,,,,,,,,,53,,,,,,,,,,,,,,427.9300000006333,,response,,,,99,,,,,,,Space,keypress(Space),,,,,,,,---- -- ----- -- ------ - ------- --- ----------<br>------------- ------ ------ ---- ---- ------- ----- -- ----<br>-------- ------- -- ---------- --- a --- ----- ----- ----<br>---- --- --- ----- --- ---- ---- ------- ----- ---- -------<br>--- --- -- ----- -- --- ---- -- --- ---- -- ------ ------<br>--- ----- -- ----,167673.82499999803,167668.61000000063,167224.014,167227.85999999905,167240.68,167690.662,,23,a
screen,html.Screen,2_1_0_1_24,2021-04-26T12:14:03.556Z,,,,,,,,,,,,,,,,,53,,,,,,,,,,,,,,383.9579999994021,,response,,,,99,,,,,,,Space,keypress(Space),,,,,,,,---- -- ----- -- ------ - ------- --- ----------<br>------------- ------ ------ ---- ---- ------- ----- -- ----<br>-------- ------- -- ---------- --- - new ----- ----- ----<br>---- --- --- ----- --- ---- ---- ------- ----- ---- -------<br>--- --- -- ----- -- --- ---- -- --- ---- -- ------ ------<br>--- ----- -- ----,168079.62000000407,168074.6199999994,167673.996,167674.01499999687,167690.662,168090.646,,24,new
screen,html.Screen,2_1_0_1_25,2021-04-26T12:14:03.912Z,,,,,,,,,,,,,,,,,53,,,,,,,,,,,,,,339.9390000018757,,response,,,,99,,,,,,,Space,keypress(Space),,,,,,,,---- -- ----- -- ------ - ------- --- ----------<br>------------- ------ ------ ---- ---- ------- ----- -- ----<br>-------- ------- -- ---------- --- - --- study ----- ----<br>---- --- --- ----- --- ---- ---- ------- ----- ---- -------<br>--- --- -- ----- -- --- ---- -- --- ---- -- ------ ------<br>--- ----- -- ----,168435.8149999971,168430.58500000188,168073.98,168079.81499999732,168090.646,168440.632,,25,study
screen,html.Screen,2_1_0_1_26,2021-04-26T12:14:04.302Z,,,,,,,,,,,,,,,,,53,,,,,,,,,,,,,,379.84300000043004,,response,,,,99,,,,,,,Space,keypress(Space),,,,,,,,---- -- ----- -- ------ - ------- --- ----------<br>------------- ------ ------ ---- ---- ------- ----- -- ----<br>-------- ------- -- ---------- --- - --- ----- finds ----<br>---- --- --- ----- --- ---- ---- ------- ----- ---- -------<br>--- --- -- ----- -- --- ---- -- --- ---- -- ------ ------<br>--- ----- -- ----,168825.44000000053,168820.47500000044,168423.966,168435.99499999982,168440.632,168840.616,,26,finds
screen,html.Screen,2_1_0_1_27,2021-04-26T12:14:04.632Z,,,,,,,,,,,,,,,,,53,,,,,,,,,,,,,,309.964000001346,,response,,,,99,,,,,,,Space,keypress(Space),,,,,,,,---- -- ----- -- ------ - ------- --- ----------<br>------------- ------ ------ ---- ---- ------- ----- -- ----<br>-------- ------- -- ---------- --- - --- ----- ----- that<br>---- --- --- ----- --- ---- ---- ------- ----- ---- -------<br>--- --- -- ----- -- --- ---- -- --- ---- -- ------ ------<br>--- ----- -- ----,169155.62499999942,169150.58000000136,168823.95,168825.61500000156,168840.616,169157.27,,27,that
screen,html.Screen,2_1_0_1_28,2021-04-26T12:14:05.003Z,,,,,,,,,,,,,,,,,53,,,,,,,,,,,,,,364.2300000025716,,response,,,,99,,,,,,,Space,keypress(Space),,,,,,,,---- -- ----- -- ------ - ------- --- ----------<br>------------- ------ ------ ---- ---- ------- ----- -- ----<br>-------- ------- -- ---------- --- - --- ----- ----- ----<br>it's --- --- ----- --- ---- ---- ------- ----- ---- -------<br>--- --- -- ----- -- --- ---- -- --- ---- -- ------ ------<br>--- ----- -- ----,169526.46500000264,169521.50000000256,169140.604,169155.80500000215,169157.27,169540.588,,28,it's
screen,html.Screen,2_1_0_1_29,2021-04-26T12:14:05.385Z,,,,,,,,,,,,,,,,,53,,,,,,,,,,,,,,362.9120000003604,,response,,,,99,,,,,,,Space,keypress(Space),,,,,,,,---- -- ----- -- ------ - ------- --- ----------<br>------------- ------ ------ ---- ---- ------- ----- -- ----<br>-------- ------- -- ---------- --- - --- ----- ----- ----<br>---- not --- ----- --- ---- ---- ------- ----- ---- -------<br>--- --- -- ----- -- --- ---- -- --- ---- -- ------ ------<br>--- ----- -- ----,169908.70500000165,169903.50000000035,169523.922,169526.64000000368,169540.588,169923.906,,29,not
screen,html.Screen,2_1_0_1_30,2021-04-26T12:14:05.798Z,,,,,,,,,,,,,,,,,53,,,,,,,,,,,,,,392.5790000030247,,response,,,,99,,,,,,,Space,keypress(Space),,,,,,,,---- -- ----- -- ------ - ------- --- ----------<br>------------- ------ ------ ---- ---- ------- ----- -- ----<br>-------- ------- -- ---------- --- - --- ----- ----- ----<br>---- --- how ----- --- ---- ---- ------- ----- ---- -------<br>--- --- -- ----- -- --- ---- -- --- ---- -- ------ ------<br>--- ----- -- ----,170321.4999999982,170316.485000003,169907.24,169908.88000000268,169923.906,170323.89,,30,how
screen,html.Screen,2_1_0_1_31,2021-04-26T12:14:06.198Z,,,,,,,,,,,,,,,,,53,,,,,,,,,,,,,,395.2249999998603,,response,,,,99,,,,,,,Space,keypress(Space),,,,,,,,---- -- ----- -- ------ - ------- --- ----------<br>------------- ------ ------ ---- ---- ------- ----- -- ----<br>-------- ------- -- ---------- --- - --- ----- ----- ----<br>---- --- --- close --- ---- ---- ------- ----- ---- -------<br>--- --- -- ----- -- --- ---- -- --- ---- -- ------ ------<br>--- ----- -- ----,170721.6350000017,170719.11499999987,170307.224,170321.68000000092,170323.89,170723.874,,31,close
screen,html.Screen,2_1_0_1_32,2021-04-26T12:14:06.586Z,,,,,,,,,,,,,,,,,53,,,,,,,,,,,,,,380.58600000228034,,response,,,,99,,,,,,,Space,keypress(Space),,,,,,,,---- -- ----- -- ------ - ------- --- ----------<br>------------- ------ ------ ---- ---- ------- ----- -- ----<br>-------- ------- -- ---------- --- - --- ----- ----- ----<br>---- --- --- ----- you ---- ---- ------- ----- ---- -------<br>--- --- -- ----- -- --- ---- -- --- ---- -- ------ ------<br>--- ----- -- ----,171109.4099999973,171104.4600000023,170707.208,170721.70999999798,170723.874,171123.858,,32,you
screen,html.Screen,2_1_0_1_33,2021-04-26T12:14:07.140Z,,,,,,,,,,,,,,,,,53,,,,,,,,,,,,,,535.3769999991637,,response,,,,99,,,,,,,Space,keypress(Space),,,,,,,,---- -- ----- -- ------ - ------- --- ----------<br>------------- ------ ------ ---- ---- ------- ----- -- ----<br>-------- ------- -- ---------- --- - --- ----- ----- ----<br>---- --- --- ----- --- feel ---- ------- ----- ---- -------<br>--- --- -- ----- -- --- ---- -- --- ---- -- ------ ------<br>--- ----- -- ----,171664.27000000112,171659.23499999917,171107.192,171109.58499999833,171123.858,171673.836,,33,feel
screen,html.Screen,2_1_0_1_34,2021-04-26T12:14:07.580Z,,,,,,,,,,,,,,,,,53,,,,,,,,,,,,,,424.58400000206893,,response,,,,99,,,,,,,Space,keypress(Space),,,,,,,,---- -- ----- -- ------ - ------- --- ----------<br>------------- ------ ------ ---- ---- ------- ----- -- ----<br>-------- ------- -- ---------- --- - --- ----- ----- ----<br>---- --- --- ----- --- ---- that ------- ----- ---- -------<br>--- --- -- ----- -- --- ---- -- --- ---- -- ------ ------<br>--- ----- -- ----,172103.37499999878,172098.42000000208,171657.17,171664.45000000385,171673.836,172107.152,,34,that
screen,html.Screen,2_1_0_1_35,2021-04-26T12:14:07.946Z,,,,,,,,,,,,,,,,,53,,,,,,,,,,,,,,357.2729999982985,,response,,,,99,,,,,,,Space,keypress(Space),,,,,,,,---- -- ----- -- ------ - ------- --- ----------<br>------------- ------ ------ ---- ---- ------- ----- -- ----<br>-------- ------- -- ---------- --- - --- ----- ----- ----<br>---- --- --- ----- --- ---- ---- matters ----- ---- -------<br>--- --- -- ----- -- --- ---- -- --- ---- -- ------ ------<br>--- ----- -- ----,172469.52500000043,172464.4249999983,172090.486,172103.5800000027,172107.152,172473.804,,35,matters
screen,html.Screen,2_1_0_1_36,2021-04-26T12:14:08.573Z,,,,,,,,,,,,,,,,,53,,,,,,,,,,,,,,617.5559999985271,,response,,,,99,,,,,,,Space,keypress(Space),,,,,,,,"---- -- ----- -- ------ - ------- --- ----------<br>------------- ------ ------ ---- ---- ------- ----- -- ----<br>-------- ------- -- ---------- --- - --- ----- ----- ----<br>---- --- --- ----- --- ---- ---- ------- most, ---- -------<br>--- --- -- ----- -- --- ---- -- --- ---- -- ------ ------<br>--- ----- -- ----",173096.6150000022,173091.35999999853,172457.138,172470.56999999768,172473.804,173107.112,,36,"most,"
screen,html.Screen,2_1_0_1_37,2021-04-26T12:14:09.304Z,,,,,,,,,,,,,,,,,53,,,,,,,,,,,,,,714.2480000017385,,response,,,,99,,,,,,,Space,keypress(Space),,,,,,,,---- -- ----- -- ------ - ------- --- ----------<br>------------- ------ ------ ---- ---- ------- ----- -- ----<br>-------- ------- -- ---------- --- - --- ----- ----- ----<br>---- --- --- ----- --- ---- ---- ------- ----- it's -------<br>--- --- -- ----- -- --- ---- -- --- ---- -- ------ ------<br>--- ----- -- ----,173827.74000000063,173821.36000000173,173090.446,173096.81000000273,173107.112,173840.416,,37,it's
screen,html.Screen,2_1_0_1_38,2021-04-26T12:14:09.769Z,,,,,,,,,,,,,,,,,53,,,,,,,,,,,,,,446.95899999988615,,response,,,,99,,,,,,,Space,keypress(Space),,,,,,,,---- -- ----- -- ------ - ------- --- ----------<br>------------- ------ ------ ---- ---- ------- ----- -- ----<br>-------- ------- -- ---------- --- - --- ----- ----- ----<br>---- --- --- ----- --- ---- ---- ------- ----- ---- whether<br>--- --- -- ----- -- --- ---- -- --- ---- -- ------ ------<br>--- ----- -- ----,174292.515000001,174287.37499999988,173823.75,173827.90999999997,173840.416,174307.064,,38,whether
screen,html.Screen,2_1_0_1_39,2021-04-26T12:14:10.192Z,,,,,,,,,,,,,,,,,53,,,,,,,,,,,,,,403.22600000270177,,response,,,,99,,,,,,,Space,keypress(Space),,,,,,,,---- -- ----- -- ------ - ------- --- ----------<br>------------- ------ ------ ---- ---- ------- ----- -- ----<br>-------- ------- -- ---------- --- - --- ----- ----- ----<br>---- --- --- ----- --- ---- ---- ------- ----- ---- -------<br>you --- -- ----- -- --- ---- -- --- ---- -- ------ ------<br>--- ----- -- ----,174715.36999999807,174710.29000000271,174290.398,174292.68500000035,174307.064,174723.714,,39,you
screen,html.Screen,2_1_0_1_40,2021-04-26T12:14:10.559Z,,,,,,,,,,,,,,,,,53,,,,,,,,,,,,,,354.5210000008519,,response,,,,99,,,,,,,Space,keypress(Space),,,,,,,,---- -- ----- -- ------ - ------- --- ----------<br>------------- ------ ------ ---- ---- ------- ----- -- ----<br>-------- ------- -- ---------- --- - --- ----- ----- ----<br>---- --- --- ----- --- ---- ---- ------- ----- ---- -------<br>--- are -- ----- -- --- ---- -- --- ---- -- ------ ------<br>--- ----- -- ----,175083.22500000213,175078.23500000086,174707.048,174715.53999999742,174723.714,175090.366,,40,are
screen,html.Screen,2_1_0_1_41,2021-04-26T12:14:10.908Z,,,,,,,,,,,,,,,,,53,,,,,,,,,,,,,,336.0090000027267,,response,,,,99,,,,,,,Space,keypress(Space),,,,,,,,---- -- ----- -- ------ - ------- --- ----------<br>------------- ------ ------ ---- ---- ------- ----- -- ----<br>-------- ------- -- ---------- --- - --- ----- ----- ----<br>---- --- --- ----- --- ---- ---- ------- ----- ---- -------<br>--- --- as ----- -- --- ---- -- --- ---- -- ------ ------<br>--- ----- -- ----,175431.4299999969,175426.37500000274,175073.7,175083.53499999794,175090.366,175440.352,,41,as
screen,html.Screen,2_1_0_1_42,2021-04-26T12:14:11.266Z,,,,,,,,,,,,,,,,,53,,,,,,,,,,,,,,346.6279999971157,,response,,,,99,,,,,,,Space,keypress(Space),,,,,,,,---- -- ----- -- ------ - ------- --- ----------<br>------------- ------ ------ ---- ---- ------- ----- -- ----<br>-------- ------- -- ---------- --- - --- ----- ----- ----<br>---- --- --- ----- --- ---- ---- ------- ----- ---- -------<br>--- --- -- close -- --- ---- -- --- ---- -- ------ ------<br>--- ----- -- ----,175789.3350000013,175786.97999999713,175423.686,175431.60499999794,175440.352,175790.338,,42,close
screen,html.Screen,2_1_0_1_43,2021-04-26T12:14:11.610Z,,,,,,,,,,,,,,,,,53,,,,,,,,,,,,,,338.72199999931036,,response,,,,99,,,,,,,Space,keypress(Space),,,,,,,,---- -- ----- -- ------ - ------- --- ----------<br>------------- ------ ------ ---- ---- ------- ----- -- ----<br>-------- ------- -- ---------- --- - --- ----- ----- ----<br>---- --- --- ----- --- ---- ---- ------- ----- ---- -------<br>--- --- -- ----- as --- ---- -- --- ---- -- ------ ------<br>--- ----- -- ----,176133.9799999987,176129.0599999993,175773.672,175789.4099999976,175790.338,176140.324,,43,as
screen,html.Screen,2_1_0_1_44,2021-04-26T12:14:11.949Z,,,,,,,,,,,,,,,,,53,,,,,,,,,,,,,,326.94099999932223,,response,,,,99,,,,,,,Space,keypress(Space),,,,,,,,---- -- ----- -- ------ - ------- --- ----------<br>------------- ------ ------ ---- ---- ------- ----- -- ----<br>-------- ------- -- ---------- --- - --- ----- ----- ----<br>---- --- --- ----- --- ---- ---- ------- ----- ---- -------<br>--- --- -- ----- -- you ---- -- --- ---- -- ------ ------<br>--- ----- -- ----,176472.30999999738,176467.26499999932,176123.658,176134.14999999804,176140.324,176479.972,,44,you
screen,html.Screen,2_1_0_1_45,2021-04-26T12:14:12.348Z,,,,,,,,,,,,,,,,,53,,,,,,,,,,,,,,385.2780000025523,,response,,,,99,,,,,,,Space,keypress(Space),,,,,,,,---- -- ----- -- ------ - ------- --- ----------<br>------------- ------ ------ ---- ---- ------- ----- -- ----<br>-------- ------- -- ---------- --- - --- ----- ----- ----<br>---- --- --- ----- --- ---- ---- ------- ----- ---- -------<br>--- --- -- ----- -- --- want -- --- ---- -- ------ ------<br>--- ----- -- ----,176872.1250000017,176865.25000000256,176463.306,176472.480000004,176479.972,176879.956,,45,want
screen,html.Screen,2_1_0_1_46,2021-04-26T12:14:12.688Z,,,,,,,,,,,,,,,,,53,,,,,,,,,,,,,,327.2689999982831,,response,,,,99,,,,,,,Space,keypress(Space),,,,,,,,---- -- ----- -- ------ - ------- --- ----------<br>------------- ------ ------ ---- ---- ------- ----- -- ----<br>-------- ------- -- ---------- --- - --- ----- ----- ----<br>---- --- --- ----- --- ---- ---- ------- ----- ---- -------<br>--- --- -- ----- -- --- ---- to --- ---- -- ------ ------<br>--- ----- -- ----,177212.25000000413,177207.2249999983,176863.29,176872.3450000034,176879.956,177213.276,,46,to
screen,html.Screen,2_1_0_1_47,2021-04-26T12:14:13.036Z,,,,,,,,,,,,,,,,,53,,,,,,,,,,,,,,340.9590000032331,,response,,,,99,,,,,,,Space,keypress(Space),,,,,,,,"---- -- ----- -- ------ - ------- --- ----------<br>------------- ------ ------ ---- ---- ------- ----- -- ----<br>-------- ------- -- ---------- --- - --- ----- ----- ----<br>---- --- --- ----- --- ---- ---- ------- ----- ---- -------<br>--- --- -- ----- -- --- ---- -- be, ---- -- ------ ------<br>--- ----- -- ----",177559.2949999991,177554.23500000325,177196.61,177212.41500000178,177213.276,177563.262,,47,"be,"
screen,html.Screen,2_1_0_1_48,2021-04-26T12:14:13.536Z,,,,,,,,,,,,,,,,,53,,,,,,,,,,,,,,490.94800000207033,,response,,,,99,,,,,,,Space,keypress(Space),,,,,,,,---- -- ----- -- ------ - ------- --- ----------<br>------------- ------ ------ ---- ---- ------- ----- -- ----<br>-------- ------- -- ---------- --- - --- ----- ----- ----<br>---- --- --- ----- --- ---- ---- ------- ----- ---- -------<br>--- --- -- ----- -- --- ---- -- --- even -- ------ ------<br>--- ----- -- ----,178059.33000000368,178054.21000000206,177546.596,177559.45500000234,177563.262,178063.242,,48,even
screen,html.Screen,2_1_0_1_49,2021-04-26T12:14:13.907Z,,,,,,,,,,,,,,,,,53,,,,,,,,,,,,,,361.96299999955227,,response,,,,99,,,,,,,Space,keypress(Space),,,,,,,,---- -- ----- -- ------ - ------- --- ----------<br>------------- ------ ------ ---- ---- ------- ----- -- ----<br>-------- ------- -- ---------- --- - --- ----- ----- ----<br>---- --- --- ----- --- ---- ---- ------- ----- ---- -------<br>--- --- -- ----- -- --- ---- -- --- ---- if ------ ------<br>--- ----- -- ----,178430.35999999847,178425.20499999955,178046.576,178059.48999999964,178063.242,178446.56,,49,if
screen,html.Screen,2_1_0_1_50,2021-04-26T12:14:14.263Z,,,,,,,,,,,,,,,,,53,,,,,,,,,,,,,,335.6650000026566,,response,,,,99,,,,,,,Space,keypress(Space),,,,,,,,---- -- ----- -- ------ - ------- --- ----------<br>------------- ------ ------ ---- ---- ------- ----- -- ----<br>-------- ------- -- ---------- --- - --- ----- ----- ----<br>---- --- --- ----- --- ---- ---- ------- ----- ---- -------<br>--- --- -- ----- -- --- ---- -- --- ---- -- that's ------<br>--- ----- -- ----,178787.23999999784,178782.22500000265,178429.894,178430.5250000034,178446.56,178796.546,,50,that's
screen,html.Screen,2_1_0_1_51,2021-04-26T12:14:14.604Z,,,,,,,,,,,,,,,,,53,,,,,,,,,,,,,,326.6390000040119,,response,,,,99,,,,,,,Space,keypress(Space),,,,,,,,---- -- ----- -- ------ - ------- --- ----------<br>------------- ------ ------ ---- ---- ------- ----- -- ----<br>-------- ------- -- ---------- --- - --- ----- ----- ----<br>---- --- --- ----- --- ---- ---- ------- ----- ---- -------<br>--- --- -- ----- -- --- ---- -- --- ---- -- ------ really<br>--- ----- -- ----,179128.1500000041,179123.185000004,178779.88,178787.41499999887,178796.546,179129.866,,51,really
screen,html.Screen,2_1_0_1_52,2021-04-26T12:14:14.970Z,,,,,,,,,,,,,,,,,53,,,,,,,,,,,,,,358.2639999979001,,response,,,,99,,,,,,,Space,keypress(Space),,,,,,,,---- -- ----- -- ------ - ------- --- ----------<br>------------- ------ ------ ---- ---- ------- ----- -- ----<br>-------- ------- -- ---------- --- - --- ----- ----- ----<br>---- --- --- ----- --- ---- ---- ------- ----- ---- -------<br>--- --- -- ----- -- --- ---- -- --- ---- -- ------ ------<br>not ----- -- ----,179493.30999999802,179488.1299999979,179113.2,179128.31500000175,179129.866,179496.518,,52,not
screen,html.Screen,2_1_0_1_53,2021-04-26T12:14:15.327Z,,,,,,,,,,,,,,,,,53,,,,,,,,,,,,,,348.581999998627,,response,,,,99,,,,,,,Space,keypress(Space),,,,,,,,---- -- ----- -- ------ - ------- --- ----------<br>------------- ------ ------ ---- ---- ------- ----- -- ----<br>-------- ------- -- ---------- --- - --- ----- ----- ----<br>---- --- --- ----- --- ---- ---- ------- ----- ---- -------<br>--- --- -- ----- -- --- ---- -- --- ---- -- ------ ------<br>--- close -- ----,179850.400000003,179845.09999999864,179479.852,179493.47000000125,179496.518,179863.17,,53,close
screen,html.Screen,2_1_0_1_54,2021-04-26T12:14:15.667Z,,,,,,,,,,,,,,,,,53,,,,,,,,,,,,,,322.94000000235974,,response,,,,99,,,,,,,Space,keypress(Space),,,,,,,,---- -- ----- -- ------ - ------- --- ----------<br>------------- ------ ------ ---- ---- ------- ----- -- ----<br>-------- ------- -- ---------- --- - --- ----- ----- ----<br>---- --- --- ----- --- ---- ---- ------- ----- ---- -------<br>--- --- -- ----- -- --- ---- -- --- ---- -- ------ ------<br>--- ----- at ----,180191.20000000112,180186.11000000237,179846.504,179850.57999999844,179863.17,180196.49,,54,at
screen,html.Screen,2_1_0_1_55,2021-04-26T12:14:15.956Z,,,,,,,,,,,,,,,,,53,,,,,,,,,,,,,,277.7950000038836,,response,,,,99,,,,,,,Space,keypress(Space),,,,,,,,---- -- ----- -- ------ - ------- --- ----------<br>------------- ------ ------ ---- ---- ------- ----- -- ----<br>-------- ------- -- ---------- --- - --- ----- ----- ----<br>---- --- --- ----- --- ---- ---- ------- ----- ---- -------<br>--- --- -- ----- -- --- ---- -- --- ---- -- ------ ------<br>--- ----- -- all.,180479.40999999992,180474.28500000387,180179.824,180191.35500000266,180196.49,180496.478,,55,all.
Item 99,flow.Loop,2_1_0_1,2021-04-26T12:14:15.956Z,,,,,,,,,,,,,,,,,,,,,,,,,,,,,,,25082.928000003885,,completion,,,,,B,,,,,,,,,,,silence,,,,,180479.7350000008,180474.28500000387,155374.691,155377.24999999773,155391.357,180496.478,,,
Question 1,html.Screen,2_1_0_2,2021-04-26T12:14:19.914Z,,,,,,,,,,,,,,,,,,,,,,,,,,,,true,FALSE,,3938.6220000024186,,response,,,,99,B,,,,,,FALSE,click #choice-2,,,,silence,,,,,184437.91000000056,184435.10000000242,180479.812,180479.95999999694,180496.478,184462.986,,,
Question 2,html.Screen,2_1_0_3,2021-04-26T12:14:24.220Z,,,,,,,,,,,,,,,,,,,,,,,,,,,,true,TRUE,,4279.078999998543,,response,,,,99,B,,,,,,TRUE,click #choice-1,,,,silence,,,,,188743.79000000044,188742.06499999855,184446.32,184438.0850000016,184462.986,188774.11,,,
Item 99,flow.Sequence,2_1_0,2021-04-26T12:14:24.220Z,,,,,,,,,,,,,,,,,,,,,,,,,,,,,,,43347.57799999855,,completion,,,,,,,,,,,,,,,,,,,,,188743.9200000008,188742.06499999855,145377.821,145380.66000000254,145394.487,188774.11,,,
Holding screen,html.Screen,2_1_1_0,2021-04-26T12:14:34.231Z,,,,,,,,,,,,,,,,,,,,,,,,,,,,,,,9995.295000000013,,timeout,,,,,,,,,,,,,,,,,,,,,198754.41000000137,198752.739,188757.444,188744.00500000047,188774.11,198769.405,,,
screen,html.Screen,2_1_1_1_0,2021-04-26T12:14:35.035Z,,,,,,,,,,,,,,,,,54,,,,,,,,,,,,,,782.4450000034703,,response,,,,100,,,,,,,Space,keypress(Space),,,,,,,,At --- ---- --- ------ ----- ------- ---- -- --- ------- --<br>------- ---------- ------ -- ----- -- ----- -- ---- ------<br>--- ----- --- --- ------ -------- ----- --- ------ ----- --<br>----- ----- ---------- --- --- ------ ------ ---- -- ------<br>------- --- ------ ----- --- ---- ------- -- ---- --- --<br>------- ------,199558.7799999994,199551.85000000347,198752.739,198754.54999999783,198769.405,199569.373,,0,At
screen,html.Screen,2_1_1_1_1,2021-04-26T12:14:35.450Z,,,,,,,,,,,,,,,,,54,,,,,,,,,,,,,,399.5419999976584,,response,,,,100,,,,,,,Space,keypress(Space),,,,,,,,-- the ---- --- ------ ----- ------- ---- -- --- ------- --<br>------- ---------- ------ -- ----- -- ----- -- ---- ------<br>--- ----- --- --- ------ -------- ----- --- ------ ----- --<br>----- ----- ---------- --- --- ------ ------ ---- -- ------<br>------- --- ------ ----- --- ---- ------- -- ---- --- --<br>------- ------,199973.9849999969,199968.91499999765,199552.707,199558.90000000363,199569.373,199986.023,,1,the
screen,html.Screen,2_1_1_1_2,2021-04-26T12:14:35.802Z,,,,,,,,,,,,,,,,,54,,,,,,,,,,,,,,333.872000000556,,response,,,,100,,,,,,,Space,keypress(Space),,,,,,,,-- --- time --- ------ ----- ------- ---- -- --- ------- --<br>------- ---------- ------ -- ----- -- ----- -- ---- ------<br>--- ----- --- --- ------ -------- ----- --- ------ ----- --<br>----- ----- ---------- --- --- ------ ------ ---- -- ------<br>------- --- ------ ----- --- ---- ------- -- ---- --- --<br>------- ------,200325.04999999946,200319.89500000054,199969.357,199974.15000000183,199986.023,200336.009,,2,time
screen,html.Screen,2_1_1_1_3,2021-04-26T12:14:36.119Z,,,,,,,,,,,,,,,,,54,,,,,,,,,,,,,,301.8010000001814,,response,,,,100,,,,,,,Space,keypress(Space),,,,,,,,-- --- ---- the ------ ----- ------- ---- -- --- ------- --<br>------- ---------- ------ -- ----- -- ----- -- ---- ------<br>--- ----- --- --- ------ -------- ----- --- ------ ----- --<br>----- ----- ---------- --- --- ------ ------ ---- -- ------<br>------- --- ------ ----- --- ---- ------- -- ---- --- --<br>------- ------,200642.86500000162,200637.81000000017,200319.343,200325.2100000027,200336.009,200652.663,,3,the
screen,html.Screen,2_1_1_1_4,2021-04-26T12:14:36.391Z,,,,,,,,,,,,,,,,,54,,,,,,,,,,,,,,257.2169999992475,,response,,,,100,,,,,,,Space,keypress(Space),,,,,,,,-- --- ---- --- French ----- ------- ---- -- --- ------- --<br>------- ---------- ------ -- ----- -- ----- -- ---- ------<br>--- ----- --- --- ------ -------- ----- --- ------ ----- --<br>----- ----- ---------- --- --- ------ ------ ---- -- ------<br>------- --- ------ ----- --- ---- ------- -- ---- --- --<br>------- ------,200914.89,200909.87999999925,200635.997,200643.04000000266,200652.663,200919.319,,4,French
screen,html.Screen,2_1_1_1_5,2021-04-26T12:14:36.672Z,,,,,,,,,,,,,,,,,54,,,,,,,,,,,,,,270.5510000019858,,response,,,,100,,,,,,,Space,keypress(Space),,,,,,,,-- --- ---- --- ------ crown ------- ---- -- --- ------- --<br>------- ---------- ------ -- ----- -- ----- -- ---- ------<br>--- ----- --- --- ------ -------- ----- --- ------ ----- --<br>----- ----- ---------- --- --- ------ ------ ---- -- ------<br>------- --- ------ ----- --- ---- ------- -- ---- --- --<br>------- ------,201195.41000000027,201189.87000000197,200902.653,200915.05000000325,200919.319,201202.641,,5,crown
screen,html.Screen,2_1_1_1_6,2021-04-26T12:14:37.126Z,,,,,,,,,,,,,,,,,54,,,,,,,,,,,,,,442.219000000332,,response,,,,100,,,,,,,Space,keypress(Space),,,,,,,,-- --- ---- --- ------ ----- secured ---- -- --- ------- --<br>------- ---------- ------ -- ----- -- ----- -- ---- ------<br>--- ----- --- --- ------ -------- ----- --- ------ ----- --<br>----- ----- ---------- --- --- ------ ------ ---- -- ------<br>------- --- ------ ----- --- ---- ------- -- ---- --- --<br>------- ------,201649.8900000006,201644.86000000034,201185.975,201195.57499999792,201202.641,201652.623,,6,secured
screen,html.Screen,2_1_1_1_7,2021-04-26T12:14:37.474Z,,,,,,,,,,,,,,,,,54,,,,,,,,,,,,,,340.2320000040636,,response,,,,100,,,,,,,Space,keypress(Space),,,,,,,,-- --- ---- --- ------ ----- ------- much -- --- ------- --<br>------- ---------- ------ -- ----- -- ----- -- ---- ------<br>--- ----- --- --- ------ -------- ----- --- ------ ----- --<br>----- ----- ---------- --- --- ------ ------ ---- -- ------<br>------- --- ------ ----- --- ---- ------- -- ---- --- --<br>------- ------,201997.9800000001,201992.85500000406,201635.957,201650.05000000383,201652.623,202002.609,,7,much
screen,html.Screen,2_1_1_1_8,2021-04-26T12:14:37.795Z,,,,,,,,,,,,,,,,,54,,,,,,,,,,,,,,311.2310000025318,,response,,,,100,,,,,,,Space,keypress(Space),,,,,,,,-- --- ---- --- ------ ----- ------- ---- of --- ------- --<br>------- ---------- ------ -- ----- -- ----- -- ---- ------<br>--- ----- --- --- ------ -------- ----- --- ------ ----- --<br>----- ----- ---------- --- --- ------ ------ ---- -- ------<br>------- --- ------ ----- --- ---- ------- -- ---- --- --<br>------- ------,202318.8399999999,202313.84000000253,201985.943,201998.14000000333,202002.609,202335.929,,8,of
screen,html.Screen,2_1_1_1_9,2021-04-26T12:14:38.101Z,,,,,,,,,,,,,,,,,54,,,,,,,,,,,,,,283.88599999819417,,response,,,,100,,,,,,,Space,keypress(Space),,,,,,,,-- --- ---- --- ------ ----- ------- ---- -- its ------- --<br>------- ---------- ------ -- ----- -- ----- -- ---- ------<br>--- ----- --- --- ------ -------- ----- --- ------ ----- --<br>----- ----- ---------- --- --- ------ ------ ---- -- ------<br>------- --- ------ ----- --- ---- ------- -- ---- --- --<br>------- ------,202624.77500000386,202619.8149999982,202319.263,202319.00000000314,202335.929,202635.917,,9,its
screen,html.Screen,2_1_1_1_10,2021-04-26T12:14:38.863Z,,,,,,,,,,,,,,,,,54,,,,,,,,,,,,,,743.8580000012589,,response,,,,100,,,,,,,Space,keypress(Space),,,,,,,,-- --- ---- --- ------ ----- ------- ---- -- --- revenue --<br>------- ---------- ------ -- ----- -- ----- -- ---- ------<br>--- ----- --- --- ------ -------- ----- --- ------ ----- --<br>----- ----- ---------- --- --- ------ ------ ---- -- ------<br>------- --- ------ ----- --- ---- ------- -- ---- --- --<br>------- ------,203386.33000000118,203379.77500000125,202619.251,202624.94000000152,202635.917,203402.553,,10,revenue
screen,html.Screen,2_1_1_1_11,2021-04-26T12:14:39.281Z,,,,,,,,,,,,,,,,,54,,,,,,,,,,,,,,396.30700000259094,,response,,,,100,,,,,,,Space,keypress(Space),,,,,,,,-- --- ---- --- ------ ----- ------- ---- -- --- ------- by<br>------- ---------- ------ -- ----- -- ----- -- ---- ------<br>--- ----- --- --- ------ -------- ----- --- ------ ----- --<br>----- ----- ---------- --- --- ------ ------ ---- -- ------<br>------- --- ------ ----- --- ---- ------- -- ---- --- --<br>------- ------,203804.3400000024,203798.8600000026,203385.887,203386.44500000373,203402.553,203819.203,,11,by
screen,html.Screen,2_1_1_1_12,2021-04-26T12:14:39.594Z,,,,,,,,,,,,,,,,,54,,,,,,,,,,,,,,295.27700000381446,,response,,,,100,,,,,,,Space,keypress(Space),,,,,,,,-- --- ---- --- ------ ----- ------- ---- -- --- ------- --<br>issuing ---------- ------ -- ----- -- ----- -- ---- ------<br>--- ----- --- --- ------ -------- ----- --- ------ ----- --<br>----- ----- ---------- --- --- ------ ------ ---- -- ------<br>------- --- ------ ----- --- ---- ------- -- ---- --- --<br>------- ------,204117.62499999895,204114.48000000382,203802.537,203804.79000000196,203819.203,204119.191,,12,issuing
screen,html.Screen,2_1_1_1_13,2021-04-26T12:14:39.907Z,,,,,,,,,,,,,,,,,54,,,,,,,,,,,,,,305.789000003424,,response,,,,100,,,,,,,Space,keypress(Space),,,,,,,,-- --- ---- --- ------ ----- ------- ---- -- --- ------- --<br>------- government ------ -- ----- -- ----- -- ---- ------<br>--- ----- --- --- ------ -------- ----- --- ------ ----- --<br>----- ----- ---------- --- --- ------ ------ ---- -- ------<br>------- --- ------ ----- --- ---- ------- -- ---- --- --<br>------- ------,204430.18000000302,204424.98000000342,204102.525,204117.72999999812,204119.191,204435.845,,13,government
screen,html.Screen,2_1_1_1_14,2021-04-26T12:14:40.362Z,,,,,,,,,,,,,,,,,54,,,,,,,,,,,,,,444.9299999978102,,response,,,,100,,,,,,,Space,keypress(Space),,,,,,,,-- --- ---- --- ------ ----- ------- ---- -- --- ------- --<br>------- ---------- bonds. -- ----- -- ----- -- ---- ------<br>--- ----- --- --- ------ -------- ----- --- ------ ----- --<br>----- ----- ---------- --- --- ------ ------ ---- -- ------<br>------- --- ------ ----- --- ---- ------- -- ---- --- --<br>------- ------,204885.79000000027,204880.7749999978,204419.179,204430.34500000067,204435.845,204902.493,,14,bonds.
screen,html.Screen,2_1_1_1_15,2021-04-26T12:14:41.933Z,,,,,,,,,,,,,,,,,54,,,,,,,,,,,,,,1548.0970000003872,,response,,,,100,,,,,,,Space,keypress(Space),,,,,,,,-- --- ---- --- ------ ----- ------- ---- -- --- ------- --<br>------- ---------- ------ In ----- -- ----- -- ---- ------<br>--- ----- --- --- ------ -------- ----- --- ------ ----- --<br>----- ----- ---------- --- --- ------ ------ ---- -- ------<br>------- --- ------ ----- --- ---- ------- -- ---- --- --<br>------- ------,206456.11500000086,206450.59000000037,204885.827,204885.95499999792,204902.493,206469.097,,15,In
screen,html.Screen,2_1_1_1_16,2021-04-26T12:14:42.297Z,,,,,,,,,,,,,,,,,54,,,,,,,,,,,,,,346.6280000003753,,response,,,,100,,,,,,,Space,keypress(Space),,,,,,,,"-- --- ---- --- ------ ----- ------- ---- -- --- ------- --<br>------- ---------- ------ -- 1727, -- ----- -- ---- ------<br>--- ----- --- --- ------ -------- ----- --- ------ ----- --<br>----- ----- ---------- --- --- ------ ------ ---- -- ------<br>------- --- ------ ----- --- ---- ------- -- ---- --- --<br>------- ------",206820.82500000251,206815.72500000038,206452.431,206456.2799999985,206469.097,206835.749,,16,"1727,"
screen,html.Screen,2_1_1_1_17,2021-04-26T12:14:43.644Z,,,,,,,,,,,,,,,,,54,,,,,,,,,,,,,,1324.8809999984805,,response,,,,100,,,,,,,Space,keypress(Space),,,,,,,,-- --- ---- --- ------ ----- ------- ---- -- --- ------- --<br>------- ---------- ------ -- ----- in ----- -- ---- ------<br>--- ----- --- --- ------ -------- ----- --- ------ ----- --<br>----- ----- ---------- --- --- ------ ------ ---- -- ------<br>------- --- ------ ----- --- ---- ------- -- ---- --- --<br>------- ------,208167.37000000285,208160.6299999985,206819.083,206820.98499999847,206835.749,208169.029,,17,in
screen,html.Screen,2_1_1_1_18,2021-04-26T12:14:43.979Z,,,,,,,,,,,,,,,,,54,,,,,,,,,,,,,,328.45599999986007,,response,,,,100,,,,,,,Space,keypress(Space),,,,,,,,-- --- ---- --- ------ ----- ------- ---- -- --- ------- --<br>------- ---------- ------ -- ----- -- order -- ---- ------<br>--- ----- --- --- ------ -------- ----- --- ------ ----- --<br>----- ----- ---------- --- --- ------ ------ ---- -- ------<br>------- --- ------ ----- --- ---- ------- -- ---- --- --<br>------- ------,208502.40499999927,208497.48499999987,208152.363,208167.5299999988,208169.029,208511.792,,18,order
screen,html.Screen,2_1_1_1_19,2021-04-26T12:14:44.300Z,,,,,,,,,,,,,,,,,54,,,,,,,,,,,,,,306.78799999921466,,response,,,,100,,,,,,,Space,keypress(Space),,,,,,,,-- --- ---- --- ------ ----- ------- ---- -- --- ------- --<br>------- ---------- ------ -- ----- -- ----- to ---- ------<br>--- ----- --- --- ------ -------- ----- --- ------ ----- --<br>----- ----- ---------- --- --- ------ ------ ---- -- ------<br>------- --- ------ ----- --- ---- ------- -- ---- --- --<br>------- ------,208823.7500000032,208818.5799999992,208495.126,208502.67500000336,208511.792,208828.446,,19,to
screen,html.Screen,2_1_1_1_20,2021-04-26T12:14:44.592Z,,,,,,,,,,,,,,,,,54,,,,,,,,,,,,,,282.1190000026836,,response,,,,100,,,,,,,Space,keypress(Space),,,,,,,,-- --- ---- --- ------ ----- ------- ---- -- --- ------- --<br>------- ---------- ------ -- ----- -- ----- -- save ------<br>--- ----- --- --- ------ -------- ----- --- ------ ----- --<br>----- ----- ---------- --- --- ------ ------ ---- -- ------<br>------- --- ------ ----- --- ---- ------- -- ---- --- --<br>------- ------,209115.67500000092,209110.56500000268,208811.78,208823.90999999916,208828.446,209128.434,,20,save
screen,html.Screen,2_1_1_1_21,2021-04-26T12:14:44.938Z,,,,,,,,,,,,,,,,,54,,,,,,,,,,,,,,327.9010000025737,,response,,,,100,,,,,,,Space,keypress(Space),,,,,,,,"-- --- ---- --- ------ ----- ------- ---- -- --- ------- --<br>------- ---------- ------ -- ----- -- ----- -- ---- money,<br>--- ----- --- --- ------ -------- ----- --- ------ ----- --<br>----- ----- ---------- --- --- ------ ------ ---- -- ------<br>------- --- ------ ----- --- ---- ------- -- ---- --- --<br>------- ------",209461.47999999812,209456.33500000258,209111.768,209115.83499999688,209128.434,209478.42,,21,"money,"
screen,html.Screen,2_1_1_1_22,2021-04-26T12:14:45.571Z,,,,,,,,,,,,,,,,,54,,,,,,,,,,,,,,609.1099999970465,,response,,,,100,,,,,,,Space,keypress(Space),,,,,,,,-- --- ---- --- ------ ----- ------- ---- -- --- ------- --<br>------- ---------- ------ -- ----- -- ----- -- ---- ------<br>the ----- --- --- ------ -------- ----- --- ------ ----- --<br>----- ----- ---------- --- --- ------ ------ ---- -- ------<br>------- --- ------ ----- --- ---- ------- -- ---- --- --<br>------- ------,210094.19499999785,210087.52999999706,209461.754,209461.64000000135,209478.42,210111.728,,22,the
screen,html.Screen,2_1_1_1_23,2021-04-26T12:14:45.873Z,,,,,,,,,,,,,,,,,54,,,,,,,,,,,,,,279.751999998407,,response,,,,100,,,,,,,Space,keypress(Space),,,,,,,,-- --- ---- --- ------ ----- ------- ---- -- --- ------- --<br>------- ---------- ------ -- ----- -- ----- -- ---- ------<br>--- state --- --- ------ -------- ----- --- ------ ----- --<br>----- ----- ---------- --- --- ------ ------ ---- -- ------<br>------- --- ------ ----- --- ---- ------- -- ---- --- --<br>------- ------,210396.64500000072,210391.4799999984,210095.062,210094.3649999972,210111.728,210411.716,,23,state
screen,html.Screen,2_1_1_1_24,2021-04-26T12:14:46.337Z,,,,,,,,,,,,,,,,,54,,,,,,,,,,,,,,442.65400000094087,,response,,,,100,,,,,,,Space,keypress(Space),,,,,,,,-- --- ---- --- ------ ----- ------- ---- -- --- ------- --<br>------- ---------- ------ -- ----- -- ----- -- ---- ------<br>--- ----- cut --- ------ -------- ----- --- ------ ----- --<br>----- ----- ---------- --- --- ------ ------ ---- -- ------<br>------- --- ------ ----- --- ---- ------- -- ---- --- --<br>------- ------,210860.2000000028,210854.37000000093,210395.05,210396.80500000395,210411.716,210861.698,,24,cut
screen,html.Screen,2_1_1_1_25,2021-04-26T12:14:46.650Z,,,,,,,,,,,,,,,,,54,,,,,,,,,,,,,,306.7170000000915,,response,,,,100,,,,,,,Space,keypress(Space),,,,,,,,-- --- ---- --- ------ ----- ------- ---- -- --- ------- --<br>------- ---------- ------ -- ----- -- ----- -- ---- ------<br>--- ----- --- the ------ -------- ----- --- ------ ----- --<br>----- ----- ---------- --- --- ------ ------ ---- -- ------<br>------- --- ------ ----- --- ---- ------- -- ---- --- --<br>------- ------,211173.77000000124,211168.4150000001,210845.032,210860.5349999998,210861.698,211178.352,,25,the
screen,html.Screen,2_1_1_1_26,2021-04-26T12:14:46.926Z,,,,,,,,,,,,,,,,,54,,,,,,,,,,,,,,266.1380000016652,,response,,,,100,,,,,,,Space,keypress(Space),,,,,,,,-- --- ---- --- ------ ----- ------- ---- -- --- ------- --<br>------- ---------- ------ -- ----- -- ----- -- ---- ------<br>--- ----- --- --- bonds' -------- ----- --- ------ ----- --<br>----- ----- ---------- --- --- ------ ------ ---- -- ------<br>------- --- ------ ----- --- ---- ------- -- ---- --- --<br>------- ------,211449.47500000126,211444.49000000168,211161.686,211173.94500000228,211178.352,211461.674,,26,bonds'
screen,html.Screen,2_1_1_1_27,2021-04-26T12:14:47.465Z,,,,,,,,,,,,,,,,,54,,,,,,,,,,,,,,521.7309999990393,,response,,,,100,,,,,,,Space,keypress(Space),,,,,,,,-- --- ---- --- ------ ----- ------- ---- -- --- ------- --<br>------- ---------- ------ -- ----- -- ----- -- ---- ------<br>--- ----- --- --- ------ interest ----- --- ------ ----- --<br>----- ----- ---------- --- --- ------ ------ ---- -- ------<br>------- --- ------ ----- --- ---- ------- -- ---- --- --<br>------- ------,211988.7549999985,211983.40499999904,211445.008,211449.6399999989,211461.674,211994.986,,27,interest
screen,html.Screen,2_1_1_1_28,2021-04-26T12:14:47.695Z,,,,,,,,,,,,,,,,,54,,,,,,,,,,,,,,218.4289999983448,,response,,,,100,,,,,,,Space,keypress(Space),,,,,,,,-- --- ---- --- ------ ----- ------- ---- -- --- ------- --<br>------- ---------- ------ -- ----- -- ----- -- ---- ------<br>--- ----- --- --- ------ -------- rate. --- ------ ----- --<br>----- ----- ---------- --- --- ------ ------ ---- -- ------<br>------- --- ------ ----- --- ---- ------- -- ---- --- --<br>------- ------,212218.67000000202,212213.41499999835,211978.32,211988.91500000173,211994.986,212228.31,,28,rate.
screen,html.Screen,2_1_1_1_29,2021-04-26T12:14:48.733Z,,,,,,,,,,,,,,,,,54,,,,,,,,,,,,,,1023.3300000022282,,response,,,,100,,,,,,,Space,keypress(Space),,,,,,,,-- --- ---- --- ------ ----- ------- ---- -- --- ------- --<br>------- ---------- ------ -- ----- -- ----- -- ---- ------<br>--- ----- --- --- ------ -------- ----- The ------ ----- --<br>----- ----- ---------- --- --- ------ ------ ---- -- ------<br>------- --- ------ ----- --- ---- ------- -- ---- --- --<br>------- ------,213256.55499999993,213251.64000000223,212211.644,212218.83499999967,212228.31,213261.602,,29,The
screen,html.Screen,2_1_1_1_30,2021-04-26T12:14:49.000Z,,,,,,,,,,,,,,,,,54,,,,,,,,,,,,,,256.8529999976163,,response,,,,100,,,,,,,Space,keypress(Space),,,,,,,,-- --- ---- --- ------ ----- ------- ---- -- --- ------- --<br>------- ---------- ------ -- ----- -- ----- -- ---- ------<br>--- ----- --- --- ------ -------- ----- --- market ----- --<br>----- ----- ---------- --- --- ------ ------ ---- -- ------<br>------- --- ------ ----- --- ---- ------- -- ---- --- --<br>------- ------,213523.52000000246,213518.45499999763,213244.936,213256.80499999726,213261.602,213528.258,,30,market
screen,html.Screen,2_1_1_1_31,2021-04-26T12:14:49.422Z,,,,,,,,,,,,,,,,,54,,,,,,,,,,,,,,412.14700000119046,,response,,,,100,,,,,,,Space,keypress(Space),,,,,,,,-- --- ---- --- ------ ----- ------- ---- -- --- ------- --<br>------- ---------- ------ -- ----- -- ----- -- ---- ------<br>--- ----- --- --- ------ -------- ----- --- ------ value --<br>----- ----- ---------- --- --- ------ ------ ---- -- ------<br>------- --- ------ ----- --- ---- ------- -- ---- --- --<br>------- ------,213945.48500000383,213940.4050000012,213511.592,213523.67999999842,213528.258,213961.574,,31,value
screen,html.Screen,2_1_1_1_32,2021-04-26T12:14:49.751Z,,,,,,,,,,,,,,,,,54,,,,,,,,,,,,,,307.8109999996086,,response,,,,100,,,,,,,Space,keypress(Space),,,,,,,,-- --- ---- --- ------ ----- ------- ---- -- --- ------- --<br>------- ---------- ------ -- ----- -- ----- -- ---- ------<br>--- ----- --- --- ------ -------- ----- --- ------ ----- of<br>----- ----- ---------- --- --- ------ ------ ---- -- ------<br>------- --- ------ ----- --- ---- ------- -- ---- --- --<br>------- ------,214274.34000000358,214269.3849999996,213944.908,213945.65000000148,213961.574,214278.228,,32,of
screen,html.Screen,2_1_1_1_33,2021-04-26T12:14:50.108Z,,,,,,,,,,,,,,,,,54,,,,,,,,,,,,,,348.16699999931734,,response,,,,100,,,,,,,Space,keypress(Space),,,,,,,,-- --- ---- --- ------ ----- ------- ---- -- --- ------- --<br>------- ---------- ------ -- ----- -- ----- -- ---- ------<br>--- ----- --- --- ------ -------- ----- --- ------ ----- --<br>these ----- ---------- --- --- ------ ------ ---- -- ------<br>------- --- ------ ----- --- ---- ------- -- ---- --- --<br>------- ------,214631.48999999976,214626.39499999932,214261.562,214274.50500000123,214278.228,214644.88,,33,these
screen,html.Screen,2_1_1_1_34,2021-04-26T12:14:50.428Z,,,,,,,,,,,,,,,,,54,,,,,,,,,,,,,,301.5300000041025,,response,,,,100,,,,,,,Space,keypress(Space),,,,,,,,-- --- ---- --- ------ ----- ------- ---- -- --- ------- --<br>------- ---------- ------ -- ----- -- ----- -- ---- ------<br>--- ----- --- --- ------ -------- ----- --- ------ ----- --<br>----- bonds ---------- --- --- ------ ------ ---- -- ------<br>------- --- ------ ----- --- ---- ------- -- ---- --- --<br>------- ------,214951.3799999986,214946.4100000041,214628.214,214631.650000003,214644.88,214961.534,,34,bonds
screen,html.Screen,2_1_1_1_35,2021-04-26T12:14:52.112Z,,,,,,,,,,,,,,,,,54,,,,,,,,,,,,,,1667.831000000675,,response,,,,100,,,,,,,Space,keypress(Space),,,,,,,,"-- --- ---- --- ------ ----- ------- ---- -- --- ------- --<br>------- ---------- ------ -- ----- -- ----- -- ---- ------<br>--- ----- --- --- ------ -------- ----- --- ------ ----- --<br>----- ----- plummeted, --- --- ------ ------ ---- -- ------<br>------- --- ------ ----- --- ---- ------- -- ---- --- --<br>------- ------",216635.0900000034,216629.3650000007,214944.868,214951.54000000184,214961.534,216644.8,,35,"plummeted,"
screen,html.Screen,2_1_1_1_36,2021-04-26T12:14:52.507Z,,,,,,,,,,,,,,,,,54,,,,,,,,,,,,,,380.28500000113854,,response,,,,100,,,,,,,Space,keypress(Space),,,,,,,,-- --- ---- --- ------ ----- ------- ---- -- --- ------- --<br>------- ---------- ------ -- ----- -- ----- -- ---- ------<br>--- ----- --- --- ------ -------- ----- --- ------ ----- --<br>----- ----- ---------- and --- ------ ------ ---- -- ------<br>------- --- ------ ----- --- ---- ------- -- ---- --- --<br>------- ------,217030.02500000002,217025.08500000113,216628.134,216635.26000000275,216644.8,217044.784,,36,and
screen,html.Screen,2_1_1_1_37,2021-04-26T12:14:52.973Z,,,,,,,,,,,,,,,,,54,,,,,,,,,,,,,,446.4960000019928,,response,,,,100,,,,,,,Space,keypress(Space),,,,,,,,-- --- ---- --- ------ ----- ------- ---- -- --- ------- --<br>------- ---------- ------ -- ----- -- ----- -- ---- ------<br>--- ----- --- --- ------ -------- ----- --- ------ ----- --<br>----- ----- ---------- --- the ------ ------ ---- -- ------<br>------- --- ------ ----- --- ---- ------- -- ---- --- --<br>------- ------,217496.31999999838,217491.280000002,217028.118,217030.24000000005,217044.784,217511.432,,37,the
screen,html.Screen,2_1_1_1_38,2021-04-26T12:14:53.264Z,,,,,,,,,,,,,,,,,54,,,,,,,,,,,,,,272.5480000001553,,response,,,,100,,,,,,,Space,keypress(Space),,,,,,,,-- --- ---- --- ------ ----- ------- ---- -- --- ------- --<br>------- ---------- ------ -- ----- -- ----- -- ---- ------<br>--- ----- --- --- ------ -------- ----- --- ------ ----- --<br>----- ----- ---------- --- --- market ------ ---- -- ------<br>------- --- ------ ----- --- ---- ------- -- ---- --- --<br>------- ------,217786.99000000051,217783.98000000016,217494.766,217496.4850000033,217511.432,217803.386,,38,market
screen,html.Screen,2_1_1_1_39,2021-04-26T12:14:53.716Z,,,,,,,,,,,,,,,,,54,,,,,,,,,,,,,,430.83900000015274,,response,,,,100,,,,,,,Space,keypress(Space),,,,,,,,-- --- ---- --- ------ ----- ------- ---- -- --- ------- --<br>------- ---------- ------ -- ----- -- ----- -- ---- ------<br>--- ----- --- --- ------ -------- ----- --- ------ ----- --<br>----- ----- ---------- --- --- ------ became ---- -- ------<br>------- --- ------ ----- --- ---- ------- -- ---- --- --<br>------- ------,218239.34000000008,218234.22500000015,217786.72,217787.0699999985,217803.386,218253.368,,39,became
screen,html.Screen,2_1_1_1_40,2021-04-26T12:14:54.136Z,,,,,,,,,,,,,,,,,54,,,,,,,,,,,,,,400.85699999841745,,response,,,,100,,,,,,,Space,keypress(Space),,,,,,,,-- --- ---- --- ------ ----- ------- ---- -- --- ------- --<br>------- ---------- ------ -- ----- -- ----- -- ---- ------<br>--- ----- --- --- ------ -------- ----- --- ------ ----- --<br>----- ----- ---------- --- --- ------ ------ wary -- ------<br>------- --- ------ ----- --- ---- ------- -- ---- --- --<br>------- ------,218659.22999999748,218654.2249999984,218236.702,218239.50499999773,218253.368,218670.018,,40,wary
screen,html.Screen,2_1_1_1_41,2021-04-26T12:14:54.607Z,,,,,,,,,,,,,,,,,54,,,,,,,,,,,,,,455.191999998322,,response,,,,100,,,,,,,Space,keypress(Space),,,,,,,,-- --- ---- --- ------ ----- ------- ---- -- --- ------- --<br>------- ---------- ------ -- ----- -- ----- -- ---- ------<br>--- ----- --- --- ------ -------- ----- --- ------ ----- --<br>----- ----- ---------- --- --- ------ ------ ---- of ------<br>------- --- ------ ----- --- ---- ------- -- ---- --- --<br>------- ------,219130.2399999986,219125.20999999833,218653.352,218659.3950000024,218670.018,219136.666,,41,of
screen,html.Screen,2_1_1_1_42,2021-04-26T12:14:54.819Z,,,,,,,,,,,,,,,,,54,,,,,,,,,,,,,,200.51900000395835,,response,,,,100,,,,,,,Space,keypress(Space),,,,,,,,-- --- ---- --- ------ ----- ------- ---- -- --- ------- --<br>------- ---------- ------ -- ----- -- ----- -- ---- ------<br>--- ----- --- --- ------ -------- ----- --- ------ ----- --<br>----- ----- ---------- --- --- ------ ------ ---- -- French<br>------- --- ------ ----- --- ---- ------- -- ---- --- --<br>------- ------,219342.17499999795,219337.18500000396,219120,219130.40500000352,219136.666,219353.324,,42,French
screen,html.Screen,2_1_1_1_43,2021-04-26T12:14:56.387Z,,,,,,,,,,,,,,,,,54,,,,,,,,,,,,,,1548.8860000002023,,response,,,,100,,,,,,,Space,keypress(Space),,,,,,,,-- --- ---- --- ------ ----- ------- ---- -- --- ------- --<br>------- ---------- ------ -- ----- -- ----- -- ---- ------<br>--- ----- --- --- ------ -------- ----- --- ------ ----- --<br>----- ----- ---------- --- --- ------ ------ ---- -- ------<br>credit. --- ------ ----- --- ---- ------- -- ---- --- --<br>------- ------,220910.0299999991,220902.2100000002,219336.658,219342.34000000288,219353.324,220919.928,,43,credit.
screen,html.Screen,2_1_1_1_44,2021-04-26T12:14:56.678Z,,,,,,,,,,,,,,,,,54,,,,,,,,,,,,,,278.3769999980577,,response,,,,100,,,,,,,Space,keypress(Space),,,,,,,,-- --- ---- --- ------ ----- ------- ---- -- --- ------- --<br>------- ---------- ------ -- ----- -- ----- -- ---- ------<br>--- ----- --- --- ------ -------- ----- --- ------ ----- --<br>----- ----- ---------- --- --- ------ ------ ---- -- ------<br>------- The ------ ----- --- ---- ------- -- ---- --- --<br>------- ------,221201.27499999944,221198.30499999807,220903.262,220910.14500000165,220919.928,221203.25,,44,The
screen,html.Screen,2_1_1_1_45,2021-04-26T12:14:56.927Z,,,,,,,,,,,,,,,,,54,,,,,,,,,,,,,,241.87000000395346,,response,,,,100,,,,,,,Space,keypress(Space),,,,,,,,-- --- ---- --- ------ ----- ------- ---- -- --- ------- --<br>------- ---------- ------ -- ----- -- ----- -- ---- ------<br>--- ----- --- --- ------ -------- ----- --- ------ ----- --<br>----- ----- ---------- --- --- ------ ------ ---- -- ------<br>------- --- French ----- --- ---- ------- -- ---- --- --<br>------- ------,221450.1900000032,221445.12000000395,221186.584,221201.35499999742,221203.25,221453.24,,45,French
screen,html.Screen,2_1_1_1_46,2021-04-26T12:14:57.261Z,,,,,,,,,,,,,,,,,54,,,,,,,,,,,,,,325.959999997227,,response,,,,100,,,,,,,Space,keypress(Space),,,,,,,,-- --- ---- --- ------ ----- ------- ---- -- --- ------- --<br>------- ---------- ------ -- ----- -- ----- -- ---- ------<br>--- ----- --- --- ------ -------- ----- --- ------ ----- --<br>----- ----- ---------- --- --- ------ ------ ---- -- ------<br>------- --- ------ state --- ---- ------- -- ---- --- --<br>------- ------,221784.22000000137,221779.19999999722,221436.574,221450.34999999916,221453.24,221786.56,,46,state
screen,html.Screen,2_1_1_1_47,2021-04-26T12:14:57.626Z,,,,,,,,,,,,,,,,,54,,,,,,,,,,,,,,357.7250000021304,,response,,,,100,,,,,,,Space,keypress(Space),,,,,,,,-- --- ---- --- ------ ----- ------- ---- -- --- ------- --<br>------- ---------- ------ -- ----- -- ----- -- ---- ------<br>--- ----- --- --- ------ -------- ----- --- ------ ----- --<br>----- ----- ---------- --- --- ------ ------ ---- -- ------<br>------- --- ------ ----- was ---- ------- -- ---- --- --<br>------- ------,222149.3649999975,222144.28500000213,221769.894,221784.37999999733,221786.56,222153.212,,47,was
screen,html.Screen,2_1_1_1_48,2021-04-26T12:14:57.927Z,,,,,,,,,,,,,,,,,54,,,,,,,,,,,,,,291.91299999837065,,response,,,,100,,,,,,,Space,keypress(Space),,,,,,,,-- --- ---- --- ------ ----- ------- ---- -- --- ------- --<br>------- ---------- ------ -- ----- -- ----- -- ---- ------<br>--- ----- --- --- ------ -------- ----- --- ------ ----- --<br>----- ----- ---------- --- --- ------ ------ ---- -- ------<br>------- --- ------ ----- --- left ------- -- ---- --- --<br>------- ------,222450.31500000186,222445.12499999837,222136.546,222149.52500000072,222153.212,222453.2,,48,left
screen,html.Screen,2_1_1_1_49,2021-04-26T12:14:58.330Z,,,,,,,,,,,,,,,,,54,,,,,,,,,,,,,,394.73499999794876,,response,,,,100,,,,,,,Space,keypress(Space),,,,,,,,-- --- ---- --- ------ ----- ------- ---- -- --- ------- --<br>------- ---------- ------ -- ----- -- ----- -- ---- ------<br>--- ----- --- --- ------ -------- ----- --- ------ ----- --<br>----- ----- ---------- --- --- ------ ------ ---- -- ------<br>------- --- ------ ----- --- ---- without -- ---- --- --<br>------- ------,222852.9600000038,222847.93499999796,222436.534,222450.47999999952,222453.2,222869.85,,49,without
screen,html.Screen,2_1_1_1_50,2021-04-26T12:14:58.755Z,,,,,,,,,,,,,,,,,54,,,,,,,,,,,,,,403.2099999995262,,response,,,,100,,,,,,,Space,keypress(Space),,,,,,,,-- --- ---- --- ------ ----- ------- ---- -- --- ------- --<br>------- ---------- ------ -- ----- -- ----- -- ---- ------<br>--- ----- --- --- ------ -------- ----- --- ------ ----- --<br>----- ----- ---------- --- --- ------ ------ ---- -- ------<br>------- --- ------ ----- --- ---- ------- an ---- --- --<br>------- ------,223278.11500000098,223273.05999999953,222853.184,222853.12500000146,222869.85,223286.5,,50,an
screen,html.Screen,2_1_1_1_51,2021-04-26T12:14:59.058Z,,,,,,,,,,,,,,,,,54,,,,,,,,,,,,,,289.5549999977229,,response,,,,100,,,,,,,Space,keypress(Space),,,,,,,,-- --- ---- --- ------ ----- ------- ---- -- --- ------- --<br>------- ---------- ------ -- ----- -- ----- -- ---- ------<br>--- ----- --- --- ------ -------- ----- --- ------ ----- --<br>----- ----- ---------- --- --- ------ ------ ---- -- ------<br>------- --- ------ ----- --- ---- ------- -- easy --- --<br>------- ------,223581.25999999902,223576.05499999772,223269.834,223278.27499999694,223286.5,223586.488,,51,easy
screen,html.Screen,2_1_1_1_52,2021-04-26T12:14:59.388Z,,,,,,,,,,,,,,,,,54,,,,,,,,,,,,,,319.5770000028424,,response,,,,100,,,,,,,Space,keypress(Space),,,,,,,,-- --- ---- --- ------ ----- ------- ---- -- --- ------- --<br>------- ---------- ------ -- ----- -- ----- -- ---- ------<br>--- ----- --- --- ------ -------- ----- --- ------ ----- --<br>----- ----- ---------- --- --- ------ ------ ---- -- ------<br>------- --- ------ ----- --- ---- ------- -- ---- way --<br>------- ------,223911.03000000294,223906.06500000285,223569.822,223581.42999999836,223586.488,223919.808,,52,way
screen,html.Screen,2_1_1_1_53,2021-04-26T12:14:59.842Z,,,,,,,,,,,,,,,,,54,,,,,,,,,,,,,,440.24200000296696,,response,,,,100,,,,,,,Space,keypress(Space),,,,,,,,-- --- ---- --- ------ ----- ------- ---- -- --- ------- --<br>------- ---------- ------ -- ----- -- ----- -- ---- ------<br>--- ----- --- --- ------ -------- ----- --- ------ ----- --<br>----- ----- ---------- --- --- ------ ------ ---- -- ------<br>------- --- ------ ----- --- ---- ------- -- ---- --- of<br>------- ------,224365.18500000238,224360.05000000296,223903.142,223911.21500000008,223919.808,224369.79,,53,of
screen,html.Screen,2_1_1_1_54,2021-04-26T12:15:00.370Z,,,,,,,,,,,,,,,,,54,,,,,,,,,,,,,,517.235000003624,,response,,,,100,,,,,,,Space,keypress(Space),,,,,,,,-- --- ---- --- ------ ----- ------- ---- -- --- ------- --<br>------- ---------- ------ -- ----- -- ----- -- ---- ------<br>--- ----- --- --- ------ -------- ----- --- ------ ----- --<br>----- ----- ---------- --- --- ------ ------ ---- -- ------<br>------- --- ------ ----- --- ---- ------- -- ---- --- --<br>raising ------,224893.1900000025,224887.02500000363,224353.124,224365.35000000003,224369.79,224903.102,,54,raising
screen,html.Screen,2_1_1_1_55,2021-04-26T12:15:01.040Z,,,,,,,,,,,,,,,,,54,,,,,,,,,,,,,,655.7080000022543,,response,,,,100,,,,,,,Space,keypress(Space),,,,,,,,-- --- ---- --- ------ ----- ------- ---- -- --- ------- --<br>------- ---------- ------ -- ----- -- ----- -- ---- ------<br>--- ----- --- --- ------ -------- ----- --- ------ ----- --<br>----- ----- ---------- --- --- ------ ------ ---- -- ------<br>------- --- ------ ----- --- ---- ------- -- ---- --- --<br>------- money.,225563.71000000217,225558.81000000227,224886.436,224893.35500000016,224903.102,225569.742,,55,money.
Item 100,flow.Loop,2_1_1_1,2021-04-26T12:15:01.041Z,,,,,,,,,,,,,,,,,,,,,,,,,,,,,,,26789.40500000227,,completion,,,,,B,,,,,,,,,,,silence,,,,,225564.08000000374,225558.81000000227,198752.739,198754.51500000054,198769.405,225569.742,,,
Question 1,html.Screen,2_1_1_2,2021-04-26T12:15:04.625Z,,,,,,,,,,,,,,,,,,,,,,,,,,,,true,TRUE,,3575.6679999973567,,response,,,,100,B,,,,,,TRUE,click #choice-1,,,,silence,,,,,229148.31499999855,229145.40999999736,225553.076,225564.2450000014,225569.742,229161.848,,,
Question 2,html.Screen,2_1_1_3,2021-04-26T12:15:06.888Z,,,,,,,,,,,,,,,,,,,,,,,,,,,,true,FALSE,,2247.112000000663,,response,,,,100,B,,,,,,FALSE,click #choice-2,,,,silence,,,,,231411.7299999998,231408.96000000066,229145.182,229148.48000000347,229161.848,231428.424,,,
Item 100,flow.Sequence,2_1_1,2021-04-26T12:15:06.889Z,,,,,,,,,,,,,,,,,,,,,,,,,,,,,,,42634.850000000675,,completion,,,,,,,,,,,,,,,,,,,,,231411.9750000027,231408.96000000066,188757.444,188743.97999999928,188774.11,231428.424,,,
End of Practice,html.Page,2_1_2,2021-04-26T12:15:11.162Z,,,,,,,,,,,,,,,,,,,,,,,,,,,,,,,4256.046000000148,,form submission,,,,,,,,,,,,,,,,,,,,,235684.75000000035,235684.47000000015,231411.758,231412.10000000137,231428.424,235694.92,,,
Practice,flow.Sequence,2_1,2021-04-26T12:15:11.162Z,,,,,,,,,,,,,,,,,,,,,,,,,,,,,,,90289.98300000015,,completion,,,,,,,,,,,,,,,,,,,,,235684.99500000325,235684.47000000015,145377.821,145380.61500000185,145394.487,235694.92,,,
Trap_instruction,html.Page,2_2_0,2021-04-26T12:15:18.062Z,,,,,,,,,,,,,,,,,,,,,,,,,,,,,,,6889.615000001766,,form submission,,,,,,,,,,,,,,,,,,,,,242584.8100000003,242584.53500000178,235678.254,235685.1549999992,235694.92,242594.644,,,
trap_trial,html.Screen,2_2_1,2021-04-26T12:15:21.489Z,,,,,,,,,,,,,,,,,,,,,,,,,,,,true,1,,3414.3210000008985,,response,,,,,,,,,,,1,click #choice-1,,,,,,,,,246011.75499999954,246008.9650000009,242577.978,242584.96500000183,242594.644,246023.66,,,
end of trap trial,html.Page,2_2_2,2021-04-26T12:15:23.219Z,,,,,,,,,,,,,,,,,,,,,,,,,,,,,,,1718.3300000022573,,form submission,,,,,,,,,,,,,,,,,,,,,247742.26500000077,247741.99000000226,246006.994,246011.93000000058,246023.66,247756.924,,,
Trap 1,flow.Sequence,2_2,2021-04-26T12:15:23.219Z,,,,,,,,,,,,,,,,,,,,,,,,,,,,,,,12047.070000002248,,completion,,,,,,,,,,,,,,,,,,,,,247742.5000000003,247741.99000000226,235678.254,235685.10999999853,235694.92,247756.924,,,
Standby,html.Page,2_3_0,2021-04-26T12:15:31.219Z,,,,,,,,,,,,,,,,,,,,,,,,,,,,,,,7999.679999999993,,timeout,,,,,,,,,,,,,,,,,,,,,255742.22500000178,255739.938,247740.258,247742.67500000133,247756.924,255756.604,,,
Holding screen,html.Screen,2_3_1_0_0,2021-04-26T12:15:38.228Z,,,,,,,,,,,,,,,,,,,,,,,,,,,,,,,7008.263000000035,,timeout,,,,,,,,,,,,,,,,,,,,,262750.72499999806,262748.201,255739.938,255742.4850000025,255756.604,262764.867,,,
screen,html.Screen,2_3_1_0_1_0,2021-04-26T12:15:39.133Z,,,,,,,,,,,,,,,,,48,,,,,,,,,,,,,,874.5580000011832,,response,,,,10,B,,,,,,Space,keypress(Space),,,,lyrical,,,,As -- --- ------ ------- --------- ----------- --------<br>--------- -------- --- ------- -- ------- ---- -- ------<br>-- --- -------- -------- ---------- ---- ---- ---- ------<br>-- --------- -- ---- -- --- -- --- ------- -- - -----<br>---------- -- -- -- ---- ----- -- ------ -- --- ------<br>-------,263656.2750000012,263639.4250000012,262748.201,262751.01500000164,262764.867,263664.831,,0,As
screen,html.Screen,2_3_1_0_1_1,2021-04-26T12:15:39.461Z,,,,,,,,,,,,,,,,,48,,,,,,,,,,,,,,313.45399999740766,,response,,,,10,B,,,,,,Space,keypress(Space),,,,lyrical,,,,-- in --- ------ ------- --------- ----------- --------<br>--------- -------- --- ------- -- ------- ---- -- ------<br>-- --- -------- -------- ---------- ---- ---- ---- ------<br>-- --------- -- ---- -- --- -- --- ------- -- - -----<br>---------- -- -- -- ---- ----- -- ------ -- --- ------<br>-------,263983.5450000028,263978.2849999974,263648.165,263656.36000000086,263664.831,263998.151,,1,in
screen,html.Screen,2_3_1_0_1_2,2021-04-26T12:15:39.824Z,,,,,,,,,,,,,,,,,48,,,,,,,,,,,,,,343.94900000165217,,response,,,,10,B,,,,,,Space,keypress(Space),,,,lyrical,,,,-- -- the ------ ------- --------- ----------- --------<br>--------- -------- --- ------- -- ------- ---- -- ------<br>-- --- -------- -------- ---------- ---- ---- ---- ------<br>-- --------- -- ---- -- --- -- --- ------- -- - -----<br>---------- -- -- -- ---- ----- -- ------ -- --- ------<br>-------,264347.2099999999,264342.10000000166,263981.485,263983.70499999874,263998.151,264348.137,,2,the
screen,html.Screen,2_3_1_0_1_3,2021-04-26T12:15:40.280Z,,,,,,,,,,,,,,,,,48,,,,,,,,,,,,,,449.0830000003916,,response,,,,10,B,,,,,,Space,keypress(Space),,,,lyrical,,,,-- -- --- United ------- --------- ----------- --------<br>--------- -------- --- ------- -- ------- ---- -- ------<br>-- --- -------- -------- ---------- ---- ---- ---- ------<br>-- --------- -- ---- -- --- -- --- ------- -- - -----<br>---------- -- -- -- ---- ----- -- ------ -- --- ------<br>-------,264802.49000000185,264797.2200000004,264331.471,264347.37000000314,264348.137,264814.785,,3,United
screen,html.Screen,2_3_1_0_1_4,2021-04-26T12:15:40.708Z,,,,,,,,,,,,,,,,,48,,,,,,,,,,,,,,411.345000002766,,response,,,,10,B,,,,,,Space,keypress(Space),,,,lyrical,,,,"-- -- --- ------ States, --------- ----------- --------<br>--------- -------- --- ------- -- ------- ---- -- ------<br>-- --- -------- -------- ---------- ---- ---- ---- ------<br>-- --------- -- ---- -- --- -- --- ------- -- - -----<br>---------- -- -- -- ---- ----- -- ------ -- --- ------<br>-------",265231.2349999993,265226.13000000274,264798.119,264802.6450000034,264814.785,265248.101,,4,"States,"
screen,html.Screen,2_3_1_0_1_5,2021-04-26T12:15:41.420Z,,,,,,,,,,,,,,,,,48,,,,,,,,,,,,,,690.1190000036149,,response,,,,10,B,,,,,,Space,keypress(Space),,,,lyrical,,,,-- -- --- ------ ------- Colombian ----------- --------<br>--------- -------- --- ------- -- ------- ---- -- ------<br>-- --- -------- -------- ---------- ---- ---- ---- ------<br>-- --------- -- ---- -- --- -- --- ------- -- - -----<br>---------- -- -- -- ---- ----- -- ------ -- --- ------<br>-------,265943.35500000307,265938.22000000364,265231.435,265231.3950000025,265248.101,265948.073,,5,Colombian
screen,html.Screen,2_3_1_0_1_6,2021-04-26T12:15:41.781Z,,,,,,,,,,,,,,,,,48,,,,,,,,,,,,,,351.2869999972754,,response,,,,10,B,,,,,,Space,keypress(Space),,,,lyrical,,,,-- -- --- ------ ------- --------- legislation --------<br>--------- -------- --- ------- -- ------- ---- -- ------<br>-- --- -------- -------- ---------- ---- ---- ---- ------<br>-- --------- -- ---- -- --- -- --- ------- -- - -----<br>---------- -- -- -- ---- ----- -- ------ -- --- ------<br>-------,266304.24499999936,266299.35999999725,265931.407,265943.5250000024,265948.073,266314.725,,6,legislation
screen,html.Screen,2_3_1_0_1_7,2021-04-26T12:15:42.349Z,,,,,,,,,,,,,,,,,48,,,,,,,,,,,,,,551.4450000011711,,response,,,,10,B,,,,,,Space,keypress(Space),,,,lyrical,,,,-- -- --- ------ ------- --------- ----------- requires<br>--------- -------- --- ------- -- ------- ---- -- ------<br>-- --- -------- -------- ---------- ---- ---- ---- ------<br>-- --------- -- ---- -- --- -- --- ------- -- - -----<br>---------- -- -- -- ---- ----- -- ------ -- --- ------<br>-------,266872.1500000029,266866.17000000115,266298.059,266304.4050000026,266314.725,266889.7,,7,requires
screen,html.Screen,2_3_1_0_1_8,2021-04-26T12:15:42.776Z,,,,,,,,,,,,,,,,,48,,,,,,,,,,,,,,404.4399999981397,,response,,,,10,B,,,,,,Space,keypress(Space),,,,lyrical,,,,-- -- --- ------ ------- --------- ----------- --------<br>travelers -------- --- ------- -- ------- ---- -- ------<br>-- --- -------- -------- ---------- ---- ---- ---- ------<br>-- --------- -- ---- -- --- -- --- ------- -- - -----<br>---------- -- -- -- ---- ----- -- ------ -- --- ------<br>-------,267299.26500000147,267294.13999999815,266873.034,266872.6499999975,266889.7,267306.35,,8,travelers
screen,html.Screen,2_3_1_0_1_9,2021-04-26T12:15:43.311Z,,,,,,,,,,,,,,,,,48,,,,,,,,,,,,,,522.775000003865,,response,,,,10,B,,,,,,Space,keypress(Space),,,,lyrical,,,,-- -- --- ------ ------- --------- ----------- --------<br>--------- entering --- ------- -- ------- ---- -- ------<br>-- --- -------- -------- ---------- ---- ---- ---- ------<br>-- --------- -- ---- -- --- -- --- ------- -- - -----<br>---------- -- -- -- ---- ----- -- ------ -- --- ------<br>-------,267834.28000000276,267829.12500000384,267289.684,267299.4249999974,267306.35,267839.662,,9,entering
screen,html.Screen,2_3_1_0_1_10,2021-04-26T12:15:43.754Z,,,,,,,,,,,,,,,,,48,,,,,,,,,,,,,,431.50299999827985,,response,,,,10,B,,,,,,Space,keypress(Space),,,,lyrical,,,,-- -- --- ------ ------- --------- ----------- --------<br>--------- -------- the ------- -- ------- ---- -- ------<br>-- --- -------- -------- ---------- ---- ---- ---- ------<br>-- --------- -- ---- -- --- -- --- ------- -- - -----<br>---------- -- -- -- ---- ----- -- ------ -- --- ------<br>-------,268276.6249999986,268271.1649999983,267822.996,267834.4399999987,267839.662,268289.644,,10,the
screen,html.Screen,2_3_1_0_1_11,2021-04-26T12:15:44.153Z,,,,,,,,,,,,,,,,,48,,,,,,,,,,,,,,380.56100000219885,,response,,,,10,B,,,,,,Space,keypress(Space),,,,lyrical,,,,-- -- --- ------ ------- --------- ----------- --------<br>--------- -------- --- country -- ------- ---- -- ------<br>-- --- -------- -------- ---------- ---- ---- ---- ------<br>-- --------- -- ---- -- --- -- --- ------- -- - -----<br>---------- -- -- -- ---- ----- -- ------ -- --- ------<br>-------,268676.1350000015,268670.20500000217,268272.978,268276.79000000353,268289.644,268689.628,,11,country
screen,html.Screen,2_3_1_0_1_12,2021-04-26T12:15:44.634Z,,,,,,,,,,,,,,,,,48,,,,,,,,,,,,,,461.50700000004144,,response,,,,10,B,,,,,,Space,keypress(Space),,,,lyrical,,,,-- -- --- ------ ------- --------- ----------- --------<br>--------- -------- --- ------- to ------- ---- -- ------<br>-- --- -------- -------- ---------- ---- ---- ---- ------<br>-- --------- -- ---- -- --- -- --- ------- -- - -----<br>---------- -- -- -- ---- ----- -- ------ -- --- ------<br>-------,269156.39499999816,269151.13500000007,268672.962,268676.2999999992,268689.628,269172.942,,12,to
screen,html.Screen,2_3_1_0_1_13,2021-04-26T12:15:45.023Z,,,,,,,,,,,,,,,,,48,,,,,,,,,,,,,,368.1229999976349,,response,,,,10,B,,,,,,Space,keypress(Space),,,,lyrical,,,,-- -- --- ------ ------- --------- ----------- --------<br>--------- -------- --- ------- -- declare ---- -- ------<br>-- --- -------- -------- ---------- ---- ---- ---- ------<br>-- --------- -- ---- -- --- -- --- ------- -- - -----<br>---------- -- -- -- ---- ----- -- ------ -- --- ------<br>-------,269546.19000000093,269541.0649999976,269156.276,269156.5550000014,269172.942,269556.26,,13,declare
screen,html.Screen,2_3_1_0_1_14,2021-04-26T12:15:45.439Z,,,,,,,,,,,,,,,,,48,,,,,,,,,,,,,,400.61500000348315,,response,,,,10,B,,,,,,Space,keypress(Space),,,,lyrical,,,,-- -- --- ------ ------- --------- ----------- --------<br>--------- -------- --- ------- -- ------- cash -- ------<br>-- --- -------- -------- ---------- ---- ---- ---- ------<br>-- --------- -- ---- -- --- -- --- ------- -- - -----<br>---------- -- -- -- ---- ----- -- ------ -- --- ------<br>-------,269962.0649999997,269956.8750000035,269539.594,269546.3499999969,269556.26,269972.91,,14,cash
screen,html.Screen,2_3_1_0_1_15,2021-04-26T12:15:45.806Z,,,,,,,,,,,,,,,,,48,,,,,,,,,,,,,,350.2449999982491,,response,,,,10,B,,,,,,Space,keypress(Space),,,,lyrical,,,,-- -- --- ------ ------- --------- ----------- --------<br>--------- -------- --- ------- -- ------- ---- in ------<br>-- --- -------- -------- ---------- ---- ---- ---- ------<br>-- --------- -- ---- -- --- -- --- ------- -- - -----<br>---------- -- -- -- ---- ----- -- ------ -- --- ------<br>-------,270328.52000000275,270323.1549999982,269956.244,269962.23499999905,269972.91,270339.562,,15,in
screen,html.Screen,2_3_1_0_1_16,2021-04-26T12:15:46.380Z,,,,,,,,,,,,,,,,,48,,,,,,,,,,,,,,558.5129999973578,,response,,,,10,B,,,,,,Space,keypress(Space),,,,lyrical,,,,-- -- --- ------ ------- --------- ----------- --------<br>--------- -------- --- ------- -- ------- ---- -- excess<br>-- --- -------- -------- ---------- ---- ---- ---- ------<br>-- --------- -- ---- -- --- -- --- ------- -- - -----<br>---------- -- -- -- ---- ----- -- ------ -- --- ------<br>-------,270903.18000000116,270898.07499999733,270322.896,270328.6799999987,270339.562,270906.206,,16,excess
screen,html.Screen,2_3_1_0_1_17,2021-04-26T12:15:46.838Z,,,,,,,,,,,,,,,,,48,,,,,,,,,,,,,,448.87900000286754,,response,,,,10,B,,,,,,Space,keypress(Space),,,,lyrical,,,,-- -- --- ------ ------- --------- ----------- --------<br>--------- -------- --- ------- -- ------- ---- -- ------<br>of --- -------- -------- ---------- ---- ---- ---- ------<br>-- --------- -- ---- -- --- -- --- ------- -- - -----<br>---------- -- -- -- ---- ----- -- ------ -- --- ------<br>-------,271360.9149999975,271355.0850000029,270889.54,270903.3399999971,270906.206,271372.854,,17,of
screen,html.Screen,2_3_1_0_1_18,2021-04-26T12:15:47.236Z,,,,,,,,,,,,,,,,,48,,,,,,,,,,,,,,381.1510000025155,,response,,,,10,B,,,,,,Space,keypress(Space),,,,lyrical,,,,-- -- --- ------ ------- --------- ----------- --------<br>--------- -------- --- ------- -- ------- ---- -- ------<br>-- ten -------- -------- ---------- ---- ---- ---- ------<br>-- --------- -- ---- -- --- -- --- ------- -- - -----<br>---------- -- -- -- ---- ----- -- ------ -- --- ------<br>-------,271759.2149999982,271754.0050000025,271356.188,271361.1149999997,271372.854,271772.838,,18,ten
screen,html.Screen,2_3_1_0_1_19,2021-04-26T12:15:47.676Z,,,,,,,,,,,,,,,,,48,,,,,,,,,,,,,,421.2020000021439,,response,,,,10,B,,,,,,Space,keypress(Space),,,,lyrical,,,,-- -- --- ------ ------- --------- ----------- --------<br>--------- -------- --- ------- -- ------- ---- -- ------<br>-- --- thousand -------- ---------- ---- ---- ---- ------<br>-- --------- -- ---- -- --- -- --- ------- -- - -----<br>---------- -- -- -- ---- ----- -- ------ -- --- ------<br>-------,272199.26999999734,272194.04000000213,271756.172,271759.37500000146,271772.838,272206.154,,19,thousand
screen,html.Screen,2_3_1_0_1_20,2021-04-26T12:15:48.150Z,,,,,,,,,,,,,,,,,48,,,,,,,,,,,,,,461.0210000023362,,response,,,,10,B,,,,,,Space,keypress(Space),,,,lyrical,,,,-- -- --- ------ ------- --------- ----------- --------<br>--------- -------- --- ------- -- ------- ---- -- ------<br>-- --- -------- dollars. ---------- ---- ---- ---- ------<br>-- --------- -- ---- -- --- -- --- ------- -- - -----<br>---------- -- -- -- ---- ----- -- ------ -- --- ------<br>-------,272672.8199999998,272667.1750000023,272189.488,272199.4300000006,272206.154,272689.468,,20,dollars.
screen,html.Screen,2_3_1_0_1_21,2021-04-26T12:15:48.951Z,,,,,,,,,,,,,,,,,48,,,,,,,,,,,,,,778.56699999806,,response,,,,10,B,,,,,,Space,keypress(Space),,,,lyrical,,,,-- -- --- ------ ------- --------- ----------- --------<br>--------- -------- --- ------- -- ------- ---- -- ------<br>-- --- -------- -------- Concealing ---- ---- ---- ------<br>-- --------- -- ---- -- --- -- --- ------- -- - -----<br>---------- -- -- -- ---- ----- -- ------ -- --- ------<br>-------,273473.3849999975,273468.03499999805,272672.802,272673.0000000025,272689.468,273489.436,,21,Concealing
screen,html.Screen,2_3_1_0_1_22,2021-04-26T12:15:49.300Z,,,,,,,,,,,,,,,,,48,,,,,,,,,,,,,,326.3039999981993,,response,,,,10,B,,,,,,Space,keypress(Space),,,,lyrical,,,,-- -- --- ------ ------- --------- ----------- --------<br>--------- -------- --- ------- -- ------- ---- -- ------<br>-- --- -------- -------- ---------- more ---- ---- ------<br>-- --------- -- ---- -- --- -- --- ------- -- - -----<br>---------- -- -- -- ---- ----- -- ------ -- --- ------<br>-------,273822.3599999983,273815.7399999982,273472.77,273473.5550000041,273489.436,273839.422,,22,more
screen,html.Screen,2_3_1_0_1_23,2021-04-26T12:15:49.661Z,,,,,,,,,,,,,,,,,48,,,,,,,,,,,,,,339.4930000040331,,response,,,,10,B,,,,,,Space,keypress(Space),,,,lyrical,,,,-- -- --- ------ ------- --------- ----------- --------<br>--------- -------- --- ------- -- ------- ---- -- ------<br>-- --- -------- -------- ---------- ---- than ---- ------<br>-- --------- -- ---- -- --- -- --- ------- -- - -----<br>---------- -- -- -- ---- ----- -- ------ -- --- ------<br>-------,274184.0349999984,274178.91500000405,273822.756,273822.5250000032,273839.422,274189.408,,23,than
screen,html.Screen,2_3_1_0_1_24,2021-04-26T12:15:49.957Z,,,,,,,,,,,,,,,,,48,,,,,,,,,,,,,,285.4970000027679,,response,,,,10,B,,,,,,Space,keypress(Space),,,,lyrical,,,,-- -- --- ------ ------- --------- ----------- --------<br>--------- -------- --- ------- -- ------- ---- -- ------<br>-- --- -------- -------- ---------- ---- ---- that ------<br>-- --------- -- ---- -- --- -- --- ------- -- - -----<br>---------- -- -- -- ---- ----- -- ------ -- --- ------<br>-------,274480.0499999983,274474.90500000276,274172.742,274184.19500000164,274189.408,274489.396,,24,that
screen,html.Screen,2_3_1_0_1_25,2021-04-26T12:15:50.240Z,,,,,,,,,,,,,,,,,48,,,,,,,,,,,,,,268.49900000245543,,response,,,,10,B,,,,,,Space,keypress(Space),,,,lyrical,,,,-- -- --- ------ ------- --------- ----------- --------<br>--------- -------- --- ------- -- ------- ---- -- ------<br>-- --- -------- -------- ---------- ---- ---- ---- amount<br>-- --------- -- ---- -- --- -- --- ------- -- - -----<br>---------- -- -- -- ---- ----- -- ------ -- --- ------<br>-------,274763.21499999904,274757.89500000246,274472.73,274480.21000000153,274489.396,274772.718,,25,amount
screen,html.Screen,2_3_1_0_1_26,2021-04-26T12:15:50.640Z,,,,,,,,,,,,,,,,,48,,,,,,,,,,,,,,385.20199999783654,,response,,,,10,B,,,,,,Space,keypress(Space),,,,lyrical,,,,-- -- --- ------ ------- --------- ----------- --------<br>--------- -------- --- ------- -- ------- ---- -- ------<br>-- --- -------- -------- ---------- ---- ---- ---- ------<br>to --------- -- ---- -- --- -- --- ------- -- - -----<br>---------- -- -- -- ---- ----- -- ------ -- --- ------<br>-------,275162.900000003,275157.91999999783,274756.052,274763.3849999984,274772.718,275172.702,,26,to
screen,html.Screen,2_3_1_0_1_27,2021-04-26T12:15:51.088Z,,,,,,,,,,,,,,,,,48,,,,,,,,,,,,,,433.21300000010524,,response,,,,10,B,,,,,,Space,keypress(Space),,,,lyrical,,,,-- -- --- ------ ------- --------- ----------- --------<br>--------- -------- --- ------- -- ------- ---- -- ------<br>-- --- -------- -------- ---------- ---- ---- ---- ------<br>-- transport -- ---- -- --- -- --- ------- -- - -----<br>---------- -- -- -- ---- ----- -- ------ -- --- ------<br>-------,275610.99999999715,275605.9150000001,275156.036,275163.32500000135,275172.702,275622.684,,27,transport
screen,html.Screen,2_3_1_0_1_28,2021-04-26T12:15:51.445Z,,,,,,,,,,,,,,,,,48,,,,,,,,,,,,,,340.1759999996284,,response,,,,10,B,,,,,,Space,keypress(Space),,,,lyrical,,,,-- -- --- ------ ------- --------- ----------- --------<br>--------- -------- --- ------- -- ------- ---- -- ------<br>-- --- -------- -------- ---------- ---- ---- ---- ------<br>-- --------- it ---- -- --- -- --- ------- -- - -----<br>---------- -- -- -- ---- ----- -- ------ -- --- ------<br>-------,275968.1150000033,275962.85999999964,275606.018,275611.1600000004,275622.684,275972.67,,28,it
screen,html.Screen,2_3_1_0_1_29,2021-04-26T12:15:51.852Z,,,,,,,,,,,,,,,,,48,,,,,,,,,,,,,,397.1449999982142,,response,,,,10,B,,,,,,Space,keypress(Space),,,,lyrical,,,,-- -- --- ------ ------- --------- ----------- --------<br>--------- -------- --- ------- -- ------- ---- -- ------<br>-- --- -------- -------- ---------- ---- ---- ---- ------<br>-- --------- -- into -- --- -- --- ------- -- - -----<br>---------- -- -- -- ---- ----- -- ------ -- --- ------<br>-------,276374.9749999988,276369.8149999982,275956.004,275968.28000000096,275972.67,276389.32,,29,into
screen,html.Screen,2_3_1_0_1_30,2021-04-26T12:15:52.344Z,,,,,,,,,,,,,,,,,48,,,,,,,,,,,,,,472.560000004014,,response,,,,10,B,,,,,,Space,keypress(Space),,,,lyrical,,,,-- -- --- ------ ------- --------- ----------- --------<br>--------- -------- --- ------- -- ------- ---- -- ------<br>-- --- -------- -------- ---------- ---- ---- ---- ------<br>-- --------- -- ---- or --- -- --- ------- -- - -----<br>---------- -- -- -- ---- ----- -- ------ -- --- ------<br>-------,276866.8899999975,276861.880000004,276372.654,276375.14000000374,276389.32,276880.935,,30,or
screen,html.Screen,2_3_1_0_1_31,2021-04-26T12:15:52.910Z,,,,,,,,,,,,,,,,,48,,,,,,,,,,,,,,546.7650000001886,,response,,,,10,B,,,,,,Space,keypress(Space),,,,lyrical,,,,-- -- --- ------ ------- --------- ----------- --------<br>--------- -------- --- ------- -- ------- ---- -- ------<br>-- --- -------- -------- ---------- ---- ---- ---- ------<br>-- --------- -- ---- -- out -- --- ------- -- - -----<br>---------- -- -- -- ---- ----- -- ------ -- --- ------<br>-------,277432.5600000011,277427.7000000002,276864.269,276867.05000000075,276880.935,277447.579,,31,out
screen,html.Screen,2_3_1_0_1_32,2021-04-26T12:15:53.295Z,,,,,,,,,,,,,,,,,48,,,,,,,,,,,,,,365.226000001363,,response,,,,10,B,,,,,,Space,keypress(Space),,,,lyrical,,,,-- -- --- ------ ------- --------- ----------- --------<br>--------- -------- --- ------- -- ------- ---- -- ------<br>-- --- -------- -------- ---------- ---- ---- ---- ------<br>-- --------- -- ---- -- --- of --- ------- -- - -----<br>---------- -- -- -- ---- ----- -- ------ -- --- ------<br>-------,277817.965000002,277812.8050000014,277430.913,277432.99999999726,277447.579,277830.897,,32,of
screen,html.Screen,2_3_1_0_1_33,2021-04-26T12:15:53.686Z,,,,,,,,,,,,,,,,,48,,,,,,,,,,,,,,372.9380000002566,,response,,,,10,B,,,,,,Space,keypress(Space),,,,lyrical,,,,-- -- --- ------ ------- --------- ----------- --------<br>--------- -------- --- ------- -- ------- ---- -- ------<br>-- --- -------- -------- ---------- ---- ---- ---- ------<br>-- --------- -- ---- -- --- -- the ------- -- - -----<br>---------- -- -- -- ---- ----- -- ------ -- --- ------<br>-------,278209.00999999867,278203.83500000025,277814.231,277818.12999999966,277830.897,278214.215,,33,the
screen,html.Screen,2_3_1_0_1_34,2021-04-26T12:15:54.102Z,,,,,,,,,,,,,,,,,48,,,,,,,,,,,,,,405.61000000155764,,response,,,,10,B,,,,,,Space,keypress(Space),,,,lyrical,,,,-- -- --- ------ ------- --------- ----------- --------<br>--------- -------- --- ------- -- ------- ---- -- ------<br>-- --- -------- -------- ---------- ---- ---- ---- ------<br>-- --------- -- ---- -- --- -- --- country -- - -----<br>---------- -- -- -- ---- ----- -- ------ -- --- ------<br>-------,278625.14499999816,278619.8250000016,278197.549,278209.1700000019,278214.215,278630.865,,34,country
screen,html.Screen,2_3_1_0_1_35,2021-04-26T12:15:54.606Z,,,,,,,,,,,,,,,,,48,,,,,,,,,,,,,,492.8700000010431,,response,,,,10,B,,,,,,Space,keypress(Space),,,,lyrical,,,,-- -- --- ------ ------- --------- ----------- --------<br>--------- -------- --- ------- -- ------- ---- -- ------<br>-- --- -------- -------- ---------- ---- ---- ---- ------<br>-- --------- -- ---- -- --- -- --- ------- is - -----<br>---------- -- -- -- ---- ----- -- ------ -- --- ------<br>-------,279128.86499999877,279123.73500000103,278614.199,278625.3149999975,278630.865,279130.845,,35,is
screen,html.Screen,2_3_1_0_1_36,2021-04-26T12:15:54.918Z,,,,,,,,,,,,,,,,,48,,,,,,,,,,,,,,305.02500000118744,,response,,,,10,B,,,,,,Space,keypress(Space),,,,lyrical,,,,-- -- --- ------ ------- --------- ----------- --------<br>--------- -------- --- ------- -- ------- ---- -- ------<br>-- --- -------- -------- ---------- ---- ---- ---- ------<br>-- --------- -- ---- -- --- -- --- ------- -- a -----<br>---------- -- -- -- ---- ----- -- ------ -- --- ------<br>-------,279440.80000000395,279435.87000000116,279114.179,279129.0300000037,279130.845,279447.499,,36,a
screen,html.Screen,2_3_1_0_1_37,2021-04-26T12:15:55.311Z,,,,,,,,,,,,,,,,,48,,,,,,,,,,,,,,381.21100000158185,,response,,,,10,B,,,,,,Space,keypress(Space),,,,lyrical,,,,-- -- --- ------ ------- --------- ----------- --------<br>--------- -------- --- ------- -- ------- ---- -- ------<br>-- --- -------- -------- ---------- ---- ---- ---- ------<br>-- --------- -- ---- -- --- -- --- ------- -- - crime<br>---------- -- -- -- ---- ----- -- ------ -- --- ------<br>-------,279834.11499999784,279828.7100000016,279430.833,279440.9599999999,279447.499,279847.483,,37,crime
screen,html.Screen,2_3_1_0_1_38,2021-04-26T12:15:56.132Z,,,,,,,,,,,,,,,,,48,,,,,,,,,,,,,,802.1070000008913,,response,,,,10,B,,,,,,Space,keypress(Space),,,,lyrical,,,,-- -- --- ------ ------- --------- ----------- --------<br>--------- -------- --- ------- -- ------- ---- -- ------<br>-- --- -------- -------- ---------- ---- ---- ---- ------<br>-- --------- -- ---- -- --- -- --- ------- -- - -----<br>punishable -- -- -- ---- ----- -- ------ -- --- ------<br>-------,280654.8200000034,280649.5900000009,279830.817,279834.2750000011,279847.483,280664.117,,38,punishable
screen,html.Screen,2_3_1_0_1_39,2021-04-26T12:15:56.480Z,,,,,,,,,,,,,,,,,48,,,,,,,,,,,,,,333.58800000156043,,response,,,,10,B,,,,,,Space,keypress(Space),,,,lyrical,,,,-- -- --- ------ ------- --------- ----------- --------<br>--------- -------- --- ------- -- ------- ---- -- ------<br>-- --- -------- -------- ---------- ---- ---- ---- ------<br>-- --------- -- ---- -- --- -- --- ------- -- - -----<br>---------- by -- -- ---- ----- -- ------ -- --- ------<br>-------,281002.6349999971,280997.7050000016,280647.451,280654.98500000103,280664.117,281014.103,,39,by
screen,html.Screen,2_3_1_0_1_40,2021-04-26T12:15:56.922Z,,,,,,,,,,,,,,,,,48,,,,,,,,,,,,,,425.63199999992503,,response,,,,10,B,,,,,,Space,keypress(Space),,,,lyrical,,,,-- -- --- ------ ------- --------- ----------- --------<br>--------- -------- --- ------- -- ------- ---- -- ------<br>-- --- -------- -------- ---------- ---- ---- ---- ------<br>-- --------- -- ---- -- --- -- --- ------- -- - -----<br>---------- -- up -- ---- ----- -- ------ -- --- ------<br>-------,281444.9850000019,281439.7349999999,280997.437,281003.0800000022,281014.103,281447.419,,40,up
