sender,sender_type,sender_id,timestamp,meta,,Blues,Classical,Country,Dance,Electronic,Folk,Gospel,Hip-Hop,Jazz,Latin,Musical/Film,New-age,Pop,Prolific_id,Provo_ID,R&B,Rap,Reggae,Religious,Rock,Soul,Swing,Traditional,age,artist_name,correct,correctResponse,distraction,duration,education,ended_on,familiarity,gender,headphone_check_performance,item,list,music_frequency,offensiveness,pleasantness,position_correct,preference,response,response_action,snippet_file,song_name,song_rating,sound,stimulus_1,stimulus_2,stimulus_3,text,time_commit,time_end,time_render,time_run,time_show,time_switch,url,word,word_ID
Prolific ID,html.Form,0,2021-04-28T16:15:43.282Z,"{""labjs_version"":""20.2.2"",""labjs_build"":{""flavor"":""production"",""commit"":""a25486e0c714a0ae2ce03ff94b7bb6896854dcfa""},""location"":""https://run.pavlovia.org/mvasilev/prolific_music_a/"",""userAgent"":""Mozilla/5.0 (X11; CrOS x86_64 13729.72.0) AppleWebKit/537.36 (KHTML, like Gecko) Chrome/89.0.4389.116 Safari/537.36"",""platform"":""Linux x86_64"",""language"":""en-US"",""locale"":""en-GB"",""timeZone"":""Europe/London"",""timezoneOffset"":-60,""screen_width"":1366,""screen_height"":768,""scroll_width"":1366,""scroll_height"":601,""window_innerWidth"":1366,""window_innerHeight"":649,""devicePixelRatio"":1}",,,,,,,,,,,,,,,5f2b280ea50bc45370328ee3,,,,,,,,,,,,,,,19398.549000002,,form submission,,,,,,,,,,,,,,,,,,,,,81224.87499999988,81222.055000002,61756.85,61757.519999999204,61823.506,81255.449,{},,
Introduction,html.Screen,1_0,2021-04-28T16:16:24.246Z,,,,,,,,,,,,,,,,,,,,,,,,,,,,,,,40911.716000002576,,response,,,,,,,,,,,continue,click button,,,,,,,,,122188.90499999907,122167.16500000257,81205.438,81225.83999999915,81255.449,122217.872,,,
Volume calibration,html.Screen,1_1,2021-04-28T16:16:45.109Z,,,,,,,,,,,,,,,,,,,,,,,,,,,,,,,20818.583000001294,,response,,,,,,,,,,,continue,click button,,,,,,,,,143052.58999999933,143036.4550000013,122167.812,122189.60000000152,122217.872,143065.701,,,
Task instructions,html.Screen,1_2,2021-04-28T16:16:58.275Z,,,,,,,,,,,,,,,,,,,,,,,,,,,,,,,13136.088999999163,,response,,,,,,,,,,,continue,click button,,,,,,,,,156217.82000000167,156201.78999999916,143032.373,143053.00999999963,143065.701,156247.681,,,
Sounds,html.Screen,1_3_0_0,2021-04-28T16:17:02.547Z,,,,,,,,,,,,,,,,,,,,,,,,,,,,,,,4249.50999999998,,timeout,,,,,,,,,1,,,,,,,,S,O,I,,160490.37999999928,160480.527,156230.957,156218.60000000015,156247.681,160497.191,,,
Judgement,html.Screen,1_3_0_1,2021-04-28T16:17:04.859Z,,,,,,,,,,,,,,,,,,,,,,,,,,,,true,1,,2295.324000001012,,response,,,,,,,,,1,,1,click #choice-1,,,,,S,O,I,,162802.67500000264,162792.515000001,160480.527,160491.2949999998,160497.191,162813.66,,,
Trial,flow.Sequence,1_3_0,2021-04-28T16:17:04.861Z,,,,,,,,,,,,,,,,,,,,,,,,,,,,,,,6544.834000000992,,completion,,,,,,,,,1,,,,,,,,S,O,I,,162803.74500000107,162792.515000001,156230.957,156218.4699999998,156247.681,162813.66,,,
Sounds,html.Screen,1_3_1_0,2021-04-28T16:17:09.107Z,,,,,,,,,,,,,,,,,,,,,,,,,,,,,,,4249.358999999997,,timeout,,,,,,,,,3,,,,,,,,O,I,S,,167050.11500000182,167046.355,162797.009,162804.38499999946,162813.66,167063.019,,,
Judgement,html.Screen,1_3_1_1,2021-04-28T16:17:09.914Z,,,,,,,,,,,,,,,,,,,,,,,,,,,,true,3,,779.506000000023,,response,,,,,,,,,3,,3,click #choice-3,,,,,O,I,S,,167856.78499999995,167842.52500000002,167046.355,167051.3600000013,167063.019,167863.102,,,
Trial,flow.Sequence,1_3_1,2021-04-28T16:17:09.914Z,,,,,,,,,,,,,,,,,,,,,,,,,,,,,,,5028.86500000002,,completion,,,,,,,,,3,,,,,,,,O,I,S,,167857.6549999998,167842.52500000002,162797.009,162804.2200000018,162813.66,167863.102,,,
Sounds,html.Screen,1_3_2_0,2021-04-28T16:17:14.155Z,,,,,,,,,,,,,,,,,,,,,,,,,,,,,,,4249.361999999994,,timeout,,,,,,,,,1,,,,,,,,S,I,O,,172098.18500000256,172095.8,167846.438,167858.27000000063,167863.102,172112.464,,,
Judgement,html.Screen,1_3_2_1,2021-04-28T16:17:16.556Z,,,,,,,,,,,,,,,,,,,,,,,,,,,,true,1,,2374.3360000023968,,response,,,,,,,,,1,,1,click #choice-1,,,,,S,I,O,,174499.25500000245,174486.8000000024,172095.8,172099.0550000024,172112.464,174512.45,,,
Trial,flow.Sequence,1_3_2,2021-04-28T16:17:16.557Z,,,,,,,,,,,,,,,,,,,,,,,,,,,,,,,6623.6980000023905,,completion,,,,,,,,,1,,,,,,,,S,I,O,,174500.2800000002,174486.8000000024,167846.438,167858.08499999985,167863.102,174512.45,,,
Sounds,html.Screen,1_3_3_0,2021-04-28T16:17:20.805Z,,,,,,,,,,,,,,,,,,,,,,,,,,,,,,,4249.366999999998,,timeout,,,,,,,,,3,,,,,,,,I,O,S,,178747.93499999942,178745.153,174495.796,174500.7000000005,174512.45,178761.817,,,
Judgement,html.Screen,1_3_3_1,2021-04-28T16:17:21.680Z,,,,,,,,,,,,,,,,,,,,,,,,,,,,true,3,,844.4330000007176,,response,,,,,,,,,3,,3,click #choice-3,,,,,I,O,S,,179622.89500000043,179606.25000000073,178745.153,178748.86999999944,178761.817,179628.557,,,
Trial,flow.Sequence,1_3_3,2021-04-28T16:17:21.681Z,,,,,,,,,,,,,,,,,,,,,,,,,,,,,,,5093.800000000716,,completion,,,,,,,,,3,,,,,,,,I,O,S,,179624.37000000136,179606.25000000073,174495.796,174500.57500000185,174512.45,179628.557,,,
Sounds,html.Screen,1_3_4_0,2021-04-28T16:17:25.921Z,,,,,,,,,,,,,,,,,,,,,,,,,,,,,,,4249.366000000009,,timeout,,,,,,,,,2,,,,,,,,O,S,I,,183863.86499999935,183861.259,179611.893,179625.5850000016,179628.557,183877.923,,,
Judgement,html.Screen,1_3_4_1,2021-04-28T16:17:26.684Z,,,,,,,,,,,,,,,,,,,,,,,,,,,,true,2,,735.3820000025735,,response,,,,,,,,,2,,2,click #choice-2,,,,,O,S,I,,184627.62999999904,184613.30500000258,183861.259,183864.80999999912,183877.923,184628.034,,,
Trial,flow.Sequence,1_3_4,2021-04-28T16:17:26.686Z,,,,,,,,,,,,,,,,,,,,,,,,,,,,,,,4984.748000002583,,completion,,,,,,,,,2,,,,,,,,O,S,I,,184629.27499999932,184613.30500000258,179611.893,179625.33000000258,179628.557,184628.034,,,
Sounds,html.Screen,1_3_5_0,2021-04-28T16:17:30.920Z,,,,,,,,,,,,,,,,,,,,,,,,,,,,,,,4249.367999999988,,timeout,,,,,,,,,2,,,,,,,,I,S,O,,188862.93999999907,188860.738,184611.37,184629.83000000168,184628.034,188877.402,,,
Judgement,html.Screen,1_3_5_1,2021-04-28T16:17:31.516Z,,,,,,,,,,,,,,,,,,,,,,,,,,,,true,2,,569.6379999991041,,response,,,,,,,,,2,,2,click #choice-2,,,,,I,S,O,,189459.71500000087,189447.0399999991,188860.738,188863.28499999945,188877.402,189477.544,,,
Trial,flow.Sequence,1_3_5,2021-04-28T16:17:31.518Z,,,,,,,,,,,,,,,,,,,,,,,,,,,,,,,4819.005999999092,,completion,,,,,,,,,2,,,,,,,,I,S,O,,189461.6449999994,189447.0399999991,184611.37,184629.73000000056,184628.034,189477.544,,,
Task,flow.Loop,1_3,2021-04-28T16:17:31.530Z,,,,,,,,,,,,,,,,,,,,,,,,,,,,,,,33199.358999999095,,completion,,,1,,,,,,,,,,,,,,,,,,189473.47000000082,189447.0399999991,156230.957,156218.32500000164,156247.681,189477.544,,,
Trap,html.Screen,1_4,2021-04-28T16:17:31.535Z,,,,,,,,,,,,,,,,,,,,,,,,,,,,,,,NaN,,skipped,,,,,,,,,,,,,,,,,,,,,189478.57999999906,189447.0399999991,,189478.12500000146,,189477.544,,,
Thanks,html.Screen,1_5,2021-04-28T16:17:34.360Z,,,,,,,,,,,,,,,,,,,,,,,,,,,,,,,2810.7109999994864,,response,,,,,,,,,,,continue,click button,,,,,,,,,192303.33500000052,192288.25499999948,189444.216,189479.0350000003,189477.544,194143.747,,,
Headphone screening,flow.Sequence,1,2021-04-28T16:17:34.361Z,,,,,,,,,,,,,,,,,,,,,,,,,,,,,,,111032.80599999949,,completion,,,,,,,,,,,,,,,,,,,,,192303.76500000057,192288.25499999948,81205.438,81225.75499999948,81255.449,194143.747,,,
Instructions,html.Page,2_0,2021-04-28T16:17:48.043Z,,,,,,,,,,,,,,,,,,,,,,,,,,,,,,,11841.91800000015,,form submission,,,,,,,,,,,,,,,,,,,,,205986.280000001,205985.66500000015,194127.083,194130.7450000022,194143.747,206009.077,,,
Holding screen,html.Screen,2_1_0_0,2021-04-28T16:17:58.051Z,,,,,,,,,,,,,,,,,,,,,,,,,,,,,,,10015.687000000005,,timeout,,,,,,,,,,,,,,,,,,,,,215994.70999999903,215991.436,205975.749,205990.36999999953,206009.077,216024.764,,,
screen,html.Screen,2_1_0_1_0,2021-04-28T16:17:59.117Z,,,,,,,,,,,,,,,,,53,,,,,,,,,,,,,,1016.9710000025225,,response,,,,99,,,,,,,Space,keypress(Space),,,,,,,,When -- ----- -- ------ - ------- --- ----------<br>------------- ------ ------ ---- ---- ------- ----- -- ----<br>-------- ------- -- ---------- --- - --- ----- ----- ----<br>---- --- --- ----- --- ---- ---- ------- ----- ---- -------<br>--- --- -- ----- -- --- ---- -- --- ---- -- ------ ------<br>--- ----- -- ----,217060.1850000021,217041.73500000252,215991.436,215996.43500000093,216024.764,217057.993,,0,When
screen,html.Screen,2_1_0_1_1,2021-04-28T16:17:59.460Z,,,,,,,,,,,,,,,,,53,,,,,,,,,,,,,,339.2169999991893,,response,,,,99,,,,,,,Space,keypress(Space),,,,,,,,---- it ----- -- ------ - ------- --- ----------<br>------------- ------ ------ ---- ---- ------- ----- -- ----<br>-------- ------- -- ---------- --- - --- ----- ----- ----<br>---- --- --- ----- --- ---- ---- ------- ----- ---- -------<br>--- --- -- ----- -- --- ---- -- --- ---- -- ------ ------<br>--- ----- -- ----,217403.29500000007,217397.20999999918,217041.329,217060.7799999998,217057.993,217407.999,,1,it
screen,html.Screen,2_1_0_1_2,2021-04-28T16:17:59.744Z,,,,,,,,,,,,,,,,,53,,,,,,,,,,,,,,272.375999999902,,response,,,,99,,,,,,,Space,keypress(Space),,,,,,,,---- -- comes -- ------ - ------- --- ----------<br>------------- ------ ------ ---- ---- ------- ----- -- ----<br>-------- ------- -- ---------- --- - --- ----- ----- ----<br>---- --- --- ----- --- ---- ---- ------- ----- ---- -------<br>--- --- -- ----- -- --- ---- -- --- ---- -- ------ ------<br>--- ----- -- ----,217687.2399999993,217680.3749999999,217391.335,217403.80000000005,217407.999,217691.318,,2,comes
screen,html.Screen,2_1_0_1_3,2021-04-28T16:18:00.020Z,,,,,,,,,,,,,,,,,53,,,,,,,,,,,,,,269.44699999981094,,response,,,,99,,,,,,,Space,keypress(Space),,,,,,,,---- -- ----- to ------ - ------- --- ----------<br>------------- ------ ------ ---- ---- ------- ----- -- ----<br>-------- ------- -- ---------- --- - --- ----- ----- ----<br>---- --- --- ----- --- ---- ---- ------- ----- ---- -------<br>--- --- -- ----- -- --- ---- -- --- ---- -- ------ ------<br>--- ----- -- ----,217963.2700000002,217960.7649999998,217674.654,217688.26500000068,217691.318,217974.621,,3,to
screen,html.Screen,2_1_0_1_4,2021-04-28T16:18:00.235Z,,,,,,,,,,,,,,,,,53,,,,,,,,,,,,,,196.16900000011083,,response,,,,99,,,,,,,Space,keypress(Space),,,,,,,,---- -- ----- -- having - ------- --- ----------<br>------------- ------ ------ ---- ---- ------- ----- -- ----<br>-------- ------- -- ---------- --- - --- ----- ----- ----<br>---- --- --- ----- --- ---- ---- ------- ----- ---- -------<br>--- --- -- ----- -- --- ---- -- --- ---- -- ------ ------<br>--- ----- -- ----,218178.28999999983,218170.79000000012,217957.957,217963.60500000083,217974.621,218191.257,,4,having
screen,html.Screen,2_1_0_1_5,2021-04-28T16:18:00.464Z,,,,,,,,,,,,,,,,,53,,,,,,,,,,,,,,210.34300000104122,,response,,,,99,,,,,,,Space,keypress(Space),,,,,,,,---- -- ----- -- ------ a ------- --- ----------<br>------------- ------ ------ ---- ---- ------- ----- -- ----<br>-------- ------- -- ---------- --- - --- ----- ----- ----<br>---- --- --- ----- --- ---- ---- ------- ----- ---- -------<br>--- --- -- ----- -- --- ---- -- --- ---- -- ------ ------<br>--- ----- -- ----,218407.52000000066,218401.60000000105,218174.593,218179.86999999994,218191.257,218424.558,,5,a
screen,html.Screen,2_1_0_1_6,2021-04-28T16:18:00.727Z,,,,,,,,,,,,,,,,,53,,,,,,,,,,,,,,242.5219999992696,,response,,,,99,,,,,,,Space,keypress(Space),,,,,,,,---- -- ----- -- ------ - lasting --- ----------<br>------------- ------ ------ ---- ---- ------- ----- -- ----<br>-------- ------- -- ---------- --- - --- ----- ----- ----<br>---- --- --- ----- --- ---- ---- ------- ----- ---- -------<br>--- --- -- ----- -- --- ---- -- --- ---- -- ------ ------<br>--- ----- -- ----,218670.21500000192,218667.07999999926,218407.894,218408.37499999907,218424.558,218674.542,,6,lasting
screen,html.Screen,2_1_0_1_7,2021-04-28T16:18:01.047Z,,,,,,,,,,,,,,,,,53,,,,,,,,,,,,,,306.48800000266056,,response,,,,99,,,,,,,Space,keypress(Space),,,,,,,,---- -- ----- -- ------ - ------- and ----------<br>------------- ------ ------ ---- ---- ------- ----- -- ----<br>-------- ------- -- ---------- --- - --- ----- ----- ----<br>---- --- --- ----- --- ---- ---- ------- ----- ---- -------<br>--- --- -- ----- -- --- ---- -- --- ---- -- ------ ------<br>--- ----- -- ----,218990.36999999953,218981.03000000265,218657.878,218670.85000000225,218674.542,219007.846,,7,and
screen,html.Screen,2_1_0_1_8,2021-04-28T16:18:01.391Z,,,,,,,,,,,,,,,,,53,,,,,,,,,,,,,,316.87900000222726,,response,,,,99,,,,,,,Space,keypress(Space),,,,,,,,---- -- ----- -- ------ - ------- --- fulfilling<br>------------- ------ ------ ---- ---- ------- ----- -- ----<br>-------- ------- -- ---------- --- - --- ----- ----- ----<br>---- --- --- ----- --- ---- ---- ------- ----- ---- -------<br>--- --- -- ----- -- --- ---- -- --- ---- -- ------ ------<br>--- ----- -- ----,219334.44000000236,219324.72500000222,218991.182,218991.65999999968,219007.846,219341.124,,8,fulfilling
screen,html.Screen,2_1_0_1_9,2021-04-28T16:18:01.756Z,,,,,,,,,,,,,,,,,53,,,,,,,,,,,,,,354.80099999997765,,response,,,,99,,,,,,,Space,keypress(Space),,,,,,,,"---- -- ----- -- ------ - ------- --- ----------<br>relationship, ------ ------ ---- ---- ------- ----- -- ----<br>-------- ------- -- ---------- --- - --- ----- ----- ----<br>---- --- --- ----- --- ---- ---- ------- ----- ---- -------<br>--- --- -- ----- -- --- ---- -- --- ---- -- ------ ------<br>--- ----- -- ----",219699.6700000018,219695.925,219324.46,219335.7849999993,219341.124,219707.752,,9,"relationship,"
screen,html.Screen,2_1_0_1_10,2021-04-28T16:18:02.470Z,,,,,,,,,,,,,,,,,53,,,,,,,,,,,,,,696.3930000004184,,response,,,,99,,,,,,,Space,keypress(Space),,,,,,,,---- -- ----- -- ------ - ------- --- ----------<br>------------- common ------ ---- ---- ------- ----- -- ----<br>-------- ------- -- ---------- --- - --- ----- ----- ----<br>---- --- --- ----- --- ---- ---- ------- ----- ---- -------<br>--- --- -- ----- -- --- ---- -- --- ---- -- ------ ------<br>--- ----- -- ----,220412.77000000264,220404.14500000043,219691.088,219700.1100000016,219707.752,220424.343,,10,common
screen,html.Screen,2_1_0_1_11,2021-04-28T16:18:02.791Z,,,,,,,,,,,,,,,,,53,,,,,,,,,,,,,,301.2020000011544,,response,,,,99,,,,,,,Space,keypress(Space),,,,,,,,---- -- ----- -- ------ - ------- --- ----------<br>------------- ------ wisdom ---- ---- ------- ----- -- ----<br>-------- ------- -- ---------- --- - --- ----- ----- ----<br>---- --- --- ----- --- ---- ---- ------- ----- ---- -------<br>--- --- -- ----- -- --- ---- -- --- ---- -- ------ ------<br>--- ----- -- ----,220734.6550000002,220725.54500000115,220407.679,220414.2950000023,220424.343,220740.988,,11,wisdom
screen,html.Screen,2_1_0_1_12,2021-04-28T16:18:03.023Z,,,,,,,,,,,,,,,,,53,,,,,,,,,,,,,,218.38700000217068,,response,,,,99,,,,,,,Space,keypress(Space),,,,,,,,---- -- ----- -- ------ - ------- --- ----------<br>------------- ------ ------ says ---- ------- ----- -- ----<br>-------- ------- -- ---------- --- - --- ----- ----- ----<br>---- --- --- ----- --- ---- ---- ------- ----- ---- -------<br>--- --- -- ----- -- --- ---- -- --- ---- -- ------ ------<br>--- ----- -- ----,220965.8249999993,220959.37500000218,220724.324,220736.280000001,220740.988,220974.314,,12,says
screen,html.Screen,2_1_0_1_13,2021-04-28T16:18:03.369Z,,,,,,,,,,,,,,,,,53,,,,,,,,,,,,,,331.1310000017693,,response,,,,99,,,,,,,Space,keypress(Space),,,,,,,,---- -- ----- -- ------ - ------- --- ----------<br>------------- ------ ------ ---- that ------- ----- -- ----<br>-------- ------- -- ---------- --- - --- ----- ----- ----<br>---- --- --- ----- --- ---- ---- ------- ----- ---- -------<br>--- --- -- ----- -- --- ---- -- --- ---- -- ------ ------<br>--- ----- -- ----,221312.51500000144,221305.44500000178,220957.65,220967.42500000255,220974.314,221324.255,,13,that
screen,html.Screen,2_1_0_1_14,2021-04-28T16:18:03.644Z,,,,,,,,,,,,,,,,,53,,,,,,,,,,,,,,258.7650000018475,,response,,,,99,,,,,,,Space,keypress(Space),,,,,,,,---- -- ----- -- ------ - ------- --- ----------<br>------------- ------ ------ ---- ---- feeling ----- -- ----<br>-------- ------- -- ---------- --- - --- ----- ----- ----<br>---- --- --- ----- --- ---- ---- ------- ----- ---- -------<br>--- --- -- ----- -- --- ---- -- --- ---- -- ------ ------<br>--- ----- -- ----,221586.88500000062,221583.02000000185,221307.591,221313.07000000015,221324.255,221590.91,,14,feeling
screen,html.Screen,2_1_0_1_15,2021-04-28T16:18:04.211Z,,,,,,,,,,,,,,,,,53,,,,,,,,,,,,,,555.0050000009651,,response,,,,99,,,,,,,Space,keypress(Space),,,,,,,,---- -- ----- -- ------ - ------- --- ----------<br>------------- ------ ------ ---- ---- ------- close -- ----<br>-------- ------- -- ---------- --- - --- ----- ----- ----<br>---- --- --- ----- --- ---- ---- ------- ----- ---- -------<br>--- --- -- ----- -- --- ---- -- --- ---- -- ------ ------<br>--- ----- -- ----,222154.12500000093,222145.91500000097,221574.246,221587.54500000214,221590.91,222157.498,,15,close
screen,html.Screen,2_1_0_1_16,2021-04-28T16:18:04.522Z,,,,,,,,,,,,,,,,,53,,,,,,,,,,,,,,300.2920000003942,,response,,,,99,,,,,,,Space,keypress(Space),,,,,,,,---- -- ----- -- ------ - ------- --- ----------<br>------------- ------ ------ ---- ---- ------- ----- to ----<br>-------- ------- -- ---------- --- - --- ----- ----- ----<br>---- --- --- ----- --- ---- ---- ------- ----- ---- -------<br>--- --- -- ----- -- --- ---- -- --- ---- -- ------ ------<br>--- ----- -- ----,222465.58500000174,222457.7900000004,222140.834,222154.90000000136,222157.498,222474.147,,16,to
screen,html.Screen,2_1_0_1_17,2021-04-28T16:18:04.806Z,,,,,,,,,,,,,,,,,53,,,,,,,,,,,,,,269.4180000006745,,response,,,,99,,,,,,,Space,keypress(Space),,,,,,,,---- -- ----- -- ------ - ------- --- ----------<br>------------- ------ ------ ---- ---- ------- ----- -- your<br>-------- ------- -- ---------- --- - --- ----- ----- ----<br>---- --- --- ----- --- ---- ---- ------- ----- ---- -------<br>--- --- -- ----- -- --- ---- -- --- ---- -- ------ ------<br>--- ----- -- ----,222748.7399999991,222743.56500000067,222457.483,222467.21500000058,222474.147,222757.46,,17,your
screen,html.Screen,2_1_0_1_18,2021-04-28T16:18:05.113Z,,,,,,,,,,,,,,,,,53,,,,,,,,,,,,,,290.94999999942956,,response,,,,99,,,,,,,Space,keypress(Space),,,,,,,,---- -- ----- -- ------ - ------- --- ----------<br>------------- ------ ------ ---- ---- ------- ----- -- ----<br>romantic ------- -- ---------- --- - --- ----- ----- ----<br>---- --- --- ----- --- ---- ---- ------- ----- ---- -------<br>--- --- -- ----- -- --- ---- -- --- ---- -- ------ ------<br>--- ----- -- ----,223056.65000000226,223048.40999999942,222740.796,222750.1000000011,222757.46,223074.072,,18,romantic
screen,html.Screen,2_1_0_1_19,2021-04-28T16:18:05.360Z,,,,,,,,,,,,,,,,,53,,,,,,,,,,,,,,219.6529999995546,,response,,,,99,,,,,,,Space,keypress(Space),,,,,,,,---- -- ----- -- ------ - ------- --- ----------<br>------------- ------ ------ ---- ---- ------- ----- -- ----<br>-------- partner -- ---------- --- - --- ----- ----- ----<br>---- --- --- ----- --- ---- ---- ------- ----- ---- -------<br>--- --- -- ----- -- --- ---- -- --- ---- -- ------ ------<br>--- ----- -- ----,223302.9349999997,223293.72499999954,223057.408,223058.6399999993,223074.072,223307.404,,19,partner
screen,html.Screen,2_1_0_1_20,2021-04-28T16:18:05.754Z,,,,,,,,,,,,,,,,,53,,,,,,,,,,,,,,383.2959999991872,,response,,,,99,,,,,,,Space,keypress(Space),,,,,,,,---- -- ----- -- ------ - ------- --- ----------<br>------------- ------ ------ ---- ---- ------- ----- -- ----<br>-------- ------- is ---------- --- - --- ----- ----- ----<br>---- --- --- ----- --- ---- ---- ------- ----- ---- -------<br>--- --- -- ----- -- --- ---- -- --- ---- -- ------ ------<br>--- ----- -- ----,223697.53499999933,223690.6999999992,223290.74,223304.51000000176,223307.404,223707.336,,20,is
screen,html.Screen,2_1_0_1_21,2021-04-28T16:18:06.034Z,,,,,,,,,,,,,,,,,53,,,,,,,,,,,,,,262.7090000018361,,response,,,,99,,,,,,,Space,keypress(Space),,,,,,,,---- -- ----- -- ------ - ------- --- ----------<br>------------- ------ ------ ---- ---- ------- ----- -- ----<br>-------- ------- -- paramount. --- - --- ----- ----- ----<br>---- --- --- ----- --- ---- ---- ------- ----- ---- -------<br>--- --- -- ----- -- --- ---- -- --- ---- -- ------ ------<br>--- ----- -- ----,223977.67999999996,223970.04500000185,223690.672,223698.1799999994,223707.336,223990.651,,21,paramount.
screen,html.Screen,2_1_0_1_22,2021-04-28T16:18:06.600Z,,,,,,,,,,,,,,,,,53,,,,,,,,,,,,,,545.1290000019653,,response,,,,99,,,,,,,Space,keypress(Space),,,,,,,,---- -- ----- -- ------ - ------- --- ----------<br>------------- ------ ------ ---- ---- ------- ----- -- ----<br>-------- ------- -- ---------- But - --- ----- ----- ----<br>---- --- --- ----- --- ---- ---- ------- ----- ---- -------<br>--- --- -- ----- -- --- ---- -- --- ---- -- ------ ------<br>--- ----- -- ----,224543.02000000098,224535.78000000198,223973.987,223978.10500000196,223990.651,224557.251,,22,But
screen,html.Screen,2_1_0_1_23,2021-04-28T16:18:06.973Z,,,,,,,,,,,,,,,,,53,,,,,,,,,,,,,,350.6240000007965,,response,,,,99,,,,,,,Space,keypress(Space),,,,,,,,---- -- ----- -- ------ - ------- --- ----------<br>------------- ------ ------ ---- ---- ------- ----- -- ----<br>-------- ------- -- ---------- --- a --- ----- ----- ----<br>---- --- --- ----- --- ---- ---- ------- ----- ---- -------<br>--- --- -- ----- -- --- ---- -- --- ---- -- ------ ------<br>--- ----- -- ----,224916.09000000244,224907.8750000008,224540.587,224544.50999999972,224557.251,224923.88,,23,a
screen,html.Screen,2_1_0_1_24,2021-04-28T16:18:07.271Z,,,,,,,,,,,,,,,,,53,,,,,,,,,,,,,,281.3850000005041,,response,,,,99,,,,,,,Space,keypress(Space),,,,,,,,---- -- ----- -- ------ - ------- --- ----------<br>------------- ------ ------ ---- ---- ------- ----- -- ----<br>-------- ------- -- ---------- --- - new ----- ----- ----<br>---- --- --- ----- --- ---- ---- ------- ----- ---- -------<br>--- --- -- ----- -- --- ---- -- --- ---- -- ------ ------<br>--- ----- -- ----,225214.01999999944,225205.2650000005,224907.216,224916.4149999997,224923.88,225223.851,,24,new
screen,html.Screen,2_1_0_1_25,2021-04-28T16:18:07.558Z,,,,,,,,,,,,,,,,,53,,,,,,,,,,,,,,269.4040000012319,,response,,,,99,,,,,,,Space,keypress(Space),,,,,,,,---- -- ----- -- ------ - ------- --- ----------<br>------------- ------ ------ ---- ---- ------- ----- -- ----<br>-------- ------- -- ---------- --- - --- study ----- ----<br>---- --- --- ----- --- ---- ---- ------- ----- ---- -------<br>--- --- -- ----- -- --- ---- -- --- ---- -- ------ ------<br>--- ----- -- ----,225500.91500000053,225493.25500000123,225207.187,225214.3700000015,225223.851,225507.163,,25,study
screen,html.Screen,2_1_0_1_26,2021-04-28T16:18:07.890Z,,,,,,,,,,,,,,,,,53,,,,,,,,,,,,,,319.49200000075507,,response,,,,99,,,,,,,Space,keypress(Space),,,,,,,,---- -- ----- -- ------ - ------- --- ----------<br>------------- ------ ------ ---- ---- ------- ----- -- ----<br>-------- ------- -- ---------- --- - --- ----- finds ----<br>---- --- --- ----- --- ---- ---- ------- ----- ---- -------<br>--- --- -- ----- -- --- ---- -- --- ---- -- ------ ------<br>--- ----- -- ----,225833.38000000003,225826.65500000076,225490.499,225502.11499999932,225507.163,225840.466,,26,finds
screen,html.Screen,2_1_0_1_27,2021-04-28T16:18:08.196Z,,,,,,,,,,,,,,,,,53,,,,,,,,,,,,,,290.09400000143796,,response,,,,99,,,,,,,Space,keypress(Space),,,,,,,,---- -- ----- -- ------ - ------- --- ----------<br>------------- ------ ------ ---- ---- ------- ----- -- ----<br>-------- ------- -- ---------- --- - --- ----- ----- that<br>---- --- --- ----- --- ---- ---- ------- ----- ---- -------<br>--- --- -- ----- -- --- ---- -- --- ---- -- ------ ------<br>--- ----- -- ----,226138.80000000063,226130.56000000142,225823.802,225833.8900000017,225840.466,226157.087,,27,that
screen,html.Screen,2_1_0_1_28,2021-04-28T16:18:08.519Z,,,,,,,,,,,,,,,,,53,,,,,,,,,,,,,,296.1080000018701,,response,,,,99,,,,,,,Space,keypress(Space),,,,,,,,---- -- ----- -- ------ - ------- --- ----------<br>------------- ------ ------ ---- ---- ------- ----- -- ----<br>-------- ------- -- ---------- --- - --- ----- ----- ----<br>it's --- --- ----- --- ---- ---- ------- ----- ---- -------<br>--- --- -- ----- -- --- ---- -- --- ---- -- ------ ------<br>--- ----- -- ----,226462.37499999916,226453.19500000187,226140.423,226142.35499999995,226157.087,226473.727,,28,it's
screen,html.Screen,2_1_0_1_29,2021-04-28T16:18:08.780Z,,,,,,,,,,,,,,,,,53,,,,,,,,,,,,,,238.3730000006326,,response,,,,99,,,,,,,Space,keypress(Space),,,,,,,,---- -- ----- -- ------ - ------- --- ----------<br>------------- ------ ------ ---- ---- ------- ----- -- ----<br>-------- ------- -- ---------- --- - --- ----- ----- ----<br>---- not --- ----- --- ---- ---- ------- ----- ---- -------<br>--- --- -- ----- -- --- ---- -- --- ---- -- ------ ------<br>--- ----- -- ----,226723.09999999925,226712.10000000065,226457.063,226462.68500000224,226473.727,226740.379,,29,not
screen,html.Screen,2_1_0_1_30,2021-04-28T16:18:09.022Z,,,,,,,,,,,,,,,,,53,,,,,,,,,,,,,,217.92600000012317,,response,,,,99,,,,,,,Space,keypress(Space),,,,,,,,---- -- ----- -- ------ - ------- --- ----------<br>------------- ------ ------ ---- ---- ------- ----- -- ----<br>-------- ------- -- ---------- --- - --- ----- ----- ----<br>---- --- how ----- --- ---- ---- ------- ----- ---- -------<br>--- --- -- ----- -- --- ---- -- --- ---- -- ------ ------<br>--- ----- -- ----,226965.70000000065,226958.3050000001,226723.715,226723.57000000193,226740.379,226973.676,,30,how
screen,html.Screen,2_1_0_1_31,2021-04-28T16:18:09.310Z,,,,,,,,,,,,,,,,,53,,,,,,,,,,,,,,269.55400000003283,,response,,,,99,,,,,,,Space,keypress(Space),,,,,,,,---- -- ----- -- ------ - ------- --- ----------<br>------------- ------ ------ ---- ---- ------- ----- -- ----<br>-------- ------- -- ---------- --- - --- ----- ----- ----<br>---- --- --- close --- ---- ---- ------- ----- ---- -------<br>--- --- -- ----- -- --- ---- -- --- ---- -- ------ ------<br>--- ----- -- ----,227253.1600000002,227243.23000000004,226957.012,226966.1350000024,226973.676,227256.978,,31,close
screen,html.Screen,2_1_0_1_32,2021-04-28T16:18:09.635Z,,,,,,,,,,,,,,,,,53,,,,,,,,,,,,,,317.8870000023162,,response,,,,99,,,,,,,Space,keypress(Space),,,,,,,,---- -- ----- -- ------ - ------- --- ----------<br>------------- ------ ------ ---- ---- ------- ----- -- ----<br>-------- ------- -- ---------- --- - --- ----- ----- ----<br>---- --- --- ----- you ---- ---- ------- ----- ---- -------<br>--- --- -- ----- -- --- ---- -- --- ---- -- ------ ------<br>--- ----- -- ----,227578.33000000028,227574.86500000232,227240.314,227253.47500000134,227256.978,227590.272,,32,you
screen,html.Screen,2_1_0_1_33,2021-04-28T16:18:09.942Z,,,,,,,,,,,,,,,,,53,,,,,,,,,,,,,,290.9330000015034,,response,,,,99,,,,,,,Space,keypress(Space),,,,,,,,---- -- ----- -- ------ - ------- --- ----------<br>------------- ------ ------ ---- ---- ------- ----- -- ----<br>-------- ------- -- ---------- --- - --- ----- ----- ----<br>---- --- --- ----- --- feel ---- ------- ----- ---- -------<br>--- --- -- ----- -- --- ---- -- --- ---- -- ------ ------<br>--- ----- -- ----,227885.37500000166,227881.2050000015,227573.608,227578.62000000023,227590.272,227890.247,,33,feel
screen,html.Screen,2_1_0_1_34,2021-04-28T16:18:10.270Z,,,,,,,,,,,,,,,,,53,,,,,,,,,,,,,,315.7630000016943,,response,,,,99,,,,,,,Space,keypress(Space),,,,,,,,---- -- ----- -- ------ - ------- --- ----------<br>------------- ------ ------ ---- ---- ------- ----- -- ----<br>-------- ------- -- ---------- --- - --- ----- ----- ----<br>---- --- --- ----- --- ---- that ------- ----- ---- -------<br>--- --- -- ----- -- --- ---- -- --- ---- -- ------ ------<br>--- ----- -- ----,228213.59999999913,228206.0100000017,227873.583,227886.4300000023,227890.247,228223.556,,34,that
screen,html.Screen,2_1_0_1_35,2021-04-28T16:18:10.597Z,,,,,,,,,,,,,,,,,53,,,,,,,,,,,,,,306.7689999997092,,response,,,,99,,,,,,,Space,keypress(Space),,,,,,,,---- -- ----- -- ------ - ------- --- ----------<br>------------- ------ ------ ---- ---- ------- ----- -- ----<br>-------- ------- -- ---------- --- - --- ----- ----- ----<br>---- --- --- ----- --- ---- ---- matters ----- ---- -------<br>--- --- -- ----- -- --- ---- -- --- ---- -- ------ ------<br>--- ----- -- ----,228540.58000000077,228530.32499999972,228206.892,228214.20000000217,228223.556,228556.841,,35,matters
screen,html.Screen,2_1_0_1_36,2021-04-28T16:18:10.917Z,,,,,,,,,,,,,,,,,53,,,,,,,,,,,,,,294.41400000141584,,response,,,,99,,,,,,,Space,keypress(Space),,,,,,,,"---- -- ----- -- ------ - ------- --- ----------<br>------------- ------ ------ ---- ---- ------- ----- -- ----<br>-------- ------- -- ---------- --- - --- ----- ----- ----<br>---- --- --- ----- --- ---- ---- ------- most, ---- -------<br>--- --- -- ----- -- --- ---- -- --- ---- -- ------ ------<br>--- ----- -- ----",228860.71000000084,228851.2550000014,228540.177,228542.01499999908,228556.841,228873.489,,36,"most,"
screen,html.Screen,2_1_0_1_37,2021-04-28T16:18:11.283Z,,,,,,,,,,,,,,,,,53,,,,,,,,,,,,,,344.93599999911385,,response,,,,99,,,,,,,Space,keypress(Space),,,,,,,,---- -- ----- -- ------ - ------- --- ----------<br>------------- ------ ------ ---- ---- ------- ----- -- ----<br>-------- ------- -- ---------- --- - --- ----- ----- ----<br>---- --- --- ----- --- ---- ---- ------- ----- it's -------<br>--- --- -- ----- -- --- ---- -- --- ---- -- ------ ------<br>--- ----- -- ----,229225.83999999915,229218.42499999912,228856.825,228862.61000000013,228873.489,229240.104,,37,it's
screen,html.Screen,2_1_0_1_38,2021-04-28T16:18:11.612Z,,,,,,,,,,,,,,,,,53,,,,,,,,,,,,,,305.15600000260747,,response,,,,99,,,,,,,Space,keypress(Space),,,,,,,,---- -- ----- -- ------ - ------- --- ----------<br>------------- ------ ------ ---- ---- ------- ----- -- ----<br>-------- ------- -- ---------- --- - --- ----- ----- ----<br>---- --- --- ----- --- ---- ---- ------- ----- ---- whether<br>--- --- -- ----- -- --- ---- -- --- ---- -- ------ ------<br>--- ----- -- ----,229554.89500000112,229545.2600000026,229223.44,229226.2750000009,229240.104,229573.407,,38,whether
screen,html.Screen,2_1_0_1_39,2021-04-28T16:18:11.958Z,,,,,,,,,,,,,,,,,53,,,,,,,,,,,,,,321.85799999919254,,response,,,,99,,,,,,,Space,keypress(Space),,,,,,,,---- -- ----- -- ------ - ------- --- ----------<br>------------- ------ ------ ---- ---- ------- ----- -- ----<br>-------- ------- -- ---------- --- - --- ----- ----- ----<br>---- --- --- ----- --- ---- ---- ------- ----- ---- -------<br>you --- -- ----- -- --- ---- -- --- ---- -- ------ ------<br>--- ----- -- ----,229900.74000000095,229895.2649999992,229556.743,229556.22500000027,229573.407,229906.709,,39,you
screen,html.Screen,2_1_0_1_40,2021-04-28T16:18:12.236Z,,,,,,,,,,,,,,,,,53,,,,,,,,,,,,,,263.12100000254577,,response,,,,99,,,,,,,Space,keypress(Space),,,,,,,,---- -- ----- -- ------ - ------- --- ----------<br>------------- ------ ------ ---- ---- ------- ----- -- ----<br>-------- ------- -- ---------- --- - --- ----- ----- ----<br>---- --- --- ----- --- ---- ---- ------- ----- ---- -------<br>--- are -- ----- -- --- ---- -- --- ---- -- ------ ------<br>--- ----- -- ----,230179.500000002,230169.83000000255,229890.045,229901.76500000234,229906.709,230190.023,,40,are
screen,html.Screen,2_1_0_1_41,2021-04-28T16:18:12.502Z,,,,,,,,,,,,,,,,,53,,,,,,,,,,,,,,248.32200000231387,,response,,,,99,,,,,,,Space,keypress(Space),,,,,,,,---- -- ----- -- ------ - ------- --- ----------<br>------------- ------ ------ ---- ---- ------- ----- -- ----<br>-------- ------- -- ---------- --- - --- ----- ----- ----<br>---- --- --- ----- --- ---- ---- ------- ----- ---- -------<br>--- --- as ----- -- --- ---- -- --- ---- -- ------ ------<br>--- ----- -- ----,230445.4450000012,230438.3450000023,230173.359,230184.40499999997,230190.023,230456.664,,41,as
screen,html.Screen,2_1_0_1_42,2021-04-28T16:18:12.837Z,,,,,,,,,,,,,,,,,53,,,,,,,,,,,,,,314.3810000013327,,response,,,,99,,,,,,,Space,keypress(Space),,,,,,,,---- -- ----- -- ------ - ------- --- ----------<br>------------- ------ ------ ---- ---- ------- ----- -- ----<br>-------- ------- -- ---------- --- - --- ----- ----- ----<br>---- --- --- ----- --- ---- ---- ------- ----- ---- -------<br>--- --- -- close -- --- ---- -- --- ---- -- ------ ------<br>--- ----- -- ----,230780.12500000114,230771.04500000132,230440,230446.14,230456.664,230789.959,,42,close
screen,html.Screen,2_1_0_1_43,2021-04-28T16:18:13.163Z,,,,,,,,,,,,,,,,,53,,,,,,,,,,,,,,307.66100000045844,,response,,,,99,,,,,,,Space,keypress(Space),,,,,,,,---- -- ----- -- ------ - ------- --- ----------<br>------------- ------ ------ ---- ---- ------- ----- -- ----<br>-------- ------- -- ---------- --- - --- ----- ----- ----<br>---- --- --- ----- --- ---- ---- ------- ----- ---- -------<br>--- --- -- ----- as --- ---- -- --- ---- -- ------ ------<br>--- ----- -- ----,231105.83500000212,231097.62000000046,230773.295,230782.30000000258,230789.959,231123.241,,43,as
screen,html.Screen,2_1_0_1_44,2021-04-28T16:18:13.509Z,,,,,,,,,,,,,,,,,53,,,,,,,,,,,,,,321.45900000000256,,response,,,,99,,,,,,,Space,keypress(Space),,,,,,,,---- -- ----- -- ------ - ------- --- ----------<br>------------- ------ ------ ---- ---- ------- ----- -- ----<br>-------- ------- -- ---------- --- - --- ----- ----- ----<br>---- --- --- ----- --- ---- ---- ------- ----- ---- -------<br>--- --- -- ----- -- you ---- -- --- ---- -- ------ ------<br>--- ----- -- ----,231452.59000000078,231444.7,231106.577,231107.3400000023,231123.241,231456.545,,44,you
screen,html.Screen,2_1_0_1_45,2021-04-28T16:18:13.834Z,,,,,,,,,,,,,,,,,53,,,,,,,,,,,,,,313.5100000008533,,response,,,,99,,,,,,,Space,keypress(Space),,,,,,,,---- -- ----- -- ------ - ------- --- ----------<br>------------- ------ ------ ---- ---- ------- ----- -- ----<br>-------- ------- -- ---------- --- - --- ----- ----- ----<br>---- --- --- ----- --- ---- ---- ------- ----- ---- -------<br>--- --- -- ----- -- --- want -- --- ---- -- ------ ------<br>--- ----- -- ----,231776.83000000252,231770.05500000087,231439.881,231452.91500000167,231456.545,231789.843,,45,want
screen,html.Screen,2_1_0_1_46,2021-04-28T16:18:14.217Z,,,,,,,,,,,,,,,,,53,,,,,,,,,,,,,,364.71200000098906,,response,,,,99,,,,,,,Space,keypress(Space),,,,,,,,---- -- ----- -- ------ - ------- --- ----------<br>------------- ------ ------ ---- ---- ------- ----- -- ----<br>-------- ------- -- ---------- --- - --- ----- ----- ----<br>---- --- --- ----- --- ---- ---- ------- ----- ---- -------<br>--- --- -- ----- -- --- ---- to --- ---- -- ------ ------<br>--- ----- -- ----,232160.35499999998,232154.55500000098,231773.179,231777.2299999997,231789.843,232173.144,,46,to
screen,html.Screen,2_1_0_1_47,2021-04-28T16:18:14.567Z,,,,,,,,,,,,,,,,,53,,,,,,,,,,,,,,328.7410000014934,,response,,,,99,,,,,,,Space,keypress(Space),,,,,,,,"---- -- ----- -- ------ - ------- --- ----------<br>------------- ------ ------ ---- ---- ------- ----- -- ----<br>-------- ------- -- ---------- --- - --- ----- ----- ----<br>---- --- --- ----- --- ---- ---- ------- ----- ---- -------<br>--- --- -- ----- -- --- ---- -- be, ---- -- ------ ------<br>--- ----- -- ----",232510.41500000065,232501.8850000015,232156.48,232160.8899999992,232173.144,232523.104,,47,"be,"
screen,html.Screen,2_1_0_1_48,2021-04-28T16:18:15.030Z,,,,,,,,,,,,,,,,,53,,,,,,,,,,,,,,441.5609999995213,,response,,,,99,,,,,,,Space,keypress(Space),,,,,,,,---- -- ----- -- ------ - ------- --- ----------<br>------------- ------ ------ ---- ---- ------- ----- -- ----<br>-------- ------- -- ---------- --- - --- ----- ----- ----<br>---- --- --- ----- --- ---- ---- ------- ----- ---- -------<br>--- --- -- ----- -- --- ---- -- --- even -- ------ ------<br>--- ----- -- ----,232973.67999999915,232964.6649999995,232506.44,232510.8650000002,232523.104,232989.709,,48,even
screen,html.Screen,2_1_0_1_49,2021-04-28T16:18:15.325Z,,,,,,,,,,,,,,,,,53,,,,,,,,,,,,,,271.0810000002675,,response,,,,99,,,,,,,Space,keypress(Space),,,,,,,,---- -- ----- -- ------ - ------- --- ----------<br>------------- ------ ------ ---- ---- ------- ----- -- ----<br>-------- ------- -- ---------- --- - --- ----- ----- ----<br>---- --- --- ----- --- ---- ---- ------- ----- ---- -------<br>--- --- -- ----- -- --- ---- -- --- ---- if ------ ------<br>--- ----- -- ----,233268.06000000215,233260.79000000027,232973.045,232975.22000000026,232989.709,233273.032,,49,if
screen,html.Screen,2_1_0_1_50,2021-04-28T16:18:15.708Z,,,,,,,,,,,,,,,,,53,,,,,,,,,,,,,,369.98799999951734,,response,,,,99,,,,,,,Space,keypress(Space),,,,,,,,---- -- ----- -- ------ - ------- --- ----------<br>------------- ------ ------ ---- ---- ------- ----- -- ----<br>-------- ------- -- ---------- --- - --- ----- ----- ----<br>---- --- --- ----- --- ---- ---- ------- ----- ---- -------<br>--- --- -- ----- -- --- ---- -- --- ---- -- that's ------<br>--- ----- -- ----,233650.74000000095,233643.01999999952,233256.368,233268.54000000094,233273.032,233656.319,,50,that's
screen,html.Screen,2_1_0_1_51,2021-04-28T16:18:16.131Z,,,,,,,,,,,,,,,,,53,,,,,,,,,,,,,,411.1910000007774,,response,,,,99,,,,,,,Space,keypress(Space),,,,,,,,---- -- ----- -- ------ - ------- --- ----------<br>------------- ------ ------ ---- ---- ------- ----- -- ----<br>-------- ------- -- ---------- --- - --- ----- ----- ----<br>---- --- --- ----- --- ---- ---- ------- ----- ---- -------<br>--- --- -- ----- -- --- ---- -- --- ---- -- ------ really<br>--- ----- -- ----,234074.28000000073,234067.51000000077,233639.655,233651.35999999984,233656.319,234089.599,,51,really
screen,html.Screen,2_1_0_1_52,2021-04-28T16:18:16.481Z,,,,,,,,,,,,,,,,,53,,,,,,,,,,,,,,326.55600000263075,,response,,,,99,,,,,,,Space,keypress(Space),,,,,,,,---- -- ----- -- ------ - ------- --- ----------<br>------------- ------ ------ ---- ---- ------- ----- -- ----<br>-------- ------- -- ---------- --- - --- ----- ----- ----<br>---- --- --- ----- --- ---- ---- ------- ----- ---- -------<br>--- --- -- ----- -- --- ---- -- --- ---- -- ------ ------<br>not ----- -- ----,234424.3150000002,234416.15500000262,234072.935,234075.30500000212,234089.599,234439.578,,52,not
screen,html.Screen,2_1_0_1_53,2021-04-28T16:18:16.735Z,,,,,,,,,,,,,,,,,53,,,,,,,,,,,,,,231.6719999994093,,response,,,,99,,,,,,,Space,keypress(Space),,,,,,,,---- -- ----- -- ------ - ------- --- ----------<br>------------- ------ ------ ---- ---- ------- ----- -- ----<br>-------- ------- -- ---------- --- - --- ----- ----- ----<br>---- --- --- ----- --- ---- ---- ------- ----- ---- -------<br>--- --- -- ----- -- --- ---- -- --- ---- -- ------ ------<br>--- close -- ----,234678.05000000226,234671.24999999942,234422.914,234425.32500000016,234439.578,234689.558,,53,close
screen,html.Screen,2_1_0_1_54,2021-04-28T16:18:17.092Z,,,,,,,,,,,,,,,,,53,,,,,,,,,,,,,,335.7870000018447,,response,,,,99,,,,,,,Space,keypress(Space),,,,,,,,---- -- ----- -- ------ - ------- --- ----------<br>------------- ------ ------ ---- ---- ------- ----- -- ----<br>-------- ------- -- ---------- --- - --- ----- ----- ----<br>---- --- --- ----- --- ---- ---- ------- ----- ---- -------<br>--- --- -- ----- -- --- ---- -- --- ---- -- ------ ------<br>--- ----- at ----,235034.82000000076,235025.34500000183,234672.894,234678.42500000188,234689.558,235039.503,,54,at
screen,html.Screen,2_1_0_1_55,2021-04-28T16:18:18.071Z,,,,,,,,,,,,,,,,,53,,,,,,,,,,,,,,968.0020000014047,,response,,,,99,,,,,,,Space,keypress(Space),,,,,,,,---- -- ----- -- ------ - ------- --- ----------<br>------------- ------ ------ ---- ---- ------- ----- -- ----<br>-------- ------- -- ---------- --- - --- ----- ----- ----<br>---- --- --- ----- --- ---- ---- ------- ----- ---- -------<br>--- --- -- ----- -- --- ---- -- --- ---- -- ------ ------<br>--- ----- -- all.,236013.84999999937,236007.5050000014,235022.839,235035.14500000165,235039.503,236022.698,,55,all.
Item 99,flow.Loop,2_1_0_1,2021-04-28T16:18:18.073Z,,,,,,,,,,,,,,,,,,,,,,,,,,,,,,,19982.741000001406,,completion,,,,,A,,,,,,,,,,,silence,,,,,236015.87500000096,236007.5050000014,215991.436,215995.9400000007,216024.764,236022.698,,,
Question 1,html.Screen,2_1_0_2,2021-04-28T16:18:23.938Z,,,,,,,,,,,,,,,,,,,,,,,,,,,,true,FALSE,,5845.87200000236,,response,,,,99,A,,,,,,FALSE,click #choice-2,,,,silence,,,,,241881.68000000223,241868.57000000236,236006.034,236016.41999999993,236022.698,241888.779,,,
Question 2,html.Screen,2_1_0_3,2021-04-28T16:18:28.366Z,,,,,,,,,,,,,,,,,,,,,,,,,,,,true,TRUE,,4406.375999999786,,response,,,,99,A,,,,,,TRUE,click #choice-1,,,,silence,,,,,246309.5600000015,246295.1549999998,241872.115,241883.07500000155,241888.779,246338.363,,,
Item 99,flow.Sequence,2_1_0,2021-04-28T16:18:28.367Z,,,,,,,,,,,,,,,,,,,,,,,,,,,,,,,40286.077999999805,,completion,,,,,,,,,,,,,,,,,,,,,246310.03500000224,246295.1549999998,205975.749,205990.21500000163,206009.077,246338.363,,,
Holding screen,html.Screen,2_1_1_0,2021-04-28T16:18:38.393Z,,,,,,,,,,,,,,,,,,,,,,,,,,,,,,,9998.91399999999,,timeout,,,,,,,,,,,,,,,,,,,,,256335.750000002,256320.613,246321.67,246310.35500000144,246338.363,256337.277,,,
screen,html.Screen,2_1_1_1_0,2021-04-28T16:18:39.034Z,,,,,,,,,,,,,,,,,54,,,,,,,,,,,,,,629.5030000024708,,response,,,,100,,,,,,,Space,keypress(Space),,,,,,,,At --- ---- --- ------ ----- ------- ---- -- --- ------- --<br>------- ---------- ------ -- ----- -- ----- -- ---- ------<br>--- ----- --- --- ------ -------- ----- --- ------ ----- --<br>----- ----- ---------- --- --- ------ ------ ---- -- ------<br>------- --- ------ ----- --- ---- ------- -- ---- --- --<br>------- ------,256977.21500000262,256966.78000000247,256320.613,256336.12999999968,256337.277,256987.229,,0,At
screen,html.Screen,2_1_1_1_1,2021-04-28T16:18:39.268Z,,,,,,,,,,,,,,,,,54,,,,,,,,,,,,,,215.21600000263425,,response,,,,100,,,,,,,Space,keypress(Space),,,,,,,,-- the ---- --- ------ ----- ------- ---- -- --- ------- --<br>------- ---------- ------ -- ----- -- ----- -- ---- ------<br>--- ----- --- --- ------ -------- ----- --- ------ ----- --<br>----- ----- ---------- --- --- ------ ------ ---- -- ------<br>------- --- ------ ----- --- ---- ------- -- ---- --- --<br>------- ------,257211.13999999943,257202.44500000263,256970.565,256978.31000000224,256987.229,257220.554,,1,the
screen,html.Screen,2_1_1_1_2,2021-04-28T16:18:39.478Z,,,,,,,,,,,,,,,,,54,,,,,,,,,,,,,,192.83600000152364,,response,,,,100,,,,,,,Space,keypress(Space),,,,,,,,-- --- time --- ------ ----- ------- ---- -- --- ------- --<br>------- ---------- ------ -- ----- -- ----- -- ---- ------<br>--- ----- --- --- ------ -------- ----- --- ------ ----- --<br>----- ----- ---------- --- --- ------ ------ ---- -- ------<br>------- --- ------ ----- --- ---- ------- -- ---- --- --<br>------- ------,257421.48500000258,257413.39000000153,257203.89,257212.38500000254,257220.554,257437.196,,2,time
screen,html.Screen,2_1_1_1_3,2021-04-28T16:18:39.678Z,,,,,,,,,,,,,,,,,54,,,,,,,,,,,,,,178.14900000198395,,response,,,,100,,,,,,,Space,keypress(Space),,,,,,,,-- --- ---- the ------ ----- ------- ---- -- --- ------- --<br>------- ---------- ------ -- ----- -- ----- -- ---- ------<br>--- ----- --- --- ------ -------- ----- --- ------ ----- --<br>----- ----- ---------- --- --- ------ ------ ---- -- ------<br>------- --- ------ ----- --- ---- ------- -- ---- --- --<br>------- ------,257621.13500000123,257615.34500000198,257420.532,257422.79500000222,257437.196,257637.186,,3,the
screen,html.Screen,2_1_1_1_4,2021-04-28T16:18:39.888Z,,,,,,,,,,,,,,,,,54,,,,,,,,,,,,,,185.768999999651,,response,,,,100,,,,,,,Space,keypress(Space),,,,,,,,-- --- ---- --- French ----- ------- ---- -- --- ------- --<br>------- ---------- ------ -- ----- -- ----- -- ---- ------<br>--- ----- --- --- ------ -------- ----- --- ------ ----- --<br>----- ----- ---------- --- --- ------ ------ ---- -- ------<br>------- --- ------ ----- --- ---- ------- -- ---- --- --<br>------- ------,257831.34000000064,257822.95499999964,257620.522,257622.14999999924,257637.186,257837.153,,4,French
screen,html.Screen,2_1_1_1_5,2021-04-28T16:18:40.094Z,,,,,,,,,,,,,,,,,54,,,,,,,,,,,,,,191.22699999975157,,response,,,,100,,,,,,,Space,keypress(Space),,,,,,,,-- --- ---- --- ------ crown ------- ---- -- --- ------- --<br>------- ---------- ------ -- ----- -- ----- -- ---- ------<br>--- ----- --- --- ------ -------- ----- --- ------ ----- --<br>----- ----- ---------- --- --- ------ ------ ---- -- ------<br>------- --- ------ ----- --- ---- ------- -- ---- --- --<br>------- ------,258037.03999999925,258028.37999999974,257820.489,257833.43500000046,257837.153,258053.804,,5,crown
screen,html.Screen,2_1_1_1_6,2021-04-28T16:18:40.326Z,,,,,,,,,,,,,,,,,54,,,,,,,,,,,,,,211.20599999916158,,response,,,,100,,,,,,,Space,keypress(Space),,,,,,,,-- --- ---- --- ------ ----- secured ---- -- --- ------- --<br>------- ---------- ------ -- ----- -- ----- -- ---- ------<br>--- ----- --- --- ------ -------- ----- --- ------ ----- --<br>----- ----- ---------- --- --- ------ ------ ---- -- ------<br>------- --- ------ ----- --- ---- ------- -- ---- --- --<br>------- ------,258269.15999999983,258265.00999999917,258037.14,258037.36500000014,258053.804,258287.101,,6,secured
screen,html.Screen,2_1_1_1_7,2021-04-28T16:18:40.789Z,,,,,,,,,,,,,,,,,54,,,,,,,,,,,,,,437.0040000011504,,response,,,,100,,,,,,,Space,keypress(Space),,,,,,,,-- --- ---- --- ------ ----- ------- much -- --- ------- --<br>------- ---------- ------ -- ----- -- ----- -- ---- ------<br>--- ----- --- --- ------ -------- ----- --- ------ ----- --<br>----- ----- ---------- --- --- ------ ------ ---- -- ------<br>------- --- ------ ----- --- ---- ------- -- ---- --- --<br>------- ------,258732.4800000024,258724.10500000115,258270.437,258269.8249999994,258287.101,258737.041,,7,much
screen,html.Screen,2_1_1_1_8,2021-04-28T16:18:41.086Z,,,,,,,,,,,,,,,,,54,,,,,,,,,,,,,,283.65399999925285,,response,,,,100,,,,,,,Space,keypress(Space),,,,,,,,-- --- ---- --- ------ ----- ------- ---- of --- ------- --<br>------- ---------- ------ -- ----- -- ----- -- ---- ------<br>--- ----- --- --- ------ -------- ----- --- ------ ----- --<br>----- ----- ---------- --- --- ------ ------ ---- -- ------<br>------- --- ------ ----- --- ---- ------- -- ---- --- --<br>------- ------,259029.08500000194,259020.69499999925,258720.377,258732.82499999914,258737.041,259037.019,,8,of
screen,html.Screen,2_1_1_1_9,2021-04-28T16:18:41.386Z,,,,,,,,,,,,,,,,,54,,,,,,,,,,,,,,285.2359999991313,,response,,,,100,,,,,,,Space,keypress(Space),,,,,,,,-- --- ---- --- ------ ----- ------- ---- -- its ------- --<br>------- ---------- ------ -- ----- -- ----- -- ---- ------<br>--- ----- --- --- ------ -------- ----- --- ------ ----- --<br>----- ----- ---------- --- --- ------ ------ ---- -- ------<br>------- --- ------ ----- --- ---- ------- -- ---- --- --<br>------- ------,259329.48500000202,259322.25499999913,259020.355,259029.41500000088,259037.019,259336.994,,9,its
screen,html.Screen,2_1_1_1_10,2021-04-28T16:18:41.734Z,,,,,,,,,,,,,,,,,54,,,,,,,,,,,,,,336.0409999997937,,response,,,,100,,,,,,,Space,keypress(Space),,,,,,,,-- --- ---- --- ------ ----- ------- ---- -- --- revenue --<br>------- ---------- ------ -- ----- -- ----- -- ---- ------<br>--- ----- --- --- ------ -------- ----- --- ------ ----- --<br>----- ----- ---------- --- --- ------ ------ ---- -- ------<br>------- --- ------ ----- --- ---- ------- -- ---- --- --<br>------- ------,259677.05000000205,259673.0349999998,259320.33,259330.76500000243,259336.994,259686.968,,10,revenue
screen,html.Screen,2_1_1_1_11,2021-04-28T16:18:44.030Z,,,,,,,,,,,,,,,,,54,,,,,,,,,,,,,,2277.5420000016165,,response,,,,100,,,,,,,Space,keypress(Space),,,,,,,,-- --- ---- --- ------ ----- ------- ---- -- --- ------- by<br>------- ---------- ------ -- ----- -- ----- -- ---- ------<br>--- ----- --- --- ------ -------- ----- --- ------ ----- --<br>----- ----- ---------- --- --- ------ ------ ---- -- ------<br>------- --- ------ ----- --- ---- ------- -- ---- --- --<br>------- ------,261973.41000000233,261964.5100000016,259670.304,259677.5149999994,259686.968,261986.615,,11,by
screen,html.Screen,2_1_1_1_12,2021-04-28T16:18:44.413Z,,,,,,,,,,,,,,,,,54,,,,,,,,,,,,,,357.2150000015972,,response,,,,100,,,,,,,Space,keypress(Space),,,,,,,,-- --- ---- --- ------ ----- ------- ---- -- --- ------- --<br>issuing ---------- ------ -- ----- -- ----- -- ---- ------<br>--- ----- --- --- ------ -------- ----- --- ------ ----- --<br>----- ----- ---------- --- --- ------ ------ ---- -- ------<br>------- --- ------ ----- --- ---- ------- -- ---- --- --<br>------- ------,262355.78000000166,262343.8300000016,261969.951,261974.6500000001,261986.615,262370.007,,12,issuing
screen,html.Screen,2_1_1_1_13,2021-04-28T16:18:44.794Z,,,,,,,,,,,,,,,,,54,,,,,,,,,,,,,,360.14800000109244,,response,,,,100,,,,,,,Space,keypress(Space),,,,,,,,-- --- ---- --- ------ ----- ------- ---- -- --- ------- --<br>------- government ------ -- ----- -- ----- -- ---- ------<br>--- ----- --- --- ------ -------- ----- --- ------ ----- --<br>----- ----- ---------- --- --- ------ ------ ---- -- ------<br>------- --- ------ ----- --- ---- ------- -- ---- --- --<br>------- ------,262737.71499999927,262730.1550000011,262353.343,262356.87999999936,262370.007,262753.312,,13,government
screen,html.Screen,2_1_1_1_14,2021-04-28T16:18:45.191Z,,,,,,,,,,,,,,,,,54,,,,,,,,,,,,,,372.2330000026268,,response,,,,100,,,,,,,Space,keypress(Space),,,,,,,,-- --- ---- --- ------ ----- ------- ---- -- --- ------- --<br>------- ---------- bonds. -- ----- -- ----- -- ---- ------<br>--- ----- --- --- ------ -------- ----- --- ------ ----- --<br>----- ----- ---------- --- --- ------ ------ ---- -- ------<br>------- --- ------ ----- --- ---- ------- -- ---- --- --<br>------- ------,263134.2000000004,263125.5450000026,262736.648,262739.6200000003,262753.312,263153.261,,14,bonds.
screen,html.Screen,2_1_1_1_15,2021-04-28T16:18:46.132Z,,,,,,,,,,,,,,,,,54,,,,,,,,,,,,,,912.3890000004903,,response,,,,100,,,,,,,Space,keypress(Space),,,,,,,,-- --- ---- --- ------ ----- ------- ---- -- --- ------- --<br>------- ---------- ------ In ----- -- ----- -- ---- ------<br>--- ----- --- --- ------ -------- ----- --- ------ ----- --<br>----- ----- ---------- --- --- ------ ------ ---- -- ------<br>------- --- ------ ----- --- ---- ------- -- ---- --- --<br>------- ------,264075.5050000007,264065.6500000005,263136.597,263135.4050000009,263153.261,264086.459,,15,In
screen,html.Screen,2_1_1_1_16,2021-04-28T16:18:46.497Z,,,,,,,,,,,,,,,,,54,,,,,,,,,,,,,,347.41600000247126,,response,,,,100,,,,,,,Space,keypress(Space),,,,,,,,"-- --- ---- --- ------ ----- ------- ---- -- --- ------- --<br>------- ---------- ------ -- 1727, -- ----- -- ---- ------<br>--- ----- --- --- ------ -------- ----- --- ------ ----- --<br>----- ----- ---------- --- --- ------ ------ ---- -- ------<br>------- --- ------ ----- --- ---- ------- -- ---- --- --<br>------- ------",264440.6799999997,264433.87500000244,264069.795,264076.79500000086,264086.459,264453.125,,16,"1727,"
screen,html.Screen,2_1_1_1_17,2021-04-28T16:18:46.946Z,,,,,,,,,,,,,,,,,54,,,,,,,,,,,,,,428.0800000014715,,response,,,,100,,,,,,,Space,keypress(Space),,,,,,,,-- --- ---- --- ------ ----- ------- ---- -- --- ------- --<br>------- ---------- ------ -- ----- in ----- -- ---- ------<br>--- ----- --- --- ------ -------- ----- --- ------ ----- --<br>----- ----- ---------- --- --- ------ ------ ---- -- ------<br>------- --- ------ ----- --- ---- ------- -- ---- --- --<br>------- ------,264889.39000000025,264881.2050000015,264436.461,264441.68999999965,264453.125,264903.073,,17,in
screen,html.Screen,2_1_1_1_18,2021-04-28T16:18:47.350Z,,,,,,,,,,,,,,,,,54,,,,,,,,,,,,,,384.4370000019553,,response,,,,100,,,,,,,Space,keypress(Space),,,,,,,,-- --- ---- --- ------ ----- ------- ---- -- --- ------- --<br>------- ---------- ------ -- ----- -- order -- ---- ------<br>--- ----- --- --- ------ -------- ----- --- ------ ----- --<br>----- ----- ---------- --- --- ------ ------ ---- -- ------<br>------- --- ------ ----- --- ---- ------- -- ---- --- --<br>------- ------,265293.53500000073,265287.51000000193,264886.409,264890.370000001,264903.073,265303.051,,18,order
screen,html.Screen,2_1_1_1_19,2021-04-28T16:18:47.686Z,,,,,,,,,,,,,,,,,54,,,,,,,,,,,,,,315.9440000007162,,response,,,,100,,,,,,,Space,keypress(Space),,,,,,,,-- --- ---- --- ------ ----- ------- ---- -- --- ------- --<br>------- ---------- ------ -- ----- -- ----- to ---- ------<br>--- ----- --- --- ------ -------- ----- --- ------ ----- --<br>----- ----- ---------- --- --- ------ ------ ---- -- ------<br>------- --- ------ ----- --- ---- ------- -- ---- --- --<br>------- ------,265629.069999999,265618.9950000007,265286.387,265294.5350000009,265303.051,265636.35,,19,to
screen,html.Screen,2_1_1_1_20,2021-04-28T16:18:47.941Z,,,,,,,,,,,,,,,,,54,,,,,,,,,,,,,,239.1600000016624,,response,,,,100,,,,,,,Space,keypress(Space),,,,,,,,-- --- ---- --- ------ ----- ------- ---- -- --- ------- --<br>------- ---------- ------ -- ----- -- ----- -- save ------<br>--- ----- --- --- ------ -------- ----- --- ------ ----- --<br>----- ----- ---------- --- --- ------ ------ ---- -- ------<br>------- --- ------ ----- --- ---- ------- -- ---- --- --<br>------- ------,265884.52999999933,265875.51000000164,265619.686,265629.9400000025,265636.35,265902.981,,20,save
screen,html.Screen,2_1_1_1_21,2021-04-28T16:18:48.360Z,,,,,,,,,,,,,,,,,54,,,,,,,,,,,,,,391.4040000010282,,response,,,,100,,,,,,,Space,keypress(Space),,,,,,,,"-- --- ---- --- ------ ----- ------- ---- -- --- ------- --<br>------- ---------- ------ -- ----- -- ----- -- ---- money,<br>--- ----- --- --- ------ -------- ----- --- ------ ----- --<br>----- ----- ---------- --- --- ------ ------ ---- -- ------<br>------- --- ------ ----- --- ---- ------- -- ---- --- --<br>------- ------",266303.6150000007,266294.38500000106,265886.317,265886.39500000136,265902.981,266319.608,,21,"money,"
screen,html.Screen,2_1_1_1_22,2021-04-28T16:18:48.755Z,,,,,,,,,,,,,,,,,54,,,,,,,,,,,,,,372.6619999995455,,response,,,,100,,,,,,,Space,keypress(Space),,,,,,,,-- --- ---- --- ------ ----- ------- ---- -- --- ------- --<br>------- ---------- ------ -- ----- -- ----- -- ---- ------<br>the ----- --- --- ------ -------- ----- --- ------ ----- --<br>----- ----- ---------- --- --- ------ ------ ---- -- ------<br>------- --- ------ ----- --- ---- ------- -- ---- --- --<br>------- ------,266697.81499999954,266692.26999999955,266302.944,266303.99500000203,266319.608,266702.895,,22,the
screen,html.Screen,2_1_1_1_23,2021-04-28T16:18:49.121Z,,,,,,,,,,,,,,,,,54,,,,,,,,,,,,,,351.2600000016391,,response,,,,100,,,,,,,Space,keypress(Space),,,,,,,,-- --- ---- --- ------ ----- ------- ---- -- --- ------- --<br>------- ---------- ------ -- ----- -- ----- -- ---- ------<br>--- state --- --- ------ -------- ----- --- ------ ----- --<br>----- ----- ---------- --- --- ------ ------ ---- -- ------<br>------- --- ------ ----- --- ---- ------- -- ---- --- --<br>------- ------,267064.3249999994,267054.15500000166,266686.231,266698.2300000018,266702.895,267069.534,,23,state
screen,html.Screen,2_1_1_1_24,2021-04-28T16:18:49.417Z,,,,,,,,,,,,,,,,,54,,,,,,,,,,,,,,279.8410000016447,,response,,,,100,,,,,,,Space,keypress(Space),,,,,,,,-- --- ---- --- ------ ----- ------- ---- -- --- ------- --<br>------- ---------- ------ -- ----- -- ----- -- ---- ------<br>--- ----- cut --- ------ -------- ----- --- ------ ----- --<br>----- ----- ---------- --- --- ------ ------ ---- -- ------<br>------- --- ------ ----- --- ---- ------- -- ---- --- --<br>------- ------,267360.5150000003,267349.37500000163,267052.87,267064.67999999947,267069.534,267369.492,,24,cut
screen,html.Screen,2_1_1_1_25,2021-04-28T16:18:49.776Z,,,,,,,,,,,,,,,,,54,,,,,,,,,,,,,,341.7480000005453,,response,,,,100,,,,,,,Space,keypress(Space),,,,,,,,-- --- ---- --- ------ ----- ------- ---- -- --- ------- --<br>------- ---------- ------ -- ----- -- ----- -- ---- ------<br>--- ----- --- the ------ -------- ----- --- ------ ----- --<br>----- ----- ---------- --- --- ------ ------ ---- -- ------<br>------- --- ------ ----- --- ---- ------- -- ---- --- --<br>------- ------,267719.0900000023,267711.2400000006,267352.828,267360.8100000019,267369.492,267736.127,,25,the
screen,html.Screen,2_1_1_1_26,2021-04-28T16:18:50.129Z,,,,,,,,,,,,,,,,,54,,,,,,,,,,,,,,329.38800000207266,,response,,,,100,,,,,,,Space,keypress(Space),,,,,,,,-- --- ---- --- ------ ----- ------- ---- -- --- ------- --<br>------- ---------- ------ -- ----- -- ----- -- ---- ------<br>--- ----- --- --- bonds' -------- ----- --- ------ ----- --<br>----- ----- ---------- --- --- ------ ------ ---- -- ------<br>------- --- ------ ----- --- ---- ------- -- ---- --- --<br>------- ------,268072.49500000034,268065.51500000205,267719.463,267720.0750000011,267736.127,268086.079,,26,bonds'
screen,html.Screen,2_1_1_1_27,2021-04-28T16:18:51.422Z,,,,,,,,,,,,,,,,,54,,,,,,,,,,,,,,1271.5360000007786,,response,,,,100,,,,,,,Space,keypress(Space),,,,,,,,-- --- ---- --- ------ ----- ------- ---- -- --- ------- --<br>------- ---------- ------ -- ----- -- ----- -- ---- ------<br>--- ----- --- --- ------ interest ----- --- ------ ----- --<br>----- ----- ---------- --- --- ------ ------ ---- -- ------<br>------- --- ------ ----- --- ---- ------- -- ---- --- --<br>------- ------,269364.93500000145,269357.6150000008,268069.415,268072.9449999999,268086.079,269369.235,,27,interest
screen,html.Screen,2_1_1_1_28,2021-04-28T16:18:55.819Z,,,,,,,,,,,,,,,,,54,,,,,,,,,,,,,,4383.954999999492,,response,,,,100,,,,,,,Space,keypress(Space),,,,,,,,-- --- ---- --- ------ ----- ------- ---- -- --- ------- --<br>------- ---------- ------ -- ----- -- ----- -- ---- ------<br>--- ----- --- --- ------ -------- rate. --- ------ ----- --<br>----- ----- ---------- --- --- ------ ------ ---- -- ------<br>------- --- ------ ----- --- ---- ------- -- ---- --- --<br>------- ------,273761.8450000009,273753.1899999995,269352.571,269365.5299999991,269369.235,273768.609,,28,rate.
screen,html.Screen,2_1_1_1_29,2021-04-28T16:18:56.193Z,,,,,,,,,,,,,,,,,54,,,,,,,,,,,,,,360.8960000008228,,response,,,,100,,,,,,,Space,keypress(Space),,,,,,,,-- --- ---- --- ------ ----- ------- ---- -- --- ------- --<br>------- ---------- ------ -- ----- -- ----- -- ---- ------<br>--- ----- --- --- ------ -------- ----- The ------ ----- --<br>----- ----- ---------- --- --- ------ ------ ---- -- ------<br>------- --- ------ ----- --- ---- ------- -- ---- --- --<br>------- ------,274136.7100000025,274129.5050000008,273751.945,273762.27500000095,273768.609,274152.133,,29,The
screen,html.Screen,2_1_1_1_30,2021-04-28T16:18:56.413Z,,,,,,,,,,,,,,,,,54,,,,,,,,,,,,,,195.84700000233715,,response,,,,100,,,,,,,Space,keypress(Space),,,,,,,,-- --- ---- --- ------ ----- ------- ---- -- --- ------- --<br>------- ---------- ------ -- ----- -- ----- -- ---- ------<br>--- ----- --- --- ------ -------- ----- --- market ----- --<br>----- ----- ---------- --- --- ------ ------ ---- -- ------<br>------- --- ------ ----- --- ---- ------- -- ---- --- --<br>------- ------,274356.64000000176,274347.9800000023,274135.469,274137.4849999993,274152.133,274368.783,,30,market
screen,html.Screen,2_1_1_1_31,2021-04-28T16:18:56.745Z,,,,,,,,,,,,,,,,,54,,,,,,,,,,,,,,311.4120000008261,,response,,,,100,,,,,,,Space,keypress(Space),,,,,,,,-- --- ---- --- ------ ----- ------- ---- -- --- ------- --<br>------- ---------- ------ -- ----- -- ----- -- ---- ------<br>--- ----- --- --- ------ -------- ----- --- ------ value --<br>----- ----- ---------- --- --- ------ ------ ---- -- ------<br>------- --- ------ ----- --- ---- ------- -- ---- --- --<br>------- ------,274687.8150000011,274680.1950000008,274352.119,274357.74500000116,274368.783,274702.066,,31,value
screen,html.Screen,2_1_1_1_32,2021-04-28T16:18:57.076Z,,,,,,,,,,,,,,,,,54,,,,,,,,,,,,,,310.27899999916553,,response,,,,100,,,,,,,Space,keypress(Space),,,,,,,,-- --- ---- --- ------ ----- ------- ---- -- --- ------- --<br>------- ---------- ------ -- ----- -- ----- -- ---- ------<br>--- ----- --- --- ------ -------- ----- --- ------ ----- of<br>----- ----- ---------- --- --- ------ ------ ---- -- ------<br>------- --- ------ ----- --- ---- ------- -- ---- --- --<br>------- ------,275019.17999999935,275012.34499999916,274685.402,274688.3650000018,274702.066,275035.37,,32,of
screen,html.Screen,2_1_1_1_33,2021-04-28T16:18:57.358Z,,,,,,,,,,,,,,,,,54,,,,,,,,,,,,,,260.19500000035623,,response,,,,100,,,,,,,Space,keypress(Space),,,,,,,,-- --- ---- --- ------ ----- ------- ---- -- --- ------- --<br>------- ---------- ------ -- ----- -- ----- -- ---- ------<br>--- ----- --- --- ------ -------- ----- --- ------ ----- --<br>these ----- ---------- --- --- ------ ------ ---- -- ------<br>------- --- ------ ----- --- ---- ------- -- ---- --- --<br>------- ------,275301.23500000266,275295.56500000035,275018.706,275019.80499999993,275035.37,275318.68,,33,these
screen,html.Screen,2_1_1_1_34,2021-04-28T16:18:57.562Z,,,,,,,,,,,,,,,,,54,,,,,,,,,,,,,,178.7550000011106,,response,,,,100,,,,,,,Space,keypress(Space),,,,,,,,-- --- ---- --- ------ ----- ------- ---- -- --- ------- --<br>------- ---------- ------ -- ----- -- ----- -- ---- ------<br>--- ----- --- --- ------ -------- ----- --- ------ ----- --<br>----- bonds ---------- --- --- ------ ------ ---- -- ------<br>------- --- ------ ----- --- ---- ------- -- ---- --- --<br>------- ------,275504.9250000011,275497.4350000011,275302.016,275302.1000000008,275318.68,275518.66,,34,bonds
screen,html.Screen,2_1_1_1_35,2021-04-28T16:18:57.781Z,,,,,,,,,,,,,,,,,54,,,,,,,,,,,,,,198.8600000020233,,response,,,,100,,,,,,,Space,keypress(Space),,,,,,,,"-- --- ---- --- ------ ----- ------- ---- -- --- ------- --<br>------- ---------- ------ -- ----- -- ----- -- ---- ------<br>--- ----- --- --- ------ -------- ----- --- ------ ----- --<br>----- ----- plummeted, --- --- ------ ------ ---- -- ------<br>------- --- ------ ----- --- ---- ------- -- ---- --- --<br>------- ------",275724.5900000016,275717.520000002,275501.996,275506.3250000021,275518.66,275735.308,,35,"plummeted,"
screen,html.Screen,2_1_1_1_36,2021-04-28T16:18:58.154Z,,,,,,,,,,,,,,,,,54,,,,,,,,,,,,,,353.8770000007353,,response,,,,100,,,,,,,Space,keypress(Space),,,,,,,,-- --- ---- --- ------ ----- ------- ---- -- --- ------- --<br>------- ---------- ------ -- ----- -- ----- -- ---- ------<br>--- ----- --- --- ------ -------- ----- --- ------ ----- --<br>----- ----- ---------- and --- ------ ------ ---- -- ------<br>------- --- ------ ----- --- ---- ------- -- ---- --- --<br>------- ------,276097.5550000003,276089.18500000075,275718.644,275725.735,275735.308,276101.922,,36,and
screen,html.Screen,2_1_1_1_37,2021-04-28T16:18:58.432Z,,,,,,,,,,,,,,,,,54,,,,,,,,,,,,,,266.67299999989336,,response,,,,100,,,,,,,Space,keypress(Space),,,,,,,,-- --- ---- --- ------ ----- ------- ---- -- --- ------- --<br>------- ---------- ------ -- ----- -- ----- -- ---- ------<br>--- ----- --- --- ------ -------- ----- --- ------ ----- --<br>----- ----- ---------- --- the ------ ------ ---- -- ------<br>------- --- ------ ----- --- ---- ------- -- ---- --- --<br>------- ------,276375.52499999944,276368.5949999999,276085.258,276097.855,276101.922,276385.229,,37,the
screen,html.Screen,2_1_1_1_38,2021-04-28T16:18:58.685Z,,,,,,,,,,,,,,,,,54,,,,,,,,,,,,,,233.76100000267616,,response,,,,100,,,,,,,Space,keypress(Space),,,,,,,,-- --- ---- --- ------ ----- ------- ---- -- --- ------- --<br>------- ---------- ------ -- ----- -- ----- -- ---- ------<br>--- ----- --- --- ------ -------- ----- --- ------ ----- --<br>----- ----- ---------- --- --- market ------ ---- -- ------<br>------- --- ------ ----- --- ---- ------- -- ---- --- --<br>------- ------,276628.1450000024,276618.99000000267,276368.565,276376.37000000174,276385.229,276635.204,,38,market
screen,html.Screen,2_1_1_1_39,2021-04-28T16:18:58.982Z,,,,,,,,,,,,,,,,,54,,,,,,,,,,,,,,280.93099999945844,,response,,,,100,,,,,,,Space,keypress(Space),,,,,,,,-- --- ---- --- ------ ----- ------- ---- -- --- ------- --<br>------- ---------- ------ -- ----- -- ----- -- ---- ------<br>--- ----- --- --- ------ -------- ----- --- ------ ----- --<br>----- ----- ---------- --- --- ------ became ---- -- ------<br>------- --- ------ ----- --- ---- ------- -- ---- --- --<br>------- ------,276924.8000000007,276916.1349999995,276618.54,276628.64000000263,276635.204,276935.178,,39,became
screen,html.Screen,2_1_1_1_40,2021-04-28T16:18:59.252Z,,,,,,,,,,,,,,,,,54,,,,,,,,,,,,,,251.9470000003348,,response,,,,100,,,,,,,Space,keypress(Space),,,,,,,,-- --- ---- --- ------ ----- ------- ---- -- --- ------- --<br>------- ---------- ------ -- ----- -- ----- -- ---- ------<br>--- ----- --- --- ------ -------- ----- --- ------ ----- --<br>----- ----- ---------- --- --- ------ ------ wary -- ------<br>------- --- ------ ----- --- ---- ------- -- ---- --- --<br>------- ------,277195.0700000016,277187.12500000035,276918.514,276925.83000000013,276935.178,277201.81,,40,wary
screen,html.Screen,2_1_1_1_41,2021-04-28T16:18:59.592Z,,,,,,,,,,,,,,,,,54,,,,,,,,,,,,,,323.6750000019674,,response,,,,100,,,,,,,Space,keypress(Space),,,,,,,,-- --- ---- --- ------ ----- ------- ---- -- --- ------- --<br>------- ---------- ------ -- ----- -- ----- -- ---- ------<br>--- ----- --- --- ------ -------- ----- --- ------ ----- --<br>----- ----- ---------- --- --- ------ ------ ---- of ------<br>------- --- ------ ----- --- ---- ------- -- ---- --- --<br>------- ------,277535.5999999993,277525.48500000197,277185.146,277195.3450000001,277201.81,277551.77,,41,of
screen,html.Screen,2_1_1_1_42,2021-04-28T16:18:59.928Z,,,,,,,,,,,,,,,,,54,,,,,,,,,,,,,,315.01000000024214,,response,,,,100,,,,,,,Space,keypress(Space),,,,,,,,-- --- ---- --- ------ ----- ------- ---- -- --- ------- --<br>------- ---------- ------ -- ----- -- ----- -- ---- ------<br>--- ----- --- --- ------ -------- ----- --- ------ ----- --<br>----- ----- ---------- --- --- ------ ------ ---- -- French<br>------- --- ------ ----- --- ---- ------- -- ---- --- --<br>------- ------,277871.39000000025,277866.78000000026,277535.106,277536.4699999991,277551.77,277885.065,,42,French
screen,html.Screen,2_1_1_1_43,2021-04-28T16:19:00.283Z,,,,,,,,,,,,,,,,,54,,,,,,,,,,,,,,329.6600000016042,,response,,,,100,,,,,,,Space,keypress(Space),,,,,,,,-- --- ---- --- ------ ----- ------- ---- -- --- ------- --<br>------- ---------- ------ -- ----- -- ----- -- ---- ------<br>--- ----- --- --- ------ -------- ----- --- ------ ----- --<br>----- ----- ---------- --- --- ------ ------ ---- -- ------<br>credit. --- ------ ----- --- ---- ------- -- ---- --- --<br>------- ------,278226.06500000256,278214.7250000016,277868.401,277872.11500000197,277885.065,278235.03,,43,credit.
screen,html.Screen,2_1_1_1_44,2021-04-28T16:19:00.628Z,,,,,,,,,,,,,,,,,54,,,,,,,,,,,,,,332.93000000028405,,response,,,,100,,,,,,,Space,keypress(Space),,,,,,,,-- --- ---- --- ------ ----- ------- ---- -- --- ------- --<br>------- ---------- ------ -- ----- -- ----- -- ---- ------<br>--- ----- --- --- ------ -------- ----- --- ------ ----- --<br>----- ----- ---------- --- --- ------ ------ ---- -- ------<br>------- The ------ ----- --- ---- ------- -- ---- --- --<br>------- ------,278570.925,278567.9600000003,278218.366,278227.30500000034,278235.03,278584.997,,44,The
screen,html.Screen,2_1_1_1_45,2021-04-28T16:19:00.916Z,,,,,,,,,,,,,,,,,54,,,,,,,,,,,,,,268.118000001763,,response,,,,100,,,,,,,Space,keypress(Space),,,,,,,,-- --- ---- --- ------ ----- ------- ---- -- --- ------- --<br>------- ---------- ------ -- ----- -- ----- -- ---- ------<br>--- ----- --- --- ------ -------- ----- --- ------ ----- --<br>----- ----- ---------- --- --- ------ ------ ---- -- ------<br>------- --- French ----- --- ---- ------- -- ---- --- --<br>------- ------,278859.0450000011,278853.11500000174,278568.333,278571.25500000257,278584.997,278868.299,,45,French
screen,html.Screen,2_1_1_1_46,2021-04-28T16:19:01.160Z,,,,,,,,,,,,,,,,,54,,,,,,,,,,,,,,229.16600000252947,,response,,,,100,,,,,,,Space,keypress(Space),,,,,,,,-- --- ---- --- ------ ----- ------- ---- -- --- ------- --<br>------- ---------- ------ -- ----- -- ----- -- ---- ------<br>--- ----- --- --- ------ -------- ----- --- ------ ----- --<br>----- ----- ---------- --- --- ------ ------ ---- -- ------<br>------- --- ------ state --- ---- ------- -- ---- --- --<br>------- ------,279102.94000000064,279097.4650000025,278851.635,278859.335000001,278868.299,279118.296,,46,state
screen,html.Screen,2_1_1_1_47,2021-04-28T16:19:01.443Z,,,,,,,,,,,,,,,,,54,,,,,,,,,,,,,,264.8990000021877,,response,,,,100,,,,,,,Space,keypress(Space),,,,,,,,-- --- ---- --- ------ ----- ------- ---- -- --- ------- --<br>------- ---------- ------ -- ----- -- ----- -- ---- ------<br>--- ----- --- --- ------ -------- ----- --- ------ ----- --<br>----- ----- ---------- --- --- ------ ------ ---- -- ------<br>------- --- ------ ----- was ---- ------- -- ---- --- --<br>------- ------,279386.17499999964,279383.19500000216,279101.632,279103.2899999991,279118.296,279401.58,,47,was
screen,html.Screen,2_1_1_1_48,2021-04-28T16:19:01.711Z,,,,,,,,,,,,,,,,,54,,,,,,,,,,,,,,246.63500000105705,,response,,,,100,,,,,,,Space,keypress(Space),,,,,,,,-- --- ---- --- ------ ----- ------- ---- -- --- ------- --<br>------- ---------- ------ -- ----- -- ----- -- ---- ------<br>--- ----- --- --- ------ -------- ----- --- ------ ----- --<br>----- ----- ---------- --- --- ------ ------ ---- -- ------<br>------- --- ------ ----- --- left ------- -- ---- --- --<br>------- ------,279653.875,279648.2150000011,279384.916,279386.48499999905,279401.58,279668.228,,48,left
screen,html.Screen,2_1_1_1_49,2021-04-28T16:19:02.144Z,,,,,,,,,,,,,,,,,54,,,,,,,,,,,,,,411.8670000011334,,response,,,,100,,,,,,,Space,keypress(Space),,,,,,,,-- --- ---- --- ------ ----- ------- ---- -- --- ------- --<br>------- ---------- ------ -- ----- -- ----- -- ---- ------<br>--- ----- --- --- ------ -------- ----- --- ------ ----- --<br>----- ----- ---------- --- --- ------ ------ ---- -- ------<br>------- --- ------ ----- --- ---- without -- ---- --- --<br>------- ------,280087.0900000009,280080.09500000114,279651.564,279654.66000000015,279668.228,280101.507,,49,without
screen,html.Screen,2_1_1_1_50,2021-04-28T16:19:02.421Z,,,,,,,,,,,,,,,,,54,,,,,,,,,,,,,,255.54800000041723,,response,,,,100,,,,,,,Space,keypress(Space),,,,,,,,-- --- ---- --- ------ ----- ------- ---- -- --- ------- --<br>------- ---------- ------ -- ----- -- ----- -- ---- ------<br>--- ----- --- --- ------ -------- ----- --- ------ ----- --<br>----- ----- ---------- --- --- ------ ------ ---- -- ------<br>------- --- ------ ----- --- ---- ------- an ---- --- --<br>------- ------,280363.7249999993,280357.0550000004,280084.843,280087.87500000105,280101.507,280384.814,,50,an
screen,html.Screen,2_1_1_1_51,2021-04-28T16:19:02.671Z,,,,,,,,,,,,,,,,,54,,,,,,,,,,,,,,222.79100000101607,,response,,,,100,,,,,,,Space,keypress(Space),,,,,,,,-- --- ---- --- ------ ----- ------- ---- -- --- ------- --<br>------- ---------- ------ -- ----- -- ----- -- ---- ------<br>--- ----- --- --- ------ -------- ----- --- ------ ----- --<br>----- ----- ---------- --- --- ------ ------ ---- -- ------<br>------- --- ------ ----- --- ---- ------- -- easy --- --<br>------- ------,280614.13000000175,280607.60500000103,280368.15,280365.47000000067,280384.814,280618.122,,51,easy
screen,html.Screen,2_1_1_1_52,2021-04-28T16:19:02.972Z,,,,,,,,,,,,,,,,,54,,,,,,,,,,,,,,291.39299999939976,,response,,,,100,,,,,,,Space,keypress(Space),,,,,,,,-- --- ---- --- ------ ----- ------- ---- -- --- ------- --<br>------- ---------- ------ -- ----- -- ----- -- ---- ------<br>--- ----- --- --- ------ -------- ----- --- ------ ----- --<br>----- ----- ---------- --- --- ------ ------ ---- -- ------<br>------- --- ------ ----- --- ---- ------- -- ---- way --<br>------- ------,280915.4550000021,280909.5149999994,280601.458,280615.2949999996,280618.122,280918.092,,52,way
screen,html.Screen,2_1_1_1_53,2021-04-28T16:19:03.337Z,,,,,,,,,,,,,,,,,54,,,,,,,,,,,,,,354.322999999451,,response,,,,100,,,,,,,Space,keypress(Space),,,,,,,,-- --- ---- --- ------ ----- ------- ---- -- --- ------- --<br>------- ---------- ------ -- ----- -- ----- -- ---- ------<br>--- ----- --- --- ------ -------- ----- --- ------ ----- --<br>----- ----- ---------- --- --- ------ ------ ---- -- ------<br>------- --- ------ ----- --- ---- ------- -- ---- --- of<br>------- ------,281280.2150000025,281272.41499999946,280901.428,280916.17500000214,280918.092,281284.714,,53,of
screen,html.Screen,2_1_1_1_54,2021-04-28T16:19:03.622Z,,,,,,,,,,,,,,,,,54,,,,,,,,,,,,,,271.20100000087405,,response,,,,100,,,,,,,Space,keypress(Space),,,,,,,,-- --- ---- --- ------ ----- ------- ---- -- --- ------- --<br>------- ---------- ------ -- ----- -- ----- -- ---- ------<br>--- ----- --- --- ------ -------- ----- --- ------ ----- --<br>----- ----- ---------- --- --- ------ ------ ---- -- ------<br>------- --- ------ ----- --- ---- ------- -- ---- --- --<br>raising ------,281565.53500000155,281555.91500000085,281268.05,281280.52000000025,281284.714,281568.041,,54,raising
screen,html.Screen,2_1_1_1_55,2021-04-28T16:19:03.984Z,,,,,,,,,,,,,,,,,54,,,,,,,,,,,,,,350.3289999993867,,response,,,,100,,,,,,,Space,keypress(Space),,,,,,,,-- --- ---- --- ------ ----- ------- ---- -- --- ------- --<br>------- ---------- ------ -- ----- -- ----- -- ---- ------<br>--- ----- --- --- ------ -------- ----- --- ------ ----- --<br>----- ----- ---------- --- --- ------ ------ ---- -- ------<br>------- --- ------ ----- --- ---- ------- -- ---- --- --<br>------- money.,281927.17500000075,281918.3699999994,281551.377,281565.83500000124,281568.041,281934.657,,55,money.
Item 100,flow.Loop,2_1_1_1,2021-04-28T16:19:03.986Z,,,,,,,,,,,,,,,,,,,,,,,,,,,,,,,25581.09299999941,,completion,,,,,A,,,,,,,,,,,silence,,,,,281929.34500000044,281918.3699999994,256320.613,256336.0500000017,256337.277,281934.657,,,
Question 1,html.Screen,2_1_1_2,2021-04-28T16:19:06.669Z,,,,,,,,,,,,,,,,,,,,,,,,,,,,true,TRUE,,2660.723000002443,,response,,,,100,A,,,,,,TRUE,click #choice-1,,,,silence,,,,,284612.09500000044,284595.38000000245,281917.993,281929.5850000017,281934.657,284617.707,,,
Question 2,html.Screen,2_1_1_3,2021-04-28T16:19:08.926Z,,,,,,,,,,,,,,,,,,,,,,,,,,,,true,FALSE,,2238.3530000019236,,response,,,,100,A,,,,,,FALSE,click #choice-2,,,,silence,,,,,286868.9799999993,286856.0600000019,284601.043,284614.550000002,284617.707,286867.48,,,
Item 100,flow.Sequence,2_1_1,2021-04-28T16:19:08.926Z,,,,,,,,,,,,,,,,,,,,,,,,,,,,,,,40517.69700000191,,completion,,,,,,,,,,,,,,,,,,,,,286869.665000002,286856.0600000019,246321.67,246310.26500000007,246338.363,286867.48,,,
End of Practice,html.Page,2_1_2,2021-04-28T16:19:19.422Z,,,,,,,,,,,,,,,,,,,,,,,,,,,,,,,10496.804999999702,,form submission,,,,,,,,,,,,,,,,,,,,,297364.880000001,297364.2849999997,286850.816,286869.89000000176,286867.48,297383.083,,,
Practice,flow.Sequence,2_1,2021-04-28T16:19:19.422Z,,,,,,,,,,,,,,,,,,,,,,,,,,,,,,,91355.2079999997,,completion,,,,,,,,,,,,,,,,,,,,,297365.4549999992,297364.2849999997,205975.749,205989.88499999905,206009.077,297383.083,,,
Trap_instruction,html.Page,2_2_0,2021-04-28T16:19:23.613Z,,,,,,,,,,,,,,,,,,,,,,,,,,,,,,,4170.392000000633,,form submission,,,,,,,,,,,,,,,,,,,,,301556.2050000008,301553.4750000006,297366.4,297365.79500000156,297383.083,301615.977,,,
trap_trial,html.Screen,2_2_1,2021-04-28T16:19:29.141Z,,,,,,,,,,,,,,,,,,,,,,,,,,,,true,1,,5459.893000000564,,response,,,,,,,,,,,1,click #choice-1,,,,,,,,,307084.33499999956,307075.8700000006,301549.276,301556.7950000004,301615.977,307081.786,,,
end of trap trial,html.Page,2_2_2,2021-04-28T16:19:31.425Z,,,,,,,,,,,,,,,,,,,,,,,,,,,,,,,2285.764000002644,,form submission,,,,,,,,,,,,,,,,,,,,,309368.2050000025,309367.55000000267,307065.122,307084.7649999996,307081.786,309381.782,,,
Trap 1,flow.Sequence,2_2,2021-04-28T16:19:31.425Z,,,,,,,,,,,,,,,,,,,,,,,,,,,,,,,11984.467000002682,,completion,,,,,,,,,,,,,,,,,,,,,309368.6149999994,309367.55000000267,297366.4,297365.7050000002,297383.083,309381.782,,,
Standby,html.Page,2_3_0,2021-04-28T16:19:39.423Z,,,,,,,,,,,,,,,,,,,,,,,,,,,,,,,7998.762999999977,,timeout,,,,,,,,,,,,,,,,,,,,,317366.48000000056,317363.881,309365.118,309368.8949999996,309381.782,317380.545,,,
Holding screen,html.Screen,2_3_1_0_0,2021-04-28T16:19:46.424Z,,,,,,,,,,,,,,,,,,,,,,,,,,,,,,,6999.684999999998,,timeout,,,,,,,,,,,,,,,,,,,,,324366.8900000012,324363.566,317363.881,317368.08999999997,317380.545,324380.23,,,
screen,html.Screen,2_3_1_0_1_0,2021-04-28T16:19:47.929Z,,,,,,,,,,,,,,,,,11,,,,,,,,,,,,,,1481.034999999567,,response,,,,4,A,,,,,,Space,keypress(Space),,,,silence,,,,Known -- ---- --- -- --- -------- ------------ ---------- --<br>- ------- ------ --------- -- ------------ -- --- ---- -----<br>------ ---- ---- ------ ------ ------- --- ----- ---------<br>---- --- -------- -------- --- --- -- ------- --- --- -----<br>-- --- ------ ------- --- --- -------- ---- --------- --<br>---------- -- -------- ----------------,325871.9149999997,325861.26499999955,324363.566,324369.4400000022,324380.23,325880.053,,0,Known
screen,html.Screen,2_3_1_0_1_1,2021-04-28T16:19:48.197Z,,,,,,,,,,,,,,,,,11,,,,,,,,,,,,,,254.16699999989942,,response,,,,4,A,,,,,,Space,keypress(Space),,,,silence,,,,----- as ---- --- -- --- -------- ------------ ---------- --<br>- ------- ------ --------- -- ------------ -- --- ---- -----<br>------ ---- ---- ------ ------ ------- --- ----- ---------<br>---- --- -------- -------- --- --- -- ------- --- --- -----<br>-- --- ------ ------- --- --- -------- ---- --------- --<br>---------- -- -------- ----------------,326140.4900000016,326134.2199999999,325863.389,325872.7250000011,325880.053,326146.757,,1,as
screen,html.Screen,2_3_1_0_1_2,2021-04-28T16:19:48.411Z,,,,,,,,,,,,,,,,,11,,,,,,,,,,,,,,202.7780000012135,,response,,,,4,A,,,,,,Space,keypress(Space),,,,silence,,,,----- -- Rapa --- -- --- -------- ------------ ---------- --<br>- ------- ------ --------- -- ------------ -- --- ---- -----<br>------ ---- ---- ------ ------ ------- --- ----- ---------<br>---- --- -------- -------- --- --- -- ------- --- --- -----<br>-- --- ------ ------- --- --- -------- ---- --------- --<br>---------- -- -------- ----------------,326354.23500000255,326349.5350000012,326130.093,326142.0800000015,326146.757,326363.407,,2,Rapa
screen,html.Screen,2_3_1_0_1_3,2021-04-28T16:19:48.607Z,,,,,,,,,,,,,,,,,11,,,,,,,,,,,,,,180.79300000029616,,response,,,,4,A,,,,,,Space,keypress(Space),,,,silence,,,,----- -- ---- Nui -- --- -------- ------------ ---------- --<br>- ------- ------ --------- -- ------------ -- --- ---- -----<br>------ ---- ---- ------ ------ ------- --- ----- ---------<br>---- --- -------- -------- --- --- -- ------- --- --- -----<br>-- --- ------ ------- --- --- -------- ---- --------- --<br>---------- -- -------- ----------------,326550.11500000185,326544.2000000003,326346.743,326354.51000000106,326363.407,326563.371,,3,Nui
screen,html.Screen,2_3_1_0_1_4,2021-04-28T16:19:49.024Z,,,,,,,,,,,,,,,,,11,,,,,,,,,,,,,,395.4540000015404,,response,,,,4,A,,,,,,Space,keypress(Space),,,,silence,,,,----- -- ---- --- to --- -------- ------------ ---------- --<br>- ------- ------ --------- -- ------------ -- --- ---- -----<br>------ ---- ---- ------ ------ ------- --- ----- ---------<br>---- --- -------- -------- --- --- -- ------- --- --- -----<br>-- --- ------ ------- --- --- -------- ---- --------- --<br>---------- -- -------- ----------------,326967.16500000184,326958.8250000015,326546.707,326550.6249999999,326563.371,326979.999,,4,to
screen,html.Screen,2_3_1_0_1_5,2021-04-28T16:19:49.440Z,,,,,,,,,,,,,,,,,11,,,,,,,,,,,,,,397.5010000023176,,response,,,,4,A,,,,,,Space,keypress(Space),,,,silence,,,,----- -- ---- --- -- the -------- ------------ ---------- --<br>- ------- ------ --------- -- ------------ -- --- ---- -----<br>------ ---- ---- ------ ------ ------- --- ----- ---------<br>---- --- -------- -------- --- --- -- ------- --- --- -----<br>-- --- ------ ------- --- --- -------- ---- --------- --<br>---------- -- -------- ----------------,327383.51999999944,327377.5000000023,326963.335,326968.4249999991,326979.999,327396.61,,5,the
screen,html.Screen,2_3_1_0_1_6,2021-04-28T16:19:49.687Z,,,,,,,,,,,,,,,,,11,,,,,,,,,,,,,,227.6249999993015,,response,,,,4,A,,,,,,Space,keypress(Space),,,,silence,,,,----- -- ---- --- -- --- island's ------------ ---------- --<br>- ------- ------ --------- -- ------------ -- --- ---- -----<br>------ ---- ---- ------ ------ ------- --- ----- ---------<br>---- --- -------- -------- --- --- -- ------- --- --- -----<br>-- --- ------ ------- --- --- -------- ---- --------- --<br>---------- -- -------- ----------------,327629.9450000006,327624.2349999993,327379.946,327384.6599999997,327396.61,327646.594,,6,island's
screen,html.Screen,2_3_1_0_1_7,2021-04-28T16:19:50.037Z,,,,,,,,,,,,,,,,,11,,,,,,,,,,,,,,327.20599999977276,,response,,,,4,A,,,,,,Space,keypress(Space),,,,silence,,,,"----- -- ---- --- -- --- -------- inhabitants, ---------- --<br>- ------- ------ --------- -- ------------ -- --- ---- -----<br>------ ---- ---- ------ ------ ------- --- ----- ---------<br>---- --- -------- -------- --- --- -- ------- --- --- -----<br>-- --- ------ ------- --- --- -------- ---- --------- --<br>---------- -- -------- ----------------",327980.3100000026,327973.79999999976,327629.93,327630.68000000203,327646.594,327996.557,,7,"inhabitants,"
screen,html.Screen,2_3_1_0_1_8,2021-04-28T16:19:51.847Z,,,,,,,,,,,,,,,,,11,,,,,,,,,,,,,,1786.898000000685,,response,,,,4,A,,,,,,Space,keypress(Space),,,,silence,,,,----- -- ---- --- -- --- -------- ------------ Rongorongo --<br>- ------- ------ --------- -- ------------ -- --- ---- -----<br>------ ---- ---- ------ ------ ------- --- ----- ---------<br>---- --- -------- -------- --- --- -- ------- --- --- -----<br>-- --- ------ ------- --- --- -------- ---- --------- --<br>---------- -- -------- ----------------,329790.33999999956,329783.45500000066,327979.893,327980.8850000008,327996.557,329796.294,,8,Rongorongo
screen,html.Screen,2_3_1_0_1_9,2021-04-28T16:19:52.294Z,,,,,,,,,,,,,,,,,11,,,,,,,,,,,,,,433.1760000020731,,response,,,,4,A,,,,,,Space,keypress(Space),,,,silence,,,,----- -- ---- --- -- --- -------- ------------ ---------- is<br>- ------- ------ --------- -- ------------ -- --- ---- -----<br>------ ---- ---- ------ ------ ------- --- ----- ---------<br>---- --- -------- -------- --- --- -- ------- --- --- -----<br>-- --- ------ ------- --- --- -------- ---- --------- --<br>---------- -- -------- ----------------,330237.5300000021,330229.47000000207,329779.63,329790.6350000012,329796.294,330246.326,,9,is
screen,html.Screen,2_3_1_0_1_10,2021-04-28T16:19:52.607Z,,,,,,,,,,,,,,,,,11,,,,,,,,,,,,,,297.51400000206195,,response,,,,4,A,,,,,,Space,keypress(Space),,,,silence,,,,----- -- ---- --- -- --- -------- ------------ ---------- --<br>a ------- ------ --------- -- ------------ -- --- ---- -----<br>------ ---- ---- ------ ------ ------- --- ----- ---------<br>---- --- -------- -------- --- --- -- ------- --- --- -----<br>-- --- ------ ------- --- --- -------- ---- --------- --<br>---------- -- -------- ----------------,330550.0500000017,330543.84000000206,330229.662,330238.1249999999,330246.326,330562.952,,10,a
screen,html.Screen,2_3_1_0_1_11,2021-04-28T16:19:52.871Z,,,,,,,,,,,,,,,,,11,,,,,,,,,,,,,,243.64799999987008,,response,,,,4,A,,,,,,Space,keypress(Space),,,,silence,,,,----- -- ---- --- -- --- -------- ------------ ---------- --<br>- writing ------ --------- -- ------------ -- --- ---- -----<br>------ ---- ---- ------ ------ ------- --- ----- ---------<br>---- --- -------- -------- --- --- -- ------- --- --- -----<br>-- --- ------ ------- --- --- -------- ---- --------- --<br>---------- -- -------- ----------------,330813.8900000013,330806.59999999986,330546.288,330550.5699999994,330562.952,330829.593,,11,writing
screen,html.Screen,2_3_1_0_1_12,2021-04-28T16:19:55.026Z,,,,,,,,,,,,,,,,,11,,,,,,,,,,,,,,2129.3620000018855,,response,,,,4,A,,,,,,Space,keypress(Space),,,,silence,,,,----- -- ---- --- -- --- -------- ------------ ---------- --<br>- ------- system --------- -- ------------ -- --- ---- -----<br>------ ---- ---- ------ ------ ------- --- ----- ---------<br>---- --- -------- -------- --- --- -- ------- --- --- -----<br>-- --- ------ ------- --- --- -------- ---- --------- --<br>---------- -- -------- ----------------,332969.2950000026,332958.9550000019,330812.929,330814.5650000006,330829.593,332979.273,,12,system
screen,html.Screen,2_3_1_0_1_13,2021-04-28T16:19:55.387Z,,,,,,,,,,,,,,,,,11,,,,,,,,,,,,,,339.10200000257464,,response,,,,4,A,,,,,,Space,keypress(Space),,,,silence,,,,----- -- ---- --- -- --- -------- ------------ ---------- --<br>- ------- ------ comprised -- ------------ -- --- ---- -----<br>------ ---- ---- ------ ------ ------- --- ----- ---------<br>---- --- -------- -------- --- --- -- ------- --- --- -----<br>-- --- ------ ------- --- --- -------- ---- --------- --<br>---------- -- -------- ----------------,333330.1649999994,333318.37500000256,332962.609,332969.5700000011,332979.273,333345.993,,13,comprised
screen,html.Screen,2_3_1_0_1_14,2021-04-28T16:19:55.734Z,,,,,,,,,,,,,,,,,11,,,,,,,,,,,,,,323.40200000081677,,response,,,,4,A,,,,,,Space,keypress(Space),,,,silence,,,,----- -- ---- --- -- --- -------- ------------ ---------- --<br>- ------- ------ --------- of ------------ -- --- ---- -----<br>------ ---- ---- ------ ------ ------- --- ----- ---------<br>---- --- -------- -------- --- --- -- ------- --- --- -----<br>-- --- ------ ------- --- --- -------- ---- --------- --<br>---------- -- -------- ----------------,333677.3500000017,333669.39500000083,333329.329,333330.59000000136,333345.993,333695.957,,14,of
screen,html.Screen,2_3_1_0_1_15,2021-04-28T16:19:56.082Z,,,,,,,,,,,,,,,,,11,,,,,,,,,,,,,,320.0280000018538,,response,,,,4,A,,,,,,Space,keypress(Space),,,,silence,,,,----- -- ---- --- -- --- -------- ------------ ---------- --<br>- ------- ------ --------- -- pictographs. -- --- ---- -----<br>------ ---- ---- ------ ------ ------- --- ----- ---------<br>---- --- -------- -------- --- --- -- ------- --- --- -----<br>-- --- ------ ------- --- --- -------- ---- --------- --<br>---------- -- -------- ----------------,334024.8250000004,334015.98500000185,333679.293,333677.9400000014,333695.957,334029.263,,15,pictographs.
screen,html.Screen,2_3_1_0_1_16,2021-04-28T16:19:56.624Z,,,,,,,,,,,,,,,,,11,,,,,,,,,,,,,,533.4120000010589,,response,,,,4,A,,,,,,Space,keypress(Space),,,,silence,,,,----- -- ---- --- -- --- -------- ------------ ---------- --<br>- ------- ------ --------- -- ------------ It --- ---- -----<br>------ ---- ---- ------ ------ ------- --- ----- ---------<br>---- --- -------- -------- --- --- -- ------- --- --- -----<br>-- --- ------ ------- --- --- -------- ---- --------- --<br>---------- -- -------- ----------------,334566.780000001,334562.67500000104,334012.599,334025.20000000007,334029.263,334579.197,,16,It
screen,html.Screen,2_3_1_0_1_17,2021-04-28T16:19:57.022Z,,,,,,,,,,,,,,,,,11,,,,,,,,,,,,,,378.3780000003753,,response,,,,4,A,,,,,,Space,keypress(Space),,,,silence,,,,----- -- ---- --- -- --- -------- ------------ ---------- --<br>- ------- ------ --------- -- ------------ -- has ---- -----<br>------ ---- ---- ------ ------ ------- --- ----- ---------<br>---- --- -------- -------- --- --- -- ------- --- --- -----<br>-- --- ------ ------- --- --- -------- ---- --------- --<br>---------- -- -------- ----------------,334965.5300000013,334957.57500000036,334562.533,334567.2599999998,334579.197,334979.161,,17,has
screen,html.Screen,2_3_1_0_1_18,2021-04-28T16:19:57.282Z,,,,,,,,,,,,,,,,,11,,,,,,,,,,,,,,239.8090000016964,,response,,,,4,A,,,,,,Space,keypress(Space),,,,silence,,,,----- -- ---- --- -- --- -------- ------------ ---------- --<br>- ------- ------ --------- -- ------------ -- --- been -----<br>------ ---- ---- ------ ------ ------- --- ----- ---------<br>---- --- -------- -------- --- --- -- ------- --- --- -----<br>-- --- ------ ------- --- --- -------- ---- --------- --<br>---------- -- -------- ----------------,335225.02499999973,335218.9700000017,334962.497,334966.05500000075,334979.161,335245.813,,18,been
screen,html.Screen,2_3_1_0_1_19,2021-04-28T16:19:57.773Z,,,,,,,,,,,,,,,,,11,,,,,,,,,,,,,,461.7269999994314,,response,,,,4,A,,,,,,Space,keypress(Space),,,,silence,,,,----- -- ---- --- -- --- -------- ------------ ---------- --<br>- ------- ------ --------- -- ------------ -- --- ---- found<br>------ ---- ---- ------ ------ ------- --- ----- ---------<br>---- --- -------- -------- --- --- -- ------- --- --- -----<br>-- --- ------ ------- --- --- -------- ---- --------- --<br>---------- -- -------- ----------------,335715.8450000024,335707.53999999946,335229.149,335225.58500000014,335245.813,335729.084,,19,found
screen,html.Screen,2_3_1_0_1_20,2021-04-28T16:19:58.149Z,,,,,,,,,,,,,,,,,11,,,,,,,,,,,,,,349.12100000161445,,response,,,,4,A,,,,,,Space,keypress(Space),,,,silence,,,,----- -- ---- --- -- --- -------- ------------ ---------- --<br>- ------- ------ --------- -- ------------ -- --- ---- -----<br>carved ---- ---- ------ ------ ------- --- ----- ---------<br>---- --- -------- -------- --- --- -- ------- --- --- -----<br>-- --- ------ ------- --- --- -------- ---- --------- --<br>---------- -- -------- ----------------,336092.5800000004,336078.2050000016,335712.42,335717.1699999999,335729.084,336095.713,,20,carved
screen,html.Screen,2_3_1_0_1_21,2021-04-28T16:19:58.430Z,,,,,,,,,,,,,,,,,11,,,,,,,,,,,,,,268.51699999923585,,response,,,,4,A,,,,,,Space,keypress(Space),,,,silence,,,,----- -- ---- --- -- --- -------- ------------ ---------- --<br>- ------- ------ --------- -- ------------ -- --- ---- -----<br>------ into ---- ------ ------ ------- --- ----- ---------<br>---- --- -------- -------- --- --- -- ------- --- --- -----<br>-- --- ------ ------- --- --- -------- ---- --------- --<br>---------- -- -------- ----------------,336373.1700000026,336364.2299999992,336079.049,336092.8800000001,336095.713,336379.033,,21,into
screen,html.Screen,2_3_1_0_1_22,2021-04-28T16:19:58.662Z,,,,,,,,,,,,,,,,,11,,,,,,,,,,,,,,217.27700000081677,,response,,,,4,A,,,,,,Space,keypress(Space),,,,silence,,,,----- -- ---- --- -- --- -------- ------------ ---------- --<br>- ------- ------ --------- -- ------------ -- --- ---- -----<br>------ ---- many ------ ------ ------- --- ----- ---------<br>---- --- -------- -------- --- --- -- ------- --- --- -----<br>-- --- ------ ------- --- --- -------- ---- --------- --<br>---------- -- -------- ----------------,336604.93499999936,336596.3100000008,336362.369,336373.63000000187,336379.033,336612.327,,22,many
screen,html.Screen,2_3_1_0_1_23,2021-04-28T16:19:58.910Z,,,,,,,,,,,,,,,,,11,,,,,,,,,,,,,,234.3580000004149,,response,,,,4,A,,,,,,Space,keypress(Space),,,,silence,,,,----- -- ---- --- -- --- -------- ------------ ---------- --<br>- ------- ------ --------- -- ------------ -- --- ---- -----<br>------ ---- ---- oblong ------ ------- --- ----- ---------<br>---- --- -------- -------- --- --- -- ------- --- --- -----<br>-- --- ------ ------- --- --- -------- ---- --------- --<br>---------- -- -------- ----------------,336852.91499999946,336846.6850000004,336595.663,336606.02500000095,336612.327,336862.32,,23,oblong
screen,html.Screen,2_3_1_0_1_24,2021-04-28T16:19:59.318Z,,,,,,,,,,,,,,,,,11,,,,,,,,,,,,,,391.9000000025262,,response,,,,4,A,,,,,,Space,keypress(Space),,,,silence,,,,----- -- ---- --- -- --- -------- ------------ ---------- --<br>- ------- ------ --------- -- ------------ -- --- ---- -----<br>------ ---- ---- ------ wooden ------- --- ----- ---------<br>---- --- -------- -------- --- --- -- ------- --- --- -----<br>-- --- ------ ------- --- --- -------- ---- --------- --<br>---------- -- -------- ----------------,337260.90000000113,337254.22000000253,336845.656,336853.32500000007,336862.32,337278.918,,24,wooden
screen,html.Screen,2_3_1_0_1_25,2021-04-28T16:19:59.700Z,,,,,,,,,,,,,,,,,11,,,,,,,,,,,,,,356.25200000137556,,response,,,,4,A,,,,,,Space,keypress(Space),,,,silence,,,,----- -- ---- --- -- --- -------- ------------ ---------- --<br>- ------- ------ --------- -- ------------ -- --- ---- -----<br>------ ---- ---- ------ ------ tablets --- ----- ---------<br>---- --- -------- -------- --- --- -- ------- --- --- -----<br>-- --- ------ ------- --- --- -------- ---- --------- --<br>---------- -- -------- ----------------,337643.65499999985,337635.1700000014,337262.254,337261.7500000015,337278.918,337662.211,,25,tablets
screen,html.Screen,2_3_1_0_1_26,2021-04-28T16:20:00.020Z,,,,,,,,,,,,,,,,,11,,,,,,,,,,,,,,296.38400000007823,,response,,,,4,A,,,,,,Space,keypress(Space),,,,silence,,,,----- -- ---- --- -- --- -------- ------------ ---------- --<br>- ------- ------ --------- -- ------------ -- --- ---- -----<br>------ ---- ---- ------ ------ ------- and ----- ---------<br>---- --- -------- -------- --- --- -- ------- --- --- -----<br>-- --- ------ ------- --- --- -------- ---- --------- --<br>---------- -- -------- ----------------,337963.5650000018,337958.5950000001,337645.547,337644.435000002,337662.211,337978.865,,26,and
screen,html.Screen,2_3_1_0_1_27,2021-04-28T16:20:00.355Z,,,,,,,,,,,,,,,,,11,,,,,,,,,,,,,,311.8499999991618,,response,,,,4,A,,,,,,Space,keypress(Space),,,,silence,,,,----- -- ---- --- -- --- -------- ------------ ---------- --<br>- ------- ------ --------- -- ------------ -- --- ---- -----<br>------ ---- ---- ------ ------ ------- --- other ---------<br>---- --- -------- -------- --- --- -- ------- --- --- -----<br>-- --- ------ ------- --- --- -------- ---- --------- --<br>---------- -- -------- ----------------,338298.16500000015,338290.71499999915,337962.201,337964.3250000008,337978.865,338312.145,,27,other
screen,html.Screen,2_3_1_0_1_28,2021-04-28T16:20:00.722Z,,,,,,,,,,,,,,,,,11,,,,,,,,,,,,,,340.1300000003539,,response,,,,4,A,,,,,,Space,keypress(Space),,,,silence,,,,----- -- ---- --- -- --- -------- ------------ ---------- --<br>- ------- ------ --------- -- ------------ -- --- ---- -----<br>------ ---- ---- ------ ------ ------- --- ----- artifacts<br>---- --- -------- -------- --- --- -- ------- --- --- -----<br>-- --- ------ ------- --- --- -------- ---- --------- --<br>---------- -- -------- ----------------,338665.10000000196,338652.2750000004,338295.481,338299.460000002,338312.145,338678.776,,28,artifacts
screen,html.Screen,2_3_1_0_1_29,2021-04-28T16:20:01.159Z,,,,,,,,,,,,,,,,,11,,,,,,,,,,,,,,418.0690000000177,,response,,,,4,A,,,,,,Space,keypress(Space),,,,silence,,,,----- -- ---- --- -- --- -------- ------------ ---------- --<br>- ------- ------ --------- -- ------------ -- --- ---- -----<br>------ ---- ---- ------ ------ ------- --- ----- ---------<br>from --- -------- -------- --- --- -- ------- --- --- -----<br>-- --- ------ ------- --- --- -------- ---- --------- --<br>---------- -- -------- ----------------,339101.89000000176,339096.84500000003,338662.112,338665.40000000165,338678.776,339112.076,,29,from
screen,html.Screen,2_3_1_0_1_30,2021-04-28T16:20:01.490Z,,,,,,,,,,,,,,,,,11,,,,,,,,,,,,,,316.6439999998547,,response,,,,4,A,,,,,,Space,keypress(Space),,,,silence,,,,----- -- ---- --- -- --- -------- ------------ ---------- --<br>- ------- ------ --------- -- ------------ -- --- ---- -----<br>------ ---- ---- ------ ------ ------- --- ----- ---------<br>---- the -------- -------- --- --- -- ------- --- --- -----<br>-- --- ------ ------- --- --- -------- ---- --------- --<br>---------- -- -------- ----------------,339433.63500000123,339428.71999999986,339095.412,339102.20499999926,339112.076,339445.373,,30,the
screen,html.Screen,2_3_1_0_1_31,2021-04-28T16:20:01.724Z,,,,,,,,,,,,,,,,,11,,,,,,,,,,,,,,214.3469999996014,,response,,,,4,A,,,,,,Space,keypress(Space),,,,silence,,,,----- -- ---- --- -- --- -------- ------------ ---------- --<br>- ------- ------ --------- -- ------------ -- --- ---- -----<br>------ ---- ---- ------ ------ ------- --- ----- ---------<br>---- --- island's -------- --- --- -- ------- --- --- -----<br>-- --- ------ ------- --- --- -------- ---- --------- --<br>---------- -- -------- ----------------,339667.43000000133,339659.7199999996,339428.709,339433.91999999946,339445.373,339678.695,,31,island's
screen,html.Screen,2_3_1_0_1_32,2021-04-28T16:20:02.036Z,,,,,,,,,,,,,,,,,11,,,,,,,,,,,,,,290.8049999992363,,response,,,,4,A,,,,,,Space,keypress(Space),,,,silence,,,,----- -- ---- --- -- --- -------- ------------ ---------- --<br>- ------- ------ --------- -- ------------ -- --- ---- -----<br>------ ---- ---- ------ ------ ------- --- ----- ---------<br>---- --- -------- history. --- --- -- ------- --- --- -----<br>-- --- ------ ------- --- --- -------- ---- --------- --<br>---------- -- -------- ----------------,339979.1450000012,339969.49999999924,339662.031,339667.77,339678.695,339995.315,,32,history.
screen,html.Screen,2_3_1_0_1_33,2021-04-28T16:20:02.407Z,,,,,,,,,,,,,,,,,11,,,,,,,,,,,,,,345.22999999910826,,response,,,,4,A,,,,,,Space,keypress(Space),,,,silence,,,,----- -- ---- --- -- --- -------- ------------ ---------- --<br>- ------- ------ --------- -- ------------ -- --- ---- -----<br>------ ---- ---- ------ ------ ------- --- ----- ---------<br>---- --- -------- -------- The --- -- ------- --- --- -----<br>-- --- ------ ------- --- --- -------- ---- --------- --<br>---------- -- -------- ----------------,340350.0850000018,340340.5449999991,339978.651,339979.92499999964,339995.315,340361.942,,33,The
screen,html.Screen,2_3_1_0_1_34,2021-04-28T16:20:02.732Z,,,,,,,,,,,,,,,,,11,,,,,,,,,,,,,,307.717999999586,,response,,,,4,A,,,,,,Space,keypress(Space),,,,silence,,,,----- -- ---- --- -- --- -------- ------------ ---------- --<br>- ------- ------ --------- -- ------------ -- --- ---- -----<br>------ ---- ---- ------ ------ ------- --- ----- ---------<br>---- --- -------- -------- --- art -- ------- --- --- -----<br>-- --- ------ ------- --- --- -------- ---- --------- --<br>---------- -- -------- ----------------,340674.82999999996,340669.65999999957,340345.278,340350.62000000104,340361.942,340678.58,,34,art
screen,html.Screen,2_3_1_0_1_35,2021-04-28T16:20:03.075Z,,,,,,,,,,,,,,,,,11,,,,,,,,,,,,,,329.2400000024936,,response,,,,4,A,,,,,,Space,keypress(Space),,,,silence,,,,----- -- ---- --- -- --- -------- ------------ ---------- --<br>- ------- ------ --------- -- ------------ -- --- ---- -----<br>------ ---- ---- ------ ------ ------- --- ----- ---------<br>---- --- -------- -------- --- --- of ------- --- --- -----<br>-- --- ------ ------- --- --- -------- ---- --------- --<br>---------- -- -------- ----------------,341018.31500000117,341007.8200000025,340661.916,340675.49000000145,340678.58,341028.53,,35,of
screen,html.Screen,2_3_1_0_1_36,2021-04-28T16:20:03.364Z,,,,,,,,,,,,,,,,,11,,,,,,,,,,,,,,271.13000000058673,,response,,,,4,A,,,,,,Space,keypress(Space),,,,silence,,,,----- -- ---- --- -- --- -------- ------------ ---------- --<br>- ------- ------ --------- -- ------------ -- --- ---- -----<br>------ ---- ---- ------ ------ ------- --- ----- ---------<br>---- --- -------- -------- --- --- -- writing --- --- -----<br>-- --- ------ ------- --- --- -------- ---- --------- --<br>---------- -- -------- ----------------,341306.87000000034,341299.6600000006,341011.866,341018.64000000205,341028.53,341311.84,,36,writing
screen,html.Screen,2_3_1_0_1_37,2021-04-28T16:20:03.728Z,,,,,,,,,,,,,,,,,11,,,,,,,,,,,,,,351.50500000081956,,response,,,,4,A,,,,,,Space,keypress(Space),,,,silence,,,,----- -- ---- --- -- --- -------- ------------ ---------- --<br>- ------- ------ --------- -- ------------ -- --- ---- -----<br>------ ---- ---- ------ ------ ------- --- ----- ---------<br>---- --- -------- -------- --- --- -- ------- was --- -----<br>-- --- ------ ------- --- --- -------- ---- --------- --<br>---------- -- -------- ----------------,341671.4400000019,341663.34500000085,341295.176,341308.140000001,341311.84,341678.478,,37,was
