sender,sender_type,sender_id,timestamp,meta,,Blues,Classical,Country,Dance,Electronic,Folk,Gospel,Hip-Hop,Jazz,Latin,Musical/Film,New-age,Pop,Prolific_id,Provo_ID,R&B,Rap,Reggae,Religious,Rock,Soul,Swing,Traditional,age,artist_name,correct,correctResponse,distraction,duration,education,ended_on,familiarity,gender,headphone_check_performance,item,list,music_frequency,offensiveness,pleasantness,position_correct,preference,response,response_action,snippet_file,song_name,song_rating,sound,stimulus_1,stimulus_2,stimulus_3,text,time_commit,time_end,time_render,time_run,time_show,time_switch,url,word,word_ID
Prolific ID,html.Form,0,2021-04-28T17:03:16.627Z,"{""labjs_version"":""20.2.2"",""labjs_build"":{""flavor"":""production"",""commit"":""a25486e0c714a0ae2ce03ff94b7bb6896854dcfa""},""location"":""https://run.pavlovia.org/mvasilev/prolific_music_b/"",""userAgent"":""Mozilla/5.0 (Windows NT 10.0; Win64; x64) AppleWebKit/537.36 (KHTML, like Gecko) Chrome/85.0.4183.121 Safari/537.36 Edg/85.0.564.67"",""platform"":""Win32"",""language"":""en-US"",""locale"":""en-US"",""timeZone"":""Europe/London"",""timezoneOffset"":-60,""screen_width"":1536,""screen_height"":864,""scroll_width"":1707,""scroll_height"":761,""window_innerWidth"":1707,""window_innerHeight"":785,""devicePixelRatio"":1.125}",,,,,,,,,,,,,,,607cb8c92d7d8f3797de1247,,,,,,,,,,,,,,,9398.528000001379,,form submission,,,,,,,,,,,,,,,,,,,,,19212.89500000057,19212.57500000138,9763.791,9776.450000001205,9814.047,19230.443,{},,
Introduction,html.Screen,1_0,2021-04-28T17:03:19.146Z,,,,,,,,,,,,,,,,,,,,,,,,,,,,,,,2500.426999999414,,response,,,,,,,,,,,continue,click button,,,,,,,,,21731.510000001435,21730.869999999413,19214.214,19213.130000000092,19230.443,21747.978,,,
Volume calibration,html.Screen,1_1,2021-04-28T17:03:28.755Z,,,,,,,,,,,,,,,,,,,,,,,,,,,,,,,9590.526999999714,,response,,,,,,,,,,,continue,click button,,,,,,,,,31340.09000000151,31338.504999999714,21730.578,21731.62500000035,21747.978,31347.451,,,
Task instructions,html.Screen,1_2,2021-04-28T17:03:35.737Z,,,,,,,,,,,,,,,,,,,,,,,,,,,,,,,6975.044000000344,,response,,,,,,,,,,,continue,click button,,,,,,,,,38323.045000001,38322.495000000345,31330.576,31340.17500000118,31347.451,38330.779,,,
Sounds,html.Screen,1_3_0_0,2021-04-28T17:03:39.982Z,,,,,,,,,,,,,,,,,,,,,,,,,,,,,,,4250.011999999995,,timeout,,,,,,,,,2,,,,,,,,I,S,O,,42567.449999998644,42563.807,38313.841,38323.20999999865,38330.779,42580.791,,,
Judgement,html.Screen,1_3_0_1,2021-04-28T17:03:43.578Z,,,,,,,,,,,,,,,,,,,,,,,,,,,,true,2,,3581.733999999735,,response,,,,,,,,,2,,2,click #choice-2,,,,,I,S,O,,46163.189999999304,46162.52499999973,42563.807,42567.60000000213,42580.791,46164.292,,,
Trial,flow.Sequence,1_3_0,2021-04-28T17:03:43.579Z,,,,,,,,,,,,,,,,,,,,,,,,,,,,,,,7831.74599999973,,completion,,,,,,,,,2,,,,,,,,I,S,O,,46164.394999999786,46162.52499999973,38313.841,38323.175000001356,38330.779,46164.292,,,
Sounds,html.Screen,1_3_1_0,2021-04-28T17:03:47.813Z,,,,,,,,,,,,,,,,,,,,,,,,,,,,,,,4249.858999999997,,timeout,,,,,,,,,3,,,,,,,,O,I,S,,50398.18000000014,50397.736,46147.212,46164.584999998624,46164.292,50414.151,,,
Judgement,html.Screen,1_3_1_1,2021-04-28T17:03:49.082Z,,,,,,,,,,,,,,,,,,,,,,,,,,,,true,3,,1252.3840000002965,,response,,,,,,,,,3,,3,click #choice-3,,,,,O,I,S,,51667.2350000008,51666.535000000295,50397.736,50398.260000001756,50414.151,51681.212,,,
Trial,flow.Sequence,1_3_1,2021-04-28T17:03:49.082Z,,,,,,,,,,,,,,,,,,,,,,,,,,,,,,,5502.243000000293,,completion,,,,,,,,,3,,,,,,,,O,I,S,,51667.365000001155,51666.535000000295,46147.212,46164.53000000183,46164.292,51681.212,,,
Sounds,html.Screen,1_3_2_0,2021-04-28T17:03:53.331Z,,,,,,,,,,,,,,,,,,,,,,,,,,,,,,,4249.449999999997,,timeout,,,,,,,,,3,,,,,,,,I,O,S,,55916.41000000163,55914.074,51664.168,51667.45000000083,51681.212,55930.662,,,
Judgement,html.Screen,1_3_2_1,2021-04-28T17:03:53.905Z,,,,,,,,,,,,,,,,,,,,,,,,,,,,true,3,,559.837999999887,,response,,,,,,,,,3,,3,click #choice-3,,,,,I,O,S,,56490.99500000011,56490.49999999988,55914.074,55916.48500000156,55930.662,56497.708,,,
Trial,flow.Sequence,1_3_2,2021-04-28T17:03:53.906Z,,,,,,,,,,,,,,,,,,,,,,,,,,,,,,,4809.287999999884,,completion,,,,,,,,,3,,,,,,,,I,O,S,,56491.13000000216,56490.49999999988,51664.168,51667.420000001584,51681.212,56497.708,,,
Sounds,html.Screen,1_3_3_0,2021-04-28T17:03:58.146Z,,,,,,,,,,,,,,,,,,,,,,,,,,,,,,,4249.643000000004,,timeout,,,,,,,,,1,,,,,,,,S,I,O,,60731.85000000012,60731.303,56481.446,56491.219999999885,56497.708,60747.351,,,
Judgement,html.Screen,1_3_3_1,2021-04-28T17:03:58.602Z,,,,,,,,,,,,,,,,,,,,,,,,,,,,true,1,,439.12900000029913,,response,,,,,,,,,1,,1,click #choice-1,,,,,S,I,O,,61187.06999999995,61186.4800000003,60731.303,60731.93000000174,60747.351,61197.802,,,
Trial,flow.Sequence,1_3_3,2021-04-28T17:03:58.602Z,,,,,,,,,,,,,,,,,,,,,,,,,,,,,,,4688.772000000303,,completion,,,,,,,,,1,,,,,,,,S,I,O,,61187.205000001995,61186.4800000003,56481.446,56491.19000000064,56497.708,61197.802,,,
Sounds,html.Screen,1_3_4_0,2021-04-28T17:04:02.846Z,,,,,,,,,,,,,,,,,,,,,,,,,,,,,,,4250.165999999997,,timeout,,,,,,,,,2,,,,,,,,O,S,I,,65431.8600000006,65431.328,61180.662,61187.284999999974,61197.802,65447.968,,,
Judgement,html.Screen,1_3_4_1,2021-04-28T17:04:03.282Z,,,,,,,,,,,,,,,,,,,,,,,,,,,,true,2,,418.5069999988991,,response,,,,,,,,,2,,2,click #choice-2,,,,,O,S,I,,65867.39500000112,65866.4749999989,65431.328,65431.93500000052,65447.968,65880.441,,,
Trial,flow.Sequence,1_3_4,2021-04-28T17:04:03.282Z,,,,,,,,,,,,,,,,,,,,,,,,,,,,,,,4668.672999998897,,completion,,,,,,,,,2,,,,,,,,O,S,I,,65867.51999999979,65866.4749999989,61180.662,61187.25999999879,61197.802,65880.441,,,
Sounds,html.Screen,1_3_5_0,2021-04-28T17:04:07.529Z,,,,,,,,,,,,,,,,,,,,,,,,,,,,,,,4250.002999999997,,timeout,,,,,,,,,1,,,,,,,,S,O,I,,70114.52500000087,70113.987,65864.518,65867.6000000014,65880.441,70130.444,,,
Judgement,html.Screen,1_3_5_1,2021-04-28T17:04:07.962Z,,,,,,,,,,,,,,,,,,,,,,,,,,,,true,1,,416.03099999918777,,response,,,,,,,,,1,,1,click #choice-1,,,,,S,O,I,,70546.98500000086,70546.47499999919,70113.987,70114.60499999885,70130.444,70563.897,,,
Trial,flow.Sequence,1_3_5,2021-04-28T17:04:07.962Z,,,,,,,,,,,,,,,,,,,,,,,,,,,,,,,4666.033999999185,,completion,,,,,,,,,1,,,,,,,,S,O,I,,70547.09999999977,70546.47499999919,65864.518,65867.57000000216,65880.441,70563.897,,,
Task,flow.Loop,1_3,2021-04-28T17:04:07.964Z,,,,,,,,,,,,,,,,,,,,,,,,,,,,,,,32215.69599999919,,completion,,,1,,,,,,,,,,,,,,,,,,70549.53500000192,70546.47499999919,38313.841,38323.13499999873,38330.779,70563.897,,,
Trap,html.Screen,1_4,2021-04-28T17:04:07.965Z,,,,,,,,,,,,,,,,,,,,,,,,,,,,,,,NaN,,skipped,,,,,,,,,,,,,,,,,,,,,70550.32500000016,70546.47499999919,,70550.25000000023,,70563.897,,,
Thanks,html.Screen,1_5,2021-04-28T17:04:10.082Z,,,,,,,,,,,,,,,,,,,,,,,,,,,,,,,2102.563000000373,,response,,,,,,,,,,,continue,click button,,,,,,,,,72666.94500000085,72666.46000000037,70547.432,70550.39500000203,70563.897,75947.157,,,
Headphone screening,flow.Sequence,1,2021-04-28T17:04:10.082Z,,,,,,,,,,,,,,,,,,,,,,,,,,,,,,,53436.01700000037,,completion,,,,,,,,,,,,,,,,,,,,,72667.05999999976,72666.46000000037,19214.214,19213.10000000085,19230.443,75947.157,,,
Instructions,html.Page,2_0,2021-04-28T17:04:21.250Z,,,,,,,,,,,,,,,,,,,,,,,,,,,,,,,7888.0980000017735,,form submission,,,,,,,,,,,,,,,,,,,,,83835.41500000138,83835.25500000178,75931.196,75940.21499999872,75947.157,83847.259,,,
Holding screen,html.Screen,2_1_0_0,2021-04-28T17:04:31.247Z,,,,,,,,,,,,,,,,,,,,,,,,,,,,,,,10000.281999999992,,timeout,,,,,,,,,,,,,,,,,,,,,93832.81500000157,93830.563,83830.986,83835.54500000173,83847.259,93847.541,,,
screen,html.Screen,2_1_0_1_0,2021-04-28T17:04:32.043Z,,,,,,,,,,,,,,,,,53,,,,,,,,,,,,,,779.8940000021539,,response,,,,99,,,,,,,Space,keypress(Space),,,,,,,,When -- ----- -- ------ - ------- --- ----------<br>------------- ------ ------ ---- ---- ------- ----- -- ----<br>-------- ------- -- ---------- --- - --- ----- ----- ----<br>---- --- --- ----- --- ---- ---- ------- ----- ---- -------<br>--- --- -- ----- -- --- ---- -- --- ---- -- ------ ------<br>--- ----- -- ----,94628.77500000104,94627.43500000215,93830.563,93832.94000000024,93847.541,94630.691,,0,When
screen,html.Screen,2_1_0_1_1,2021-04-28T17:04:32.570Z,,,,,,,,,,,,,,,,,53,,,,,,,,,,,,,,524.0240000005724,,response,,,,99,,,,,,,Space,keypress(Space),,,,,,,,---- it ----- -- ------ - ------- --- ----------<br>------------- ------ ------ ---- ---- ------- ----- -- ----<br>-------- ------- -- ---------- --- - --- ----- ----- ----<br>---- --- --- ----- --- ---- ---- ------- ----- ---- -------<br>--- --- -- ----- -- --- ---- -- --- ---- -- ------ ------<br>--- ----- -- ----,95155.08000000045,95154.71500000058,94614.377,94628.87000000046,94630.691,95164.228,,1,it
screen,html.Screen,2_1_0_1_2,2021-04-28T17:04:33.010Z,,,,,,,,,,,,,,,,,53,,,,,,,,,,,,,,430.51700000214623,,response,,,,99,,,,,,,Space,keypress(Space),,,,,,,,---- -- comes -- ------ - ------- --- ----------<br>------------- ------ ------ ---- ---- ------- ----- -- ----<br>-------- ------- -- ---------- --- - --- ----- ----- ----<br>---- --- --- ----- --- ---- ---- ------- ----- ---- -------<br>--- --- -- ----- -- --- ---- -- --- ---- -- ------ ------<br>--- ----- -- ----,95595.14000000127,95594.74500000215,95147.058,95155.14999999868,95164.228,95598.088,,2,comes
screen,html.Screen,2_1_0_1_3,2021-04-28T17:04:33.370Z,,,,,,,,,,,,,,,,,53,,,,,,,,,,,,,,356.8069999989384,,response,,,,99,,,,,,,Space,keypress(Space),,,,,,,,---- -- ----- to ------ - ------- --- ----------<br>------------- ------ ------ ---- ---- ------- ----- -- ----<br>-------- ------- -- ---------- --- - --- ----- ----- ----<br>---- --- --- ----- --- ---- ---- ------- ----- ---- -------<br>--- --- -- ----- -- --- ---- -- --- ---- -- ------ ------<br>--- ----- -- ----,95955.2900000017,95954.89499999894,95580.622,95595.57499999937,95598.088,95964.03,,3,to
screen,html.Screen,2_1_0_1_4,2021-04-28T17:04:33.690Z,,,,,,,,,,,,,,,,,53,,,,,,,,,,,,,,310.7699999992328,,response,,,,99,,,,,,,Space,keypress(Space),,,,,,,,---- -- ----- -- having - ------- --- ----------<br>------------- ------ ------ ---- ---- ------- ----- -- ----<br>-------- ------- -- ---------- --- - --- ----- ----- ----<br>---- --- --- ----- --- ---- ---- ------- ----- ---- -------<br>--- --- -- ----- -- --- ---- -- --- ---- -- ------ ------<br>--- ----- -- ----,96275.13499999986,96274.79999999923,95948.169,95955.35999999993,95964.03,96281.305,,4,having
screen,html.Screen,2_1_0_1_5,2021-04-28T17:04:33.994Z,,,,,,,,,,,,,,,,,53,,,,,,,,,,,,,,297.4199999994016,,response,,,,99,,,,,,,Space,keypress(Space),,,,,,,,---- -- ----- -- ------ a ------- --- ----------<br>------------- ------ ------ ---- ---- ------- ----- -- ----<br>-------- ------- -- ---------- --- - --- ----- ----- ----<br>---- --- --- ----- --- ---- ---- ------- ----- ---- -------<br>--- --- -- ----- -- --- ---- -- --- ---- -- ------ ------<br>--- ----- -- ----,96579.09999999902,96578.7249999994,96264.546,96275.20999999979,96281.305,96581.311,,5,a
screen,html.Screen,2_1_0_1_6,2021-04-28T17:04:34.338Z,,,,,,,,,,,,,,,,,53,,,,,,,,,,,,,,341.3440000021219,,response,,,,99,,,,,,,Space,keypress(Space),,,,,,,,---- -- ----- -- ------ - lasting --- ----------<br>------------- ------ ------ ---- ---- ------- ----- -- ----<br>-------- ------- -- ---------- --- - --- ----- ----- ----<br>---- --- --- ----- --- ---- ---- ------- ----- ---- -------<br>--- --- -- ----- -- --- ---- -- --- ---- -- ------ ------<br>--- ----- -- ----,96923.04499999955,96922.65500000212,96564.664,96579.17000000089,96581.311,96931.357,,6,lasting
screen,html.Screen,2_1_0_1_7,2021-04-28T17:04:34.698Z,,,,,,,,,,,,,,,,,53,,,,,,,,,,,,,,351.62299999994866,,response,,,,99,,,,,,,Space,keypress(Space),,,,,,,,---- -- ----- -- ------ - ------- and ----------<br>------------- ------ ------ ---- ---- ------- ----- -- ----<br>-------- ------- -- ---------- --- - --- ----- ----- ----<br>---- --- --- ----- --- ---- ---- ------- ----- ---- -------<br>--- --- -- ----- -- --- ---- -- --- ---- -- ------ ------<br>--- ----- -- ----,97283.36499999932,97282.97999999995,96913.913,96923.12999999922,96931.357,97297.746,,7,and
screen,html.Screen,2_1_0_1_8,2021-04-28T17:04:35.114Z,,,,,,,,,,,,,,,,,53,,,,,,,,,,,,,,401.08400000118127,,response,,,,99,,,,,,,Space,keypress(Space),,,,,,,,---- -- ----- -- ------ - ------- --- fulfilling<br>------------- ------ ------ ---- ---- ------- ----- -- ----<br>-------- ------- -- ---------- --- - --- ----- ----- ----<br>---- --- --- ----- --- ---- ---- ------- ----- ---- -------<br>--- --- -- ----- -- --- ---- -- --- ---- -- ------ ------<br>--- ----- -- ----,97699.2050000008,97698.83000000118,97280.821,97283.43999999925,97297.746,97714.382,,8,fulfilling
screen,html.Screen,2_1_0_1_9,2021-04-28T17:04:35.490Z,,,,,,,,,,,,,,,,,53,,,,,,,,,,,,,,360.3129999993398,,response,,,,99,,,,,,,Space,keypress(Space),,,,,,,,"---- -- ----- -- ------ - ------- --- ----------<br>relationship, ------ ------ ---- ---- ------- ----- -- ----<br>-------- ------- -- ---------- --- - --- ----- ----- ----<br>---- --- --- ----- --- ---- ---- ------- ----- ---- -------<br>--- --- -- ----- -- --- ---- -- --- ---- -- ------ ------<br>--- ----- -- ----",98075.03999999972,98074.69499999934,97697.12,97699.28499999878,97714.382,98080.519,,9,"relationship,"
screen,html.Screen,2_1_0_1_10,2021-04-28T17:04:35.898Z,,,,,,,,,,,,,,,,,53,,,,,,,,,,,,,,402.3159999988857,,response,,,,99,,,,,,,Space,keypress(Space),,,,,,,,---- -- ----- -- ------ - ------- --- ----------<br>------------- common ------ ---- ---- ------- ----- -- ----<br>-------- ------- -- ---------- --- - --- ----- ----- ----<br>---- --- --- ----- --- ---- ---- ------- ----- ---- -------<br>--- --- -- ----- -- --- ---- -- --- ---- -- ------ ------<br>--- ----- -- ----,98483.19999999876,98482.83499999889,98064.357,98075.11499999964,98080.519,98497.833,,10,common
screen,html.Screen,2_1_0_1_11,2021-04-28T17:04:36.282Z,,,,,,,,,,,,,,,,,53,,,,,,,,,,,,,,369.1020000018325,,response,,,,99,,,,,,,Space,keypress(Space),,,,,,,,---- -- ----- -- ------ - ------- --- ----------<br>------------- ------ wisdom ---- ---- ------- ----- -- ----<br>-------- ------- -- ---------- --- - --- ----- ----- ----<br>---- --- --- ----- --- ---- ---- ------- ----- ---- -------<br>--- --- -- ----- -- --- ---- -- --- ---- -- ------ ------<br>--- ----- -- ----,98867.31000000145,98866.93500000183,98480.448,98483.27499999868,98497.833,98881.222,,11,wisdom
screen,html.Screen,2_1_0_1_12,2021-04-28T17:04:36.722Z,,,,,,,,,,,,,,,,,53,,,,,,,,,,,,,,425.53799999949115,,response,,,,99,,,,,,,Space,keypress(Space),,,,,,,,---- -- ----- -- ------ - ------- --- ----------<br>------------- ------ ------ says ---- ------- ----- -- ----<br>-------- ------- -- ---------- --- - --- ----- ----- ----<br>---- --- --- ----- --- ---- ---- ------- ----- ---- -------<br>--- --- -- ----- -- --- ---- -- --- ---- -- ------ ------<br>--- ----- -- ----,99307.11000000156,99306.75999999949,98864.534,98867.38999999943,98881.222,99314.403,,12,says
screen,html.Screen,2_1_0_1_13,2021-04-28T17:04:37.026Z,,,,,,,,,,,,,,,,,53,,,,,,,,,,,,,,296.5570000017906,,response,,,,99,,,,,,,Space,keypress(Space),,,,,,,,---- -- ----- -- ------ - ------- --- ----------<br>------------- ------ ------ ---- that ------- ----- -- ----<br>-------- ------- -- ---------- --- - --- ----- ----- ----<br>---- --- --- ----- --- ---- ---- ------- ----- ---- -------<br>--- --- -- ----- -- --- ---- -- --- ---- -- ------ ------<br>--- ----- -- ----,99611.34500000117,99610.9600000018,99297.64,99307.18500000148,99314.403,99614.702,,13,that
screen,html.Screen,2_1_0_1_14,2021-04-28T17:04:37.299Z,,,,,,,,,,,,,,,,,53,,,,,,,,,,,,,,268.8780000015249,,response,,,,99,,,,,,,Space,keypress(Space),,,,,,,,---- -- ----- -- ------ - ------- --- ----------<br>------------- ------ ------ ---- ---- feeling ----- -- ----<br>-------- ------- -- ---------- --- - --- ----- ----- ----<br>---- --- --- ----- --- ---- ---- ------- ----- ---- -------<br>--- --- -- ----- -- --- ---- -- --- ---- -- ------ ------<br>--- ----- -- ----,99883.95500000115,99883.58000000153,99597.896,99611.4149999994,99614.702,99897.519,,14,feeling
screen,html.Screen,2_1_0_1_15,2021-04-28T17:04:37.546Z,,,,,,,,,,,,,,,,,53,,,,,,,,,,,,,,233.29099999874597,,response,,,,99,,,,,,,Space,keypress(Space),,,,,,,,---- -- ----- -- ------ - ------- --- ----------<br>------------- ------ ------ ---- ---- ------- close -- ----<br>-------- ------- -- ---------- --- - --- ----- ----- ----<br>---- --- --- ----- --- ---- ---- ------- ----- ---- -------<br>--- --- -- ----- -- --- ---- -- --- ---- -- ------ ------<br>--- ----- -- ----,100131.15000000107,100130.80999999875,99880.782,99884.03499999913,99897.519,100147.394,,15,close
screen,html.Screen,2_1_0_1_16,2021-04-28T17:04:37.810Z,,,,,,,,,,,,,,,,,53,,,,,,,,,,,,,,247.49100000152248,,response,,,,99,,,,,,,Space,keypress(Space),,,,,,,,---- -- ----- -- ------ - ------- --- ----------<br>------------- ------ ------ ---- ---- ------- ----- to ----<br>-------- ------- -- ---------- --- - --- ----- ----- ----<br>---- --- --- ----- --- ---- ---- ------- ----- ---- -------<br>--- --- -- ----- -- --- ---- -- --- ---- -- ------ ------<br>--- ----- -- ----,100395.27000000089,100394.88500000152,100130.647,100131.22999999905,100147.394,100397.421,,16,to
screen,html.Screen,2_1_0_1_17,2021-04-28T17:04:38.058Z,,,,,,,,,,,,,,,,,53,,,,,,,,,,,,,,245.38399999949615,,response,,,,99,,,,,,,Space,keypress(Space),,,,,,,,---- -- ----- -- ------ - ------- --- ----------<br>------------- ------ ------ ---- ---- ------- ----- -- your<br>-------- ------- -- ---------- --- - --- ----- ----- ----<br>---- --- --- ----- --- ---- ---- ------- ----- ---- -------<br>--- --- -- ----- -- --- ---- -- --- ---- -- ------ ------<br>--- ----- -- ----,100643.14999999988,100642.8049999995,100381.004,100395.34999999887,100397.421,100647.517,,17,your
screen,html.Screen,2_1_0_1_18,2021-04-28T17:04:38.298Z,,,,,,,,,,,,,,,,,53,,,,,,,,,,,,,,235.42800000119314,,response,,,,99,,,,,,,Space,keypress(Space),,,,,,,,---- -- ----- -- ------ - ------- --- ----------<br>------------- ------ ------ ---- ---- ------- ----- -- ----<br>romantic ------- -- ---------- --- - --- ----- ----- ----<br>---- --- --- ----- --- ---- ---- ------- ----- ---- -------<br>--- --- -- ----- -- --- ---- -- --- ---- -- ------ ------<br>--- ----- -- ----,100883.28499999989,100882.9450000012,100631.339,100643.2249999998,100647.517,100897.641,,18,romantic
screen,html.Screen,2_1_0_1_19,2021-04-28T17:04:38.562Z,,,,,,,,,,,,,,,,,53,,,,,,,,,,,,,,249.18399999980466,,response,,,,99,,,,,,,Space,keypress(Space),,,,,,,,---- -- ----- -- ------ - ------- --- ----------<br>------------- ------ ------ ---- ---- ------- ----- -- ----<br>-------- partner -- ---------- --- - --- ----- ----- ----<br>---- --- --- ----- --- ---- ---- ------- ----- ---- -------<br>--- --- -- ----- -- --- ---- -- --- ---- -- ------ ------<br>--- ----- -- ----,101147.18500000163,101146.82499999981,100880.646,100883.35999999981,100897.641,101163.773,,19,partner
screen,html.Screen,2_1_0_1_20,2021-04-28T17:04:38.794Z,,,,,,,,,,,,,,,,,53,,,,,,,,,,,,,,214.93199999917124,,response,,,,99,,,,,,,Space,keypress(Space),,,,,,,,---- -- ----- -- ------ - ------- --- ----------<br>------------- ------ ------ ---- ---- ------- ----- -- ----<br>-------- ------- is ---------- --- - --- ----- ----- ----<br>---- --- --- ----- --- ---- ---- ------- ----- ---- -------<br>--- --- -- ----- -- --- ---- -- --- ---- -- ------ ------<br>--- ----- -- ----,101379.12000000142,101378.70499999917,101147.077,101147.25499999986,101163.773,101380.632,,20,is
screen,html.Screen,2_1_0_1_21,2021-04-28T17:04:38.986Z,,,,,,,,,,,,,,,,,53,,,,,,,,,,,,,,190.1480000018346,,response,,,,99,,,,,,,Space,keypress(Space),,,,,,,,---- -- ----- -- ------ - ------- --- ----------<br>------------- ------ ------ ---- ---- ------- ----- -- ----<br>-------- ------- -- paramount. --- - --- ----- ----- ----<br>---- --- --- ----- --- ---- ---- ------- ----- ---- -------<br>--- --- -- ----- -- --- ---- -- --- ---- -- ------ ------<br>--- ----- -- ----,101571.1450000017,101570.78000000183,101364.274,101379.1999999994,101380.632,101580.948,,21,paramount.
screen,html.Screen,2_1_0_1_22,2021-04-28T17:04:39.194Z,,,,,,,,,,,,,,,,,53,,,,,,,,,,,,,,197.76199999867822,,response,,,,99,,,,,,,Space,keypress(Space),,,,,,,,---- -- ----- -- ------ - ------- --- ----------<br>------------- ------ ------ ---- ---- ------- ----- -- ----<br>-------- ------- -- ---------- But - --- ----- ----- ----<br>---- --- --- ----- --- ---- ---- ------- ----- ---- -------<br>--- --- -- ----- -- --- ---- -- --- ---- -- ------ ------<br>--- ----- -- ----,101779.08000000025,101778.70999999868,101564.433,101571.21499999994,101580.948,101780.532,,22,But
screen,html.Screen,2_1_0_1_23,2021-04-28T17:04:39.522Z,,,,,,,,,,,,,,,,,53,,,,,,,,,,,,,,326.35799999910523,,response,,,,99,,,,,,,Space,keypress(Space),,,,,,,,---- -- ----- -- ------ - ------- --- ----------<br>------------- ------ ------ ---- ---- ------- ----- -- ----<br>-------- ------- -- ---------- --- a --- ----- ----- ----<br>---- --- --- ----- --- ---- ---- ------- ----- ---- -------<br>--- --- -- ----- -- --- ---- -- --- ---- -- ------ ------<br>--- ----- -- ----,102107.26499999873,102106.88999999911,101764.43,101779.15500000017,101780.532,102113.842,,23,a
screen,html.Screen,2_1_0_1_24,2021-04-28T17:04:39.738Z,,,,,,,,,,,,,,,,,53,,,,,,,,,,,,,,208.7830000006943,,response,,,,99,,,,,,,Space,keypress(Space),,,,,,,,---- -- ----- -- ------ - ------- --- ----------<br>------------- ------ ------ ---- ---- ------- ----- -- ----<br>-------- ------- -- ---------- --- - new ----- ----- ----<br>---- --- --- ----- --- ---- ---- ------- ----- ---- -------<br>--- --- -- ----- -- --- ---- -- --- ---- -- ------ ------<br>--- ----- -- ----,102322.99000000057,102322.6250000007,102097.968,102107.34500000035,102113.842,102331.411,,24,new
screen,html.Screen,2_1_0_1_25,2021-04-28T17:04:39.954Z,,,,,,,,,,,,,,,,,53,,,,,,,,,,,,,,207.43900000082795,,response,,,,99,,,,,,,Space,keypress(Space),,,,,,,,---- -- ----- -- ------ - ------- --- ----------<br>------------- ------ ------ ---- ---- ------- ----- -- ----<br>-------- ------- -- ---------- --- - --- study ----- ----<br>---- --- --- ----- --- ---- ---- ------- ----- ---- -------<br>--- --- -- ----- -- --- ---- -- --- ---- -- ------ ------<br>--- ----- -- ----,102539.2150000007,102538.85000000082,102314.957,102323.0650000005,102331.411,102547.194,,25,study
screen,html.Screen,2_1_0_1_26,2021-04-28T17:04:40.250Z,,,,,,,,,,,,,,,,,53,,,,,,,,,,,,,,287.5059999994264,,response,,,,99,,,,,,,Space,keypress(Space),,,,,,,,---- -- ----- -- ------ - ------- --- ----------<br>------------- ------ ------ ---- ---- ------- ----- -- ----<br>-------- ------- -- ---------- --- - --- ----- finds ----<br>---- --- --- ----- --- ---- ---- ------- ----- ---- -------<br>--- --- -- ----- -- --- ---- -- --- ---- -- ------ ------<br>--- ----- -- ----,102835.0649999993,102834.69999999943,102530.556,102539.29000000062,102547.194,102847.964,,26,finds
screen,html.Screen,2_1_0_1_27,2021-04-28T17:04:40.538Z,,,,,,,,,,,,,,,,,53,,,,,,,,,,,,,,274.72100000208593,,response,,,,99,,,,,,,Space,keypress(Space),,,,,,,,---- -- ----- -- ------ - ------- --- ----------<br>------------- ------ ------ ---- ---- ------- ----- -- ----<br>-------- ------- -- ---------- --- - --- ----- ----- that<br>---- --- --- ----- --- ---- ---- ------- ----- ---- -------<br>--- --- -- ----- -- --- ---- -- --- ---- -- ------ ------<br>--- ----- -- ----,103123.14500000139,103122.6850000021,102830.722,102835.14999999898,102847.964,103131.377,,27,that
screen,html.Screen,2_1_0_1_28,2021-04-28T17:04:40.866Z,,,,,,,,,,,,,,,,,53,,,,,,,,,,,,,,319.46300000134215,,response,,,,99,,,,,,,Space,keypress(Space),,,,,,,,---- -- ----- -- ------ - ------- --- ----------<br>------------- ------ ------ ---- ---- ------- ----- -- ----<br>-------- ------- -- ---------- --- - --- ----- ----- ----<br>it's --- --- ----- --- ---- ---- ------- ----- ---- -------<br>--- --- -- ----- -- --- ---- -- --- ---- -- ------ ------<br>--- ----- -- ----,103451.19999999952,103450.84000000134,103114.484,103123.93000000156,103131.377,103464.328,,28,it's
screen,html.Screen,2_1_0_1_29,2021-04-28T17:04:41.083Z,,,,,,,,,,,,,,,,,53,,,,,,,,,,,,,,202.77700000045297,,response,,,,99,,,,,,,Space,keypress(Space),,,,,,,,---- -- ----- -- ------ - ------- --- ----------<br>------------- ------ ------ ---- ---- ------- ----- -- ----<br>-------- ------- -- ---------- --- - --- ----- ----- ----<br>---- not --- ----- --- ---- ---- ------- ----- ---- -------<br>--- --- -- ----- -- --- ---- -- --- ---- -- ------ ------<br>--- ----- -- ----,103668.01499999929,103667.10500000045,103447.936,103451.27499999944,103464.328,103681.322,,29,not
screen,html.Screen,2_1_0_1_30,2021-04-28T17:04:41.282Z,,,,,,,,,,,,,,,,,53,,,,,,,,,,,,,,185.37300000061805,,response,,,,99,,,,,,,Space,keypress(Space),,,,,,,,---- -- ----- -- ------ - ------- --- ----------<br>------------- ------ ------ ---- ---- ------- ----- -- ----<br>-------- ------- -- ---------- --- - --- ----- ----- ----<br>---- --- how ----- --- ---- ---- ------- ----- ---- -------<br>--- --- -- ----- -- --- ---- -- --- ---- -- ------ ------<br>--- ----- -- ----,103867.0549999988,103866.69500000062,103664.028,103668.0950000009,103681.322,103880.925,,30,how
screen,html.Screen,2_1_0_1_31,2021-04-28T17:04:41.474Z,,,,,,,,,,,,,,,,,53,,,,,,,,,,,,,,177.81500000039523,,response,,,,99,,,,,,,Space,keypress(Space),,,,,,,,---- -- ----- -- ------ - ------- --- ----------<br>------------- ------ ------ ---- ---- ------- ----- -- ----<br>-------- ------- -- ---------- --- - --- ----- ----- ----<br>---- --- --- close --- ---- ---- ------- ----- ---- -------<br>--- --- -- ----- -- --- ---- -- --- ---- -- ------ ------<br>--- ----- -- ----,104059.06500000128,104058.7400000004,103864.577,103867.12999999872,103880.925,104064.257,,31,close
screen,html.Screen,2_1_0_1_32,2021-04-28T17:04:41.650Z,,,,,,,,,,,,,,,,,53,,,,,,,,,,,,,,170.6480000011652,,response,,,,99,,,,,,,Space,keypress(Space),,,,,,,,---- -- ----- -- ------ - ------- --- ----------<br>------------- ------ ------ ---- ---- ------- ----- -- ----<br>-------- ------- -- ---------- --- - --- ----- ----- ----<br>---- --- --- ----- you ---- ---- ------- ----- ---- -------<br>--- --- -- ----- -- --- ---- -- --- ---- -- ------ ------<br>--- ----- -- ----,104235.26000000129,104234.90500000116,104047.278,104059.1400000012,104064.257,104247.519,,32,you
screen,html.Screen,2_1_0_1_33,2021-04-28T17:04:41.850Z,,,,,,,,,,,,,,,,,53,,,,,,,,,,,,,,187.51600000224425,,response,,,,99,,,,,,,Space,keypress(Space),,,,,,,,---- -- ----- -- ------ - ------- --- ----------<br>------------- ------ ------ ---- ---- ------- ----- -- ----<br>-------- ------- -- ---------- --- - --- ----- ----- ----<br>---- --- --- ----- --- feel ---- ------- ----- ---- -------<br>--- --- -- ----- -- --- ---- -- --- ---- -- ------ ------<br>--- ----- -- ----,104435.37500000093,104435.03500000224,104230.453,104235.33500000121,104247.519,104447.496,,33,feel
screen,html.Screen,2_1_0_1_34,2021-04-28T17:04:42.034Z,,,,,,,,,,,,,,,,,53,,,,,,,,,,,,,,171.13400000084948,,response,,,,99,,,,,,,Space,keypress(Space),,,,,,,,---- -- ----- -- ------ - ------- --- ----------<br>------------- ------ ------ ---- ---- ------- ----- -- ----<br>-------- ------- -- ---------- --- - --- ----- ----- ----<br>---- --- --- ----- --- ---- that ------- ----- ---- -------<br>--- --- -- ----- -- --- ---- -- --- ---- -- ------ ------<br>--- ----- -- ----,104618.97500000123,104618.63000000085,104430.949,104435.45000000086,104447.496,104631.377,,34,that
screen,html.Screen,2_1_0_1_35,2021-04-28T17:04:42.338Z,,,,,,,,,,,,,,,,,53,,,,,,,,,,,,,,292.0680000003631,,response,,,,99,,,,,,,Space,keypress(Space),,,,,,,,---- -- ----- -- ------ - ------- --- ----------<br>------------- ------ ------ ---- ---- ------- ----- -- ----<br>-------- ------- -- ---------- --- - --- ----- ----- ----<br>---- --- --- ----- --- ---- ---- matters ----- ---- -------<br>--- --- -- ----- -- --- ---- -- --- ---- -- ------ ------<br>--- ----- -- ----,104923.86999999871,104923.44500000036,104614.261,104619.05000000115,104631.377,104930.977,,35,matters
screen,html.Screen,2_1_0_1_36,2021-04-28T17:04:42.562Z,,,,,,,,,,,,,,,,,53,,,,,,,,,,,,,,215.93800000117335,,response,,,,99,,,,,,,Space,keypress(Space),,,,,,,,"---- -- ----- -- ------ - ------- --- ----------<br>------------- ------ ------ ---- ---- ------- ----- -- ----<br>-------- ------- -- ---------- --- - --- ----- ----- ----<br>---- --- --- ----- --- ---- ---- ------- most, ---- -------<br>--- --- -- ----- -- --- ---- -- --- ---- -- ------ ------<br>--- ----- -- ----",105147.2849999991,105146.91500000117,104914.719,104923.95000000033,104930.977,105164.229,,36,"most,"
screen,html.Screen,2_1_0_1_37,2021-04-28T17:04:42.898Z,,,,,,,,,,,,,,,,,53,,,,,,,,,,,,,,318.6210000003193,,response,,,,99,,,,,,,Space,keypress(Space),,,,,,,,---- -- ----- -- ------ - ------- --- ----------<br>------------- ------ ------ ---- ---- ------- ----- -- ----<br>-------- ------- -- ---------- --- - --- ----- ----- ----<br>---- --- --- ----- --- ---- ---- ------- ----- it's -------<br>--- --- -- ----- -- --- ---- -- --- ---- -- ------ ------<br>--- ----- -- ----,105483.19999999876,105482.85000000033,105131.35,105147.35500000097,105164.229,105497.889,,37,it's
screen,html.Screen,2_1_0_1_38,2021-04-28T17:04:43.114Z,,,,,,,,,,,,,,,,,53,,,,,,,,,,,,,,200.92100000169012,,response,,,,99,,,,,,,Space,keypress(Space),,,,,,,,---- -- ----- -- ------ - ------- --- ----------<br>------------- ------ ------ ---- ---- ------- ----- -- ----<br>-------- ------- -- ---------- --- - --- ----- ----- ----<br>---- --- --- ----- --- ---- ---- ------- ----- ---- whether<br>--- --- -- ----- -- --- ---- -- --- ---- -- ------ ------<br>--- ----- -- ----,105699.16000000012,105698.81000000169,105480.467,105483.27000000063,105497.889,105714.52,,38,whether
screen,html.Screen,2_1_0_1_39,2021-04-28T17:04:43.338Z,,,,,,,,,,,,,,,,,53,,,,,,,,,,,,,,208.22499999984575,,response,,,,99,,,,,,,Space,keypress(Space),,,,,,,,---- -- ----- -- ------ - ------- --- ----------<br>------------- ------ ------ ---- ---- ------- ----- -- ----<br>-------- ------- -- ---------- --- - --- ----- ----- ----<br>---- --- --- ----- --- ---- ---- ------- ----- ---- -------<br>you --- -- ----- -- --- ---- -- --- ---- -- ------ ------<br>--- ----- -- ----,105923.13999999897,105922.74499999985,105697.904,105699.23000000199,105714.52,105930.565,,39,you
screen,html.Screen,2_1_0_1_40,2021-04-28T17:04:43.658Z,,,,,,,,,,,,,,,,,53,,,,,,,,,,,,,,312.1999999990512,,response,,,,99,,,,,,,Space,keypress(Space),,,,,,,,---- -- ----- -- ------ - ------- --- ----------<br>------------- ------ ------ ---- ---- ------- ----- -- ----<br>-------- ------- -- ---------- --- - --- ----- ----- ----<br>---- --- --- ----- --- ---- ---- ------- ----- ---- -------<br>--- are -- ----- -- --- ---- -- --- ---- -- ------ ------<br>--- ----- -- ----,106243.13999999868,106242.76499999905,105914.266,105923.21499999889,105930.565,106264.618,,40,are
screen,html.Screen,2_1_0_1_41,2021-04-28T17:04:43.874Z,,,,,,,,,,,,,,,,,53,,,,,,,,,,,,,,194.0519999999815,,response,,,,99,,,,,,,Space,keypress(Space),,,,,,,,---- -- ----- -- ------ - ------- --- ----------<br>------------- ------ ------ ---- ---- ------- ----- -- ----<br>-------- ------- -- ---------- --- - --- ----- ----- ----<br>---- --- --- ----- --- ---- ---- ------- ----- ---- -------<br>--- --- as ----- -- --- ---- -- --- ---- -- ------ ------<br>--- ----- -- ----,106459.01500000036,106458.66999999998,106231.372,106243.21000000054,106264.618,106464.534,,41,as
screen,html.Screen,2_1_0_1_42,2021-04-28T17:04:44.090Z,,,,,,,,,,,,,,,,,53,,,,,,,,,,,,,,210.34100000061153,,response,,,,99,,,,,,,Space,keypress(Space),,,,,,,,---- -- ----- -- ------ - ------- --- ----------<br>------------- ------ ------ ---- ---- ------- ----- -- ----<br>-------- ------- -- ---------- --- - --- ----- ----- ----<br>---- --- --- ----- --- ---- ---- ------- ----- ---- -------<br>--- --- -- close -- --- ---- -- --- ---- -- ------ ------<br>--- ----- -- ----,106675.25999999998,106674.87500000061,106447.136,106459.08000000054,106464.534,106681.072,,42,close
screen,html.Screen,2_1_0_1_43,2021-04-28T17:04:44.314Z,,,,,,,,,,,,,,,,,53,,,,,,,,,,,,,,217.66299999885086,,response,,,,99,,,,,,,Space,keypress(Space),,,,,,,,---- -- ----- -- ------ - ------- --- ----------<br>------------- ------ ------ ---- ---- ------- ----- -- ----<br>-------- ------- -- ---------- --- - --- ----- ----- ----<br>---- --- --- ----- --- ---- ---- ------- ----- ---- -------<br>--- --- -- ----- as --- ---- -- --- ---- -- ------ ------<br>--- ----- -- ----,106899.04000000024,106898.73499999885,106664.657,106675.33000000185,106681.072,106914.227,,43,as
screen,html.Screen,2_1_0_1_44,2021-04-28T17:04:44.538Z,,,,,,,,,,,,,,,,,53,,,,,,,,,,,,,,208.62299999974493,,response,,,,99,,,,,,,Space,keypress(Space),,,,,,,,---- -- ----- -- ------ - ------- --- ----------<br>------------- ------ ------ ---- ---- ------- ----- -- ----<br>-------- ------- -- ---------- --- - --- ----- ----- ----<br>---- --- --- ----- --- ---- ---- ------- ----- ---- -------<br>--- --- -- ----- -- you ---- -- --- ---- -- ------ ------<br>--- ----- -- ----,107123.27000000005,107122.84999999974,106897.967,106899.11000000211,106914.227,107131.426,,44,you
screen,html.Screen,2_1_0_1_45,2021-04-28T17:04:44.746Z,,,,,,,,,,,,,,,,,53,,,,,,,,,,,,,,199.29899999979534,,response,,,,99,,,,,,,Space,keypress(Space),,,,,,,,---- -- ----- -- ------ - ------- --- ----------<br>------------- ------ ------ ---- ---- ------- ----- -- ----<br>-------- ------- -- ---------- --- - --- ----- ----- ----<br>---- --- --- ----- --- ---- ---- ------- ----- ---- -------<br>--- --- -- ----- -- --- want -- --- ---- -- ------ ------<br>--- ----- -- ----,107331.08500000162,107330.7249999998,107114.519,107123.33500000022,107131.426,107347.274,,45,want
screen,html.Screen,2_1_0_1_46,2021-04-28T17:04:44.946Z,,,,,,,,,,,,,,,,,53,,,,,,,,,,,,,,183.47600000171224,,response,,,,99,,,,,,,Space,keypress(Space),,,,,,,,---- -- ----- -- ------ - ------- --- ----------<br>------------- ------ ------ ---- ---- ------- ----- -- ----<br>-------- ------- -- ---------- --- - --- ----- ----- ----<br>---- --- --- ----- --- ---- ---- ------- ----- ---- -------<br>--- --- -- ----- -- --- ---- to --- ---- -- ------ ------<br>--- ----- -- ----,107531.0950000021,107530.75000000172,107330.801,107331.16000000155,107347.274,107547.622,,46,to
screen,html.Screen,2_1_0_1_47,2021-04-28T17:04:45.138Z,,,,,,,,,,,,,,,,,53,,,,,,,,,,,,,,175.10800000131712,,response,,,,99,,,,,,,Space,keypress(Space),,,,,,,,"---- -- ----- -- ------ - ------- --- ----------<br>------------- ------ ------ ---- ---- ------- ----- -- ----<br>-------- ------- -- ---------- --- - --- ----- ----- ----<br>---- --- --- ----- --- ---- ---- ------- ----- ---- -------<br>--- --- -- ----- -- --- ---- -- be, ---- -- ------ ------<br>--- ----- -- ----",107723.0750000017,107722.73000000132,107514.772,107531.16500000033,107547.622,107731.066,,47,"be,"
screen,html.Screen,2_1_0_1_48,2021-04-28T17:04:45.370Z,,,,,,,,,,,,,,,,,53,,,,,,,,,,,,,,223.63400000204274,,response,,,,99,,,,,,,Space,keypress(Space),,,,,,,,---- -- ----- -- ------ - ------- --- ----------<br>------------- ------ ------ ---- ---- ------- ----- -- ----<br>-------- ------- -- ---------- --- - --- ----- ----- ----<br>---- --- --- ----- --- ---- ---- ------- ----- ---- -------<br>--- --- -- ----- -- --- ---- -- --- even -- ------ ------<br>--- ----- -- ----,107955.04499999879,107954.70000000205,107713.943,107723.14499999993,107731.066,107964.013,,48,even
screen,html.Screen,2_1_0_1_49,2021-04-28T17:04:46.066Z,,,,,,,,,,,,,,,,,53,,,,,,,,,,,,,,686.9420000009704,,response,,,,99,,,,,,,Space,keypress(Space),,,,,,,,---- -- ----- -- ------ - ------- --- ----------<br>------------- ------ ------ ---- ---- ------- ----- -- ----<br>-------- ------- -- ---------- --- - --- ----- ----- ----<br>---- --- --- ----- --- ---- ---- ------- ----- ---- -------<br>--- --- -- ----- -- --- ---- -- --- ---- if ------ ------<br>--- ----- -- ----,108651.41000000222,108650.95500000098,107947.806,107955.11999999871,107964.013,108665.002,,49,if
screen,html.Screen,2_1_0_1_50,2021-04-28T17:04:46.274Z,,,,,,,,,,,,,,,,,53,,,,,,,,,,,,,,194.06300000056217,,response,,,,99,,,,,,,Space,keypress(Space),,,,,,,,---- -- ----- -- ------ - ------- --- ----------<br>------------- ------ ------ ---- ---- ------- ----- -- ----<br>-------- ------- -- ---------- --- - --- ----- ----- ----<br>---- --- --- ----- --- ---- ---- ------- ----- ---- -------<br>--- --- -- ----- -- --- ---- -- --- ---- -- that's ------<br>--- ----- -- ----,108859.45500000162,108859.06500000056,108647.703,108651.4700000007,108665.002,108864.038,,50,that's
screen,html.Screen,2_1_0_1_51,2021-04-28T17:04:46.618Z,,,,,,,,,,,,,,,,,53,,,,,,,,,,,,,,338.8770000016666,,response,,,,99,,,,,,,Space,keypress(Space),,,,,,,,---- -- ----- -- ------ - ------- --- ----------<br>------------- ------ ------ ---- ---- ------- ----- -- ----<br>-------- ------- -- ---------- --- - --- ----- ----- ----<br>---- --- --- ----- --- ---- ---- ------- ----- ---- -------<br>--- --- -- ----- -- --- ---- -- --- ---- -- ------ really<br>--- ----- -- ----,109203.30000000104,109202.91500000167,108847.172,108859.5349999996,108864.038,109213.88,,51,really
screen,html.Screen,2_1_0_1_52,2021-04-28T17:04:46.970Z,,,,,,,,,,,,,,,,,53,,,,,,,,,,,,,,340.8950000005134,,response,,,,99,,,,,,,Space,keypress(Space),,,,,,,,---- -- ----- -- ------ - ------- --- ----------<br>------------- ------ ------ ---- ---- ------- ----- -- ----<br>-------- ------- -- ---------- --- - --- ----- ----- ----<br>---- --- --- ----- --- ---- ---- ------- ----- ---- -------<br>--- --- -- ----- -- --- ---- -- --- ---- -- ------ ------<br>not ----- -- ----,109555.16500000158,109554.77500000052,109197.75,109203.36999999927,109213.88,109563.961,,52,not
screen,html.Screen,2_1_0_1_53,2021-04-28T17:04:47.210Z,,,,,,,,,,,,,,,,,53,,,,,,,,,,,,,,231.09900000038033,,response,,,,99,,,,,,,Space,keypress(Space),,,,,,,,---- -- ----- -- ------ - ------- --- ----------<br>------------- ------ ------ ---- ---- ------- ----- -- ----<br>-------- ------- -- ---------- --- - --- ----- ----- ----<br>---- --- --- ----- --- ---- ---- ------- ----- ---- -------<br>--- --- -- ----- -- --- ---- -- --- ---- -- ------ ------<br>--- close -- ----,109795.40500000076,109795.06000000038,109547.135,109555.23499999981,109563.961,109797.156,,53,close
screen,html.Screen,2_1_0_1_54,2021-04-28T17:04:47.570Z,,,,,,,,,,,,,,,,,53,,,,,,,,,,,,,,357.63400000050024,,response,,,,99,,,,,,,Space,keypress(Space),,,,,,,,---- -- ----- -- ------ - ------- --- ----------<br>------------- ------ ------ ---- ---- ------- ----- -- ----<br>-------- ------- -- ---------- --- - --- ----- ----- ----<br>---- --- --- ----- --- ---- ---- ------- ----- ---- -------<br>--- --- -- ----- -- --- ---- -- --- ---- -- ------ ------<br>--- ----- at ----,110155.17000000182,110154.7900000005,109780.507,109795.47000000093,109797.156,110163.927,,54,at
screen,html.Screen,2_1_0_1_55,2021-04-28T17:04:48.042Z,,,,,,,,,,,,,,,,,53,,,,,,,,,,,,,,463.1329999988957,,response,,,,99,,,,,,,Space,keypress(Space),,,,,,,,---- -- ----- -- ------ - ------- --- ----------<br>------------- ------ ------ ---- ---- ------- ----- -- ----<br>-------- ------- -- ---------- --- - --- ----- ----- ----<br>---- --- --- ----- --- ---- ---- ------- ----- ---- -------<br>--- --- -- ----- -- --- ---- -- --- ---- -- ------ ------<br>--- ----- -- all.,110627.46999999945,110627.05999999889,110147.433,110155.26999999929,110163.927,110630.471,,55,all.
Item 99,flow.Loop,2_1_0_1,2021-04-28T17:04:48.042Z,,,,,,,,,,,,,,,,,,,,,,,,,,,,,,,16779.518999998894,,completion,,,,,B,,,,,,,,,,,silence,,,,,110627.68499999947,110627.05999999889,93830.563,93832.9049999993,93847.541,110630.471,,,
Question 1,html.Screen,2_1_0_2,2021-04-28T17:04:50.314Z,,,,,,,,,,,,,,,,,,,,,,,,,,,,true,FALSE,,2268.1390000001848,,response,,,,99,B,,,,,,FALSE,click #choice-2,,,,silence,,,,,112899.3100000007,112898.61000000019,110614.463,110627.7599999994,110630.471,112914.416,,,
Question 2,html.Screen,2_1_0_3,2021-04-28T17:04:53.842Z,,,,,,,,,,,,,,,,,,,,,,,,,,,,true,TRUE,,3512.064000001905,,response,,,,99,B,,,,,,TRUE,click #choice-1,,,,silence,,,,,116427.05000000205,116426.4800000019,112897.237,112899.38999999868,112914.416,116431.215,,,
Item 99,flow.Sequence,2_1_0,2021-04-28T17:04:53.842Z,,,,,,,,,,,,,,,,,,,,,,,,,,,,,,,32579.221000001897,,completion,,,,,,,,,,,,,,,,,,,,,116427.15999999928,116426.4800000019,83830.986,83835.52500000224,83847.259,116431.215,,,
Holding screen,html.Screen,2_1_1_0,2021-04-28T17:05:03.829Z,,,,,,,,,,,,,,,,,,,,,,,,,,,,,,,10000.040999999997,,timeout,,,,,,,,,,,,,,,,,,,,,126414.73000000042,126414.322,116414.407,116427.2349999992,116431.215,126431.256,,,
screen,html.Screen,2_1_1_1_0,2021-04-28T17:05:05.523Z,,,,,,,,,,,,,,,,,54,,,,,,,,,,,,,,1676.4590000019234,,response,,,,100,,,,,,,Space,keypress(Space),,,,,,,,At --- ---- --- ------ ----- ------- ---- -- --- ------- --<br>------- ---------- ------ -- ----- -- ----- -- ---- ------<br>--- ----- --- --- ------ -------- ----- --- ------ ----- --<br>----- ----- ---------- --- --- ------ ------ ---- -- ------<br>------- --- ------ ----- --- ---- ------- -- ---- --- --<br>------- ------,128108.0949999996,128107.71500000192,126414.322,126414.81500000009,126431.256,128113.91,,0,At
screen,html.Screen,2_1_1_1_1,2021-04-28T17:05:05.890Z,,,,,,,,,,,,,,,,,54,,,,,,,,,,,,,,360.8200000017241,,response,,,,100,,,,,,,Space,keypress(Space),,,,,,,,-- the ---- --- ------ ----- ------- ---- -- --- ------- --<br>------- ---------- ------ -- ----- -- ----- -- ---- ------<br>--- ----- --- --- ------ -------- ----- --- ------ ----- --<br>----- ----- ---------- --- --- ------ ------ ---- -- ------<br>------- --- ------ ----- --- ---- ------- -- ---- --- --<br>------- ------,128475.15500000009,128474.73000000173,128097.773,128108.16500000146,128113.91,128497.782,,1,the
screen,html.Screen,2_1_1_1_2,2021-04-28T17:05:06.153Z,,,,,,,,,,,,,,,,,54,,,,,,,,,,,,,,240.95299999898998,,response,,,,100,,,,,,,Space,keypress(Space),,,,,,,,-- --- time --- ------ ----- ------- ---- -- --- ------- --<br>------- ---------- ------ -- ----- -- ----- -- ---- ------<br>--- ----- --- --- ------ -------- ----- --- ------ ----- --<br>----- ----- ---------- --- --- ------ ------ ---- -- ------<br>------- --- ------ ----- --- ---- ------- -- ---- --- --<br>------- ------,128739.06500000157,128738.734999999,128480.419,128475.2550000012,128497.782,128747.515,,2,time
screen,html.Screen,2_1_1_1_3,2021-04-28T17:05:06.386Z,,,,,,,,,,,,,,,,,54,,,,,,,,,,,,,,223.36999999881664,,response,,,,100,,,,,,,Space,keypress(Space),,,,,,,,-- --- ---- the ------ ----- ------- ---- -- --- ------- --<br>------- ---------- ------ -- ----- -- ----- -- ---- ------<br>--- ----- --- --- ------ -------- ----- --- ------ ----- --<br>----- ----- ---------- --- --- ------ ------ ---- -- ------<br>------- --- ------ ----- --- ---- ------- -- ---- --- --<br>------- ------,128971.24999999869,128970.88499999882,128730.553,128739.1400000015,128747.515,128997.238,,3,the
screen,html.Screen,2_1_1_1_4,2021-04-28T17:05:06.594Z,,,,,,,,,,,,,,,,,54,,,,,,,,,,,,,,181.48700000157987,,response,,,,100,,,,,,,Space,keypress(Space),,,,,,,,-- --- ---- --- French ----- ------- ---- -- --- ------- --<br>------- ---------- ------ -- ----- -- ----- -- ---- ------<br>--- ----- --- --- ------ -------- ----- --- ------ ----- --<br>----- ----- ---------- --- --- ------ ------ ---- -- ------<br>------- --- ------ ----- --- ---- ------- -- ---- --- --<br>------- ------,129179.09000000145,129178.72500000158,128981.357,128971.335000002,128997.238,129197.566,,4,French
screen,html.Screen,2_1_1_1_5,2021-04-28T17:05:06.801Z,,,,,,,,,,,,,,,,,54,,,,,,,,,,,,,,189.1139999996085,,response,,,,100,,,,,,,Space,keypress(Space),,,,,,,,-- --- ---- --- ------ crown ------- ---- -- --- ------- --<br>------- ---------- ------ -- ----- -- ----- -- ---- ------<br>--- ----- --- --- ------ -------- ----- --- ------ ----- --<br>----- ----- ---------- --- --- ------ ------ ---- -- ------<br>------- --- ------ ----- --- ---- ------- -- ---- --- --<br>------- ------,129387.01500000025,129386.67999999961,129181.251,129179.15999999968,129197.566,129414.192,,5,crown
screen,html.Screen,2_1_1_1_6,2021-04-28T17:05:07.282Z,,,,,,,,,,,,,,,,,54,,,,,,,,,,,,,,452.6729999999661,,response,,,,100,,,,,,,Space,keypress(Space),,,,,,,,-- --- ---- --- ------ ----- secured ---- -- --- ------- --<br>------- ---------- ------ -- ----- -- ----- -- ---- ------<br>--- ----- --- --- ------ -------- ----- --- ------ ----- --<br>----- ----- ---------- --- --- ------ ------ ---- -- ------<br>------- --- ------ ----- --- ---- ------- -- ---- --- --<br>------- ------,129867.22999999984,129866.86499999996,129397.541,129387.09000000017,129414.192,129880.403,,6,secured
screen,html.Screen,2_1_1_1_7,2021-04-28T17:05:07.578Z,,,,,,,,,,,,,,,,,54,,,,,,,,,,,,,,282.387000002127,,response,,,,100,,,,,,,Space,keypress(Space),,,,,,,,-- --- ---- --- ------ ----- ------- much -- --- ------- --<br>------- ---------- ------ -- ----- -- ----- -- ---- ------<br>--- ----- --- --- ------ -------- ----- --- ------ ----- --<br>----- ----- ---------- --- --- ------ ------ ---- -- ------<br>------- --- ------ ----- --- ---- ------- -- ---- --- --<br>------- ------,130163.13000000082,130162.79000000213,129863.875,129867.3000000017,129880.403,130181.976,,7,much
screen,html.Screen,2_1_1_1_8,2021-04-28T17:05:07.778Z,,,,,,,,,,,,,,,,,54,,,,,,,,,,,,,,180.8239999989746,,response,,,,100,,,,,,,Space,keypress(Space),,,,,,,,-- --- ---- --- ------ ----- ------- ---- of --- ------- --<br>------- ---------- ------ -- ----- -- ----- -- ---- ------<br>--- ----- --- --- ------ -------- ----- --- ------ ----- --<br>----- ----- ---------- --- --- ------ ------ ---- -- ------<br>------- --- ------ ----- --- ---- ------- -- ---- --- --<br>------- ------,130363.22500000097,130362.79999999897,130147.308,130163.19999999905,130181.976,130381.716,,8,of
screen,html.Screen,2_1_1_1_9,2021-04-28T17:05:07.994Z,,,,,,,,,,,,,,,,,54,,,,,,,,,,,,,,197.24399999891466,,response,,,,100,,,,,,,Space,keypress(Space),,,,,,,,-- --- ---- --- ------ ----- ------- ---- -- its ------- --<br>------- ---------- ------ -- ----- -- ----- -- ---- ------<br>--- ----- --- --- ------ -------- ----- --- ------ ----- --<br>----- ----- ---------- --- --- ------ ------ ---- -- ------<br>------- --- ------ ----- --- ---- ------- -- ---- --- --<br>------- ------,130579.32499999879,130578.95999999892,130347.783,130363.29000000114,130381.716,130580.664,,9,its
screen,html.Screen,2_1_1_1_10,2021-04-28T17:05:08.210Z,,,,,,,,,,,,,,,,,54,,,,,,,,,,,,,,214.23600000077568,,response,,,,100,,,,,,,Space,keypress(Space),,,,,,,,-- --- ---- --- ------ ----- ------- ---- -- --- revenue --<br>------- ---------- ------ -- ----- -- ----- -- ---- ------<br>--- ----- --- --- ------ -------- ----- --- ------ ----- --<br>----- ----- ---------- --- --- ------ ------ ---- -- ------<br>------- --- ------ ----- --- ---- ------- -- ---- --- --<br>------- ------,130795.26500000065,130794.90000000078,130564.217,130579.39500000066,130580.664,130797.276,,10,revenue
screen,html.Screen,2_1_1_1_11,2021-04-28T17:05:08.610Z,,,,,,,,,,,,,,,,,54,,,,,,,,,,,,,,397.58399999960966,,response,,,,100,,,,,,,Space,keypress(Space),,,,,,,,-- --- ---- --- ------ ----- ------- ---- -- --- ------- by<br>------- ---------- ------ -- ----- -- ----- -- ---- ------<br>--- ----- --- --- ------ -------- ----- --- ------ ----- --<br>----- ----- ---------- --- --- ------ ------ ---- -- ------<br>------- --- ------ ----- --- ---- ------- -- ---- --- --<br>------- ------,131195.26000000042,131194.8599999996,130781.029,130795.33499999889,130797.276,131197.98,,11,by
screen,html.Screen,2_1_1_1_12,2021-04-28T17:05:08.986Z,,,,,,,,,,,,,,,,,54,,,,,,,,,,,,,,372.78500000038184,,response,,,,100,,,,,,,Space,keypress(Space),,,,,,,,-- --- ---- --- ------ ----- ------- ---- -- --- ------- --<br>issuing ---------- ------ -- ----- -- ----- -- ---- ------<br>--- ----- --- --- ------ -------- ----- --- ------ ----- --<br>----- ----- ---------- --- --- ------ ------ ---- -- ------<br>------- --- ------ ----- --- ---- ------- -- ---- --- --<br>------- ------,131571.10000000102,131570.7650000004,131180.828,131195.34000000203,131197.98,131581.045,,12,issuing
screen,html.Screen,2_1_1_1_13,2021-04-28T17:05:09.282Z,,,,,,,,,,,,,,,,,54,,,,,,,,,,,,,,285.9000000015658,,response,,,,100,,,,,,,Space,keypress(Space),,,,,,,,-- --- ---- --- ------ ----- ------- ---- -- --- ------- --<br>------- government ------ -- ----- -- ----- -- ---- ------<br>--- ----- --- --- ------ -------- ----- --- ------ ----- --<br>----- ----- ---------- --- --- ------ ------ ---- -- ------<br>------- --- ------ ----- --- ---- ------- -- ---- --- --<br>------- ------,131867.33000000095,131866.94500000158,131564.226,131571.1650000012,131581.045,131881.422,,13,government
screen,html.Screen,2_1_1_1_14,2021-04-28T17:05:09.714Z,,,,,,,,,,,,,,,,,54,,,,,,,,,,,,,,417.8029999988503,,response,,,,100,,,,,,,Space,keypress(Space),,,,,,,,-- --- ---- --- ------ ----- ------- ---- -- --- ------- --<br>------- ---------- bonds. -- ----- -- ----- -- ---- ------<br>--- ----- --- --- ------ -------- ----- --- ------ ----- --<br>----- ----- ---------- --- --- ------ ------ ---- -- ------<br>------- --- ------ ----- --- ---- ------- -- ---- --- --<br>------- ------,132299.6149999999,132299.22499999884,131864.027,131867.39999999918,131881.422,132313.796,,14,bonds.
screen,html.Screen,2_1_1_1_15,2021-04-28T17:05:10.978Z,,,,,,,,,,,,,,,,,54,,,,,,,,,,,,,,1248.9389999995183,,response,,,,100,,,,,,,Space,keypress(Space),,,,,,,,-- --- ---- --- ------ ----- ------- ---- -- --- ------- --<br>------- ---------- ------ In ----- -- ----- -- ---- ------<br>--- ----- --- --- ------ -------- ----- --- ------ ----- --<br>----- ----- ---------- --- --- ------ ------ ---- -- ------<br>------- --- ------ ----- --- ---- ------- -- ---- --- --<br>------- ------,133563.12500000058,133562.73499999952,132297.093,132299.68500000177,132313.796,133581.375,,15,In
screen,html.Screen,2_1_1_1_16,2021-04-28T17:05:11.314Z,,,,,,,,,,,,,,,,,54,,,,,,,,,,,,,,317.6150000015041,,response,,,,100,,,,,,,Space,keypress(Space),,,,,,,,"-- --- ---- --- ------ ----- ------- ---- -- --- ------- --<br>------- ---------- ------ -- 1727, -- ----- -- ---- ------<br>--- ----- --- --- ------ -------- ----- --- ------ ----- --<br>----- ----- ---------- --- --- ------ ------ ---- -- ------<br>------- --- ------ ----- --- ---- ------- -- ---- --- --<br>------- ------",133899.33999999994,133898.9900000015,133547.803,133563.1949999988,133581.375,133914.169,,16,"1727,"
screen,html.Screen,2_1_1_1_17,2021-04-28T17:05:11.554Z,,,,,,,,,,,,,,,,,54,,,,,,,,,,,,,,224.5609999987646,,response,,,,100,,,,,,,Space,keypress(Space),,,,,,,,-- --- ---- --- ------ ----- ------- ---- -- --- ------- --<br>------- ---------- ------ -- ----- in ----- -- ---- ------<br>--- ----- --- --- ------ -------- ----- --- ------ ----- --<br>----- ----- ---------- --- --- ------ ------ ---- -- ------<br>------- --- ------ ----- --- ---- ------- -- ---- --- --<br>------- ------,134139.10500000202,134138.72999999876,133897.566,133899.4100000018,133914.169,134147.977,,17,in
screen,html.Screen,2_1_1_1_18,2021-04-28T17:05:11.778Z,,,,,,,,,,,,,,,,,54,,,,,,,,,,,,,,214.81800000090152,,response,,,,100,,,,,,,Space,keypress(Space),,,,,,,,-- --- ---- --- ------ ----- ------- ---- -- --- ------- --<br>------- ---------- ------ -- ----- -- order -- ---- ------<br>--- ----- --- --- ------ -------- ----- --- ------ ----- --<br>----- ----- ---------- --- --- ------ ------ ---- -- ------<br>------- --- ------ ----- --- ---- ------- -- ---- --- --<br>------- ------,134363.19000000003,134362.79500000092,134131.367,134139.18000000194,134147.977,134381.766,,18,order
screen,html.Screen,2_1_1_1_19,2021-04-28T17:05:11.970Z,,,,,,,,,,,,,,,,,54,,,,,,,,,,,,,,173.05899999925168,,response,,,,100,,,,,,,Space,keypress(Space),,,,,,,,-- --- ---- --- ------ ----- ------- ---- -- --- ------- --<br>------- ---------- ------ -- ----- -- ----- to ---- ------<br>--- ----- --- --- ------ -------- ----- --- ------ ----- --<br>----- ----- ---------- --- --- ------ ------ ---- -- ------<br>------- --- ------ ----- --- ---- ------- -- ---- --- --<br>------- ------,134555.14500000208,134554.82499999925,134347.127,134363.2600000019,134381.766,134564.674,,19,to
screen,html.Screen,2_1_1_1_20,2021-04-28T17:05:12.265Z,,,,,,,,,,,,,,,,,54,,,,,,,,,,,,,,286.07099999973434,,response,,,,100,,,,,,,Space,keypress(Space),,,,,,,,-- --- ---- --- ------ ----- ------- ---- -- --- ------- --<br>------- ---------- ------ -- ----- -- ----- -- save ------<br>--- ----- --- --- ------ -------- ----- --- ------ ----- --<br>----- ----- ---------- --- --- ------ ------ ---- -- ------<br>------- --- ------ ----- --- ---- ------- -- ---- --- --<br>------- ------,134851.06499999893,134850.74499999973,134547.792,134555.21000000226,134564.674,134863.893,,20,save
screen,html.Screen,2_1_1_1_21,2021-04-28T17:05:12.530Z,,,,,,,,,,,,,,,,,54,,,,,,,,,,,,,,250.9670000014885,,response,,,,100,,,,,,,Space,keypress(Space),,,,,,,,"-- --- ---- --- ------ ----- ------- ---- -- --- ------- --<br>------- ---------- ------ -- ----- -- ----- -- ---- money,<br>--- ----- --- --- ------ -------- ----- --- ------ ----- --<br>----- ----- ---------- --- --- ------ ------ ---- -- ------<br>------- --- ------ ----- --- ---- ------- -- ---- --- --<br>------- ------",135115.25999999867,135114.8600000015,134847.428,134851.1299999991,134863.893,135131.061,,21,"money,"
screen,html.Screen,2_1_1_1_22,2021-04-28T17:05:12.954Z,,,,,,,,,,,,,,,,,54,,,,,,,,,,,,,,407.8040000022738,,response,,,,100,,,,,,,Space,keypress(Space),,,,,,,,-- --- ---- --- ------ ----- ------- ---- -- --- ------- --<br>------- ---------- ------ -- ----- -- ----- -- ---- ------<br>the ----- --- --- ------ -------- ----- --- ------ ----- --<br>----- ----- ---------- --- --- ------ ------ ---- -- ------<br>------- --- ------ ----- --- ---- ------- -- ---- --- --<br>------- ------,135539.23000000214,135538.86500000226,135114.678,135115.32499999885,135131.061,135548.106,,22,the
screen,html.Screen,2_1_1_1_23,2021-04-28T17:05:13.162Z,,,,,,,,,,,,,,,,,54,,,,,,,,,,,,,,198.67400000130874,,response,,,,100,,,,,,,Space,keypress(Space),,,,,,,,-- --- ---- --- ------ ----- ------- ---- -- --- ------- --<br>------- ---------- ------ -- ----- -- ----- -- ---- ------<br>--- state --- --- ------ -------- ----- --- ------ ----- --<br>----- ----- ---------- --- --- ------ ------ ---- -- ------<br>------- --- ------ ----- --- ---- ------- -- ---- --- --<br>------- ------,135747.1399999995,135746.7800000013,135530.514,135539.29499999867,135548.106,135764.235,,23,state
screen,html.Screen,2_1_1_1_24,2021-04-28T17:05:13.346Z,,,,,,,,,,,,,,,,,54,,,,,,,,,,,,,,166.59999999922002,,response,,,,100,,,,,,,Space,keypress(Space),,,,,,,,-- --- ---- --- ------ ----- ------- ---- -- --- ------- --<br>------- ---------- ------ -- ----- -- ----- -- ---- ------<br>--- ----- cut --- ------ -------- ----- --- ------ ----- --<br>----- ----- ---------- --- --- ------ ------ ---- -- ------<br>------- --- ------ ----- --- ---- ------- -- ---- --- --<br>------- ------,135931.20500000077,135930.8349999992,135731.007,135747.20499999967,135764.235,135947.516,,24,cut
screen,html.Screen,2_1_1_1_25,2021-04-28T17:05:13.530Z,,,,,,,,,,,,,,,,,54,,,,,,,,,,,,,,167.25900000182446,,response,,,,100,,,,,,,Space,keypress(Space),,,,,,,,-- --- ---- --- ------ ----- ------- ---- -- --- ------- --<br>------- ---------- ------ -- ----- -- ----- -- ---- ------<br>--- ----- --- the ------ -------- ----- --- ------ ----- --<br>----- ----- ---------- --- --- ------ ------ ---- -- ------<br>------- --- ------ ----- --- ---- ------- -- ---- --- --<br>------- ------,136115.135,136114.77500000183,135930.666,135931.274999999,135947.516,136131.259,,25,the
screen,html.Screen,2_1_1_1_26,2021-04-28T17:05:13.722Z,,,,,,,,,,,,,,,,,54,,,,,,,,,,,,,,175.5060000011872,,response,,,,100,,,,,,,Space,keypress(Space),,,,,,,,-- --- ---- --- ------ ----- ------- ---- -- --- ------- --<br>------- ---------- ------ -- ----- -- ----- -- ---- ------<br>--- ----- --- --- bonds' -------- ----- --- ------ ----- --<br>----- ----- ---------- --- --- ------ ------ ---- -- ------<br>------- --- ------ ----- --- ---- ------- -- ---- --- --<br>------- ------,136307.17000000004,136306.76500000118,136114.519,136115.2000000002,136131.259,136313.879,,26,bonds'
screen,html.Screen,2_1_1_1_27,2021-04-28T17:05:14.434Z,,,,,,,,,,,,,,,,,54,,,,,,,,,,,,,,704.8660000012314,,response,,,,100,,,,,,,Space,keypress(Space),,,,,,,,-- --- ---- --- ------ ----- ------- ---- -- --- ------- --<br>------- ---------- ------ -- ----- -- ----- -- ---- ------<br>--- ----- --- --- ------ interest ----- --- ------ ----- --<br>----- ----- ---------- --- --- ------ ------ ---- -- ------<br>------- --- ------ ----- --- ---- ------- -- ---- --- --<br>------- ------,137019.10000000134,137018.74500000122,136297.314,136307.2400000019,136313.879,137030.441,,27,interest
screen,html.Screen,2_1_1_1_28,2021-04-28T17:05:14.794Z,,,,,,,,,,,,,,,,,54,,,,,,,,,,,,,,348.48400000089896,,response,,,,100,,,,,,,Space,keypress(Space),,,,,,,,-- --- ---- --- ------ ----- ------- ---- -- --- ------- --<br>------- ---------- ------ -- ----- -- ----- -- ---- ------<br>--- ----- --- --- ------ -------- rate. --- ------ ----- --<br>----- ----- ---------- --- --- ------ ------ ---- -- ------<br>------- --- ------ ----- --- ---- ------- -- ---- --- --<br>------- ------,137379.28000000102,137378.9250000009,137014.554,137019.16500000152,137030.441,137381.321,,28,rate.
screen,html.Screen,2_1_1_1_29,2021-04-28T17:05:15.698Z,,,,,,,,,,,,,,,,,54,,,,,,,,,,,,,,901.9940000005881,,response,,,,100,,,,,,,Space,keypress(Space),,,,,,,,-- --- ---- --- ------ ----- ------- ---- -- --- ------- --<br>------- ---------- ------ -- ----- -- ----- -- ---- ------<br>--- ----- --- --- ------ -------- ----- The ------ ----- --<br>----- ----- ---------- --- --- ------ ------ ---- -- ------<br>------- --- ------ ----- --- ---- ------- -- ---- --- --<br>------- ------,138283.6700000007,138283.31500000058,137364.518,137379.35500000094,137381.321,138298.037,,29,The
screen,html.Screen,2_1_1_1_30,2021-04-28T17:05:15.930Z,,,,,,,,,,,,,,,,,54,,,,,,,,,,,,,,216.718000000139,,response,,,,100,,,,,,,Space,keypress(Space),,,,,,,,-- --- ---- --- ------ ----- ------- ---- -- --- ------- --<br>------- ---------- ------ -- ----- -- ----- -- ---- ------<br>--- ----- --- --- ------ -------- ----- --- market ----- --<br>----- ----- ---------- --- --- ------ ------ ---- -- ------<br>------- --- ------ ----- --- ---- ------- -- ---- --- --<br>------- ------,138515.13999999952,138514.75500000015,138281.291,138283.73999999894,138298.037,138531.246,,30,market
screen,html.Screen,2_1_1_1_31,2021-04-28T17:05:16.298Z,,,,,,,,,,,,,,,,,54,,,,,,,,,,,,,,351.5240000001504,,response,,,,100,,,,,,,Space,keypress(Space),,,,,,,,-- --- ---- --- ------ ----- ------- ---- -- --- ------- --<br>------- ---------- ------ -- ----- -- ----- -- ---- ------<br>--- ----- --- --- ------ -------- ----- --- ------ value --<br>----- ----- ---------- --- --- ------ ------ ---- -- ------<br>------- --- ------ ----- --- ---- ------- -- ---- --- --<br>------- ------,138883.15499999953,138882.77000000016,138514.092,138515.2100000014,138531.246,138897.283,,31,value
screen,html.Screen,2_1_1_1_32,2021-04-28T17:05:16.554Z,,,,,,,,,,,,,,,,,54,,,,,,,,,,,,,,241.81700000033015,,response,,,,100,,,,,,,Space,keypress(Space),,,,,,,,-- --- ---- --- ------ ----- ------- ---- -- --- ------- --<br>------- ---------- ------ -- ----- -- ----- -- ---- ------<br>--- ----- --- --- ------ -------- ----- --- ------ ----- of<br>----- ----- ---------- --- --- ------ ------ ---- -- ------<br>------- --- ------ ----- --- ---- ------- -- ---- --- --<br>------- ------,139139.4900000014,139139.10000000033,138880.87,138883.2399999992,138897.283,139147.392,,32,of
screen,html.Screen,2_1_1_1_33,2021-04-28T17:05:16.810Z,,,,,,,,,,,,,,,,,54,,,,,,,,,,,,,,247.4730000020354,,response,,,,100,,,,,,,Space,keypress(Space),,,,,,,,-- --- ---- --- ------ ----- ------- ---- -- --- ------- --<br>------- ---------- ------ -- ----- -- ----- -- ---- ------<br>--- ----- --- --- ------ -------- ----- --- ------ ----- --<br>these ----- ---------- --- --- ------ ------ ---- -- ------<br>------- --- ------ ----- --- ---- ------- -- ---- --- --<br>------- ------,139395.20999999877,139394.86500000203,139130.468,139139.55999999962,139147.392,139397.134,,33,these
screen,html.Screen,2_1_1_1_34,2021-04-28T17:05:17.042Z,,,,,,,,,,,,,,,,,54,,,,,,,,,,,,,,229.54600000122446,,response,,,,100,,,,,,,Space,keypress(Space),,,,,,,,-- --- ---- --- ------ ----- ------- ---- -- --- ------- --<br>------- ---------- ------ -- ----- -- ----- -- ---- ------<br>--- ----- --- --- ------ -------- ----- --- ------ ----- --<br>----- bonds ---------- --- --- ------ ------ ---- -- ------<br>------- --- ------ ----- --- ---- ------- -- ---- --- --<br>------- ------,139627.08500000008,139626.68000000122,139381.27,139395.2900000004,139397.134,139647.17,,34,bonds
screen,html.Screen,2_1_1_1_35,2021-04-28T17:05:17.362Z,,,,,,,,,,,,,,,,,54,,,,,,,,,,,,,,299.4849999997241,,response,,,,100,,,,,,,Space,keypress(Space),,,,,,,,"-- --- ---- --- ------ ----- ------- ---- -- --- ------- --<br>------- ---------- ------ -- ----- -- ----- -- ---- ------<br>--- ----- --- --- ------ -------- ----- --- ------ ----- --<br>----- ----- plummeted, --- --- ------ ------ ---- -- ------<br>------- --- ------ ----- --- ---- ------- -- ---- --- --<br>------- ------",139947.08000000173,139946.65499999974,139614.677,139627.1650000017,139647.17,139963.992,,35,"plummeted,"
screen,html.Screen,2_1_1_1_36,2021-04-28T17:05:17.794Z,,,,,,,,,,,,,,,,,54,,,,,,,,,,,,,,414.74300000205403,,response,,,,100,,,,,,,Space,keypress(Space),,,,,,,,-- --- ---- --- ------ ----- ------- ---- -- --- ------- --<br>------- ---------- ------ -- ----- -- ----- -- ---- ------<br>--- ----- --- --- ------ -------- ----- --- ------ ----- --<br>----- ----- ---------- and --- ------ ------ ---- -- ------<br>------- --- ------ ----- --- ---- ------- -- ---- --- --<br>------- ------,140379.12499999948,140378.73500000205,139931.187,139947.14999999997,139963.992,140381.092,,36,and
screen,html.Screen,2_1_1_1_37,2021-04-28T17:05:18.025Z,,,,,,,,,,,,,,,,,54,,,,,,,,,,,,,,229.57300000014948,,response,,,,100,,,,,,,Space,keypress(Space),,,,,,,,-- --- ---- --- ------ ----- ------- ---- -- --- ------- --<br>------- ---------- ------ -- ----- -- ----- -- ---- ------<br>--- ----- --- --- ------ -------- ----- --- ------ ----- --<br>----- ----- ---------- --- the ------ ------ ---- -- ------<br>------- --- ------ ----- --- ---- ------- -- ---- --- --<br>------- ------,140611.0750000007,140610.66500000015,140364.733,140379.18999999965,140381.092,140631.248,,37,the
screen,html.Screen,2_1_1_1_38,2021-04-28T17:05:18.226Z,,,,,,,,,,,,,,,,,54,,,,,,,,,,,,,,179.5719999987923,,response,,,,100,,,,,,,Space,keypress(Space),,,,,,,,-- --- ---- --- ------ ----- ------- ---- -- --- ------- --<br>------- ---------- ------ -- ----- -- ----- -- ---- ------<br>--- ----- --- --- ------ -------- ----- --- ------ ----- --<br>----- ----- ---------- --- --- market ------ ---- -- ------<br>------- --- ------ ----- --- ---- ------- -- ---- --- --<br>------- ------,140811.1749999989,140810.81999999878,140597.54,140611.16500000207,140631.248,140813.958,,38,market
screen,html.Screen,2_1_1_1_39,2021-04-28T17:05:18.626Z,,,,,,,,,,,,,,,,,54,,,,,,,,,,,,,,396.887000001414,,response,,,,100,,,,,,,Space,keypress(Space),,,,,,,,-- --- ---- --- ------ ----- ------- ---- -- --- ------- --<br>------- ---------- ------ -- ----- -- ----- -- ---- ------<br>--- ----- --- --- ------ -------- ----- --- ------ ----- --<br>----- ----- ---------- --- --- ------ became ---- -- ------<br>------- --- ------ ----- --- ---- ------- -- ---- --- --<br>------- ------,141211.19499999986,141210.84500000143,140797.097,140811.24999999884,140813.958,141214.637,,39,became
screen,html.Screen,2_1_1_1_40,2021-04-28T17:05:18.850Z,,,,,,,,,,,,,,,,,54,,,,,,,,,,,,,,220.25300000046263,,response,,,,100,,,,,,,Space,keypress(Space),,,,,,,,-- --- ---- --- ------ ----- ------- ---- -- --- ------- --<br>------- ---------- ------ -- ----- -- ----- -- ---- ------<br>--- ----- --- --- ------ -------- ----- --- ------ ----- --<br>----- ----- ---------- --- --- ------ ------ wary -- ------<br>------- --- ------ ----- --- ---- ------- -- ---- --- --<br>------- ------,141435.2199999994,141434.89000000045,141197.634,141211.26500000173,141214.637,141447.88,,40,wary
screen,html.Screen,2_1_1_1_41,2021-04-28T17:05:19.090Z,,,,,,,,,,,,,,,,,54,,,,,,,,,,,,,,226.955000001617,,response,,,,100,,,,,,,Space,keypress(Space),,,,,,,,-- --- ---- --- ------ ----- ------- ---- -- --- ------- --<br>------- ---------- ------ -- ----- -- ----- -- ---- ------<br>--- ----- --- --- ------ -------- ----- --- ------ ----- --<br>----- ----- ---------- --- --- ------ ------ ---- of ------<br>------- --- ------ ----- --- ---- ------- -- ---- --- --<br>------- ------,141675.23000000074,141674.83500000162,141430.678,141435.29000000126,141447.88,141680.507,,41,of
screen,html.Screen,2_1_1_1_42,2021-04-28T17:05:19.354Z,,,,,,,,,,,,,,,,,54,,,,,,,,,,,,,,258.23799999945913,,response,,,,100,,,,,,,Space,keypress(Space),,,,,,,,-- --- ---- --- ------ ----- ------- ---- -- --- ------- --<br>------- ---------- ------ -- ----- -- ----- -- ---- ------<br>--- ----- --- --- ------ -------- ----- --- ------ ----- --<br>----- ----- ---------- --- --- ------ ------ ---- -- French<br>------- --- ------ ----- --- ---- ------- -- ---- --- --<br>------- ------,141939.07500000205,141938.74499999947,141664.273,141675.29999999897,141680.507,141947.966,,42,French
screen,html.Screen,2_1_1_1_43,2021-04-28T17:05:19.818Z,,,,,,,,,,,,,,,,,54,,,,,,,,,,,,,,454.7339999987453,,response,,,,100,,,,,,,Space,keypress(Space),,,,,,,,-- --- ---- --- ------ ----- ------- ---- -- --- ------- --<br>------- ---------- ------ -- ----- -- ----- -- ---- ------<br>--- ----- --- --- ------ -------- ----- --- ------ ----- --<br>----- ----- ---------- --- --- ------ ------ ---- -- ------<br>credit. --- ------ ----- --- ---- ------- -- ---- --- --<br>------- ------,142403.08000000005,142402.69999999873,141931.12,141939.15000000197,141947.966,142414.291,,43,credit.
screen,html.Screen,2_1_1_1_44,2021-04-28T17:05:20.226Z,,,,,,,,,,,,,,,,,54,,,,,,,,,,,,,,396.6190000001516,,response,,,,100,,,,,,,Space,keypress(Space),,,,,,,,-- --- ---- --- ------ ----- ------- ---- -- --- ------- --<br>------- ---------- ------ -- ----- -- ----- -- ---- ------<br>--- ----- --- --- ------ -------- ----- --- ------ ----- --<br>----- ----- ---------- --- --- ------ ------ ---- -- ------<br>------- The ------ ----- --- ---- ------- -- ---- --- --<br>------- ------,142811.26000000222,142810.91000000015,142397.747,142403.15000000192,142414.291,142814.103,,44,The
screen,html.Screen,2_1_1_1_45,2021-04-28T17:05:20.418Z,,,,,,,,,,,,,,,,,54,,,,,,,,,,,,,,188.65699999939534,,response,,,,100,,,,,,,Space,keypress(Space),,,,,,,,-- --- ---- --- ------ ----- ------- ---- -- --- ------- --<br>------- ---------- ------ -- ----- -- ----- -- ---- ------<br>--- ----- --- --- ------ -------- ----- --- ------ ----- --<br>----- ----- ---------- --- --- ------ ------ ---- -- ------<br>------- --- French ----- --- ---- ------- -- ---- --- --<br>------- ------,143003.2050000009,143002.7599999994,142797.075,142811.32499999876,142814.103,143014.533,,45,French
screen,html.Screen,2_1_1_1_46,2021-04-28T17:05:20.586Z,,,,,,,,,,,,,,,,,54,,,,,,,,,,,,,,156.20700000139186,,response,,,,100,,,,,,,Space,keypress(Space),,,,,,,,-- --- ---- --- ------ ----- ------- ---- -- --- ------- --<br>------- ---------- ------ -- ----- -- ----- -- ---- ------<br>--- ----- --- --- ------ -------- ----- --- ------ ----- --<br>----- ----- ---------- --- --- ------ ------ ---- -- ------<br>------- --- ------ state --- ---- ------- -- ---- --- --<br>------- ------,143171.08999999982,143170.7400000014,142997.605,143003.2800000008,143014.533,143180.456,,46,state
screen,html.Screen,2_1_1_1_47,2021-04-28T17:05:20.922Z,,,,,,,,,,,,,,,,,54,,,,,,,,,,,,,,326.34399999919697,,response,,,,100,,,,,,,Space,keypress(Space),,,,,,,,-- --- ---- --- ------ ----- ------- ---- -- --- ------- --<br>------- ---------- ------ -- ----- -- ----- -- ---- ------<br>--- ----- --- --- ------ -------- ----- --- ------ ----- --<br>----- ----- ---------- --- --- ------ ------ ---- -- ------<br>------- --- ------ ----- was ---- ------- -- ---- --- --<br>------- ------,143507.20999999976,143506.7999999992,143164.499,143171.155,143180.456,143514.866,,47,was
screen,html.Screen,2_1_1_1_48,2021-04-28T17:05:21.098Z,,,,,,,,,,,,,,,,,54,,,,,,,,,,,,,,168.00900000223191,,response,,,,100,,,,,,,Space,keypress(Space),,,,,,,,-- --- ---- --- ------ ----- ------- ---- -- --- ------- --<br>------- ---------- ------ -- ----- -- ----- -- ---- ------<br>--- ----- --- --- ------ -------- ----- --- ------ ----- --<br>----- ----- ---------- --- --- ------ ------ ---- -- ------<br>------- --- ------ ----- --- left ------- -- ---- --- --<br>------- ------,143683.25000000186,143682.87500000224,143497.127,143507.27499999994,143514.866,143697.479,,48,left
screen,html.Screen,2_1_1_1_49,2021-04-28T17:05:21.322Z,,,,,,,,,,,,,,,,,54,,,,,,,,,,,,,,209.24600000074133,,response,,,,100,,,,,,,Space,keypress(Space),,,,,,,,-- --- ---- --- ------ ----- ------- ---- -- --- ------- --<br>------- ---------- ------ -- ----- -- ----- -- ---- ------<br>--- ----- --- --- ------ -------- ----- --- ------ ----- --<br>----- ----- ---------- --- --- ------ ------ ---- -- ------<br>------- --- ------ ----- --- ---- without -- ---- --- --<br>------- ------,143907.18000000197,143906.72500000073,143681.247,143683.3250000018,143697.479,143914.685,,49,without
screen,html.Screen,2_1_1_1_50,2021-04-28T17:05:21.610Z,,,,,,,,,,,,,,,,,54,,,,,,,,,,,,,,280.1399999986752,,response,,,,100,,,,,,,Space,keypress(Space),,,,,,,,-- --- ---- --- ------ ----- ------- ---- -- --- ------- --<br>------- ---------- ------ -- ----- -- ----- -- ---- ------<br>--- ----- --- --- ------ -------- ----- --- ------ ----- --<br>----- ----- ---------- --- --- ------ ------ ---- -- ------<br>------- --- ------ ----- --- ---- ------- an ---- --- --<br>------- ------,144195.205,144194.82499999867,143897.697,143907.2550000019,143914.685,144214.324,,50,an
screen,html.Screen,2_1_1_1_51,2021-04-28T17:05:21.842Z,,,,,,,,,,,,,,,,,54,,,,,,,,,,,,,,212.58100000026752,,response,,,,100,,,,,,,Space,keypress(Space),,,,,,,,-- --- ---- --- ------ ----- ------- ---- -- --- ------- --<br>------- ---------- ------ -- ----- -- ----- -- ---- ------<br>--- ----- --- --- ------ -------- ----- --- ------ ----- --<br>----- ----- ---------- --- --- ------ ------ ---- -- ------<br>------- --- ------ ----- --- ---- ------- -- easy --- --<br>------- ------,144427.3350000003,144426.90500000026,144197.259,144195.27500000186,144214.324,144447.755,,51,easy
screen,html.Screen,2_1_1_1_52,2021-04-28T17:05:22.226Z,,,,,,,,,,,,,,,,,54,,,,,,,,,,,,,,363.06000000072527,,response,,,,100,,,,,,,Space,keypress(Space),,,,,,,,-- --- ---- --- ------ ----- ------- ---- -- --- ------- --<br>------- ---------- ------ -- ----- -- ----- -- ---- ------<br>--- ----- --- --- ------ -------- ----- --- ------ ----- --<br>----- ----- ---------- --- --- ------ ------ ---- -- ------<br>------- --- ------ ----- --- ---- ------- -- ---- way --<br>------- ------,144811.2000000001,144810.81500000073,144431.272,144427.41000000024,144447.755,144814.869,,52,way
screen,html.Screen,2_1_1_1_53,2021-04-28T17:05:22.626Z,,,,,,,,,,,,,,,,,54,,,,,,,,,,,,,,395.9259999990463,,response,,,,100,,,,,,,Space,keypress(Space),,,,,,,,-- --- ---- --- ------ ----- ------- ---- -- --- ------- --<br>------- ---------- ------ -- ----- -- ----- -- ---- ------<br>--- ----- --- --- ------ -------- ----- --- ------ ----- --<br>----- ----- ---------- --- --- ------ ------ ---- -- ------<br>------- --- ------ ----- --- ---- ------- -- ---- --- of<br>------- ------,145211.11500000188,145210.79499999905,144798.017,144811.27500000002,144814.869,145230.4,,53,of
screen,html.Screen,2_1_1_1_54,2021-04-28T17:05:22.954Z,,,,,,,,,,,,,,,,,54,,,,,,,,,,,,,,308.3850000006496,,response,,,,100,,,,,,,Space,keypress(Space),,,,,,,,-- --- ---- --- ------ ----- ------- ---- -- --- ------- --<br>------- ---------- ------ -- ----- -- ----- -- ---- ------<br>--- ----- --- --- ------ -------- ----- --- ------ ----- --<br>----- ----- ---------- --- --- ------ ------ ---- -- ------<br>------- --- ------ ----- --- ---- ------- -- ---- --- --<br>raising ------,145539.11000000153,145538.78500000064,145213.969,145211.1850000001,145230.4,145564.59,,54,raising
screen,html.Screen,2_1_1_1_55,2021-04-28T17:05:23.306Z,,,,,,,,,,,,,,,,,54,,,,,,,,,,,,,,326.32000000189873,,response,,,,100,,,,,,,Space,keypress(Space),,,,,,,,-- --- ---- --- ------ ----- ------- ---- -- --- ------- --<br>------- ---------- ------ -- ----- -- ----- -- ---- ------<br>--- ----- --- --- ------ -------- ----- --- ------ ----- --<br>----- ----- ---------- --- --- ------ ------ ---- -- ------<br>------- --- ------ ----- --- ---- ------- -- ---- --- --<br>------- money.,145891.384999999,145890.9100000019,145547.562,145539.18500000145,145564.59,145914.582,,55,money.
Item 100,flow.Loop,2_1_1_1,2021-04-28T17:05:23.306Z,,,,,,,,,,,,,,,,,,,,,,,,,,,,,,,19459.6540000019,,completion,,,,,B,,,,,,,,,,,silence,,,,,145891.52000000104,145890.9100000019,126414.322,126414.7950000006,126431.256,145914.582,,,
Question 1,html.Screen,2_1_1_2,2021-04-28T17:05:24.945Z,,,,,,,,,,,,,,,,,,,,,,,,,,,,true,TRUE,,1615.9029999993218,,response,,,,100,B,,,,,,TRUE,click #choice-1,,,,silence,,,,,147530.9500000003,147530.48499999932,145897.607,145891.57500000147,145914.582,147563.922,,,
Question 2,html.Screen,2_1_1_3,2021-04-28T17:05:26.714Z,,,,,,,,,,,,,,,,,,,,,,,,,,,,true,FALSE,,1734.6530000007187,,response,,,,100,B,,,,,,FALSE,click #choice-2,,,,silence,,,,,149299.13999999917,149298.5750000007,147547.862,147531.02500000023,147563.922,149313.869,,,
Item 100,flow.Sequence,2_1_1,2021-04-28T17:05:26.714Z,,,,,,,,,,,,,,,,,,,,,,,,,,,,,,,32867.36000000071,,completion,,,,,,,,,,,,,,,,,,,,,149299.25999999978,149298.5750000007,116414.407,116427.21000000165,116431.215,149313.869,,,
End of Practice,html.Page,2_1_2,2021-04-28T17:05:28.890Z,,,,,,,,,,,,,,,,,,,,,,,,,,,,,,,2161.3560000019497,,form submission,,,,,,,,,,,,,,,,,,,,,151475.36500000206,151475.22500000196,149297.471,149299.31000000215,149313.869,151497.341,,,
Practice,flow.Sequence,2_1,2021-04-28T17:05:28.890Z,,,,,,,,,,,,,,,,,,,,,,,,,,,,,,,67627.96600000195,,completion,,,,,,,,,,,,,,,,,,,,,151475.47499999928,151475.22500000196,83830.986,83835.50000000105,83847.259,151497.341,,,
Trap_instruction,html.Page,2_2_0,2021-04-28T17:05:30.618Z,,,,,,,,,,,,,,,,,,,,,,,,,,,,,,,1705.6290000021108,,form submission,,,,,,,,,,,,,,,,,,,,,153203.085000001,153202.9700000021,151480.393,151475.5499999992,151497.341,153214.592,,,
trap_trial,html.Screen,2_2_1,2021-04-28T17:05:34.018Z,,,,,,,,,,,,,,,,,,,,,,,,,,,,true,1,,3387.9779999991006,,response,,,,,,,,,,,1,click #choice-1,,,,,,,,,156603.11000000002,156602.5699999991,153197.669,153203.1500000012,153214.592,156630.986,,,
end of trap trial,html.Page,2_2_2,2021-04-28T17:05:35.610Z,,,,,,,,,,,,,,,,,,,,,,,,,,,,,,,1564.069000000134,,form submission,,,,,,,,,,,,,,,,,,,,,158195.20000000193,158195.05500000014,156614.294,156603.18000000188,156630.986,158197.947,,,
Trap 1,flow.Sequence,2_2,2021-04-28T17:05:35.610Z,,,,,,,,,,,,,,,,,,,,,,,,,,,,,,,6697.714000000153,,completion,,,,,,,,,,,,,,,,,,,,,158195.3050000011,158195.05500000014,151480.393,151475.5299999997,151497.341,158197.947,,,
Standby,html.Page,2_3_0,2021-04-28T17:05:43.597Z,,,,,,,,,,,,,,,,,,,,,,,,,,,,,,,7999.140000000014,,timeout,,,,,,,,,,,,,,,,,,,,,166182.15500000224,166180.801,158180.917,158195.37499999933,158197.947,166197.087,,,
Holding screen,html.Screen,2_3_1_0_0,2021-04-28T17:05:50.596Z,,,,,,,,,,,,,,,,,,,,,,,,,,,,,,,7000.113000000012,,timeout,,,,,,,,,,,,,,,,,,,,,173181.5999999999,173181.281,166180.801,166182.2600000014,166197.087,173197.2,,,
screen,html.Screen,2_3_1_0_1_0,2021-04-28T17:05:51.234Z,,,,,,,,,,,,,,,,,15,,,,,,,,,,,,,,622.275000000227,,response,,,,7,B,,,,,,Space,keypress(Space),,,,lyrical,,,,Greg --------- ---------- - --- ------- -- --- ------------<br>----- -- -------- ------- ---- ------ - -------- ---- -----<br>--- ------- ---- -- --- -------- --- - ----- ------ ---- --<br>-------- --- -------- -------- --- -------- ---- -- ----- -<br>-------- ---- --- ---------- --------- -- ------- ------ -<br>--------- ----- -----,173819.8799999991,173819.47500000024,173181.281,173181.71000000075,173197.2,173831.308,,0,Greg
screen,html.Screen,2_3_1_0_1_1,2021-04-28T17:05:51.610Z,,,,,,,,,,,,,,,,,15,,,,,,,,,,,,,,363.5819999988598,,response,,,,7,B,,,,,,Space,keypress(Space),,,,lyrical,,,,"---- Anderson, ---------- - --- ------- -- --- ------------<br>----- -- -------- ------- ---- ------ - -------- ---- -----<br>--- ------- ---- -- --- -------- --- - ----- ------ ---- --<br>-------- --- -------- -------- --- -------- ---- -- ----- -<br>-------- ---- --- ---------- --------- -- ------- ------ -<br>--------- ----- -----",174195.3250000006,174194.88999999885,173814.485,173819.95499999903,173831.308,174197.096,,1,"Anderson,"
screen,html.Screen,2_3_1_0_1_2,2021-04-28T17:05:51.882Z,,,,,,,,,,,,,,,,,15,,,,,,,,,,,,,,270.01899999947636,,response,,,,7,B,,,,,,Space,keypress(Space),,,,lyrical,,,,---- --------- considered - --- ------- -- --- ------------<br>----- -- -------- ------- ---- ------ - -------- ---- -----<br>--- ------- ---- -- --- -------- --- - ----- ------ ---- --<br>-------- --- -------- -------- --- -------- ---- -- ----- -<br>-------- ---- --- ---------- --------- -- ------- ------ -<br>--------- ----- -----,174467.48500000103,174467.11499999947,174180.926,174195.39499999883,174197.096,174480.819,,2,considered
screen,html.Screen,2_3_1_0_1_3,2021-04-28T17:05:52.122Z,,,,,,,,,,,,,,,,,15,,,,,,,,,,,,,,226.13099999979022,,response,,,,7,B,,,,,,Space,keypress(Space),,,,lyrical,,,,---- --------- ---------- a --- ------- -- --- ------------<br>----- -- -------- ------- ---- ------ - -------- ---- -----<br>--- ------- ---- -- --- -------- --- - ----- ------ ---- --<br>-------- --- -------- -------- --- -------- ---- -- ----- -<br>-------- ---- --- ---------- --------- -- ------- ------ -<br>--------- ----- -----,174707.32000000135,174706.94999999978,174464.19,174467.5500000012,174480.819,174714.125,,3,a
screen,html.Screen,2_3_1_0_1_4,2021-04-28T17:05:52.329Z,,,,,,,,,,,,,,,,,15,,,,,,,,,,,,,,200.52499999880092,,response,,,,7,B,,,,,,Space,keypress(Space),,,,lyrical,,,,---- --------- ---------- - key ------- -- --- ------------<br>----- -- -------- ------- ---- ------ - -------- ---- -----<br>--- ------- ---- -- --- -------- --- - ----- ------ ---- --<br>-------- --- -------- -------- --- -------- ---- -- ----- -<br>-------- ---- --- ---------- --------- -- ------- ------ -<br>--------- ----- -----,174914.9749999997,174914.6499999988,174697.199,174707.38500000152,174714.125,174930.946,,4,key
screen,html.Screen,2_3_1_0_1_5,2021-04-28T17:05:52.530Z,,,,,,,,,,,,,,,,,15,,,,,,,,,,,,,,183.7640000016545,,response,,,,7,B,,,,,,Space,keypress(Space),,,,lyrical,,,,---- --------- ---------- - --- witness -- --- ------------<br>----- -- -------- ------- ---- ------ - -------- ---- -----<br>--- ------- ---- -- --- -------- --- - ----- ------ ---- --<br>-------- --- -------- -------- --- -------- ---- -- ----- -<br>-------- ---- --- ---------- --------- -- ------- ------ -<br>--------- ----- -----,175115.08999999933,175114.71000000165,174914.582,174915.04500000156,174930.946,175130.454,,5,witness
screen,html.Screen,2_3_1_0_1_6,2021-04-28T17:05:52.769Z,,,,,,,,,,,,,,,,,15,,,,,,,,,,,,,,224.19099999943865,,response,,,,7,B,,,,,,Space,keypress(Space),,,,lyrical,,,,---- --------- ---------- - --- ------- by --- ------------<br>----- -- -------- ------- ---- ------ - -------- ---- -----<br>--- ------- ---- -- --- -------- --- - ----- ------ ---- --<br>-------- --- -------- -------- --- -------- ---- -- ----- -<br>-------- ---- --- ---------- --------- -- ------- ------ -<br>--------- ----- -----,175355.07000000143,175354.64499999944,175114.605,175115.1600000012,175130.454,175364.001,,6,by
screen,html.Screen,2_3_1_0_1_7,2021-04-28T17:05:53.034Z,,,,,,,,,,,,,,,,,15,,,,,,,,,,,,,,254.8340000011376,,response,,,,7,B,,,,,,Space,keypress(Space),,,,lyrical,,,,---- --------- ---------- - --- ------- -- the ------------<br>----- -- -------- ------- ---- ------ - -------- ---- -----<br>--- ------- ---- -- --- -------- --- - ----- ------ ---- --<br>-------- --- -------- -------- --- -------- ---- -- ----- -<br>-------- ---- --- ---------- --------- -- ------- ------ -<br>--------- ----- -----,175619.17000000176,175618.83500000113,175347.802,175355.14500000136,175364.001,175631.053,,7,the
screen,html.Screen,2_3_1_0_1_8,2021-04-28T17:05:53.234Z,,,,,,,,,,,,,,,,,15,,,,,,,,,,,,,,187.7219999997178,,response,,,,7,B,,,,,,Space,keypress(Space),,,,lyrical,,,,"---- --------- ---------- - --- ------- -- --- prosecution,<br>----- -- -------- ------- ---- ------ - -------- ---- -----<br>--- ------- ---- -- --- -------- --- - ----- ------ ---- --<br>-------- --- -------- -------- --- -------- ---- -- ----- -<br>-------- ---- --- ---------- --------- -- ------- ------ -<br>--------- ----- -----",175819.12999999986,175818.77499999973,175614.049,175619.23500000194,175631.053,175830.795,,8,"prosecution,"
screen,html.Screen,2_3_1_0_1_9,2021-04-28T17:05:53.754Z,,,,,,,,,,,,,,,,,15,,,,,,,,,,,,,,507.9400000011665,,response,,,,7,B,,,,,,Space,keypress(Space),,,,lyrical,,,,---- --------- ---------- - --- ------- -- --- ------------<br>vowed -- -------- ------- ---- ------ - -------- ---- -----<br>--- ------- ---- -- --- -------- --- - ----- ------ ---- --<br>-------- --- -------- -------- --- -------- ---- -- ----- -<br>-------- ---- --- ---------- --------- -- ------- ------ -<br>--------- ----- -----,176339.14000000004,176338.73500000118,175814.582,175819.19500000004,175830.795,176347.295,,9,vowed
screen,html.Screen,2_3_1_0_1_10,2021-04-28T17:05:53.946Z,,,,,,,,,,,,,,,,,15,,,,,,,,,,,,,,183.45000000001164,,response,,,,7,B,,,,,,Space,keypress(Space),,,,lyrical,,,,---- --------- ---------- - --- ------- -- --- ------------<br>----- he -------- ------- ---- ------ - -------- ---- -----<br>--- ------- ---- -- --- -------- --- - ----- ------ ---- --<br>-------- --- -------- -------- --- -------- ---- -- ----- -<br>-------- ---- --- ---------- --------- -- ------- ------ -<br>--------- ----- -----,176531.08000000066,176530.74500000002,176330.571,176339.20500000022,176347.295,176547.139,,10,he
screen,html.Screen,2_3_1_0_1_11,2021-04-28T17:05:54.146Z,,,,,,,,,,,,,,,,,15,,,,,,,,,,,,,,183.66599999924074,,response,,,,7,B,,,,,,Space,keypress(Space),,,,lyrical,,,,---- --------- ---------- - --- ------- -- --- ------------<br>----- -- wouldn't ------- ---- ------ - -------- ---- -----<br>--- ------- ---- -- --- -------- --- - ----- ------ ---- --<br>-------- --- -------- -------- --- -------- ---- -- ----- -<br>-------- ---- --- ---------- --------- -- ------- ------ -<br>--------- ----- -----,176731.1699999991,176730.80499999924,176530.974,176531.14500000083,176547.139,176747.171,,11,wouldn't
screen,html.Screen,2_3_1_0_1_12,2021-04-28T17:05:54.338Z,,,,,,,,,,,,,,,,,15,,,,,,,,,,,,,,175.69400000045425,,response,,,,7,B,,,,,,Space,keypress(Space),,,,lyrical,,,,---- --------- ---------- - --- ------- -- --- ------------<br>----- -- -------- testify ---- ------ - -------- ---- -----<br>--- ------- ---- -- --- -------- --- - ----- ------ ---- --<br>-------- --- -------- -------- --- -------- ---- -- ----- -<br>-------- ---- --- ---------- --------- -- ------- ------ -<br>--------- ----- -----,176923.24000000008,176922.86500000046,176731.335,176731.2349999993,176747.171,176930.743,,12,testify
screen,html.Screen,2_3_1_0_1_13,2021-04-28T17:05:54.530Z,,,,,,,,,,,,,,,,,15,,,,,,,,,,,,,,184.04699999964214,,response,,,,7,B,,,,,,Space,keypress(Space),,,,lyrical,,,,---- --------- ---------- - --- ------- -- --- ------------<br>----- -- -------- ------- when ------ - -------- ---- -----<br>--- ------- ---- -- --- -------- --- - ----- ------ ---- --<br>-------- --- -------- -------- --- -------- ---- -- ----- -<br>-------- ---- --- ---------- --------- -- ------- ------ -<br>--------- ----- -----,177115.17000000094,177114.78999999963,176914.399,176923.31000000195,176930.743,177130.837,,13,when
screen,html.Screen,2_3_1_0_1_14,2021-04-28T17:05:54.730Z,,,,,,,,,,,,,,,,,15,,,,,,,,,,,,,,183.8979999999283,,response,,,,7,B,,,,,,Space,keypress(Space),,,,lyrical,,,,---- --------- ---------- - --- ------- -- --- ------------<br>----- -- -------- ------- ---- served - -------- ---- -----<br>--- ------- ---- -- --- -------- --- - ----- ------ ---- --<br>-------- --- -------- -------- --- -------- ---- -- ----- -<br>-------- ---- --- ---------- --------- -- ------- ------ -<br>--------- ----- -----,177315.12999999904,177314.73499999993,177113.951,177115.23999999918,177130.837,177331.265,,14,served
screen,html.Screen,2_3_1_0_1_15,2021-04-28T17:05:55.226Z,,,,,,,,,,,,,,,,,15,,,,,,,,,,,,,,479.50000000197906,,response,,,,7,B,,,,,,Space,keypress(Space),,,,lyrical,,,,---- --------- ---------- - --- ------- -- --- ------------<br>----- -- -------- ------- ---- ------ a -------- ---- -----<br>--- ------- ---- -- --- -------- --- - ----- ------ ---- --<br>-------- --- -------- -------- --- -------- ---- -- ----- -<br>-------- ---- --- ---------- --------- -- ------- ------ -<br>--------- ----- -----,177811.14499999967,177810.765000002,177314.119,177315.2000000009,177331.265,177813.971,,15,a
screen,html.Screen,2_3_1_0_1_16,2021-04-28T17:05:55.538Z,,,,,,,,,,,,,,,,,15,,,,,,,,,,,,,,309.08900000172434,,response,,,,7,B,,,,,,Space,keypress(Space),,,,lyrical,,,,---- --------- ---------- - --- ------- -- --- ------------<br>----- -- -------- ------- ---- ------ - subpoena ---- -----<br>--- ------- ---- -- --- -------- --- - ----- ------ ---- --<br>-------- --- -------- -------- --- -------- ---- -- ----- -<br>-------- ---- --- ---------- --------- -- ------- ------ -<br>--------- ----- -----,178123.46500000058,178123.06000000171,177797.401,177811.21500000154,177813.971,178131.43,,16,subpoena
screen,html.Screen,2_3_1_0_1_17,2021-04-28T17:05:56.170Z,,,,,,,,,,,,,,,,,15,,,,,,,,,,,,,,623.3100000003178,,response,,,,7,B,,,,,,Space,keypress(Space),,,,lyrical,,,,---- --------- ---------- - --- ------- -- --- ------------<br>----- -- -------- ------- ---- ------ - -------- last -----<br>--- ------- ---- -- --- -------- --- - ----- ------ ---- --<br>-------- --- -------- -------- --- -------- ---- -- ----- -<br>-------- ---- --- ---------- --------- -- ------- ------ -<br>--------- ----- -----,178755.16499999867,178754.7400000003,178113.856,178123.5349999988,178131.43,178764.686,,17,last
screen,html.Screen,2_3_1_0_1_18,2021-04-28T17:05:56.482Z,,,,,,,,,,,,,,,,,15,,,,,,,,,,,,,,302.0239999991609,,response,,,,7,B,,,,,,Space,keypress(Space),,,,lyrical,,,,---- --------- ---------- - --- ------- -- --- ------------<br>----- -- -------- ------- ---- ------ - -------- ---- week.<br>--- ------- ---- -- --- -------- --- - ----- ------ ---- --<br>-------- --- -------- -------- --- -------- ---- -- ----- -<br>-------- ---- --- ---------- --------- -- ------- ------ -<br>--------- ----- -----,179067.09500000215,179066.70999999915,178747.411,178755.23500000054,178764.686,179080.955,,18,week.
screen,html.Screen,2_3_1_0_1_19,2021-04-28T17:05:57.090Z,,,,,,,,,,,,,,,,,15,,,,,,,,,,,,,,593.8299999992596,,response,,,,7,B,,,,,,Space,keypress(Space),,,,lyrical,,,,---- --------- ---------- - --- ------- -- --- ------------<br>----- -- -------- ------- ---- ------ - -------- ---- -----<br>His ------- ---- -- --- -------- --- - ----- ------ ---- --<br>-------- --- -------- -------- --- -------- ---- -- ----- -<br>-------- ---- --- ---------- --------- -- ------- ------ -<br>--------- ----- -----,179675.14999999912,179674.78499999925,179063.766,179067.1650000004,179080.955,179680.661,,19,His
screen,html.Screen,2_3_1_0_1_20,2021-04-28T17:05:57.281Z,,,,,,,,,,,,,,,,,15,,,,,,,,,,,,,,185.96399999875575,,response,,,,7,B,,,,,,Space,keypress(Space),,,,lyrical,,,,---- --------- ---------- - --- ------- -- --- ------------<br>----- -- -------- ------- ---- ------ - -------- ---- -----<br>--- lawyers ---- -- --- -------- --- - ----- ------ ---- --<br>-------- --- -------- -------- --- -------- ---- -- ----- -<br>-------- ---- --- ---------- --------- -- ------- ------ -<br>--------- ----- -----,179866.99000000226,179866.62499999875,179663.783,179675.2149999993,179680.661,179880.84,,20,lawyers
screen,html.Screen,2_3_1_0_1_21,2021-04-28T17:05:57.490Z,,,,,,,,,,,,,,,,,15,,,,,,,,,,,,,,193.984999999695,,response,,,,7,B,,,,,,Space,keypress(Space),,,,lyrical,,,,---- --------- ---------- - --- ------- -- --- ------------<br>----- -- -------- ------- ---- ------ - -------- ---- -----<br>--- ------- said -- --- -------- --- - ----- ------ ---- --<br>-------- --- -------- -------- --- -------- ---- -- ----- -<br>-------- ---- --- ---------- --------- -- ------- ------ -<br>--------- ----- -----,180075.21500000075,180074.8249999997,179864.122,179867.0549999988,179880.84,180080.891,,21,said
screen,html.Screen,2_3_1_0_1_22,2021-04-28T17:05:57.754Z,,,,,,,,,,,,,,,,,15,,,,,,,,,,,,,,258.05399999950896,,response,,,,7,B,,,,,,Space,keypress(Space),,,,lyrical,,,,---- --------- ---------- - --- ------- -- --- ------------<br>----- -- -------- ------- ---- ------ - -------- ---- -----<br>--- ------- ---- he --- -------- --- - ----- ------ ---- --<br>-------- --- -------- -------- --- -------- ---- -- ----- -<br>-------- ---- --- ---------- --------- -- ------- ------ -<br>--------- ----- -----,180339.4049999988,180338.9449999995,180064.29,180075.28000000093,180080.891,180347.878,,22,he
screen,html.Screen,2_3_1_0_1_23,2021-04-28T17:05:57.930Z,,,,,,,,,,,,,,,,,15,,,,,,,,,,,,,,166.9619999998249,,response,,,,7,B,,,,,,Space,keypress(Space),,,,lyrical,,,,---- --------- ---------- - --- ------- -- --- ------------<br>----- -- -------- ------- ---- ------ - -------- ---- -----<br>--- ------- ---- -- was -------- --- - ----- ------ ---- --<br>-------- --- -------- -------- --- -------- ---- -- ----- -<br>-------- ---- --- ---------- --------- -- ------- ------ -<br>--------- ----- -----,180515.23000000088,180514.83999999982,180330.454,180339.50499999992,180347.878,180530.906,,23,was
screen,html.Screen,2_3_1_0_1_24,2021-04-28T17:05:58.106Z,,,,,,,,,,,,,,,,,15,,,,,,,,,,,,,,159.99400000143214,,response,,,,7,B,,,,,,Space,keypress(Space),,,,lyrical,,,,---- --------- ---------- - --- ------- -- --- ------------<br>----- -- -------- ------- ---- ------ - -------- ---- -----<br>--- ------- ---- -- --- prepared --- - ----- ------ ---- --<br>-------- --- -------- -------- --- -------- ---- -- ----- -<br>-------- ---- --- ---------- --------- -- ------- ------ -<br>--------- ----- -----,180691.31000000198,180690.90000000142,180514.831,180515.29999999912,180530.906,180697.806,,24,prepared
screen,html.Screen,2_3_1_0_1_25,2021-04-28T17:05:58.338Z,,,,,,,,,,,,,,,,,15,,,,,,,,,,,,,,224.88900000110152,,response,,,,7,B,,,,,,Space,keypress(Space),,,,lyrical,,,,---- --------- ---------- - --- ------- -- --- ------------<br>----- -- -------- ------- ---- ------ - -------- ---- -----<br>--- ------- ---- -- --- -------- for - ----- ------ ---- --<br>-------- --- -------- -------- --- -------- ---- -- ----- -<br>-------- ---- --- ---------- --------- -- ------- ------ -<br>--------- ----- -----,180923.09500000192,180922.6950000011,180680.505,180691.3800000002,180697.806,180931.144,,25,for
screen,html.Screen,2_3_1_0_1_26,2021-04-28T17:05:58.538Z,,,,,,,,,,,,,,,,,15,,,,,,,,,,,,,,191.82600000035018,,response,,,,7,B,,,,,,Space,keypress(Space),,,,lyrical,,,,---- --------- ---------- - --- ------- -- --- ------------<br>----- -- -------- ------- ---- ------ - -------- ---- -----<br>--- ------- ---- -- --- -------- --- a ----- ------ ---- --<br>-------- --- -------- -------- --- -------- ---- -- ----- -<br>-------- ---- --- ---------- --------- -- ------- ------ -<br>--------- ----- -----,181123.2400000008,181122.97000000035,180914.294,180923.16500000015,180931.144,181131.247,,26,a
screen,html.Screen,2_3_1_0_1_27,2021-04-28T17:05:58.746Z,,,,,,,,,,,,,,,,,15,,,,,,,,,,,,,,199.52300000048126,,response,,,,7,B,,,,,,Space,keypress(Space),,,,lyrical,,,,---- --------- ---------- - --- ------- -- --- ------------<br>----- -- -------- ------- ---- ------ - -------- ---- -----<br>--- ------- ---- -- --- -------- --- - third ------ ---- --<br>-------- --- -------- -------- --- -------- ---- -- ----- -<br>-------- ---- --- ---------- --------- -- ------- ------ -<br>--------- ----- -----,181331.09500000137,181330.77000000048,181114.231,181123.30999999904,181131.247,181347.949,,27,third
screen,html.Screen,2_3_1_0_1_28,2021-04-28T17:05:58.938Z,,,,,,,,,,,,,,,,,15,,,,,,,,,,,,,,174.88100000171107,,response,,,,7,B,,,,,,Space,keypress(Space),,,,lyrical,,,,---- --------- ---------- - --- ------- -- --- ------------<br>----- -- -------- ------- ---- ------ - -------- ---- -----<br>--- ------- ---- -- --- -------- --- - ----- prison ---- --<br>-------- --- -------- -------- --- -------- ---- -- ----- -<br>-------- ---- --- ---------- --------- -- ------- ------ -<br>--------- ----- -----,181523.17500000208,181522.8300000017,181331.132,181331.1649999996,181347.949,181530.504,,28,prison
screen,html.Screen,2_3_1_0_1_29,2021-04-28T17:05:59.138Z,,,,,,,,,,,,,,,,,15,,,,,,,,,,,,,,192.43599999966682,,response,,,,7,B,,,,,,Space,keypress(Space),,,,lyrical,,,,---- --------- ---------- - --- ------- -- --- ------------<br>----- -- -------- ------- ---- ------ - -------- ---- -----<br>--- ------- ---- -- --- -------- --- - ----- ------ stay --<br>-------- --- -------- -------- --- -------- ---- -- ----- -<br>-------- ---- --- ---------- --------- -- ------- ------ -<br>--------- ----- -----,181723.34500000215,181722.93999999965,181513.763,181523.25500000006,181530.504,181731.015,,29,stay
screen,html.Screen,2_3_1_0_1_30,2021-04-28T17:05:59.346Z,,,,,,,,,,,,,,,,,15,,,,,,,,,,,,,,199.6750000010361,,response,,,,7,B,,,,,,Space,keypress(Space),,,,lyrical,,,,---- --------- ---------- - --- ------- -- --- ------------<br>----- -- -------- ------- ---- ------ - -------- ---- -----<br>--- ------- ---- -- --- -------- --- - ----- ------ ---- to<br>-------- --- -------- -------- --- -------- ---- -- ----- -<br>-------- ---- --- ---------- --------- -- ------- ------ -<br>--------- ----- -----,181931.05500000092,181930.69000000105,181713.922,181723.4099999987,181731.015,181947.173,,30,to
screen,html.Screen,2_3_1_0_1_31,2021-04-28T17:05:59.738Z,,,,,,,,,,,,,,,,,15,,,,,,,,,,,,,,375.7269999991986,,response,,,,7,B,,,,,,Space,keypress(Space),,,,lyrical,,,,---- --------- ---------- - --- ------- -- --- ------------<br>----- -- -------- ------- ---- ------ - -------- ---- -----<br>--- ------- ---- -- --- -------- --- - ----- ------ ---- --<br>maintain --- -------- -------- --- -------- ---- -- ----- -<br>-------- ---- --- ---------- --------- -- ------- ------ -<br>--------- ----- -----,182323.26499999908,182322.8999999992,181930.826,181931.13000000085,181947.173,182330.934,,31,maintain
screen,html.Screen,2_3_1_0_1_32,2021-04-28T17:06:00.290Z,,,,,,,,,,,,,,,,,15,,,,,,,,,,,,,,543.8360000021639,,response,,,,7,B,,,,,,Space,keypress(Space),,,,lyrical,,,,---- --------- ---------- - --- ------- -- --- ------------<br>----- -- -------- ------- ---- ------ - -------- ---- -----<br>--- ------- ---- -- --- -------- --- - ----- ------ ---- --<br>-------- his -------- -------- --- -------- ---- -- ----- -<br>-------- ---- --- ---------- --------- -- ------- ------ -<br>--------- ----- -----,182875.1650000013,182874.77000000217,182313.854,182323.32999999926,182330.934,182880.448,,32,his
screen,html.Screen,2_3_1_0_1_33,2021-04-28T17:06:00.434Z,,,,,,,,,,,,,,,,,15,,,,,,,,,,,,,,138.20699999984936,,response,,,,7,B,,,,,,Space,keypress(Space),,,,lyrical,,,,---- --------- ---------- - --- ------- -- --- ------------<br>----- -- -------- ------- ---- ------ - -------- ---- -----<br>--- ------- ---- -- --- -------- --- - ----- ------ ---- --<br>-------- --- silence. -------- --- -------- ---- -- ----- -<br>-------- ---- --- ---------- --------- -- ------- ------ -<br>--------- ----- -----,183019.02999999947,183018.65499999985,182864.231,182875.2400000012,182880.448,183031.341,,33,silence.
screen,html.Screen,2_3_1_0_1_34,2021-04-28T17:06:00.634Z,,,,,,,,,,,,,,,,,15,,,,,,,,,,,,,,187.5390000003681,,response,,,,7,B,,,,,,Space,keypress(Space),,,,lyrical,,,,---- --------- ---------- - --- ------- -- --- ------------<br>----- -- -------- ------- ---- ------ - -------- ---- -----<br>--- ------- ---- -- --- -------- --- - ----- ------ ---- --<br>-------- --- -------- Anderson --- -------- ---- -- ----- -<br>-------- ---- --- ---------- --------- -- ------- ------ -<br>--------- ----- -----,183219.23500000048,183218.88000000035,183013.947,183019.10000000134,183031.341,183230.917,,34,Anderson
screen,html.Screen,2_3_1_0_1_35,2021-04-28T17:06:01.090Z,,,,,,,,,,,,,,,,,15,,,,,,,,,,,,,,443.9030000001949,,response,,,,7,B,,,,,,Space,keypress(Space),,,,lyrical,,,,---- --------- ---------- - --- ------- -- --- ------------<br>----- -- -------- ------- ---- ------ - -------- ---- -----<br>--- ------- ---- -- --- -------- --- - ----- ------ ---- --<br>-------- --- -------- -------- was -------- ---- -- ----- -<br>-------- ---- --- ---------- --------- -- ------- ------ -<br>--------- ----- -----,183675.23000000074,183674.82000000018,183213.809,183219.3150000021,183230.917,183680.89,,35,was
screen,html.Screen,2_3_1_0_1_36,2021-04-28T17:06:01.338Z,,,,,,,,,,,,,,,,,15,,,,,,,,,,,,,,242.5800000015297,,response,,,,7,B,,,,,,Space,keypress(Space),,,,lyrical,,,,---- --------- ---------- - --- ------- -- --- ------------<br>----- -- -------- ------- ---- ------ - -------- ---- -----<br>--- ------- ---- -- --- -------- --- - ----- ------ ---- --<br>-------- --- -------- -------- --- released ---- -- ----- -<br>-------- ---- --- ---------- --------- -- ------- ------ -<br>--------- ----- -----,183923.83999999947,183923.47000000154,183663.763,183675.29500000092,183680.89,183931.123,,36,released
screen,html.Screen,2_3_1_0_1_37,2021-04-28T17:06:01.538Z,,,,,,,,,,,,,,,,,15,,,,,,,,,,,,,,191.69199999881675,,response,,,,7,B,,,,,,Space,keypress(Space),,,,lyrical,,,,---- --------- ---------- - --- ------- -- --- ------------<br>----- -- -------- ------- ---- ------ - -------- ---- -----<br>--- ------- ---- -- --- -------- --- - ----- ------ ---- --<br>-------- --- -------- -------- --- -------- July -- ----- -<br>-------- ---- --- ---------- --------- -- ------- ------ -<br>--------- ----- -----,184123.21499999962,184122.8149999988,183913.933,183923.90499999965,183931.123,184131.049,,37,July
screen,html.Screen,2_3_1_0_1_38,2021-04-28T17:06:01.754Z,,,,,,,,,,,,,,,,,15,,,,,,,,,,,,,,207.6159999993106,,response,,,,7,B,,,,,,Space,keypress(Space),,,,lyrical,,,,---- --------- ---------- - --- ------- -- --- ------------<br>----- -- -------- ------- ---- ------ - -------- ---- -----<br>--- ------- ---- -- --- -------- --- - ----- ------ ---- --<br>-------- --- -------- -------- --- -------- ---- 20 ----- -<br>-------- ---- --- ---------- --------- -- ------- ------ -<br>--------- ----- -----,184339.02999999918,184338.6649999993,184114.279,184123.2850000015,184131.049,184347.959,,38,20
