sender,sender_type,sender_id,timestamp,meta,,Blues,Classical,Country,Dance,Electronic,Folk,Gospel,Hip-Hop,Jazz,Latin,Musical/Film,New-age,Pop,Prolific_id,Provo_ID,R&B,Rap,Reggae,Religious,Rock,Soul,Swing,Traditional,age,artist_name,correct,correctResponse,distraction,duration,education,ended_on,familiarity,gender,headphone_check_performance,item,list,music_frequency,offensiveness,pleasantness,position_correct,preference,response,response_action,snippet_file,song_name,song_rating,sound,stimulus_1,stimulus_2,stimulus_3,text,time_commit,time_end,time_render,time_run,time_show,time_switch,url,word,word_ID
Prolific ID,html.Form,0,2021-04-27T08:27:24.139Z,"{""labjs_version"":""20.2.2"",""labjs_build"":{""flavor"":""production"",""commit"":""a25486e0c714a0ae2ce03ff94b7bb6896854dcfa""},""location"":""https://run.pavlovia.org/mvasilev/prolific_music_f/"",""userAgent"":""Mozilla/5.0 (Windows NT 10.0; Win64; x64; rv:88.0) Gecko/20100101 Firefox/88.0"",""platform"":""Win32"",""language"":""en-GB"",""locale"":""en-GB"",""timeZone"":""Europe/London"",""timezoneOffset"":-60,""screen_width"":1920,""screen_height"":1080,""scroll_width"":1920,""scroll_height"":1032,""window_innerWidth"":1920,""window_innerHeight"":1080,""devicePixelRatio"":1}",,,,,,,,,,,,,,,578a060882f7f90001ee801e,,,,,,,,,,,,,,,13485.82,,form submission,,,,,,,,,,,,,,,,,,,,,26954,26953,13450.52,13435,13467.18,26967.18,{},,
Introduction,html.Screen,1_0,2021-04-27T08:27:29.097Z,,,,,,,,,,,,,,,,,,,,,,,,,,,,,,,4937.82,,response,,,,,,,,,,,continue,click button,,,,,,,,,31912,31905,26950.52,26955,26967.18,31935.4,,,
Volume calibration,html.Screen,1_1,2021-04-27T08:28:01.106Z,,,,,,,,,,,,,,,,,,,,,,,,,,,,,,,31969.6,,response,,,,,,,,,,,continue,click button,,,,,,,,,63921,63905,31918.72,31912,31935.4,63936.78,,,
Task instructions,html.Screen,1_2,2021-04-27T08:28:08.755Z,,,,,,,,,,,,,,,,,,,,,,,,,,,,,,,7624.220000000001,,response,,,,,,,,,,,continue,click button,,,,,,,,,71570,71561,63920.12,63922,63936.78,71586.78,,,
Sounds,html.Screen,1_3_0_0,2021-04-27T08:28:13.007Z,,,,,,,,,,,,,,,,,,,,,,,,,,,,,,,4250,,timeout,,,,,,,,,2,,,,,,,,O,S,I,,75822,75820.12,71570.12,71571,71586.78,75836.78,,,
Judgement,html.Screen,1_3_0_1,2021-04-27T08:28:13.767Z,,,,,,,,,,,,,,,,,,,,,,,,,,,,true,2,,740.2200000000012,,response,,,,,,,,,2,,2,click #choice-2,,,,,O,S,I,,76582,76577,75820.12,75822,75836.78,76603.44,,,
Trial,flow.Sequence,1_3_0,2021-04-27T08:28:13.767Z,,,,,,,,,,,,,,,,,,,,,,,,,,,,,,,4990.220000000001,,completion,,,,,,,,,2,,,,,,,,O,S,I,,76583,76577,71570.12,71570,71586.78,76603.44,,,
Sounds,html.Screen,1_3_1_0,2021-04-27T08:28:18.023Z,,,,,,,,,,,,,,,,,,,,,,,,,,,,,,,4250,,timeout,,,,,,,,,3,,,,,,,,O,I,S,,80838,80836.78,76586.78,76583,76603.44,80853.44,,,
Judgement,html.Screen,1_3_1_1,2021-04-27T08:28:21.037Z,,,,,,,,,,,,,,,,,,,,,,,,,,,,true,3,,2988.5599999999977,,response,,,,,,,,,3,,3,click #choice-3,,,,,O,I,S,,83853,83842,80836.78,80838,80853.44,83870.12,,,
Trial,flow.Sequence,1_3_1,2021-04-27T08:28:21.037Z,,,,,,,,,,,,,,,,,,,,,,,,,,,,,,,7238.559999999998,,completion,,,,,,,,,3,,,,,,,,O,I,S,,83853,83842,76586.78,76583,76603.44,83870.12,,,
Sounds,html.Screen,1_3_2_0,2021-04-27T08:28:25.290Z,,,,,,,,,,,,,,,,,,,,,,,,,,,,,,,4250,,timeout,,,,,,,,,1,,,,,,,,S,O,I,,88105,88103.44,83853.44,83853,83870.12,88120.12,,,
Judgement,html.Screen,1_3_2_1,2021-04-27T08:28:31.955Z,,,,,,,,,,,,,,,,,,,,,,,,,,,,true,1,,6643.880000000005,,response,,,,,,,,,1,,1,click #choice-1,,,,,S,O,I,,94771,94764,88103.44,88106,88120.12,94788.26,,,
Trial,flow.Sequence,1_3_2,2021-04-27T08:28:31.956Z,,,,,,,,,,,,,,,,,,,,,,,,,,,,,,,10893.880000000005,,completion,,,,,,,,,1,,,,,,,,S,O,I,,94771,94764,83853.44,83853,83870.12,94788.26,,,
Sounds,html.Screen,1_3_3_0,2021-04-27T08:28:36.207Z,,,,,,,,,,,,,,,,,,,,,,,,,,,,,,,4250,,timeout,,,,,,,,,3,,,,,,,,I,O,S,,99022,99021.6,94771.6,94771,94788.26,99038.26,,,
Judgement,html.Screen,1_3_3_1,2021-04-27T08:28:36.695Z,,,,,,,,,,,,,,,,,,,,,,,,,,,,true,3,,460.74000000000524,,response,,,,,,,,,3,,3,click #choice-3,,,,,I,O,S,,99510,99499,99021.6,99022,99038.26,99538.26,,,
Trial,flow.Sequence,1_3_3,2021-04-27T08:28:36.695Z,,,,,,,,,,,,,,,,,,,,,,,,,,,,,,,4710.740000000005,,completion,,,,,,,,,3,,,,,,,,I,O,S,,99510,99499,94771.6,94771,94788.26,99538.26,,,
Sounds,html.Screen,1_3_4_0,2021-04-27T08:28:40.957Z,,,,,,,,,,,,,,,,,,,,,,,,,,,,,,,4250,,timeout,,,,,,,,,1,,,,,,,,S,I,O,,103773,103771.6,99521.6,99510,99538.26,103788.26,,,
Judgement,html.Screen,1_3_4_1,2021-04-27T08:28:41.443Z,,,,,,,,,,,,,,,,,,,,,,,,,,,,true,1,,460.74000000000524,,response,,,,,,,,,1,,1,click #choice-1,,,,,S,I,O,,104258,104249,103771.6,103773,103788.26,104288.26,,,
Trial,flow.Sequence,1_3_4,2021-04-27T08:28:41.443Z,,,,,,,,,,,,,,,,,,,,,,,,,,,,,,,4710.740000000005,,completion,,,,,,,,,1,,,,,,,,S,I,O,,104258,104249,99521.6,99510,99538.26,104288.26,,,
Sounds,html.Screen,1_3_5_0,2021-04-27T08:28:45.708Z,,,,,,,,,,,,,,,,,,,,,,,,,,,,,,,4250,,timeout,,,,,,,,,2,,,,,,,,I,S,O,,108523,108521.6,104271.6,104258,104288.26,108538.26,,,
Judgement,html.Screen,1_3_5_1,2021-04-27T08:28:46.269Z,,,,,,,,,,,,,,,,,,,,,,,,,,,,true,2,,538.7400000000052,,response,,,,,,,,,2,,2,click #choice-2,,,,,I,S,O,,109084,109077,108521.6,108523,108538.26,109104.92,,,
Trial,flow.Sequence,1_3_5,2021-04-27T08:28:46.269Z,,,,,,,,,,,,,,,,,,,,,,,,,,,,,,,4788.740000000005,,completion,,,,,,,,,2,,,,,,,,I,S,O,,109085,109077,104271.6,104258,104288.26,109104.92,,,
Task,flow.Loop,1_3,2021-04-27T08:28:46.270Z,,,,,,,,,,,,,,,,,,,,,,,,,,,,,,,37490.22,,completion,,,1,,,,,,,,,,,,,,,,,,109085,109077,71570.12,71570,71586.78,109104.92,,,
Trap,html.Screen,1_4,2021-04-27T08:28:46.274Z,,,,,,,,,,,,,,,,,,,,,,,,,,,,,,,NaN,,skipped,,,,,,,,,,,,,,,,,,,,,109089,109077,,109089,,109104.92,,,
Thanks,html.Screen,1_5,2021-04-27T08:28:49.942Z,,,,,,,,,,,,,,,,,,,,,,,,,,,,,,,3644.0800000000017,,response,,,,,,,,,,,continue,click button,,,,,,,,,112757,112749,109088.26,109089,109104.92,117704.92,,,
Headphone screening,flow.Sequence,1,2021-04-27T08:28:49.942Z,,,,,,,,,,,,,,,,,,,,,,,,,,,,,,,85781.82,,completion,,,,,,,,,,,,,,,,,,,,,112757,112749,26950.52,26955,26967.18,117704.92,,,
Instructions,html.Page,2_0,2021-04-27T08:29:48.164Z,,,,,,,,,,,,,,,,,,,,,,,,,,,,,,,53274.08,,form submission,,,,,,,,,,,,,,,,,,,,,170979,170979,117688.26,117685,117704.92,171007.86,,,
Holding screen,html.Screen,2_1_0_0,2021-04-27T08:29:58.177Z,,,,,,,,,,,,,,,,,,,,,,,,,,,,,,,10000,,timeout,,,,,,,,,,,,,,,,,,,,,180993,180991.2,170991.18,170980,171007.86,181007.86,,,
screen,html.Screen,2_1_0_1_0,2021-04-27T08:29:59.079Z,,,,,,,,,,,,,,,,,53,,,,,,,,,,,,,,881.140000000014,,response,,,,99,,,,,,,Space,keypress(Space),,,,,,,,When -- ----- -- ------ - ------- --- ----------<br>------------- ------ ------ ---- ---- ------- ----- -- ----<br>-------- ------- -- ---------- --- - --- ----- ----- ----<br>---- --- --- ----- --- ---- ---- ------- ----- ---- -------<br>--- --- -- ----- -- --- ---- -- --- ---- -- ------ ------<br>--- ----- -- ----,181894,181889,180991.2,180993,181007.86,181924.52,,0,When
screen,html.Screen,2_1_0_1_1,2021-04-27T08:29:59.578Z,,,,,,,,,,,,,,,,,53,,,,,,,,,,,,,,464.4800000000105,,response,,,,99,,,,,,,Space,keypress(Space),,,,,,,,---- it ----- -- ------ - ------- --- ----------<br>------------- ------ ------ ---- ---- ------- ----- -- ----<br>-------- ------- -- ---------- --- - --- ----- ----- ----<br>---- --- --- ----- --- ---- ---- ------- ----- ---- -------<br>--- --- -- ----- -- --- ---- -- --- ---- -- ------ ------<br>--- ----- -- ----,182394,182389,181907.86,181894,181924.52,182424.52,,1,it
screen,html.Screen,2_1_0_1_2,2021-04-27T08:30:00.043Z,,,,,,,,,,,,,,,,,53,,,,,,,,,,,,,,417.4800000000105,,response,,,,99,,,,,,,Space,keypress(Space),,,,,,,,---- -- comes -- ------ - ------- --- ----------<br>------------- ------ ------ ---- ---- ------- ----- -- ----<br>-------- ------- -- ---------- --- - --- ----- ----- ----<br>---- --- --- ----- --- ---- ---- ------- ----- ---- -------<br>--- --- -- ----- -- --- ---- -- --- ---- -- ------ ------<br>--- ----- -- ----,182858,182842,182407.86,182394,182424.52,182891.2,,2,comes
screen,html.Screen,2_1_0_1_3,2021-04-27T08:30:00.427Z,,,,,,,,,,,,,,,,,53,,,,,,,,,,,,,,341.79999999998836,,response,,,,99,,,,,,,Space,keypress(Space),,,,,,,,---- -- ----- to ------ - ------- --- ----------<br>------------- ------ ------ ---- ---- ------- ----- -- ----<br>-------- ------- -- ---------- --- - --- ----- ----- ----<br>---- --- --- ----- --- ---- ---- ------- ----- ---- -------<br>--- --- -- ----- -- --- ---- -- --- ---- -- ------ ------<br>--- ----- -- ----,183243,183233,182874.52,182859,182891.2,183274.52,,3,to
screen,html.Screen,2_1_0_1_4,2021-04-27T08:30:00.803Z,,,,,,,,,,,,,,,,,53,,,,,,,,,,,,,,333.4800000000105,,response,,,,99,,,,,,,Space,keypress(Space),,,,,,,,---- -- ----- -- having - ------- --- ----------<br>------------- ------ ------ ---- ---- ------- ----- -- ----<br>-------- ------- -- ---------- --- - --- ----- ----- ----<br>---- --- --- ----- --- ---- ---- ------- ----- ---- -------<br>--- --- -- ----- -- --- ---- -- --- ---- -- ------ ------<br>--- ----- -- ----,183618,183608,183257.86,183243,183274.52,183641.2,,4,having
screen,html.Screen,2_1_0_1_5,2021-04-27T08:30:01.179Z,,,,,,,,,,,,,,,,,53,,,,,,,,,,,,,,342.79999999998836,,response,,,,99,,,,,,,Space,keypress(Space),,,,,,,,---- -- ----- -- ------ a ------- --- ----------<br>------------- ------ ------ ---- ---- ------- ----- -- ----<br>-------- ------- -- ---------- --- - --- ----- ----- ----<br>---- --- --- ----- --- ---- ---- ------- ----- ---- -------<br>--- --- -- ----- -- --- ---- -- --- ---- -- ------ ------<br>--- ----- -- ----,183995,183984,183624.52,183618,183641.2,184024.52,,5,a
screen,html.Screen,2_1_0_1_6,2021-04-27T08:30:01.625Z,,,,,,,,,,,,,,,,,53,,,,,,,,,,,,,,411.4800000000105,,response,,,,99,,,,,,,Space,keypress(Space),,,,,,,,---- -- ----- -- ------ - lasting --- ----------<br>------------- ------ ------ ---- ---- ------- ----- -- ----<br>-------- ------- -- ---------- --- - --- ----- ----- ----<br>---- --- --- ----- --- ---- ---- ------- ----- ---- -------<br>--- --- -- ----- -- --- ---- -- --- ---- -- ------ ------<br>--- ----- -- ----,184441,184436,184007.86,183995,184024.52,184457.86,,6,lasting
screen,html.Screen,2_1_0_1_7,2021-04-27T08:30:02.044Z,,,,,,,,,,,,,,,,,53,,,,,,,,,,,,,,384.14000000001397,,response,,,,99,,,,,,,Space,keypress(Space),,,,,,,,---- -- ----- -- ------ - ------- and ----------<br>------------- ------ ------ ---- ---- ------- ----- -- ----<br>-------- ------- -- ---------- --- - --- ----- ----- ----<br>---- --- --- ----- --- ---- ---- ------- ----- ---- -------<br>--- --- -- ----- -- --- ---- -- --- ---- -- ------ ------<br>--- ----- -- ----,184859,184842,184441.2,184441,184457.86,184891.2,,7,and
screen,html.Screen,2_1_0_1_8,2021-04-27T08:30:02.483Z,,,,,,,,,,,,,,,,,53,,,,,,,,,,,,,,403.79999999998836,,response,,,,99,,,,,,,Space,keypress(Space),,,,,,,,---- -- ----- -- ------ - ------- --- fulfilling<br>------------- ------ ------ ---- ---- ------- ----- -- ----<br>-------- ------- -- ---------- --- - --- ----- ----- ----<br>---- --- --- ----- --- ---- ---- ------- ----- ---- -------<br>--- --- -- ----- -- --- ---- -- --- ---- -- ------ ------<br>--- ----- -- ----,185299,185295,184874.52,184859,184891.2,185324.52,,8,fulfilling
screen,html.Screen,2_1_0_1_9,2021-04-27T08:30:03.278Z,,,,,,,,,,,,,,,,,53,,,,,,,,,,,,,,752.4800000000105,,response,,,,99,,,,,,,Space,keypress(Space),,,,,,,,"---- -- ----- -- ------ - ------- --- ----------<br>relationship, ------ ------ ---- ---- ------- ----- -- ----<br>-------- ------- -- ---------- --- - --- ----- ----- ----<br>---- --- --- ----- --- ---- ---- ------- ----- ---- -------<br>--- --- -- ----- -- --- ---- -- --- ---- -- ------ ------<br>--- ----- -- ----",186092,186077,185307.86,185299,185324.52,186124.52,,9,"relationship,"
screen,html.Screen,2_1_0_1_10,2021-04-27T08:30:03.647Z,,,,,,,,,,,,,,,,,53,,,,,,,,,,,,,,327.4800000000105,,response,,,,99,,,,,,,Space,keypress(Space),,,,,,,,---- -- ----- -- ------ - ------- --- ----------<br>------------- common ------ ---- ---- ------- ----- -- ----<br>-------- ------- -- ---------- --- - --- ----- ----- ----<br>---- --- --- ----- --- ---- ---- ------- ----- ---- -------<br>--- --- -- ----- -- --- ---- -- --- ---- -- ------ ------<br>--- ----- -- ----,186461,186452,186107.86,186093,186124.52,186491.2,,10,common
screen,html.Screen,2_1_0_1_11,2021-04-27T08:30:04.084Z,,,,,,,,,,,,,,,,,53,,,,,,,,,,,,,,397.79999999998836,,response,,,,99,,,,,,,Space,keypress(Space),,,,,,,,---- -- ----- -- ------ - ------- --- ----------<br>------------- ------ wisdom ---- ---- ------- ----- -- ----<br>-------- ------- -- ---------- --- - --- ----- ----- ----<br>---- --- --- ----- --- ---- ---- ------- ----- ---- -------<br>--- --- -- ----- -- --- ---- -- --- ---- -- ------ ------<br>--- ----- -- ----,186898,186889,186474.52,186462,186491.2,186924.52,,11,wisdom
screen,html.Screen,2_1_0_1_12,2021-04-27T08:30:04.478Z,,,,,,,,,,,,,,,,,53,,,,,,,,,,,,,,355.4800000000105,,response,,,,99,,,,,,,Space,keypress(Space),,,,,,,,---- -- ----- -- ------ - ------- --- ----------<br>------------- ------ ------ says ---- ------- ----- -- ----<br>-------- ------- -- ---------- --- - --- ----- ----- ----<br>---- --- --- ----- --- ---- ---- ------- ----- ---- -------<br>--- --- -- ----- -- --- ---- -- --- ---- -- ------ ------<br>--- ----- -- ----,187293,187280,186907.86,186898,186924.52,187324.52,,12,says
screen,html.Screen,2_1_0_1_13,2021-04-27T08:30:04.884Z,,,,,,,,,,,,,,,,,53,,,,,,,,,,,,,,361.4800000000105,,response,,,,99,,,,,,,Space,keypress(Space),,,,,,,,---- -- ----- -- ------ - ------- --- ----------<br>------------- ------ ------ ---- that ------- ----- -- ----<br>-------- ------- -- ---------- --- - --- ----- ----- ----<br>---- --- --- ----- --- ---- ---- ------- ----- ---- -------<br>--- --- -- ----- -- --- ---- -- --- ---- -- ------ ------<br>--- ----- -- ----,187700,187686,187307.86,187293,187324.52,187724.52,,13,that
screen,html.Screen,2_1_0_1_14,2021-04-27T08:30:05.536Z,,,,,,,,,,,,,,,,,53,,,,,,,,,,,,,,617.4800000000105,,response,,,,99,,,,,,,Space,keypress(Space),,,,,,,,---- -- ----- -- ------ - ------- --- ----------<br>------------- ------ ------ ---- ---- feeling ----- -- ----<br>-------- ------- -- ---------- --- - --- ----- ----- ----<br>---- --- --- ----- --- ---- ---- ------- ----- ---- -------<br>--- --- -- ----- -- --- ---- -- --- ---- -- ------ ------<br>--- ----- -- ----,188352,188342,187707.86,187700,187724.52,188374.52,,14,feeling
screen,html.Screen,2_1_0_1_15,2021-04-27T08:30:06.041Z,,,,,,,,,,,,,,,,,53,,,,,,,,,,,,,,467.4800000000105,,response,,,,99,,,,,,,Space,keypress(Space),,,,,,,,---- -- ----- -- ------ - ------- --- ----------<br>------------- ------ ------ ---- ---- ------- close -- ----<br>-------- ------- -- ---------- --- - --- ----- ----- ----<br>---- --- --- ----- --- ---- ---- ------- ----- ---- -------<br>--- --- -- ----- -- --- ---- -- --- ---- -- ------ ------<br>--- ----- -- ----,188857,188842,188357.86,188352,188374.52,188874.52,,15,close
screen,html.Screen,2_1_0_1_16,2021-04-27T08:30:06.504Z,,,,,,,,,,,,,,,,,53,,,,,,,,,,,,,,436.4800000000105,,response,,,,99,,,,,,,Space,keypress(Space),,,,,,,,---- -- ----- -- ------ - ------- --- ----------<br>------------- ------ ------ ---- ---- ------- ----- to ----<br>-------- ------- -- ---------- --- - --- ----- ----- ----<br>---- --- --- ----- --- ---- ---- ------- ----- ---- -------<br>--- --- -- ----- -- --- ---- -- --- ---- -- ------ ------<br>--- ----- -- ----,189318,189311,188857.86,188857,188874.52,189341.2,,16,to
screen,html.Screen,2_1_0_1_17,2021-04-27T08:30:06.964Z,,,,,,,,,,,,,,,,,53,,,,,,,,,,,,,,422.79999999998836,,response,,,,99,,,,,,,Space,keypress(Space),,,,,,,,---- -- ----- -- ------ - ------- --- ----------<br>------------- ------ ------ ---- ---- ------- ----- -- your<br>-------- ------- -- ---------- --- - --- ----- ----- ----<br>---- --- --- ----- --- ---- ---- ------- ----- ---- -------<br>--- --- -- ----- -- --- ---- -- --- ---- -- ------ ------<br>--- ----- -- ----,189779,189764,189324.52,189319,189341.2,189807.86,,17,your
screen,html.Screen,2_1_0_1_18,2021-04-27T08:30:07.766Z,,,,,,,,,,,,,,,,,53,,,,,,,,,,,,,,769.140000000014,,response,,,,99,,,,,,,Space,keypress(Space),,,,,,,,---- -- ----- -- ------ - ------- --- ----------<br>------------- ------ ------ ---- ---- ------- ----- -- ----<br>romantic ------- -- ---------- --- - --- ----- ----- ----<br>---- --- --- ----- --- ---- ---- ------- ----- ---- -------<br>--- --- -- ----- -- --- ---- -- --- ---- -- ------ ------<br>--- ----- -- ----,190582,190577,189791.2,189779,189807.86,190607.86,,18,romantic
screen,html.Screen,2_1_0_1_19,2021-04-27T08:30:08.354Z,,,,,,,,,,,,,,,,,53,,,,,,,,,,,,,,547.140000000014,,response,,,,99,,,,,,,Space,keypress(Space),,,,,,,,---- -- ----- -- ------ - ------- --- ----------<br>------------- ------ ------ ---- ---- ------- ----- -- ----<br>-------- partner -- ---------- --- - --- ----- ----- ----<br>---- --- --- ----- --- ---- ---- ------- ----- ---- -------<br>--- --- -- ----- -- --- ---- -- --- ---- -- ------ ------<br>--- ----- -- ----,191169,191155,190591.2,190582,190607.86,191191.2,,19,partner
screen,html.Screen,2_1_0_1_20,2021-04-27T08:30:08.738Z,,,,,,,,,,,,,,,,,53,,,,,,,,,,,,,,353.79999999998836,,response,,,,99,,,,,,,Space,keypress(Space),,,,,,,,---- -- ----- -- ------ - ------- --- ----------<br>------------- ------ ------ ---- ---- ------- ----- -- ----<br>-------- ------- is ---------- --- - --- ----- ----- ----<br>---- --- --- ----- --- ---- ---- ------- ----- ---- -------<br>--- --- -- ----- -- --- ---- -- --- ---- -- ------ ------<br>--- ----- -- ----,191553,191545,191174.52,191169,191191.2,191574.52,,20,is
screen,html.Screen,2_1_0_1_21,2021-04-27T08:30:09.614Z,,,,,,,,,,,,,,,,,53,,,,,,,,,,,,,,845.4800000000105,,response,,,,99,,,,,,,Space,keypress(Space),,,,,,,,---- -- ----- -- ------ - ------- --- ----------<br>------------- ------ ------ ---- ---- ------- ----- -- ----<br>-------- ------- -- paramount. --- - --- ----- ----- ----<br>---- --- --- ----- --- ---- ---- ------- ----- ---- -------<br>--- --- -- ----- -- --- ---- -- --- ---- -- ------ ------<br>--- ----- -- ----,192429,192420,191557.86,191553,191574.52,192459.44,,21,paramount.
screen,html.Screen,2_1_0_1_22,2021-04-27T08:30:09.990Z,,,,,,,,,,,,,,,,,53,,,,,,,,,,,,,,335.5599999999977,,response,,,,99,,,,,,,Space,keypress(Space),,,,,,,,---- -- ----- -- ------ - ------- --- ----------<br>------------- ------ ------ ---- ---- ------- ----- -- ----<br>-------- ------- -- ---------- But - --- ----- ----- ----<br>---- --- --- ----- --- ---- ---- ------- ----- ---- -------<br>--- --- -- ----- -- --- ---- -- --- ---- -- ------ ------<br>--- ----- -- ----,192805,192795,192442.78,192429,192459.44,192826.12,,22,But
screen,html.Screen,2_1_0_1_23,2021-04-27T08:30:10.242Z,,,,,,,,,,,,,,,,,53,,,,,,,,,,,,,,218.88000000000466,,response,,,,99,,,,,,,Space,keypress(Space),,,,,,,,---- -- ----- -- ------ - ------- --- ----------<br>------------- ------ ------ ---- ---- ------- ----- -- ----<br>-------- ------- -- ---------- --- a --- ----- ----- ----<br>---- --- --- ----- --- ---- ---- ------- ----- ---- -------<br>--- --- -- ----- -- --- ---- -- --- ---- -- ------ ------<br>--- ----- -- ----,193057,193045,192809.44,192805,192826.12,193076.12,,23,a
screen,html.Screen,2_1_0_1_24,2021-04-27T08:30:10.681Z,,,,,,,,,,,,,,,,,53,,,,,,,,,,,,,,406.88000000000466,,response,,,,99,,,,,,,Space,keypress(Space),,,,,,,,---- -- ----- -- ------ - ------- --- ----------<br>------------- ------ ------ ---- ---- ------- ----- -- ----<br>-------- ------- -- ---------- --- - new ----- ----- ----<br>---- --- --- ----- --- ---- ---- ------- ----- ---- -------<br>--- --- -- ----- -- --- ---- -- --- ---- -- ------ ------<br>--- ----- -- ----,193496,193483,193059.44,193057,193076.12,193526.12,,24,new
screen,html.Screen,2_1_0_1_25,2021-04-27T08:30:11.172Z,,,,,,,,,,,,,,,,,53,,,,,,,,,,,,,,456.88000000000466,,response,,,,99,,,,,,,Space,keypress(Space),,,,,,,,---- -- ----- -- ------ - ------- --- ----------<br>------------- ------ ------ ---- ---- ------- ----- -- ----<br>-------- ------- -- ---------- --- - --- study ----- ----<br>---- --- --- ----- --- ---- ---- ------- ----- ---- -------<br>--- --- -- ----- -- --- ---- -- --- ---- -- ------ ------<br>--- ----- -- ----,193987,193983,193509.44,193496,193526.12,194009.44,,25,study
screen,html.Screen,2_1_0_1_26,2021-04-27T08:30:11.580Z,,,,,,,,,,,,,,,,,53,,,,,,,,,,,,,,379.5599999999977,,response,,,,99,,,,,,,Space,keypress(Space),,,,,,,,---- -- ----- -- ------ - ------- --- ----------<br>------------- ------ ------ ---- ---- ------- ----- -- ----<br>-------- ------- -- ---------- --- - --- ----- finds ----<br>---- --- --- ----- --- ---- ---- ------- ----- ---- -------<br>--- --- -- ----- -- --- ---- -- --- ---- -- ------ ------<br>--- ----- -- ----,194396,194389,193992.78,193987,194009.44,194426.12,,26,finds
screen,html.Screen,2_1_0_1_27,2021-04-27T08:30:11.952Z,,,,,,,,,,,,,,,,,53,,,,,,,,,,,,,,337.88000000000466,,response,,,,99,,,,,,,Space,keypress(Space),,,,,,,,---- -- ----- -- ------ - ------- --- ----------<br>------------- ------ ------ ---- ---- ------- ----- -- ----<br>-------- ------- -- ---------- --- - --- ----- ----- that<br>---- --- --- ----- --- ---- ---- ------- ----- ---- -------<br>--- --- -- ----- -- --- ---- -- --- ---- -- ------ ------<br>--- ----- -- ----,194767,194764,194409.44,194396,194426.12,194792.78,,27,that
screen,html.Screen,2_1_0_1_28,2021-04-27T08:30:12.328Z,,,,,,,,,,,,,,,,,53,,,,,,,,,,,,,,346.22000000000116,,response,,,,99,,,,,,,Space,keypress(Space),,,,,,,,---- -- ----- -- ------ - ------- --- ----------<br>------------- ------ ------ ---- ---- ------- ----- -- ----<br>-------- ------- -- ---------- --- - --- ----- ----- ----<br>it's --- --- ----- --- ---- ---- ------- ----- ---- -------<br>--- --- -- ----- -- --- ---- -- --- ---- -- ------ ------<br>--- ----- -- ----,195142,195139,194776.12,194767,194792.78,195176.12,,28,it's
screen,html.Screen,2_1_0_1_29,2021-04-27T08:30:12.762Z,,,,,,,,,,,,,,,,,53,,,,,,,,,,,,,,384.88000000000466,,response,,,,99,,,,,,,Space,keypress(Space),,,,,,,,---- -- ----- -- ------ - ------- --- ----------<br>------------- ------ ------ ---- ---- ------- ----- -- ----<br>-------- ------- -- ---------- --- - --- ----- ----- ----<br>---- not --- ----- --- ---- ---- ------- ----- ---- -------<br>--- --- -- ----- -- --- ---- -- --- ---- -- ------ ------<br>--- ----- -- ----,195576,195561,195159.44,195143,195176.12,195609.44,,29,not
screen,html.Screen,2_1_0_1_30,2021-04-27T08:30:13.116Z,,,,,,,,,,,,,,,,,53,,,,,,,,,,,,,,310.5599999999977,,response,,,,99,,,,,,,Space,keypress(Space),,,,,,,,---- -- ----- -- ------ - ------- --- ----------<br>------------- ------ ------ ---- ---- ------- ----- -- ----<br>-------- ------- -- ---------- --- - --- ----- ----- ----<br>---- --- how ----- --- ---- ---- ------- ----- ---- -------<br>--- --- -- ----- -- --- ---- -- --- ---- -- ------ ------<br>--- ----- -- ----,195931,195920,195592.78,195577,195609.44,195959.44,,30,how
screen,html.Screen,2_1_0_1_31,2021-04-27T08:30:13.363Z,,,,,,,,,,,,,,,,,53,,,,,,,,,,,,,,210.55999999999767,,response,,,,99,,,,,,,Space,keypress(Space),,,,,,,,---- -- ----- -- ------ - ------- --- ----------<br>------------- ------ ------ ---- ---- ------- ----- -- ----<br>-------- ------- -- ---------- --- - --- ----- ----- ----<br>---- --- --- close --- ---- ---- ------- ----- ---- -------<br>--- --- -- ----- -- --- ---- -- --- ---- -- ------ ------<br>--- ----- -- ----,196178,196170,195942.78,195931,195959.44,196209.44,,31,close
screen,html.Screen,2_1_0_1_32,2021-04-27T08:30:14.044Z,,,,,,,,,,,,,,,,,53,,,,,,,,,,,,,,648.5599999999977,,response,,,,99,,,,,,,Space,keypress(Space),,,,,,,,---- -- ----- -- ------ - ------- --- ----------<br>------------- ------ ------ ---- ---- ------- ----- -- ----<br>-------- ------- -- ---------- --- - --- ----- ----- ----<br>---- --- --- ----- you ---- ---- ------- ----- ---- -------<br>--- --- -- ----- -- --- ---- -- --- ---- -- ------ ------<br>--- ----- -- ----,196860,196858,196192.78,196179,196209.44,196892.78,,32,you
screen,html.Screen,2_1_0_1_33,2021-04-27T08:30:14.662Z,,,,,,,,,,,,,,,,,53,,,,,,,,,,,,,,574.2200000000012,,response,,,,99,,,,,,,Space,keypress(Space),,,,,,,,---- -- ----- -- ------ - ------- --- ----------<br>------------- ------ ------ ---- ---- ------- ----- -- ----<br>-------- ------- -- ---------- --- - --- ----- ----- ----<br>---- --- --- ----- --- feel ---- ------- ----- ---- -------<br>--- --- -- ----- -- --- ---- -- --- ---- -- ------ ------<br>--- ----- -- ----,197477,197467,196876.12,196860,196892.78,197509.44,,33,feel
screen,html.Screen,2_1_0_1_34,2021-04-27T08:30:15.093Z,,,,,,,,,,,,,,,,,53,,,,,,,,,,,,,,395.5599999999977,,response,,,,99,,,,,,,Space,keypress(Space),,,,,,,,---- -- ----- -- ------ - ------- --- ----------<br>------------- ------ ------ ---- ---- ------- ----- -- ----<br>-------- ------- -- ---------- --- - --- ----- ----- ----<br>---- --- --- ----- --- ---- that ------- ----- ---- -------<br>--- --- -- ----- -- --- ---- -- --- ---- -- ------ ------<br>--- ----- -- ----,197908,197905,197492.78,197477,197509.44,197926.12,,34,that
screen,html.Screen,2_1_0_1_35,2021-04-27T08:30:15.470Z,,,,,,,,,,,,,,,,,53,,,,,,,,,,,,,,353.88000000000466,,response,,,,99,,,,,,,Space,keypress(Space),,,,,,,,---- -- ----- -- ------ - ------- --- ----------<br>------------- ------ ------ ---- ---- ------- ----- -- ----<br>-------- ------- -- ---------- --- - --- ----- ----- ----<br>---- --- --- ----- --- ---- ---- matters ----- ---- -------<br>--- --- -- ----- -- --- ---- -- --- ---- -- ------ ------<br>--- ----- -- ----,198284,198280,197909.44,197908,197926.12,198309.44,,35,matters
screen,html.Screen,2_1_0_1_36,2021-04-27T08:30:16.186Z,,,,,,,,,,,,,,,,,53,,,,,,,,,,,,,,689.5599999999977,,response,,,,99,,,,,,,Space,keypress(Space),,,,,,,,"---- -- ----- -- ------ - ------- --- ----------<br>------------- ------ ------ ---- ---- ------- ----- -- ----<br>-------- ------- -- ---------- --- - --- ----- ----- ----<br>---- --- --- ----- --- ---- ---- ------- most, ---- -------<br>--- --- -- ----- -- --- ---- -- --- ---- -- ------ ------<br>--- ----- -- ----",199002,198999,198292.78,198285,198309.44,199026.12,,36,"most,"
screen,html.Screen,2_1_0_1_37,2021-04-27T08:30:16.532Z,,,,,,,,,,,,,,,,,53,,,,,,,,,,,,,,316.88000000000466,,response,,,,99,,,,,,,Space,keypress(Space),,,,,,,,---- -- ----- -- ------ - ------- --- ----------<br>------------- ------ ------ ---- ---- ------- ----- -- ----<br>-------- ------- -- ---------- --- - --- ----- ----- ----<br>---- --- --- ----- --- ---- ---- ------- ----- it's -------<br>--- --- -- ----- -- --- ---- -- --- ---- -- ------ ------<br>--- ----- -- ----,199348,199343,199009.44,199002,199026.12,199376.12,,37,it's
screen,html.Screen,2_1_0_1_38,2021-04-27T08:30:16.931Z,,,,,,,,,,,,,,,,,53,,,,,,,,,,,,,,356.88000000000466,,response,,,,99,,,,,,,Space,keypress(Space),,,,,,,,---- -- ----- -- ------ - ------- --- ----------<br>------------- ------ ------ ---- ---- ------- ----- -- ----<br>-------- ------- -- ---------- --- - --- ----- ----- ----<br>---- --- --- ----- --- ---- ---- ------- ----- ---- whether<br>--- --- -- ----- -- --- ---- -- --- ---- -- ------ ------<br>--- ----- -- ----,199747,199733,199359.44,199348,199376.12,199776.12,,38,whether
screen,html.Screen,2_1_0_1_39,2021-04-27T08:30:17.343Z,,,,,,,,,,,,,,,,,53,,,,,,,,,,,,,,378.88000000000466,,response,,,,99,,,,,,,Space,keypress(Space),,,,,,,,---- -- ----- -- ------ - ------- --- ----------<br>------------- ------ ------ ---- ---- ------- ----- -- ----<br>-------- ------- -- ---------- --- - --- ----- ----- ----<br>---- --- --- ----- --- ---- ---- ------- ----- ---- -------<br>you --- -- ----- -- --- ---- -- --- ---- -- ------ ------<br>--- ----- -- ----,200158,200155,199759.44,199747,199776.12,200176.12,,39,you
screen,html.Screen,2_1_0_1_40,2021-04-27T08:30:17.696Z,,,,,,,,,,,,,,,,,53,,,,,,,,,,,,,,322.88000000000466,,response,,,,99,,,,,,,Space,keypress(Space),,,,,,,,---- -- ----- -- ------ - ------- --- ----------<br>------------- ------ ------ ---- ---- ------- ----- -- ----<br>-------- ------- -- ---------- --- - --- ----- ----- ----<br>---- --- --- ----- --- ---- ---- ------- ----- ---- -------<br>--- are -- ----- -- --- ---- -- --- ---- -- ------ ------<br>--- ----- -- ----,200511,200499,200159.44,200158,200176.12,200542.78,,40,are
screen,html.Screen,2_1_0_1_41,2021-04-27T08:30:18.097Z,,,,,,,,,,,,,,,,,53,,,,,,,,,,,,,,362.22000000000116,,response,,,,99,,,,,,,Space,keypress(Space),,,,,,,,---- -- ----- -- ------ - ------- --- ----------<br>------------- ------ ------ ---- ---- ------- ----- -- ----<br>-------- ------- -- ---------- --- - --- ----- ----- ----<br>---- --- --- ----- --- ---- ---- ------- ----- ---- -------<br>--- --- as ----- -- --- ---- -- --- ---- -- ------ ------<br>--- ----- -- ----,200912,200905,200526.12,200511,200542.78,200942.78,,41,as
screen,html.Screen,2_1_0_1_42,2021-04-27T08:30:18.730Z,,,,,,,,,,,,,,,,,53,,,,,,,,,,,,,,587.2200000000012,,response,,,,99,,,,,,,Space,keypress(Space),,,,,,,,---- -- ----- -- ------ - ------- --- ----------<br>------------- ------ ------ ---- ---- ------- ----- -- ----<br>-------- ------- -- ---------- --- - --- ----- ----- ----<br>---- --- --- ----- --- ---- ---- ------- ----- ---- -------<br>--- --- -- close -- --- ---- -- --- ---- -- ------ ------<br>--- ----- -- ----,201545,201530,200926.12,200912,200942.78,201576.12,,42,close
screen,html.Screen,2_1_0_1_43,2021-04-27T08:30:19.159Z,,,,,,,,,,,,,,,,,53,,,,,,,,,,,,,,390.88000000000466,,response,,,,99,,,,,,,Space,keypress(Space),,,,,,,,---- -- ----- -- ------ - ------- --- ----------<br>------------- ------ ------ ---- ---- ------- ----- -- ----<br>-------- ------- -- ---------- --- - --- ----- ----- ----<br>---- --- --- ----- --- ---- ---- ------- ----- ---- -------<br>--- --- -- ----- as --- ---- -- --- ---- -- ------ ------<br>--- ----- -- ----,201974,201967,201559.44,201545,201576.12,201992.78,,43,as
screen,html.Screen,2_1_0_1_44,2021-04-27T08:30:19.568Z,,,,,,,,,,,,,,,,,53,,,,,,,,,,,,,,381.22000000000116,,response,,,,99,,,,,,,Space,keypress(Space),,,,,,,,---- -- ----- -- ------ - ------- --- ----------<br>------------- ------ ------ ---- ---- ------- ----- -- ----<br>-------- ------- -- ---------- --- - --- ----- ----- ----<br>---- --- --- ----- --- ---- ---- ------- ----- ---- -------<br>--- --- -- ----- -- you ---- -- --- ---- -- ------ ------<br>--- ----- -- ----,202384,202374,201976.12,201974,201992.78,202409.44,,44,you
screen,html.Screen,2_1_0_1_45,2021-04-27T08:30:20.000Z,,,,,,,,,,,,,,,,,53,,,,,,,,,,,,,,401.5599999999977,,response,,,,99,,,,,,,Space,keypress(Space),,,,,,,,---- -- ----- -- ------ - ------- --- ----------<br>------------- ------ ------ ---- ---- ------- ----- -- ----<br>-------- ------- -- ---------- --- - --- ----- ----- ----<br>---- --- --- ----- --- ---- ---- ------- ----- ---- -------<br>--- --- -- ----- -- --- want -- --- ---- -- ------ ------<br>--- ----- -- ----,202815,202811,202392.78,202384,202409.44,202842.78,,45,want
screen,html.Screen,2_1_0_1_46,2021-04-27T08:30:20.379Z,,,,,,,,,,,,,,,,,53,,,,,,,,,,,,,,343.22000000000116,,response,,,,99,,,,,,,Space,keypress(Space),,,,,,,,---- -- ----- -- ------ - ------- --- ----------<br>------------- ------ ------ ---- ---- ------- ----- -- ----<br>-------- ------- -- ---------- --- - --- ----- ----- ----<br>---- --- --- ----- --- ---- ---- ------- ----- ---- -------<br>--- --- -- ----- -- --- ---- to --- ---- -- ------ ------<br>--- ----- -- ----,203193,203186,202826.12,202815,202842.78,203226.12,,46,to
screen,html.Screen,2_1_0_1_47,2021-04-27T08:30:20.924Z,,,,,,,,,,,,,,,,,53,,,,,,,,,,,,,,506.88000000000466,,response,,,,99,,,,,,,Space,keypress(Space),,,,,,,,"---- -- ----- -- ------ - ------- --- ----------<br>------------- ------ ------ ---- ---- ------- ----- -- ----<br>-------- ------- -- ---------- --- - --- ----- ----- ----<br>---- --- --- ----- --- ---- ---- ------- ----- ---- -------<br>--- --- -- ----- -- --- ---- -- be, ---- -- ------ ------<br>--- ----- -- ----",203739,203733,203209.44,203194,203226.12,203759.44,,47,"be,"
screen,html.Screen,2_1_0_1_48,2021-04-27T08:30:21.432Z,,,,,,,,,,,,,,,,,53,,,,,,,,,,,,,,473.5599999999977,,response,,,,99,,,,,,,Space,keypress(Space),,,,,,,,---- -- ----- -- ------ - ------- --- ----------<br>------------- ------ ------ ---- ---- ------- ----- -- ----<br>-------- ------- -- ---------- --- - --- ----- ----- ----<br>---- --- --- ----- --- ---- ---- ------- ----- ---- -------<br>--- --- -- ----- -- --- ---- -- --- even -- ------ ------<br>--- ----- -- ----,204246,204233,203742.78,203739,203759.44,204276.12,,48,even
screen,html.Screen,2_1_0_1_49,2021-04-27T08:30:21.932Z,,,,,,,,,,,,,,,,,53,,,,,,,,,,,,,,456.88000000000466,,response,,,,99,,,,,,,Space,keypress(Space),,,,,,,,---- -- ----- -- ------ - ------- --- ----------<br>------------- ------ ------ ---- ---- ------- ----- -- ----<br>-------- ------- -- ---------- --- - --- ----- ----- ----<br>---- --- --- ----- --- ---- ---- ------- ----- ---- -------<br>--- --- -- ----- -- --- ---- -- --- ---- if ------ ------<br>--- ----- -- ----,204748,204733,204259.44,204246,204276.12,204776.12,,49,if
screen,html.Screen,2_1_0_1_50,2021-04-27T08:30:22.395Z,,,,,,,,,,,,,,,,,53,,,,,,,,,,,,,,425.88000000000466,,response,,,,99,,,,,,,Space,keypress(Space),,,,,,,,---- -- ----- -- ------ - ------- --- ----------<br>------------- ------ ------ ---- ---- ------- ----- -- ----<br>-------- ------- -- ---------- --- - --- ----- ----- ----<br>---- --- --- ----- --- ---- ---- ------- ----- ---- -------<br>--- --- -- ----- -- --- ---- -- --- ---- -- that's ------<br>--- ----- -- ----,205211,205202,204759.44,204748,204776.12,205242.78,,50,that's
screen,html.Screen,2_1_0_1_51,2021-04-27T08:30:22.857Z,,,,,,,,,,,,,,,,,53,,,,,,,,,,,,,,427.22000000000116,,response,,,,99,,,,,,,Space,keypress(Space),,,,,,,,---- -- ----- -- ------ - ------- --- ----------<br>------------- ------ ------ ---- ---- ------- ----- -- ----<br>-------- ------- -- ---------- --- - --- ----- ----- ----<br>---- --- --- ----- --- ---- ---- ------- ----- ---- -------<br>--- --- -- ----- -- --- ---- -- --- ---- -- ------ really<br>--- ----- -- ----,205672,205670,205226.12,205211,205242.78,205692.78,,51,really
screen,html.Screen,2_1_0_1_52,2021-04-27T08:30:23.384Z,,,,,,,,,,,,,,,,,53,,,,,,,,,,,,,,493.22000000000116,,response,,,,99,,,,,,,Space,keypress(Space),,,,,,,,---- -- ----- -- ------ - ------- --- ----------<br>------------- ------ ------ ---- ---- ------- ----- -- ----<br>-------- ------- -- ---------- --- - --- ----- ----- ----<br>---- --- --- ----- --- ---- ---- ------- ----- ---- -------<br>--- --- -- ----- -- --- ---- -- --- ---- -- ------ ------<br>not ----- -- ----,206200,206186,205676.12,205672,205692.78,206226.12,,52,not
screen,html.Screen,2_1_0_1_53,2021-04-27T08:30:23.867Z,,,,,,,,,,,,,,,,,53,,,,,,,,,,,,,,443.88000000000466,,response,,,,99,,,,,,,Space,keypress(Space),,,,,,,,---- -- ----- -- ------ - ------- --- ----------<br>------------- ------ ------ ---- ---- ------- ----- -- ----<br>-------- ------- -- ---------- --- - --- ----- ----- ----<br>---- --- --- ----- --- ---- ---- ------- ----- ---- -------<br>--- --- -- ----- -- --- ---- -- --- ---- -- ------ ------<br>--- close -- ----,206682,206670,206209.44,206200,206226.12,206709.44,,53,close
screen,html.Screen,2_1_0_1_54,2021-04-27T08:30:24.300Z,,,,,,,,,,,,,,,,,53,,,,,,,,,,,,,,398.5599999999977,,response,,,,99,,,,,,,Space,keypress(Space),,,,,,,,---- -- ----- -- ------ - ------- --- ----------<br>------------- ------ ------ ---- ---- ------- ----- -- ----<br>-------- ------- -- ---------- --- - --- ----- ----- ----<br>---- --- --- ----- --- ---- ---- ------- ----- ---- -------<br>--- --- -- ----- -- --- ---- -- --- ---- -- ------ ------<br>--- ----- at ----,207115,207108,206692.78,206682,206709.44,207142.78,,54,at
screen,html.Screen,2_1_0_1_55,2021-04-27T08:30:27.798Z,,,,,,,,,,,,,,,,,53,,,,,,,,,,,,,,3465.220000000001,,response,,,,99,,,,,,,Space,keypress(Space),,,,,,,,---- -- ----- -- ------ - ------- --- ----------<br>------------- ------ ------ ---- ---- ------- ----- -- ----<br>-------- ------- -- ---------- --- - --- ----- ----- ----<br>---- --- --- ----- --- ---- ---- ------- ----- ---- -------<br>--- --- -- ----- -- --- ---- -- --- ---- -- ------ ------<br>--- ----- -- all.,210613,210608,207126.12,207116,207142.78,210642.78,,55,all.
Item 99,flow.Loop,2_1_0_1,2021-04-27T08:30:27.798Z,,,,,,,,,,,,,,,,,,,,,,,,,,,,,,,29600.140000000014,,completion,,,,,F,,,,,,,,,,,silence,,,,,210614,210608,180991.2,180993,181007.86,210642.78,,,
Question 1,html.Screen,2_1_0_2,2021-04-27T08:30:33.677Z,,,,,,,,,,,,,,,,,,,,,,,,,,,,true,FALSE,,5840.220000000001,,response,,,,99,F,,,,,,FALSE,click #choice-2,,,,silence,,,,,216492,216483,210626.12,210614,210642.78,216509.44,,,
Question 2,html.Screen,2_1_0_3,2021-04-27T08:30:40.002Z,,,,,,,,,,,,,,,,,,,,,,,,,,,,true,TRUE,,6301.559999999998,,response,,,,99,F,,,,,,TRUE,click #choice-1,,,,silence,,,,,222817,222811,216492.78,216492,216509.44,222842.78,,,
Item 99,flow.Sequence,2_1_0,2021-04-27T08:30:40.002Z,,,,,,,,,,,,,,,,,,,,,,,,,,,,,,,51803.140000000014,,completion,,,,,,,,,,,,,,,,,,,,,222817,222811,170991.18,170980,171007.86,222842.78,,,
Holding screen,html.Screen,2_1_1_0,2021-04-27T08:30:50.013Z,,,,,,,,,,,,,,,,,,,,,,,,,,,,,,,10001.380000000005,,timeout,,,,,,,,,,,,,,,,,,,,,232828,232827.48,222826.12,222817,222842.78,232844.16,,,
screen,html.Screen,2_1_1_1_0,2021-04-27T08:30:50.904Z,,,,,,,,,,,,,,,,,54,,,,,,,,,,,,,,872.8399999999965,,response,,,,100,,,,,,,Space,keypress(Space),,,,,,,,At --- ---- --- ------ ----- ------- ---- -- --- ------- --<br>------- ---------- ------ -- ----- -- ----- -- ---- ------<br>--- ----- --- --- ------ -------- ----- --- ------ ----- --<br>----- ----- ---------- --- --- ------ ------ ---- -- ------<br>------- --- ------ ----- --- ---- ------- -- ---- --- --<br>------- ------,233720,233717,232827.48,232828,232844.16,233744.16,,0,At
screen,html.Screen,2_1_1_1_1,2021-04-27T08:30:51.578Z,,,,,,,,,,,,,,,,,54,,,,,,,,,,,,,,644.8399999999965,,response,,,,100,,,,,,,Space,keypress(Space),,,,,,,,-- the ---- --- ------ ----- ------- ---- -- --- ------- --<br>------- ---------- ------ -- ----- -- ----- -- ---- ------<br>--- ----- --- --- ------ -------- ----- --- ------ ----- --<br>----- ----- ---------- --- --- ------ ------ ---- -- ------<br>------- --- ------ ----- --- ---- ------- -- ---- --- --<br>------- ------,234394,234389,233727.48,233720,233744.16,234410.82,,1,the
screen,html.Screen,2_1_1_1_2,2021-04-27T08:30:52.059Z,,,,,,,,,,,,,,,,,54,,,,,,,,,,,,,,447.179999999993,,response,,,,100,,,,,,,Space,keypress(Space),,,,,,,,-- --- time --- ------ ----- ------- ---- -- --- ------- --<br>------- ---------- ------ -- ----- -- ----- -- ---- ------<br>--- ----- --- --- ------ -------- ----- --- ------ ----- --<br>----- ----- ---------- --- --- ------ ------ ---- -- ------<br>------- --- ------ ----- --- ---- ------- -- ---- --- --<br>------- ------,234874,234858,234394.16,234394,234410.82,234894.16,,2,time
screen,html.Screen,2_1_1_1_3,2021-04-27T08:30:52.480Z,,,,,,,,,,,,,,,,,54,,,,,,,,,,,,,,385.8399999999965,,response,,,,100,,,,,,,Space,keypress(Space),,,,,,,,-- --- ---- the ------ ----- ------- ---- -- --- ------- --<br>------- ---------- ------ -- ----- -- ----- -- ---- ------<br>--- ----- --- --- ------ -------- ----- --- ------ ----- --<br>----- ----- ---------- --- --- ------ ------ ---- -- ------<br>------- --- ------ ----- --- ---- ------- -- ---- --- --<br>------- ------,235295,235280,234877.48,234874,234894.16,235327.48,,3,the
screen,html.Screen,2_1_1_1_4,2021-04-27T08:30:52.968Z,,,,,,,,,,,,,,,,,54,,,,,,,,,,,,,,452.5199999999895,,response,,,,100,,,,,,,Space,keypress(Space),,,,,,,,-- --- ---- --- French ----- ------- ---- -- --- ------- --<br>------- ---------- ------ -- ----- -- ----- -- ---- ------<br>--- ----- --- --- ------ -------- ----- --- ------ ----- --<br>----- ----- ---------- --- --- ------ ------ ---- -- ------<br>------- --- ------ ----- --- ---- ------- -- ---- --- --<br>------- ------,235783,235780,235310.82,235296,235327.48,235810.82,,4,French
screen,html.Screen,2_1_1_1_5,2021-04-27T08:30:53.410Z,,,,,,,,,,,,,,,,,54,,,,,,,,,,,,,,406.179999999993,,response,,,,100,,,,,,,Space,keypress(Space),,,,,,,,-- --- ---- --- ------ crown ------- ---- -- --- ------- --<br>------- ---------- ------ -- ----- -- ----- -- ---- ------<br>--- ----- --- --- ------ -------- ----- --- ------ ----- --<br>----- ----- ---------- --- --- ------ ------ ---- -- ------<br>------- --- ------ ----- --- ---- ------- -- ---- --- --<br>------- ------,236224,236217,235794.16,235783,235810.82,236244.16,,5,crown
screen,html.Screen,2_1_1_1_6,2021-04-27T08:30:53.981Z,,,,,,,,,,,,,,,,,54,,,,,,,,,,,,,,535.8399999999965,,response,,,,100,,,,,,,Space,keypress(Space),,,,,,,,-- --- ---- --- ------ ----- secured ---- -- --- ------- --<br>------- ---------- ------ -- ----- -- ----- -- ---- ------<br>--- ----- --- --- ------ -------- ----- --- ------ ----- --<br>----- ----- ---------- --- --- ------ ------ ---- -- ------<br>------- --- ------ ----- --- ---- ------- -- ---- --- --<br>------- ------,236796,236780,236227.48,236225,236244.16,236827.48,,6,secured
screen,html.Screen,2_1_1_1_7,2021-04-27T08:30:54.464Z,,,,,,,,,,,,,,,,,54,,,,,,,,,,,,,,436.5199999999895,,response,,,,100,,,,,,,Space,keypress(Space),,,,,,,,-- --- ---- --- ------ ----- ------- much -- --- ------- --<br>------- ---------- ------ -- ----- -- ----- -- ---- ------<br>--- ----- --- --- ------ -------- ----- --- ------ ----- --<br>----- ----- ---------- --- --- ------ ------ ---- -- ------<br>------- --- ------ ----- --- ---- ------- -- ---- --- --<br>------- ------,237278,237264,236810.82,236796,236827.48,237310.82,,7,much
screen,html.Screen,2_1_1_1_8,2021-04-27T08:30:54.863Z,,,,,,,,,,,,,,,,,54,,,,,,,,,,,,,,359.179999999993,,response,,,,100,,,,,,,Space,keypress(Space),,,,,,,,-- --- ---- --- ------ ----- ------- ---- of --- ------- --<br>------- ---------- ------ -- ----- -- ----- -- ---- ------<br>--- ----- --- --- ------ -------- ----- --- ------ ----- --<br>----- ----- ---------- --- --- ------ ------ ---- -- ------<br>------- --- ------ ----- --- ---- ------- -- ---- --- --<br>------- ------,237678,237670,237294.16,237279,237310.82,237710.82,,8,of
screen,html.Screen,2_1_1_1_9,2021-04-27T08:30:55.093Z,,,,,,,,,,,,,,,,,54,,,,,,,,,,,,,,194.17999999999302,,response,,,,100,,,,,,,Space,keypress(Space),,,,,,,,-- --- ---- --- ------ ----- ------- ---- -- its ------- --<br>------- ---------- ------ -- ----- -- ----- -- ---- ------<br>--- ----- --- --- ------ -------- ----- --- ------ ----- --<br>----- ----- ---------- --- --- ------ ------ ---- -- ------<br>------- --- ------ ----- --- ---- ------- -- ---- --- --<br>------- ------,237908,237905,237694.16,237678,237710.82,237927.48,,9,its
screen,html.Screen,2_1_1_1_10,2021-04-27T08:30:56.045Z,,,,,,,,,,,,,,,,,54,,,,,,,,,,,,,,930.5199999999895,,response,,,,100,,,,,,,Space,keypress(Space),,,,,,,,-- --- ---- --- ------ ----- ------- ---- -- --- revenue --<br>------- ---------- ------ -- ----- -- ----- -- ---- ------<br>--- ----- --- --- ------ -------- ----- --- ------ ----- --<br>----- ----- ---------- --- --- ------ ------ ---- -- ------<br>------- --- ------ ----- --- ---- ------- -- ---- --- --<br>------- ------,238860,238858,237910.82,237908,237927.48,238877.48,,10,revenue
screen,html.Screen,2_1_1_1_11,2021-04-27T08:30:56.489Z,,,,,,,,,,,,,,,,,54,,,,,,,,,,,,,,417.5199999999895,,response,,,,100,,,,,,,Space,keypress(Space),,,,,,,,-- --- ---- --- ------ ----- ------- ---- -- --- ------- by<br>------- ---------- ------ -- ----- -- ----- -- ---- ------<br>--- ----- --- --- ------ -------- ----- --- ------ ----- --<br>----- ----- ---------- --- --- ------ ------ ---- -- ------<br>------- --- ------ ----- --- ---- ------- -- ---- --- --<br>------- ------,239304,239295,238860.82,238860,238877.48,239327.48,,11,by
screen,html.Screen,2_1_1_1_12,2021-04-27T08:30:57.100Z,,,,,,,,,,,,,,,,,54,,,,,,,,,,,,,,577.5199999999895,,response,,,,100,,,,,,,Space,keypress(Space),,,,,,,,-- --- ---- --- ------ ----- ------- ---- -- --- ------- --<br>issuing ---------- ------ -- ----- -- ----- -- ---- ------<br>--- ----- --- --- ------ -------- ----- --- ------ ----- --<br>----- ----- ---------- --- --- ------ ------ ---- -- ------<br>------- --- ------ ----- --- ---- ------- -- ---- --- --<br>------- ------,239915,239905,239310.82,239304,239327.48,239944.16,,12,issuing
screen,html.Screen,2_1_1_1_13,2021-04-27T08:30:57.699Z,,,,,,,,,,,,,,,,,54,,,,,,,,,,,,,,554.8399999999965,,response,,,,100,,,,,,,Space,keypress(Space),,,,,,,,-- --- ---- --- ------ ----- ------- ---- -- --- ------- --<br>------- government ------ -- ----- -- ----- -- ---- ------<br>--- ----- --- --- ------ -------- ----- --- ------ ----- --<br>----- ----- ---------- --- --- ------ ------ ---- -- ------<br>------- --- ------ ----- --- ---- ------- -- ---- --- --<br>------- ------,240514,240499,239927.48,239916,239944.16,240544.16,,13,government
screen,html.Screen,2_1_1_1_14,2021-04-27T08:30:58.527Z,,,,,,,,,,,,,,,,,54,,,,,,,,,,,,,,782.8399999999965,,response,,,,100,,,,,,,Space,keypress(Space),,,,,,,,-- --- ---- --- ------ ----- ------- ---- -- --- ------- --<br>------- ---------- bonds. -- ----- -- ----- -- ---- ------<br>--- ----- --- --- ------ -------- ----- --- ------ ----- --<br>----- ----- ---------- --- --- ------ ------ ---- -- ------<br>------- --- ------ ----- --- ---- ------- -- ---- --- --<br>------- ------,241342,241327,240527.48,240514,240544.16,241360.82,,14,bonds.
screen,html.Screen,2_1_1_1_15,2021-04-27T08:30:59.066Z,,,,,,,,,,,,,,,,,54,,,,,,,,,,,,,,513.179999999993,,response,,,,100,,,,,,,Space,keypress(Space),,,,,,,,-- --- ---- --- ------ ----- ------- ---- -- --- ------- --<br>------- ---------- ------ In ----- -- ----- -- ---- ------<br>--- ----- --- --- ------ -------- ----- --- ------ ----- --<br>----- ----- ---------- --- --- ------ ------ ---- -- ------<br>------- --- ------ ----- --- ---- ------- -- ---- --- --<br>------- ------,241881,241874,241344.16,241343,241360.82,241910.82,,15,In
screen,html.Screen,2_1_1_1_16,2021-04-27T08:31:00.778Z,,,,,,,,,,,,,,,,,54,,,,,,,,,,,,,,1681.179999999993,,response,,,,100,,,,,,,Space,keypress(Space),,,,,,,,"-- --- ---- --- ------ ----- ------- ---- -- --- ------- --<br>------- ---------- ------ -- 1727, -- ----- -- ---- ------<br>--- ----- --- --- ------ -------- ----- --- ------ ----- --<br>----- ----- ---------- --- --- ------ ------ ---- -- ------<br>------- --- ------ ----- --- ---- ------- -- ---- --- --<br>------- ------",243594,243592,241894.16,241881,241910.82,243610.82,,16,"1727,"
screen,html.Screen,2_1_1_1_17,2021-04-27T08:31:01.217Z,,,,,,,,,,,,,,,,,54,,,,,,,,,,,,,,419.179999999993,,response,,,,100,,,,,,,Space,keypress(Space),,,,,,,,-- --- ---- --- ------ ----- ------- ---- -- --- ------- --<br>------- ---------- ------ -- ----- in ----- -- ---- ------<br>--- ----- --- --- ------ -------- ----- --- ------ ----- --<br>----- ----- ---------- --- --- ------ ------ ---- -- ------<br>------- --- ------ ----- --- ---- ------- -- ---- --- --<br>------- ------,244033,244030,243594.16,243594,243610.82,244060.82,,17,in
screen,html.Screen,2_1_1_1_18,2021-04-27T08:31:01.617Z,,,,,,,,,,,,,,,,,54,,,,,,,,,,,,,,359.179999999993,,response,,,,100,,,,,,,Space,keypress(Space),,,,,,,,-- --- ---- --- ------ ----- ------- ---- -- --- ------- --<br>------- ---------- ------ -- ----- -- order -- ---- ------<br>--- ----- --- --- ------ -------- ----- --- ------ ----- --<br>----- ----- ---------- --- --- ------ ------ ---- -- ------<br>------- --- ------ ----- --- ---- ------- -- ---- --- --<br>------- ------,244433,244420,244044.16,244033,244060.82,244460.82,,18,order
screen,html.Screen,2_1_1_1_19,2021-04-27T08:31:01.989Z,,,,,,,,,,,,,,,,,54,,,,,,,,,,,,,,335.179999999993,,response,,,,100,,,,,,,Space,keypress(Space),,,,,,,,-- --- ---- --- ------ ----- ------- ---- -- --- ------- --<br>------- ---------- ------ -- ----- -- ----- to ---- ------<br>--- ----- --- --- ------ -------- ----- --- ------ ----- --<br>----- ----- ---------- --- --- ------ ------ ---- -- ------<br>------- --- ------ ----- --- ---- ------- -- ---- --- --<br>------- ------,244804,244796,244444.16,244433,244460.82,244827.48,,19,to
screen,html.Screen,2_1_1_1_20,2021-04-27T08:31:02.473Z,,,,,,,,,,,,,,,,,54,,,,,,,,,,,,,,452.5199999999895,,response,,,,100,,,,,,,Space,keypress(Space),,,,,,,,-- --- ---- --- ------ ----- ------- ---- -- --- ------- --<br>------- ---------- ------ -- ----- -- ----- -- save ------<br>--- ----- --- --- ------ -------- ----- --- ------ ----- --<br>----- ----- ---------- --- --- ------ ------ ---- -- ------<br>------- --- ------ ----- --- ---- ------- -- ---- --- --<br>------- ------,245288,245280,244810.82,244804,244827.48,245310.82,,20,save
screen,html.Screen,2_1_1_1_21,2021-04-27T08:31:02.848Z,,,,,,,,,,,,,,,,,54,,,,,,,,,,,,,,344.179999999993,,response,,,,100,,,,,,,Space,keypress(Space),,,,,,,,"-- --- ---- --- ------ ----- ------- ---- -- --- ------- --<br>------- ---------- ------ -- ----- -- ----- -- ---- money,<br>--- ----- --- --- ------ -------- ----- --- ------ ----- --<br>----- ----- ---------- --- --- ------ ------ ---- -- ------<br>------- --- ------ ----- --- ---- ------- -- ---- --- --<br>------- ------",245664,245655,245294.16,245288,245310.82,245694.16,,21,"money,"
screen,html.Screen,2_1_1_1_22,2021-04-27T08:31:03.483Z,,,,,,,,,,,,,,,,,54,,,,,,,,,,,,,,600.8399999999965,,response,,,,100,,,,,,,Space,keypress(Space),,,,,,,,-- --- ---- --- ------ ----- ------- ---- -- --- ------- --<br>------- ---------- ------ -- ----- -- ----- -- ---- ------<br>the ----- --- --- ------ -------- ----- --- ------ ----- --<br>----- ----- ---------- --- --- ------ ------ ---- -- ------<br>------- --- ------ ----- --- ---- ------- -- ---- --- --<br>------- ------,246299,246295,245677.48,245664,245694.16,246327.48,,22,the
screen,html.Screen,2_1_1_1_23,2021-04-27T08:31:03.783Z,,,,,,,,,,,,,,,,,54,,,,,,,,,,,,,,264.5199999999895,,response,,,,100,,,,,,,Space,keypress(Space),,,,,,,,-- --- ---- --- ------ ----- ------- ---- -- --- ------- --<br>------- ---------- ------ -- ----- -- ----- -- ---- ------<br>--- state --- --- ------ -------- ----- --- ------ ----- --<br>----- ----- ---------- --- --- ------ ------ ---- -- ------<br>------- --- ------ ----- --- ---- ------- -- ---- --- --<br>------- ------,246597,246592,246310.82,246299,246327.48,246627.48,,23,state
screen,html.Screen,2_1_1_1_24,2021-04-27T08:31:04.334Z,,,,,,,,,,,,,,,,,54,,,,,,,,,,,,,,511.5199999999895,,response,,,,100,,,,,,,Space,keypress(Space),,,,,,,,-- --- ---- --- ------ ----- ------- ---- -- --- ------- --<br>------- ---------- ------ -- ----- -- ----- -- ---- ------<br>--- ----- cut --- ------ -------- ----- --- ------ ----- --<br>----- ----- ---------- --- --- ------ ------ ---- -- ------<br>------- --- ------ ----- --- ---- ------- -- ---- --- --<br>------- ------,247150,247139,246610.82,246598,246627.48,247177.48,,24,cut
screen,html.Screen,2_1_1_1_25,2021-04-27T08:31:04.920Z,,,,,,,,,,,,,,,,,54,,,,,,,,,,,,,,555.5199999999895,,response,,,,100,,,,,,,Space,keypress(Space),,,,,,,,-- --- ---- --- ------ ----- ------- ---- -- --- ------- --<br>------- ---------- ------ -- ----- -- ----- -- ---- ------<br>--- ----- --- the ------ -------- ----- --- ------ ----- --<br>----- ----- ---------- --- --- ------ ------ ---- -- ------<br>------- --- ------ ----- --- ---- ------- -- ---- --- --<br>------- ------,247735,247733,247160.82,247150,247177.48,247760.82,,25,the
screen,html.Screen,2_1_1_1_26,2021-04-27T08:31:05.606Z,,,,,,,,,,,,,,,,,54,,,,,,,,,,,,,,644.179999999993,,response,,,,100,,,,,,,Space,keypress(Space),,,,,,,,-- --- ---- --- ------ ----- ------- ---- -- --- ------- --<br>------- ---------- ------ -- ----- -- ----- -- ---- ------<br>--- ----- --- --- bonds' -------- ----- --- ------ ----- --<br>----- ----- ---------- --- --- ------ ------ ---- -- ------<br>------- --- ------ ----- --- ---- ------- -- ---- --- --<br>------- ------,248421,248405,247744.16,247735,247760.82,248444.16,,26,bonds'
screen,html.Screen,2_1_1_1_27,2021-04-27T08:31:06.295Z,,,,,,,,,,,,,,,,,54,,,,,,,,,,,,,,663.8399999999965,,response,,,,100,,,,,,,Space,keypress(Space),,,,,,,,-- --- ---- --- ------ ----- ------- ---- -- --- ------- --<br>------- ---------- ------ -- ----- -- ----- -- ---- ------<br>--- ----- --- --- ------ interest ----- --- ------ ----- --<br>----- ----- ---------- --- --- ------ ------ ---- -- ------<br>------- --- ------ ----- --- ---- ------- -- ---- --- --<br>------- ------,249110,249108,248427.48,248421,248444.16,249127.48,,27,interest
screen,html.Screen,2_1_1_1_28,2021-04-27T08:31:06.723Z,,,,,,,,,,,,,,,,,54,,,,,,,,,,,,,,403.5199999999895,,response,,,,100,,,,,,,Space,keypress(Space),,,,,,,,-- --- ---- --- ------ ----- ------- ---- -- --- ------- --<br>------- ---------- ------ -- ----- -- ----- -- ---- ------<br>--- ----- --- --- ------ -------- rate. --- ------ ----- --<br>----- ----- ---------- --- --- ------ ------ ---- -- ------<br>------- --- ------ ----- --- ---- ------- -- ---- --- --<br>------- ------,249539,249531,249110.82,249110,249127.48,249560.82,,28,rate.
screen,html.Screen,2_1_1_1_29,2021-04-27T08:31:07.563Z,,,,,,,,,,,,,,,,,54,,,,,,,,,,,,,,814.179999999993,,response,,,,100,,,,,,,Space,keypress(Space),,,,,,,,-- --- ---- --- ------ ----- ------- ---- -- --- ------- --<br>------- ---------- ------ -- ----- -- ----- -- ---- ------<br>--- ----- --- --- ------ -------- ----- The ------ ----- --<br>----- ----- ---------- --- --- ------ ------ ---- -- ------<br>------- --- ------ ----- --- ---- ------- -- ---- --- --<br>------- ------,250378,250375,249544.16,249539,249560.82,250410.82,,29,The
screen,html.Screen,2_1_1_1_30,2021-04-27T08:31:07.987Z,,,,,,,,,,,,,,,,,54,,,,,,,,,,,,,,384.179999999993,,response,,,,100,,,,,,,Space,keypress(Space),,,,,,,,-- --- ---- --- ------ ----- ------- ---- -- --- ------- --<br>------- ---------- ------ -- ----- -- ----- -- ---- ------<br>--- ----- --- --- ------ -------- ----- --- market ----- --<br>----- ----- ---------- --- --- ------ ------ ---- -- ------<br>------- --- ------ ----- --- ---- ------- -- ---- --- --<br>------- ------,250802,250795,250394.16,250378,250410.82,250827.48,,30,market
screen,html.Screen,2_1_1_1_31,2021-04-27T08:31:08.397Z,,,,,,,,,,,,,,,,,54,,,,,,,,,,,,,,375.5199999999895,,response,,,,100,,,,,,,Space,keypress(Space),,,,,,,,-- --- ---- --- ------ ----- ------- ---- -- --- ------- --<br>------- ---------- ------ -- ----- -- ----- -- ---- ------<br>--- ----- --- --- ------ -------- ----- --- ------ value --<br>----- ----- ---------- --- --- ------ ------ ---- -- ------<br>------- --- ------ ----- --- ---- ------- -- ---- --- --<br>------- ------,251213,251203,250810.82,250802,250827.48,251244.16,,31,value
screen,html.Screen,2_1_1_1_32,2021-04-27T08:31:08.790Z,,,,,,,,,,,,,,,,,54,,,,,,,,,,,,,,347.8399999999965,,response,,,,100,,,,,,,Space,keypress(Space),,,,,,,,-- --- ---- --- ------ ----- ------- ---- -- --- ------- --<br>------- ---------- ------ -- ----- -- ----- -- ---- ------<br>--- ----- --- --- ------ -------- ----- --- ------ ----- of<br>----- ----- ---------- --- --- ------ ------ ---- -- ------<br>------- --- ------ ----- --- ---- ------- -- ---- --- --<br>------- ------,251605,251592,251227.48,251213,251244.16,251627.48,,32,of
screen,html.Screen,2_1_1_1_33,2021-04-27T08:31:09.201Z,,,,,,,,,,,,,,,,,54,,,,,,,,,,,,,,386.5199999999895,,response,,,,100,,,,,,,Space,keypress(Space),,,,,,,,-- --- ---- --- ------ ----- ------- ---- -- --- ------- --<br>------- ---------- ------ -- ----- -- ----- -- ---- ------<br>--- ----- --- --- ------ -------- ----- --- ------ ----- --<br>these ----- ---------- --- --- ------ ------ ---- -- ------<br>------- --- ------ ----- --- ---- ------- -- ---- --- --<br>------- ------,252016,252014,251610.82,251605,251627.48,252044.16,,33,these
screen,html.Screen,2_1_1_1_34,2021-04-27T08:31:09.620Z,,,,,,,,,,,,,,,,,54,,,,,,,,,,,,,,375.8399999999965,,response,,,,100,,,,,,,Space,keypress(Space),,,,,,,,-- --- ---- --- ------ ----- ------- ---- -- --- ------- --<br>------- ---------- ------ -- ----- -- ----- -- ---- ------<br>--- ----- --- --- ------ -------- ----- --- ------ ----- --<br>----- bonds ---------- --- --- ------ ------ ---- -- ------<br>------- --- ------ ----- --- ---- ------- -- ---- --- --<br>------- ------,252435,252420,252027.48,252016,252044.16,252462.18,,34,bonds
screen,html.Screen,2_1_1_1_35,2021-04-27T08:31:10.422Z,,,,,,,,,,,,,,,,,54,,,,,,,,,,,,,,770.820000000007,,response,,,,100,,,,,,,Space,keypress(Space),,,,,,,,"-- --- ---- --- ------ ----- ------- ---- -- --- ------- --<br>------- ---------- ------ -- ----- -- ----- -- ---- ------<br>--- ----- --- --- ------ -------- ----- --- ------ ----- --<br>----- ----- plummeted, --- --- ------ ------ ---- -- ------<br>------- --- ------ ----- --- ---- ------- -- ---- --- --<br>------- ------",253237,253233,252445.52,252436,252462.18,253262.18,,35,"plummeted,"
screen,html.Screen,2_1_1_1_36,2021-04-27T08:31:10.882Z,,,,,,,,,,,,,,,,,54,,,,,,,,,,,,,,423.820000000007,,response,,,,100,,,,,,,Space,keypress(Space),,,,,,,,-- --- ---- --- ------ ----- ------- ---- -- --- ------- --<br>------- ---------- ------ -- ----- -- ----- -- ---- ------<br>--- ----- --- --- ------ -------- ----- --- ------ ----- --<br>----- ----- ---------- and --- ------ ------ ---- -- ------<br>------- --- ------ ----- --- ---- ------- -- ---- --- --<br>------- ------,253697,253686,253245.52,253237,253262.18,253728.84,,36,and
screen,html.Screen,2_1_1_1_37,2021-04-27T08:31:11.313Z,,,,,,,,,,,,,,,,,54,,,,,,,,,,,,,,395.1600000000035,,response,,,,100,,,,,,,Space,keypress(Space),,,,,,,,-- --- ---- --- ------ ----- ------- ---- -- --- ------- --<br>------- ---------- ------ -- ----- -- ----- -- ---- ------<br>--- ----- --- --- ------ -------- ----- --- ------ ----- --<br>----- ----- ---------- --- the ------ ------ ---- -- ------<br>------- --- ------ ----- --- ---- ------- -- ---- --- --<br>------- ------,254127,254124,253712.18,253697,253728.84,254145.52,,37,the
screen,html.Screen,2_1_1_1_38,2021-04-27T08:31:11.705Z,,,,,,,,,,,,,,,,,54,,,,,,,,,,,,,,368.4800000000105,,response,,,,100,,,,,,,Space,keypress(Space),,,,,,,,-- --- ---- --- ------ ----- ------- ---- -- --- ------- --<br>------- ---------- ------ -- ----- -- ----- -- ---- ------<br>--- ----- --- --- ------ -------- ----- --- ------ ----- --<br>----- ----- ---------- --- --- market ------ ---- -- ------<br>------- --- ------ ----- --- ---- ------- -- ---- --- --<br>------- ------,254521,254514,254128.84,254127,254145.52,254545.52,,38,market
screen,html.Screen,2_1_1_1_39,2021-04-27T08:31:12.128Z,,,,,,,,,,,,,,,,,54,,,,,,,,,,,,,,390.4800000000105,,response,,,,100,,,,,,,Space,keypress(Space),,,,,,,,-- --- ---- --- ------ ----- ------- ---- -- --- ------- --<br>------- ---------- ------ -- ----- -- ----- -- ---- ------<br>--- ----- --- --- ------ -------- ----- --- ------ ----- --<br>----- ----- ---------- --- --- ------ became ---- -- ------<br>------- --- ------ ----- --- ---- ------- -- ---- --- --<br>------- ------,254944,254936,254528.84,254521,254545.52,254962.18,,39,became
screen,html.Screen,2_1_1_1_40,2021-04-27T08:31:12.518Z,,,,,,,,,,,,,,,,,54,,,,,,,,,,,,,,364.820000000007,,response,,,,100,,,,,,,Space,keypress(Space),,,,,,,,-- --- ---- --- ------ ----- ------- ---- -- --- ------- --<br>------- ---------- ------ -- ----- -- ----- -- ---- ------<br>--- ----- --- --- ------ -------- ----- --- ------ ----- --<br>----- ----- ---------- --- --- ------ ------ wary -- ------<br>------- --- ------ ----- --- ---- ------- -- ---- --- --<br>------- ------,255333,255327,254945.52,254944,254962.18,255362.18,,40,wary
screen,html.Screen,2_1_1_1_41,2021-04-27T08:31:13.027Z,,,,,,,,,,,,,,,,,54,,,,,,,,,,,,,,464.820000000007,,response,,,,100,,,,,,,Space,keypress(Space),,,,,,,,-- --- ---- --- ------ ----- ------- ---- -- --- ------- --<br>------- ---------- ------ -- ----- -- ----- -- ---- ------<br>--- ----- --- --- ------ -------- ----- --- ------ ----- --<br>----- ----- ---------- --- --- ------ ------ ---- of ------<br>------- --- ------ ----- --- ---- ------- -- ---- --- --<br>------- ------,255842,255827,255345.52,255333,255362.18,255862.18,,41,of
screen,html.Screen,2_1_1_1_42,2021-04-27T08:31:13.471Z,,,,,,,,,,,,,,,,,54,,,,,,,,,,,,,,417.820000000007,,response,,,,100,,,,,,,Space,keypress(Space),,,,,,,,-- --- ---- --- ------ ----- ------- ---- -- --- ------- --<br>------- ---------- ------ -- ----- -- ----- -- ---- ------<br>--- ----- --- --- ------ -------- ----- --- ------ ----- --<br>----- ----- ---------- --- --- ------ ------ ---- -- French<br>------- --- ------ ----- --- ---- ------- -- ---- --- --<br>------- ------,256287,256280,255845.52,255842,255862.18,256312.18,,42,French
screen,html.Screen,2_1_1_1_43,2021-04-27T08:31:14.899Z,,,,,,,,,,,,,,,,,54,,,,,,,,,,,,,,1389.820000000007,,response,,,,100,,,,,,,Space,keypress(Space),,,,,,,,-- --- ---- --- ------ ----- ------- ---- -- --- ------- --<br>------- ---------- ------ -- ----- -- ----- -- ---- ------<br>--- ----- --- --- ------ -------- ----- --- ------ ----- --<br>----- ----- ---------- --- --- ------ ------ ---- -- ------<br>credit. --- ------ ----- --- ---- ------- -- ---- --- --<br>------- ------,257715,257702,256295.52,256287,256312.18,257745.52,,43,credit.
screen,html.Screen,2_1_1_1_44,2021-04-27T08:31:15.442Z,,,,,,,,,,,,,,,,,54,,,,,,,,,,,,,,503.4800000000105,,response,,,,100,,,,,,,Space,keypress(Space),,,,,,,,-- --- ---- --- ------ ----- ------- ---- -- --- ------- --<br>------- ---------- ------ -- ----- -- ----- -- ---- ------<br>--- ----- --- --- ------ -------- ----- --- ------ ----- --<br>----- ----- ---------- --- --- ------ ------ ---- -- ------<br>------- The ------ ----- --- ---- ------- -- ---- --- --<br>------- ------,258257,258249,257728.84,257715,257745.52,258278.84,,44,The
screen,html.Screen,2_1_1_1_45,2021-04-27T08:31:16.001Z,,,,,,,,,,,,,,,,,54,,,,,,,,,,,,,,532.1600000000035,,response,,,,100,,,,,,,Space,keypress(Space),,,,,,,,-- --- ---- --- ------ ----- ------- ---- -- --- ------- --<br>------- ---------- ------ -- ----- -- ----- -- ---- ------<br>--- ----- --- --- ------ -------- ----- --- ------ ----- --<br>----- ----- ---------- --- --- ------ ------ ---- -- ------<br>------- --- French ----- --- ---- ------- -- ---- --- --<br>------- ------,258816,258811,258262.18,258257,258278.84,258845.52,,45,French
screen,html.Screen,2_1_1_1_46,2021-04-27T08:31:16.673Z,,,,,,,,,,,,,,,,,54,,,,,,,,,,,,,,637.4800000000105,,response,,,,100,,,,,,,Space,keypress(Space),,,,,,,,-- --- ---- --- ------ ----- ------- ---- -- --- ------- --<br>------- ---------- ------ -- ----- -- ----- -- ---- ------<br>--- ----- --- --- ------ -------- ----- --- ------ ----- --<br>----- ----- ---------- --- --- ------ ------ ---- -- ------<br>------- --- ------ state --- ---- ------- -- ---- --- --<br>------- ------,259489,259483,258828.84,258816,258845.52,259512.18,,46,state
screen,html.Screen,2_1_1_1_47,2021-04-27T08:31:17.025Z,,,,,,,,,,,,,,,,,54,,,,,,,,,,,,,,314.820000000007,,response,,,,100,,,,,,,Space,keypress(Space),,,,,,,,-- --- ---- --- ------ ----- ------- ---- -- --- ------- --<br>------- ---------- ------ -- ----- -- ----- -- ---- ------<br>--- ----- --- --- ------ -------- ----- --- ------ ----- --<br>----- ----- ---------- --- --- ------ ------ ---- -- ------<br>------- --- ------ ----- was ---- ------- -- ---- --- --<br>------- ------,259841,259827,259495.52,259489,259512.18,259862.18,,47,was
screen,html.Screen,2_1_1_1_48,2021-04-27T08:31:17.565Z,,,,,,,,,,,,,,,,,54,,,,,,,,,,,,,,511.820000000007,,response,,,,100,,,,,,,Space,keypress(Space),,,,,,,,-- --- ---- --- ------ ----- ------- ---- -- --- ------- --<br>------- ---------- ------ -- ----- -- ----- -- ---- ------<br>--- ----- --- --- ------ -------- ----- --- ------ ----- --<br>----- ----- ---------- --- --- ------ ------ ---- -- ------<br>------- --- ------ ----- --- left ------- -- ---- --- --<br>------- ------,260380,260374,259845.52,259841,259862.18,260412.18,,48,left
screen,html.Screen,2_1_1_1_49,2021-04-27T08:31:18.107Z,,,,,,,,,,,,,,,,,54,,,,,,,,,,,,,,507.820000000007,,response,,,,100,,,,,,,Space,keypress(Space),,,,,,,,-- --- ---- --- ------ ----- ------- ---- -- --- ------- --<br>------- ---------- ------ -- ----- -- ----- -- ---- ------<br>--- ----- --- --- ------ -------- ----- --- ------ ----- --<br>----- ----- ---------- --- --- ------ ------ ---- -- ------<br>------- --- ------ ----- --- ---- without -- ---- --- --<br>------- ------,260923,260920,260395.52,260380,260412.18,260945.52,,49,without
screen,html.Screen,2_1_1_1_50,2021-04-27T08:31:18.564Z,,,,,,,,,,,,,,,,,54,,,,,,,,,,,,,,428.4800000000105,,response,,,,100,,,,,,,Space,keypress(Space),,,,,,,,-- --- ---- --- ------ ----- ------- ---- -- --- ------- --<br>------- ---------- ------ -- ----- -- ----- -- ---- ------<br>--- ----- --- --- ------ -------- ----- --- ------ ----- --<br>----- ----- ---------- --- --- ------ ------ ---- -- ------<br>------- --- ------ ----- --- ---- ------- an ---- --- --<br>------- ------,261380,261374,260928.84,260923,260945.52,261412.18,,50,an
screen,html.Screen,2_1_1_1_51,2021-04-27T08:31:19.017Z,,,,,,,,,,,,,,,,,54,,,,,,,,,,,,,,414.820000000007,,response,,,,100,,,,,,,Space,keypress(Space),,,,,,,,-- --- ---- --- ------ ----- ------- ---- -- --- ------- --<br>------- ---------- ------ -- ----- -- ----- -- ---- ------<br>--- ----- --- --- ------ -------- ----- --- ------ ----- --<br>----- ----- ---------- --- --- ------ ------ ---- -- ------<br>------- --- ------ ----- --- ---- ------- -- easy --- --<br>------- ------,261833,261827,261395.52,261380,261412.18,261862.18,,51,easy
screen,html.Screen,2_1_1_1_52,2021-04-27T08:31:19.470Z,,,,,,,,,,,,,,,,,54,,,,,,,,,,,,,,418.820000000007,,response,,,,100,,,,,,,Space,keypress(Space),,,,,,,,-- --- ---- --- ------ ----- ------- ---- -- --- ------- --<br>------- ---------- ------ -- ----- -- ----- -- ---- ------<br>--- ----- --- --- ------ -------- ----- --- ------ ----- --<br>----- ----- ---------- --- --- ------ ------ ---- -- ------<br>------- --- ------ ----- --- ---- ------- -- ---- way --<br>------- ------,262286,262281,261845.52,261833,261862.18,262312.18,,52,way
screen,html.Screen,2_1_1_1_53,2021-04-27T08:31:19.914Z,,,,,,,,,,,,,,,,,54,,,,,,,,,,,,,,404.820000000007,,response,,,,100,,,,,,,Space,keypress(Space),,,,,,,,-- --- ---- --- ------ ----- ------- ---- -- --- ------- --<br>------- ---------- ------ -- ----- -- ----- -- ---- ------<br>--- ----- --- --- ------ -------- ----- --- ------ ----- --<br>----- ----- ---------- --- --- ------ ------ ---- -- ------<br>------- --- ------ ----- --- ---- ------- -- ---- --- of<br>------- ------,262729,262717,262295.52,262286,262312.18,262762.18,,53,of
screen,html.Screen,2_1_1_1_54,2021-04-27T08:31:20.615Z,,,,,,,,,,,,,,,,,54,,,,,,,,,,,,,,657.820000000007,,response,,,,100,,,,,,,Space,keypress(Space),,,,,,,,-- --- ---- --- ------ ----- ------- ---- -- --- ------- --<br>------- ---------- ------ -- ----- -- ----- -- ---- ------<br>--- ----- --- --- ------ -------- ----- --- ------ ----- --<br>----- ----- ---------- --- --- ------ ------ ---- -- ------<br>------- --- ------ ----- --- ---- ------- -- ---- --- --<br>raising ------,263430,263420,262745.52,262729,262762.18,263462.18,,54,raising
screen,html.Screen,2_1_1_1_55,2021-04-27T08:31:21.737Z,,,,,,,,,,,,,,,,,54,,,,,,,,,,,,,,1082.820000000007,,response,,,,100,,,,,,,Space,keypress(Space),,,,,,,,-- --- ---- --- ------ ----- ------- ---- -- --- ------- --<br>------- ---------- ------ -- ----- -- ----- -- ---- ------<br>--- ----- --- --- ------ -------- ----- --- ------ ----- --<br>----- ----- ---------- --- --- ------ ------ ---- -- ------<br>------- --- ------ ----- --- ---- ------- -- ---- --- --<br>------- money.,264553,264545,263445.52,263430,263462.18,264578.84,,55,money.
Item 100,flow.Loop,2_1_1_1,2021-04-27T08:31:21.737Z,,,,,,,,,,,,,,,,,,,,,,,,,,,,,,,31700.839999999997,,completion,,,,,F,,,,,,,,,,,silence,,,,,264553,264545,232827.48,232828,232844.16,264578.84,,,
Question 1,html.Screen,2_1_1_2,2021-04-27T08:31:25.578Z,,,,,,,,,,,,,,,,,,,,,,,,,,,,true,TRUE,,3811.1599999999744,,response,,,,100,F,,,,,,TRUE,click #choice-1,,,,silence,,,,,268394,268390,264562.18,264553,264578.84,268412.18,,,
Question 2,html.Screen,2_1_1_3,2021-04-27T08:31:27.127Z,,,,,,,,,,,,,,,,,,,,,,,,,,,,true,FALSE,,1523.820000000007,,response,,,,100,F,,,,,,FALSE,click #choice-2,,,,silence,,,,,269942,269936,268395.52,268394,268412.18,269962.18,,,
Item 100,flow.Sequence,2_1_1,2021-04-27T08:31:27.127Z,,,,,,,,,,,,,,,,,,,,,,,,,,,,,,,47093.22,,completion,,,,,,,,,,,,,,,,,,,,,269943,269936,222826.12,222817,222842.78,269962.18,,,
End of Practice,html.Page,2_1_2,2021-04-27T08:31:33.210Z,,,,,,,,,,,,,,,,,,,,,,,,,,,,,,,6062.820000000007,,form submission,,,,,,,,,,,,,,,,,,,,,276025,276025,269945.52,269943,269962.18,276045.52,,,
Practice,flow.Sequence,2_1,2021-04-27T08:31:33.210Z,,,,,,,,,,,,,,,,,,,,,,,,,,,,,,,105017.14000000001,,completion,,,,,,,,,,,,,,,,,,,,,276025,276025,170991.18,170979,171007.86,276045.52,,,
Trap_instruction,html.Page,2_2_0,2021-04-27T08:31:36.275Z,,,,,,,,,,,,,,,,,,,,,,,,,,,,,,,3044.4799999999814,,form submission,,,,,,,,,,,,,,,,,,,,,279091,279090,276028.84,276025,276045.52,279112.18,,,
trap_trial,html.Screen,2_2_1,2021-04-27T08:31:38.903Z,,,,,,,,,,,,,,,,,,,,,,,,,,,,true,1,,2590.820000000007,,response,,,,,,,,,,,1,click #choice-1,,,,,,,,,281718,281703,279095.52,279091,279112.18,281745.52,,,
end of trap trial,html.Page,2_2_2,2021-04-27T08:31:40.693Z,,,,,,,,,,,,,,,,,,,,,,,,,,,,,,,1762.4799999999814,,form submission,,,,,,,,,,,,,,,,,,,,,283508,283508,281728.84,281718,281745.52,283528.84,,,
Trap 1,flow.Sequence,2_2,2021-04-27T08:31:40.694Z,,,,,,,,,,,,,,,,,,,,,,,,,,,,,,,7462.479999999981,,completion,,,,,,,,,,,,,,,,,,,,,283508,283508,276028.84,276025,276045.52,283528.84,,,
Standby,html.Page,2_3_0,2021-04-27T08:31:48.699Z,,,,,,,,,,,,,,,,,,,,,,,,,,,,,,,8001.5,,timeout,,,,,,,,,,,,,,,,,,,,,291514,291513.68,283512.18,283508,283528.84,291530.34,,,
Holding screen,html.Screen,2_3_1_0_0,2021-04-27T08:31:55.699Z,,,,,,,,,,,,,,,,,,,,,,,,,,,,,,,7000,,timeout,,,,,,,,,,,,,,,,,,,,,298515,298513.68,291513.68,291514,291530.34,298530.34,,,
screen,html.Screen,2_3_1_0_1_0,2021-04-27T08:31:57.076Z,,,,,,,,,,,,,,,,,51,,,,,,,,,,,,,,1358.6599999999744,,response,,,,13,F,,,,,,Space,keypress(Space),,,,instrumental,,,,American -------- --- --- ---- --- --- ------ -- --------<br>---- --------- --- ------- ------------ ---------- ---------<br>--- ---------- ------- ---------- ------- -- -------- ----<br>---- --- ------ ----- ------ -- ---- --- ----- -- - -------<br>-------- -- --- --- -- ----- ----------- ----- -----------<br>---- --- ---------- --- ---- --- -- ----------,299891,299889,298513.68,298515,298530.34,299913.68,,0,American
screen,html.Screen,2_3_1_0_1_1,2021-04-27T08:31:57.565Z,,,,,,,,,,,,,,,,,51,,,,,,,,,,,,,,460.320000000007,,response,,,,13,F,,,,,,Space,keypress(Space),,,,instrumental,,,,-------- industry --- --- ---- --- --- ------ -- --------<br>---- --------- --- ------- ------------ ---------- ---------<br>--- ---------- ------- ---------- ------- -- -------- ----<br>---- --- ------ ----- ------ -- ---- --- ----- -- - -------<br>-------- -- --- --- -- ----- ----------- ----- -----------<br>---- --- ---------- --- ---- --- -- ----------,300381,300374,299897.02,299891,299913.68,300413.68,,1,industry
screen,html.Screen,2_3_1_0_1_2,2021-04-27T08:31:58.063Z,,,,,,,,,,,,,,,,,51,,,,,,,,,,,,,,460.320000000007,,response,,,,13,F,,,,,,Space,keypress(Space),,,,instrumental,,,,-------- -------- may --- ---- --- --- ------ -- --------<br>---- --------- --- ------- ------------ ---------- ---------<br>--- ---------- ------- ---------- ------- -- -------- ----<br>---- --- ------ ----- ------ -- ---- --- ----- -- - -------<br>-------- -- --- --- -- ----- ----------- ----- -----------<br>---- --- ---------- --- ---- --- -- ----------,300879,300874,300397.02,300381,300413.68,300897.02,,2,may
screen,html.Screen,2_3_1_0_1_3,2021-04-27T08:31:58.477Z,,,,,,,,,,,,,,,,,51,,,,,,,,,,,,,,382.9799999999814,,response,,,,13,F,,,,,,Space,keypress(Space),,,,instrumental,,,,-------- -------- --- not ---- --- --- ------ -- --------<br>---- --------- --- ------- ------------ ---------- ---------<br>--- ---------- ------- ---------- ------- -- -------- ----<br>---- --- ------ ----- ------ -- ---- --- ----- -- - -------<br>-------- -- --- --- -- ----- ----------- ----- -----------<br>---- --- ---------- --- ---- --- -- ----------,301293,301280,300880.34,300879,300897.02,301313.68,,3,not
screen,html.Screen,2_3_1_0_1_4,2021-04-27T08:31:58.837Z,,,,,,,,,,,,,,,,,51,,,,,,,,,,,,,,326.320000000007,,response,,,,13,F,,,,,,Space,keypress(Space),,,,instrumental,,,,-------- -------- --- --- know --- --- ------ -- --------<br>---- --------- --- ------- ------------ ---------- ---------<br>--- ---------- ------- ---------- ------- -- -------- ----<br>---- --- ------ ----- ------ -- ---- --- ----- -- - -------<br>-------- -- --- --- -- ----- ----------- ----- -----------<br>---- --- ---------- --- ---- --- -- ----------,301653,301640,301297.02,301293,301313.68,301680.34,,4,know
screen,html.Screen,2_3_1_0_1_5,2021-04-27T08:31:59.306Z,,,,,,,,,,,,,,,,,51,,,,,,,,,,,,,,427.6599999999744,,response,,,,13,F,,,,,,Space,keypress(Space),,,,instrumental,,,,"-------- -------- --- --- ---- it, --- ------ -- --------<br>---- --------- --- ------- ------------ ---------- ---------<br>--- ---------- ------- ---------- ------- -- -------- ----<br>---- --- ------ ----- ------ -- ---- --- ----- -- - -------<br>-------- -- --- --- -- ----- ----------- ----- -----------<br>---- --- ---------- --- ---- --- -- ----------",302121,302108,301663.68,301653,301680.34,302147.02,,5,"it,"
screen,html.Screen,2_3_1_0_1_6,2021-04-27T08:31:59.822Z,,,,,,,,,,,,,,,,,51,,,,,,,,,,,,,,477.9799999999814,,response,,,,13,F,,,,,,Space,keypress(Space),,,,instrumental,,,,-------- -------- --- --- ---- --- but ------ -- --------<br>---- --------- --- ------- ------------ ---------- ---------<br>--- ---------- ------- ---------- ------- -- -------- ----<br>---- --- ------ ----- ------ -- ---- --- ----- -- - -------<br>-------- -- --- --- -- ----- ----------- ----- -----------<br>---- --- ---------- --- ---- --- -- ----------,302636,302625,302130.34,302121,302147.02,302663.68,,6,but
screen,html.Screen,2_3_1_0_1_7,2021-04-27T08:32:00.318Z,,,,,,,,,,,,,,,,,51,,,,,,,,,,,,,,460.320000000007,,response,,,,13,F,,,,,,Space,keypress(Space),,,,instrumental,,,,-------- -------- --- --- ---- --- --- debate -- --------<br>---- --------- --- ------- ------------ ---------- ---------<br>--- ---------- ------- ---------- ------- -- -------- ----<br>---- --- ------ ----- ------ -- ---- --- ----- -- - -------<br>-------- -- --- --- -- ----- ----------- ----- -----------<br>---- --- ---------- --- ---- --- -- ----------,303133,303124,302647.02,302637,302663.68,303163.68,,7,debate
screen,html.Screen,2_3_1_0_1_8,2021-04-27T08:32:00.718Z,,,,,,,,,,,,,,,,,51,,,,,,,,,,,,,,366.320000000007,,response,,,,13,F,,,,,,Space,keypress(Space),,,,instrumental,,,,-------- -------- --- --- ---- --- --- ------ in --------<br>---- --------- --- ------- ------------ ---------- ---------<br>--- ---------- ------- ---------- ------- -- -------- ----<br>---- --- ------ ----- ------ -- ---- --- ----- -- - -------<br>-------- -- --- --- -- ----- ----------- ----- -----------<br>---- --- ---------- --- ---- --- -- ----------,303533,303530,303147.02,303133,303163.68,303563.68,,8,in
screen,html.Screen,2_3_1_0_1_9,2021-04-27T08:32:01.183Z,,,,,,,,,,,,,,,,,51,,,,,,,,,,,,,,419.320000000007,,response,,,,13,F,,,,,,Space,keypress(Space),,,,instrumental,,,,-------- -------- --- --- ---- --- --- ------ -- Congress<br>---- --------- --- ------- ------------ ---------- ---------<br>--- ---------- ------- ---------- ------- -- -------- ----<br>---- --- ------ ----- ------ -- ---- --- ----- -- - -------<br>-------- -- --- --- -- ----- ----------- ----- -----------<br>---- --- ---------- --- ---- --- -- ----------,303999,303983,303547.02,303534,303563.68,304030.34,,9,Congress
screen,html.Screen,2_3_1_0_1_10,2021-04-27T08:32:01.657Z,,,,,,,,,,,,,,,,,51,,,,,,,,,,,,,,436.6599999999744,,response,,,,13,F,,,,,,Space,keypress(Space),,,,instrumental,,,,-------- -------- --- --- ---- --- --- ------ -- --------<br>over --------- --- ------- ------------ ---------- ---------<br>--- ---------- ------- ---------- ------- -- -------- ----<br>---- --- ------ ----- ------ -- ---- --- ----- -- - -------<br>-------- -- --- --- -- ----- ----------- ----- -----------<br>---- --- ---------- --- ---- --- -- ----------,304472,304467,304013.68,303999,304030.34,304497.02,,10,over
screen,html.Screen,2_3_1_0_1_11,2021-04-27T08:32:02.137Z,,,,,,,,,,,,,,,,,51,,,,,,,,,,,,,,438.9799999999814,,response,,,,13,F,,,,,,Space,keypress(Space),,,,instrumental,,,,-------- -------- --- --- ---- --- --- ------ -- --------<br>---- reforming --- ------- ------------ ---------- ---------<br>--- ---------- ------- ---------- ------- -- -------- ----<br>---- --- ------ ----- ------ -- ---- --- ----- -- - -------<br>-------- -- --- --- -- ----- ----------- ----- -----------<br>---- --- ---------- --- ---- --- -- ----------,304953,304936,304480.34,304473,304497.02,304980.34,,11,reforming
screen,html.Screen,2_3_1_0_1_12,2021-04-27T08:32:02.910Z,,,,,,,,,,,,,,,,,51,,,,,,,,,,,,,,736.6599999999744,,response,,,,13,F,,,,,,Space,keypress(Space),,,,instrumental,,,,-------- -------- --- --- ---- --- --- ------ -- --------<br>---- --------- the ------- ------------ ---------- ---------<br>--- ---------- ------- ---------- ------- -- -------- ----<br>---- --- ------ ----- ------ -- ---- --- ----- -- - -------<br>-------- -- --- --- -- ----- ----------- ----- -----------<br>---- --- ---------- --- ---- --- -- ----------,305726,305717,304963.68,304953,304980.34,305747.02,,12,the
screen,html.Screen,2_3_1_0_1_13,2021-04-27T08:32:03.414Z,,,,,,,,,,,,,,,,,51,,,,,,,,,,,,,,469.9799999999814,,response,,,,13,F,,,,,,Space,keypress(Space),,,,instrumental,,,,-------- -------- --- --- ---- --- --- ------ -- --------<br>---- --------- --- federal ------------ ---------- ---------<br>--- ---------- ------- ---------- ------- -- -------- ----<br>---- --- ------ ----- ------ -- ---- --- ----- -- - -------<br>-------- -- --- --- -- ----- ----------- ----- -----------<br>---- --- ---------- --- ---- --- -- ----------,306230,306217,305730.34,305726,305747.02,306247.02,,13,federal
screen,html.Screen,2_3_1_0_1_14,2021-04-27T08:32:04.140Z,,,,,,,,,,,,,,,,,51,,,,,,,,,,,,,,704.9799999999814,,response,,,,13,F,,,,,,Space,keypress(Space),,,,instrumental,,,,-------- -------- --- --- ---- --- --- ------ -- --------<br>---- --------- --- ------- government's ---------- ---------<br>--- ---------- ------- ---------- ------- -- -------- ----<br>---- --- ------ ----- ------ -- ---- --- ----- -- - -------<br>-------- -- --- --- -- ----- ----------- ----- -----------<br>---- --- ---------- --- ---- --- -- ----------,306955,306952,306230.34,306230,306247.02,306980.34,,14,government's
screen,html.Screen,2_3_1_0_1_15,2021-04-27T08:32:05.067Z,,,,,,,,,,,,,,,,,51,,,,,,,,,,,,,,893.6599999999744,,response,,,,13,F,,,,,,Space,keypress(Space),,,,instrumental,,,,-------- -------- --- --- ---- --- --- ------ -- --------<br>---- --------- --- ------- ------------ regulatory ---------<br>--- ---------- ------- ---------- ------- -- -------- ----<br>---- --- ------ ----- ------ -- ---- --- ----- -- - -------<br>-------- -- --- --- -- ----- ----------- ----- -----------<br>---- --- ---------- --- ---- --- -- ----------,307882,307874,306963.68,306956,306980.34,307913.68,,15,regulatory
screen,html.Screen,2_3_1_0_1_16,2021-04-27T08:32:06.323Z,,,,,,,,,,,,,,,,,51,,,,,,,,,,,,,,1210.320000000007,,response,,,,13,F,,,,,,Space,keypress(Space),,,,instrumental,,,,-------- -------- --- --- ---- --- --- ------ -- --------<br>---- --------- --- ------- ------------ ---------- apparatus<br>--- ---------- ------- ---------- ------- -- -------- ----<br>---- --- ------ ----- ------ -- ---- --- ----- -- - -------<br>-------- -- --- --- -- ----- ----------- ----- -----------<br>---- --- ---------- --- ---- --- -- ----------,309138,309124,307897.02,307882,307913.68,309163.68,,16,apparatus
screen,html.Screen,2_3_1_0_1_17,2021-04-27T08:32:07.135Z,,,,,,,,,,,,,,,,,51,,,,,,,,,,,,,,772.320000000007,,response,,,,13,F,,,,,,Space,keypress(Space),,,,instrumental,,,,-------- -------- --- --- ---- --- --- ------ -- --------<br>---- --------- --- ------- ------------ ---------- ---------<br>may ---------- ------- ---------- ------- -- -------- ----<br>---- --- ------ ----- ------ -- ---- --- ----- -- - -------<br>-------- -- --- --- -- ----- ----------- ----- -----------<br>---- --- ---------- --- ---- --- -- ----------,309950,309936,309147.02,309138,309163.68,309980.34,,17,may
screen,html.Screen,2_3_1_0_1_18,2021-04-27T08:32:07.589Z,,,,,,,,,,,,,,,,,51,,,,,,,,,,,,,,408.6599999999744,,response,,,,13,F,,,,,,Space,keypress(Space),,,,instrumental,,,,-------- -------- --- --- ---- --- --- ------ -- --------<br>---- --------- --- ------- ------------ ---------- ---------<br>--- profoundly ------- ---------- ------- -- -------- ----<br>---- --- ------ ----- ------ -- ---- --- ----- -- - -------<br>-------- -- --- --- -- ----- ----------- ----- -----------<br>---- --- ---------- --- ---- --- -- ----------,310405,310389,309963.68,309951,309980.34,310430.34,,18,profoundly
screen,html.Screen,2_3_1_0_1_19,2021-04-27T08:32:08.417Z,,,,,,,,,,,,,,,,,51,,,,,,,,,,,,,,786.6599999999744,,response,,,,13,F,,,,,,Space,keypress(Space),,,,instrumental,,,,-------- -------- --- --- ---- --- --- ------ -- --------<br>---- --------- --- ------- ------------ ---------- ---------<br>--- ---------- improve ---------- ------- -- -------- ----<br>---- --- ------ ----- ------ -- ---- --- ----- -- - -------<br>-------- -- --- --- -- ----- ----------- ----- -----------<br>---- --- ---------- --- ---- --- -- ----------,311232,311217,310413.68,310405,310430.34,311263.68,,19,improve
screen,html.Screen,2_3_1_0_1_20,2021-04-27T08:32:09.033Z,,,,,,,,,,,,,,,,,51,,,,,,,,,,,,,,579.320000000007,,response,,,,13,F,,,,,,Space,keypress(Space),,,,instrumental,,,,-------- -------- --- --- ---- --- --- ------ -- --------<br>---- --------- --- ------- ------------ ---------- ---------<br>--- ---------- ------- companies' ------- -- -------- ----<br>---- --- ------ ----- ------ -- ---- --- ----- -- - -------<br>-------- -- --- --- -- ----- ----------- ----- -----------<br>---- --- ---------- --- ---- --- -- ----------,311848,311843,311247.02,311232,311263.68,311880.34,,20,companies'
screen,html.Screen,2_3_1_0_1_21,2021-04-27T08:32:09.555Z,,,,,,,,,,,,,,,,,51,,,,,,,,,,,,,,477.6599999999744,,response,,,,13,F,,,,,,Space,keypress(Space),,,,instrumental,,,,-------- -------- --- --- ---- --- --- ------ -- --------<br>---- --------- --- ------- ------------ ---------- ---------<br>--- ---------- ------- ---------- ability -- -------- ----<br>---- --- ------ ----- ------ -- ---- --- ----- -- - -------<br>-------- -- --- --- -- ----- ----------- ----- -----------<br>---- --- ---------- --- ---- --- -- ----------,312371,312358,311863.68,311848,311880.34,312397.02,,21,ability
screen,html.Screen,2_3_1_0_1_22,2021-04-27T08:32:09.999Z,,,,,,,,,,,,,,,,,51,,,,,,,,,,,,,,413.9799999999814,,response,,,,13,F,,,,,,Space,keypress(Space),,,,instrumental,,,,-------- -------- --- --- ---- --- --- ------ -- --------<br>---- --------- --- ------- ------------ ---------- ---------<br>--- ---------- ------- ---------- ------- to -------- ----<br>---- --- ------ ----- ------ -- ---- --- ----- -- - -------<br>-------- -- --- --- -- ----- ----------- ----- -----------<br>---- --- ---------- --- ---- --- -- ----------,312814,312811,312380.34,312371,312397.02,312830.34,,22,to
screen,html.Screen,2_3_1_0_1_23,2021-04-27T08:32:11.705Z,,,,,,,,,,,,,,,,,51,,,,,,,,,,,,,,1684.6599999999744,,response,,,,13,F,,,,,,Space,keypress(Space),,,,instrumental,,,,-------- -------- --- --- ---- --- --- ------ -- --------<br>---- --------- --- ------- ------------ ---------- ---------<br>--- ---------- ------- ---------- ------- -- survive. ----<br>---- --- ------ ----- ------ -- ---- --- ----- -- - -------<br>-------- -- --- --- -- ----- ----------- ----- -----------<br>---- --- ---------- --- ---- --- -- ----------,314520,314515,312813.68,312814,312830.34,314547.02,,23,survive.
screen,html.Screen,2_3_1_0_1_24,2021-04-27T08:32:12.196Z,,,,,,,,,,,,,,,,,51,,,,,,,,,,,,,,451.9799999999814,,response,,,,13,F,,,,,,Space,keypress(Space),,,,instrumental,,,,-------- -------- --- --- ---- --- --- ------ -- --------<br>---- --------- --- ------- ------------ ---------- ---------<br>--- ---------- ------- ---------- ------- -- -------- This<br>---- --- ------ ----- ------ -- ---- --- ----- -- - -------<br>-------- -- --- --- -- ----- ----------- ----- -----------<br>---- --- ---------- --- ---- --- -- ----------,315012,314999,314530.34,314520,314547.02,315030.34,,24,This
screen,html.Screen,2_3_1_0_1_25,2021-04-27T08:32:12.628Z,,,,,,,,,,,,,,,,,51,,,,,,,,,,,,,,405.6599999999744,,response,,,,13,F,,,,,,Space,keypress(Space),,,,instrumental,,,,-------- -------- --- --- ---- --- --- ------ -- --------<br>---- --------- --- ------- ------------ ---------- ---------<br>--- ---------- ------- ---------- ------- -- -------- ----<br>week --- ------ ----- ------ -- ---- --- ----- -- - -------<br>-------- -- --- --- -- ----- ----------- ----- -----------<br>---- --- ---------- --- ---- --- -- ----------,315443,315436,315013.68,315012,315030.34,315463.68,,25,week
screen,html.Screen,2_3_1_0_1_26,2021-04-27T08:32:13.182Z,,,,,,,,,,,,,,,,,51,,,,,,,,,,,,,,519.320000000007,,response,,,,13,F,,,,,,Space,keypress(Space),,,,instrumental,,,,-------- -------- --- --- ---- --- --- ------ -- --------<br>---- --------- --- ------- ------------ ---------- ---------<br>--- ---------- ------- ---------- ------- -- -------- ----<br>---- the ------ ----- ------ -- ---- --- ----- -- - -------<br>-------- -- --- --- -- ----- ----------- ----- -----------<br>---- --- ---------- --- ---- --- -- ----------,315997,315983,315447.02,315443,315463.68,316030.34,,26,the
screen,html.Screen,2_3_1_0_1_27,2021-04-27T08:32:13.623Z,,,,,,,,,,,,,,,,,51,,,,,,,,,,,,,,405.6599999999744,,response,,,,13,F,,,,,,Space,keypress(Space),,,,instrumental,,,,-------- -------- --- --- ---- --- --- ------ -- --------<br>---- --------- --- ------- ------------ ---------- ---------<br>--- ---------- ------- ---------- ------- -- -------- ----<br>---- --- Senate ----- ------ -- ---- --- ----- -- - -------<br>-------- -- --- --- -- ----- ----------- ----- -----------<br>---- --- ---------- --- ---- --- -- ----------,316438,316436,316013.68,315998,316030.34,316463.68,,27,Senate
screen,html.Screen,2_3_1_0_1_28,2021-04-27T08:32:14.052Z,,,,,,,,,,,,,,,,,51,,,,,,,,,,,,,,394.320000000007,,response,,,,13,F,,,,,,Space,keypress(Space),,,,instrumental,,,,-------- -------- --- --- ---- --- --- ------ -- --------<br>---- --------- --- ------- ------------ ---------- ---------<br>--- ---------- ------- ---------- ------- -- -------- ----<br>---- --- ------ seems ------ -- ---- --- ----- -- - -------<br>-------- -- --- --- -- ----- ----------- ----- -----------<br>---- --- ---------- --- ---- --- -- ----------,316866,316858,316447.02,316438,316463.68,316897.02,,28,seems
screen,html.Screen,2_3_1_0_1_29,2021-04-27T08:32:14.422Z,,,,,,,,,,,,,,,,,51,,,,,,,,,,,,,,335.9799999999814,,response,,,,13,F,,,,,,Space,keypress(Space),,,,instrumental,,,,-------- -------- --- --- ---- --- --- ------ -- --------<br>---- --------- --- ------- ------------ ---------- ---------<br>--- ---------- ------- ---------- ------- -- -------- ----<br>---- --- ------ ----- poised -- ---- --- ----- -- - -------<br>-------- -- --- --- -- ----- ----------- ----- -----------<br>---- --- ---------- --- ---- --- -- ----------,317237,317233,316880.34,316867,316897.02,317263.68,,29,poised
screen,html.Screen,2_3_1_0_1_30,2021-04-27T08:32:14.912Z,,,,,,,,,,,,,,,,,51,,,,,,,,,,,,,,453.320000000007,,response,,,,13,F,,,,,,Space,keypress(Space),,,,instrumental,,,,-------- -------- --- --- ---- --- --- ------ -- --------<br>---- --------- --- ------- ------------ ---------- ---------<br>--- ---------- ------- ---------- ------- -- -------- ----<br>---- --- ------ ----- ------ to ---- --- ----- -- - -------<br>-------- -- --- --- -- ----- ----------- ----- -----------<br>---- --- ---------- --- ---- --- -- ----------,317727,317717,317247.02,317237,317263.68,317748.42,,30,to
screen,html.Screen,2_3_1_0_1_31,2021-04-27T08:32:15.506Z,,,,,,,,,,,,,,,,,51,,,,,,,,,,,,,,562.5800000000163,,response,,,,13,F,,,,,,Space,keypress(Space),,,,instrumental,,,,-------- -------- --- --- ---- --- --- ------ -- --------<br>---- --------- --- ------- ------------ ---------- ---------<br>--- ---------- ------- ---------- ------- -- -------- ----<br>---- --- ------ ----- ------ -- join --- ----- -- - -------<br>-------- -- --- --- -- ----- ----------- ----- -----------<br>---- --- ---------- --- ---- --- -- ----------,318321,318311,317731.76,317727,317748.42,318348.42,,31,join
screen,html.Screen,2_3_1_0_1_32,2021-04-27T08:32:15.924Z,,,,,,,,,,,,,,,,,51,,,,,,,,,,,,,,384.5800000000163,,response,,,,13,F,,,,,,Space,keypress(Space),,,,instrumental,,,,-------- -------- --- --- ---- --- --- ------ -- --------<br>---- --------- --- ------- ------------ ---------- ---------<br>--- ---------- ------- ---------- ------- -- -------- ----<br>---- --- ------ ----- ------ -- ---- the ----- -- - -------<br>-------- -- --- --- -- ----- ----------- ----- -----------<br>---- --- ---------- --- ---- --- -- ----------,318740,318733,318331.76,318322,318348.42,318765.1,,32,the
screen,html.Screen,2_3_1_0_1_33,2021-04-27T08:32:16.367Z,,,,,,,,,,,,,,,,,51,,,,,,,,,,,,,,404.9000000000233,,response,,,,13,F,,,,,,Space,keypress(Space),,,,instrumental,,,,-------- -------- --- --- ---- --- --- ------ -- --------<br>---- --------- --- ------- ------------ ---------- ---------<br>--- ---------- ------- ---------- ------- -- -------- ----<br>---- --- ------ ----- ------ -- ---- --- House -- - -------<br>-------- -- --- --- -- ----- ----------- ----- -----------<br>---- --- ---------- --- ---- --- -- ----------,319181,319170,318748.42,318740,318765.1,319198.42,,33,House
screen,html.Screen,2_3_1_0_1_34,2021-04-27T08:32:16.908Z,,,,,,,,,,,,,,,,,51,,,,,,,,,,,,,,518.5800000000163,,response,,,,13,F,,,,,,Space,keypress(Space),,,,instrumental,,,,-------- -------- --- --- ---- --- --- ------ -- --------<br>---- --------- --- ------- ------------ ---------- ---------<br>--- ---------- ------- ---------- ------- -- -------- ----<br>---- --- ------ ----- ------ -- ---- --- ----- in - -------<br>-------- -- --- --- -- ----- ----------- ----- -----------<br>---- --- ---------- --- ---- --- -- ----------,319723,319717,319181.76,319181,319198.42,319748.42,,34,in
screen,html.Screen,2_3_1_0_1_35,2021-04-27T08:32:17.394Z,,,,,,,,,,,,,,,,,51,,,,,,,,,,,,,,453.5800000000163,,response,,,,13,F,,,,,,Space,keypress(Space),,,,instrumental,,,,-------- -------- --- --- ---- --- --- ------ -- --------<br>---- --------- --- ------- ------------ ---------- ---------<br>--- ---------- ------- ---------- ------- -- -------- ----<br>---- --- ------ ----- ------ -- ---- --- ----- -- a -------<br>-------- -- --- --- -- ----- ----------- ----- -----------<br>---- --- ---------- --- ---- --- -- ----------,320209,320202,319731.76,319723,319748.42,320231.76,,35,a
screen,html.Screen,2_3_1_0_1_36,2021-04-27T08:32:18.256Z,,,,,,,,,,,,,,,,,51,,,,,,,,,,,,,,829.2399999999907,,response,,,,13,F,,,,,,Space,keypress(Space),,,,instrumental,,,,-------- -------- --- --- ---- --- --- ------ -- --------<br>---- --------- --- ------- ------------ ---------- ---------<br>--- ---------- ------- ---------- ------- -- -------- ----<br>---- --- ------ ----- ------ -- ---- --- ----- -- - massive<br>-------- -- --- --- -- ----- ----------- ----- -----------<br>---- --- ---------- --- ---- --- -- ----------,321071,321061,320215.1,320210,320231.76,321098.42,,36,massive
screen,html.Screen,2_3_1_0_1_37,2021-04-27T08:32:18.812Z,,,,,,,,,,,,,,,,,51,,,,,,,,,,,,,,525.5800000000163,,response,,,,13,F,,,,,,Space,keypress(Space),,,,instrumental,,,,-------- -------- --- --- ---- --- --- ------ -- --------<br>---- --------- --- ------- ------------ ---------- ---------<br>--- ---------- ------- ---------- ------- -- -------- ----<br>---- --- ------ ----- ------ -- ---- --- ----- -- - -------<br>overhaul -- --- --- -- ----- ----------- ----- -----------<br>---- --- ---------- --- ---- --- -- ----------,321627,321624,321081.76,321071,321098.42,321648.42,,37,overhaul
screen,html.Screen,2_3_1_0_1_38,2021-04-27T08:32:19.195Z,,,,,,,,,,,,,,,,,51,,,,,,,,,,,,,,350.5800000000163,,response,,,,13,F,,,,,,Space,keypress(Space),,,,instrumental,,,,-------- -------- --- --- ---- --- --- ------ -- --------<br>---- --------- --- ------- ------------ ---------- ---------<br>--- ---------- ------- ---------- ------- -- -------- ----<br>---- --- ------ ----- ------ -- ---- --- ----- -- - -------<br>-------- of --- --- -- ----- ----------- ----- -----------<br>---- --- ---------- --- ---- --- -- ----------,322011,321999,321631.76,321627,321648.42,322031.76,,38,of
screen,html.Screen,2_3_1_0_1_39,2021-04-27T08:32:19.735Z,,,,,,,,,,,,,,,,,51,,,,,,,,,,,,,,513.2399999999907,,response,,,,13,F,,,,,,Space,keypress(Space),,,,instrumental,,,,-------- -------- --- --- ---- --- --- ------ -- --------<br>---- --------- --- ------- ------------ ---------- ---------<br>--- ---------- ------- ---------- ------- -- -------- ----<br>---- --- ------ ----- ------ -- ---- --- ----- -- - -------<br>-------- -- the --- -- ----- ----------- ----- -----------<br>---- --- ---------- --- ---- --- -- ----------,322550,322545,322015.1,322011,322031.76,322581.76,,39,the
screen,html.Screen,2_3_1_0_1_40,2021-04-27T08:32:20.317Z,,,,,,,,,,,,,,,,,51,,,,,,,,,,,,,,543.2399999999907,,response,,,,13,F,,,,,,Space,keypress(Space),,,,instrumental,,,,-------- -------- --- --- ---- --- --- ------ -- --------<br>---- --------- --- ------- ------------ ---------- ---------<br>--- ---------- ------- ---------- ------- -- -------- ----<br>---- --- ------ ----- ------ -- ---- --- ----- -- - -------<br>-------- -- --- way -- ----- ----------- ----- -----------<br>---- --- ---------- --- ---- --- -- ----------,323132,323125,322565.1,322551,322581.76,323165.1,,40,way
screen,html.Screen,2_3_1_0_1_41,2021-04-27T08:32:20.899Z,,,,,,,,,,,,,,,,,51,,,,,,,,,,,,,,536.9000000000233,,response,,,,13,F,,,,,,Space,keypress(Space),,,,instrumental,,,,-------- -------- --- --- ---- --- --- ------ -- --------<br>---- --------- --- ------- ------------ ---------- ---------<br>--- ---------- ------- ---------- ------- -- -------- ----<br>---- --- ------ ----- ------ -- ---- --- ----- -- - -------<br>-------- -- --- --- in ----- ----------- ----- -----------<br>---- --- ---------- --- ---- --- -- ----------,323714,323702,323148.42,323133,323165.1,323731.76,,41,in
screen,html.Screen,2_3_1_0_1_42,2021-04-27T08:32:21.281Z,,,,,,,,,,,,,,,,,51,,,,,,,,,,,,,,360.2399999999907,,response,,,,13,F,,,,,,Space,keypress(Space),,,,instrumental,,,,-------- -------- --- --- ---- --- --- ------ -- --------<br>---- --------- --- ------- ------------ ---------- ---------<br>--- ---------- ------- ---------- ------- -- -------- ----<br>---- --- ------ ----- ------ -- ---- --- ----- -- - -------<br>-------- -- --- --- -- which ----------- ----- -----------<br>---- --- ---------- --- ---- --- -- ----------,324097,324092,323715.1,323714,323731.76,324115.1,,42,which
screen,html.Screen,2_3_1_0_1_43,2021-04-27T08:32:21.994Z,,,,,,,,,,,,,,,,,51,,,,,,,,,,,,,,679.9000000000233,,response,,,,13,F,,,,,,Space,keypress(Space),,,,instrumental,,,,-------- -------- --- --- ---- --- --- ------ -- --------<br>---- --------- --- ------- ------------ ---------- ---------<br>--- ---------- ------- ---------- ------- -- -------- ----<br>---- --- ------ ----- ------ -- ---- --- ----- -- - -------<br>-------- -- --- --- -- ----- bureaucrats ----- -----------<br>---- --- ---------- --- ---- --- -- ----------,324809,324795,324098.42,324097,324115.1,324831.76,,43,bureaucrats
screen,html.Screen,2_3_1_0_1_44,2021-04-27T08:32:22.616Z,,,,,,,,,,,,,,,,,51,,,,,,,,,,,,,,588.2399999999907,,response,,,,13,F,,,,,,Space,keypress(Space),,,,instrumental,,,,-------- -------- --- --- ---- --- --- ------ -- --------<br>---- --------- --- ------- ------------ ---------- ---------<br>--- ---------- ------- ---------- ------- -- -------- ----<br>---- --- ------ ----- ------ -- ---- --- ----- -- - -------<br>-------- -- --- --- -- ----- ----------- enact -----------<br>---- --- ---------- --- ---- --- -- ----------,325431,325420,324815.1,324809,324831.76,325448.42,,44,enact
screen,html.Screen,2_3_1_0_1_45,2021-04-27T08:32:23.206Z,,,,,,,,,,,,,,,,,51,,,,,,,,,,,,,,566.5800000000163,,response,,,,13,F,,,,,,Space,keypress(Space),,,,instrumental,,,,-------- -------- --- --- ---- --- --- ------ -- --------<br>---- --------- --- ------- ------------ ---------- ---------<br>--- ---------- ------- ---------- ------- -- -------- ----<br>---- --- ------ ----- ------ -- ---- --- ----- -- - -------<br>-------- -- --- --- -- ----- ----------- ----- regulations<br>---- --- ---------- --- ---- --- -- ----------,326022,326015,325431.76,325431,325448.42,326048.42,,45,regulations
screen,html.Screen,2_3_1_0_1_46,2021-04-27T08:32:23.772Z,,,,,,,,,,,,,,,,,51,,,,,,,,,,,,,,528.5800000000163,,response,,,,13,F,,,,,,Space,keypress(Space),,,,instrumental,,,,-------- -------- --- --- ---- --- --- ------ -- --------<br>---- --------- --- ------- ------------ ---------- ---------<br>--- ---------- ------- ---------- ------- -- -------- ----<br>---- --- ------ ----- ------ -- ---- --- ----- -- - -------<br>-------- -- --- --- -- ----- ----------- ----- -----------<br>that --- ---------- --- ---- --- -- ----------,326588,326577,326031.76,326022,326048.42,326615.1,,46,that
screen,html.Screen,2_3_1_0_1_47,2021-04-27T08:32:24.192Z,,,,,,,,,,,,,,,,,51,,,,,,,,,,,,,,383.9000000000233,,response,,,,13,F,,,,,,Space,keypress(Space),,,,instrumental,,,,-------- -------- --- --- ---- --- --- ------ -- --------<br>---- --------- --- ------- ------------ ---------- ---------<br>--- ---------- ------- ---------- ------- -- -------- ----<br>---- --- ------ ----- ------ -- ---- --- ----- -- - -------<br>-------- -- --- --- -- ----- ----------- ----- -----------<br>---- are ---------- --- ---- --- -- ----------,327008,326999,326598.42,326588,326615.1,327031.76,,47,are
screen,html.Screen,2_3_1_0_1_48,2021-04-27T08:32:24.874Z,,,,,,,,,,,,,,,,,51,,,,,,,,,,,,,,654.2399999999907,,response,,,,13,F,,,,,,Space,keypress(Space),,,,instrumental,,,,-------- -------- --- --- ---- --- --- ------ -- --------<br>---- --------- --- ------- ------------ ---------- ---------<br>--- ---------- ------- ---------- ------- -- -------- ----<br>---- --- ------ ----- ------ -- ---- --- ----- -- - -------<br>-------- -- --- --- -- ----- ----------- ----- -----------<br>---- --- strangling --- ---- --- -- ----------,327690,327686,327015.1,327008,327031.76,327715.1,,48,strangling
screen,html.Screen,2_3_1_0_1_49,2021-04-27T08:32:25.310Z,,,,,,,,,,,,,,,,,51,,,,,,,,,,,,,,408.9000000000233,,response,,,,13,F,,,,,,Space,keypress(Space),,,,instrumental,,,,-------- -------- --- --- ---- --- --- ------ -- --------<br>---- --------- --- ------- ------------ ---------- ---------<br>--- ---------- ------- ---------- ------- -- -------- ----<br>---- --- ------ ----- ------ -- ---- --- ----- -- - -------<br>-------- -- --- --- -- ----- ----------- ----- -----------<br>---- --- ---------- the ---- --- -- ----------,328125,328124,327698.42,327690,327715.1,328148.42,,49,the
