sender,sender_type,sender_id,timestamp,meta,,Blues,Classical,Country,Dance,Electronic,Folk,Gospel,Hip-Hop,Jazz,Latin,Musical/Film,New-age,Pop,Prolific_id,Provo_ID,R&B,Rap,Reggae,Religious,Rock,Soul,Swing,Traditional,age,artist_name,correct,correctResponse,distraction,duration,education,ended_on,familiarity,gender,headphone_check_performance,item,list,music_frequency,offensiveness,pleasantness,position_correct,preference,response,response_action,snippet_file,song_name,song_rating,sound,stimulus_1,stimulus_2,stimulus_3,text,time_commit,time_end,time_render,time_run,time_show,time_switch,url,word,word_ID
Prolific ID,html.Form,0,2021-04-30T13:20:53.203Z,"{""labjs_version"":""20.2.2"",""labjs_build"":{""flavor"":""production"",""commit"":""a25486e0c714a0ae2ce03ff94b7bb6896854dcfa""},""location"":""https://run.pavlovia.org/mvasilev/prolific_music_f/"",""userAgent"":""Mozilla/5.0 (Windows NT 10.0; Win64; x64) AppleWebKit/537.36 (KHTML, like Gecko) Chrome/90.0.4430.85 Safari/537.36 Edg/90.0.818.49"",""platform"":""Win32"",""language"":""en-US"",""locale"":""en-US"",""timeZone"":""Europe/London"",""timezoneOffset"":-60,""screen_width"":1920,""screen_height"":1080,""scroll_width"":1920,""scroll_height"":921,""window_innerWidth"":1920,""window_innerHeight"":969,""devicePixelRatio"":1}",,,,,,,,,,,,,,,605f64ae5862018ec5eb9370,,,,,,,,,,,,,,,12214.173000000432,,form submission,,,,,,,,,,,,,,,,,,,,,18579.299999997602,18578.90000000043,6348.008,6348.480000000563,6364.727,18581.2,{},,
Introduction,html.Screen,1_0,2021-04-30T13:21:15.646Z,,,,,,,,,,,,,,,,,,,,,,,,,,,,,,,22439.944999998796,,response,,,,,,,,,,,continue,click button,,,,,,,,,41022.73000000059,41021.144999998796,18564.545,18579.734999999346,18581.2,41030.877,,,
Volume calibration,html.Screen,1_1,2021-04-30T13:21:49.105Z,,,,,,,,,,,,,,,,,,,,,,,,,,,,,,,33448.572999998905,,response,,,,,,,,,,,continue,click button,,,,,,,,,74481.36499999964,74479.4499999989,41014.198,41022.84499999951,41030.877,74480.413,,,
Task instructions,html.Screen,1_2,2021-04-30T13:21:57.235Z,,,,,,,,,,,,,,,,,,,,,,,,,,,,,,,8130.076999999117,,response,,,,,,,,,,,continue,click button,,,,,,,,,82611.00499999884,82610.48999999912,74463.729,74481.45499999737,74480.413,82613.633,,,
Sounds,html.Screen,1_3_0_0,2021-04-30T13:22:01.473Z,,,,,,,,,,,,,,,,,,,,,,,,,,,,,,,4249.959000000003,,timeout,,,,,,,,,1,,,,,,,,S,O,I,,86848.33499999877,86846.895,82596.944,82611.20499999743,82613.633,86863.592,,,
Judgement,html.Screen,1_3_0_1,2021-04-30T13:22:09.490Z,,,,,,,,,,,,,,,,,,,,,,,,,,,,false,1,,8001.482999997883,,response,,,,,,,,,1,,2,click #choice-2,,,,,S,O,I,,94865.70500000016,94865.07499999789,86846.895,86848.43999999794,86863.592,94880.111,,,
Trial,flow.Sequence,1_3_0,2021-04-30T13:22:09.491Z,,,,,,,,,,,,,,,,,,,,,,,,,,,,,,,12251.441999997885,,completion,,,,,,,,,1,,,,,,,,S,O,I,,94866.97500000082,94865.07499999789,82596.944,82611.16499999844,82613.633,94880.111,,,
Sounds,html.Screen,1_3_1_0,2021-04-30T13:22:13.738Z,,,,,,,,,,,,,,,,,,,,,,,,,,,,,,,4249.934999999998,,timeout,,,,,,,,,3,,,,,,,,I,O,S,,99113.88499999885,99113.423,94863.43,94867.08499999804,94880.111,99130.046,,,
Judgement,html.Screen,1_3_1_1,2021-04-30T13:22:14.436Z,,,,,,,,,,,,,,,,,,,,,,,,,,,,true,3,,681.633999998885,,response,,,,,,,,,3,,3,click #choice-3,,,,,I,O,S,,99812.16999999742,99811.67999999889,99113.423,99113.98999999801,99130.046,99813.38,,,
Trial,flow.Sequence,1_3_1,2021-04-30T13:22:14.437Z,,,,,,,,,,,,,,,,,,,,,,,,,,,,,,,4931.568999998883,,completion,,,,,,,,,3,,,,,,,,I,O,S,,99812.30999999752,99811.67999999889,94863.43,94867.0549999988,94880.111,99813.38,,,
Sounds,html.Screen,1_3_2_0,2021-04-30T13:22:18.671Z,,,,,,,,,,,,,,,,,,,,,,,,,,,,,,,4249.922999999995,,timeout,,,,,,,,,2,,,,,,,,O,S,I,,104046.94499999823,104046.636,99796.727,99812.40999999864,99813.38,104063.303,,,
Judgement,html.Screen,1_3_2_1,2021-04-30T13:22:19.145Z,,,,,,,,,,,,,,,,,,,,,,,,,,,,true,2,,456.997000000134,,response,,,,,,,,,2,,2,click #choice-2,,,,,O,S,I,,104520.82999999766,104520.30000000013,104046.636,104047.03999999765,104063.303,104529.968,,,
Trial,flow.Sequence,1_3_2,2021-04-30T13:22:19.145Z,,,,,,,,,,,,,,,,,,,,,,,,,,,,,,,4706.920000000129,,completion,,,,,,,,,2,,,,,,,,O,S,I,,104520.95999999801,104520.30000000013,99796.727,99812.3799999994,99813.38,104529.968,,,
Sounds,html.Screen,1_3_3_0,2021-04-30T13:22:23.388Z,,,,,,,,,,,,,,,,,,,,,,,,,,,,,,,4249.938000000009,,timeout,,,,,,,,,3,,,,,,,,O,I,S,,108763.6199999979,108763.234,104513.293,104521.05999999912,104529.968,108779.906,,,
Judgement,html.Screen,1_3_3_1,2021-04-30T13:22:23.939Z,,,,,,,,,,,,,,,,,,,,,,,,,,,,true,3,,533.9689999998227,,response,,,,,,,,,3,,3,click #choice-3,,,,,O,I,S,,109314.35000000056,109313.87499999983,108763.234,108763.71499999732,108779.906,109329.895,,,
Trial,flow.Sequence,1_3_3,2021-04-30T13:22:23.939Z,,,,,,,,,,,,,,,,,,,,,,,,,,,,,,,4783.906999999832,,completion,,,,,,,,,3,,,,,,,,O,I,S,,109314.49000000066,109313.87499999983,104513.293,104521.02499999819,104529.968,109329.895,,,
Sounds,html.Screen,1_3_4_0,2021-04-30T13:22:28.188Z,,,,,,,,,,,,,,,,,,,,,,,,,,,,,,,4249.957999999999,,timeout,,,,,,,,,2,,,,,,,,I,S,O,,113563.70500000048,113563.197,109313.228,109314.58500000008,109329.895,113579.853,,,
Judgement,html.Screen,1_3_4_1,2021-04-30T13:22:28.612Z,,,,,,,,,,,,,,,,,,,,,,,,,,,,true,2,,407.6469999992696,,response,,,,,,,,,2,,2,click #choice-2,,,,,I,S,O,,113987.98499999975,113987.49999999927,113563.197,113563.79000000015,113579.853,113996.501,,,
Trial,flow.Sequence,1_3_4,2021-04-30T13:22:28.612Z,,,,,,,,,,,,,,,,,,,,,,,,,,,,,,,4657.604999999268,,completion,,,,,,,,,2,,,,,,,,I,S,O,,113988.10999999841,113987.49999999927,109313.228,109314.54999999914,109329.895,113996.501,,,
Sounds,html.Screen,1_3_5_0,2021-04-30T13:22:32.854Z,,,,,,,,,,,,,,,,,,,,,,,,,,,,,,,4249.9389999999985,,timeout,,,,,,,,,1,,,,,,,,S,I,O,,118230.05999999805,118229.788,113979.832,113988.19499999809,113996.501,118246.44,,,
Judgement,html.Screen,1_3_5_1,2021-04-30T13:22:33.399Z,,,,,,,,,,,,,,,,,,,,,,,,,,,,true,1,,527.8800000004412,,response,,,,,,,,,1,,1,click #choice-1,,,,,S,I,O,,118774.8849999989,118774.32000000044,118229.788,118230.13999999966,118246.44,118779.808,,,
Trial,flow.Sequence,1_3_5,2021-04-30T13:22:33.399Z,,,,,,,,,,,,,,,,,,,,,,,,,,,,,,,4777.81900000044,,completion,,,,,,,,,1,,,,,,,,S,I,O,,118775.01999999731,118774.32000000044,113979.832,113988.17499999859,113996.501,118779.808,,,
Task,flow.Loop,1_3,2021-04-30T13:22:33.402Z,,,,,,,,,,,,,,,,,,,,,,,,,,,,,,,36160.68700000044,,completion,,,0.8333333333333334,,,,,,,,,,,,,,,,,,118777.57999999812,118774.32000000044,82596.944,82611.11999999775,82613.633,118779.808,,,
Trap,html.Screen,1_4,2021-04-30T13:22:33.404Z,,,,,,,,,,,,,,,,,,,,,,,,,,,,,,,NaN,,skipped,,,,,,,,,,,,,,,,,,,,,118779.44500000012,118774.32000000044,,118779.3700000002,,118779.808,,,
Thanks,html.Screen,1_5,2021-04-30T13:22:38.815Z,,,,,,,,,,,,,,,,,,,,,,,,,,,,,,,5410.986999998611,,response,,,,,,,,,,,continue,click button,,,,,,,,,124191.18999999773,124190.79499999862,118763.126,118779.51499999836,118779.808,127179.684,,,
Headphone screening,flow.Sequence,1,2021-04-30T13:22:38.816Z,,,,,,,,,,,,,,,,,,,,,,,,,,,,,,,105609.59499999862,,completion,,,,,,,,,,,,,,,,,,,,,124191.30999999834,124190.79499999862,18564.545,18579.705000000104,18581.2,127179.684,,,
Instructions,html.Page,2_0,2021-04-30T13:22:49.083Z,,,,,,,,,,,,,,,,,,,,,,,,,,,,,,,7278.8309999984485,,form submission,,,,,,,,,,,,,,,,,,,,,134458.6849999978,134458.51499999844,127163,127171.84999999881,127179.684,134462.902,,,
Holding screen,html.Screen,2_1_0_0,2021-04-30T13:22:59.070Z,,,,,,,,,,,,,,,,,,,,,,,,,,,,,,,9999.839999999997,,timeout,,,,,,,,,,,,,,,,,,,,,144446.42000000022,144446.133,134446.208,134458.84499999738,134462.902,144462.742,,,
screen,html.Screen,2_1_0_1_0,2021-04-30T13:22:59.701Z,,,,,,,,,,,,,,,,,53,,,,,,,,,,,,,,613.643000000302,,response,,,,99,,,,,,,Space,keypress(Space),,,,,,,,When -- ----- -- ------ - ------- --- ----------<br>------------- ------ ------ ---- ---- ------- ----- -- ----<br>-------- ------- -- ---------- --- - --- ----- ----- ----<br>---- --- --- ----- --- ---- ---- ------- ----- ---- -------<br>--- --- -- ----- -- --- ---- -- --- ---- -- ------ ------<br>--- ----- -- ----,145077.72999999725,145076.3850000003,144446.133,144446.55499999863,144462.742,145079.402,,0,When
screen,html.Screen,2_1_0_1_1,2021-04-30T13:23:00.331Z,,,,,,,,,,,,,,,,,53,,,,,,,,,,,,,,627.4330000008631,,response,,,,99,,,,,,,Space,keypress(Space),,,,,,,,---- it ----- -- ------ - ------- --- ----------<br>------------- ------ ------ ---- ---- ------- ----- -- ----<br>-------- ------- -- ---------- --- - --- ----- ----- ----<br>---- --- --- ----- --- ---- ---- ------- ----- ---- -------<br>--- --- -- ----- -- --- ---- -- --- ---- -- ------ ------<br>--- ----- -- ----,145707.20000000074,145706.83500000086,145062.83,145077.83500000005,145079.402,145712.727,,1,it
screen,html.Screen,2_1_0_1_2,2021-04-30T13:23:00.816Z,,,,,,,,,,,,,,,,,53,,,,,,,,,,,,,,478.97799999744166,,response,,,,99,,,,,,,Space,keypress(Space),,,,,,,,---- -- comes -- ------ - ------- --- ----------<br>------------- ------ ------ ---- ---- ------- ----- -- ----<br>-------- ------- -- ---------- --- - --- ----- ----- ----<br>---- --- --- ----- --- ---- ---- ------- ----- ---- -------<br>--- --- -- ----- -- --- ---- -- --- ---- -- ------ ------<br>--- ----- -- ----,146192.1799999982,146191.70499999746,145696.054,145707.2850000004,145712.727,146196.046,,2,comes
screen,html.Screen,2_1_0_1_3,2021-04-30T13:23:01.258Z,,,,,,,,,,,,,,,,,53,,,,,,,,,,,,,,437.91399999920395,,response,,,,99,,,,,,,Space,keypress(Space),,,,,,,,---- -- ----- to ------ - ------- --- ----------<br>------------- ------ ------ ---- ---- ------- ----- -- ----<br>-------- ------- -- ---------- --- - --- ----- ----- ----<br>---- --- --- ----- --- ---- ---- ------- ----- ---- -------<br>--- --- -- ----- -- --- ---- -- --- ---- -- ------ ------<br>--- ----- -- ----,146634.2999999979,146633.9599999992,146179.396,146192.2749999976,146196.046,146646.106,,3,to
screen,html.Screen,2_1_0_1_4,2021-04-30T13:23:01.754Z,,,,,,,,,,,,,,,,,53,,,,,,,,,,,,,,483.87399999788613,,response,,,,99,,,,,,,Space,keypress(Space),,,,,,,,---- -- ----- -- having - ------- --- ----------<br>------------- ------ ------ ---- ---- ------- ----- -- ----<br>-------- ------- -- ---------- --- - --- ----- ----- ----<br>---- --- --- ----- --- ---- ---- ------- ----- ---- -------<br>--- --- -- ----- -- --- ---- -- --- ---- -- ------ ------<br>--- ----- -- ----,147130.36999999895,147129.9799999979,146629.386,146634.38499999756,146646.106,147146.042,,4,having
screen,html.Screen,2_1_0_1_5,2021-04-30T13:23:02.190Z,,,,,,,,,,,,,,,,,53,,,,,,,,,,,,,,420.2279999993625,,response,,,,99,,,,,,,Space,keypress(Space),,,,,,,,---- -- ----- -- ------ a ------- --- ----------<br>------------- ------ ------ ---- ---- ------- ----- -- ----<br>-------- ------- -- ---------- --- - --- ----- ----- ----<br>---- --- --- ----- --- ---- ---- ------- ----- ---- -------<br>--- --- -- ----- -- --- ---- -- --- ---- -- ------ ------<br>--- ----- -- ----,147566.70999999915,147566.26999999935,147129.391,147130.45499999862,147146.042,147579.404,,5,a
screen,html.Screen,2_1_0_1_6,2021-04-30T13:23:02.651Z,,,,,,,,,,,,,,,,,53,,,,,,,,,,,,,,447.7359999983164,,response,,,,99,,,,,,,Space,keypress(Space),,,,,,,,---- -- ----- -- ------ - lasting --- ----------<br>------------- ------ ------ ---- ---- ------- ----- -- ----<br>-------- ------- -- ---------- --- - --- ----- ----- ----<br>---- --- --- ----- --- ---- ---- ------- ----- ---- -------<br>--- --- -- ----- -- --- ---- -- --- ---- -- ------ ------<br>--- ----- -- ----,148027.45999999752,148027.13999999833,147562.696,147566.80499999857,147579.404,148029.407,,6,lasting
screen,html.Screen,2_1_0_1_7,2021-04-30T13:23:03.097Z,,,,,,,,,,,,,,,,,53,,,,,,,,,,,,,,444.19799999921815,,response,,,,99,,,,,,,Space,keypress(Space),,,,,,,,---- -- ----- -- ------ - ------- and ----------<br>------------- ------ ------ ---- ---- ------- ----- -- ----<br>-------- ------- -- ---------- --- - --- ----- ----- ----<br>---- --- --- ----- --- ---- ---- ------- ----- ---- -------<br>--- --- -- ----- -- --- ---- -- --- ---- -- ------ ------<br>--- ----- -- ----,148473.92499999842,148473.60499999922,148012.679,148027.53999999914,148029.407,148479.405,,7,and
screen,html.Screen,2_1_0_1_8,2021-04-30T13:23:03.568Z,,,,,,,,,,,,,,,,,53,,,,,,,,,,,,,,464.92499999844586,,response,,,,99,,,,,,,Space,keypress(Space),,,,,,,,---- -- ----- -- ------ - ------- --- fulfilling<br>------------- ------ ------ ---- ---- ------- ----- -- ----<br>-------- ------- -- ---------- --- - --- ----- ----- ----<br>---- --- --- ----- --- ---- ---- ------- ----- ---- -------<br>--- --- -- ----- -- --- ---- -- --- ---- -- ------ ------<br>--- ----- -- ----,148944.64999999764,148944.32999999844,148462.706,148474.0099999981,148479.405,148946.075,,8,fulfilling
screen,html.Screen,2_1_0_1_9,2021-04-30T13:23:03.960Z,,,,,,,,,,,,,,,,,53,,,,,,,,,,,,,,389.61999999792897,,response,,,,99,,,,,,,Space,keypress(Space),,,,,,,,"---- -- ----- -- ------ - ------- --- ----------<br>relationship, ------ ------ ---- ---- ------- ----- -- ----<br>-------- ------- -- ---------- --- - --- ----- ----- ----<br>---- --- --- ----- --- ---- ---- ------- ----- ---- -------<br>--- --- -- ----- -- --- ---- -- --- ---- -- ------ ------<br>--- ----- -- ----",149336.01999999883,149335.69499999794,148929.339,148944.7349999973,148946.075,149346.033,,9,"relationship,"
screen,html.Screen,2_1_0_1_10,2021-04-30T13:23:04.390Z,,,,,,,,,,,,,,,,,53,,,,,,,,,,,,,,420.2619999976305,,response,,,,99,,,,,,,Space,keypress(Space),,,,,,,,---- -- ----- -- ------ - ------- --- ----------<br>------------- common ------ ---- ---- ------- ----- -- ----<br>-------- ------- -- ---------- --- - --- ----- ----- ----<br>---- --- --- ----- --- ---- ---- ------- ----- ---- -------<br>--- --- -- ----- -- --- ---- -- --- ---- -- ------ ------<br>--- ----- -- ----,149766.60999999876,149766.29499999763,149329.349,149336.1049999985,149346.033,149779.354,,10,common
screen,html.Screen,2_1_0_1_11,2021-04-30T13:23:04.811Z,,,,,,,,,,,,,,,,,53,,,,,,,,,,,,,,407.96099999922444,,response,,,,99,,,,,,,Space,keypress(Space),,,,,,,,---- -- ----- -- ------ - ------- --- ----------<br>------------- ------ wisdom ---- ---- ------- ----- -- ----<br>-------- ------- -- ---------- --- - --- ----- ----- ----<br>---- --- --- ----- --- ---- ---- ------- ----- ---- -------<br>--- --- -- ----- -- --- ---- -- --- ---- -- ------ ------<br>--- ----- -- ----,150187.6149999989,150187.31499999922,149762.68,149766.69499999844,149779.354,150196.045,,11,wisdom
screen,html.Screen,2_1_0_1_12,2021-04-30T13:23:05.252Z,,,,,,,,,,,,,,,,,53,,,,,,,,,,,,,,432.36499999751686,,response,,,,99,,,,,,,Space,keypress(Space),,,,,,,,---- -- ----- -- ------ - ------- --- ----------<br>------------- ------ ------ says ---- ------- ----- -- ----<br>-------- ------- -- ---------- --- - --- ----- ----- ----<br>---- --- --- ----- --- ---- ---- ------- ----- ---- -------<br>--- --- -- ----- -- --- ---- -- --- ---- -- ------ ------<br>--- ----- -- ----,150628.7200000006,150628.40999999753,150179.32,150187.69500000053,150196.045,150629.335,,12,says
screen,html.Screen,2_1_0_1_13,2021-04-30T13:23:05.688Z,,,,,,,,,,,,,,,,,53,,,,,,,,,,,,,,435.10499999829335,,response,,,,99,,,,,,,Space,keypress(Space),,,,,,,,---- -- ----- -- ------ - ------- --- ----------<br>------------- ------ ------ ---- that ------- ----- -- ----<br>-------- ------- -- ---------- --- - --- ----- ----- ----<br>---- --- --- ----- --- ---- ---- ------- ----- ---- -------<br>--- --- -- ----- -- --- ---- -- --- ---- -- ------ ------<br>--- ----- -- ----,151064.73999999798,151064.43999999829,150612.683,150628.7999999986,150629.335,151079.331,,13,that
screen,html.Screen,2_1_0_1_14,2021-04-30T13:23:06.109Z,,,,,,,,,,,,,,,,,53,,,,,,,,,,,,,,406.22899999734364,,response,,,,99,,,,,,,Space,keypress(Space),,,,,,,,---- -- ----- -- ------ - ------- --- ----------<br>------------- ------ ------ ---- ---- feeling ----- -- ----<br>-------- ------- -- ---------- --- - --- ----- ----- ----<br>---- --- --- ----- --- ---- ---- ------- ----- ---- -------<br>--- --- -- ----- -- --- ---- -- --- ---- -- ------ ------<br>--- ----- -- ----,151485.9350000006,151485.55999999735,151062.66,151064.82499999765,151079.331,151496.014,,14,feeling
screen,html.Screen,2_1_0_1_15,2021-04-30T13:23:06.641Z,,,,,,,,,,,,,,,,,53,,,,,,,,,,,,,,520.6110000002082,,response,,,,99,,,,,,,Space,keypress(Space),,,,,,,,---- -- ----- -- ------ - ------- --- ----------<br>------------- ------ ------ ---- ---- ------- close -- ----<br>-------- ------- -- ---------- --- - --- ----- ----- ----<br>---- --- --- ----- --- ---- ---- ------- ----- ---- -------<br>--- --- -- ----- -- --- ---- -- --- ---- -- ------ ------<br>--- ----- -- ----,152016.94999999745,152016.6250000002,151479.315,151486.03000000003,151496.014,152029.355,,15,close
screen,html.Screen,2_1_0_1_16,2021-04-30T13:23:07.047Z,,,,,,,,,,,,,,,,,53,,,,,,,,,,,,,,393.4099999993341,,response,,,,99,,,,,,,Space,keypress(Space),,,,,,,,---- -- ----- -- ------ - ------- --- ----------<br>------------- ------ ------ ---- ---- ------- ----- to ----<br>-------- ------- -- ---------- --- - --- ----- ----- ----<br>---- --- --- ----- --- ---- ---- ------- ----- ---- -------<br>--- --- -- ----- -- --- ---- -- --- ---- -- ------ ------<br>--- ----- -- ----,152423.08499999854,152422.76499999934,152012.617,152017.03999999881,152029.355,152429.356,,16,to
screen,html.Screen,2_1_0_1_17,2021-04-30T13:23:07.538Z,,,,,,,,,,,,,,,,,53,,,,,,,,,,,,,,484.4039999994566,,response,,,,99,,,,,,,Space,keypress(Space),,,,,,,,---- -- ----- -- ------ - ------- --- ----------<br>------------- ------ ------ ---- ---- ------- ----- -- your<br>-------- ------- -- ---------- --- - --- ----- ----- ----<br>---- --- --- ----- --- ---- ---- ------- ----- ---- -------<br>--- --- -- ----- -- --- ---- -- --- ---- -- ------ ------<br>--- ----- -- ----,152914.14000000077,152913.75999999946,152412.628,152423.1699999982,152429.356,152929.32,,17,your
screen,html.Screen,2_1_0_1_18,2021-04-30T13:23:07.934Z,,,,,,,,,,,,,,,,,53,,,,,,,,,,,,,,380.43499999839696,,response,,,,99,,,,,,,Space,keypress(Space),,,,,,,,---- -- ----- -- ------ - ------- --- ----------<br>------------- ------ ------ ---- ---- ------- ----- -- ----<br>romantic ------- -- ---------- --- - --- ----- ----- ----<br>---- --- --- ----- --- ---- ---- ------- ----- ---- -------<br>--- --- -- ----- -- --- ---- -- --- ---- -- ------ ------<br>--- ----- -- ----,153310.08999999904,153309.7549999984,152912.655,152914.2350000002,152929.32,153312.655,,18,romantic
screen,html.Screen,2_1_0_1_19,2021-04-30T13:23:08.330Z,,,,,,,,,,,,,,,,,53,,,,,,,,,,,,,,393.1849999987171,,response,,,,99,,,,,,,Space,keypress(Space),,,,,,,,---- -- ----- -- ------ - ------- --- ----------<br>------------- ------ ------ ---- ---- ------- ----- -- ----<br>-------- partner -- ---------- --- - --- ----- ----- ----<br>---- --- --- ----- --- ---- ---- ------- ----- ---- -------<br>--- --- -- ----- -- --- ---- -- --- ---- -- ------ ------<br>--- ----- -- ----,153706.16999999766,153705.83999999872,153295.951,153310.1749999987,153312.655,153712.639,,19,partner
screen,html.Screen,2_1_0_1_20,2021-04-30T13:23:08.771Z,,,,,,,,,,,,,,,,,53,,,,,,,,,,,,,,434.26099999973667,,response,,,,99,,,,,,,Space,keypress(Space),,,,,,,,---- -- ----- -- ------ - ------- --- ----------<br>------------- ------ ------ ---- ---- ------- ----- -- ----<br>-------- ------- is ---------- --- - --- ----- ----- ----<br>---- --- --- ----- --- ---- ---- ------- ----- ---- -------<br>--- --- -- ----- -- --- ---- -- --- ---- -- ------ ------<br>--- ----- -- ----,154147.22999999867,154146.89999999973,153695.976,153706.25499999733,153712.639,154162.648,,20,is
screen,html.Screen,2_1_0_1_21,2021-04-30T13:23:09.202Z,,,,,,,,,,,,,,,,,53,,,,,,,,,,,,,,415.27199999973527,,response,,,,99,,,,,,,Space,keypress(Space),,,,,,,,---- -- ----- -- ------ - ------- --- ----------<br>------------- ------ ------ ---- ---- ------- ----- -- ----<br>-------- ------- -- paramount. --- - --- ----- ----- ----<br>---- --- --- ----- --- ---- ---- ------- ----- ---- -------<br>--- --- -- ----- -- --- ---- -- --- ---- -- ------ ------<br>--- ----- -- ----,154578.33499999833,154577.91999999972,154145.957,154147.31499999834,154162.648,154609.405,,21,paramount.
screen,html.Screen,2_1_0_1_22,2021-04-30T13:23:09.608Z,,,,,,,,,,,,,,,,,53,,,,,,,,,,,,,,374.5649999974994,,response,,,,99,,,,,,,Space,keypress(Space),,,,,,,,---- -- ----- -- ------ - ------- --- ----------<br>------------- ------ ------ ---- ---- ------- ----- -- ----<br>-------- ------- -- ---------- But - --- ----- ----- ----<br>---- --- --- ----- --- ---- ---- ------- ----- ---- -------<br>--- --- -- ----- -- --- ---- -- --- ---- -- ------ ------<br>--- ----- -- ----,154984.28000000058,154983.9699999975,154562.613,154578.47000000038,154609.405,154995.956,,22,But
screen,html.Screen,2_1_0_1_23,2021-04-30T13:23:09.954Z,,,,,,,,,,,,,,,,,53,,,,,,,,,,,,,,334.6789999984321,,response,,,,99,,,,,,,Space,keypress(Space),,,,,,,,---- -- ----- -- ------ - ------- --- ----------<br>------------- ------ ------ ---- ---- ------- ----- -- ----<br>-------- ------- -- ---------- --- a --- ----- ----- ----<br>---- --- --- ----- --- ---- ---- ------- ----- ---- -------<br>--- --- -- ----- -- --- ---- -- --- ---- -- ------ ------<br>--- ----- -- ----,155330.93499999814,155330.63499999844,154979.256,154984.35999999856,154995.956,155345.943,,23,a
screen,html.Screen,2_1_0_1_24,2021-04-30T13:23:10.355Z,,,,,,,,,,,,,,,,,53,,,,,,,,,,,,,,385.16199999893433,,response,,,,99,,,,,,,Space,keypress(Space),,,,,,,,---- -- ----- -- ------ - ------- --- ----------<br>------------- ------ ------ ---- ---- ------- ----- -- ----<br>-------- ------- -- ---------- --- - new ----- ----- ----<br>---- --- --- ----- --- ---- ---- ------- ----- ---- -------<br>--- --- -- ----- -- --- ---- -- --- ---- -- ------ ------<br>--- ----- -- ----,155731.43499999787,155731.10499999893,155329.255,155331.0199999978,155345.943,155746.001,,24,new
screen,html.Screen,2_1_0_1_25,2021-04-30T13:23:10.791Z,,,,,,,,,,,,,,,,,53,,,,,,,,,,,,,,421.09899999876507,,response,,,,99,,,,,,,Space,keypress(Space),,,,,,,,---- -- ----- -- ------ - ------- --- ----------<br>------------- ------ ------ ---- ---- ------- ----- -- ----<br>-------- ------- -- ---------- --- - --- study ----- ----<br>---- --- --- ----- --- ---- ---- ------- ----- ---- -------<br>--- --- -- ----- -- --- ---- -- --- ---- -- ------ ------<br>--- ----- -- ----,156167.43999999744,156167.09999999875,155729.265,155731.51999999754,155746.001,156179.273,,25,study
screen,html.Screen,2_1_0_1_26,2021-04-30T13:23:11.207Z,,,,,,,,,,,,,,,,,53,,,,,,,,,,,,,,403.9119999995164,,response,,,,99,,,,,,,Space,keypress(Space),,,,,,,,---- -- ----- -- ------ - ------- --- ----------<br>------------- ------ ------ ---- ---- ------- ----- -- ----<br>-------- ------- -- ---------- --- - --- ----- finds ----<br>---- --- --- ----- --- ---- ---- ------- ----- ---- -------<br>--- --- -- ----- -- --- ---- -- --- ---- -- ------ ------<br>--- ----- -- ----,156583.53999999963,156583.1849999995,156162.609,156167.51999999906,156179.273,156595.909,,26,finds
screen,html.Screen,2_1_0_1_27,2021-04-30T13:23:11.578Z,,,,,,,,,,,,,,,,,53,,,,,,,,,,,,,,358.29100000011385,,response,,,,99,,,,,,,Space,keypress(Space),,,,,,,,---- -- ----- -- ------ - ------- --- ----------<br>------------- ------ ------ ---- ---- ------- ----- -- ----<br>-------- ------- -- ---------- --- - --- ----- ----- that<br>---- --- --- ----- --- ---- ---- ------- ----- ---- -------<br>--- --- -- ----- -- --- ---- -- --- ---- -- ------ ------<br>--- ----- -- ----,156954.51999999932,156954.20000000013,156579.245,156583.63499999905,156595.909,156962.609,,27,that
screen,html.Screen,2_1_0_1_28,2021-04-30T13:23:11.984Z,,,,,,,,,,,,,,,,,53,,,,,,,,,,,,,,397.66099999740254,,response,,,,99,,,,,,,Space,keypress(Space),,,,,,,,---- -- ----- -- ------ - ------- --- ----------<br>------------- ------ ------ ---- ---- ------- ----- -- ----<br>-------- ------- -- ---------- --- - --- ----- ----- ----<br>it's --- --- ----- --- ---- ---- ------- ----- ---- -------<br>--- --- -- ----- -- --- ---- -- --- ---- -- ------ ------<br>--- ----- -- ----,157360.59999999998,157360.2699999974,156945.914,156954.5999999973,156962.609,157362.617,,28,it's
screen,html.Screen,2_1_0_1_29,2021-04-30T13:23:12.420Z,,,,,,,,,,,,,,,,,53,,,,,,,,,,,,,,433.7029999976512,,response,,,,99,,,,,,,Space,keypress(Space),,,,,,,,---- -- ----- -- ------ - ------- --- ----------<br>------------- ------ ------ ---- ---- ------- ----- -- ----<br>-------- ------- -- ---------- --- - --- ----- ----- ----<br>---- not --- ----- --- ---- ---- ------- ----- ---- -------<br>--- --- -- ----- -- --- ---- -- --- ---- -- ------ ------<br>--- ----- -- ----,157796.64000000048,157796.31999999765,157345.887,157360.6899999977,157362.617,157812.615,,29,not
screen,html.Screen,2_1_0_1_30,2021-04-30T13:23:12.785Z,,,,,,,,,,,,,,,,,53,,,,,,,,,,,,,,348.77999999918393,,response,,,,99,,,,,,,Space,keypress(Space),,,,,,,,---- -- ----- -- ------ - ------- --- ----------<br>------------- ------ ------ ---- ---- ------- ----- -- ----<br>-------- ------- -- ---------- --- - --- ----- ----- ----<br>---- --- how ----- --- ---- ---- ------- ----- ---- -------<br>--- --- -- ----- -- --- ---- -- --- ---- -- ------ ------<br>--- ----- -- ----,158161.70499999862,158161.39499999917,157795.917,157796.72500000015,157812.615,158180.539,,30,how
screen,html.Screen,2_1_0_1_31,2021-04-30T13:23:13.217Z,,,,,,,,,,,,,,,,,53,,,,,,,,,,,,,,411.88100000086706,,response,,,,99,,,,,,,Space,keypress(Space),,,,,,,,---- -- ----- -- ------ - ------- --- ----------<br>------------- ------ ------ ---- ---- ------- ----- -- ----<br>-------- ------- -- ---------- --- - --- ----- ----- ----<br>---- --- --- close --- ---- ---- ------- ----- ---- -------<br>--- --- -- ----- -- --- ---- -- --- ---- -- ------ ------<br>--- ----- -- ----,158593.05499999755,158592.42000000086,158145.886,158161.7899999983,158180.539,158595.873,,31,close
screen,html.Screen,2_1_0_1_32,2021-04-30T13:23:13.642Z,,,,,,,,,,,,,,,,,53,,,,,,,,,,,,,,422.6469999978144,,response,,,,99,,,,,,,Space,keypress(Space),,,,,,,,---- -- ----- -- ------ - ------- --- ----------<br>------------- ------ ------ ---- ---- ------- ----- -- ----<br>-------- ------- -- ---------- --- - --- ----- ----- ----<br>---- --- --- ----- you ---- ---- ------- ----- ---- -------<br>--- --- -- ----- -- --- ---- -- --- ---- -- ------ ------<br>--- ----- -- ----,159018.84000000064,159018.5199999978,158579.222,158593.1500000006,158595.873,159029.227,,32,you
screen,html.Screen,2_1_0_1_33,2021-04-30T13:23:14.053Z,,,,,,,,,,,,,,,,,53,,,,,,,,,,,,,,400.28299999810406,,response,,,,99,,,,,,,Space,keypress(Space),,,,,,,,---- -- ----- -- ------ - ------- --- ----------<br>------------- ------ ------ ---- ---- ------- ----- -- ----<br>-------- ------- -- ---------- --- - --- ----- ----- ----<br>---- --- --- ----- --- feel ---- ------- ----- ---- -------<br>--- --- -- ----- -- --- ---- -- --- ---- -- ------ ------<br>--- ----- -- ----,159429.8149999995,159429.50999999812,159012.547,159018.92999999836,159029.227,159445.905,,33,feel
screen,html.Screen,2_1_0_1_34,2021-04-30T13:23:14.460Z,,,,,,,,,,,,,,,,,53,,,,,,,,,,,,,,389.71499999801745,,response,,,,99,,,,,,,Space,keypress(Space),,,,,,,,---- -- ----- -- ------ - ------- --- ----------<br>------------- ------ ------ ---- ---- ------- ----- -- ----<br>-------- ------- -- ---------- --- - --- ----- ----- ----<br>---- --- --- ----- --- ---- that ------- ----- ---- -------<br>--- --- -- ----- -- --- ---- -- --- ---- -- ------ ------<br>--- ----- -- ----,159835.9700000001,159835.61999999802,159429.218,159430.64999999842,159445.905,159845.891,,34,that
screen,html.Screen,2_1_0_1_35,2021-04-30T13:23:14.816Z,,,,,,,,,,,,,,,,,53,,,,,,,,,,,,,,345.78399999820977,,response,,,,99,,,,,,,Space,keypress(Space),,,,,,,,---- -- ----- -- ------ - ------- --- ----------<br>------------- ------ ------ ---- ---- ------- ----- -- ----<br>-------- ------- -- ---------- --- - --- ----- ----- ----<br>---- --- --- ----- --- ---- ---- matters ----- ---- -------<br>--- --- -- ----- -- --- ---- -- --- ---- -- ------ ------<br>--- ----- -- ----,160191.98499999766,160191.6749999982,159829.201,159836.05999999781,159845.891,160195.86,,35,matters
screen,html.Screen,2_1_0_1_36,2021-04-30T13:23:15.257Z,,,,,,,,,,,,,,,,,53,,,,,,,,,,,,,,436.7949999976263,,response,,,,99,,,,,,,Space,keypress(Space),,,,,,,,"---- -- ----- -- ------ - ------- --- ----------<br>------------- ------ ------ ---- ---- ------- ----- -- ----<br>-------- ------- -- ---------- --- - --- ----- ----- ----<br>---- --- --- ----- --- ---- ---- ------- most, ---- -------<br>--- --- -- ----- -- --- ---- -- --- ---- -- ------ ------<br>--- ----- -- ----",160632.96999999875,160632.6549999976,160179.203,160192.48499999958,160195.86,160645.851,,36,"most,"
screen,html.Screen,2_1_0_1_37,2021-04-30T13:23:15.738Z,,,,,,,,,,,,,,,,,53,,,,,,,,,,,,,,467.9289999996836,,response,,,,99,,,,,,,Space,keypress(Space),,,,,,,,---- -- ----- -- ------ - ------- --- ----------<br>------------- ------ ------ ---- ---- ------- ----- -- ----<br>-------- ------- -- ---------- --- - --- ----- ----- ----<br>---- --- --- ----- --- ---- ---- ------- ----- it's -------<br>--- --- -- ----- -- --- ---- -- --- ---- -- ------ ------<br>--- ----- -- ----,161114.08499999743,161113.77999999968,160629.191,160633.05499999842,160645.851,161129.195,,37,it's
screen,html.Screen,2_1_0_1_38,2021-04-30T13:23:16.149Z,,,,,,,,,,,,,,,,,53,,,,,,,,,,,,,,396.09999999945285,,response,,,,99,,,,,,,Space,keypress(Space),,,,,,,,---- -- ----- -- ------ - ------- --- ----------<br>------------- ------ ------ ---- ---- ------- ----- -- ----<br>-------- ------- -- ---------- --- - --- ----- ----- ----<br>---- --- --- ----- --- ---- ---- ------- ----- ---- whether<br>--- --- -- ----- -- --- ---- -- --- ---- -- ------ ------<br>--- ----- -- ----,161525.6449999979,161525.29499999946,161112.541,161114.16499999905,161129.195,161529.173,,38,whether
screen,html.Screen,2_1_0_1_39,2021-04-30T13:23:16.530Z,,,,,,,,,,,,,,,,,53,,,,,,,,,,,,,,376.71200000011595,,response,,,,99,,,,,,,Space,keypress(Space),,,,,,,,---- -- ----- -- ------ - ------- --- ----------<br>------------- ------ ------ ---- ---- ------- ----- -- ----<br>-------- ------- -- ---------- --- - --- ----- ----- ----<br>---- --- --- ----- --- ---- ---- ------- ----- ---- -------<br>you --- -- ----- -- --- ---- -- --- ---- -- ------ ------<br>--- ----- -- ----,161906.22000000076,161905.88500000013,161512.501,161525.71499999976,161529.173,161912.514,,39,you
screen,html.Screen,2_1_0_1_40,2021-04-30T13:23:16.876Z,,,,,,,,,,,,,,,,,53,,,,,,,,,,,,,,339.3609999981127,,response,,,,99,,,,,,,Space,keypress(Space),,,,,,,,---- -- ----- -- ------ - ------- --- ----------<br>------------- ------ ------ ---- ---- ------- ----- -- ----<br>-------- ------- -- ---------- --- - --- ----- ----- ----<br>---- --- --- ----- --- ---- ---- ------- ----- ---- -------<br>--- are -- ----- -- --- ---- -- --- ---- -- ------ ------<br>--- ----- -- ----,162252.1749999978,162251.8749999981,161895.841,161906.29999999874,161912.514,162262.529,,40,are
screen,html.Screen,2_1_0_1_41,2021-04-30T13:23:17.247Z,,,,,,,,,,,,,,,,,53,,,,,,,,,,,,,,360.37099999847123,,response,,,,99,,,,,,,Space,keypress(Space),,,,,,,,---- -- ----- -- ------ - ------- --- ----------<br>------------- ------ ------ ---- ---- ------- ----- -- ----<br>-------- ------- -- ---------- --- - --- ----- ----- ----<br>---- --- --- ----- --- ---- ---- ------- ----- ---- -------<br>--- --- as ----- -- --- ---- -- --- ---- -- ------ ------<br>--- ----- -- ----,162623.21999999767,162622.89999999848,162245.84,162252.24999999773,162262.529,162629.191,,41,as
screen,html.Screen,2_1_0_1_42,2021-04-30T13:23:17.948Z,,,,,,,,,,,,,,,,,53,,,,,,,,,,,,,,694.8090000005323,,response,,,,99,,,,,,,Space,keypress(Space),,,,,,,,---- -- ----- -- ------ - ------- --- ----------<br>------------- ------ ------ ---- ---- ------- ----- -- ----<br>-------- ------- -- ---------- --- - --- ----- ----- ----<br>---- --- --- ----- --- ---- ---- ------- ----- ---- -------<br>--- --- -- close -- --- ---- -- --- ---- -- ------ ------<br>--- ----- -- ----,163324.31999999972,163324.00000000052,162612.504,162623.2999999993,162629.191,163329.154,,42,close
screen,html.Screen,2_1_0_1_43,2021-04-30T13:23:18.339Z,,,,,,,,,,,,,,,,,53,,,,,,,,,,,,,,385.90599999862025,,response,,,,99,,,,,,,Space,keypress(Space),,,,,,,,---- -- ----- -- ------ - ------- --- ----------<br>------------- ------ ------ ---- ---- ------- ----- -- ----<br>-------- ------- -- ---------- --- - --- ----- ----- ----<br>---- --- --- ----- --- ---- ---- ------- ----- ---- -------<br>--- --- -- ----- as --- ---- -- --- ---- -- ------ ------<br>--- ----- -- ----,163715.34500000053,163715.05999999863,163312.501,163324.4049999994,163329.154,163729.211,,43,as
screen,html.Screen,2_1_0_1_44,2021-04-30T13:23:18.795Z,,,,,,,,,,,,,,,,,53,,,,,,,,,,,,,,441.9340000002412,,response,,,,99,,,,,,,Space,keypress(Space),,,,,,,,---- -- ----- -- ------ - ------- --- ----------<br>------------- ------ ------ ---- ---- ------- ----- -- ----<br>-------- ------- -- ---------- --- - --- ----- ----- ----<br>---- --- --- ----- --- ---- ---- ------- ----- ---- -------<br>--- --- -- ----- -- you ---- -- --- ---- -- ------ ------<br>--- ----- -- ----,164171.4699999975,164171.14500000025,163712.484,163715.4249999985,163729.211,164179.171,,44,you
screen,html.Screen,2_1_0_1_45,2021-04-30T13:23:19.191Z,,,,,,,,,,,,,,,,,53,,,,,,,,,,,,,,388.02399999962654,,response,,,,99,,,,,,,Space,keypress(Space),,,,,,,,---- -- ----- -- ------ - ------- --- ----------<br>------------- ------ ------ ---- ---- ------- ----- -- ----<br>-------- ------- -- ---------- --- - --- ----- ----- ----<br>---- --- --- ----- --- ---- ---- ------- ----- ---- -------<br>--- --- -- ----- -- --- want -- --- ---- -- ------ ------<br>--- ----- -- ----,164567.49499999933,164567.19499999963,164162.483,164172.4499999982,164179.171,164579.17,,45,want
screen,html.Screen,2_1_0_1_46,2021-04-30T13:23:19.547Z,,,,,,,,,,,,,,,,,53,,,,,,,,,,,,,,344.08499999786727,,response,,,,99,,,,,,,Space,keypress(Space),,,,,,,,---- -- ----- -- ------ - ------- --- ----------<br>------------- ------ ------ ---- ---- ------- ----- -- ----<br>-------- ------- -- ---------- --- - --- ----- ----- ----<br>---- --- --- ----- --- ---- ---- ------- ----- ---- -------<br>--- --- -- ----- -- --- ---- to --- ---- -- ------ ------<br>--- ----- -- ----,164923.58500000046,164923.25499999788,164562.473,164567.5749999973,164579.17,164929.157,,46,to
screen,html.Screen,2_1_0_1_47,2021-04-30T13:23:19.903Z,,,,,,,,,,,,,,,,,53,,,,,,,,,,,,,,350.2030000004452,,response,,,,99,,,,,,,Space,keypress(Space),,,,,,,,"---- -- ----- -- ------ - ------- --- ----------<br>------------- ------ ------ ---- ---- ------- ----- -- ----<br>-------- ------- -- ---------- --- - --- ----- ----- ----<br>---- --- --- ----- --- ---- ---- ------- ----- ---- -------<br>--- --- -- ----- -- --- ---- -- be, ---- -- ------ ------<br>--- ----- -- ----",165279.67499999795,165279.36000000045,164912.488,164923.66000000038,164929.157,165295.821,,47,"be,"
screen,html.Screen,2_1_0_1_48,2021-04-30T13:23:20.285Z,,,,,,,,,,,,,,,,,53,,,,,,,,,,,,,,365.18399999811663,,response,,,,99,,,,,,,Space,keypress(Space),,,,,,,,---- -- ----- -- ------ - ------- --- ----------<br>------------- ------ ------ ---- ---- ------- ----- -- ----<br>-------- ------- -- ---------- --- - --- ----- ----- ----<br>---- --- --- ----- --- ---- ---- ------- ----- ---- -------<br>--- --- -- ----- -- --- ---- -- --- even -- ------ ------<br>--- ----- -- ----,165661.31499999756,165661.0049999981,165279.103,165279.74999999788,165295.821,165680.559,,48,even
screen,html.Screen,2_1_0_1_49,2021-04-30T13:23:20.684Z,,,,,,,,,,,,,,,,,53,,,,,,,,,,,,,,379.8509999982198,,response,,,,99,,,,,,,Space,keypress(Space),,,,,,,,---- -- ----- -- ------ - ------- --- ----------<br>------------- ------ ------ ---- ---- ------- ----- -- ----<br>-------- ------- -- ---------- --- - --- ----- ----- ----<br>---- --- --- ----- --- ---- ---- ------- ----- ---- -------<br>--- --- -- ----- -- --- ---- -- --- ---- if ------ ------<br>--- ----- -- ----,166060.70499999987,166060.40999999823,165645.793,165661.38499999943,165680.559,166062.446,,49,if
screen,html.Screen,2_1_0_1_50,2021-04-30T13:23:21.025Z,,,,,,,,,,,,,,,,,53,,,,,,,,,,,,,,338.95900000052643,,response,,,,99,,,,,,,Space,keypress(Space),,,,,,,,---- -- ----- -- ------ - ------- --- ----------<br>------------- ------ ------ ---- ---- ------- ----- -- ----<br>-------- ------- -- ---------- --- - --- ----- ----- ----<br>---- --- --- ----- --- ---- ---- ------- ----- ---- -------<br>--- --- -- ----- -- --- ---- -- --- ---- -- that's ------<br>--- ----- -- ----,166401.69999999853,166401.40500000052,166045.817,166060.7799999998,166062.446,166412.472,,50,that's
screen,html.Screen,2_1_0_1_51,2021-04-30T13:23:21.511Z,,,,,,,,,,,,,,,,,53,,,,,,,,,,,,,,475.0979999989504,,response,,,,99,,,,,,,Space,keypress(Space),,,,,,,,---- -- ----- -- ------ - ------- --- ----------<br>------------- ------ ------ ---- ---- ------- ----- -- ----<br>-------- ------- -- ---------- --- - --- ----- ----- ----<br>---- --- --- ----- --- ---- ---- ------- ----- ---- -------<br>--- --- -- ----- -- --- ---- -- --- ---- -- ------ really<br>--- ----- -- ----,166887.9199999974,166887.56999999896,166395.775,166401.77499999845,166412.472,166895.806,,51,really
screen,html.Screen,2_1_0_1_52,2021-04-30T13:23:21.907Z,,,,,,,,,,,,,,,,,53,,,,,,,,,,,,,,387.7839999990829,,response,,,,99,,,,,,,Space,keypress(Space),,,,,,,,---- -- ----- -- ------ - ------- --- ----------<br>------------- ------ ------ ---- ---- ------- ----- -- ----<br>-------- ------- -- ---------- --- - --- ----- ----- ----<br>---- --- --- ----- --- ---- ---- ------- ----- ---- -------<br>--- --- -- ----- -- --- ---- -- --- ---- -- ------ ------<br>not ----- -- ----,167283.88500000074,167283.5899999991,166879.076,166887.99499999732,166895.806,167295.758,,52,not
screen,html.Screen,2_1_0_1_53,2021-04-30T13:23:22.313Z,,,,,,,,,,,,,,,,,53,,,,,,,,,,,,,,393.851999997627,,response,,,,99,,,,,,,Space,keypress(Space),,,,,,,,---- -- ----- -- ------ - ------- --- ----------<br>------------- ------ ------ ---- ---- ------- ----- -- ----<br>-------- ------- -- ---------- --- - --- ----- ----- ----<br>---- --- --- ----- --- ---- ---- ------- ----- ---- -------<br>--- --- -- ----- -- --- ---- -- --- ---- -- ------ ------<br>--- close -- ----,167689.89499999952,167689.60999999763,167279.1,167283.95499999897,167295.758,167695.777,,53,close
screen,html.Screen,2_1_0_1_54,2021-04-30T13:23:22.695Z,,,,,,,,,,,,,,,,,53,,,,,,,,,,,,,,374.8879999992787,,response,,,,99,,,,,,,Space,keypress(Space),,,,,,,,---- -- ----- -- ------ - ------- --- ----------<br>------------- ------ ------ ---- ---- ------- ----- -- ----<br>-------- ------- -- ---------- --- - --- ----- ----- ----<br>---- --- --- ----- --- ---- ---- ------- ----- ---- -------<br>--- --- -- ----- -- --- ---- -- --- ---- -- ------ ------<br>--- ----- at ----,168070.98000000042,168070.66499999928,167679.091,167689.96499999776,167695.777,168079.136,,54,at
screen,html.Screen,2_1_0_1_55,2021-04-30T13:23:23.181Z,,,,,,,,,,,,,,,,,53,,,,,,,,,,,,,,477.5489999995625,,response,,,,99,,,,,,,Space,keypress(Space),,,,,,,,---- -- ----- -- ------ - ------- --- ----------<br>------------- ------ ------ ---- ---- ------- ----- -- ----<br>-------- ------- -- ---------- --- - --- ----- ----- ----<br>---- --- --- ----- --- ---- ---- ------- ----- ---- -------<br>--- --- -- ----- -- --- ---- -- --- ---- -- ------ ------<br>--- ----- -- all.,168556.9899999973,168556.68499999956,168062.423,168071.05500000034,168079.136,168562.453,,55,all.
Item 99,flow.Loop,2_1_0_1,2021-04-30T13:23:23.181Z,,,,,,,,,,,,,,,,,,,,,,,,,,,,,,,24093.942999999563,,completion,,,,,F,,,,,,,,,,,silence,,,,,168557.1400000008,168556.68499999956,144446.133,144446.5199999977,144462.742,168562.453,,,
Question 1,html.Screen,2_1_0_2,2021-04-30T13:23:29.042Z,,,,,,,,,,,,,,,,,,,,,,,,,,,,true,FALSE,,5855.766999999556,,response,,,,99,F,,,,,,FALSE,click #choice-2,,,,silence,,,,,174418.62499999843,174418.21999999956,168545.751,168557.20499999734,168562.453,174429.018,,,
Question 2,html.Screen,2_1_0_3,2021-04-30T13:23:34.236Z,,,,,,,,,,,,,,,,,,,,,,,,,,,,true,TRUE,,5182.8869999979215,,response,,,,99,F,,,,,,TRUE,click #choice-1,,,,silence,,,,,179612.3750000006,179611.90499999793,174412.355,174418.70500000005,174429.018,179639.315,,,
Item 99,flow.Sequence,2_1_0,2021-04-30T13:23:34.236Z,,,,,,,,,,,,,,,,,,,,,,,,,,,,,,,45149.00299999793,,completion,,,,,,,,,,,,,,,,,,,,,179612.49499999758,179611.90499999793,134446.208,134458.81999999983,134462.902,179639.315,,,
Holding screen,html.Screen,2_1_1_0,2021-04-30T13:23:44.253Z,,,,,,,,,,,,,,,,,,,,,,,,,,,,,,,10006.15400000001,,timeout,,,,,,,,,,,,,,,,,,,,,189629.34499999756,189628.798,179612.265,179612.5699999975,179639.315,189645.469,,,
screen,html.Screen,2_1_1_1_0,2021-04-30T13:23:45.465Z,,,,,,,,,,,,,,,,,54,,,,,,,,,,,,,,1195.8860000004643,,response,,,,100,,,,,,,Space,keypress(Space),,,,,,,,At --- ---- --- ------ ----- ------- ---- -- --- ------- --<br>------- ---------- ------ -- ----- -- ----- -- ---- ------<br>--- ----- --- --- ------ -------- ----- --- ------ ----- --<br>----- ----- ---------- --- --- ------ ------ ---- -- ------<br>------- --- ------ ----- --- ---- ------- -- ---- --- --<br>------- ------,190841.70000000086,190841.35500000048,189628.798,189629.45000000036,189645.469,190845.469,,0,At
screen,html.Screen,2_1_1_1_1,2021-04-30T13:23:45.935Z,,,,,,,,,,,,,,,,,54,,,,,,,,,,,,,,466.1709999998857,,response,,,,100,,,,,,,Space,keypress(Space),,,,,,,,-- the ---- --- ------ ----- ------- ---- -- --- ------- --<br>------- ---------- ------ -- ----- -- ----- -- ---- ------<br>--- ----- --- --- ------ -------- ----- --- ------ ----- --<br>----- ----- ---------- --- --- ------ ------ ---- -- ------<br>------- --- ------ ----- --- ---- ------- -- ---- --- --<br>------- ------,191311.94499999765,191311.6399999999,190828.741,190841.77999999883,190845.469,191328.775,,1,the
screen,html.Screen,2_1_1_1_2,2021-04-30T13:23:46.357Z,,,,,,,,,,,,,,,,,54,,,,,,,,,,,,,,403.9449999999779,,response,,,,100,,,,,,,Space,keypress(Space),,,,,,,,-- --- time --- ------ ----- ------- ---- -- --- ------- --<br>------- ---------- ------ -- ----- -- ----- -- ---- ------<br>--- ----- --- --- ------ -------- ----- --- ------ ----- --<br>----- ----- ---------- --- --- ------ ------ ---- -- ------<br>------- --- ------ ----- --- ---- ------- -- ---- --- --<br>------- ------,191732.99499999848,191732.71999999997,191312.112,191312.01999999757,191328.775,191745.482,,2,time
screen,html.Screen,2_1_1_1_3,2021-04-30T13:23:46.783Z,,,,,,,,,,,,,,,,,54,,,,,,,,,,,,,,413.3029999996361,,response,,,,100,,,,,,,Space,keypress(Space),,,,,,,,-- --- ---- the ------ ----- ------- ---- -- --- ------- --<br>------- ---------- ------ -- ----- -- ----- -- ---- ------<br>--- ----- --- --- ------ -------- ----- --- ------ ----- --<br>----- ----- ---------- --- --- ------ ------ ---- -- ------<br>------- --- ------ ----- --- ---- ------- -- ---- --- --<br>------- ------,192159.09499999907,192158.78499999963,191728.751,191733.0699999984,191745.482,192162.069,,3,the
screen,html.Screen,2_1_1_1_4,2021-04-30T13:23:47.199Z,,,,,,,,,,,,,,,,,54,,,,,,,,,,,,,,413.1010000000824,,response,,,,100,,,,,,,Space,keypress(Space),,,,,,,,-- --- ---- --- French ----- ------- ---- -- --- ------- --<br>------- ---------- ------ -- ----- -- ----- -- ---- ------<br>--- ----- --- --- ------ -------- ----- --- ------ ----- --<br>----- ----- ---------- --- --- ------ ------ ---- -- ------<br>------- --- ------ ----- --- ---- ------- -- ---- --- --<br>------- ------,192575.5250000002,192575.17000000007,192145.42,192159.1649999973,192162.069,192578.746,,4,French
screen,html.Screen,2_1_1_1_5,2021-04-30T13:23:47.650Z,,,,,,,,,,,,,,,,,54,,,,,,,,,,,,,,447.1689999983355,,response,,,,100,,,,,,,Space,keypress(Space),,,,,,,,-- --- ---- --- ------ crown ------- ---- -- --- ------- --<br>------- ---------- ------ -- ----- -- ----- -- ---- ------<br>--- ----- --- --- ------ -------- ----- --- ------ ----- --<br>----- ----- ---------- --- --- ------ ------ ---- -- ------<br>------- --- ------ ----- --- ---- ------- -- ---- --- --<br>------- ------,193026.24999999898,193025.91499999835,192562.1,192575.60499999818,192578.746,193028.725,,5,crown
screen,html.Screen,2_1_1_1_6,2021-04-30T13:23:48.076Z,,,,,,,,,,,,,,,,,54,,,,,,,,,,,,,,423.1550000005227,,response,,,,100,,,,,,,Space,keypress(Space),,,,,,,,-- --- ---- --- ------ ----- secured ---- -- --- ------- --<br>------- ---------- ------ -- ----- -- ----- -- ---- ------<br>--- ----- --- --- ------ -------- ----- --- ------ ----- --<br>----- ----- ---------- --- --- ------ ------ ---- -- ------<br>------- --- ------ ----- --- ---- ------- -- ---- --- --<br>------- ------,193452.18999999997,193451.88000000053,193012.053,193026.32000000085,193028.725,193462.095,,6,secured
screen,html.Screen,2_1_1_1_7,2021-04-30T13:23:48.512Z,,,,,,,,,,,,,,,,,54,,,,,,,,,,,,,,425.8550000002724,,response,,,,100,,,,,,,Space,keypress(Space),,,,,,,,-- --- ---- --- ------ ----- ------- much -- --- ------- --<br>------- ---------- ------ -- ----- -- ----- -- ---- ------<br>--- ----- --- --- ------ -------- ----- --- ------ ----- --<br>----- ----- ---------- --- --- ------ ------ ---- -- ------<br>------- --- ------ ----- --- ---- ------- -- ---- --- --<br>------- ------,193888.26499999777,193887.95000000027,193445.417,193452.2649999999,193462.095,193895.382,,7,much
screen,html.Screen,2_1_1_1_8,2021-04-30T13:23:48.973Z,,,,,,,,,,,,,,,,,54,,,,,,,,,,,,,,453.6880000001984,,response,,,,100,,,,,,,Space,keypress(Space),,,,,,,,-- --- ---- --- ------ ----- ------- ---- of --- ------- --<br>------- ---------- ------ -- ----- -- ----- -- ---- ------<br>--- ----- --- --- ------ -------- ----- --- ------ ----- --<br>----- ----- ---------- --- --- ------ ------ ---- -- ------<br>------- --- ------ ----- --- ---- ------- -- ---- --- --<br>------- ------,194349.4099999989,194349.0700000002,193878.706,193888.3449999994,193895.382,194362.062,,8,of
screen,html.Screen,2_1_1_1_9,2021-04-30T13:23:49.404Z,,,,,,,,,,,,,,,,,54,,,,,,,,,,,,,,417.99799999731476,,response,,,,100,,,,,,,Space,keypress(Space),,,,,,,,-- --- ---- --- ------ ----- ------- ---- -- its ------- --<br>------- ---------- ------ -- ----- -- ----- -- ---- ------<br>--- ----- --- --- ------ -------- ----- --- ------ ----- --<br>----- ----- ---------- --- --- ------ ------ ---- -- ------<br>------- --- ------ ----- --- ---- ------- -- ---- --- --<br>------- ------,194780.3700000004,194780.05999999732,194345.403,194349.49000000051,194362.062,194795.421,,9,its
screen,html.Screen,2_1_1_1_10,2021-04-30T13:23:49.890Z,,,,,,,,,,,,,,,,,54,,,,,,,,,,,,,,470.70899999997346,,response,,,,100,,,,,,,Space,keypress(Space),,,,,,,,-- --- ---- --- ------ ----- ------- ---- -- --- revenue --<br>------- ---------- ------ -- ----- -- ----- -- ---- ------<br>--- ----- --- --- ------ -------- ----- --- ------ ----- --<br>----- ----- ---------- --- --- ------ ------ ---- -- ------<br>------- --- ------ ----- --- ---- ------- -- ---- --- --<br>------- ------,195266.44499999747,195266.12999999998,194778.7,194780.44500000033,194795.421,195278.776,,10,revenue
screen,html.Screen,2_1_1_1_11,2021-04-30T13:23:50.351Z,,,,,,,,,,,,,,,,,54,,,,,,,,,,,,,,448.40899999972316,,response,,,,100,,,,,,,Space,keypress(Space),,,,,,,,-- --- ---- --- ------ ----- ------- ---- -- --- ------- by<br>------- ---------- ------ -- ----- -- ----- -- ---- ------<br>--- ----- --- --- ------ -------- ----- --- ------ ----- --<br>----- ----- ---------- --- --- ------ ------ ---- -- ------<br>------- --- ------ ----- --- ---- ------- -- ---- --- --<br>------- ------,195727.48499999943,195727.18499999974,195262.026,195266.5199999974,195278.776,195755.136,,11,by
screen,html.Screen,2_1_1_1_12,2021-04-30T13:23:50.867Z,,,,,,,,,,,,,,,,,54,,,,,,,,,,,,,,488.14900000047055,,response,,,,100,,,,,,,Space,keypress(Space),,,,,,,,-- --- ---- --- ------ ----- ------- ---- -- --- ------- --<br>issuing ---------- ------ -- ----- -- ----- -- ---- ------<br>--- ----- --- --- ------ -------- ----- --- ------ ----- --<br>----- ----- ---------- --- --- ------ ------ ---- -- ------<br>------- --- ------ ----- --- ---- ------- -- ---- --- --<br>------- ------,196243.5949999999,196243.28500000047,195712.026,195727.55999999936,195755.136,196245.367,,12,issuing
screen,html.Screen,2_1_1_1_13,2021-04-30T13:23:51.328Z,,,,,,,,,,,,,,,,,54,,,,,,,,,,,,,,458.98799999803305,,response,,,,100,,,,,,,Space,keypress(Space),,,,,,,,-- --- ---- --- ------ ----- ------- ---- -- --- ------- --<br>------- government ------ -- ----- -- ----- -- ---- ------<br>--- ----- --- --- ------ -------- ----- --- ------ ----- --<br>----- ----- ---------- --- --- ------ ------ ---- -- ------<br>------- --- ------ ----- --- ---- ------- -- ---- --- --<br>------- ------,196704.67500000086,196704.35499999803,196228.679,196243.66999999984,196245.367,196712.072,,13,government
screen,html.Screen,2_1_1_1_14,2021-04-30T13:23:51.824Z,,,,,,,,,,,,,,,,,54,,,,,,,,,,,,,,488.32799999791314,,response,,,,100,,,,,,,Space,keypress(Space),,,,,,,,-- --- ---- --- ------ ----- ------- ---- -- --- ------- --<br>------- ---------- bonds. -- ----- -- ----- -- ---- ------<br>--- ----- --- --- ------ -------- ----- --- ------ ----- --<br>----- ----- ---------- --- --- ------ ------ ---- -- ------<br>------- --- ------ ----- --- ---- ------- -- ---- --- --<br>------- ------,197200.71499999904,197200.3999999979,196695.367,196704.7449999991,196712.072,197212.035,,14,bonds.
screen,html.Screen,2_1_1_1_15,2021-04-30T13:23:52.301Z,,,,,,,,,,,,,,,,,54,,,,,,,,,,,,,,465.4349999987171,,response,,,,100,,,,,,,Space,keypress(Space),,,,,,,,-- --- ---- --- ------ ----- ------- ---- -- --- ------- --<br>------- ---------- ------ In ----- -- ----- -- ---- ------<br>--- ----- --- --- ------ -------- ----- --- ------ ----- --<br>----- ----- ---------- --- --- ------ ------ ---- -- ------<br>------- --- ------ ----- --- ---- ------- -- ---- --- --<br>------- ------,197677.8200000008,197677.46999999872,197195.36,197200.78999999896,197212.035,197698.618,,15,In
screen,html.Screen,2_1_1_1_16,2021-04-30T13:23:52.822Z,,,,,,,,,,,,,,,,,54,,,,,,,,,,,,,,499.9869999977818,,response,,,,100,,,,,,,Space,keypress(Space),,,,,,,,"-- --- ---- --- ------ ----- ------- ---- -- --- ------- --<br>------- ---------- ------ -- 1727, -- ----- -- ---- ------<br>--- ----- --- --- ------ -------- ----- --- ------ ----- --<br>----- ----- ---------- --- --- ------ ------ ---- -- ------<br>------- --- ------ ----- --- ---- ------- -- ---- --- --<br>------- ------",198198.8999999994,198198.60499999777,197662.009,197677.89999999877,197698.618,198212.024,,16,"1727,"
screen,html.Screen,2_1_1_1_17,2021-04-30T13:23:53.298Z,,,,,,,,,,,,,,,,,54,,,,,,,,,,,,,,462.5459999992163,,response,,,,100,,,,,,,Space,keypress(Space),,,,,,,,-- --- ---- --- ------ ----- ------- ---- -- --- ------- --<br>------- ---------- ------ -- ----- in ----- -- ---- ------<br>--- ----- --- --- ------ -------- ----- --- ------ ----- --<br>----- ----- ---------- --- --- ------ ------ ---- -- ------<br>------- --- ------ ----- --- ---- ------- -- ---- --- --<br>------- ------,198674.85499999748,198674.56999999922,198195.329,198198.97499999934,198212.024,198678.698,,17,in
screen,html.Screen,2_1_1_1_18,2021-04-30T13:23:54.065Z,,,,,,,,,,,,,,,,,54,,,,,,,,,,,,,,762.9669999984617,,response,,,,100,,,,,,,Space,keypress(Space),,,,,,,,-- --- ---- --- ------ ----- ------- ---- -- --- ------- --<br>------- ---------- ------ -- ----- -- order -- ---- ------<br>--- ----- --- --- ------ -------- ----- --- ------ ----- --<br>----- ----- ---------- --- --- ------ ------ ---- -- ------<br>------- --- ------ ----- --- ---- ------- -- ---- --- --<br>------- ------,199441.96999999986,199441.66499999847,198661.98,198674.92499999935,198678.698,199445.296,,18,order
screen,html.Screen,2_1_1_1_19,2021-04-30T13:23:54.577Z,,,,,,,,,,,,,,,,,54,,,,,,,,,,,,,,507.46899999817833,,response,,,,100,,,,,,,Space,keypress(Space),,,,,,,,-- --- ---- --- ------ ----- ------- ---- -- --- ------- --<br>------- ---------- ------ -- ----- -- ----- to ---- ------<br>--- ----- --- --- ------ -------- ----- --- ------ ----- --<br>----- ----- ---------- --- --- ------ ------ ---- -- ------<br>------- --- ------ ----- --- ---- ------- -- ---- --- --<br>------- ------,199953.06999999957,199952.76499999818,199428.644,199442.04499999978,199445.296,199961.971,,19,to
screen,html.Screen,2_1_1_1_20,2021-04-30T13:23:55.043Z,,,,,,,,,,,,,,,,,54,,,,,,,,,,,,,,456.81899999972666,,response,,,,100,,,,,,,Space,keypress(Space),,,,,,,,-- --- ---- --- ------ ----- ------- ---- -- --- ------- --<br>------- ---------- ------ -- ----- -- ----- -- save ------<br>--- ----- --- --- ------ -------- ----- --- ------ ----- --<br>----- ----- ---------- --- --- ------ ------ ---- -- ------<br>------- --- ------ ----- --- ---- ------- -- ---- --- --<br>------- ------,200419.1350000001,200418.78999999972,199945.307,199953.14999999755,199961.971,200428.628,,20,save
screen,html.Screen,2_1_1_1_21,2021-04-30T13:23:55.539Z,,,,,,,,,,,,,,,,,54,,,,,,,,,,,,,,486.791999997542,,response,,,,100,,,,,,,Space,keypress(Space),,,,,,,,"-- --- ---- --- ------ ----- ------- ---- -- --- ------- --<br>------- ---------- ------ -- ----- -- ----- -- ---- money,<br>--- ----- --- --- ------ -------- ----- --- ------ ----- --<br>----- ----- ---------- --- --- ------ ------ ---- -- ------<br>------- --- ------ ----- --- ---- ------- -- ---- --- --<br>------- ------",200915.75000000012,200915.41999999754,200411.983,200419.21499999808,200428.628,200928.634,,21,"money,"
screen,html.Screen,2_1_1_1_22,2021-04-30T13:23:56.010Z,,,,,,,,,,,,,,,,,54,,,,,,,,,,,,,,457.2409999999509,,response,,,,100,,,,,,,Space,keypress(Space),,,,,,,,-- --- ---- --- ------ ----- ------- ---- -- --- ------- --<br>------- ---------- ------ -- ----- -- ----- -- ---- ------<br>the ----- --- --- ------ -------- ----- --- ------ ----- --<br>----- ----- ---------- --- --- ------ ------ ---- -- ------<br>------- --- ------ ----- --- ---- ------- -- ---- --- --<br>------- ------,201386.1849999994,201385.87499999994,200911.948,200915.82500000004,200928.634,201395.308,,22,the
screen,html.Screen,2_1_1_1_23,2021-04-30T13:23:56.461Z,,,,,,,,,,,,,,,,,54,,,,,,,,,,,,,,441.6769999981043,,response,,,,100,,,,,,,Space,keypress(Space),,,,,,,,-- --- ---- --- ------ ----- ------- ---- -- --- ------- --<br>------- ---------- ------ -- ----- -- ----- -- ---- ------<br>--- state --- --- ------ -------- ----- --- ------ ----- --<br>----- ----- ---------- --- --- ------ ------ ---- -- ------<br>------- --- ------ ----- --- ---- ------- -- ---- --- --<br>------- ------,201837.3049999973,201836.9849999981,201378.606,201386.2599999993,201395.308,201845.268,,23,state
screen,html.Screen,2_1_1_1_24,2021-04-30T13:23:56.887Z,,,,,,,,,,,,,,,,,54,,,,,,,,,,,,,,417.8019999972312,,response,,,,100,,,,,,,Space,keypress(Space),,,,,,,,-- --- ---- --- ------ ----- ------- ---- -- --- ------- --<br>------- ---------- ------ -- ----- -- ----- -- ---- ------<br>--- ----- cut --- ------ -------- ----- --- ------ ----- --<br>----- ----- ---------- --- --- ------ ------ ---- -- ------<br>------- --- ------ ----- --- ---- ------- -- ---- --- --<br>------- ------,202263.39499999813,202263.06999999724,201828.588,201837.38000000085,201845.268,202278.667,,24,cut
screen,html.Screen,2_1_1_1_25,2021-04-30T13:23:57.353Z,,,,,,,,,,,,,,,,,54,,,,,,,,,,,,,,450.44300000023213,,response,,,,100,,,,,,,Space,keypress(Space),,,,,,,,-- --- ---- --- ------ ----- ------- ---- -- --- ------- --<br>------- ---------- ------ -- ----- -- ----- -- ---- ------<br>--- ----- --- the ------ -------- ----- --- ------ ----- --<br>----- ----- ---------- --- --- ------ ------ ---- -- ------<br>------- --- ------ ----- --- ---- ------- -- ---- --- --<br>------- ------,202729.40000000017,202729.11000000022,202261.913,202263.47499999974,202278.667,202745.292,,25,the
screen,html.Screen,2_1_1_1_26,2021-04-30T13:23:57.769Z,,,,,,,,,,,,,,,,,54,,,,,,,,,,,,,,399.91300000072806,,response,,,,100,,,,,,,Space,keypress(Space),,,,,,,,-- --- ---- --- ------ ----- ------- ---- -- --- ------- --<br>------- ---------- ------ -- ----- -- ----- -- ---- ------<br>--- ----- --- --- bonds' -------- ----- --- ------ ----- --<br>----- ----- ---------- --- --- ------ ------ ---- -- ------<br>------- --- ------ ----- --- ---- ------- -- ---- --- --<br>------- ------,203145.5199999982,203145.20500000071,202728.615,202729.47999999815,202745.292,203161.95,,26,bonds'
screen,html.Screen,2_1_1_1_27,2021-04-30T13:23:58.180Z,,,,,,,,,,,,,,,,,54,,,,,,,,,,,,,,394.2899999980582,,response,,,,100,,,,,,,Space,keypress(Space),,,,,,,,-- --- ---- --- ------ ----- ------- ---- -- --- ------- --<br>------- ---------- ------ -- ----- -- ----- -- ---- ------<br>--- ----- --- --- ------ interest ----- --- ------ ----- --<br>----- ----- ---------- --- --- ------ ------ ---- -- ------<br>------- --- ------ ----- --- ---- ------- -- ---- --- --<br>------- ------,203556.59000000014,203556.23999999807,203145.265,203145.59000000008,203161.95,203561.913,,27,interest
screen,html.Screen,2_1_1_1_28,2021-04-30T13:23:58.546Z,,,,,,,,,,,,,,,,,54,,,,,,,,,,,,,,360.3369999996212,,response,,,,100,,,,,,,Space,keypress(Space),,,,,,,,-- --- ---- --- ------ ----- ------- ---- -- --- ------- --<br>------- ---------- ------ -- ----- -- ----- -- ---- ------<br>--- ----- --- --- ------ -------- rate. --- ------ ----- --<br>----- ----- ---------- --- --- ------ ------ ---- -- ------<br>------- --- ------ ----- --- ---- ------- -- ---- --- --<br>------- ------,203922.54999999932,203922.24999999962,203545.265,203556.6749999998,203561.913,203928.599,,28,rate.
screen,html.Screen,2_1_1_1_29,2021-04-30T13:23:58.957Z,,,,,,,,,,,,,,,,,54,,,,,,,,,,,,,,404.7559999988589,,response,,,,100,,,,,,,Space,keypress(Space),,,,,,,,-- --- ---- --- ------ ----- ------- ---- -- --- ------- --<br>------- ---------- ------ -- ----- -- ----- -- ---- ------<br>--- ----- --- --- ------ -------- ----- The ------ ----- --<br>----- ----- ---------- --- --- ------ ------ ---- -- ------<br>------- --- ------ ----- --- ---- ------- -- ---- --- --<br>------- ------,204333.67499999804,204333.35499999885,203911.897,203922.62499999924,203928.599,204345.274,,29,The
screen,html.Screen,2_1_1_1_30,2021-04-30T13:23:59.343Z,,,,,,,,,,,,,,,,,54,,,,,,,,,,,,,,374.0959999988845,,response,,,,100,,,,,,,Space,keypress(Space),,,,,,,,-- --- ---- --- ------ ----- ------- ---- -- --- ------- --<br>------- ---------- ------ -- ----- -- ----- -- ---- ------<br>--- ----- --- --- ------ -------- ----- --- market ----- --<br>----- ----- ---------- --- --- ------ ------ ---- -- ------<br>------- --- ------ ----- --- ---- ------- -- ---- --- --<br>------- ------,204719.71499999927,204719.3699999989,204328.584,204333.7449999999,204345.274,204728.628,,30,market
screen,html.Screen,2_1_1_1_31,2021-04-30T13:23:59.728Z,,,,,,,,,,,,,,,,,54,,,,,,,,,,,,,,375.75699999873177,,response,,,,100,,,,,,,Space,keypress(Space),,,,,,,,-- --- ---- --- ------ ----- ------- ---- -- --- ------- --<br>------- ---------- ------ -- ----- -- ----- -- ---- ------<br>--- ----- --- --- ------ -------- ----- --- ------ value --<br>----- ----- ---------- --- --- ------ ------ ---- -- ------<br>------- --- ------ ----- --- ---- ------- -- ---- --- --<br>------- ------,205104.69499999817,205104.38499999873,204711.915,204719.79499999725,204728.628,205111.927,,31,value
screen,html.Screen,2_1_1_1_32,2021-04-30T13:24:00.094Z,,,,,,,,,,,,,,,,,54,,,,,,,,,,,,,,358.67300000056275,,response,,,,100,,,,,,,Space,keypress(Space),,,,,,,,-- --- ---- --- ------ ----- ------- ---- -- --- ------- --<br>------- ---------- ------ -- ----- -- ----- -- ---- ------<br>--- ----- --- --- ------ -------- ----- --- ------ ----- of<br>----- ----- ---------- --- --- ------ ------ ---- -- ------<br>------- --- ------ ----- --- ---- ------- -- ---- --- --<br>------- ------,205470.88000000076,205470.60000000056,205095.29,205104.7699999981,205111.927,205478.611,,32,of
screen,html.Screen,2_1_1_1_33,2021-04-30T13:24:00.475Z,,,,,,,,,,,,,,,,,54,,,,,,,,,,,,,,372.89399999871966,,response,,,,100,,,,,,,Space,keypress(Space),,,,,,,,-- --- ---- --- ------ ----- ------- ---- -- --- ------- --<br>------- ---------- ------ -- ----- -- ----- -- ---- ------<br>--- ----- --- --- ------ -------- ----- --- ------ ----- --<br>these ----- ---------- --- --- ------ ------ ---- -- ------<br>------- --- ------ ----- --- ---- ------- -- ---- --- --<br>------- ------,205851.79000000062,205851.50499999872,205461.913,205470.949999999,205478.611,205861.917,,33,these
screen,html.Screen,2_1_1_1_34,2021-04-30T13:24:00.811Z,,,,,,,,,,,,,,,,,54,,,,,,,,,,,,,,325.667999999685,,response,,,,100,,,,,,,Space,keypress(Space),,,,,,,,-- --- ---- --- ------ ----- ------- ---- -- --- ------- --<br>------- ---------- ------ -- ----- -- ----- -- ---- ------<br>--- ----- --- --- ------ -------- ----- --- ------ ----- --<br>----- bonds ---------- --- --- ------ ------ ---- -- ------<br>------- --- ------ ----- --- ---- ------- -- ---- --- --<br>------- ------,206187.89499999912,206187.58499999967,205845.238,205851.86500000054,205861.917,206195.219,,34,bonds
screen,html.Screen,2_1_1_1_35,2021-04-30T13:24:01.187Z,,,,,,,,,,,,,,,,,54,,,,,,,,,,,,,,368.32599999723607,,response,,,,100,,,,,,,Space,keypress(Space),,,,,,,,"-- --- ---- --- ------ ----- ------- ---- -- --- ------- --<br>------- ---------- ------ -- ----- -- ----- -- ---- ------<br>--- ----- --- --- ------ -------- ----- --- ------ ----- --<br>----- ----- plummeted, --- --- ------ ------ ---- -- ------<br>------- --- ------ ----- --- ---- ------- -- ---- --- --<br>------- ------",206563.82999999914,206563.54499999725,206178.556,206187.97500000073,206195.219,206578.561,,35,"plummeted,"
screen,html.Screen,2_1_1_1_36,2021-04-30T13:24:01.553Z,,,,,,,,,,,,,,,,,54,,,,,,,,,,,,,,351.0289999997476,,response,,,,100,,,,,,,Space,keypress(Space),,,,,,,,-- --- ---- --- ------ ----- ------- ---- -- --- ------- --<br>------- ---------- ------ -- ----- -- ----- -- ---- ------<br>--- ----- --- --- ------ -------- ----- --- ------ ----- --<br>----- ----- ---------- and --- ------ ------ ---- -- ------<br>------- --- ------ ----- --- ---- ------- -- ---- --- --<br>------- ------,206929.90999999893,206929.58999999973,206561.89,206563.90499999907,206578.561,206945.228,,36,and
screen,html.Screen,2_1_1_1_37,2021-04-30T13:24:01.914Z,,,,,,,,,,,,,,,,,54,,,,,,,,,,,,,,344.5120000001625,,response,,,,100,,,,,,,Space,keypress(Space),,,,,,,,-- --- ---- --- ------ ----- ------- ---- -- --- ------- --<br>------- ---------- ------ -- ----- -- ----- -- ---- ------<br>--- ----- --- --- ------ -------- ----- --- ------ ----- --<br>----- ----- ---------- --- the ------ ------ ---- -- ------<br>------- --- ------ ----- --- ---- ------- -- ---- --- --<br>------- ------,207290.03499999817,207289.74000000017,206928.542,206929.99000000054,206945.228,207295.203,,37,the
screen,html.Screen,2_1_1_1_38,2021-04-30T13:24:02.265Z,,,,,,,,,,,,,,,,,54,,,,,,,,,,,,,,345.5869999976421,,response,,,,100,,,,,,,Space,keypress(Space),,,,,,,,-- --- ---- --- ------ ----- ------- ---- -- --- ------- --<br>------- ---------- ------ -- ----- -- ----- -- ---- ------<br>--- ----- --- --- ------ -------- ----- --- ------ ----- --<br>----- ----- ---------- --- --- market ------ ---- -- ------<br>------- --- ------ ----- --- ---- ------- -- ---- --- --<br>------- ------,207641.12000000023,207640.78999999765,207278.539,207290.1149999998,207295.203,207645.185,,38,market
screen,html.Screen,2_1_1_1_39,2021-04-30T13:24:02.636Z,,,,,,,,,,,,,,,,,54,,,,,,,,,,,,,,366.56499999784864,,response,,,,100,,,,,,,Space,keypress(Space),,,,,,,,-- --- ---- --- ------ ----- ------- ---- -- --- ------- --<br>------- ---------- ------ -- ----- -- ----- -- ---- ------<br>--- ----- --- --- ------ -------- ----- --- ------ ----- --<br>----- ----- ---------- --- --- ------ became ---- -- ------<br>------- --- ------ ----- --- ---- ------- -- ---- --- --<br>------- ------,208012.07000000068,208011.74999999785,207628.523,207641.1999999982,207645.185,208028.513,,39,became
screen,html.Screen,2_1_1_1_40,2021-04-30T13:24:03.007Z,,,,,,,,,,,,,,,,,54,,,,,,,,,,,,,,354.2869999994,,response,,,,100,,,,,,,Space,keypress(Space),,,,,,,,-- --- ---- --- ------ ----- ------- ---- -- --- ------- --<br>------- ---------- ------ -- ----- -- ----- -- ---- ------<br>--- ----- --- --- ------ -------- ----- --- ------ ----- --<br>----- ----- ---------- --- --- ------ ------ wary -- ------<br>------- --- ------ ----- --- ---- ------- -- ---- --- --<br>------- ------,208383.1250000003,208382.7999999994,208011.872,208012.1450000006,208028.513,208395.178,,40,wary
screen,html.Screen,2_1_1_1_41,2021-04-30T13:24:03.468Z,,,,,,,,,,,,,,,,,54,,,,,,,,,,,,,,448.76199999882374,,response,,,,100,,,,,,,Space,keypress(Space),,,,,,,,-- --- ---- --- ------ ----- ------- ---- -- --- ------- --<br>------- ---------- ------ -- ----- -- ----- -- ---- ------<br>--- ----- --- --- ------ -------- ----- --- ------ ----- --<br>----- ----- ---------- --- --- ------ ------ ---- of ------<br>------- --- ------ ----- --- ---- ------- -- ---- --- --<br>------- ------,208844.3049999987,208843.93999999884,208378.544,208383.20499999827,208395.178,208872.613,,41,of
screen,html.Screen,2_1_1_1_42,2021-04-30T13:24:03.839Z,,,,,,,,,,,,,,,,,54,,,,,,,,,,,,,,342.33699999775854,,response,,,,100,,,,,,,Space,keypress(Space),,,,,,,,-- --- ---- --- ------ ----- ------- ---- -- --- ------- --<br>------- ---------- ------ -- ----- -- ----- -- ---- ------<br>--- ----- --- --- ------ -------- ----- --- ------ ----- --<br>----- ----- ---------- --- --- ------ ------ ---- -- French<br>------- --- ------ ----- --- ---- ------- -- ---- --- --<br>------- ------,209215.24999999747,209214.94999999777,208828.489,208844.37999999864,208872.613,209228.553,,42,French
screen,html.Screen,2_1_1_1_43,2021-04-30T13:24:04.290Z,,,,,,,,,,,,,,,,,54,,,,,,,,,,,,,,437.73199999931967,,response,,,,100,,,,,,,Space,keypress(Space),,,,,,,,-- --- ---- --- ------ ----- ------- ---- -- --- ------- --<br>------- ---------- ------ -- ----- -- ----- -- ---- ------<br>--- ----- --- --- ------ -------- ----- --- ------ ----- --<br>----- ----- ---------- --- --- ------ ------ ---- -- ------<br>credit. --- ------ ----- --- ---- ------- -- ---- --- --<br>------- ------,209666.61000000022,209666.28499999933,209211.932,209215.32999999908,209228.553,209678.519,,43,credit.
screen,html.Screen,2_1_1_1_44,2021-04-30T13:24:04.711Z,,,,,,,,,,,,,,,,,54,,,,,,,,,,,,,,408.5209999985236,,response,,,,100,,,,,,,Space,keypress(Space),,,,,,,,-- --- ---- --- ------ ----- ------- ---- -- --- ------- --<br>------- ---------- ------ -- ----- -- ----- -- ---- ------<br>--- ----- --- --- ------ -------- ----- --- ------ ----- --<br>----- ----- ---------- --- --- ------ ------ ---- -- ------<br>------- The ------ ----- --- ---- ------- -- ---- --- --<br>------- ------,210087.32500000042,210087.03999999852,209661.841,209666.6899999982,209678.519,210095.192,,44,The
screen,html.Screen,2_1_1_1_45,2021-04-30T13:24:05.087Z,,,,,,,,,,,,,,,,,54,,,,,,,,,,,,,,367.8679999982123,,response,,,,100,,,,,,,Space,keypress(Space),,,,,,,,-- --- ---- --- ------ ----- ------- ---- -- --- ------- --<br>------- ---------- ------ -- ----- -- ----- -- ---- ------<br>--- ----- --- --- ------ -------- ----- --- ------ ----- --<br>----- ----- ---------- --- --- ------ ------ ---- -- ------<br>------- --- French ----- --- ---- ------- -- ---- --- --<br>------- ------,210463.33500000037,210463.05999999822,210078.511,210087.39499999865,210095.192,210478.531,,45,French
screen,html.Screen,2_1_1_1_46,2021-04-30T13:24:05.503Z,,,,,,,,,,,,,,,,,54,,,,,,,,,,,,,,400.6840000008524,,response,,,,100,,,,,,,Space,keypress(Space),,,,,,,,-- --- ---- --- ------ ----- ------- ---- -- --- ------- --<br>------- ---------- ------ -- ----- -- ----- -- ---- ------<br>--- ----- --- --- ------ -------- ----- --- ------ ----- --<br>----- ----- ---------- --- --- ------ ------ ---- -- ------<br>------- --- ------ state --- ---- ------- -- ---- --- --<br>------- ------,210879.50999999885,210879.21500000084,210461.84,210463.4049999986,210478.531,210895.181,,46,state
screen,html.Screen,2_1_1_1_47,2021-04-30T13:24:05.879Z,,,,,,,,,,,,,,,,,54,,,,,,,,,,,,,,359.73399999769754,,response,,,,100,,,,,,,Space,keypress(Space),,,,,,,,-- --- ---- --- ------ ----- ------- ---- -- --- ------- --<br>------- ---------- ------ -- ----- -- ----- -- ---- ------<br>--- ----- --- --- ------ -------- ----- --- ------ ----- --<br>----- ----- ---------- --- --- ------ ------ ---- -- ------<br>------- --- ------ ----- was ---- ------- -- ---- --- --<br>------- ------,211255.2250000008,211254.9149999977,210878.497,210879.58499999877,210895.181,211261.843,,47,was
screen,html.Screen,2_1_1_1_48,2021-04-30T13:24:06.274Z,,,,,,,,,,,,,,,,,54,,,,,,,,,,,,,,388.4319999999716,,response,,,,100,,,,,,,Space,keypress(Space),,,,,,,,-- --- ---- --- ------ ----- ------- ---- -- --- ------- --<br>------- ---------- ------ -- ----- -- ----- -- ---- ------<br>--- ----- --- --- ------ -------- ----- --- ------ ----- --<br>----- ----- ---------- --- --- ------ ------ ---- -- ------<br>------- --- ------ ----- --- left ------- -- ---- --- --<br>------- ------,211650.5849999994,211650.27499999997,211245.158,211255.30000000072,211261.843,211661.812,,48,left
screen,html.Screen,2_1_1_1_49,2021-04-30T13:24:06.700Z,,,,,,,,,,,,,,,,,54,,,,,,,,,,,,,,414.50299999842537,,response,,,,100,,,,,,,Space,keypress(Space),,,,,,,,-- --- ---- --- ------ ----- ------- ---- -- --- ------- --<br>------- ---------- ------ -- ----- -- ----- -- ---- ------<br>--- ----- --- --- ------ -------- ----- --- ------ ----- --<br>----- ----- ---------- --- --- ------ ------ ---- -- ------<br>------- --- ------ ----- --- ---- without -- ---- --- --<br>------- ------,212076.67500000025,212076.31499999843,211645.36,211650.6649999974,211661.812,212078.473,,49,without
screen,html.Screen,2_1_1_1_50,2021-04-30T13:24:07.101Z,,,,,,,,,,,,,,,,,54,,,,,,,,,,,,,,398.79199999771663,,response,,,,100,,,,,,,Space,keypress(Space),,,,,,,,-- --- ---- --- ------ ----- ------- ---- -- --- ------- --<br>------- ---------- ------ -- ----- -- ----- -- ---- ------<br>--- ----- --- --- ------ -------- ----- --- ------ ----- --<br>----- ----- ---------- --- --- ------ ------ ---- -- ------<br>------- --- ------ ----- --- ---- ------- an ---- --- --<br>------- ------,212477.58500000054,212477.26499999771,212061.794,212076.75499999823,212078.473,212500.682,,50,an
screen,html.Screen,2_1_1_1_51,2021-04-30T13:24:07.509Z,,,,,,,,,,,,,,,,,54,,,,,,,,,,,,,,384.8029999988794,,response,,,,100,,,,,,,Space,keypress(Space),,,,,,,,-- --- ---- --- ------ ----- ------- ---- -- --- ------- --<br>------- ---------- ------ -- ----- -- ----- -- ---- ------<br>--- ----- --- --- ------ -------- ----- --- ------ ----- --<br>----- ----- ---------- --- --- ------ ------ ---- -- ------<br>------- --- ------ ----- --- ---- ------- -- easy --- --<br>------- ------,212885.839999999,212885.48499999888,212461.825,212477.67999999996,212500.682,212895.175,,51,easy
screen,html.Screen,2_1_1_1_52,2021-04-30T13:24:07.883Z,,,,,,,,,,,,,,,,,54,,,,,,,,,,,,,,364.2249999990163,,response,,,,100,,,,,,,Space,keypress(Space),,,,,,,,-- --- ---- --- ------ ----- ------- ---- -- --- ------- --<br>------- ---------- ------ -- ----- -- ----- -- ---- ------<br>--- ----- --- --- ------ -------- ----- --- ------ ----- --<br>----- ----- ---------- --- --- ------ ------ ---- -- ------<br>------- --- ------ ----- --- ---- ------- -- ---- way --<br>------- ------,213259.72999999794,213259.399999999,212878.481,212885.92000000062,212895.175,213261.815,,52,way
screen,html.Screen,2_1_1_1_53,2021-04-30T13:24:08.299Z,,,,,,,,,,,,,,,,,54,,,,,,,,,,,,,,413.6649999980582,,response,,,,100,,,,,,,Space,keypress(Space),,,,,,,,-- --- ---- --- ------ ----- ------- ---- -- --- ------- --<br>------- ---------- ------ -- ----- -- ----- -- ---- ------<br>--- ----- --- --- ------ -------- ----- --- ------ ----- --<br>----- ----- ---------- --- --- ------ ------ ---- -- ------<br>------- --- ------ ----- --- ---- ------- -- ---- --- of<br>------- ------,213675.78499999945,213675.47999999806,213245.157,213259.80999999956,213261.815,213678.478,,53,of
screen,html.Screen,2_1_1_1_54,2021-04-30T13:24:08.685Z,,,,,,,,,,,,,,,,,54,,,,,,,,,,,,,,383.1420000004,,response,,,,100,,,,,,,Space,keypress(Space),,,,,,,,-- --- ---- --- ------ ----- ------- ---- -- --- ------- --<br>------- ---------- ------ -- ----- -- ----- -- ---- ------<br>--- ----- --- --- ------ -------- ----- --- ------ ----- --<br>----- ----- ---------- --- --- ------ ------ ---- -- ------<br>------- --- ------ ----- --- ---- ------- -- ---- --- --<br>raising ------,214061.92999999985,214061.6200000004,213661.801,213675.87999999887,213678.478,214078.498,,54,raising
screen,html.Screen,2_1_1_1_55,2021-04-30T13:24:09.356Z,,,,,,,,,,,,,,,,,54,,,,,,,,,,,,,,654.1569999998028,,response,,,,100,,,,,,,Space,keypress(Space),,,,,,,,-- --- ---- --- ------ ----- ------- ---- -- --- ------- --<br>------- ---------- ------ -- ----- -- ----- -- ---- ------<br>--- ----- --- --- ------ -------- ----- --- ------ ----- --<br>----- ----- ---------- --- --- ------ ------ ---- -- ------<br>------- --- ------ ----- --- ---- ------- -- ---- --- --<br>------- money.,214732.9549999995,214732.6549999998,214061.788,214062.00499999977,214078.498,214745.128,,55,money.
Item 100,flow.Loop,2_1_1_1,2021-04-30T13:24:09.357Z,,,,,,,,,,,,,,,,,,,,,,,,,,,,,,,25087.185999999783,,completion,,,,,F,,,,,,,,,,,silence,,,,,214733.0750000001,214732.6549999998,189628.798,189629.42499999917,189645.469,214745.128,,,
Question 1,html.Screen,2_1_1_2,2021-04-30T13:24:13.617Z,,,,,,,,,,,,,,,,,,,,,,,,,,,,false,TRUE,,4247.802000000345,,response,,,,100,F,,,,,,FALSE,click #choice-2,,,,silence,,,,,218993.41500000082,218992.93000000034,214728.417,214733.12499999884,214745.128,218995.051,,,
Question 2,html.Screen,2_1_1_3,2021-04-30T13:24:16.061Z,,,,,,,,,,,,,,,,,,,,,,,,,,,,true,FALSE,,2442.20899999878,,response,,,,100,F,,,,,,FALSE,click #choice-2,,,,silence,,,,,221437.6799999991,221437.2599999988,218978.392,218993.4949999988,218995.051,221445.006,,,
Item 100,flow.Sequence,2_1_1,2021-04-30T13:24:16.061Z,,,,,,,,,,,,,,,,,,,,,,,,,,,,,,,41797.944999998785,,completion,,,,,,,,,,,,,,,,,,,,,221437.794999998,221437.2599999988,179612.265,179612.549999998,179639.315,221445.006,,,
End of Practice,html.Page,2_1_2,2021-04-30T13:24:21.677Z,,,,,,,,,,,,,,,,,,,,,,,,,,,,,,,5608.51899999936,,form submission,,,,,,,,,,,,,,,,,,,,,227053.67999999726,227053.52499999935,221428.361,221437.85500000013,221445.006,227061.574,,,
Practice,flow.Sequence,2_1,2021-04-30T13:24:21.677Z,,,,,,,,,,,,,,,,,,,,,,,,,,,,,,,92590.62299999935,,completion,,,,,,,,,,,,,,,,,,,,,227053.8099999976,227053.52499999935,134446.208,134458.79499999864,134462.902,227061.574,,,
Trap_instruction,html.Page,2_2_0,2021-04-30T13:24:36.505Z,,,,,,,,,,,,,,,,,,,,,,,,,,,,,,,14819.690999999992,,form submission,,,,,,,,,,,,,,,,,,,,,241881.3999999984,241881.26499999998,227044.924,227053.88999999923,227061.574,241894.774,,,
trap_trial,html.Screen,2_2_1,2021-04-30T13:24:39.584Z,,,,,,,,,,,,,,,,,,,,,,,,,,,,true,1,,3065.495999999577,,response,,,,,,,,,,,1,click #choice-1,,,,,,,,,244960.73999999862,244960.26999999958,241878.064,241881.47000000026,241894.774,244981.907,,,
end of trap trial,html.Page,2_2_2,2021-04-30T13:24:41.597Z,,,,,,,,,,,,,,,,,,,,,,,,,,,,,,,1991.2879999986617,,form submission,,,,,,,,,,,,,,,,,,,,,246973.35499999826,246973.19499999867,244944.669,244960.87999999872,244981.907,246977.989,,,
Trap 1,flow.Sequence,2_2,2021-04-30T13:24:41.597Z,,,,,,,,,,,,,,,,,,,,,,,,,,,,,,,19911.620999998675,,completion,,,,,,,,,,,,,,,,,,,,,246973.46499999912,246973.19499999867,227044.924,227053.86999999973,227061.574,246977.989,,,
Standby,html.Page,2_3_0,2021-04-30T13:24:49.585Z,,,,,,,,,,,,,,,,,,,,,,,,,,,,,,,7999.869000000006,,timeout,,,,,,,,,,,,,,,,,,,,,254961.60999999847,254961.201,246961.301,246973.5550000005,246977.989,254977.858,,,
Holding screen,html.Screen,2_3_1_0_0,2021-04-30T13:24:56.586Z,,,,,,,,,,,,,,,,,,,,,,,,,,,,,,,6999.9100000000035,,timeout,,,,,,,,,,,,,,,,,,,,,261961.34999999776,261961.103,254961.201,254961.75999999832,254977.858,261977.768,,,
screen,html.Screen,2_3_1_0_1_0,2021-04-30T13:24:57.494Z,,,,,,,,,,,,,,,,,48,,,,,,,,,,,,,,891.9069999980566,,response,,,,10,F,,,,,,Space,keypress(Space),,,,instrumental,,,,As -- --- ------ ------- --------- ----------- --------<br>--------- -------- --- ------- -- ------- ---- -- ------<br>-- --- -------- -------- ---------- ---- ---- ---- ------<br>-- --------- -- ---- -- --- -- --- ------- -- - -----<br>---------- -- -- -- ---- ----- -- ------ -- --- ------<br>-------,262870.0949999984,262869.67499999807,261961.103,261961.45999999862,261977.768,262877.788,,0,As
screen,html.Screen,2_3_1_0_1_1,2021-04-30T13:24:57.904Z,,,,,,,,,,,,,,,,,48,,,,,,,,,,,,,,402.0369999977993,,response,,,,10,F,,,,,,Space,keypress(Space),,,,instrumental,,,,-- in --- ------ ------- --------- ----------- --------<br>--------- -------- --- ------- -- ------- ---- -- ------<br>-- --- -------- -------- ---------- ---- ---- ---- ------<br>-- --------- -- ---- -- --- -- --- ------- -- - -----<br>---------- -- -- -- ---- ----- -- ------ -- --- ------<br>-------,263280.1599999984,263279.8249999978,262861.071,262870.18499999976,262877.788,263294.434,,1,in
screen,html.Screen,2_3_1_0_1_2,2021-04-30T13:24:58.320Z,,,,,,,,,,,,,,,,,48,,,,,,,,,,,,,,401.43099999788683,,response,,,,10,F,,,,,,Space,keypress(Space),,,,instrumental,,,,-- -- the ------ ------- --------- ----------- --------<br>--------- -------- --- ------- -- ------- ---- -- ------<br>-- --- -------- -------- ---------- ---- ---- ---- ------<br>-- --------- -- ---- -- --- -- --- ------- -- - -----<br>---------- -- -- -- ---- ----- -- ------ -- --- ------<br>-------,263696.1950000004,263695.8649999979,263277.727,263280.23000000033,263294.434,263711.108,,2,the
screen,html.Screen,2_3_1_0_1_3,2021-04-30T13:24:58.626Z,,,,,,,,,,,,,,,,,48,,,,,,,,,,,,,,290.8070000007283,,response,,,,10,F,,,,,,Space,keypress(Space),,,,instrumental,,,,-- -- --- United ------- --------- ----------- --------<br>--------- -------- --- ------- -- ------- ---- -- ------<br>-- --- -------- -------- ---------- ---- ---- ---- ------<br>-- --------- -- ---- -- --- -- --- ------- -- - -----<br>---------- -- -- -- ---- ----- -- ------ -- --- ------<br>-------,264002.239999998,264001.91500000074,263694.428,263696.2649999987,263711.108,264011.07,,3,United
screen,html.Screen,2_3_1_0_1_4,2021-04-30T13:24:58.877Z,,,,,,,,,,,,,,,,,48,,,,,,,,,,,,,,241.21499999862863,,response,,,,10,F,,,,,,Space,keypress(Space),,,,instrumental,,,,"-- -- --- ------ States, --------- ----------- --------<br>--------- -------- --- ------- -- ------- ---- -- ------<br>-- --- -------- -------- ---------- ---- ---- ---- ------<br>-- --------- -- ---- -- --- -- --- ------- -- - -----<br>---------- -- -- -- ---- ----- -- ------ -- --- ------<br>-------",264252.70499999897,264252.28499999864,263994.422,264002.3149999979,264011.07,264261.073,,4,"States,"
screen,html.Screen,2_3_1_0_1_5,2021-04-30T13:24:59.272Z,,,,,,,,,,,,,,,,,48,,,,,,,,,,,,,,386.89699999819277,,response,,,,10,F,,,,,,Space,keypress(Space),,,,instrumental,,,,-- -- --- ------ ------- Colombian ----------- --------<br>--------- -------- --- ------- -- ------- ---- -- ------<br>-- --- -------- -------- ---------- ---- ---- ---- ------<br>-- --------- -- ---- -- --- -- --- ------- -- - -----<br>---------- -- -- -- ---- ----- -- ------ -- --- ------<br>-------,264648.28499999933,264647.96999999817,264244.405,264252.80999999814,264261.073,264661.122,,5,Colombian
screen,html.Screen,2_3_1_0_1_6,2021-04-30T13:24:59.789Z,,,,,,,,,,,,,,,,,48,,,,,,,,,,,,,,502.9979999976931,,response,,,,10,F,,,,,,Space,keypress(Space),,,,instrumental,,,,-- -- --- ------ ------- --------- legislation --------<br>--------- -------- --- ------- -- ------- ---- -- ------<br>-- --- -------- -------- ---------- ---- ---- ---- ------<br>-- --------- -- ---- -- --- -- --- ------- -- - -----<br>---------- -- -- -- ---- ----- -- ------ -- --- ------<br>-------,265164.44000000047,265164.11999999767,264644.407,264648.35499999754,264661.122,265177.737,,6,legislation
screen,html.Screen,2_3_1_0_1_7,2021-04-30T13:25:00.225Z,,,,,,,,,,,,,,,,,48,,,,,,,,,,,,,,422.40299999859417,,response,,,,10,F,,,,,,Space,keypress(Space),,,,instrumental,,,,-- -- --- ------ ------- --------- ----------- requires<br>--------- -------- --- ------- -- ------- ---- -- ------<br>-- --- -------- -------- ---------- ---- ---- ---- ------<br>-- --------- -- ---- -- --- -- --- ------- -- - -----<br>---------- -- -- -- ---- ----- -- ------ -- --- ------<br>-------,265600.4699999976,265600.1399999986,265161.04,265164.51999999845,265177.737,265611.117,,7,requires
screen,html.Screen,2_3_1_0_1_8,2021-04-30T13:25:00.591Z,,,,,,,,,,,,,,,,,48,,,,,,,,,,,,,,355.1029999984312,,response,,,,10,F,,,,,,Space,keypress(Space),,,,instrumental,,,,-- -- --- ------ ------- --------- ----------- --------<br>travelers -------- --- ------- -- ------- ---- -- ------<br>-- --- -------- -------- ---------- ---- ---- ---- ------<br>-- --------- -- ---- -- --- -- --- ------- -- - -----<br>---------- -- -- -- ---- ----- -- ------ -- --- ------<br>-------,265966.54499999934,265966.21999999846,265594.416,265600.5449999975,265611.117,265977.759,,8,travelers
screen,html.Screen,2_3_1_0_1_9,2021-04-30T13:25:01.007Z,,,,,,,,,,,,,,,,,48,,,,,,,,,,,,,,404.5109999982524,,response,,,,10,F,,,,,,Space,keypress(Space),,,,instrumental,,,,-- -- --- ------ ------- --------- ----------- --------<br>--------- entering --- ------- -- ------- ---- -- ------<br>-- --- -------- -------- ---------- ---- ---- ---- ------<br>-- --------- -- ---- -- --- -- --- ------- -- - -----<br>---------- -- -- -- ---- ----- -- ------ -- --- ------<br>-------,266382.6000000008,266382.2699999983,265961.046,265966.6249999973,265977.759,266394.443,,9,entering
screen,html.Screen,2_3_1_0_1_10,2021-04-30T13:25:01.328Z,,,,,,,,,,,,,,,,,48,,,,,,,,,,,,,,308.87199999880977,,response,,,,10,F,,,,,,Space,keypress(Space),,,,instrumental,,,,-- -- --- ------ ------- --------- ----------- --------<br>--------- -------- the ------- -- ------- ---- -- ------<br>-- --- -------- -------- ---------- ---- ---- ---- ------<br>-- --------- -- ---- -- --- -- --- ------- -- - -----<br>---------- -- -- -- ---- ----- -- ------ -- --- ------<br>-------,266703.63499999803,266703.31499999884,266377.719,266382.66999999905,266394.443,266711.094,,10,the
screen,html.Screen,2_3_1_0_1_11,2021-04-30T13:25:01.593Z,,,,,,,,,,,,,,,,,48,,,,,,,,,,,,,,257.320999999356,,response,,,,10,F,,,,,,Space,keypress(Space),,,,instrumental,,,,-- -- --- ------ ------- --------- ----------- --------<br>--------- -------- --- country -- ------- ---- -- ------<br>-- --- -------- -------- ---------- ---- ---- ---- ------<br>-- --------- -- ---- -- --- -- --- ------- -- - -----<br>---------- -- -- -- ---- ----- -- ------ -- --- ------<br>-------,266968.7599999998,266968.41499999934,266694.375,266703.7049999999,266711.094,266977.716,,11,country
screen,html.Screen,2_3_1_0_1_12,2021-04-30T13:25:01.919Z,,,,,,,,,,,,,,,,,48,,,,,,,,,,,,,,316.72399999783374,,response,,,,10,F,,,,,,Space,keypress(Space),,,,instrumental,,,,-- -- --- ------ ------- --------- ----------- --------<br>--------- -------- --- ------- to ------- ---- -- ------<br>-- --- -------- -------- ---------- ---- ---- ---- ------<br>-- --------- -- ---- -- --- -- --- ------- -- - -----<br>---------- -- -- -- ---- ----- -- ------ -- --- ------<br>-------,267294.8049999977,267294.43999999785,266961.054,266968.8349999997,266977.716,267311.063,,12,to
screen,html.Screen,2_3_1_0_1_13,2021-04-30T13:25:02.295Z,,,,,,,,,,,,,,,,,48,,,,,,,,,,,,,,359.3019999981043,,response,,,,10,F,,,,,,Space,keypress(Space),,,,instrumental,,,,-- -- --- ------ ------- --------- ----------- --------<br>--------- -------- --- ------- -- declare ---- -- ------<br>-- --- -------- -------- ---------- ---- ---- ---- ------<br>-- --------- -- ---- -- --- -- --- ------- -- - -----<br>---------- -- -- -- ---- ----- -- ------ -- --- ------<br>-------,267670.67999999924,267670.3649999981,267294.379,267294.8799999977,267311.063,267677.675,,13,declare
screen,html.Screen,2_3_1_0_1_14,2021-04-30T13:25:02.661Z,,,,,,,,,,,,,,,,,48,,,,,,,,,,,,,,358.7550000001211,,response,,,,10,F,,,,,,Space,keypress(Space),,,,instrumental,,,,-- -- --- ------ ------- --------- ----------- --------<br>--------- -------- --- ------- -- ------- cash -- ------<br>-- --- -------- -------- ---------- ---- ---- ---- ------<br>-- --------- -- ---- -- --- -- --- ------- -- - -----<br>---------- -- -- -- ---- ----- -- ------ -- --- ------<br>-------,268036.7349999979,268036.4300000001,267661.025,267670.76499999897,267677.675,268044.385,,14,cash
screen,html.Screen,2_3_1_0_1_15,2021-04-30T13:25:03.022Z,,,,,,,,,,,,,,,,,48,,,,,,,,,,,,,,353.13000000058673,,response,,,,10,F,,,,,,Space,keypress(Space),,,,instrumental,,,,-- -- --- ------ ------- --------- ----------- --------<br>--------- -------- --- ------- -- ------- ---- in ------<br>-- --- -------- -------- ---------- ---- ---- ---- ------<br>-- --------- -- ---- -- --- -- --- ------- -- - -----<br>---------- -- -- -- ---- ----- -- ------ -- --- ------<br>-------,268397.8599999973,268397.5150000006,268027.695,268036.8049999997,268044.385,268411.036,,15,in
screen,html.Screen,2_3_1_0_1_16,2021-04-30T13:25:03.378Z,,,,,,,,,,,,,,,,,48,,,,,,,,,,,,,,342.52399999735644,,response,,,,10,F,,,,,,Space,keypress(Space),,,,instrumental,,,,-- -- --- ------ ------- --------- ----------- --------<br>--------- -------- --- ------- -- ------- ---- -- excess<br>-- --- -------- -------- ---------- ---- ---- ---- ------<br>-- --------- -- ---- -- --- -- --- ------- -- - -----<br>---------- -- -- -- ---- ----- -- ------ -- --- ------<br>-------,268753.87000000046,268753.5599999974,268394.35,268397.93500000087,268411.036,268761.046,,16,excess
screen,html.Screen,2_3_1_0_1_17,2021-04-30T13:25:03.638Z,,,,,,,,,,,,,,,,,48,,,,,,,,,,,,,,252.53900000063004,,response,,,,10,F,,,,,,Space,keypress(Space),,,,instrumental,,,,-- -- --- ------ ------- --------- ----------- --------<br>--------- -------- --- ------- -- ------- ---- -- ------<br>of --- -------- -------- ---------- ---- ---- ---- ------<br>-- --------- -- ---- -- --- -- --- ------- -- - -----<br>---------- -- -- -- ---- ----- -- ------ -- --- ------<br>-------,269013.9099999978,269013.5850000006,268744.357,268753.9450000004,268761.046,269027.672,,17,of
screen,html.Screen,2_3_1_0_1_18,2021-04-30T13:25:03.879Z,,,,,,,,,,,,,,,,,48,,,,,,,,,,,,,,226.98300000058953,,response,,,,10,F,,,,,,Space,keypress(Space),,,,instrumental,,,,-- -- --- ------ ------- --------- ----------- --------<br>--------- -------- --- ------- -- ------- ---- -- ------<br>-- ten -------- -------- ---------- ---- ---- ---- ------<br>-- --------- -- ---- -- --- -- --- ------- -- - -----<br>---------- -- -- -- ---- ----- -- ------ -- --- ------<br>-------,269254.9949999993,269254.6550000006,269011.028,269013.9849999978,269027.672,269260.998,,18,ten
screen,html.Screen,2_3_1_0_1_19,2021-04-30T13:25:04.184Z,,,,,,,,,,,,,,,,,48,,,,,,,,,,,,,,298.87699999898905,,response,,,,10,F,,,,,,Space,keypress(Space),,,,instrumental,,,,-- -- --- ------ ------- --------- ----------- --------<br>--------- -------- --- ------- -- ------- ---- -- ------<br>-- --- thousand -------- ---------- ---- ---- ---- ------<br>-- --------- -- ---- -- --- -- --- ------- -- - -----<br>---------- -- -- -- ---- ----- -- ------ -- --- ------<br>-------,269560.1949999982,269559.874999999,269244.319,269255.0749999973,269260.998,269592.987,,19,thousand
screen,html.Screen,2_3_1_0_1_20,2021-04-30T13:25:04.425Z,,,,,,,,,,,,,,,,,48,,,,,,,,,,,,,,207.8829999990994,,response,,,,10,F,,,,,,Space,keypress(Space),,,,instrumental,,,,-- -- --- ------ ------- --------- ----------- --------<br>--------- -------- --- ------- -- ------- ---- -- ------<br>-- --- -------- dollars. ---------- ---- ---- ---- ------<br>-- --------- -- ---- -- --- -- --- ------- -- - -----<br>---------- -- -- -- ---- ----- -- ------ -- --- ------<br>-------,269801.1899999983,269800.8699999991,269544.347,269560.28499999957,269592.987,269811.025,,20,dollars.
screen,html.Screen,2_3_1_0_1_21,2021-04-30T13:25:04.711Z,,,,,,,,,,,,,,,,,48,,,,,,,,,,,,,,275.67499999981374,,response,,,,10,F,,,,,,Space,keypress(Space),,,,instrumental,,,,-- -- --- ------ ------- --------- ----------- --------<br>--------- -------- --- ------- -- ------- ---- -- ------<br>-- --- -------- -------- Concealing ---- ---- ---- ------<br>-- --------- -- ---- -- --- -- --- ------- -- - -----<br>---------- -- -- -- ---- ----- -- ------ -- --- ------<br>-------,270087.0250000007,270086.69999999984,269794.356,269801.26499999827,269811.025,270094.32,,21,Concealing
screen,html.Screen,2_3_1_0_1_22,2021-04-30T13:25:05.132Z,,,,,,,,,,,,,,,,,48,,,,,,,,,,,,,,413.3849999999511,,response,,,,10,F,,,,,,Space,keypress(Space),,,,instrumental,,,,-- -- --- ------ ------- --------- ----------- --------<br>--------- -------- --- ------- -- ------- ---- -- ------<br>-- --- -------- -------- ---------- more ---- ---- ------<br>-- --------- -- ---- -- --- -- --- ------- -- - -----<br>---------- -- -- -- ---- ----- -- ------ -- --- ------<br>-------,270508.0549999984,270507.70499999996,270077.638,270087.0949999989,270094.32,270510.985,,22,more
screen,html.Screen,2_3_1_0_1_23,2021-04-30T13:25:05.422Z,,,,,,,,,,,,,,,,,48,,,,,,,,,,,,,,286.8050000005169,,response,,,,10,F,,,,,,Space,keypress(Space),,,,instrumental,,,,-- -- --- ------ ------- --------- ----------- --------<br>--------- -------- --- ------- -- ------- ---- -- ------<br>-- --- -------- -------- ---------- ---- than ---- ------<br>-- --------- -- ---- -- --- -- --- ------- -- - -----<br>---------- -- -- -- ---- ----- -- ------ -- --- ------<br>-------,270798.1149999978,270797.7900000005,270494.327,270508.135,270510.985,270811.043,,23,than
screen,html.Screen,2_3_1_0_1_24,2021-04-30T13:25:05.683Z,,,,,,,,,,,,,,,,,48,,,,,,,,,,,,,,247.78200000006473,,response,,,,10,F,,,,,,Space,keypress(Space),,,,instrumental,,,,-- -- --- ------ ------- --------- ----------- --------<br>--------- -------- --- ------- -- ------- ---- -- ------<br>-- --- -------- -------- ---------- ---- ---- that ------<br>-- --------- -- ---- -- --- -- --- ------- -- - -----<br>---------- -- -- -- ---- ----- -- ------ -- --- ------<br>-------,271059.13499999954,271058.82500000007,270794.332,270798.19499999937,270811.043,271060.992,,24,that
screen,html.Screen,2_3_1_0_1_25,2021-04-30T13:25:05.978Z,,,,,,,,,,,,,,,,,48,,,,,,,,,,,,,,292.8479999997071,,response,,,,10,F,,,,,,Space,keypress(Space),,,,instrumental,,,,-- -- --- ------ ------- --------- ----------- --------<br>--------- -------- --- ------- -- ------- ---- -- ------<br>-- --- -------- -------- ---------- ---- ---- ---- amount<br>-- --------- -- ---- -- --- -- --- ------- -- - -----<br>---------- -- -- -- ---- ----- -- ------ -- --- ------<br>-------,271354.1650000006,271353.83999999973,271044.316,271059.21999999916,271060.992,271361.003,,25,amount
screen,html.Screen,2_3_1_0_1_26,2021-04-30T13:25:06.284Z,,,,,,,,,,,,,,,,,48,,,,,,,,,,,,,,298.93199999968056,,response,,,,10,F,,,,,,Space,keypress(Space),,,,instrumental,,,,-- -- --- ------ ------- --------- ----------- --------<br>--------- -------- --- ------- -- ------- ---- -- ------<br>-- --- -------- -------- ---------- ---- ---- ---- ------<br>to --------- -- ---- -- --- -- --- ------- -- - -----<br>---------- -- -- -- ---- ----- -- ------ -- --- ------<br>-------,271660.3049999976,271659.9349999997,271344.303,271354.2349999989,271361.003,271691.865,,26,to
screen,html.Screen,2_3_1_0_1_27,2021-04-30T13:25:06.605Z,,,,,,,,,,,,,,,,,48,,,,,,,,,,,,,,289.0500000001048,,response,,,,10,F,,,,,,Space,keypress(Space),,,,instrumental,,,,-- -- --- ------ ------- --------- ----------- --------<br>--------- -------- --- ------- -- ------- ---- -- ------<br>-- --- -------- -------- ---------- ---- ---- ---- ------<br>-- transport -- ---- -- --- -- --- ------- -- - -----<br>---------- -- -- -- ---- ----- -- ------ -- --- ------<br>-------,271981.24499999906,271980.9150000001,271644.301,271660.3899999973,271691.865,271994.29,,27,transport
screen,html.Screen,2_3_1_0_1_28,2021-04-30T13:25:06.882Z,,,,,,,,,,,,,,,,,48,,,,,,,,,,,,,,262.71999999758555,,response,,,,10,F,,,,,,Space,keypress(Space),,,,instrumental,,,,-- -- --- ------ ------- --------- ----------- --------<br>--------- -------- --- ------- -- ------- ---- -- ------<br>-- --- -------- -------- ---------- ---- ---- ---- ------<br>-- --------- it ---- -- --- -- --- ------- -- - -----<br>---------- -- -- -- ---- ----- -- ------ -- --- ------<br>-------,272257.36999999936,272257.00999999756,271977.623,271981.32500000065,271994.29,272260.998,,28,it
screen,html.Screen,2_3_1_0_1_29,2021-04-30T13:25:07.202Z,,,,,,,,,,,,,,,,,48,,,,,,,,,,,,,,316.0619999995688,,response,,,,10,F,,,,,,Space,keypress(Space),,,,instrumental,,,,-- -- --- ------ ------- --------- ----------- --------<br>--------- -------- --- ------- -- ------- ---- -- ------<br>-- --- -------- -------- ---------- ---- ---- ---- ------<br>-- --------- -- into -- --- -- --- ------- -- - -----<br>---------- -- -- -- ---- ----- -- ------ -- --- ------<br>-------,272577.3850000005,272577.0599999996,272244.27,272257.44499999925,272260.998,272594.315,,29,into
screen,html.Screen,2_3_1_0_1_30,2021-04-30T13:25:07.488Z,,,,,,,,,,,,,,,,,48,,,,,,,,,,,,,,268.77000000089174,,response,,,,10,F,,,,,,Space,keypress(Space),,,,instrumental,,,,-- -- --- ------ ------- --------- ----------- --------<br>--------- -------- --- ------- -- ------- ---- -- ------<br>-- --- -------- -------- ---------- ---- ---- ---- ------<br>-- --------- -- ---- or --- -- --- ------- -- - -----<br>---------- -- -- -- ---- ----- -- ------ -- --- ------<br>-------,272863.41999999783,272863.0850000009,272577.622,272577.4600000004,272594.315,272877.692,,30,or
screen,html.Screen,2_3_1_0_1_31,2021-04-30T13:25:07.708Z,,,,,,,,,,,,,,,,,48,,,,,,,,,,,,,,206.09800000063842,,response,,,,10,F,,,,,,Space,keypress(Space),,,,instrumental,,,,-- -- --- ------ ------- --------- ----------- --------<br>--------- -------- --- ------- -- ------- ---- -- ------<br>-- --- -------- -------- ---------- ---- ---- ---- ------<br>-- --------- -- ---- -- out -- --- ------- -- - -----<br>---------- -- -- -- ---- ----- -- ------ -- --- ------<br>-------,273084.11499999784,273083.7900000006,272860.942,272863.4999999995,272877.692,273094.314,,31,out
screen,html.Screen,2_3_1_0_1_32,2021-04-30T13:25:07.954Z,,,,,,,,,,,,,,,,,48,,,,,,,,,,,,,,234.82099999993807,,response,,,,10,F,,,,,,Space,keypress(Space),,,,instrumental,,,,-- -- --- ------ ------- --------- ----------- --------<br>--------- -------- --- ------- -- ------- ---- -- ------<br>-- --- -------- -------- ---------- ---- ---- ---- ------<br>-- --------- -- ---- -- --- of --- ------- -- - -----<br>---------- -- -- -- ---- ----- -- ------ -- --- ------<br>-------,273329.48499999836,273329.13499999995,273077.629,273084.2099999973,273094.314,273344.304,,32,of
screen,html.Screen,2_3_1_0_1_33,2021-04-30T13:25:08.255Z,,,,,,,,,,,,,,,,,48,,,,,,,,,,,,,,285.86600000038743,,response,,,,10,F,,,,,,Space,keypress(Space),,,,instrumental,,,,-- -- --- ------ ------- --------- ----------- --------<br>--------- -------- --- ------- -- ------- ---- -- ------<br>-- --- -------- -------- ---------- ---- ---- ---- ------<br>-- --------- -- ---- -- --- -- the ------- -- - -----<br>---------- -- -- -- ---- ----- -- ------ -- --- ------<br>-------,273630.4849999979,273630.1700000004,273327.605,273329.5599999983,273344.304,273644.31,,33,the
screen,html.Screen,2_3_1_0_1_34,2021-04-30T13:25:08.510Z,,,,,,,,,,,,,,,,,48,,,,,,,,,,,,,,240.9550000008312,,response,,,,10,F,,,,,,Space,keypress(Space),,,,instrumental,,,,-- -- --- ------ ------- --------- ----------- --------<br>--------- -------- --- ------- -- ------- ---- -- ------<br>-- --- -------- -------- ---------- ---- ---- ---- ------<br>-- --------- -- ---- -- --- -- --- country -- - -----<br>---------- -- -- -- ---- ----- -- ------ -- --- ------<br>-------,273885.53999999934,273885.2650000008,273627.588,273630.5599999978,273644.31,273894.297,,34,country
screen,html.Screen,2_3_1_0_1_35,2021-04-30T13:25:08.856Z,,,,,,,,,,,,,,,,,48,,,,,,,,,,,,,,336.9630000004545,,response,,,,10,F,,,,,,Space,keypress(Space),,,,instrumental,,,,-- -- --- ------ ------- --------- ----------- --------<br>--------- -------- --- ------- -- ------- ---- -- ------<br>-- --- -------- -------- ---------- ---- ---- ---- ------<br>-- --------- -- ---- -- --- -- --- ------- is - -----<br>---------- -- -- -- ---- ----- -- ------ -- --- ------<br>-------,274231.57999999967,274231.2600000005,273877.616,273885.61499999923,273894.297,274244.29,,35,is
screen,html.Screen,2_3_1_0_1_36,2021-04-30T13:25:09.232Z,,,,,,,,,,,,,,,,,48,,,,,,,,,,,,,,363.01499999774387,,response,,,,10,F,,,,,,Space,keypress(Space),,,,instrumental,,,,-- -- --- ------ ------- --------- ----------- --------<br>--------- -------- --- ------- -- ------- ---- -- ------<br>-- --- -------- -------- ---------- ---- ---- ---- ------<br>-- --------- -- ---- -- --- -- --- ------- -- a -----<br>---------- -- -- -- ---- ----- -- ------ -- --- ------<br>-------,274607.61999999883,274607.3049999977,274227.605,274231.65999999765,274244.29,274610.912,,36,a
screen,html.Screen,2_3_1_0_1_37,2021-04-30T13:25:09.663Z,,,,,,,,,,,,,,,,,48,,,,,,,,,,,,,,427.4379999989178,,response,,,,10,F,,,,,,Space,keypress(Space),,,,instrumental,,,,-- -- --- ------ ------- --------- ----------- --------<br>--------- -------- --- ------- -- ------- ---- -- ------<br>-- --- -------- -------- ---------- ---- ---- ---- ------<br>-- --------- -- ---- -- --- -- --- ------- -- - crime<br>---------- -- -- -- ---- ----- -- ------ -- --- ------<br>-------,275038.69999999733,275038.3499999989,274594.243,274607.7000000005,274610.912,275044.239,,37,crime
screen,html.Screen,2_3_1_0_1_38,2021-04-30T13:25:09.883Z,,,,,,,,,,,,,,,,,48,,,,,,,,,,,,,,214.05099999794038,,response,,,,10,F,,,,,,Space,keypress(Space),,,,instrumental,,,,-- -- --- ------ ------- --------- ----------- --------<br>--------- -------- --- ------- -- ------- ---- -- ------<br>-- --- -------- -------- ---------- ---- ---- ---- ------<br>-- --------- -- ---- -- --- -- --- ------- -- - -----<br>punishable -- -- -- ---- ----- -- ------ -- --- ------<br>-------,275258.57499999984,275258.28999999794,275027.601,275038.77499999723,275044.239,275260.907,,38,punishable
screen,html.Screen,2_3_1_0_1_39,2021-04-30T13:25:10.199Z,,,,,,,,,,,,,,,,,48,,,,,,,,,,,,,,313.49799999938114,,response,,,,10,F,,,,,,Space,keypress(Space),,,,instrumental,,,,-- -- --- ------ ------- --------- ----------- --------<br>--------- -------- --- ------- -- ------- ---- -- ------<br>-- --- -------- -------- ---------- ---- ---- ---- ------<br>-- --------- -- ---- -- --- -- --- ------- -- - -----<br>---------- by -- -- ---- ----- -- ------ -- --- ------<br>-------,275574.7149999988,275574.4049999994,275244.231,275258.64499999804,275260.907,275577.581,,39,by
screen,html.Screen,2_3_1_0_1_40,2021-04-30T13:25:10.480Z,,,,,,,,,,,,,,,,,48,,,,,,,,,,,,,,277.9739999982994,,response,,,,10,F,,,,,,Space,keypress(Space),,,,instrumental,,,,-- -- --- ------ ------- --------- ----------- --------<br>--------- -------- --- ------- -- ------- ---- -- ------<br>-- --- -------- -------- ---------- ---- ---- ---- ------<br>-- --------- -- ---- -- --- -- --- ------- -- - -----<br>---------- -- up -- ---- ----- -- ------ -- --- ------<br>-------,275856.0049999978,275855.5549999983,275560.902,275574.78500000073,275577.581,275860.938,,40,up
