sender,sender_type,sender_id,timestamp,meta,,Blues,Classical,Country,Dance,Electronic,Folk,Gospel,Hip-Hop,Jazz,Latin,Musical/Film,New-age,Pop,Prolific_id,Provo_ID,R&B,Rap,Reggae,Religious,Rock,Soul,Swing,Traditional,age,artist_name,correct,correctResponse,distraction,duration,education,ended_on,familiarity,gender,headphone_check_performance,item,list,music_frequency,offensiveness,pleasantness,position_correct,preference,response,response_action,snippet_file,song_name,song_rating,sound,stimulus_1,stimulus_2,stimulus_3,text,time_commit,time_end,time_render,time_run,time_show,time_switch,url,word,word_ID
Prolific ID,html.Form,0,2021-04-24T12:36:37.663Z,"{""labjs_version"":""20.2.2"",""labjs_build"":{""flavor"":""production"",""commit"":""a25486e0c714a0ae2ce03ff94b7bb6896854dcfa""},""location"":""https://run.pavlovia.org/mvasilev/prolific_music_a/"",""userAgent"":""Mozilla/5.0 (Windows NT 10.0; Win64; x64) AppleWebKit/537.36 (KHTML, like Gecko) Chrome/90.0.4430.85 Safari/537.36"",""platform"":""Win32"",""language"":""en-GB"",""locale"":""en-US"",""timeZone"":""Europe/London"",""timezoneOffset"":-60,""screen_width"":1920,""screen_height"":1080,""scroll_width"":1920,""scroll_height"":959,""window_innerWidth"":1920,""window_innerHeight"":1007,""devicePixelRatio"":1}",,,,,,,,,,,,,,,5f8bf369a8c1ee32a02970a4,,,,,,,,,,,,,,,30370.00999997813,,form submission,,,,,,,,,,,,,,,,,,,,,35741.42499995651,35741.14499997813,5273.913,5355.089999968186,5371.135,35746.791,{},,
Introduction,html.Screen,1_0,2021-04-24T12:36:43.199Z,,,,,,,,,,,,,,,,,,,,,,,,,,,,,,,5529.1639999609615,,response,,,,,,,,,,,continue,click button,,,,,,,,,41277.58499997435,41275.95499996096,35739.803,35741.5949999704,35746.791,41281.704,,,
Volume calibration,html.Screen,1_1,2021-04-24T12:37:12.547Z,,,,,,,,,,,,,,,,,,,,,,,,,,,,,,,29342.235999961296,,response,,,,,,,,,,,continue,click button,,,,,,,,,70625.30499999411,70623.9399999613,41274.72,41277.679999999236,41281.704,70629.31,,,
Task instructions,html.Screen,1_2,2021-04-24T12:37:37.001Z,,,,,,,,,,,,,,,,,,,,,,,,,,,,,,,24449.914999994042,,response,,,,,,,,,,,continue,click button,,,,,,,,,95079.99999995809,95079.22499999404,70622.533,70625.38499996299,70629.31,95081.364,,,
Sounds,html.Screen,1_3_0_0,2021-04-24T12:37:41.247Z,,,,,,,,,,,,,,,,,,,,,,,,,,,,,,,4250.024000000005,,timeout,,,,,,,,,1,,,,,,,,S,O,I,,99325.8049999713,99324.602,95074.394,95080.12499997858,95081.364,99331.388,,,
Judgement,html.Screen,1_3_0_1,2021-04-24T12:37:42.655Z,,,,,,,,,,,,,,,,,,,,,,,,,,,,true,1,,1401.781999963132,,response,,,,,,,,,1,,1,click #choice-1,,,,,S,O,I,,100733.78000000957,100733.16999996314,99324.602,99325.8799999603,99331.388,100741.683,,,
Trial,flow.Sequence,1_3_0,2021-04-24T12:37:42.655Z,,,,,,,,,,,,,,,,,,,,,,,,,,,,,,,5651.805999963137,,completion,,,,,,,,,1,,,,,,,,S,O,I,,100734.0199999744,100733.16999996314,95074.394,95080.09999996284,95081.364,100741.683,,,
Sounds,html.Screen,1_3_1_0,2021-04-24T12:37:46.906Z,,,,,,,,,,,,,,,,,,,,,,,,,,,,,,,4249.512999999992,,timeout,,,,,,,,,2,,,,,,,,I,S,O,,104984.82999997213,104984.456,100727.318,100734.09499996342,100741.683,104991.196,,,
Judgement,html.Screen,1_3_1_1,2021-04-24T12:37:48.498Z,,,,,,,,,,,,,,,,,,,,,,,,,,,,true,2,,1584.98399997456,,response,,,,,,,,,2,,2,click #choice-2,,,,,I,S,O,,106577.01000000816,106576.17999997456,104984.456,104984.89999998128,104991.196,106581.527,,,
Trial,flow.Sequence,1_3_1,2021-04-24T12:37:48.499Z,,,,,,,,,,,,,,,,,,,,,,,,,,,,,,,5834.496999974552,,completion,,,,,,,,,2,,,,,,,,I,S,O,,106577.11999997264,106576.17999997456,100727.318,100734.07000000589,100741.683,106581.527,,,
Sounds,html.Screen,1_3_2_0,2021-04-24T12:37:52.746Z,,,,,,,,,,,,,,,,,,,,,,,,,,,,,,,4249.990000000005,,timeout,,,,,,,,,1,,,,,,,,S,I,O,,110825.0049999915,110824.706,106574.631,106577.17999996385,106581.527,110831.517,,,
Judgement,html.Screen,1_3_2_1,2021-04-24T12:37:53.776Z,,,,,,,,,,,,,,,,,,,,,,,,,,,,true,1,,1022.5329999653477,,response,,,,,,,,,1,,1,click #choice-1,,,,,S,I,O,,111854.70999998506,111854.04999996535,110824.706,110825.06999996258,110831.517,111859.42,,,
Trial,flow.Sequence,1_3_2,2021-04-24T12:37:53.776Z,,,,,,,,,,,,,,,,,,,,,,,,,,,,,,,5272.522999965353,,completion,,,,,,,,,1,,,,,,,,S,I,O,,111854.83500000555,111854.04999996535,106574.631,106577.15999998618,106581.527,111859.42,,,
Sounds,html.Screen,1_3_3_0,2021-04-24T12:37:58.024Z,,,,,,,,,,,,,,,,,,,,,,,,,,,,,,,4250.048999999999,,timeout,,,,,,,,,3,,,,,,,,I,O,S,,116102.8899999801,116102.628,111852.531,111854.90999999456,111859.42,116109.469,,,
Judgement,html.Screen,1_3_3_1,2021-04-24T12:37:58.668Z,,,,,,,,,,,,,,,,,,,,,,,,,,,,true,3,,635.8659999850643,,response,,,,,,,,,3,,3,click #choice-3,,,,,I,O,S,,116746.2349999696,116745.33499998506,116102.628,116102.95500000939,116109.469,116748.331,,,
Trial,flow.Sequence,1_3_3,2021-04-24T12:37:58.668Z,,,,,,,,,,,,,,,,,,,,,,,,,,,,,,,4885.914999985063,,completion,,,,,,,,,3,,,,,,,,I,O,S,,116746.32999999449,116745.33499998506,111852.531,111854.88499997882,111859.42,116748.331,,,
Sounds,html.Screen,1_3_4_0,2021-04-24T12:38:02.913Z,,,,,,,,,,,,,,,,,,,,,,,,,,,,,,,4250.140999999989,,timeout,,,,,,,,,2,,,,,,,,O,S,I,,120992.04499996267,120991.634,116741.489,116746.3899999857,116748.331,120998.472,,,
Judgement,html.Screen,1_3_4_1,2021-04-24T12:38:03.851Z,,,,,,,,,,,,,,,,,,,,,,,,,,,,true,2,,930.5529999612627,,response,,,,,,,,,2,,2,click #choice-2,,,,,O,S,I,,121929.57499995828,121929.02499996126,120991.634,120992.10999999195,120998.472,121935.984,,,
Trial,flow.Sequence,1_3_4,2021-04-24T12:38:03.851Z,,,,,,,,,,,,,,,,,,,,,,,,,,,,,,,5180.693999961251,,completion,,,,,,,,,2,,,,,,,,O,S,I,,121929.81000000145,121929.02499996126,116741.489,116746.3749999879,116748.331,121935.984,,,
Sounds,html.Screen,1_3_5_0,2021-04-24T12:38:08.101Z,,,,,,,,,,,,,,,,,,,,,,,,,,,,,,,4250.025000000009,,timeout,,,,,,,,,3,,,,,,,,O,I,S,,126179.53999998281,126179.196,121929.107,121929.86999999266,121935.984,126186.009,,,
Judgement,html.Screen,1_3_5_1,2021-04-24T12:38:08.690Z,,,,,,,,,,,,,,,,,,,,,,,,,,,,true,3,,582.1860000114684,,response,,,,,,,,,3,,3,click #choice-3,,,,,O,I,S,,126768.83999997517,126768.19500001147,126179.196,126179.59999997402,126186.009,126777.28,,,
Trial,flow.Sequence,1_3_5,2021-04-24T12:38:08.690Z,,,,,,,,,,,,,,,,,,,,,,,,,,,,,,,4832.211000011477,,completion,,,,,,,,,3,,,,,,,,O,I,S,,126768.94999999786,126768.19500001147,121929.107,121929.85499999486,121935.984,126777.28,,,
Task,flow.Loop,1_3,2021-04-24T12:38:08.692Z,,,,,,,,,,,,,,,,,,,,,,,,,,,,,,,31686.831000011472,,completion,,,1,,,,,,,,,,,,,,,,,,126770.8949999651,126768.19500001147,95074.394,95080.06499998737,95081.364,126777.28,,,
Trap,html.Screen,1_4,2021-04-24T12:38:08.694Z,,,,,,,,,,,,,,,,,,,,,,,,,,,,,,,NaN,,skipped,,,,,,,,,,,,,,,,,,,,,126772.30000001146,126768.19500001147,,126772.23999996204,,126777.28,,,
Thanks,html.Screen,1_5,2021-04-24T12:38:11.748Z,,,,,,,,,,,,,,,,,,,,,,,,,,,,,,,3048.9149999723595,,response,,,,,,,,,,,continue,click button,,,,,,,,,129827.03499996569,129826.19499997236,126762.615,126772.34999998473,126777.28,132569.325,,,
Headphone screening,flow.Sequence,1,2021-04-24T12:38:11.749Z,,,,,,,,,,,,,,,,,,,,,,,,,,,,,,,94079.40399997236,,completion,,,,,,,,,,,,,,,,,,,,,129827.15500000631,129826.19499997236,35739.803,35741.574999992736,35746.791,132569.325,,,
Instructions,html.Page,2_0,2021-04-24T12:38:30.351Z,,,,,,,,,,,,,,,,,,,,,,,,,,,,,,,15860.284999991942,,form submission,,,,,,,,,,,,,,,,,,,,,148429.73500001244,148429.60999999195,132561.351,132565.93499996234,132569.325,148437.615,,,
Holding screen,html.Screen,2_1_0_0,2021-04-24T12:38:40.352Z,,,,,,,,,,,,,,,,,,,,,,,,,,,,,,,9999.256000000023,,timeout,,,,,,,,,,,,,,,,,,,,,158430.31500000507,158429.953,148422.739,148429.88499999046,148437.615,158436.871,,,
screen,html.Screen,2_1_0_1_0,2021-04-24T12:38:41.352Z,,,,,,,,,,,,,,,,,53,,,,,,,,,,,,,,992.4089999820862,,response,,,,99,,,,,,,Space,keypress(Space),,,,,,,,When -- ----- -- ------ - ------- --- ----------<br>------------- ------ ------ ---- ---- ------- ----- -- ----<br>-------- ------- -- ---------- --- - --- ----- ----- ----<br>---- --- --- ----- --- ---- ---- ------- ----- ---- -------<br>--- --- -- ----- -- --- ---- -- --- ---- -- ------ ------<br>--- ----- -- ----,159430.82499998854,159429.2799999821,158429.953,158430.40999997174,158436.871,159436.74,,0,When
screen,html.Screen,2_1_0_1_1,2021-04-24T12:38:41.670Z,,,,,,,,,,,,,,,,,53,,,,,,,,,,,,,,311.19999997201376,,response,,,,99,,,,,,,Space,keypress(Space),,,,,,,,---- it ----- -- ------ - ------- --- ----------<br>------------- ------ ------ ---- ---- ------- ----- -- ----<br>-------- ------- -- ---------- --- - --- ----- ----- ----<br>---- --- --- ----- --- ---- ---- ------- ----- ---- -------<br>--- --- -- ----- -- --- ---- -- --- ---- -- ------ ------<br>--- ----- -- ----,159748.64000000525,159747.939999972,159429.83,159430.8949999977,159436.74,159756.321,,1,it
screen,html.Screen,2_1_0_1_2,2021-04-24T12:38:42.005Z,,,,,,,,,,,,,,,,,53,,,,,,,,,,,,,,327.00400001415983,,response,,,,99,,,,,,,Space,keypress(Space),,,,,,,,---- -- comes -- ------ - ------- --- ----------<br>------------- ------ ------ ---- ---- ------- ----- -- ----<br>-------- ------- -- ---------- --- - --- ----- ----- ----<br>---- --- --- ----- --- ---- ---- ------- ----- ---- -------<br>--- --- -- ----- -- --- ---- -- --- ---- -- ------ ------<br>--- ----- -- ----,160083.9149999665,160083.32500001416,159742.363,159748.69999999646,159756.321,160089.604,,2,comes
screen,html.Screen,2_1_0_1_3,2021-04-24T12:38:42.434Z,,,,,,,,,,,,,,,,,53,,,,,,,,,,,,,,421.86099998868303,,response,,,,99,,,,,,,Space,keypress(Space),,,,,,,,---- -- ----- to ------ - ------- --- ----------<br>------------- ------ ------ ---- ---- ------- ----- -- ----<br>-------- ------- -- ---------- --- - --- ----- ----- ----<br>---- --- --- ----- --- ---- ---- ------- ----- ---- -------<br>--- --- -- ----- -- --- ---- -- --- ---- -- ------ ------<br>--- ----- -- ----,160512.1349999681,160511.46499998868,160082.855,160083.97499995772,160089.604,160520.349,,3,to
screen,html.Screen,2_1_0_1_4,2021-04-24T12:38:42.891Z,,,,,,,,,,,,,,,,,53,,,,,,,,,,,,,,448.67599999852246,,response,,,,99,,,,,,,Space,keypress(Space),,,,,,,,---- -- ----- -- having - ------- --- ----------<br>------------- ------ ------ ---- ---- ------- ----- -- ----<br>-------- ------- -- ---------- --- - --- ----- ----- ----<br>---- --- --- ----- --- ---- ---- ------- ----- ---- -------<br>--- --- -- ----- -- --- ---- -- --- ---- -- ------ ------<br>--- ----- -- ----,160969.60499999113,160969.0249999985,160506.299,160512.19499995932,160520.349,160971.597,,4,having
screen,html.Screen,2_1_0_1_5,2021-04-24T12:38:43.308Z,,,,,,,,,,,,,,,,,53,,,,,,,,,,,,,,414.4280000143335,,response,,,,99,,,,,,,Space,keypress(Space),,,,,,,,---- -- ----- -- ------ a ------- --- ----------<br>------------- ------ ------ ---- ---- ------- ----- -- ----<br>-------- ------- -- ---------- --- - --- ----- ----- ----<br>---- --- --- ----- --- ---- ---- ------- ----- ---- -------<br>--- --- -- ----- -- --- ---- -- --- ---- -- ------ ------<br>--- ----- -- ----,161386.77499996265,161386.02500001434,160964.609,160969.6699999622,160971.597,161388.332,,5,a
screen,html.Screen,2_1_0_1_6,2021-04-24T12:38:43.761Z,,,,,,,,,,,,,,,,,53,,,,,,,,,,,,,,450.38799999974435,,response,,,,99,,,,,,,Space,keypress(Space),,,,,,,,---- -- ----- -- ------ - lasting --- ----------<br>------------- ------ ------ ---- ---- ------- ----- -- ----<br>-------- ------- -- ---------- --- - --- ----- ----- ----<br>---- --- --- ----- --- ---- ---- ------- ----- ---- -------<br>--- --- -- ----- -- --- ---- -- --- ---- -- ------ ------<br>--- ----- -- ----,161839.41499999491,161838.71999999974,161381.301,161386.83999999193,161388.332,161846.583,,6,lasting
screen,html.Screen,2_1_0_1_7,2021-04-24T12:38:44.161Z,,,,,,,,,,,,,,,,,53,,,,,,,,,,,,,,392.4519999768527,,response,,,,99,,,,,,,Space,keypress(Space),,,,,,,,---- -- ----- -- ------ - ------- and ----------<br>------------- ------ ------ ---- ---- ------- ----- -- ----<br>-------- ------- -- ---------- --- - --- ----- ----- ----<br>---- --- --- ----- --- ---- ---- ------- ----- ---- -------<br>--- --- -- ----- -- --- ---- -- --- ---- -- ------ ------<br>--- ----- -- ----,162239.62000000756,162239.03499997687,161839.629,161839.47499998612,161846.583,162242.347,,7,and
screen,html.Screen,2_1_0_1_8,2021-04-24T12:38:44.699Z,,,,,,,,,,,,,,,,,53,,,,,,,,,,,,,,535.1629999853321,,response,,,,99,,,,,,,Space,keypress(Space),,,,,,,,---- -- ----- -- ------ - ------- --- fulfilling<br>------------- ------ ------ ---- ---- ------- ----- -- ----<br>-------- ------- -- ---------- --- - --- ----- ----- ----<br>---- --- --- ----- --- ---- ---- ------- ----- ---- -------<br>--- --- -- ----- -- --- ---- -- --- ---- -- ------ ------<br>--- ----- -- ----,162778.07499998016,162777.50999998534,162235.498,162239.67999999877,162242.347,162784.125,,8,fulfilling
screen,html.Screen,2_1_0_1_9,2021-04-24T12:38:45.103Z,,,,,,,,,,,,,,,,,53,,,,,,,,,,,,,,397.194999974221,,response,,,,99,,,,,,,Space,keypress(Space),,,,,,,,"---- -- ----- -- ------ - ------- --- ----------<br>relationship, ------ ------ ---- ---- ------- ----- -- ----<br>-------- ------- -- ---------- --- - --- ----- ----- ----<br>---- --- --- ----- --- ---- ---- ------- ----- ---- -------<br>--- --- -- ----- -- --- ---- -- --- ---- -- ------ ------<br>--- ----- -- ----",163182.00999998953,163181.31999997422,162777.137,162778.13499997137,162784.125,163186.917,,9,"relationship,"
screen,html.Screen,2_1_0_1_10,2021-04-24T12:38:45.487Z,,,,,,,,,,,,,,,,,53,,,,,,,,,,,,,,377.5379999851866,,response,,,,99,,,,,,,Space,keypress(Space),,,,,,,,---- -- ----- -- ------ - ------- --- ----------<br>------------- common ------ ---- ---- ------- ----- -- ----<br>-------- ------- -- ---------- --- - --- ----- ----- ----<br>---- --- --- ----- --- ---- ---- ------- ----- ---- -------<br>--- --- -- ----- -- --- ---- -- --- ---- -- ------ ------<br>--- ----- -- ----,163565.094999969,163564.45499998517,163179.958,163182.06999998074,163186.917,163568.799,,10,common
screen,html.Screen,2_1_0_1_11,2021-04-24T12:38:45.893Z,,,,,,,,,,,,,,,,,53,,,,,,,,,,,,,,402.1009999566013,,response,,,,99,,,,,,,Space,keypress(Space),,,,,,,,---- -- ----- -- ------ - ------- --- ----------<br>------------- ------ wisdom ---- ---- ------- ----- -- ----<br>-------- ------- -- ---------- --- - --- ----- ----- ----<br>---- --- --- ----- --- ---- ---- ------- ----- ---- -------<br>--- --- -- ----- -- --- ---- -- --- ---- -- ------ ------<br>--- ----- -- ----,163971.7299999902,163970.8999999566,163561.888,163565.1549999602,163568.799,163978.636,,11,wisdom
screen,html.Screen,2_1_0_1_12,2021-04-24T12:38:46.272Z,,,,,,,,,,,,,,,,,53,,,,,,,,,,,,,,371.4639999814681,,response,,,,99,,,,,,,Space,keypress(Space),,,,,,,,---- -- ----- -- ------ - ------- --- ----------<br>------------- ------ ------ says ---- ------- ----- -- ----<br>-------- ------- -- ---------- --- - --- ----- ----- ----<br>---- --- --- ----- --- ---- ---- ------- ----- ---- -------<br>--- --- -- ----- -- --- ---- -- --- ---- -- ------ ------<br>--- ----- -- ----,164350.6949999719,164350.09999998147,163971.614,163971.8400000129,163978.636,164353.617,,12,says
screen,html.Screen,2_1_0_1_13,2021-04-24T12:38:46.636Z,,,,,,,,,,,,,,,,,53,,,,,,,,,,,,,,360.10799997960567,,response,,,,99,,,,,,,Space,keypress(Space),,,,,,,,---- -- ----- -- ------ - ------- --- ----------<br>------------- ------ ------ ---- that ------- ----- -- ----<br>-------- ------- -- ---------- --- - --- ----- ----- ----<br>---- --- --- ----- --- ---- ---- ------- ----- ---- -------<br>--- --- -- ----- -- --- ---- -- --- ---- -- ------ ------<br>--- ----- -- ----,164714.34499998577,164713.7249999796,164346.652,164351.04999999749,164353.617,164721.7,,13,that
screen,html.Screen,2_1_0_1_14,2021-04-24T12:38:47.000Z,,,,,,,,,,,,,,,,,53,,,,,,,,,,,,,,356.2099999926868,,response,,,,99,,,,,,,Space,keypress(Space),,,,,,,,---- -- ----- -- ------ - ------- --- ----------<br>------------- ------ ------ ---- ---- feeling ----- -- ----<br>-------- ------- -- ---------- --- - --- ----- ----- ----<br>---- --- --- ----- --- ---- ---- ------- ----- ---- -------<br>--- --- -- ----- -- --- ---- -- --- ---- -- ------ ------<br>--- ----- -- ----,165078.6150000058,165077.9099999927,164707.778,164714.40499997698,164721.7,165082.738,,14,feeling
screen,html.Screen,2_1_0_1_15,2021-04-24T12:38:47.402Z,,,,,,,,,,,,,,,,,53,,,,,,,,,,,,,,397.0719999897992,,response,,,,99,,,,,,,Space,keypress(Space),,,,,,,,---- -- ----- -- ------ - ------- --- ----------<br>------------- ------ ------ ---- ---- ------- close -- ----<br>-------- ------- -- ---------- --- - --- ----- ----- ----<br>---- --- --- ----- --- ---- ---- ------- ----- ---- -------<br>--- --- -- ----- -- --- ---- -- --- ---- -- ------ ------<br>--- ----- -- ----,165480.34499998903,165479.8099999898,165075.809,165078.67499999702,165082.738,165485.601,,15,close
screen,html.Screen,2_1_0_1_16,2021-04-24T12:38:47.853Z,,,,,,,,,,,,,,,,,53,,,,,,,,,,,,,,445.6839999987569,,response,,,,99,,,,,,,Space,keypress(Space),,,,,,,,---- -- ----- -- ------ - ------- --- ----------<br>------------- ------ ------ ---- ---- ------- ----- to ----<br>-------- ------- -- ---------- --- - --- ----- ----- ----<br>---- --- --- ----- --- ---- ---- ------- ----- ---- -------<br>--- --- -- ----- -- --- ---- -- --- ---- -- ------ ------<br>--- ----- -- ----,165931.84999999357,165931.28499999875,165478.617,165480.4099999601,165485.601,165936.955,,16,to
screen,html.Screen,2_1_0_1_17,2021-04-24T12:38:48.283Z,,,,,,,,,,,,,,,,,53,,,,,,,,,,,,,,423.57999998526066,,response,,,,99,,,,,,,Space,keypress(Space),,,,,,,,---- -- ----- -- ------ - ------- --- ----------<br>------------- ------ ------ ---- ---- ------- ----- -- your<br>-------- ------- -- ---------- --- - --- ----- ----- ----<br>---- --- --- ----- --- ---- ---- ------- ----- ---- -------<br>--- --- -- ----- -- --- ---- -- --- ---- -- ------ ------<br>--- ----- -- ----,166361.18000000715,166360.53499998525,165930.076,165931.90999998478,165936.955,166367.491,,17,your
screen,html.Screen,2_1_0_1_18,2021-04-24T12:38:48.657Z,,,,,,,,,,,,,,,,,53,,,,,,,,,,,,,,367.1789999761677,,response,,,,99,,,,,,,Space,keypress(Space),,,,,,,,---- -- ----- -- ------ - ------- --- ----------<br>------------- ------ ------ ---- ---- ------- ----- -- ----<br>romantic ------- -- ---------- --- - --- ----- ----- ----<br>---- --- --- ----- --- ---- ---- ------- ----- ---- -------<br>--- --- -- ----- -- --- ---- -- --- ---- -- ------ ------<br>--- ----- -- ----,166735.2799999644,166734.66999997618,166360.575,166361.23999999836,166367.491,166749.512,,18,romantic
screen,html.Screen,2_1_0_1_19,2021-04-24T12:38:49.074Z,,,,,,,,,,,,,,,,,53,,,,,,,,,,,,,,402.6030000044266,,response,,,,99,,,,,,,Space,keypress(Space),,,,,,,,---- -- ----- -- ------ - ------- --- ----------<br>------------- ------ ------ ---- ---- ------- ----- -- ----<br>-------- partner -- ---------- --- - --- ----- ----- ----<br>---- --- --- ----- --- ---- ---- ------- ----- ---- -------<br>--- --- -- ----- -- --- ---- -- --- ---- -- ------ ------<br>--- ----- -- ----,167152.57500001462,167152.1150000044,166742.579,166735.34000001382,166749.512,167159.201,,19,partner
screen,html.Screen,2_1_0_1_20,2021-04-24T12:38:49.444Z,,,,,,,,,,,,,,,,,53,,,,,,,,,,,,,,363.1339999869233,,response,,,,99,,,,,,,Space,keypress(Space),,,,,,,,---- -- ----- -- ------ - ------- --- ----------<br>------------- ------ ------ ---- ---- ------- ----- -- ----<br>-------- ------- is ---------- --- - --- ----- ----- ----<br>---- --- --- ----- --- ---- ---- ------- ----- ---- -------<br>--- --- -- ----- -- --- ---- -- --- ---- -- ------ ------<br>--- ----- -- ----,167523.03499996196,167522.33499998692,167152.265,167152.63500000583,167159.201,167527.223,,20,is
screen,html.Screen,2_1_0_1_21,2021-04-24T12:38:49.888Z,,,,,,,,,,,,,,,,,53,,,,,,,,,,,,,,438.4620000028517,,response,,,,99,,,,,,,Space,keypress(Space),,,,,,,,---- -- ----- -- ------ - ------- --- ----------<br>------------- ------ ------ ---- ---- ------- ----- -- ----<br>-------- ------- -- paramount. --- - --- ----- ----- ----<br>---- --- --- ----- --- ---- ---- ------- ----- ---- -------<br>--- --- -- ----- -- --- ---- -- --- ---- -- ------ ------<br>--- ----- -- ----,167966.29499999108,167965.68500000285,167520.324,167523.09500001138,167527.223,167971.666,,21,paramount.
screen,html.Screen,2_1_0_1_22,2021-04-24T12:38:51.425Z,,,,,,,,,,,,,,,,,53,,,,,,,,,,,,,,1531.2589999788615,,response,,,,99,,,,,,,Space,keypress(Space),,,,,,,,---- -- ----- -- ------ - ------- --- ----------<br>------------- ------ ------ ---- ---- ------- ----- -- ----<br>-------- ------- -- ---------- But - --- ----- ----- ----<br>---- --- --- ----- --- ---- ---- ------- ----- ---- -------<br>--- --- -- ----- -- --- ---- -- --- ---- -- ------ ------<br>--- ----- -- ----,169503.5499999649,169502.92499997886,167964.771,167966.3549999823,167971.666,169506.423,,22,But
screen,html.Screen,2_1_0_1_23,2021-04-24T12:38:51.775Z,,,,,,,,,,,,,,,,,53,,,,,,,,,,,,,,347.02199995698174,,response,,,,99,,,,,,,Space,keypress(Space),,,,,,,,---- -- ----- -- ------ - ------- --- ----------<br>------------- ------ ------ ---- ---- ------- ----- -- ----<br>-------- ------- -- ---------- --- a --- ----- ----- ----<br>---- --- --- ----- --- ---- ---- ------- ----- ---- -------<br>--- --- -- ----- -- --- ---- -- --- ---- -- ------ ------<br>--- ----- -- ----,169854.0449999855,169853.444999957,169499.467,169503.60499997623,169506.423,169860.574,,23,a
screen,html.Screen,2_1_0_1_24,2021-04-24T12:38:51.987Z,,,,,,,,,,,,,,,,,53,,,,,,,,,,,,,,204.24099999063765,,response,,,,99,,,,,,,Space,keypress(Space),,,,,,,,---- -- ----- -- ------ - ------- --- ----------<br>------------- ------ ------ ---- ---- ------- ----- -- ----<br>-------- ------- -- ---------- --- - new ----- ----- ----<br>---- --- --- ----- --- ---- ---- ------- ----- ---- -------<br>--- --- -- ----- -- --- ---- -- --- ---- -- ------ ------<br>--- ----- -- ----,170065.5549999792,170064.81499999063,169853.714,169854.1049999767,169860.574,170068.943,,24,new
screen,html.Screen,2_1_0_1_25,2021-04-24T12:38:52.166Z,,,,,,,,,,,,,,,,,53,,,,,,,,,,,,,,174.50199997096206,,response,,,,99,,,,,,,Space,keypress(Space),,,,,,,,---- -- ----- -- ------ - ------- --- ----------<br>------------- ------ ------ ---- ---- ------- ----- -- ----<br>-------- ------- -- ---------- --- - --- study ----- ----<br>---- --- --- ----- --- ---- ---- ------- ----- ---- -------<br>--- --- -- ----- -- --- ---- -- --- ---- -- ------ ------<br>--- ----- -- ----,170244.30999998003,170243.44499997096,170062.036,170065.6200000085,170068.943,170249.523,,25,study
screen,html.Screen,2_1_0_1_26,2021-04-24T12:38:52.449Z,,,,,,,,,,,,,,,,,53,,,,,,,,,,,,,,277.2119999630959,,response,,,,99,,,,,,,Space,keypress(Space),,,,,,,,---- -- ----- -- ------ - ------- --- ----------<br>------------- ------ ------ ---- ---- ------- ----- -- ----<br>-------- ------- -- ---------- --- - --- ----- finds ----<br>---- --- --- ----- --- ---- ---- ------- ----- ---- -------<br>--- --- -- ----- -- --- ---- -- --- ---- -- ------ ------<br>--- ----- -- ----,170527.35499996925,170526.73499996308,170242.621,170244.40500000492,170249.523,170534.28,,26,finds
screen,html.Screen,2_1_0_1_27,2021-04-24T12:38:52.857Z,,,,,,,,,,,,,,,,,53,,,,,,,,,,,,,,400.3700000101526,,response,,,,99,,,,,,,Space,keypress(Space),,,,,,,,---- -- ----- -- ------ - ------- --- ----------<br>------------- ------ ------ ---- ---- ------- ----- -- ----<br>-------- ------- -- ---------- --- - --- ----- ----- that<br>---- --- --- ----- --- ---- ---- ------- ----- ---- -------<br>--- --- -- ----- -- --- ---- -- --- ---- -- ------ ------<br>--- ----- -- ----,170935.29499997385,170934.65000001015,170527.346,170527.41499996046,170534.28,170937.13,,27,that
screen,html.Screen,2_1_0_1_28,2021-04-24T12:38:53.189Z,,,,,,,,,,,,,,,,,53,,,,,,,,,,,,,,330.1899999844609,,response,,,,99,,,,,,,Space,keypress(Space),,,,,,,,---- -- ----- -- ------ - ------- --- ----------<br>------------- ------ ------ ---- ---- ------- ----- -- ----<br>-------- ------- -- ---------- --- - --- ----- ----- ----<br>it's --- --- ----- --- ---- ---- ------- ----- ---- -------<br>--- --- -- ----- -- --- ---- -- --- ---- -- ------ ------<br>--- ----- -- ----,171268.04499997525,171267.31999998447,170930.126,170935.35499996506,170937.13,171270.437,,28,it's
screen,html.Screen,2_1_0_1_29,2021-04-24T12:38:53.480Z,,,,,,,,,,,,,,,,,53,,,,,,,,,,,,,,287.9379999641387,,response,,,,99,,,,,,,Space,keypress(Space),,,,,,,,---- -- ----- -- ------ - ------- --- ----------<br>------------- ------ ------ ---- ---- ------- ----- -- ----<br>-------- ------- -- ---------- --- - --- ----- ----- ----<br>---- not --- ----- --- ---- ---- ------- ----- ---- -------<br>--- --- -- ----- -- --- ---- -- --- ---- -- ------ ------<br>--- ----- -- ----,171558.8749999879,171558.37499996414,171263.405,171268.10499996645,171270.437,171561.986,,29,not
screen,html.Screen,2_1_0_1_30,2021-04-24T12:38:53.935Z,,,,,,,,,,,,,,,,,53,,,,,,,,,,,,,,450.7939999900118,,response,,,,99,,,,,,,Space,keypress(Space),,,,,,,,---- -- ----- -- ------ - ------- --- ----------<br>------------- ------ ------ ---- ---- ------- ----- -- ----<br>-------- ------- -- ---------- --- - --- ----- ----- ----<br>---- --- how ----- --- ---- ---- ------- ----- ---- -------<br>--- --- -- ----- -- --- ---- -- --- ---- -- ------ ------<br>--- ----- -- ----,172013.3799999603,172012.77999999002,171555.12,171558.9349999791,171561.986,172020.464,,30,how
screen,html.Screen,2_1_0_1_31,2021-04-24T12:38:54.235Z,,,,,,,,,,,,,,,,,53,,,,,,,,,,,,,,292.2060000138881,,response,,,,99,,,,,,,Space,keypress(Space),,,,,,,,---- -- ----- -- ------ - ------- --- ----------<br>------------- ------ ------ ---- ---- ------- ----- -- ----<br>-------- ------- -- ---------- --- - --- ----- ----- ----<br>---- --- --- close --- ---- ---- ------- ----- ---- -------<br>--- --- -- ----- -- --- ---- -- --- ---- -- ------ ------<br>--- ----- -- ----,172313.4049999644,172312.6700000139,172013.473,172013.4449999896,172020.464,172319.005,,31,close
screen,html.Screen,2_1_0_1_32,2021-04-24T12:38:54.457Z,,,,,,,,,,,,,,,,,53,,,,,,,,,,,,,,216.12499997473788,,response,,,,99,,,,,,,Space,keypress(Space),,,,,,,,---- -- ----- -- ------ - ------- --- ----------<br>------------- ------ ------ ---- ---- ------- ----- -- ----<br>-------- ------- -- ---------- --- - --- ----- ----- ----<br>---- --- --- ----- you ---- ---- ------- ----- ---- -------<br>--- --- -- ----- -- --- ---- -- --- ---- -- ------ ------<br>--- ----- -- ----,172535.83499998786,172535.12999997474,172312.116,172313.46500001382,172319.005,172541.267,,32,you
screen,html.Screen,2_1_0_1_33,2021-04-24T12:38:54.656Z,,,,,,,,,,,,,,,,,53,,,,,,,,,,,,,,191.878000005614,,response,,,,99,,,,,,,Space,keypress(Space),,,,,,,,---- -- ----- -- ------ - ------- --- ----------<br>------------- ------ ------ ---- ---- ------- ----- -- ----<br>-------- ------- -- ---------- --- - --- ----- ----- ----<br>---- --- --- ----- --- feel ---- ------- ----- ---- -------<br>--- --- -- ----- -- --- ---- -- --- ---- -- ------ ------<br>--- ----- -- ----,172734.4349999912,172733.1450000056,172534.357,172535.89499997906,172541.267,172743.32,,33,feel
screen,html.Screen,2_1_0_1_34,2021-04-24T12:38:54.888Z,,,,,,,,,,,,,,,,,53,,,,,,,,,,,,,,222.95500001340406,,response,,,,99,,,,,,,Space,keypress(Space),,,,,,,,---- -- ----- -- ------ - ------- --- ----------<br>------------- ------ ------ ---- ---- ------- ----- -- ----<br>-------- ------- -- ---------- --- - --- ----- ----- ----<br>---- --- --- ----- --- ---- that ------- ----- ---- -------<br>--- --- -- ----- -- --- ---- -- --- ---- -- ------ ------<br>--- ----- -- ----,172966.84999996796,172966.2750000134,172728.789,172734.55499997362,172743.32,172971.816,,34,that
screen,html.Screen,2_1_0_1_35,2021-04-24T12:38:55.148Z,,,,,,,,,,,,,,,,,53,,,,,,,,,,,,,,253.83399997849483,,response,,,,99,,,,,,,Space,keypress(Space),,,,,,,,---- -- ----- -- ------ - ------- --- ----------<br>------------- ------ ------ ---- ---- ------- ----- -- ----<br>-------- ------- -- ---------- --- - --- ----- ----- ----<br>---- --- --- ----- --- ---- ---- matters ----- ---- -------<br>--- --- -- ----- -- --- ---- -- --- ---- -- ------ ------<br>--- ----- -- ----,173226.16500000004,173225.6499999785,172964.871,172966.91499999724,172971.816,173228.801,,35,matters
screen,html.Screen,2_1_0_1_36,2021-04-24T12:38:55.380Z,,,,,,,,,,,,,,,,,53,,,,,,,,,,,,,,228.7089999783493,,response,,,,99,,,,,,,Space,keypress(Space),,,,,,,,"---- -- ----- -- ------ - ------- --- ----------<br>------------- ------ ------ ---- ---- ------- ----- -- ----<br>-------- ------- -- ---------- --- - --- ----- ----- ----<br>---- --- --- ----- --- ---- ---- ------- most, ---- -------<br>--- --- -- ----- -- --- ---- -- --- ---- -- ------ ------<br>--- ----- -- ----",173458.11499998672,173457.50999997836,173221.849,173226.60499997437,173228.801,173464.902,,36,"most,"
screen,html.Screen,2_1_0_1_37,2021-04-24T12:38:55.627Z,,,,,,,,,,,,,,,,,53,,,,,,,,,,,,,,239.69299995922484,,response,,,,99,,,,,,,Space,keypress(Space),,,,,,,,---- -- ----- -- ------ - ------- --- ----------<br>------------- ------ ------ ---- ---- ------- ----- -- ----<br>-------- ------- -- ---------- --- - --- ----- ----- ----<br>---- --- --- ----- --- ---- ---- ------- ----- it's -------<br>--- --- -- ----- -- --- ---- -- --- ---- -- ------ ------<br>--- ----- -- ----,173705.2599999588,173704.59499995923,173457.944,173458.1799999578,173464.902,173707.874,,37,it's
screen,html.Screen,2_1_0_1_38,2021-04-24T12:38:56.192Z,,,,,,,,,,,,,,,,,53,,,,,,,,,,,,,,562.3859999611159,,response,,,,99,,,,,,,Space,keypress(Space),,,,,,,,---- -- ----- -- ------ - ------- --- ----------<br>------------- ------ ------ ---- ---- ------- ----- -- ----<br>-------- ------- -- ---------- --- - --- ----- ----- ----<br>---- --- --- ----- --- ---- ---- ------- ----- ---- whether<br>--- --- -- ----- -- --- ---- -- --- ---- -- ------ ------<br>--- ----- -- ----,174270.78999998048,174270.25999996113,173701.123,173705.31499997014,173707.874,174277.419,,38,whether
screen,html.Screen,2_1_0_1_39,2021-04-24T12:38:56.553Z,,,,,,,,,,,,,,,,,53,,,,,,,,,,,,,,353.8559999924619,,response,,,,99,,,,,,,Space,keypress(Space),,,,,,,,---- -- ----- -- ------ - ------- --- ----------<br>------------- ------ ------ ---- ---- ------- ----- -- ----<br>-------- ------- -- ---------- --- - --- ----- ----- ----<br>---- --- --- ----- --- ---- ---- ------- ----- ---- -------<br>you --- -- ----- -- --- ---- -- --- ---- -- ------ ------<br>--- ----- -- ----,174631.85499998508,174631.27499999246,174270.451,174270.84499999182,174277.419,174638.516,,39,you
screen,html.Screen,2_1_0_1_40,2021-04-24T12:38:56.774Z,,,,,,,,,,,,,,,,,53,,,,,,,,,,,,,,213.9089999900316,,response,,,,99,,,,,,,Space,keypress(Space),,,,,,,,---- -- ----- -- ------ - ------- --- ----------<br>------------- ------ ------ ---- ---- ------- ----- -- ----<br>-------- ------- -- ---------- --- - --- ----- ----- ----<br>---- --- --- ----- --- ---- ---- ------- ----- ---- -------<br>--- are -- ----- -- --- ---- -- --- ---- -- ------ ------<br>--- ----- -- ----,174852.9199999757,174852.42499999003,174631.591,174631.90999999642,174638.516,174861.717,,40,are
screen,html.Screen,2_1_0_1_41,2021-04-24T12:38:56.965Z,,,,,,,,,,,,,,,,,53,,,,,,,,,,,,,,180.76799998356728,,response,,,,99,,,,,,,Space,keypress(Space),,,,,,,,---- -- ----- -- ------ - ------- --- ----------<br>------------- ------ ------ ---- ---- ------- ----- -- ----<br>-------- ------- -- ---------- --- - --- ----- ----- ----<br>---- --- --- ----- --- ---- ---- ------- ----- ---- -------<br>--- --- as ----- -- --- ---- -- --- ---- -- ------ ------<br>--- ----- -- ----,175043.1399999652,175042.48499998357,174846.884,174852.97999996692,174861.717,175048.235,,41,as
screen,html.Screen,2_1_0_1_42,2021-04-24T12:38:57.211Z,,,,,,,,,,,,,,,,,53,,,,,,,,,,,,,,240.47999997332226,,response,,,,99,,,,,,,Space,keypress(Space),,,,,,,,---- -- ----- -- ------ - ------- --- ----------<br>------------- ------ ------ ---- ---- ------- ----- -- ----<br>-------- ------- -- ---------- --- - --- ----- ----- ----<br>---- --- --- ----- --- ---- ---- ------- ----- ---- -------<br>--- --- -- close -- --- ---- -- --- ---- -- ------ ------<br>--- ----- -- ----,175289.53499998897,175288.7149999733,175041.341,175043.18999999668,175048.235,175291.4,,42,close
screen,html.Screen,2_1_0_1_43,2021-04-24T12:38:57.456Z,,,,,,,,,,,,,,,,,53,,,,,,,,,,,,,,242.13499999503256,,response,,,,99,,,,,,,Space,keypress(Space),,,,,,,,---- -- ----- -- ------ - ------- --- ----------<br>------------- ------ ------ ---- ---- ------- ----- -- ----<br>-------- ------- -- ---------- --- - --- ----- ----- ----<br>---- --- --- ----- --- ---- ---- ------- ----- ---- -------<br>--- --- -- ----- as --- ---- -- --- ---- -- ------ ------<br>--- ----- -- ----,175534.1250000056,175533.53499999503,175284.395,175289.60499999812,175291.4,175548.307,,43,as
screen,html.Screen,2_1_0_1_44,2021-04-24T12:38:57.738Z,,,,,,,,,,,,,,,,,53,,,,,,,,,,,,,,267.5129999597848,,response,,,,99,,,,,,,Space,keypress(Space),,,,,,,,---- -- ----- -- ------ - ------- --- ----------<br>------------- ------ ------ ---- ---- ------- ----- -- ----<br>-------- ------- -- ---------- --- - --- ----- ----- ----<br>---- --- --- ----- --- ---- ---- ------- ----- ---- -------<br>--- --- -- ----- -- you ---- -- --- ---- -- ------ ------<br>--- ----- -- ----,175816.5699999663,175815.8199999598,175541.47,175534.17999995872,175548.307,175819.133,,44,you
screen,html.Screen,2_1_0_1_45,2021-04-24T12:38:57.973Z,,,,,,,,,,,,,,,,,53,,,,,,,,,,,,,,231.33699995829375,,response,,,,99,,,,,,,Space,keypress(Space),,,,,,,,---- -- ----- -- ------ - ------- --- ----------<br>------------- ------ ------ ---- ---- ------- ----- -- ----<br>-------- ------- -- ---------- --- - --- ----- ----- ----<br>---- --- --- ----- --- ---- ---- ------- ----- ---- -------<br>--- --- -- ----- -- --- want -- --- ---- -- ------ ------<br>--- ----- -- ----,176051.23499996262,176050.4699999583,175812.187,175817.24999996368,175819.133,176055.194,,45,want
screen,html.Screen,2_1_0_1_46,2021-04-24T12:38:58.199Z,,,,,,,,,,,,,,,,,53,,,,,,,,,,,,,,221.50100000776,,response,,,,99,,,,,,,Space,keypress(Space),,,,,,,,---- -- ----- -- ------ - ------- --- ----------<br>------------- ------ ------ ---- ---- ------- ----- -- ----<br>-------- ------- -- ---------- --- - --- ----- ----- ----<br>---- --- --- ----- --- ---- ---- ------- ----- ---- -------<br>--- --- -- ----- -- --- ---- to --- ---- -- ------ ------<br>--- ----- -- ----,176277.2699999623,176276.69500000775,176048.295,176051.2849999941,176055.194,176284.422,,46,to
screen,html.Screen,2_1_0_1_47,2021-04-24T12:38:58.418Z,,,,,,,,,,,,,,,,,53,,,,,,,,,,,,,,211.34799997953814,,response,,,,99,,,,,,,Space,keypress(Space),,,,,,,,"---- -- ----- -- ------ - ------- --- ----------<br>------------- ------ ------ ---- ---- ------- ----- -- ----<br>-------- ------- -- ---------- --- - --- ----- ----- ----<br>---- --- --- ----- --- ---- ---- ------- ----- ---- -------<br>--- --- -- ----- -- --- ---- -- be, ---- -- ------ ------<br>--- ----- -- ----",176496.4799999725,176495.76999997953,176277.468,176277.35499996925,176284.422,176499.613,,47,"be,"
screen,html.Screen,2_1_0_1_48,2021-04-24T12:38:58.640Z,,,,,,,,,,,,,,,,,53,,,,,,,,,,,,,,218.59199998283293,,response,,,,99,,,,,,,Space,keypress(Space),,,,,,,,---- -- ----- -- ------ - ------- --- ----------<br>------------- ------ ------ ---- ---- ------- ----- -- ----<br>-------- ------- -- ---------- --- - --- ----- ----- ----<br>---- --- --- ----- --- ---- ---- ------- ----- ---- -------<br>--- --- -- ----- -- --- ---- -- --- even -- ------ ------<br>--- ----- -- ----,176718.76999997767,176718.20499998285,176492.751,176496.53499998385,176499.613,176721.856,,48,even
screen,html.Screen,2_1_0_1_49,2021-04-24T12:38:58.864Z,,,,,,,,,,,,,,,,,53,,,,,,,,,,,,,,219.93899999154382,,response,,,,99,,,,,,,Space,keypress(Space),,,,,,,,---- -- ----- -- ------ - ------- --- ----------<br>------------- ------ ------ ---- ---- ------- ----- -- ----<br>-------- ------- -- ---------- --- - --- ----- ----- ----<br>---- --- --- ----- --- ---- ---- ------- ----- ---- -------<br>--- --- -- ----- -- --- ---- -- --- ---- if ------ ------<br>--- ----- -- ----,176942.40999995964,176941.79499999154,176714.975,176718.824999989,176721.856,176944.184,,49,if
screen,html.Screen,2_1_0_1_50,2021-04-24T12:38:59.277Z,,,,,,,,,,,,,,,,,53,,,,,,,,,,,,,,410.81599998136517,,response,,,,99,,,,,,,Space,keypress(Space),,,,,,,,---- -- ----- -- ------ - ------- --- ----------<br>------------- ------ ------ ---- ---- ------- ----- -- ----<br>-------- ------- -- ---------- --- - --- ----- ----- ----<br>---- --- --- ----- --- ---- ---- ------- ----- ---- -------<br>--- --- -- ----- -- --- ---- -- --- ---- -- that's ------<br>--- ----- -- ----,177355.53000000073,177354.99999998137,176937.207,176942.45999999112,176944.184,177360.908,,50,that's
screen,html.Screen,2_1_0_1_51,2021-04-24T12:38:59.595Z,,,,,,,,,,,,,,,,,53,,,,,,,,,,,,,,311.6919999907841,,response,,,,99,,,,,,,Space,keypress(Space),,,,,,,,---- -- ----- -- ------ - ------- --- ----------<br>------------- ------ ------ ---- ---- ------- ----- -- ----<br>-------- ------- -- ---------- --- - --- ----- ----- ----<br>---- --- --- ----- --- ---- ---- ------- ----- ---- -------<br>--- --- -- ----- -- --- ---- -- --- ---- -- ------ really<br>--- ----- -- ----,177673.26999997022,177672.59999999078,177353.867,177355.58500001207,177360.908,177680.266,,51,really
screen,html.Screen,2_1_0_1_52,2021-04-24T12:38:59.963Z,,,,,,,,,,,,,,,,,53,,,,,,,,,,,,,,360.85400000895606,,response,,,,99,,,,,,,Space,keypress(Space),,,,,,,,---- -- ----- -- ------ - ------- --- ----------<br>------------- ------ ------ ---- ---- ------- ----- -- ----<br>-------- ------- -- ---------- --- - --- ----- ----- ----<br>---- --- --- ----- --- ---- ---- ------- ----- ---- -------<br>--- --- -- ----- -- --- ---- -- --- ---- -- ------ ------<br>not ----- -- ----,178041.91999998875,178041.12000000896,177673.321,177673.32499998156,177680.266,178048.296,,52,not
screen,html.Screen,2_1_0_1_53,2021-04-24T12:39:00.255Z,,,,,,,,,,,,,,,,,53,,,,,,,,,,,,,,284.96899996473803,,response,,,,99,,,,,,,Space,keypress(Space),,,,,,,,---- -- ----- -- ------ - ------- --- ----------<br>------------- ------ ------ ---- ---- ------- ----- -- ----<br>-------- ------- -- ---------- --- - --- ----- ----- ----<br>---- --- --- ----- --- ---- ---- ------- ----- ---- -------<br>--- --- -- ----- -- --- ---- -- --- ---- -- ------ ------<br>--- close -- ----,178333.7949999841,178333.26499996474,178041.383,178041.99499997776,178048.296,178340.089,,53,close
screen,html.Screen,2_1_0_1_54,2021-04-24T12:39:00.591Z,,,,,,,,,,,,,,,,,53,,,,,,,,,,,,,,328.6760000094364,,response,,,,99,,,,,,,Space,keypress(Space),,,,,,,,---- -- ----- -- ------ - ------- --- ----------<br>------------- ------ ------ ---- ---- ------- ----- -- ----<br>-------- ------- -- ---------- --- - --- ----- ----- ----<br>---- --- --- ----- --- ---- ---- ------- ----- ---- -------<br>--- --- -- ----- -- --- ---- -- --- ---- -- ------ ------<br>--- ----- at ----,178669.56000000937,178668.76500000944,178333.059,178333.84999999544,178340.089,178673.248,,54,at
screen,html.Screen,2_1_0_1_55,2021-04-24T12:39:00.999Z,,,,,,,,,,,,,,,,,53,,,,,,,,,,,,,,403.3119999576884,,response,,,,99,,,,,,,Space,keypress(Space),,,,,,,,---- -- ----- -- ------ - ------- --- ----------<br>------------- ------ ------ ---- ---- ------- ----- -- ----<br>-------- ------- -- ---------- --- - --- ----- ----- ----<br>---- --- --- ----- --- ---- ---- ------- ----- ---- -------<br>--- --- -- ----- -- --- ---- -- --- ---- -- ------ ------<br>--- ----- -- all.,179077.25999999093,179076.55999995768,178666.403,178669.60999998264,178673.248,179082.951,,55,all.
Item 99,flow.Loop,2_1_0_1,2021-04-24T12:39:00.999Z,,,,,,,,,,,,,,,,,,,,,,,,,,,,,,,20639.688999957667,,completion,,,,,A,,,,,,,,,,,silence,,,,,179077.36499997554,179076.55999995768,158429.953,158430.3850000142,158436.871,179082.951,,,
Question 1,html.Screen,2_1_0_2,2021-04-24T12:39:05.125Z,,,,,,,,,,,,,,,,,,,,,,,,,,,,true,FALSE,,4121.269000014174,,response,,,,99,A,,,,,,FALSE,click #choice-2,,,,silence,,,,,183204.74999997532,183204.22000001417,179076.054,179077.40499998908,179082.951,183208.083,,,
Question 2,html.Screen,2_1_0_3,2021-04-24T12:39:10.710Z,,,,,,,,,,,,,,,,,,,,,,,,,,,,true,TRUE,,5580.746999975847,,response,,,,99,A,,,,,,TRUE,click #choice-1,,,,silence,,,,,188789.43000000436,188788.82999997586,183201.242,183204.84999998007,183208.083,188791.688,,,
Item 99,flow.Sequence,2_1_0,2021-04-24T12:39:10.710Z,,,,,,,,,,,,,,,,,,,,,,,,,,,,,,,40351.21499997587,,completion,,,,,,,,,,,,,,,,,,,,,188789.5150000113,188788.82999997586,148422.739,148429.86999999266,148437.615,188791.688,,,
Holding screen,html.Screen,2_1_1_0,2021-04-24T12:39:20.706Z,,,,,,,,,,,,,,,,,,,,,,,,,,,,,,,10000.151000000013,,timeout,,,,,,,,,,,,,,,,,,,,,198785.32999998424,198784.984,188784.664,188789.56499998458,188791.688,198791.839,,,
screen,html.Screen,2_1_1_1_0,2021-04-24T12:39:21.747Z,,,,,,,,,,,,,,,,,54,,,,,,,,,,,,,,1033.4159999742697,,response,,,,100,,,,,,,Space,keypress(Space),,,,,,,,At --- ---- --- ------ ----- ------- ---- -- --- ------- --<br>------- ---------- ------ -- ----- -- ----- -- ---- ------<br>--- ----- --- --- ------ -------- ----- --- ------ ----- --<br>----- ----- ---------- --- --- ------ ------ ---- -- ------<br>------- --- ------ ----- --- ---- ------- -- ---- --- --<br>------- ------,199825.94999996945,199825.25499997428,198784.984,198785.3999999934,198791.839,199833.554,,0,At
screen,html.Screen,2_1_1_1_1,2021-04-24T12:39:22.076Z,,,,,,,,,,,,,,,,,54,,,,,,,,,,,,,,320.78600000822917,,response,,,,100,,,,,,,Space,keypress(Space),,,,,,,,-- the ---- --- ------ ----- ------- ---- -- --- ------- --<br>------- ---------- ------ -- ----- -- ----- -- ---- ------<br>--- ----- --- --- ------ -------- ----- --- ------ ----- --<br>----- ----- ---------- --- --- ------ ------ ---- -- ------<br>------- --- ------ ----- --- ---- ------- -- ---- --- --<br>------- ------,200154.89999996498,200154.34000000823,199819.583,199826.00000000093,199833.554,200159.869,,1,the
screen,html.Screen,2_1_1_1_2,2021-04-24T12:39:22.304Z,,,,,,,,,,,,,,,,,54,,,,,,,,,,,,,,222.92599998315563,,response,,,,100,,,,,,,Space,keypress(Space),,,,,,,,-- --- time --- ------ ----- ------- ---- -- --- ------- --<br>------- ---------- ------ -- ----- -- ----- -- ---- ------<br>--- ----- --- --- ------ -------- ----- --- ------ ----- --<br>----- ----- ---------- --- --- ------ ------ ---- -- ------<br>------- --- ------ ----- --- ---- ------- -- ---- --- --<br>------- ------,200383.3899999736,200382.79499998316,200153.108,200155.03999998327,200159.869,200389.107,,2,time
screen,html.Screen,2_1_1_1_3,2021-04-24T12:39:22.583Z,,,,,,,,,,,,,,,,,54,,,,,,,,,,,,,,273.0579999870097,,response,,,,100,,,,,,,Space,keypress(Space),,,,,,,,-- --- ---- the ------ ----- ------- ---- -- --- ------- --<br>------- ---------- ------ -- ----- -- ----- -- ---- ------<br>--- ----- --- --- ------ -------- ----- --- ------ ----- --<br>----- ----- ---------- --- --- ------ ------ ---- -- ------<br>------- --- ------ ----- --- ---- ------- -- ---- --- --<br>------- ------,200662.7499999595,200662.164999987,200382.141,200383.44499998493,200389.107,200666.825,,3,the
screen,html.Screen,2_1_1_1_4,2021-04-24T12:39:22.884Z,,,,,,,,,,,,,,,,,54,,,,,,,,,,,,,,295.8800000126357,,response,,,,100,,,,,,,Space,keypress(Space),,,,,,,,-- --- ---- --- French ----- ------- ---- -- --- ------- --<br>------- ---------- ------ -- ----- -- ----- -- ---- ------<br>--- ----- --- --- ------ -------- ----- --- ------ ----- --<br>----- ----- ---------- --- --- ------ ------ ---- -- ------<br>------- --- ------ ----- --- ---- ------- -- ---- --- --<br>------- ------,200963.38500001002,200962.70500001265,200659.916,200662.80499997083,200666.825,200965.501,,4,French
screen,html.Screen,2_1_1_1_5,2021-04-24T12:39:23.208Z,,,,,,,,,,,,,,,,,54,,,,,,,,,,,,,,321.60399999580113,,response,,,,100,,,,,,,Space,keypress(Space),,,,,,,,-- --- ---- --- ------ crown ------- ---- -- --- ------- --<br>------- ---------- ------ -- ----- -- ----- -- ---- ------<br>--- ----- --- --- ------ -------- ----- --- ------ ----- --<br>----- ----- ---------- --- --- ------ ------ ---- -- ------<br>------- --- ------ ----- --- ---- ------- -- ---- --- --<br>------- ------,201287.71000000415,201287.1049999958,200958.532,200963.44500000123,200965.501,201291.856,,5,crown
screen,html.Screen,2_1_1_1_6,2021-04-24T12:39:23.497Z,,,,,,,,,,,,,,,,,54,,,,,,,,,,,,,,283.82400000901544,,response,,,,100,,,,,,,Space,keypress(Space),,,,,,,,-- --- ---- --- ------ ----- secured ---- -- --- ------- --<br>------- ---------- ------ -- ----- -- ----- -- ---- ------<br>--- ----- --- --- ------ -------- ----- --- ------ ----- --<br>----- ----- ---------- --- --- ------ ------ ---- -- ------<br>------- --- ------ ----- --- ---- ------- -- ---- --- --<br>------- ------,201576.3600000064,201575.68000000902,201284.941,201287.76999999536,201291.856,201583.572,,6,secured
screen,html.Screen,2_1_1_1_7,2021-04-24T12:39:23.785Z,,,,,,,,,,,,,,,,,54,,,,,,,,,,,,,,280.6329999907757,,response,,,,100,,,,,,,Space,keypress(Space),,,,,,,,-- --- ---- --- ------ ----- ------- much -- --- ------- --<br>------- ---------- ------ -- ----- -- ----- -- ---- ------<br>--- ----- --- --- ------ -------- ----- --- ------ ----- --<br>----- ----- ---------- --- --- ------ ------ ---- -- ------<br>------- --- ------ ----- --- ---- ------- -- ---- --- --<br>------- ------,201864.80999999912,201864.20499999076,201569.722,201576.41499995952,201583.572,201868.178,,7,much
screen,html.Screen,2_1_1_1_8,2021-04-24T12:39:24.101Z,,,,,,,,,,,,,,,,,54,,,,,,,,,,,,,,311.2469999802415,,response,,,,100,,,,,,,Space,keypress(Space),,,,,,,,-- --- ---- --- ------ ----- ------- ---- of --- ------- --<br>------- ---------- ------ -- ----- -- ----- -- ---- ------<br>--- ----- --- --- ------ -------- ----- --- ------ ----- --<br>----- ----- ---------- --- --- ------ ------ ---- -- ------<br>------- --- ------ ----- --- ---- ------- -- ---- --- --<br>------- ------,202180.0649999641,202179.42499998026,201861.336,201864.86500001047,201868.178,202187.764,,8,of
screen,html.Screen,2_1_1_1_9,2021-04-24T12:39:24.402Z,,,,,,,,,,,,,,,,,54,,,,,,,,,,,,,,292.7360000051267,,response,,,,100,,,,,,,Space,keypress(Space),,,,,,,,-- --- ---- --- ------ ----- ------- ---- -- its ------- --<br>------- ---------- ------ -- ----- -- ----- -- ---- ------<br>--- ----- --- --- ------ -------- ----- --- ------ ----- --<br>----- ----- ---------- --- --- ------ ------ ---- -- ------<br>------- --- ------ ----- --- ---- ------- -- ---- --- --<br>------- ------,202481.12999997102,202480.50000000512,202173.884,202180.18999998458,202187.764,202486.299,,9,its
screen,html.Screen,2_1_1_1_10,2021-04-24T12:39:24.645Z,,,,,,,,,,,,,,,,,54,,,,,,,,,,,,,,237.6359999581473,,response,,,,100,,,,,,,Space,keypress(Space),,,,,,,,-- --- ---- --- ------ ----- ------- ---- -- --- revenue --<br>------- ---------- ------ -- ----- -- ----- -- ---- ------<br>--- ----- --- --- ------ -------- ----- --- ------ ----- --<br>----- ----- ---------- --- --- ------ ------ ---- -- ------<br>------- --- ------ ----- --- ---- ------- -- ---- --- --<br>------- ------,202724.45999999763,202723.93499995815,202479.405,202481.18999996223,202486.299,202729.403,,10,revenue
screen,html.Screen,2_1_1_1_11,2021-04-24T12:39:25.052Z,,,,,,,,,,,,,,,,,54,,,,,,,,,,,,,,401.7520000100485,,response,,,,100,,,,,,,Space,keypress(Space),,,,,,,,-- --- ---- --- ------ ----- ------- ---- -- --- ------- by<br>------- ---------- ------ -- ----- -- ----- -- ---- ------<br>--- ----- --- --- ------ -------- ----- --- ------ ----- --<br>----- ----- ---------- --- --- ------ ------ ---- -- ------<br>------- --- ------ ----- --- ---- ------- -- ---- --- --<br>------- ------,203131.7449999624,203131.15500001004,202722.469,202724.51500000898,202729.403,203139.154,,11,by
screen,html.Screen,2_1_1_1_12,2021-04-24T12:39:25.479Z,,,,,,,,,,,,,,,,,54,,,,,,,,,,,,,,418.20099999717786,,response,,,,100,,,,,,,Space,keypress(Space),,,,,,,,-- --- ---- --- ------ ----- ------- ---- -- --- ------- --<br>issuing ---------- ------ -- ----- -- ----- -- ---- ------<br>--- ----- --- --- ------ -------- ----- --- ------ ----- --<br>----- ----- ---------- --- --- ------ ------ ---- -- ------<br>------- --- ------ ----- --- ---- ------- -- ---- --- --<br>------- ------,203557.9349999898,203557.3549999972,203125.24,203131.8050000118,203139.154,203562.695,,12,issuing
screen,html.Screen,2_1_1_1_13,2021-04-24T12:39:25.780Z,,,,,,,,,,,,,,,,,54,,,,,,,,,,,,,,296.13999996270286,,response,,,,100,,,,,,,Space,keypress(Space),,,,,,,,-- --- ---- --- ------ ----- ------- ---- -- --- ------- --<br>------- government ------ -- ----- -- ----- -- ---- ------<br>--- ----- --- --- ------ -------- ----- --- ------ ----- --<br>----- ----- ---------- --- --- ------ ------ ---- -- ------<br>------- --- ------ ----- --- ---- ------- -- ---- --- --<br>------- ------,203859.31999998866,203858.8349999627,203555.807,203557.99000000115,203562.695,203861.317,,13,government
screen,html.Screen,2_1_1_1_14,2021-04-24T12:39:26.988Z,,,,,,,,,,,,,,,,,54,,,,,,,,,,,,,,1205.1280000040133,,response,,,,100,,,,,,,Space,keypress(Space),,,,,,,,-- --- ---- --- ------ ----- ------- ---- -- --- ------- --<br>------- ---------- bonds. -- ----- -- ----- -- ---- ------<br>--- ----- --- --- ------ -------- ----- --- ------ ----- --<br>----- ----- ---------- --- --- ------ ------ ---- -- ------<br>------- --- ------ ----- --- ---- ------- -- ---- --- --<br>------- ------,205066.99500000104,205066.44500000402,203854.404,203859.37999997986,203861.317,205069.612,,14,bonds.
screen,html.Screen,2_1_1_1_15,2021-04-24T12:39:27.352Z,,,,,,,,,,,,,,,,,54,,,,,,,,,,,,,,360.7079999849375,,response,,,,100,,,,,,,Space,keypress(Space),,,,,,,,-- --- ---- --- ------ ----- ------- ---- -- --- ------- --<br>------- ---------- ------ In ----- -- ----- -- ---- ------<br>--- ----- --- --- ------ -------- ----- --- ------ ----- --<br>----- ----- ---------- --- --- ------ ------ ---- -- ------<br>------- --- ------ ----- --- ---- ------- -- ---- --- --<br>------- ------,205430.9249999933,205430.31999998493,205062.711,205067.0500000124,205069.612,205437.851,,15,In
screen,html.Screen,2_1_1_1_16,2021-04-24T12:39:28.775Z,,,,,,,,,,,,,,,,,54,,,,,,,,,,,,,,1416.01400001187,,response,,,,100,,,,,,,Space,keypress(Space),,,,,,,,"-- --- ---- --- ------ ----- ------- ---- -- --- ------- --<br>------- ---------- ------ -- 1727, -- ----- -- ---- ------<br>--- ----- --- --- ------ -------- ----- --- ------ ----- --<br>----- ----- ---------- --- --- ------ ------ ---- -- ------<br>------- --- ------ ----- --- ---- ------- -- ---- --- --<br>------- ------",206854.50999997556,206853.86500001187,205430.859,205430.9849999845,205437.851,206861.432,,16,"1727,"
screen,html.Screen,2_1_1_1_17,2021-04-24T12:39:29.196Z,,,,,,,,,,,,,,,,,54,,,,,,,,,,,,,,413.2479999731586,,response,,,,100,,,,,,,Space,keypress(Space),,,,,,,,-- --- ---- --- ------ ----- ------- ---- -- --- ------- --<br>------- ---------- ------ -- ----- in ----- -- ---- ------<br>--- ----- --- --- ------ -------- ----- --- ------ ----- --<br>----- ----- ---------- --- --- ------ ------ ---- -- ------<br>------- --- ------ ----- --- ---- ------- -- ---- --- --<br>------- ------,207275.45499999542,207274.67999997316,206854.398,206854.5649999869,206861.432,207278.05,,17,in
screen,html.Screen,2_1_1_1_18,2021-04-24T12:39:30.066Z,,,,,,,,,,,,,,,,,54,,,,,,,,,,,,,,866.9299999827635,,response,,,,100,,,,,,,Space,keypress(Space),,,,,,,,-- --- ---- --- ------ ----- ------- ---- -- --- ------- --<br>------- ---------- ------ -- ----- -- order -- ---- ------<br>--- ----- --- --- ------ -------- ----- --- ------ ----- --<br>----- ----- ---------- --- --- ------ ------ ---- -- ------<br>------- --- ------ ----- --- ---- ------- -- ---- --- --<br>------- ------,208145.51999996183,208144.97999998275,207271.154,207275.5049999687,207278.05,208153.169,,18,order
screen,html.Screen,2_1_1_1_19,2021-04-24T12:39:30.297Z,,,,,,,,,,,,,,,,,54,,,,,,,,,,,,,,222.43600000836886,,response,,,,100,,,,,,,Space,keypress(Space),,,,,,,,-- --- ---- --- ------ ----- ------- ---- -- --- ------- --<br>------- ---------- ------ -- ----- -- ----- to ---- ------<br>--- ----- --- --- ------ -------- ----- --- ------ ----- --<br>----- ----- ---------- --- --- ------ ------ ---- -- ------<br>------- --- ------ ----- --- ---- ------- -- ---- --- --<br>------- ------,208376.1499999673,208375.60500000836,208139.184,208145.57499997318,208153.169,208382.231,,19,to
screen,html.Screen,2_1_1_1_20,2021-04-24T12:39:30.517Z,,,,,,,,,,,,,,,,,54,,,,,,,,,,,,,,213.0490000086429,,response,,,,100,,,,,,,Space,keypress(Space),,,,,,,,-- --- ---- --- ------ ----- ------- ---- -- --- ------- --<br>------- ---------- ------ -- ----- -- ----- -- save ------<br>--- ----- --- --- ------ -------- ----- --- ------ ----- --<br>----- ----- ---------- --- --- ------ ------ ---- -- ------<br>------- --- ------ ----- --- ---- ------- -- ---- --- --<br>------- ------,208595.84500000346,208595.28000000864,208375.38,208376.1999999988,208382.231,208597.601,,20,save
screen,html.Screen,2_1_1_1_21,2021-04-24T12:39:31.109Z,,,,,,,,,,,,,,,,,54,,,,,,,,,,,,,,590.268999965192,,response,,,,100,,,,,,,Space,keypress(Space),,,,,,,,"-- --- ---- --- ------ ----- ------- ---- -- --- ------- --<br>------- ---------- ------ -- ----- -- ----- -- ---- money,<br>--- ----- --- --- ------ -------- ----- --- ------ ----- --<br>----- ----- ---------- --- --- ------ ------ ---- -- ------<br>------- --- ------ ----- --- ---- ------- -- ---- --- --<br>------- ------",209188.67999996291,209187.8699999652,208590.661,208595.8999999566,208597.601,209194.807,,21,"money,"
screen,html.Screen,2_1_1_1_22,2021-04-24T12:39:31.705Z,,,,,,,,,,,,,,,,,54,,,,,,,,,,,,,,589.3929999945976,,response,,,,100,,,,,,,Space,keypress(Space),,,,,,,,-- --- ---- --- ------ ----- ------- ---- -- --- ------- --<br>------- ---------- ------ -- ----- -- ----- -- ---- ------<br>the ----- --- --- ------ -------- ----- --- ------ ----- --<br>----- ----- ---------- --- --- ------ ------ ---- -- ------<br>------- --- ------ ----- --- ---- ------- -- ---- --- --<br>------- ------,209784.8149999627,209784.1999999946,209187.851,209188.73499997426,209194.807,209792.154,,22,the
screen,html.Screen,2_1_1_1_23,2021-04-24T12:39:32.050Z,,,,,,,,,,,,,,,,,54,,,,,,,,,,,,,,336.4509999762231,,response,,,,100,,,,,,,Space,keypress(Space),,,,,,,,-- --- ---- --- ------ ----- ------- ---- -- --- ------- --<br>------- ---------- ------ -- ----- -- ----- -- ---- ------<br>--- state --- --- ------ -------- ----- --- ------ ----- --<br>----- ----- ---------- --- --- ------ ------ ---- -- ------<br>------- --- ------ ----- --- ---- ------- -- ---- --- --<br>------- ------,210129.19999996666,210128.60499997623,209785.08,209784.86999997403,209792.154,210132.288,,23,state
screen,html.Screen,2_1_1_1_24,2021-04-24T12:39:32.421Z,,,,,,,,,,,,,,,,,54,,,,,,,,,,,,,,367.6019999773125,,response,,,,100,,,,,,,Space,keypress(Space),,,,,,,,-- --- ---- --- ------ ----- ------- ---- -- --- ------- --<br>------- ---------- ------ -- ----- -- ----- -- ---- ------<br>--- ----- cut --- ------ -------- ----- --- ------ ----- --<br>----- ----- ---------- --- --- ------ ------ ---- -- ------<br>------- --- ------ ----- --- ---- ------- -- ---- --- --<br>------- ------,210500.5050000036,210499.8899999773,210125.4,210129.25999995787,210132.288,210507.366,,24,cut
screen,html.Screen,2_1_1_1_25,2021-04-24T12:39:32.777Z,,,,,,,,,,,,,,,,,54,,,,,,,,,,,,,,348.2889999629988,,response,,,,100,,,,,,,Space,keypress(Space),,,,,,,,-- --- ---- --- ------ ----- ------- ---- -- --- ------- --<br>------- ---------- ------ -- ----- -- ----- -- ---- ------<br>--- ----- --- the ------ -------- ----- --- ------ ----- --<br>----- ----- ---------- --- --- ------ ------ ---- -- ------<br>------- --- ------ ----- --- ---- ------- -- ---- --- --<br>------- ------,210856.31000000285,210855.654999963,210500.435,210500.55999995675,210507.366,210861.531,,25,the
screen,html.Screen,2_1_1_1_26,2021-04-24T12:39:33.169Z,,,,,,,,,,,,,,,,,54,,,,,,,,,,,,,,385.9639999596111,,response,,,,100,,,,,,,Space,keypress(Space),,,,,,,,-- --- ---- --- ------ ----- ------- ---- -- --- ------- --<br>------- ---------- ------ -- ----- -- ----- -- ---- ------<br>--- ----- --- --- bonds' -------- ----- --- ------ ----- --<br>----- ----- ---------- --- --- ------ ------ ---- -- ------<br>------- --- ------ ----- --- ---- ------- -- ---- --- --<br>------- ------,211248.11499996576,211247.4949999596,210854.595,210856.3650000142,210861.531,211250.327,,26,bonds'
screen,html.Screen,2_1_1_1_27,2021-04-24T12:39:33.560Z,,,,,,,,,,,,,,,,,54,,,,,,,,,,,,,,388.4729999569827,,response,,,,100,,,,,,,Space,keypress(Space),,,,,,,,-- --- ---- --- ------ ----- ------- ---- -- --- ------- --<br>------- ---------- ------ -- ----- -- ----- -- ---- ------<br>--- ----- --- --- ------ interest ----- --- ------ ----- --<br>----- ----- ---------- --- --- ------ ------ ---- -- ------<br>------- --- ------ ----- --- ---- ------- -- ---- --- --<br>------- ------,211639.3199999584,211638.79999995697,211243.446,211248.1699999771,211250.327,211646.329,,27,interest
screen,html.Screen,2_1_1_1_28,2021-04-24T12:39:33.980Z,,,,,,,,,,,,,,,,,54,,,,,,,,,,,,,,412.03600000441656,,response,,,,100,,,,,,,Space,keypress(Space),,,,,,,,-- --- ---- --- ------ ----- ------- ---- -- --- ------- --<br>------- ---------- ------ -- ----- -- ----- -- ---- ------<br>--- ----- --- --- ------ -------- rate. --- ------ ----- --<br>----- ----- ---------- --- --- ------ ------ ---- -- ------<br>------- --- ------ ----- --- ---- ------- -- ---- --- --<br>------- ------,212058.8899999857,212058.3650000044,211639.313,211639.3800000078,211646.329,212062.84,,28,rate.
screen,html.Screen,2_1_1_1_29,2021-04-24T12:39:34.442Z,,,,,,,,,,,,,,,,,54,,,,,,,,,,,,,,458.23999997679493,,response,,,,100,,,,,,,Space,keypress(Space),,,,,,,,-- --- ---- --- ------ ----- ------- ---- -- --- ------- --<br>------- ---------- ------ -- ----- -- ----- -- ---- ------<br>--- ----- --- --- ------ -------- ----- The ------ ----- --<br>----- ----- ---------- --- --- ------ ------ ---- -- ------<br>------- --- ------ ----- --- ---- ------- -- ---- --- --<br>------- ------,212521.68999996502,212521.0799999768,212055.984,212058.94499999704,212062.84,212528.252,,29,The
screen,html.Screen,2_1_1_1_30,2021-04-24T12:39:36.266Z,,,,,,,,,,,,,,,,,54,,,,,,,,,,,,,,1816.387999966595,,response,,,,100,,,,,,,Space,keypress(Space),,,,,,,,-- --- ---- --- ------ ----- ------- ---- -- --- ------- --<br>------- ---------- ------ -- ----- -- ----- -- ---- ------<br>--- ----- --- --- ------ -------- ----- --- market ----- --<br>----- ----- ---------- --- --- ------ ------ ---- -- ------<br>------- --- ------ ----- --- ---- ------- -- ---- --- --<br>------- ------,214345.36499995738,214344.6399999666,212521.26,212521.7549999943,212528.252,214347.582,,30,market
screen,html.Screen,2_1_1_1_31,2021-04-24T12:39:36.814Z,,,,,,,,,,,,,,,,,54,,,,,,,,,,,,,,544.8180000115535,,response,,,,100,,,,,,,Space,keypress(Space),,,,,,,,-- --- ---- --- ------ ----- ------- ---- -- --- ------- --<br>------- ---------- ------ -- ----- -- ----- -- ---- ------<br>--- ----- --- --- ------ -------- ----- --- ------ value --<br>----- ----- ---------- --- --- ------ ------ ---- -- ------<br>------- --- ------ ----- --- ---- ------- -- ---- --- --<br>------- ------,214892.99500000197,214892.40000001155,214340.636,214345.41999996873,214347.582,214896.299,,31,value
screen,html.Screen,2_1_1_1_32,2021-04-24T12:39:37.151Z,,,,,,,,,,,,,,,,,54,,,,,,,,,,,,,,333.2209999935003,,response,,,,100,,,,,,,Space,keypress(Space),,,,,,,,-- --- ---- --- ------ ----- ------- ---- -- --- ------- --<br>------- ---------- ------ -- ----- -- ----- -- ---- ------<br>--- ----- --- --- ------ -------- ----- --- ------ ----- of<br>----- ----- ---------- --- --- ------ ------ ---- -- ------<br>------- --- ------ ----- --- ---- ------- -- ---- --- --<br>------- ------,215230.12999998173,215229.5199999935,214889.37,214893.09500000672,214896.299,215236.544,,32,of
screen,html.Screen,2_1_1_1_33,2021-04-24T12:39:38.053Z,,,,,,,,,,,,,,,,,54,,,,,,,,,,,,,,895.2709999715444,,response,,,,100,,,,,,,Space,keypress(Space),,,,,,,,-- --- ---- --- ------ ----- ------- ---- -- --- ------- --<br>------- ---------- ------ -- ----- -- ----- -- ---- ------<br>--- ----- --- --- ------ -------- ----- --- ------ ----- --<br>these ----- ---------- --- --- ------ ------ ---- -- ------<br>------- --- ------ ----- --- ---- ------- -- ---- --- --<br>------- ------,216132.50000000698,216131.81499997154,215229.665,215230.19999999087,215236.544,216139.439,,33,these
screen,html.Screen,2_1_1_1_34,2021-04-24T12:39:38.318Z,,,,,,,,,,,,,,,,,54,,,,,,,,,,,,,,257.46099999244325,,response,,,,100,,,,,,,Space,keypress(Space),,,,,,,,-- --- ---- --- ------ ----- ------- ---- -- --- ------- --<br>------- ---------- ------ -- ----- -- ----- -- ---- ------<br>--- ----- --- --- ------ -------- ----- --- ------ ----- --<br>----- bonds ---------- --- --- ------ ------ ---- -- ------<br>------- --- ------ ----- --- ---- ------- -- ---- --- --<br>------- ------,216397.62499998324,216396.89999999246,216132.419,216132.55499996012,216139.439,216403.271,,34,bonds
screen,html.Screen,2_1_1_1_35,2021-04-24T12:39:38.700Z,,,,,,,,,,,,,,,,,54,,,,,,,,,,,,,,375.37899999291403,,response,,,,100,,,,,,,Space,keypress(Space),,,,,,,,"-- --- ---- --- ------ ----- ------- ---- -- --- ------- --<br>------- ---------- ------ -- ----- -- ----- -- ---- ------<br>--- ----- --- --- ------ -------- ----- --- ------ ----- --<br>----- ----- plummeted, --- --- ------ ------ ---- -- ------<br>------- --- ------ ----- --- ---- ------- -- ---- --- --<br>------- ------",216779.18499999214,216778.64999999292,216396.366,216397.67999999458,216403.271,216785.254,,35,"plummeted,"
screen,html.Screen,2_1_1_1_36,2021-04-24T12:39:39.153Z,,,,,,,,,,,,,,,,,54,,,,,,,,,,,,,,446.79599999144557,,response,,,,100,,,,,,,Space,keypress(Space),,,,,,,,-- --- ---- --- ------ ----- ------- ---- -- --- ------- --<br>------- ---------- ------ -- ----- -- ----- -- ---- ------<br>--- ----- --- --- ------ -------- ----- --- ------ ----- --<br>----- ----- ---------- and --- ------ ------ ---- -- ------<br>------- --- ------ ----- --- ---- ------- -- ---- --- --<br>------- ------,217232.64499998186,217232.04999999143,216778.233,216779.24000000348,216785.254,217236.601,,36,and
screen,html.Screen,2_1_1_1_37,2021-04-24T12:39:39.582Z,,,,,,,,,,,,,,,,,54,,,,,,,,,,,,,,423.58399998609093,,response,,,,100,,,,,,,Space,keypress(Space),,,,,,,,-- --- ---- --- ------ ----- ------- ---- -- --- ------- --<br>------- ---------- ------ -- ----- -- ----- -- ---- ------<br>--- ----- --- --- ------ -------- ----- --- ------ ----- --<br>----- ----- ---------- --- the ------ ------ ---- -- ------<br>------- --- ------ ----- --- ---- ------- -- ---- --- --<br>------- ------,217660.9349999926,217660.1849999861,217229.699,217232.6999999932,217236.601,217667.221,,37,the
screen,html.Screen,2_1_1_1_38,2021-04-24T12:39:40.131Z,,,,,,,,,,,,,,,,,54,,,,,,,,,,,,,,542.9189999810478,,response,,,,100,,,,,,,Space,keypress(Space),,,,,,,,-- --- ---- --- ------ ----- ------- ---- -- --- ------- --<br>------- ---------- ------ -- ----- -- ----- -- ---- ------<br>--- ----- --- --- ------ -------- ----- --- ------ ----- --<br>----- ----- ---------- --- --- market ------ ---- -- ------<br>------- --- ------ ----- --- ---- ------- -- ---- --- --<br>------- ------,218210.7449999894,218210.13999998104,217660.266,217660.98499996588,217667.221,218215.743,,38,market
screen,html.Screen,2_1_1_1_39,2021-04-24T12:39:40.511Z,,,,,,,,,,,,,,,,,54,,,,,,,,,,,,,,374.18699995827046,,response,,,,100,,,,,,,Space,keypress(Space),,,,,,,,-- --- ---- --- ------ ----- ------- ---- -- --- ------- --<br>------- ---------- ------ -- ----- -- ----- -- ---- ------<br>--- ----- --- --- ------ -------- ----- --- ------ ----- --<br>----- ----- ---------- --- --- ------ became ---- -- ------<br>------- --- ------ ----- --- ---- ------- -- ---- --- --<br>------- ------,218590.5550000025,218589.92999995826,218208.9,218210.80999996047,218215.743,218597.832,,39,became
screen,html.Screen,2_1_1_1_40,2021-04-24T12:39:40.947Z,,,,,,,,,,,,,,,,,54,,,,,,,,,,,,,,428.26299997925526,,response,,,,100,,,,,,,Space,keypress(Space),,,,,,,,-- --- ---- --- ------ ----- ------- ---- -- --- ------- --<br>------- ---------- ------ -- ----- -- ----- -- ---- ------<br>--- ----- --- --- ------ -------- ----- --- ------ ----- --<br>----- ----- ---------- --- --- ------ ------ wary -- ------<br>------- --- ------ ----- --- ---- ------- -- ---- --- --<br>------- ------,219026.8250000081,219026.09499997925,218583.901,218590.60499997577,218597.832,219028.377,,40,wary
screen,html.Screen,2_1_1_1_41,2021-04-24T12:39:42.058Z,,,,,,,,,,,,,,,,,54,,,,,,,,,,,,,,1108.3929999827815,,response,,,,100,,,,,,,Space,keypress(Space),,,,,,,,-- --- ---- --- ------ ----- ------- ---- -- --- ------- --<br>------- ---------- ------ -- ----- -- ----- -- ---- ------<br>--- ----- --- --- ------ -------- ----- --- ------ ----- --<br>----- ----- ---------- --- --- ------ ------ ---- of ------<br>------- --- ------ ----- --- ---- ------- -- ---- --- --<br>------- ------,220137.37999997102,220136.7699999828,219021.402,219026.87999996124,219028.377,220139.555,,41,of
screen,html.Screen,2_1_1_1_42,2021-04-24T12:39:42.951Z,,,,,,,,,,,,,,,,,54,,,,,,,,,,,,,,889.9399999661255,,response,,,,100,,,,,,,Space,keypress(Space),,,,,,,,-- --- ---- --- ------ ----- ------- ---- -- --- ------- --<br>------- ---------- ------ -- ----- -- ----- -- ---- ------<br>--- ----- --- --- ------ -------- ----- --- ------ ----- --<br>----- ----- ---------- --- --- ------ ------ ---- -- French<br>------- --- ------ ----- --- ---- ------- -- ---- --- --<br>------- ------,221030.2049999591,221029.49499996612,220132.479,220137.43499998236,220139.555,221035.247,,42,French
screen,html.Screen,2_1_1_1_43,2021-04-24T12:39:43.476Z,,,,,,,,,,,,,,,,,54,,,,,,,,,,,,,,518.9129999996803,,response,,,,100,,,,,,,Space,keypress(Space),,,,,,,,-- --- ---- --- ------ ----- ------- ---- -- --- ------- --<br>------- ---------- ------ -- ----- -- ----- -- ---- ------<br>--- ----- --- --- ------ -------- ----- --- ------ ----- --<br>----- ----- ---------- --- --- ------ ------ ---- -- ------<br>credit. --- ------ ----- --- ---- ------- -- ---- --- --<br>------- ------,221554.85499999486,221554.15999999968,221028.346,221030.25999997044,221035.247,221556.256,,43,credit.
screen,html.Screen,2_1_1_1_44,2021-04-24T12:39:44.009Z,,,,,,,,,,,,,,,,,54,,,,,,,,,,,,,,531.6540000020177,,response,,,,100,,,,,,,Space,keypress(Space),,,,,,,,-- --- ---- --- ------ ----- ------- ---- -- --- ------- --<br>------- ---------- ------ -- ----- -- ----- -- ---- ------<br>--- ----- --- --- ------ -------- ----- --- ------ ----- --<br>----- ----- ---------- --- --- ------ ------ ---- -- ------<br>------- The ------ ----- --- ---- ------- -- ---- --- --<br>------- ------,222088.63000001293,222087.910000002,221549.302,221554.9100000062,221556.256,222090.939,,44,The
screen,html.Screen,2_1_1_1_45,2021-04-24T12:39:44.751Z,,,,,,,,,,,,,,,,,54,,,,,,,,,,,,,,739.3409999946598,,response,,,,100,,,,,,,Space,keypress(Space),,,,,,,,-- --- ---- --- ------ ----- ------- ---- -- --- ------- --<br>------- ---------- ------ -- ----- -- ----- -- ---- ------<br>--- ----- --- --- ------ -------- ----- --- ------ ----- --<br>----- ----- ---------- --- --- ------ ------ ---- -- ------<br>------- --- French ----- --- ---- ------- -- ---- --- --<br>------- ------,222830.80499997595,222830.27999999467,222083.936,222088.68499996606,222090.939,222833.888,,45,French
screen,html.Screen,2_1_1_1_46,2021-04-24T12:39:45.244Z,,,,,,,,,,,,,,,,,54,,,,,,,,,,,,,,488.55199995989096,,response,,,,100,,,,,,,Space,keypress(Space),,,,,,,,-- --- ---- --- ------ ----- ------- ---- -- --- ------- --<br>------- ---------- ------ -- ----- -- ----- -- ---- ------<br>--- ----- --- --- ------ -------- ----- --- ------ ----- --<br>----- ----- ---------- --- --- ------ ------ ---- -- ------<br>------- --- ------ state --- ---- ------- -- ---- --- --<br>------- ------,223323.21499998216,223322.4399999599,222826.986,222830.8599999873,222833.888,223326.938,,46,state
screen,html.Screen,2_1_1_1_47,2021-04-24T12:39:45.542Z,,,,,,,,,,,,,,,,,54,,,,,,,,,,,,,,293.24700000704615,,response,,,,100,,,,,,,Space,keypress(Space),,,,,,,,-- --- ---- --- ------ ----- ------- ---- -- --- ------- --<br>------- ---------- ------ -- ----- -- ----- -- ---- ------<br>--- ----- --- --- ------ -------- ----- --- ------ ----- --<br>----- ----- ---------- --- --- ------ ------ ---- -- ------<br>------- --- ------ ----- was ---- ------- -- ---- --- --<br>------- ------,223620.88999996195,223620.18500000704,223320.099,223323.26500001363,223326.938,223625.712,,47,was
screen,html.Screen,2_1_1_1_48,2021-04-24T12:39:46.350Z,,,,,,,,,,,,,,,,,54,,,,,,,,,,,,,,802.9279999982682,,response,,,,100,,,,,,,Space,keypress(Space),,,,,,,,-- --- ---- --- ------ ----- ------- ---- -- --- ------- --<br>------- ---------- ------ -- ----- -- ----- -- ---- ------<br>--- ----- --- --- ------ -------- ----- --- ------ ----- --<br>----- ----- ---------- --- --- ------ ------ ---- -- ------<br>------- --- ------ ----- --- left ------- -- ---- --- --<br>------- ------,224429.4050000026,224428.63999999827,223618.792,223620.9449999733,223625.712,224431.263,,48,left
screen,html.Screen,2_1_1_1_49,2021-04-24T12:39:46.847Z,,,,,,,,,,,,,,,,,54,,,,,,,,,,,,,,494.29199996523676,,response,,,,100,,,,,,,Space,keypress(Space),,,,,,,,-- --- ---- --- ------ ----- ------- ---- -- --- ------- --<br>------- ---------- ------ -- ----- -- ----- -- ---- ------<br>--- ----- --- --- ------ -------- ----- --- ------ ----- --<br>----- ----- ---------- --- --- ------ ------ ---- -- ------<br>------- --- ------ ----- --- ---- without -- ---- --- --<br>------- ------,224926.1599999736,224925.55499996524,224424.25,224429.46000001393,224431.263,224931.162,,49,without
screen,html.Screen,2_1_1_1_50,2021-04-24T12:39:47.249Z,,,,,,,,,,,,,,,,,54,,,,,,,,,,,,,,396.3279999960214,,response,,,,100,,,,,,,Space,keypress(Space),,,,,,,,-- --- ---- --- ------ ----- ------- ---- -- --- ------- --<br>------- ---------- ------ -- ----- -- ----- -- ---- ------<br>--- ----- --- --- ------ -------- ----- --- ------ ----- --<br>----- ----- ---------- --- --- ------ ------ ---- -- ------<br>------- --- ------ ----- --- ---- ------- an ---- --- --<br>------- ------,225328.21000000695,225327.48999999603,224924.291,224926.21499998495,224931.162,225334.041,,50,an
screen,html.Screen,2_1_1_1_51,2021-04-24T12:39:47.592Z,,,,,,,,,,,,,,,,,54,,,,,,,,,,,,,,336.77899999936926,,response,,,,100,,,,,,,Space,keypress(Space),,,,,,,,-- --- ---- --- ------ ----- ------- ---- -- --- ------- --<br>------- ---------- ------ -- ----- -- ----- -- ---- ------<br>--- ----- --- --- ------ -------- ----- --- ------ ----- --<br>----- ----- ---------- --- --- ------ ------ ---- -- ------<br>------- --- ------ ----- --- ---- ------- -- easy --- --<br>------- ------,225671.47999996087,225670.81999999937,225327.21,225328.2799999579,225334.041,225674.238,,51,easy
screen,html.Screen,2_1_1_1_52,2021-04-24T12:39:47.893Z,,,,,,,,,,,,,,,,,54,,,,,,,,,,,,,,297.6620000040857,,response,,,,100,,,,,,,Space,keypress(Space),,,,,,,,-- --- ---- --- ------ ----- ------- ---- -- --- ------- --<br>------- ---------- ------ -- ----- -- ----- -- ---- ------<br>--- ----- --- --- ------ -------- ----- --- ------ ----- --<br>----- ----- ---------- --- --- ------ ------ ---- -- ------<br>------- --- ------ ----- --- ---- ------- -- ---- way --<br>------- ------,225972.47499995865,225971.9000000041,225667.385,225671.54000001028,225674.238,225979.928,,52,way
screen,html.Screen,2_1_1_1_53,2021-04-24T12:39:48.260Z,,,,,,,,,,,,,,,,,54,,,,,,,,,,,,,,358.41699999646517,,response,,,,100,,,,,,,Space,keypress(Space),,,,,,,,-- --- ---- --- ------ ----- ------- ---- -- --- ------- --<br>------- ---------- ------ -- ----- -- ----- -- ---- ------<br>--- ----- --- --- ------ -------- ----- --- ------ ----- --<br>----- ----- ---------- --- --- ------ ------ ---- -- ------<br>------- --- ------ ----- --- ---- ------- -- ---- --- of<br>------- ------,226338.9399999869,226338.34499999648,225965.998,225972.53999998793,225979.928,226340.883,,53,of
screen,html.Screen,2_1_1_1_54,2021-04-24T12:39:48.666Z,,,,,,,,,,,,,,,,,54,,,,,,,,,,,,,,403.7370000122173,,response,,,,100,,,,,,,Space,keypress(Space),,,,,,,,-- --- ---- --- ------ ----- ------- ---- -- --- ------- --<br>------- ---------- ------ -- ----- -- ----- -- ---- ------<br>--- ----- --- --- ------ -------- ----- --- ------ ----- --<br>----- ----- ---------- --- --- ------ ------ ---- -- ------<br>------- --- ------ ----- --- ---- ------- -- ---- --- --<br>raising ------,226745.3899999964,226744.62000001222,226334.124,226338.9999999781,226340.883,226750.642,,54,raising
screen,html.Screen,2_1_1_1_55,2021-04-24T12:39:49.285Z,,,,,,,,,,,,,,,,,54,,,,,,,,,,,,,,612.8080000043847,,response,,,,100,,,,,,,Space,keypress(Space),,,,,,,,-- --- ---- --- ------ ----- ------- ---- -- --- ------- --<br>------- ---------- ------ -- ----- -- ----- -- ---- ------<br>--- ----- --- --- ------ -------- ----- --- ------ ----- --<br>----- ----- ---------- --- --- ------ ------ ---- -- ------<br>------- --- ------ ----- --- ---- ------- -- ---- --- --<br>------- money.,227364.00499998126,227363.45000000438,226743.792,226745.4499999876,226750.642,227368.715,,55,money.
Item 100,flow.Loop,2_1_1_1,2021-04-24T12:39:49.285Z,,,,,,,,,,,,,,,,,,,,,,,,,,,,,,,28571.61100000437,,completion,,,,,A,,,,,,,,,,,silence,,,,,227364.104999986,227363.45000000438,198784.984,198785.3799999575,198791.839,227368.715,,,
Question 1,html.Screen,2_1_1_2,2021-04-24T12:39:51.755Z,,,,,,,,,,,,,,,,,,,,,,,,,,,,true,TRUE,,2465.4999999807624,,response,,,,100,A,,,,,,TRUE,click #choice-1,,,,silence,,,,,229834.79499997338,229834.21499998076,227361.855,227364.14999997942,227368.715,229841.102,,,
Question 2,html.Screen,2_1_1_3,2021-04-24T12:39:54.443Z,,,,,,,,,,,,,,,,,,,,,,,,,,,,true,FALSE,,2681.1929999733693,,response,,,,100,A,,,,,,FALSE,click #choice-2,,,,silence,,,,,232522.78999995906,232522.29499997338,229834.227,229834.8699999624,229841.102,232528.591,,,
Item 100,flow.Sequence,2_1_1,2021-04-24T12:39:54.444Z,,,,,,,,,,,,,,,,,,,,,,,,,,,,,,,43730.60699997339,,completion,,,,,,,,,,,,,,,,,,,,,232522.98000000883,232522.29499997338,188784.664,188789.54999998678,188791.688,232528.591,,,
End of Practice,html.Page,2_1_2,2021-04-24T12:39:58.326Z,,,,,,,,,,,,,,,,,,,,,,,,,,,,,,,3876.1489999690384,,form submission,,,,,,,,,,,,,,,,,,,,,236404.89499998512,236404.73999996902,232521.724,232523.0149999843,232528.591,236410.666,,,
Practice,flow.Sequence,2_1,2021-04-24T12:39:58.326Z,,,,,,,,,,,,,,,,,,,,,,,,,,,,,,,87967.12499996903,,completion,,,,,,,,,,,,,,,,,,,,,236404.9750000122,236404.73999996902,148422.739,148429.8499999568,148437.615,236410.666,,,
Trap_instruction,html.Page,2_2_0,2021-04-24T12:40:01.147Z,,,,,,,,,,,,,,,,,,,,,,,,,,,,,,,2815.7839999582793,,form submission,,,,,,,,,,,,,,,,,,,,,239226.60499997437,239226.44999995828,236403.743,236405.02999996534,236410.666,239230.226,,,
trap_trial,html.Screen,2_2_1,2021-04-24T12:40:06.631Z,,,,,,,,,,,,,,,,,,,,,,,,,,,,true,1,,5478.8339999646705,,response,,,,,,,,,,,1,click #choice-1,,,,,,,,,244709.4849999994,244709.05999996467,239223.347,239226.87499999302,239230.226,244723.315,,,
end of trap trial,html.Page,2_2_2,2021-04-24T12:40:08.883Z,,,,,,,,,,,,,,,,,,,,,,,,,,,,,,,2238.7449999907403,,form submission,,,,,,,,,,,,,,,,,,,,,246962.1599999955,246962.05999999074,244716.431,244709.5599999884,244723.315,246966.458,,,
Trap 1,flow.Sequence,2_2,2021-04-24T12:40:08.883Z,,,,,,,,,,,,,,,,,,,,,,,,,,,,,,,10551.393999990745,,completion,,,,,,,,,,,,,,,,,,,,,246962.23000000464,246962.05999999074,236403.743,236405.01499996753,236410.666,246966.458,,,
Standby,html.Page,2_3_0,2021-04-24T12:40:16.882Z,,,,,,,,,,,,,,,,,,,,,,,,,,,,,,,8000.106,,timeout,,,,,,,,,,,,,,,,,,,,,254961.1900000018,254959.68,246959.524,246962.2799999779,246966.458,254966.564,,,
Holding screen,html.Screen,2_3_1_0_0,2021-04-24T12:40:23.881Z,,,,,,,,,,,,,,,,,,,,,,,,,,,,,,,7000.247999999992,,timeout,,,,,,,,,,,,,,,,,,,,,261960.20500001032,261959.849,254959.68,254961.27500000875,254966.564,261966.812,,,
screen,html.Screen,2_3_1_0_1_0,2021-04-24T12:40:25.628Z,,,,,,,,,,,,,,,,,48,,,,,,,,,,,,,,1739.3079999879992,,response,,,,10,A,,,,,,Space,keypress(Space),,,,silence,,,,As -- --- ------ ------- --------- ----------- --------<br>--------- -------- --- ------- -- ------- ---- -- ------<br>-- --- -------- -------- ---------- ---- ---- ---- ------<br>-- --------- -- ---- -- --- -- --- ------- -- - -----<br>---------- -- -- -- ---- ----- -- ------ -- --- ------<br>-------,263706.979999959,263706.119999988,261959.849,261960.2849999792,261966.812,263709.738,,0,As
screen,html.Screen,2_3_1_0_1_1,2021-04-24T12:40:25.990Z,,,,,,,,,,,,,,,,,48,,,,,,,,,,,,,,358.34199999726843,,response,,,,10,A,,,,,,Space,keypress(Space),,,,silence,,,,-- in --- ------ ------- --------- ----------- --------<br>--------- -------- --- ------- -- ------- ---- -- ------<br>-- --- -------- -------- ---------- ---- ---- ---- ------<br>-- --------- -- ---- -- --- -- --- ------- -- - -----<br>---------- -- -- -- ---- ----- -- ------ -- --- ------<br>-------,264068.66499996977,264068.0799999973,263702.789,263707.0550000062,263709.738,264070.839,,1,in
screen,html.Screen,2_3_1_0_1_2,2021-04-24T12:40:26.358Z,,,,,,,,,,,,,,,,,48,,,,,,,,,,,,,,365.2959999672021,,response,,,,10,A,,,,,,Space,keypress(Space),,,,silence,,,,-- -- the ------ ------- --------- ----------- --------<br>--------- -------- --- ------- -- ------- ---- -- ------<br>-- --- -------- -------- ---------- ---- ---- ---- ------<br>-- --------- -- ---- -- --- -- --- ------- -- - -----<br>---------- -- -- -- ---- ----- -- ------ -- --- ------<br>-------,264436.8350000004,264436.1349999672,264064.02,264068.7199999811,264070.839,264439.046,,2,the
screen,html.Screen,2_3_1_0_1_3,2021-04-24T12:40:26.830Z,,,,,,,,,,,,,,,,,48,,,,,,,,,,,,,,468.95899997570086,,response,,,,10,A,,,,,,Space,keypress(Space),,,,silence,,,,-- -- --- United ------- --------- ----------- --------<br>--------- -------- --- ------- -- ------- ---- -- ------<br>-- --- -------- -------- ---------- ---- ---- ---- ------<br>-- --------- -- ---- -- --- -- --- ------- -- - -----<br>---------- -- -- -- ---- ----- -- ------ -- --- ------<br>-------,264908.7099999888,264908.0049999757,264432.13,264436.89499999164,264439.046,264911.16,,3,United
screen,html.Screen,2_3_1_0_1_4,2021-04-24T12:40:27.297Z,,,,,,,,,,,,,,,,,48,,,,,,,,,,,,,,463.68000000406755,,response,,,,10,A,,,,,,Space,keypress(Space),,,,silence,,,,"-- -- --- ------ States, --------- ----------- --------<br>--------- -------- --- ------- -- ------- ---- -- ------<br>-- --- -------- -------- ---------- ---- ---- ---- ------<br>-- --------- -- ---- -- --- -- --- ------- -- - -----<br>---------- -- -- -- ---- ----- -- ------ -- --- ------<br>-------",265375.4949999857,265374.84000000404,264904.301,264908.76500000013,264911.16,265384.698,,4,"States,"
screen,html.Screen,2_3_1_0_1_5,2021-04-24T12:40:27.871Z,,,,,,,,,,,,,,,,,48,,,,,,,,,,,,,,564.9369999681367,,response,,,,10,A,,,,,,Space,keypress(Space),,,,silence,,,,-- -- --- ------ ------- Colombian ----------- --------<br>--------- -------- --- ------- -- ------- ---- -- ------<br>-- --- -------- -------- ---------- ---- ---- ---- ------<br>-- --------- -- ---- -- --- -- --- ------- -- - -----<br>---------- -- -- -- ---- ----- -- ------ -- --- ------<br>-------,265950.27999999,265949.6349999681,265369.593,265375.54499995895,265384.698,265952.859,,5,Colombian
screen,html.Screen,2_3_1_0_1_6,2021-04-24T12:40:28.323Z,,,,,,,,,,,,,,,,,48,,,,,,,,,,,,,,447.9609999807435,,response,,,,10,A,,,,,,Space,keypress(Space),,,,silence,,,,-- -- --- ------ ------- --------- legislation --------<br>--------- -------- --- ------- -- ------- ---- -- ------<br>-- --- -------- -------- ---------- ---- ---- ---- ------<br>-- --------- -- ---- -- --- -- --- ------- -- - -----<br>---------- -- -- -- ---- ----- -- ------ -- --- ------<br>-------,266401.42999996897,266400.81999998074,265945.989,265950.33500000136,265952.859,266404.231,,6,legislation
screen,html.Screen,2_3_1_0_1_7,2021-04-24T12:40:28.711Z,,,,,,,,,,,,,,,,,48,,,,,,,,,,,,,,384.7640000098618,,response,,,,10,A,,,,,,Space,keypress(Space),,,,silence,,,,-- -- --- ------ ------- --------- ----------- requires<br>--------- -------- --- ------- -- ------- ---- -- ------<br>-- --- -------- -------- ---------- ---- ---- ---- ------<br>-- --------- -- ---- -- --- -- --- ------- -- - -----<br>---------- -- -- -- ---- ----- -- ------ -- --- ------<br>-------,266789.8849999765,266788.9950000099,266397.37,266401.4899999602,266404.231,266793.117,,7,requires
screen,html.Screen,2_3_1_0_1_8,2021-04-24T12:40:29.124Z,,,,,,,,,,,,,,,,,48,,,,,,,,,,,,,,409.4329999872134,,response,,,,10,A,,,,,,Space,keypress(Space),,,,silence,,,,-- -- --- ------ ------- --------- ----------- --------<br>travelers -------- --- ------- -- ------- ---- -- ------<br>-- --- -------- -------- ---------- ---- ---- ---- ------<br>-- --------- -- ---- -- --- -- --- ------- -- - -----<br>---------- -- -- -- ---- ----- -- ------ -- --- ------<br>-------,267203.2199999667,267202.54999998724,266786.3,266789.96999998344,266793.117,267209.919,,8,travelers
screen,html.Screen,2_3_1_0_1_9,2021-04-24T12:40:29.957Z,,,,,,,,,,,,,,,,,48,,,,,,,,,,,,,,825.0059999853838,,response,,,,10,A,,,,,,Space,keypress(Space),,,,silence,,,,-- -- --- ------ ------- --------- ----------- --------<br>--------- entering --- ------- -- ------- ---- -- ------<br>-- --- -------- -------- ---------- ---- ---- ---- ------<br>-- --------- -- ---- -- --- -- --- ------- -- - -----<br>---------- -- -- -- ---- ----- -- ------ -- --- ------<br>-------,268035.5949999648,268034.9249999854,267203.07,267203.274999978,267209.919,268043.308,,9,entering
screen,html.Screen,2_3_1_0_1_10,2021-04-24T12:40:31.567Z,,,,,,,,,,,,,,,,,48,,,,,,,,,,,,,,1601.991999974649,,response,,,,10,A,,,,,,Space,keypress(Space),,,,silence,,,,-- -- --- ------ ------- --------- ----------- --------<br>--------- -------- the ------- -- ------- ---- -- ------<br>-- --- -------- -------- ---------- ---- ---- ---- ------<br>-- --------- -- ---- -- --- -- --- ------- -- - -----<br>---------- -- -- -- ---- ----- -- ------ -- --- ------<br>-------,269645.96499997424,269645.29999997467,268029.315,268035.64999997616,268043.308,269647.489,,10,the
screen,html.Screen,2_3_1_0_1_11,2021-04-24T12:40:32.223Z,,,,,,,,,,,,,,,,,48,,,,,,,,,,,,,,653.3859999571578,,response,,,,10,A,,,,,,Space,keypress(Space),,,,silence,,,,-- -- --- ------ ------- --------- ----------- --------<br>--------- -------- --- country -- ------- ---- -- ------<br>-- --- -------- -------- ---------- ---- ---- ---- ------<br>-- --------- -- ---- -- --- -- --- ------- -- - -----<br>---------- -- -- -- ---- ----- -- ------ -- --- ------<br>-------,270301.61500000395,270300.87499995716,269640.414,269646.02499996545,269647.489,270307.193,,11,country
screen,html.Screen,2_3_1_0_1_12,2021-04-24T12:40:32.601Z,,,,,,,,,,,,,,,,,48,,,,,,,,,,,,,,371.4619999960414,,response,,,,10,A,,,,,,Space,keypress(Space),,,,silence,,,,-- -- --- ------ ------- --------- ----------- --------<br>--------- -------- --- ------- to ------- ---- -- ------<br>-- --- -------- -------- ---------- ---- ---- ---- ------<br>-- --------- -- ---- -- --- -- --- ------- -- - -----<br>---------- -- -- -- ---- ----- -- ------ -- --- ------<br>-------,270679.3549999711,270678.65499999607,270300.215,270301.6699999571,270307.193,270682.096,,12,to
screen,html.Screen,2_3_1_0_1_13,2021-04-24T12:40:33.027Z,,,,,,,,,,,,,,,,,48,,,,,,,,,,,,,,423.13899996632244,,response,,,,10,A,,,,,,Space,keypress(Space),,,,silence,,,,-- -- --- ------ ------- --------- ----------- --------<br>--------- -------- --- ------- -- declare ---- -- ------<br>-- --- -------- -------- ---------- ---- ---- ---- ------<br>-- --------- -- ---- -- --- -- --- ------- -- - -----<br>---------- -- -- -- ---- ----- -- ------ -- --- ------<br>-------,271105.87999998825,271105.23499996634,270675.294,270679.4349999982,270682.096,271112.715,,13,declare
screen,html.Screen,2_3_1_0_1_14,2021-04-24T12:40:34.873Z,,,,,,,,,,,,,,,,,48,,,,,,,,,,,,,,1838.539999963541,,response,,,,10,A,,,,,,Space,keypress(Space),,,,silence,,,,-- -- --- ------ ------- --------- ----------- --------<br>--------- -------- --- ------- -- ------- cash -- ------<br>-- --- -------- -------- ---------- ---- ---- ---- ------<br>-- --------- -- ---- -- --- -- --- ------- -- - -----<br>---------- -- -- -- ---- ----- -- ------ -- --- ------<br>-------,272951.9149999833,272951.25499996357,271105.844,271105.9349999996,271112.715,272960.226,,14,cash
screen,html.Screen,2_3_1_0_1_15,2021-04-24T12:40:35.344Z,,,,,,,,,,,,,,,,,48,,,,,,,,,,,,,,461.3789999813307,,response,,,,10,A,,,,,,Space,keypress(Space),,,,silence,,,,-- -- --- ------ ------- --------- ----------- --------<br>--------- -------- --- ------- -- ------- ---- in ------<br>-- --- -------- -------- ---------- ---- ---- ---- ------<br>-- --------- -- ---- -- --- -- --- ------- -- - -----<br>---------- -- -- -- ---- ----- -- ------ -- --- ------<br>-------,273422.424999997,273421.60499998135,272946.051,272951.9699999946,272960.226,273425.235,,15,in
screen,html.Screen,2_3_1_0_1_16,2021-04-24T12:40:35.867Z,,,,,,,,,,,,,,,,,48,,,,,,,,,,,,,,519.5549999795621,,response,,,,10,A,,,,,,Space,keypress(Space),,,,silence,,,,-- -- --- ------ ------- --------- ----------- --------<br>--------- -------- --- ------- -- ------- ---- -- excess<br>-- --- -------- -------- ---------- ---- ---- ---- ------<br>-- --------- -- ---- -- --- -- --- ------- -- - -----<br>---------- -- -- -- ---- ----- -- ------ -- --- ------<br>-------,273945.50999999046,273944.78999997955,273418.393,273422.4899999681,273425.235,273953.156,,16,excess
screen,html.Screen,2_3_1_0_1_17,2021-04-24T12:40:36.294Z,,,,,,,,,,,,,,,,,48,,,,,,,,,,,,,,419.1339999702177,,response,,,,10,A,,,,,,Space,keypress(Space),,,,silence,,,,-- -- --- ------ ------- --------- ----------- --------<br>--------- -------- --- ------- -- ------- ---- -- ------<br>of --- -------- -------- ---------- ---- ---- ---- ------<br>-- --------- -- ---- -- --- -- --- ------- -- - -----<br>---------- -- -- -- ---- ----- -- ------ -- --- ------<br>-------,274372.939999972,274372.28999997023,273939.211,273945.7049999619,273953.156,274376.65,,17,of
screen,html.Screen,2_3_1_0_1_18,2021-04-24T12:40:36.811Z,,,,,,,,,,,,,,,,,48,,,,,,,,,,,,,,512.879999985802,,response,,,,10,A,,,,,,Space,keypress(Space),,,,silence,,,,-- -- --- ------ ------- --------- ----------- --------<br>--------- -------- --- ------- -- ------- ---- -- ------<br>-- ten -------- -------- ---------- ---- ---- ---- ------<br>-- --------- -- ---- -- --- -- --- ------- -- - -----<br>---------- -- -- -- ---- ----- -- ------ -- --- ------<br>-------,274890.09499998065,274889.5299999858,274369.761,274372.99499998335,274376.65,274897.621,,18,ten
screen,html.Screen,2_3_1_0_1_19,2021-04-24T12:40:37.495Z,,,,,,,,,,,,,,,,,48,,,,,,,,,,,,,,675.1789999653702,,response,,,,10,A,,,,,,Space,keypress(Space),,,,silence,,,,-- -- --- ------ ------- --------- ----------- --------<br>--------- -------- --- ------- -- ------- ---- -- ------<br>-- --- thousand -------- ---------- ---- ---- ---- ------<br>-- --------- -- ---- -- --- -- --- ------- -- - -----<br>---------- -- -- -- ---- ----- -- ------ -- --- ------<br>-------,275573.4250000096,275572.79999996535,274883.685,274890.15499997186,274897.621,275578.058,,19,thousand
screen,html.Screen,2_3_1_0_1_20,2021-04-24T12:40:38.508Z,,,,,,,,,,,,,,,,,48,,,,,,,,,,,,,,1008.4869999691728,,response,,,,10,A,,,,,,Space,keypress(Space),,,,silence,,,,-- -- --- ------ ------- --------- ----------- --------<br>--------- -------- --- ------- -- ------- ---- -- ------<br>-- --- -------- dollars. ---------- ---- ---- ---- ------<br>-- --------- -- ---- -- --- -- --- ------- -- - -----<br>---------- -- -- -- ---- ----- -- ------ -- --- ------<br>-------,276587.21500000684,276586.5449999692,275571.181,275573.4799999627,275578.058,276591.945,,20,dollars.
screen,html.Screen,2_3_1_0_1_21,2021-04-24T12:40:39.353Z,,,,,,,,,,,,,,,,,48,,,,,,,,,,,,,,839.5400000082445,,response,,,,10,A,,,,,,Space,keypress(Space),,,,silence,,,,-- -- --- ------ ------- --------- ----------- --------<br>--------- -------- --- ------- -- ------- ---- -- ------<br>-- --- -------- -------- Concealing ---- ---- ---- ------<br>-- --------- -- ---- -- --- -- --- ------- -- - -----<br>---------- -- -- -- ---- ----- -- ------ -- --- ------<br>-------,277432.11499997415,277431.48500000825,276585.065,276587.26999996,276591.945,277439.297,,21,Concealing
screen,html.Screen,2_3_1_0_1_22,2021-04-24T12:40:39.780Z,,,,,,,,,,,,,,,,,48,,,,,,,,,,,,,,418.8579999653157,,response,,,,10,A,,,,,,Space,keypress(Space),,,,silence,,,,-- -- --- ------ ------- --------- ----------- --------<br>--------- -------- --- ------- -- ------- ---- -- ------<br>-- --- -------- -------- ---------- more ---- ---- ------<br>-- --------- -- ---- -- --- -- --- ------- -- - -----<br>---------- -- -- -- ---- ----- -- ------ -- --- ------<br>-------,277858.75000001397,277858.15499996534,277432.317,277432.1699999855,277439.297,277862.777,,22,more
screen,html.Screen,2_3_1_0_1_23,2021-04-24T12:40:40.187Z,,,,,,,,,,,,,,,,,48,,,,,,,,,,,,,,402.0230000044685,,response,,,,10,A,,,,,,Space,keypress(Space),,,,silence,,,,-- -- --- ------ ------- --------- ----------- --------<br>--------- -------- --- ------- -- ------- ---- -- ------<br>-- --- -------- -------- ---------- ---- than ---- ------<br>-- --------- -- ---- -- --- -- --- ------- -- - -----<br>---------- -- -- -- ---- ----- -- ------ -- --- ------<br>-------,278265.5199999572,278264.80000000447,277855.966,277858.79999998724,277862.777,278272.591,,23,than
screen,html.Screen,2_3_1_0_1_24,2021-04-24T12:40:40.517Z,,,,,,,,,,,,,,,,,48,,,,,,,,,,,,,,322.57899998594075,,response,,,,10,A,,,,,,Space,keypress(Space),,,,silence,,,,-- -- --- ------ ------- --------- ----------- --------<br>--------- -------- --- ------- -- ------- ---- -- ------<br>-- --- -------- -------- ---------- ---- ---- that ------<br>-- --------- -- ---- -- --- -- --- ------- -- - -----<br>---------- -- -- -- ---- ----- -- ------ -- --- ------<br>-------,278595.90999997454,278595.16999998596,278265.71,278265.5800000066,278272.591,278598.925,,24,that
screen,html.Screen,2_3_1_0_1_25,2021-04-24T12:40:40.923Z,,,,,,,,,,,,,,,,,48,,,,,,,,,,,,,,402.2249999673222,,response,,,,10,A,,,,,,Space,keypress(Space),,,,silence,,,,-- -- --- ------ ------- --------- ----------- --------<br>--------- -------- --- ------- -- ------- ---- -- ------<br>-- --- -------- -------- ---------- ---- ---- ---- amount<br>-- --------- -- ---- -- --- -- --- ------- -- - -----<br>---------- -- -- -- ---- ----- -- ------ -- --- ------<br>-------,279001.85000000056,279001.1499999673,278592.106,278595.960000006,278598.925,279008.738,,25,amount
screen,html.Screen,2_3_1_0_1_26,2021-04-24T12:40:41.336Z,,,,,,,,,,,,,,,,,48,,,,,,,,,,,,,,405.7669999933569,,response,,,,10,A,,,,,,Space,keypress(Space),,,,silence,,,,-- -- --- ------ ------- --------- ----------- --------<br>--------- -------- --- ------- -- ------- ---- -- ------<br>-- --- -------- -------- ---------- ---- ---- ---- ------<br>to --------- -- ---- -- --- -- --- ------- -- - -----<br>---------- -- -- -- ---- ----- -- ------ -- --- ------<br>-------,279415.0249999948,279414.50499999337,279001.84,279001.90999999177,279008.738,279418.397,,26,to
screen,html.Screen,2_3_1_0_1_27,2021-04-24T12:40:43.245Z,,,,,,,,,,,,,,,,,48,,,,,,,,,,,,,,1904.4379999990342,,response,,,,10,A,,,,,,Space,keypress(Space),,,,silence,,,,-- -- --- ------ ------- --------- ----------- --------<br>--------- -------- --- ------- -- ------- ---- -- ------<br>-- --- -------- -------- ---------- ---- ---- ---- ------<br>-- transport -- ---- -- --- -- --- ------- -- - -----<br>---------- -- -- -- ---- ----- -- ------ -- --- ------<br>-------,281323.38499999605,281322.83499999903,279411.565,279415.084999986,279418.397,281328.151,,27,transport
screen,html.Screen,2_3_1_0_1_28,2021-04-24T12:40:43.678Z,,,,,,,,,,,,,,,,,48,,,,,,,,,,,,,,427.6740000001737,,response,,,,10,A,,,,,,Space,keypress(Space),,,,silence,,,,-- -- --- ------ ------- --------- ----------- --------<br>--------- -------- --- ------- -- ------- ---- -- ------<br>-- --- -------- -------- ---------- ---- ---- ---- ------<br>-- --------- it ---- -- --- -- --- ------- -- - -----<br>---------- -- -- -- ---- ----- -- ------ -- --- ------<br>-------,281756.4099999727,281755.8250000002,281321.193,281323.4349999693,281328.151,281758.717,,28,it
screen,html.Screen,2_3_1_0_1_29,2021-04-24T12:40:44.052Z,,,,,,,,,,,,,,,,,48,,,,,,,,,,,,,,371.2479999709758,,response,,,,10,A,,,,,,Space,keypress(Space),,,,silence,,,,-- -- --- ------ ------- --------- ----------- --------<br>--------- -------- --- ------- -- ------- ---- -- ------<br>-- --- -------- -------- ---------- ---- ---- ---- ------<br>-- --------- -- into -- --- -- --- ------- -- - -----<br>---------- -- -- -- ---- ----- -- ------ -- --- ------<br>-------,282130.58499997715,282129.964999971,281751.985,281756.4849999617,281758.717,282133.718,,29,into
screen,html.Screen,2_3_1_0_1_30,2021-04-24T12:40:44.473Z,,,,,,,,,,,,,,,,,48,,,,,,,,,,,,,,417.1769999930402,,response,,,,10,A,,,,,,Space,keypress(Space),,,,silence,,,,-- -- --- ------ ------- --------- ----------- --------<br>--------- -------- --- ------- -- ------- ---- -- ------<br>-- --- -------- -------- ---------- ---- ---- ---- ------<br>-- --------- -- ---- or --- -- --- ------- -- - -----<br>---------- -- -- -- ---- ----- -- ------ -- --- ------<br>-------,282551.8549999688,282550.89499999303,282126.897,282130.6399999885,282133.718,282557.509,,30,or
screen,html.Screen,2_3_1_0_1_31,2021-04-24T12:40:44.907Z,,,,,,,,,,,,,,,,,48,,,,,,,,,,,,,,427.60599998856196,,response,,,,10,A,,,,,,Space,keypress(Space),,,,silence,,,,-- -- --- ------ ------- --------- ----------- --------<br>--------- -------- --- ------- -- ------- ---- -- ------<br>-- --- -------- -------- ---------- ---- ---- ---- ------<br>-- --------- -- ---- -- out -- --- ------- -- - -----<br>---------- -- -- -- ---- ----- -- ------ -- --- ------<br>-------,282985.7450000127,282985.1149999886,282550.514,282551.90500000026,282557.509,282988.046,,31,out
screen,html.Screen,2_3_1_0_1_32,2021-04-24T12:40:45.291Z,,,,,,,,,,,,,,,,,48,,,,,,,,,,,,,,381.368999964674,,response,,,,10,A,,,,,,Space,keypress(Space),,,,silence,,,,-- -- --- ------ ------- --------- ----------- --------<br>--------- -------- --- ------- -- ------- ---- -- ------<br>-- --- -------- -------- ---------- ---- ---- ---- ------<br>-- --------- -- ---- -- --- of --- ------- -- - -----<br>---------- -- -- -- ---- ----- -- ------ -- --- ------<br>-------,283369.8549999972,283369.41499996465,282981.05,282985.7999999658,282988.046,283376.841,,32,of
screen,html.Screen,2_3_1_0_1_33,2021-04-24T12:40:45.660Z,,,,,,,,,,,,,,,,,48,,,,,,,,,,,,,,361.5589999728836,,response,,,,10,A,,,,,,Space,keypress(Space),,,,silence,,,,-- -- --- ------ ------- --------- ----------- --------<br>--------- -------- --- ------- -- ------- ---- -- ------<br>-- --- -------- -------- ---------- ---- ---- ---- ------<br>-- --------- -- ---- -- --- -- the ------- -- - -----<br>---------- -- -- -- ---- ----- -- ------ -- --- ------<br>-------,283738.9100000146,283738.3999999729,283369.982,283369.9149999884,283376.841,283744.928,,33,the
screen,html.Screen,2_3_1_0_1_34,2021-04-24T12:40:46.101Z,,,,,,,,,,,,,,,,,48,,,,,,,,,,,,,,434.5770000073244,,response,,,,10,A,,,,,,Space,keypress(Space),,,,silence,,,,-- -- --- ------ ------- --------- ----------- --------<br>--------- -------- --- ------- -- ------- ---- -- ------<br>-- --- -------- -------- ---------- ---- ---- ---- ------<br>-- --------- -- ---- -- --- -- --- country -- - -----<br>---------- -- -- -- ---- ----- -- ------ -- --- ------<br>-------,284180.2649999736,284179.50500000734,283738.023,283738.9649999677,283744.928,284182.371,,34,country
screen,html.Screen,2_3_1_0_1_35,2021-04-24T12:40:46.517Z,,,,,,,,,,,,,,,,,48,,,,,,,,,,,,,,413.19399996689754,,response,,,,10,A,,,,,,Space,keypress(Space),,,,silence,,,,-- -- --- ------ ------- --------- ----------- --------<br>--------- -------- --- ------- -- ------- ---- -- ------<br>-- --- -------- -------- ---------- ---- ---- ---- ------<br>-- --------- -- ---- -- --- -- --- ------- is - -----<br>---------- -- -- -- ---- ----- -- ------ -- --- ------<br>-------,284596.15499997744,284595.5649999669,284175.554,284180.3249999648,284182.371,284599.053,,35,is
screen,html.Screen,2_3_1_0_1_36,2021-04-24T12:40:46.957Z,,,,,,,,,,,,,,,,,48,,,,,,,,,,,,,,436.0919999725302,,response,,,,10,A,,,,,,Space,keypress(Space),,,,silence,,,,-- -- --- ------ ------- --------- ----------- --------<br>--------- -------- --- ------- -- ------- ---- -- ------<br>-- --- -------- -------- ---------- ---- ---- ---- ------<br>-- --------- -- ---- -- --- -- --- ------- -- a -----<br>---------- -- -- -- ---- ----- -- ------ -- --- ------<br>-------,285035.92499997467,285035.14499997254,284592.218,284596.2099999888,284599.053,285043.671,,36,a
screen,html.Screen,2_3_1_0_1_37,2021-04-24T12:40:47.604Z,,,,,,,,,,,,,,,,,48,,,,,,,,,,,,,,638.1539999778615,,response,,,,10,A,,,,,,Space,keypress(Space),,,,silence,,,,-- -- --- ------ ------- --------- ----------- --------<br>--------- -------- --- ------- -- ------- ---- -- ------<br>-- --- -------- -------- ---------- ---- ---- ---- ------<br>-- --------- -- ---- -- --- -- --- ------- -- - crime<br>---------- -- -- -- ---- ----- -- ------ -- --- ------<br>-------,285682.5049999752,285681.82499997783,285029.729,285035.979999986,285043.671,285689.47,,37,crime
screen,html.Screen,2_3_1_0_1_38,2021-04-24T12:40:48.061Z,,,,,,,,,,,,,,,,,48,,,,,,,,,,,,,,449.38499996834435,,response,,,,10,A,,,,,,Space,keypress(Space),,,,silence,,,,-- -- --- ------ ------- --------- ----------- --------<br>--------- -------- --- ------- -- ------- ---- -- ------<br>-- --- -------- -------- ---------- ---- ---- ---- ------<br>-- --------- -- ---- -- --- -- --- ------- -- - -----<br>punishable -- -- -- ---- ----- -- ------ -- --- ------<br>-------,286139.3800000078,286138.8549999683,285682.497,285682.5649999664,285689.47,286140.887,,38,punishable
screen,html.Screen,2_3_1_0_1_39,2021-04-24T12:40:48.427Z,,,,,,,,,,,,,,,,,48,,,,,,,,,,,,,,364.1329999823356,,response,,,,10,A,,,,,,Space,keypress(Space),,,,silence,,,,-- -- --- ------ ------- --------- ----------- --------<br>--------- -------- --- ------- -- ------- ---- -- ------<br>-- --- -------- -------- ---------- ---- ---- ---- ------<br>-- --------- -- ---- -- --- -- --- ------- -- - -----<br>---------- by -- -- ---- ----- -- ------ -- --- ------<br>-------,286505.6249999907,286505.0199999823,286133.944,286139.43499996094,286140.887,286508.813,,39,by
screen,html.Screen,2_3_1_0_1_40,2021-04-24T12:40:48.827Z,,,,,,,,,,,,,,,,,48,,,,,,,,,,,,,,396.30700001033256,,response,,,,10,A,,,,,,Space,keypress(Space),,,,silence,,,,-- -- --- ------ ------- --------- ----------- --------<br>--------- -------- --- ------- -- ------- ---- -- ------<br>-- --- -------- -------- ---------- ---- ---- ---- ------<br>-- --------- -- ---- -- --- -- --- ------- -- - -----<br>---------- -- up -- ---- ----- -- ------ -- --- ------<br>-------,286905.83999996306,286905.12000001036,286501.992,286505.68000000203,286508.813,286911.725,,40,up
