sender,sender_type,sender_id,timestamp,meta,,Blues,Classical,Country,Dance,Electronic,Folk,Gospel,Hip-Hop,Jazz,Latin,Musical/Film,New-age,Pop,Prolific_id,Provo_ID,R&B,Rap,Reggae,Religious,Rock,Soul,Swing,Traditional,age,artist_name,correct,correctResponse,distraction,duration,education,ended_on,familiarity,gender,headphone_check_performance,item,list,music_frequency,offensiveness,pleasantness,position_correct,preference,response,response_action,snippet_file,song_name,song_rating,sound,stimulus_1,stimulus_2,stimulus_3,text,time_commit,time_end,time_render,time_run,time_show,time_switch,url,word,word_ID
Prolific ID,html.Form,0,2021-04-30T12:43:16.233Z,"{""labjs_version"":""20.2.2"",""labjs_build"":{""flavor"":""production"",""commit"":""a25486e0c714a0ae2ce03ff94b7bb6896854dcfa""},""location"":""https://run.pavlovia.org/mvasilev/prolific_music_e/"",""userAgent"":""Mozilla/5.0 (Macintosh; Intel Mac OS X 10_14_6) AppleWebKit/537.36 (KHTML, like Gecko) Chrome/90.0.4430.85 Safari/537.36"",""platform"":""MacIntel"",""language"":""en-GB"",""locale"":""en-GB"",""timeZone"":""Europe/London"",""timezoneOffset"":-60,""screen_width"":1440,""screen_height"":900,""scroll_width"":1297,""scroll_height"":627,""window_innerWidth"":1297,""window_innerHeight"":675,""devicePixelRatio"":1}",,,,,,,,,,,,,,,603c232c2af2c79b6265b3e8,,,,,,,,,,,,,,,9016.352000001341,,form submission,,,,,,,,,,,,,,,,,,,,,20970.710000008694,20970.06500000134,11920.211,11924.314999996568,11953.713,20983.416,{},,
Introduction,html.Screen,1_0,2021-04-30T12:43:22.675Z,,,,,,,,,,,,,,,,,,,,,,,,,,,,,,,6422.563999995906,,response,,,,,,,,,,,continue,click button,,,,,,,,,27412.670000005164,27405.979999995907,20966.665,20971.13000000536,20983.416,27415.8,,,
Volume calibration,html.Screen,1_1,2021-04-30T12:44:01.744Z,,,,,,,,,,,,,,,,,,,,,,,,,,,,,,,39062.1300000082,,response,,,,,,,,,,,continue,click button,,,,,,,,,66483.25000000477,66477.9300000082,27399.049,27413.054999997257,27415.8,66483.27,,,
Task instructions,html.Screen,1_2,2021-04-30T12:44:20.266Z,,,,,,,,,,,,,,,,,,,,,,,,,,,,,,,18518.715000009877,,response,,,,,,,,,,,continue,click button,,,,,,,,,85005.36999999895,85001.98500000988,66466.519,66483.41000000073,66483.27,85009.876,,,
Sounds,html.Screen,1_3_0_0,2021-04-30T12:44:24.617Z,,,,,,,,,,,,,,,,,,,,,,,,,,,,,,,4340.203999999998,,timeout,,,,,,,,,2,,,,,,,,O,S,I,,89356.47500000778,89249.574,84993.125,85005.86499999918,85009.876,89350.08,,,
Judgement,html.Screen,1_3_0_1,2021-04-30T12:44:25.946Z,,,,,,,,,,,,,,,,,,,,,,,,,,,,true,2,,1331.9099999973114,,response,,,,,,,,,2,,2,click #choice-2,,,,,O,S,I,,90685.18500000937,90681.98999999731,89249.574,89356.85500000545,89350.08,90690.16,,,
Trial,flow.Sequence,1_3_0,2021-04-30T12:44:25.946Z,,,,,,,,,,,,,,,,,,,,,,,,,,,,,,,5672.113999997309,,completion,,,,,,,,,2,,,,,,,,O,S,I,,90685.62000000384,90681.98999999731,84993.125,85005.7450000022,85009.876,90690.16,,,
Sounds,html.Screen,1_3_1_0,2021-04-30T12:44:30.190Z,,,,,,,,,,,,,,,,,,,,,,,,,,,,,,,4254.754000000001,,timeout,,,,,,,,,1,,,,,,,,S,O,I,,94930.17999999574,94928.163,90673.409,90685.81999999878,90690.16,94944.914,,,
Judgement,html.Screen,1_3_1_1,2021-04-30T12:44:30.968Z,,,,,,,,,,,,,,,,,,,,,,,,,,,,true,1,,761.0460000065941,,response,,,,,,,,,1,,1,click #choice-1,,,,,S,O,I,,95708.20500000264,95705.9600000066,94928.163,94930.47500000102,94944.914,95715.46,,,
Trial,flow.Sequence,1_3_1,2021-04-30T12:44:30.969Z,,,,,,,,,,,,,,,,,,,,,,,,,,,,,,,5015.800000006595,,completion,,,,,,,,,1,,,,,,,,S,O,I,,95708.46999999776,95705.9600000066,90673.409,90685.75499999861,90690.16,95715.46,,,
Sounds,html.Screen,1_3_2_0,2021-04-30T12:44:35.217Z,,,,,,,,,,,,,,,,,,,,,,,,,,,,,,,4255.468999999997,,timeout,,,,,,,,,2,,,,,,,,I,S,O,,99956.44000000902,99954.178,95698.709,95708.64500000607,95715.46,99970.929,,,
Judgement,html.Screen,1_3_2_1,2021-04-30T12:44:35.990Z,,,,,,,,,,,,,,,,,,,,,,,,,,,,true,2,,757.0359999982174,,response,,,,,,,,,2,,2,click #choice-2,,,,,I,S,O,,100730.00999999931,100727.96499999822,99954.178,99956.76000000094,99970.929,100741.475,,,
Trial,flow.Sequence,1_3_2,2021-04-30T12:44:35.990Z,,,,,,,,,,,,,,,,,,,,,,,,,,,,,,,5012.504999998215,,completion,,,,,,,,,2,,,,,,,,I,S,O,,100730.2500000078,100727.96499999822,95698.709,95708.58500000031,95715.46,100741.475,,,
Sounds,html.Screen,1_3_3_0,2021-04-30T12:44:40.242Z,,,,,,,,,,,,,,,,,,,,,,,,,,,,,,,4254.754000000001,,timeout,,,,,,,,,3,,,,,,,,I,O,S,,104981.44499999762,104979.478,100724.724,100730.43500000495,100741.475,104996.229,,,
Judgement,html.Screen,1_3_3_1,2021-04-30T12:44:41.160Z,,,,,,,,,,,,,,,,,,,,,,,,,,,,true,3,,901.7260000076349,,response,,,,,,,,,3,,3,click #choice-3,,,,,I,O,S,,105900.07000000332,105897.95500000764,104979.478,104981.70499999833,104996.229,105900.783,,,
Trial,flow.Sequence,1_3_3,2021-04-30T12:44:41.160Z,,,,,,,,,,,,,,,,,,,,,,,,,,,,,,,5156.480000007636,,completion,,,,,,,,,3,,,,,,,,I,O,S,,105900.30000000843,105897.95500000764,100724.724,100730.3649999958,100741.475,105900.783,,,
Sounds,html.Screen,1_3_4_0,2021-04-30T12:44:45.402Z,,,,,,,,,,,,,,,,,,,,,,,,,,,,,,,4254.754000000001,,timeout,,,,,,,,,3,,,,,,,,O,I,S,,110141.82499999879,110138.786,105884.032,105900.450000001,105900.783,110155.537,,,
Judgement,html.Screen,1_3_4_1,2021-04-30T12:44:45.973Z,,,,,,,,,,,,,,,,,,,,,,,,,,,,true,3,,554.3529999982711,,response,,,,,,,,,3,,3,click #choice-3,,,,,O,I,S,,110712.96000000439,110709.88999999827,110138.786,110142.06500000728,110155.537,110726.014,,,
Trial,flow.Sequence,1_3_4,2021-04-30T12:44:45.973Z,,,,,,,,,,,,,,,,,,,,,,,,,,,,,,,4809.106999998272,,completion,,,,,,,,,3,,,,,,,,O,I,S,,110713.31000000646,110709.88999999827,105884.032,105900.4050000076,105900.783,110726.014,,,
Sounds,html.Screen,1_3_5_0,2021-04-30T12:44:50.226Z,,,,,,,,,,,,,,,,,,,,,,,,,,,,,,,4254.754000000001,,timeout,,,,,,,,,1,,,,,,,,S,I,O,,114966.59500000533,114964.017,110709.263,110713.5500000004,110726.014,114980.768,,,
Judgement,html.Screen,1_3_5_1,2021-04-30T12:44:51.003Z,,,,,,,,,,,,,,,,,,,,,,,,,,,,true,1,,759.1370000094612,,response,,,,,,,,,1,,1,click #choice-1,,,,,S,I,O,,115742.75000000489,115739.90500000946,114964.017,114966.84500000265,114980.768,115751.314,,,
Trial,flow.Sequence,1_3_5,2021-04-30T12:44:51.003Z,,,,,,,,,,,,,,,,,,,,,,,,,,,,,,,5013.891000009462,,completion,,,,,,,,,1,,,,,,,,S,I,O,,115742.97500000102,115739.90500000946,110709.263,110713.47499999683,110726.014,115751.314,,,
Task,flow.Loop,1_3,2021-04-30T12:44:51.008Z,,,,,,,,,,,,,,,,,,,,,,,,,,,,,,,30730.029000009454,,completion,,,1,,,,,,,,,,,,,,,,,,115748.63000000187,115739.90500000946,84993.125,85005.61500000185,85009.876,115751.314,,,
Trap,html.Screen,1_4,2021-04-30T12:44:51.010Z,,,,,,,,,,,,,,,,,,,,,,,,,,,,,,,NaN,,skipped,,,,,,,,,,,,,,,,,,,,,115750.37500000326,115739.90500000946,,115750.2000000095,,115751.314,,,
Thanks,html.Screen,1_5,2021-04-30T12:44:55.418Z,,,,,,,,,,,,,,,,,,,,,,,,,,,,,,,4404.6310000058875,,response,,,,,,,,,,,continue,click button,,,,,,,,,120158.56500000518,120155.94500000589,115734.563,115750.53499999922,115751.314,129437.739,,,
Headphone screening,flow.Sequence,1,2021-04-30T12:44:55.419Z,,,,,,,,,,,,,,,,,,,,,,,,,,,,,,,99172.52900000589,,completion,,,,,,,,,,,,,,,,,,,,,120158.8000000047,120155.94500000589,20966.665,20971.0699999996,20983.416,129437.739,,,
Instructions,html.Page,2_0,2021-04-30T12:45:53.286Z,,,,,,,,,,,,,,,,,,,,,,,,,,,,,,,48589.68099999853,,form submission,,,,,,,,,,,,,,,,,,,,,178027.86499999638,178027.41999999853,129420.988,129444.1450000013,129437.739,178037.113,,,
Holding screen,html.Screen,2_1_0_0,2021-04-30T12:46:03.281Z,,,,,,,,,,,,,,,,,,,,,,,,,,,,,,,10000.34699999998,,timeout,,,,,,,,,,,,,,,,,,,,,188023.07999999903,188020.709,178020.362,178028.23999999964,178037.113,188037.46,,,
screen,html.Screen,2_1_0_1_0,2021-04-30T12:46:04.613Z,,,,,,,,,,,,,,,,,53,,,,,,,,,,,,,,1310.8799999968323,,response,,,,99,,,,,,,Space,keypress(Space),,,,,,,,When -- ----- -- ------ - ------- --- ----------<br>------------- ------ ------ ---- ---- ------- ----- -- ----<br>-------- ------- -- ---------- --- - --- ----- ----- ----<br>---- --- --- ----- --- ---- ---- ------- ----- ---- -------<br>--- --- -- ----- -- --- ---- -- --- ---- -- ------ ------<br>--- ----- -- ----,189354.4750000001,189348.33999999682,188020.709,188023.50500000466,188037.46,189361.614,,0,When
screen,html.Screen,2_1_0_1_1,2021-04-30T12:46:05.274Z,,,,,,,,,,,,,,,,,53,,,,,,,,,,,,,,650.8560000014841,,response,,,,99,,,,,,,Space,keypress(Space),,,,,,,,---- it ----- -- ------ - ------- --- ----------<br>------------- ------ ------ ---- ---- ------- ----- -- ----<br>-------- ------- -- ---------- --- - --- ----- ----- ----<br>---- --- --- ----- --- ---- ---- ------- ----- ---- -------<br>--- --- -- ----- -- --- ---- -- --- ---- -- ------ ------<br>--- ----- -- ----,190016.05500000005,190012.4700000015,189344.863,189354.64000000502,189361.614,190031.654,,1,it
screen,html.Screen,2_1_0_1_2,2021-04-30T12:46:05.874Z,,,,,,,,,,,,,,,,,53,,,,,,,,,,,,,,580.6959999957762,,response,,,,99,,,,,,,Space,keypress(Space),,,,,,,,---- -- comes -- ------ - ------- --- ----------<br>------------- ------ ------ ---- ---- ------- ----- -- ----<br>-------- ------- -- ---------- --- - --- ----- ----- ----<br>---- --- --- ----- --- ---- ---- ------- ----- ---- -------<br>--- --- -- ----- -- --- ---- -- --- ---- -- ------ ------<br>--- ----- -- ----,190615.60499999905,190612.3499999958,190014.903,190016.27000000735,190031.654,190617.939,,2,comes
screen,html.Screen,2_1_0_1_3,2021-04-30T12:46:06.530Z,,,,,,,,,,,,,,,,,53,,,,,,,,,,,,,,650.4160000074189,,response,,,,99,,,,,,,Space,keypress(Space),,,,,,,,---- -- ----- to ------ - ------- --- ----------<br>------------- ------ ------ ---- ---- ------- ----- -- ----<br>-------- ------- -- ---------- --- - --- ----- ----- ----<br>---- --- --- ----- --- ---- ---- ------- ----- ---- -------<br>--- --- -- ----- -- --- ---- -- --- ---- -- ------ ------<br>--- ----- -- ----,191271.69000000868,191268.35500000743,190601.188,190615.82000000635,190617.939,191287.979,,3,to
screen,html.Screen,2_1_0_1_4,2021-04-30T12:46:07.226Z,,,,,,,,,,,,,,,,,53,,,,,,,,,,,,,,676.4910000062664,,response,,,,99,,,,,,,Space,keypress(Space),,,,,,,,---- -- ----- -- having - ------- --- ----------<br>------------- ------ ------ ---- ---- ------- ----- -- ----<br>-------- ------- -- ---------- --- - --- ----- ----- ----<br>---- --- --- ----- --- ---- ---- ------- ----- ---- -------<br>--- --- -- ----- -- --- ---- -- --- ---- -- ------ ------<br>--- ----- -- ----,191968.1649999984,191964.47000000626,191271.228,191272.8100000095,191287.979,191974.77,,4,having
screen,html.Screen,2_1_0_1_5,2021-04-30T12:46:07.754Z,,,,,,,,,,,,,,,,,53,,,,,,,,,,,,,,517.5949999982549,,response,,,,99,,,,,,,Space,keypress(Space),,,,,,,,---- -- ----- -- ------ a ------- --- ----------<br>------------- ------ ------ ---- ---- ------- ----- -- ----<br>-------- ------- -- ---------- --- - --- ----- ----- ----<br>---- --- --- ----- --- ---- ---- ------- ----- ---- -------<br>--- --- -- ----- -- --- ---- -- --- ---- -- ------ ------<br>--- ----- -- ----,192495.9499999968,192492.36499999824,191958.019,191968.3800000057,191974.77,192510.802,,5,a
screen,html.Screen,2_1_0_1_6,2021-04-30T12:46:08.498Z,,,,,,,,,,,,,,,,,53,,,,,,,,,,,,,,725.5480000064999,,response,,,,99,,,,,,,Space,keypress(Space),,,,,,,,---- -- ----- -- ------ - lasting --- ----------<br>------------- ------ ------ ---- ---- ------- ----- -- ----<br>-------- ------- -- ---------- --- - --- ----- ----- ----<br>---- --- --- ----- --- ---- ---- ------- ----- ---- -------<br>--- --- -- ----- -- --- ---- -- --- ---- -- ------ ------<br>--- ----- -- ----,193239.79500000132,193236.3500000065,192494.051,192496.1650000041,192510.802,193247.846,,6,lasting
screen,html.Screen,2_1_0_1_7,2021-04-30T12:46:09.218Z,,,,,,,,,,,,,,,,,53,,,,,,,,,,,,,,708.3689999983471,,response,,,,99,,,,,,,Space,keypress(Space),,,,,,,,---- -- ----- -- ------ - ------- and ----------<br>------------- ------ ------ ---- ---- ------- ----- -- ----<br>-------- ------- -- ---------- --- - --- ----- ----- ----<br>---- --- --- ----- --- ---- ---- ------- ----- ---- -------<br>--- --- -- ----- -- --- ---- -- --- ---- -- ------ ------<br>--- ----- -- ----,193959.59500000754,193956.21499999834,193231.095,193240.01000000862,193247.846,193968.139,,7,and
screen,html.Screen,2_1_0_1_8,2021-04-30T12:46:10.074Z,,,,,,,,,,,,,,,,,53,,,,,,,,,,,,,,844.2859999964421,,response,,,,99,,,,,,,Space,keypress(Space),,,,,,,,---- -- ----- -- ------ - ------- --- fulfilling<br>------------- ------ ------ ---- ---- ------- ----- -- ----<br>-------- ------- -- ---------- --- - --- ----- ----- ----<br>---- --- --- ----- --- ---- ---- ------- ----- ---- -------<br>--- --- -- ----- -- --- ---- -- --- ---- -- ------ ------<br>--- ----- -- ----,194815.79999999667,194812.42499999644,193951.388,193959.82000000367,193968.139,194822.44,,8,fulfilling
screen,html.Screen,2_1_0_1_9,2021-04-30T12:46:10.600Z,,,,,,,,,,,,,,,,,53,,,,,,,,,,,,,,517.7650000004214,,response,,,,99,,,,,,,Space,keypress(Space),,,,,,,,"---- -- ----- -- ------ - ------- --- ----------<br>relationship, ------ ------ ---- ---- ------- ----- -- ----<br>-------- ------- -- ---------- --- - --- ----- ----- ----<br>---- --- --- ----- --- ---- ---- ------- ----- ---- -------<br>--- --- -- ----- -- --- ---- -- --- ---- -- ------ ------<br>--- ----- -- ----",195342.18000000692,195340.20500000042,194805.689,194816.01500000397,194822.44,195358.472,,9,"relationship,"
screen,html.Screen,2_1_0_1_10,2021-04-30T12:46:11.417Z,,,,,,,,,,,,,,,,,53,,,,,,,,,,,,,,797.7529999988037,,response,,,,99,,,,,,,Space,keypress(Space),,,,,,,,---- -- ----- -- ------ - ------- --- ----------<br>------------- common ------ ---- ---- ------- ----- -- ----<br>-------- ------- -- ---------- --- - --- ----- ----- ----<br>---- --- --- ----- --- ---- ---- ------- ----- ---- -------<br>--- --- -- ----- -- --- ---- -- --- ---- -- ------ ------<br>--- ----- -- ----,196159.35000000172,196156.2249999988,195341.721,195342.3150000017,195358.472,196162.52,,10,common
screen,html.Screen,2_1_0_1_11,2021-04-30T12:46:12.234Z,,,,,,,,,,,,,,,,,53,,,,,,,,,,,,,,809.9250000067113,,response,,,,99,,,,,,,Space,keypress(Space),,,,,,,,---- -- ----- -- ------ - ------- --- ----------<br>------------- ------ wisdom ---- ---- ------- ----- -- ----<br>-------- ------- -- ---------- --- - --- ----- ----- ----<br>---- --- --- ----- --- ---- ---- ------- ----- ---- -------<br>--- --- -- ----- -- --- ---- -- --- ---- -- ------ ------<br>--- ----- -- ----,196976.01500000746,196972.4450000067,196145.769,196159.56500000902,196162.52,196983.319,,11,wisdom
screen,html.Screen,2_1_0_1_12,2021-04-30T12:46:13.042Z,,,,,,,,,,,,,,,,,53,,,,,,,,,,,,,,797.0510000076902,,response,,,,99,,,,,,,Space,keypress(Space),,,,,,,,---- -- ----- -- ------ - ------- --- ----------<br>------------- ------ ------ says ---- ------- ----- -- ----<br>-------- ------- -- ---------- --- - --- ----- ----- ----<br>---- --- --- ----- --- ---- ---- ------- ----- ---- -------<br>--- --- -- ----- -- --- ---- -- --- ---- -- ------ ------<br>--- ----- -- ----,197783.8000000047,197780.37000000768,196966.568,196976.2300000002,196983.319,197787.367,,12,says
screen,html.Screen,2_1_0_1_13,2021-04-30T12:46:13.826Z,,,,,,,,,,,,,,,,,53,,,,,,,,,,,,,,776.9930000039458,,response,,,,99,,,,,,,Space,keypress(Space),,,,,,,,---- -- ----- -- ------ - ------- --- ----------<br>------------- ------ ------ ---- that ------- ----- -- ----<br>-------- ------- -- ---------- --- - --- ----- ----- ----<br>---- --- --- ----- --- ---- ---- ------- ----- ---- -------<br>--- --- -- ----- -- --- ---- -- --- ---- -- ------ ------<br>--- ----- -- ----,198567.88000000233,198564.36000000394,197770.616,197784.01499999745,197787.367,198574.664,,13,that
screen,html.Screen,2_1_0_1_14,2021-04-30T12:46:14.602Z,,,,,,,,,,,,,,,,,53,,,,,,,,,,,,,,765.7060000053607,,response,,,,99,,,,,,,Space,keypress(Space),,,,,,,,---- -- ----- -- ------ - ------- --- ----------<br>------------- ------ ------ ---- ---- feeling ----- -- ----<br>-------- ------- -- ---------- --- - --- ----- ----- ----<br>---- --- --- ----- --- ---- ---- ------- ----- ---- -------<br>--- --- -- ----- -- --- ---- -- --- ---- -- ------ ------<br>--- ----- -- ----,199343.97499999614,199340.37000000535,198557.913,198568.10000000405,198574.664,199346.157,,14,feeling
screen,html.Screen,2_1_0_1_15,2021-04-30T12:46:15.266Z,,,,,,,,,,,,,,,,,53,,,,,,,,,,,,,,658.2130000096513,,response,,,,99,,,,,,,Space,keypress(Space),,,,,,,,---- -- ----- -- ------ - ------- --- ----------<br>------------- ------ ------ ---- ---- ------- close -- ----<br>-------- ------- -- ---------- --- - --- ----- ----- ----<br>---- --- --- ----- --- ---- ---- ------- ----- ---- -------<br>--- --- -- ----- -- --- ---- -- --- ---- -- ------ ------<br>--- ----- -- ----,200008.3350000059,200004.37000000966,199329.406,199344.19499999785,199346.157,200016.197,,15,close
screen,html.Screen,2_1_0_1_16,2021-04-30T12:46:15.914Z,,,,,,,,,,,,,,,,,53,,,,,,,,,,,,,,636.2330000019283,,response,,,,99,,,,,,,Space,keypress(Space),,,,,,,,---- -- ----- -- ------ - ------- --- ----------<br>------------- ------ ------ ---- ---- ------- ----- to ----<br>-------- ------- -- ---------- --- - --- ----- ----- ----<br>---- --- --- ----- --- ---- ---- ------- ----- ---- -------<br>--- --- -- ----- -- --- ---- -- --- ---- -- ------ ------<br>--- ----- -- ----,200656.06500000285,200652.4300000019,199999.446,200008.54999999865,200016.197,200669.486,,16,to
screen,html.Screen,2_1_0_1_17,2021-04-30T12:46:16.730Z,,,,,,,,,,,,,,,,,53,,,,,,,,,,,,,,798.888999996736,,response,,,,99,,,,,,,Space,keypress(Space),,,,,,,,---- -- ----- -- ------ - ------- --- ----------<br>------------- ------ ------ ---- ---- ------- ----- -- your<br>-------- ------- -- ---------- --- - --- ----- ----- ----<br>---- --- --- ----- --- ---- ---- ------- ----- ---- -------<br>--- --- -- ----- -- --- ---- -- --- ---- -- ------ ------<br>--- ----- -- ----,201471.8700000085,201468.37499999674,200652.735,200656.2799999956,200669.486,201473.534,,17,your
screen,html.Screen,2_1_0_1_18,2021-04-30T12:46:17.338Z,,,,,,,,,,,,,,,,,53,,,,,,,,,,,,,,602.83600000976,,response,,,,99,,,,,,,Space,keypress(Space),,,,,,,,---- -- ----- -- ------ - ------- --- ----------<br>------------- ------ ------ ---- ---- ------- ----- -- ----<br>romantic ------- -- ---------- --- - --- ----- ----- ----<br>---- --- --- ----- --- ---- ---- ------- ----- ---- -------<br>--- --- -- ----- -- --- ---- -- --- ---- -- ------ ------<br>--- ----- -- ----,202080.21500000905,202076.37000000977,201456.783,201472.09999999905,201473.534,202093.321,,18,romantic
screen,html.Screen,2_1_0_1_19,2021-04-30T12:46:18.018Z,,,,,,,,,,,,,,,,,53,,,,,,,,,,,,,,663.0440000083763,,response,,,,99,,,,,,,Space,keypress(Space),,,,,,,,---- -- ----- -- ------ - ------- --- ----------<br>------------- ------ ------ ---- ---- ------- ----- -- ----<br>-------- partner -- ---------- --- - --- ----- ----- ----<br>---- --- --- ----- --- ---- ---- ------- ----- ---- -------<br>--- --- -- ----- -- --- ---- -- --- ---- -- ------ ------<br>--- ----- -- ----,202759.91500000237,202756.36500000837,202076.57,202080.4300000018,202093.321,202763.361,,19,partner
screen,html.Screen,2_1_0_1_20,2021-04-30T12:46:18.778Z,,,,,,,,,,,,,,,,,53,,,,,,,,,,,,,,753.0889999955252,,response,,,,99,,,,,,,Space,keypress(Space),,,,,,,,---- -- ----- -- ------ - ------- --- ----------<br>------------- ------ ------ ---- ---- ------- ----- -- ----<br>-------- ------- is ---------- --- - --- ----- ----- ----<br>---- --- --- ----- --- ---- ---- ------- ----- ---- -------<br>--- --- -- ----- -- --- ---- -- --- ---- -- ------ ------<br>--- ----- -- ----,203519.9799999973,203516.44999999553,202746.61,202760.1250000007,202763.361,203533.907,,20,is
screen,html.Screen,2_1_0_1_21,2021-04-30T12:46:19.729Z,,,,,,,,,,,,,,,,,53,,,,,,,,,,,,,,934.4380000011297,,response,,,,99,,,,,,,Space,keypress(Space),,,,,,,,---- -- ----- -- ------ - ------- --- ----------<br>------------- ------ ------ ---- ---- ------- ----- -- ----<br>-------- ------- -- paramount. --- - --- ----- ----- ----<br>---- --- --- ----- --- ---- ---- ------- ----- ---- -------<br>--- --- -- ----- -- --- ---- -- --- ---- -- ------ ------<br>--- ----- -- ----,204471.63,204468.34500000114,203517.156,203520.19999999902,203533.907,204488.714,,21,paramount.
screen,html.Screen,2_1_0_1_22,2021-04-30T12:46:20.402Z,,,,,,,,,,,,,,,,,53,,,,,,,,,,,,,,651.6409999958996,,response,,,,99,,,,,,,Space,keypress(Space),,,,,,,,---- -- ----- -- ------ - ------- --- ----------<br>------------- ------ ------ ---- ---- ------- ----- -- ----<br>-------- ------- -- ---------- But - --- ----- ----- ----<br>---- --- --- ----- --- ---- ---- ------- ----- ---- -------<br>--- --- -- ----- -- --- ---- -- --- ---- -- ------ ------<br>--- ----- -- ----,205143.93500000006,205140.3549999959,204471.963,204471.8450000073,204488.714,205158.754,,22,But
screen,html.Screen,2_1_0_1_23,2021-04-30T12:46:20.946Z,,,,,,,,,,,,,,,,,53,,,,,,,,,,,,,,525.6110000082699,,response,,,,99,,,,,,,Space,keypress(Space),,,,,,,,---- -- ----- -- ------ - ------- --- ----------<br>------------- ------ ------ ---- ---- ------- ----- -- ----<br>-------- ------- -- ---------- --- a --- ----- ----- ----<br>---- --- --- ----- --- ---- ---- ------- ----- ---- -------<br>--- --- -- ----- -- --- ---- -- --- ---- -- ------ ------<br>--- ----- -- ----,205687.84500000766,205684.36500000826,205142.003,205144.1449999984,205158.754,205694.786,,23,a
screen,html.Screen,2_1_0_1_24,2021-04-30T12:46:21.537Z,,,,,,,,,,,,,,,,,53,,,,,,,,,,,,,,581.5640000001004,,response,,,,99,,,,,,,Space,keypress(Space),,,,,,,,---- -- ----- -- ------ - ------- --- ----------<br>------------- ------ ------ ---- ---- ------- ----- -- ----<br>-------- ------- -- ---------- --- - new ----- ----- ----<br>---- --- --- ----- --- ---- ---- ------- ----- ---- -------<br>--- --- -- ----- -- --- ---- -- --- ---- -- ------ ------<br>--- ----- -- ----,206279.43999999843,206276.3500000001,205678.035,205688.04999999702,205694.786,206281.071,,24,new
screen,html.Screen,2_1_0_1_25,2021-04-30T12:46:22.145Z,,,,,,,,,,,,,,,,,53,,,,,,,,,,,,,,603.2739999985788,,response,,,,99,,,,,,,Space,keypress(Space),,,,,,,,---- -- ----- -- ------ - ------- --- ----------<br>------------- ------ ------ ---- ---- ------- ----- -- ----<br>-------- ------- -- ---------- --- - --- study ----- ----<br>---- --- --- ----- --- ---- ---- ------- ----- ---- -------<br>--- --- -- ----- -- --- ---- -- --- ---- -- ------ ------<br>--- ----- -- ----,206887.4999999971,206884.34499999858,206264.32,206279.65500000573,206281.071,206900.858,,25,study
screen,html.Screen,2_1_0_1_26,2021-04-30T12:46:22.602Z,,,,,,,,,,,,,,,,,53,,,,,,,,,,,,,,439.50699999637436,,response,,,,99,,,,,,,Space,keypress(Space),,,,,,,,---- -- ----- -- ------ - ------- --- ----------<br>------------- ------ ------ ---- ---- ------- ----- -- ----<br>-------- ------- -- ---------- --- - --- ----- finds ----<br>---- --- --- ----- --- ---- ---- ------- ----- ---- -------<br>--- --- -- ----- -- --- ---- -- --- ---- -- ------ ------<br>--- ----- -- ----,207343.90000000712,207340.36499999638,206884.107,206887.7199999988,206900.858,207353.135,,26,finds
screen,html.Screen,2_1_0_1_27,2021-04-30T12:46:23.154Z,,,,,,,,,,,,,,,,,53,,,,,,,,,,,,,,539.2150000091642,,response,,,,99,,,,,,,Space,keypress(Space),,,,,,,,---- -- ----- -- ------ - ------- --- ----------<br>------------- ------ ------ ---- ---- ------- ----- -- ----<br>-------- ------- -- ---------- --- - --- ----- ----- that<br>---- --- --- ----- --- ---- ---- ------- ----- ---- -------<br>--- --- -- ----- -- --- ---- -- --- ---- -- ------ ------<br>--- ----- -- ----,207895.90000000317,207892.35000000917,207336.384,207344.12000000884,207353.135,207905.918,,27,that
screen,html.Screen,2_1_0_1_28,2021-04-30T12:46:23.825Z,,,,,,,,,,,,,,,,,53,,,,,,,,,,,,,,658.4320000005537,,response,,,,99,,,,,,,Space,keypress(Space),,,,,,,,---- -- ----- -- ------ - ------- --- ----------<br>------------- ------ ------ ---- ---- ------- ----- -- ----<br>-------- ------- -- ---------- --- - --- ----- ----- ----<br>it's --- --- ----- --- ---- ---- ------- ----- ---- -------<br>--- --- -- ----- -- --- ---- -- --- ---- -- ------ ------<br>--- ----- -- ----,208567.6150000072,208564.35000000056,207889.167,207896.1249999993,207905.918,208575.958,,28,it's
screen,html.Screen,2_1_0_1_29,2021-04-30T12:46:24.281Z,,,,,,,,,,,,,,,,,53,,,,,,,,,,,,,,444.287000006967,,response,,,,99,,,,,,,Space,keypress(Space),,,,,,,,---- -- ----- -- ------ - ------- --- ----------<br>------------- ------ ------ ---- ---- ------- ----- -- ----<br>-------- ------- -- ---------- --- - --- ----- ----- ----<br>---- not --- ----- --- ---- ---- ------- ----- ---- -------<br>--- --- -- ----- -- --- ---- -- --- ---- -- ------ ------<br>--- ----- -- ----,209023.33999999973,209020.24500000698,208559.207,208567.82500000554,208575.958,209029.053,,29,not
screen,html.Screen,2_1_0_1_30,2021-04-30T12:46:25.145Z,,,,,,,,,,,,,,,,,53,,,,,,,,,,,,,,855.1619999982067,,response,,,,99,,,,,,,Space,keypress(Space),,,,,,,,---- -- ----- -- ------ - ------- --- ----------<br>------------- ------ ------ ---- ---- ------- ----- -- ----<br>-------- ------- -- ---------- --- - --- ----- ----- ----<br>---- --- how ----- --- ---- ---- ------- ----- ---- -------<br>--- --- -- ----- -- --- ---- -- --- ---- -- ------ ------<br>--- ----- -- ----,209886.94500000565,209884.21499999822,209012.302,209023.55500000704,209029.053,209900.105,,30,how
screen,html.Screen,2_1_0_1_31,2021-04-30T12:46:25.792Z,,,,,,,,,,,,,,,,,53,,,,,,,,,,,,,,632.1249999970605,,response,,,,99,,,,,,,Space,keypress(Space),,,,,,,,---- -- ----- -- ------ - ------- --- ----------<br>------------- ------ ------ ---- ---- ------- ----- -- ----<br>-------- ------- -- ---------- --- - --- ----- ----- ----<br>---- --- --- close --- ---- ---- ------- ----- ---- -------<br>--- --- -- ----- -- --- ---- -- --- ---- -- ------ ------<br>--- ----- -- ----,210534.50999999768,210532.22999999707,209883.354,209887.0900000038,209900.105,210536.643,,31,close
screen,html.Screen,2_1_0_1_32,2021-04-30T12:46:26.417Z,,,,,,,,,,,,,,,,,53,,,,,,,,,,,,,,619.7170000081242,,response,,,,99,,,,,,,Space,keypress(Space),,,,,,,,---- -- ----- -- ------ - ------- --- ----------<br>------------- ------ ------ ---- ---- ------- ----- -- ----<br>-------- ------- -- ---------- --- - --- ----- ----- ----<br>---- --- --- ----- you ---- ---- ------- ----- ---- -------<br>--- --- -- ----- -- --- ---- -- --- ---- -- ------ ------<br>--- ----- -- ----,211159.83499999857,211156.36000000814,210519.892,210534.6600000048,210536.643,211173.181,,32,you
screen,html.Screen,2_1_0_1_33,2021-04-30T12:46:26.865Z,,,,,,,,,,,,,,,,,53,,,,,,,,,,,,,,431.1789999975299,,response,,,,99,,,,,,,Space,keypress(Space),,,,,,,,---- -- ----- -- ------ - ------- --- ----------<br>------------- ------ ------ ---- ---- ------- ----- -- ----<br>-------- ------- -- ---------- --- - --- ----- ----- ----<br>---- --- --- ----- --- feel ---- ------- ----- ---- -------<br>--- --- -- ----- -- --- ---- -- --- ---- -- ------ ------<br>--- ----- -- ----,211607.74999999558,211604.35999999754,211156.43,211160.05000000587,211173.181,211625.458,,33,feel
screen,html.Screen,2_1_0_1_34,2021-04-30T12:46:27.512Z,,,,,,,,,,,,,,,,,53,,,,,,,,,,,,,,626.8619999995863,,response,,,,99,,,,,,,Space,keypress(Space),,,,,,,,---- -- ----- -- ------ - ------- --- ----------<br>------------- ------ ------ ---- ---- ------- ----- -- ----<br>-------- ------- -- ---------- --- - --- ----- ----- ----<br>---- --- --- ----- --- ---- that ------- ----- ---- -------<br>--- --- -- ----- -- --- ---- -- --- ---- -- ------ ------<br>--- ----- -- ----,212254.3949999963,212252.3199999996,211608.707,211609.45499999798,211625.458,212261.996,,34,that
screen,html.Screen,2_1_0_1_35,2021-04-30T12:46:27.913Z,,,,,,,,,,,,,,,,,53,,,,,,,,,,,,,,390.2790000003588,,response,,,,99,,,,,,,Space,keypress(Space),,,,,,,,---- -- ----- -- ------ - ------- --- ----------<br>------------- ------ ------ ---- ---- ------- ----- -- ----<br>-------- ------- -- ---------- --- - --- ----- ----- ----<br>---- --- --- ----- --- ---- ---- matters ----- ---- -------<br>--- --- -- ----- -- --- ---- -- --- ---- -- ------ ------<br>--- ----- -- ----,212655.46500000346,212652.27500000037,212245.245,212254.56000000122,212261.996,212664.02,,35,matters
screen,html.Screen,2_1_0_1_36,2021-04-30T12:46:28.713Z,,,,,,,,,,,,,,,,,53,,,,,,,,,,,,,,788.2849999988975,,response,,,,99,,,,,,,Space,keypress(Space),,,,,,,,"---- -- ----- -- ------ - ------- --- ----------<br>------------- ------ ------ ---- ---- ------- ----- -- ----<br>-------- ------- -- ---------- --- - --- ----- ----- ----<br>---- --- --- ----- --- ---- ---- ------- most, ---- -------<br>--- --- -- ----- -- --- ---- -- --- ---- -- ------ ------<br>--- ----- -- ----",213455.69499999692,213452.3049999989,212647.269,212656.5499999997,212664.02,213468.068,,36,"most,"
screen,html.Screen,2_1_0_1_37,2021-04-30T12:46:29.369Z,,,,,,,,,,,,,,,,,53,,,,,,,,,,,,,,640.306999996159,,response,,,,99,,,,,,,Space,keypress(Space),,,,,,,,---- -- ----- -- ------ - ------- --- ----------<br>------------- ------ ------ ---- ---- ------- ----- -- ----<br>-------- ------- -- ---------- --- - --- ----- ----- ----<br>---- --- --- ----- --- ---- ---- ------- ----- it's -------<br>--- --- -- ----- -- --- ---- -- --- ---- -- ------ ------<br>--- ----- -- ----,214111.9100000069,214108.37499999616,213451.317,213455.9350000054,213468.068,214121.357,,37,it's
screen,html.Screen,2_1_0_1_38,2021-04-30T12:46:30.010Z,,,,,,,,,,,,,,,,,53,,,,,,,,,,,,,,627.0480000057432,,response,,,,99,,,,,,,Space,keypress(Space),,,,,,,,---- -- ----- -- ------ - ------- --- ----------<br>------------- ------ ------ ---- ---- ------- ----- -- ----<br>-------- ------- -- ---------- --- - --- ----- ----- ----<br>---- --- --- ----- --- ---- ---- ------- ----- ---- whether<br>--- --- -- ----- -- --- ---- -- --- ---- -- ------ ------<br>--- ----- -- ----,214752.07000000228,214748.40500000573,214104.606,214112.11000000185,214121.357,214757.895,,38,whether
screen,html.Screen,2_1_0_1_39,2021-04-30T12:46:30.745Z,,,,,,,,,,,,,,,,,53,,,,,,,,,,,,,,726.3200000040524,,response,,,,99,,,,,,,Space,keypress(Space),,,,,,,,---- -- ----- -- ------ - ------- --- ----------<br>------------- ------ ------ ---- ---- ------- ----- -- ----<br>-------- ------- -- ---------- --- - --- ----- ----- ----<br>---- --- --- ----- --- ---- ---- ------- ----- ---- -------<br>you --- -- ----- -- --- ---- -- --- ---- -- ------ ------<br>--- ----- -- ----,215487.47999999614,215484.21500000404,214741.144,214752.2800000006,214757.895,215494.939,,39,you
screen,html.Screen,2_1_0_1_40,2021-04-30T12:46:31.385Z,,,,,,,,,,,,,,,,,53,,,,,,,,,,,,,,629.5009999995818,,response,,,,99,,,,,,,Space,keypress(Space),,,,,,,,---- -- ----- -- ------ - ------- --- ----------<br>------------- ------ ------ ---- ---- ------- ----- -- ----<br>-------- ------- -- ---------- --- - --- ----- ----- ----<br>---- --- --- ----- --- ---- ---- ------- ----- ---- -------<br>--- are -- ----- -- --- ---- -- --- ---- -- ------ ------<br>--- ----- -- ----,216127.76499999745,216124.4399999996,215478.188,215487.68500000006,215494.939,216131.477,,40,are
screen,html.Screen,2_1_0_1_41,2021-04-30T12:46:32.008Z,,,,,,,,,,,,,,,,,53,,,,,,,,,,,,,,616.5979999958654,,response,,,,99,,,,,,,Space,keypress(Space),,,,,,,,---- -- ----- -- ------ - ------- --- ----------<br>------------- ------ ------ ---- ---- ------- ----- -- ----<br>-------- ------- -- ---------- --- - --- ----- ----- ----<br>---- --- --- ----- --- ---- ---- ------- ----- ---- -------<br>--- --- as ----- -- --- ---- -- --- ---- -- ------ ------<br>--- ----- -- ----,216750.38500000664,216748.07499999588,216114.726,216127.97000000137,216131.477,216751.264,,41,as
screen,html.Screen,2_1_0_1_42,2021-04-30T12:46:32.457Z,,,,,,,,,,,,,,,,,53,,,,,,,,,,,,,,444.98099999918486,,response,,,,99,,,,,,,Space,keypress(Space),,,,,,,,---- -- ----- -- ------ - ------- --- ----------<br>------------- ------ ------ ---- ---- ------- ----- -- ----<br>-------- ------- -- ---------- --- - --- ----- ----- ----<br>---- --- --- ----- --- ---- ---- ------- ----- ---- -------<br>--- --- -- close -- --- ---- -- --- ---- -- ------ ------<br>--- ----- -- ----,217199.52000000922,217196.24499999918,216734.513,216750.53499999922,216751.264,217203.541,,42,close
screen,html.Screen,2_1_0_1_43,2021-04-30T12:46:33.033Z,,,,,,,,,,,,,,,,,53,,,,,,,,,,,,,,568.8190000026661,,response,,,,99,,,,,,,Space,keypress(Space),,,,,,,,---- -- ----- -- ------ - ------- --- ----------<br>------------- ------ ------ ---- ---- ------- ----- -- ----<br>-------- ------- -- ---------- --- - --- ----- ----- ----<br>---- --- --- ----- --- ---- ---- ------- ----- ---- -------<br>--- --- -- ----- as --- ---- -- --- ---- -- ------ ------<br>--- ----- -- ----,217775.83500000765,217772.36000000266,217186.79,217199.73000000755,217203.541,217789.826,,43,as
screen,html.Screen,2_1_0_1_44,2021-04-30T12:46:33.513Z,,,,,,,,,,,,,,,,,53,,,,,,,,,,,,,,462.4540000006091,,response,,,,99,,,,,,,Space,keypress(Space),,,,,,,,---- -- ----- -- ------ - ------- --- ----------<br>------------- ------ ------ ---- ---- ------- ----- -- ----<br>-------- ------- -- ---------- --- - --- ----- ----- ----<br>---- --- --- ----- --- ---- ---- ------- ----- ---- -------<br>--- --- -- ----- -- you ---- -- --- ---- -- ------ ------<br>--- ----- -- ----,218255.40500000352,218252.2800000006,217773.075,217776.0350000026,217789.826,218258.854,,44,you
screen,html.Screen,2_1_0_1_45,2021-04-30T12:46:34.010Z,,,,,,,,,,,,,,,,,53,,,,,,,,,,,,,,489.52099999558413,,response,,,,99,,,,,,,Space,keypress(Space),,,,,,,,---- -- ----- -- ------ - ------- --- ----------<br>------------- ------ ------ ---- ---- ------- ----- -- ----<br>-------- ------- -- ---------- --- - --- ----- ----- ----<br>---- --- --- ----- --- ---- ---- ------- ----- ---- -------<br>--- --- -- ----- -- --- want -- --- ---- -- ------ ------<br>--- ----- -- ----,218752.20499999705,218748.37499999558,218242.103,218255.61000000744,218258.854,218761.384,,45,want
screen,html.Screen,2_1_0_1_46,2021-04-30T12:46:34.529Z,,,,,,,,,,,,,,,,,53,,,,,,,,,,,,,,506.9860000052431,,response,,,,99,,,,,,,Space,keypress(Space),,,,,,,,---- -- ----- -- ------ - ------- --- ----------<br>------------- ------ ------ ---- ---- ------- ----- -- ----<br>-------- ------- -- ---------- --- - --- ----- ----- ----<br>---- --- --- ----- --- ---- ---- ------- ----- ---- -------<br>--- --- -- ----- -- --- ---- to --- ---- -- ------ ------<br>--- ----- -- ----,219271.73000000766,219268.37000000523,218744.633,218752.42000000435,218761.384,219281.46,,46,to
screen,html.Screen,2_1_0_1_47,2021-04-30T12:46:35.017Z,,,,,,,,,,,,,,,,,53,,,,,,,,,,,,,,474.9700000085577,,response,,,,99,,,,,,,Space,keypress(Space),,,,,,,,"---- -- ----- -- ------ - ------- --- ----------<br>------------- ------ ------ ---- ---- ------- ----- -- ----<br>-------- ------- -- ---------- --- - --- ----- ----- ----<br>---- --- --- ----- --- ---- ---- ------- ----- ---- -------<br>--- --- -- ----- -- --- ---- -- be, ---- -- ------ ------<br>--- ----- -- ----",219759.92500000575,219756.43000000855,219264.709,219271.91999999923,219281.46,219767.239,,47,"be,"
screen,html.Screen,2_1_0_1_48,2021-04-30T12:46:35.513Z,,,,,,,,,,,,,,,,,53,,,,,,,,,,,,,,485.16099999757716,,response,,,,99,,,,,,,Space,keypress(Space),,,,,,,,---- -- ----- -- ------ - ------- --- ----------<br>------------- ------ ------ ---- ---- ------- ----- -- ----<br>-------- ------- -- ---------- --- - --- ----- ----- ----<br>---- --- --- ----- --- ---- ---- ------- ----- ---- -------<br>--- --- -- ----- -- --- ---- -- --- even -- ------ ------<br>--- ----- -- ----,220255.69000000542,220252.39999999758,219750.488,219760.1100000029,219767.239,220269.769,,48,even
screen,html.Screen,2_1_0_1_49,2021-04-30T12:46:36.066Z,,,,,,,,,,,,,,,,,53,,,,,,,,,,,,,,534.5960000035993,,response,,,,99,,,,,,,Space,keypress(Space),,,,,,,,---- -- ----- -- ------ - ------- --- ----------<br>------------- ------ ------ ---- ---- ------- ----- -- ----<br>-------- ------- -- ---------- --- - --- ----- ----- ----<br>---- --- --- ----- --- ---- ---- ------- ----- ---- -------<br>--- --- -- ----- -- --- ---- -- --- ---- if ------ ------<br>--- ----- -- ----,220808.35999999545,220804.3650000036,220253.018,220255.87999999698,220269.769,220822.552,,49,if
screen,html.Screen,2_1_0_1_50,2021-04-30T12:46:36.593Z,,,,,,,,,,,,,,,,,53,,,,,,,,,,,,,,509.7979999969539,,response,,,,99,,,,,,,Space,keypress(Space),,,,,,,,---- -- ----- -- ------ - ------- --- ----------<br>------------- ------ ------ ---- ---- ------- ----- -- ----<br>-------- ------- -- ---------- --- - --- ----- ----- ----<br>---- --- --- ----- --- ---- ---- ------- ----- ---- -------<br>--- --- -- ----- -- --- ---- -- --- ---- -- that's ------<br>--- ----- -- ----,221335.55499999784,221332.34999999695,220805.801,220808.55499999598,220822.552,221341.833,,50,that's
screen,html.Screen,2_1_0_1_51,2021-04-30T12:46:37.105Z,,,,,,,,,,,,,,,,,53,,,,,,,,,,,,,,502.5270000027667,,response,,,,99,,,,,,,Space,keypress(Space),,,,,,,,---- -- ----- -- ------ - ------- --- ----------<br>------------- ------ ------ ---- ---- ------- ----- -- ----<br>-------- ------- -- ---------- --- - --- ----- ----- ----<br>---- --- --- ----- --- ---- ---- ------- ----- ---- -------<br>--- --- -- ----- -- --- ---- -- --- ---- -- ------ really<br>--- ----- -- ----,221847.90500000236,221844.36000000278,221325.082,221335.74999999837,221341.833,221861.114,,51,really
screen,html.Screen,2_1_0_1_52,2021-04-30T12:46:37.593Z,,,,,,,,,,,,,,,,,53,,,,,,,,,,,,,,471.33600000169827,,response,,,,99,,,,,,,Space,keypress(Space),,,,,,,,---- -- ----- -- ------ - ------- --- ----------<br>------------- ------ ------ ---- ---- ------- ----- -- ----<br>-------- ------- -- ---------- --- - --- ----- ----- ----<br>---- --- --- ----- --- ---- ---- ------- ----- ---- -------<br>--- --- -- ----- -- --- ---- -- --- ---- -- ------ ------<br>not ----- -- ----,222335.95000000787,222332.4500000017,221844.363,221848.1000000029,221861.114,222346.893,,52,not
screen,html.Screen,2_1_0_1_53,2021-04-30T12:46:38.265Z,,,,,,,,,,,,,,,,,53,,,,,,,,,,,,,,657.4820000040636,,response,,,,99,,,,,,,Space,keypress(Space),,,,,,,,---- -- ----- -- ------ - ------- --- ----------<br>------------- ------ ------ ---- ---- ------- ----- -- ----<br>-------- ------- -- ---------- --- - --- ----- ----- ----<br>---- --- --- ----- --- ---- ---- ------- ----- ---- -------<br>--- --- -- ----- -- --- ---- -- --- ---- -- ------ ------<br>--- close -- ----,223007.85500000347,223004.37500000407,222330.142,222336.13999999943,222346.893,223016.933,,53,close
screen,html.Screen,2_1_0_1_54,2021-04-30T12:46:38.801Z,,,,,,,,,,,,,,,,,53,,,,,,,,,,,,,,523.4320000080334,,response,,,,99,,,,,,,Space,keypress(Space),,,,,,,,---- -- ----- -- ------ - ------- --- ----------<br>------------- ------ ------ ---- ---- ------- ----- -- ----<br>-------- ------- -- ---------- --- - --- ----- ----- ----<br>---- --- --- ----- --- ---- ---- ------- ----- ---- -------<br>--- --- -- ----- -- --- ---- -- --- ---- -- ------ ------<br>--- ----- at ----,223543.74000000826,223540.36500000802,223000.182,223008.0450000096,223016.933,223552.965,,54,at
screen,html.Screen,2_1_0_1_55,2021-04-30T12:46:40.353Z,,,,,,,,,,,,,,,,,53,,,,,,,,,,,,,,1539.395000009652,,response,,,,99,,,,,,,Space,keypress(Space),,,,,,,,---- -- ----- -- ------ - ------- --- ----------<br>------------- ------ ------ ---- ---- ------- ----- -- ----<br>-------- ------- -- ---------- --- - --- ----- ----- ----<br>---- --- --- ----- --- ---- ---- ------- ----- ---- -------<br>--- --- -- ----- -- --- ---- -- --- ---- -- ------ ------<br>--- ----- -- all.,225095.84999999788,225092.36000000965,223536.214,223543.9350000088,223552.965,225110.808,,55,all.
Item 99,flow.Loop,2_1_0_1,2021-04-30T12:46:40.353Z,,,,,,,,,,,,,,,,,,,,,,,,,,,,,,,37054.90000000966,,completion,,,,,E,,,,,,,,,,,silence,,,,,225096.27500000352,225092.36000000965,188020.709,188023.3850000077,188037.46,225110.808,,,
Question 1,html.Screen,2_1_0_2,2021-04-30T12:46:49.030Z,,,,,,,,,,,,,,,,,,,,,,,,,,,,true,FALSE,,8658.53199999893,,response,,,,99,E,,,,,,FALSE,click #choice-2,,,,silence,,,,,233773.0900000024,233769.33999999892,225094.057,225096.46500000963,225110.808,233788.862,,,
Question 2,html.Screen,2_1_0_3,2021-04-30T12:46:58.044Z,,,,,,,,,,,,,,,,,,,,,,,,,,,,true,TRUE,,8996.343000007415,,response,,,,99,E,,,,,,TRUE,click #choice-1,,,,silence,,,,,242787.35500000766,242785.2050000074,233772.111,233773.23000000615,233788.862,242801.644,,,
Item 99,flow.Sequence,2_1_0,2021-04-30T12:46:58.044Z,,,,,,,,,,,,,,,,,,,,,,,,,,,,,,,64748.0920000074,,completion,,,,,,,,,,,,,,,,,,,,,242787.5400000048,242785.2050000074,178020.362,178028.17499999946,178037.113,242801.644,,,
Holding screen,html.Screen,2_1_1_0,2021-04-30T12:47:08.046Z,,,,,,,,,,,,,,,,,,,,,,,,,,,,,,,10001.271999999997,,timeout,,,,,,,,,,,,,,,,,,,,,252789.15500000585,252786.165,242784.893,242787.67000000516,242801.644,252802.916,,,
screen,html.Screen,2_1_1_1_0,2021-04-30T12:47:08.802Z,,,,,,,,,,,,,,,,,54,,,,,,,,,,,,,,737.4540000024426,,response,,,,100,,,,,,,Space,keypress(Space),,,,,,,,At --- ---- --- ------ ----- ------- ---- -- --- ------- --<br>------- ---------- ------ -- ----- -- ----- -- ---- ------<br>--- ----- --- --- ------ -------- ----- --- ------ ----- --<br>----- ----- ---------- --- --- ------ ------ ---- -- ------<br>------- --- ------ ----- --- ---- ------- -- ---- --- --<br>------- ------,253545.16000000876,253540.37000000244,252786.165,252789.44999999658,252802.916,253556.711,,0,At
screen,html.Screen,2_1_1_1_1,2021-04-30T12:47:09.600Z,,,,,,,,,,,,,,,,,54,,,,,,,,,,,,,,783.6340000041528,,response,,,,100,,,,,,,Space,keypress(Space),,,,,,,,-- the ---- --- ------ ----- ------- ---- -- --- ------- --<br>------- ---------- ------ -- ----- -- ----- -- ---- ------<br>--- ----- --- --- ------ -------- ----- --- ------ ----- --<br>----- ----- ---------- --- --- ------ ------ ---- -- ------<br>------- --- ------ ----- --- ---- ------- -- ---- --- --<br>------- ------,254343.76000000339,254340.34500000416,253539.96,253545.3600000037,253556.711,254360.759,,1,the
screen,html.Screen,2_1_1_1_2,2021-04-30T12:47:10.232Z,,,,,,,,,,,,,,,,,54,,,,,,,,,,,,,,611.6060000087309,,response,,,,100,,,,,,,Space,keypress(Space),,,,,,,,-- --- time --- ------ ----- ------- ---- -- --- ------- --<br>------- ---------- ------ -- ----- -- ----- -- ---- ------<br>--- ----- --- --- ------ -------- ----- --- ------ ----- --<br>----- ----- ---------- --- --- ------ ------ ---- -- ------<br>------- --- ------ ----- --- ---- ------- -- ---- --- --<br>------- ------,254975.9950000007,254972.36500000872,254344.008,254343.9500000095,254360.759,254980.546,,2,time
screen,html.Screen,2_1_1_1_3,2021-04-30T12:47:10.648Z,,,,,,,,,,,,,,,,,54,,,,,,,,,,,,,,407.8789999973669,,response,,,,100,,,,,,,Space,keypress(Space),,,,,,,,-- --- ---- the ------ ----- ------- ---- -- --- ------- --<br>------- ---------- ------ -- ----- -- ----- -- ---- ------<br>--- ----- --- --- ------ -------- ----- --- ------ ----- --<br>----- ----- ---------- --- --- ------ ------ ---- -- ------<br>------- --- ------ ----- --- ---- ------- -- ---- --- --<br>------- ------,255391.88999999897,255388.42499999737,254963.795,254976.210000008,254980.546,255399.321,,3,the
screen,html.Screen,2_1_1_1_4,2021-04-30T12:47:11.129Z,,,,,,,,,,,,,,,,,54,,,,,,,,,,,,,,469.138999997871,,response,,,,100,,,,,,,Space,keypress(Space),,,,,,,,-- --- ---- --- French ----- ------- ---- -- --- ------- --<br>------- ---------- ------ -- ----- -- ----- -- ---- ------<br>--- ----- --- --- ------ -------- ----- --- ------ ----- --<br>----- ----- ---------- --- --- ------ ------ ---- -- ------<br>------- --- ------ ----- --- ---- ------- -- ---- --- --<br>------- ------,255872.05499999982,255868.45999999787,255382.57,255392.0749999961,255399.321,255885.1,,4,French
screen,html.Screen,2_1_1_1_5,2021-04-30T12:47:11.792Z,,,,,,,,,,,,,,,,,54,,,,,,,,,,,,,,647.2500000085856,,response,,,,100,,,,,,,Space,keypress(Space),,,,,,,,-- --- ---- --- ------ crown ------- ---- -- --- ------- --<br>------- ---------- ------ -- ----- -- ----- -- ---- ------<br>--- ----- --- --- ------ -------- ----- --- ------ ----- --<br>----- ----- ---------- --- --- ------ ------ ---- -- ------<br>------- --- ------ ----- --- ---- ------- -- ---- --- --<br>------- ------,256535.53999999713,256532.3500000086,255868.349,255872.24500000593,255885.1,256538.389,,5,crown
screen,html.Screen,2_1_1_1_6,2021-04-30T12:47:12.288Z,,,,,,,,,,,,,,,,,54,,,,,,,,,,,,,,489.9709999966144,,response,,,,100,,,,,,,Space,keypress(Space),,,,,,,,-- --- ---- --- ------ ----- secured ---- -- --- ------- --<br>------- ---------- ------ -- ----- -- ----- -- ---- ------<br>--- ----- --- --- ------ -------- ----- --- ------ ----- --<br>----- ----- ---------- --- --- ------ ------ ---- -- ------<br>------- --- ------ ----- --- ---- ------- -- ---- --- --<br>------- ------,257031.73000000243,257028.3599999966,256521.638,256535.73000000324,256538.389,257040.919,,6,secured
screen,html.Screen,2_1_1_1_7,2021-04-30T12:47:12.761Z,,,,,,,,,,,,,,,,,54,,,,,,,,,,,,,,459.5460000046296,,response,,,,100,,,,,,,Space,keypress(Space),,,,,,,,-- --- ---- --- ------ ----- ------- much -- --- ------- --<br>------- ---------- ------ -- ----- -- ----- -- ---- ------<br>--- ----- --- --- ------ -------- ----- --- ------ ----- --<br>----- ----- ---------- --- --- ------ ------ ---- -- ------<br>------- --- ------ ----- --- ---- ------- -- ---- --- --<br>------- ------,257504.065000001,257500.46500000462,257024.168,257031.92000000854,257040.919,257509.947,,7,much
screen,html.Screen,2_1_1_1_8,2021-04-30T12:47:13.216Z,,,,,,,,,,,,,,,,,54,,,,,,,,,,,,,,446.40300000767456,,response,,,,100,,,,,,,Space,keypress(Space),,,,,,,,-- --- ---- --- ------ ----- ------- ---- of --- ------- --<br>------- ---------- ------ -- ----- -- ----- -- ---- ------<br>--- ----- --- --- ------ -------- ----- --- ------ ----- --<br>----- ----- ---------- --- --- ------ ------ ---- -- ------<br>------- --- ------ ----- --- ---- ------- -- ---- --- --<br>------- ------,257959.76500000688,257956.35000000766,257493.196,257504.26499999594,257509.947,257962.224,,8,of
screen,html.Screen,2_1_1_1_9,2021-04-30T12:47:13.768Z,,,,,,,,,,,,,,,,,54,,,,,,,,,,,,,,546.1459999959334,,response,,,,100,,,,,,,Space,keypress(Space),,,,,,,,-- --- ---- --- ------ ----- ------- ---- -- its ------- --<br>------- ---------- ------ -- ----- -- ----- -- ---- ------<br>--- ----- --- --- ------ -------- ----- --- ------ ----- --<br>----- ----- ---------- --- --- ------ ------ ---- -- ------<br>------- --- ------ ----- --- ---- ------- -- ---- --- --<br>------- ------,258511.92000000447,258508.36999999592,257945.473,257959.95499999844,257962.224,258515.007,,9,its
screen,html.Screen,2_1_1_1_10,2021-04-30T12:47:14.456Z,,,,,,,,,,,,,,,,,54,,,,,,,,,,,,,,681.4580000008864,,response,,,,100,,,,,,,Space,keypress(Space),,,,,,,,-- --- ---- --- ------ ----- ------- ---- -- --- revenue --<br>------- ---------- ------ -- ----- -- ----- -- ---- ------<br>--- ----- --- --- ------ -------- ----- --- ------ ----- --<br>----- ----- ---------- --- --- ------ ------ ---- -- ------<br>------- --- ------ ----- --- ---- ------- -- ---- --- --<br>------- ------,259199.9849999993,259196.4650000009,258498.256,258512.10999999603,258515.007,259201.798,,10,revenue
screen,html.Screen,2_1_1_1_11,2021-04-30T12:47:15.032Z,,,,,,,,,,,,,,,,,54,,,,,,,,,,,,,,570.5970000072266,,response,,,,100,,,,,,,Space,keypress(Space),,,,,,,,-- --- ---- --- ------ ----- ------- ---- -- --- ------- by<br>------- ---------- ------ -- ----- -- ----- -- ---- ------<br>--- ----- --- --- ------ -------- ----- --- ------ ----- --<br>----- ----- ---------- --- --- ------ ------ ---- -- ------<br>------- --- ------ ----- --- ---- ------- -- ---- --- --<br>------- ------,259775.97000000242,259772.39500000724,259185.047,259200.1750000054,259201.798,259788.083,,11,by
screen,html.Screen,2_1_1_1_12,2021-04-30T12:47:15.576Z,,,,,,,,,,,,,,,,,54,,,,,,,,,,,,,,528.3770000018121,,response,,,,100,,,,,,,Space,keypress(Space),,,,,,,,-- --- ---- --- ------ ----- ------- ---- -- --- ------- --<br>issuing ---------- ------ -- ----- -- ----- -- ---- ------<br>--- ----- --- --- ------ -------- ----- --- ------ ----- --<br>----- ----- ---------- --- --- ------ ------ ---- -- ------<br>------- --- ------ ----- --- ---- ------- -- ---- --- --<br>------- ------,260320.074999996,260316.46000000183,259771.332,259776.16500000295,259788.083,260324.115,,12,issuing
screen,html.Screen,2_1_1_1_13,2021-04-30T12:47:16.200Z,,,,,,,,,,,,,,,,,54,,,,,,,,,,,,,,616.3250000057742,,response,,,,100,,,,,,,Space,keypress(Space),,,,,,,,-- --- ---- --- ------ ----- ------- ---- -- --- ------- --<br>------- government ------ -- ----- -- ----- -- ---- ------<br>--- ----- --- --- ------ -------- ----- --- ------ ----- --<br>----- ----- ---------- --- --- ------ ------ ---- -- ------<br>------- --- ------ ----- --- ---- ------- -- ---- --- --<br>------- ------,260943.855000005,260940.44000000576,260307.364,260320.2650000021,260324.115,260960.653,,13,government
screen,html.Screen,2_1_1_1_14,2021-04-30T12:47:16.920Z,,,,,,,,,,,,,,,,,54,,,,,,,,,,,,,,699.7720000091358,,response,,,,100,,,,,,,Space,keypress(Space),,,,,,,,-- --- ---- --- ------ ----- ------- ---- -- --- ------- --<br>------- ---------- bonds. -- ----- -- ----- -- ---- ------<br>--- ----- --- --- ------ -------- ----- --- ------ ----- --<br>----- ----- ---------- --- --- ------ ------ ---- -- ------<br>------- --- ------ ----- --- ---- ------- -- ---- --- --<br>------- ------,261663.99000000092,261660.42500000913,260943.902,260944.04000000213,260960.653,261665.028,,14,bonds.
screen,html.Screen,2_1_1_1_15,2021-04-30T12:47:17.640Z,,,,,,,,,,,,,,,,,54,,,,,,,,,,,,,,715.396999995748,,response,,,,100,,,,,,,Space,keypress(Space),,,,,,,,-- --- ---- --- ------ ----- ------- ---- -- --- ------- --<br>------- ---------- ------ In ----- -- ----- -- ---- ------<br>--- ----- --- --- ------ -------- ----- --- ------ ----- --<br>----- ----- ---------- --- --- ------ ------ ---- -- ------<br>------- --- ------ ----- --- ---- ------- -- ---- --- --<br>------- ------,262383.88999999734,262380.42499999574,261648.277,261664.18500000145,261665.028,262385.321,,15,In
screen,html.Screen,2_1_1_1_16,2021-04-30T12:47:19.392Z,,,,,,,,,,,,,,,,,54,,,,,,,,,,,,,,1747.028999999864,,response,,,,100,,,,,,,Space,keypress(Space),,,,,,,,"-- --- ---- --- ------ ----- ------- ---- -- --- ------- --<br>------- ---------- ------ -- 1727, -- ----- -- ---- ------<br>--- ----- --- --- ------ -------- ----- --- ------ ----- --<br>----- ----- ---------- --- --- ------ ------ ---- -- ------<br>------- --- ------ ----- --- ---- ------- -- ---- --- --<br>------- ------",264136.12500000454,264132.34999999986,262368.57,262384.08499999787,262385.321,264144.176,,16,"1727,"
screen,html.Screen,2_1_1_1_17,2021-04-30T12:47:20.208Z,,,,,,,,,,,,,,,,,54,,,,,,,,,,,,,,804.168999997084,,response,,,,100,,,,,,,Space,keypress(Space),,,,,,,,-- --- ---- --- ------ ----- ------- ---- -- --- ------- --<br>------- ---------- ------ -- ----- in ----- -- ---- ------<br>--- ----- --- --- ------ -------- ----- --- ------ ----- --<br>----- ----- ---------- --- --- ------ ------ ---- -- ------<br>------- --- ------ ----- --- ---- ------- -- ---- --- --<br>------- ------,264951.9149999978,264948.34499999706,264127.425,264136.3200000051,264144.176,264964.975,,17,in
screen,html.Screen,2_1_1_1_18,2021-04-30T12:47:20.904Z,,,,,,,,,,,,,,,,,54,,,,,,,,,,,,,,679.4900000048801,,response,,,,100,,,,,,,Space,keypress(Space),,,,,,,,-- --- ---- --- ------ ----- ------- ---- -- --- ------- --<br>------- ---------- ------ -- ----- -- order -- ---- ------<br>--- ----- --- --- ------ -------- ----- --- ------ ----- --<br>----- ----- ---------- --- --- ------ ------ ---- -- ------<br>------- --- ------ ----- --- ---- ------- -- ---- --- --<br>------- ------,265648.06999999564,265644.46500000486,264948.224,264952.10500000394,264964.975,265651.766,,18,order
screen,html.Screen,2_1_1_1_19,2021-04-30T12:47:21.364Z,,,,,,,,,,,,,,,,,54,,,,,,,,,,,,,,448.5990000056918,,response,,,,100,,,,,,,Space,keypress(Space),,,,,,,,-- --- ---- --- ------ ----- ------- ---- -- --- ------- --<br>------- ---------- ------ -- ----- -- ----- to ---- ------<br>--- ----- --- --- ------ -------- ----- --- ------ ----- --<br>----- ----- ---------- --- --- ------ ------ ---- -- ------<br>------- --- ------ ----- --- ---- ------- -- ---- --- --<br>------- ------,266107.4349999981,266100.3650000057,265635.015,265648.26000000176,265651.766,266120.794,,19,to
screen,html.Screen,2_1_1_1_20,2021-04-30T12:47:21.944Z,,,,,,,,,,,,,,,,,54,,,,,,,,,,,,,,563.6110000072513,,response,,,,100,,,,,,,Space,keypress(Space),,,,,,,,-- --- ---- --- ------ ----- ------- ---- -- --- ------- --<br>------- ---------- ------ -- ----- -- ----- -- save ------<br>--- ----- --- --- ------ -------- ----- --- ------ ----- --<br>----- ----- ---------- --- --- ------ ------ ---- -- ------<br>------- --- ------ ----- --- ---- ------- -- ---- --- --<br>------- ------,266687.7450000029,266684.40500000725,266104.043,266107.56499999843,266120.794,266690.328,,20,save
screen,html.Screen,2_1_1_1_21,2021-04-30T12:47:22.536Z,,,,,,,,,,,,,,,,,54,,,,,,,,,,,,,,586.0970000036759,,response,,,,100,,,,,,,Space,keypress(Space),,,,,,,,"-- --- ---- --- ------ ----- ------- ---- -- --- ------- --<br>------- ---------- ------ -- ----- -- ----- -- ---- money,<br>--- ----- --- --- ------ -------- ----- --- ------ ----- --<br>----- ----- ---------- --- --- ------ ------ ---- -- ------<br>------- --- ------ ----- --- ---- ------- -- ---- --- --<br>------- ------",267279.86500000407,267276.42500000366,266673.577,266687.935000009,266690.328,267293.364,,21,"money,"
screen,html.Screen,2_1_1_1_22,2021-04-30T12:47:23.152Z,,,,,,,,,,,,,,,,,54,,,,,,,,,,,,,,599.0010000069742,,response,,,,100,,,,,,,Space,keypress(Space),,,,,,,,-- --- ---- --- ------ ----- ------- ---- -- --- ------- --<br>------- ---------- ------ -- ----- -- ----- -- ---- ------<br>the ----- --- --- ------ -------- ----- --- ------ ----- --<br>----- ----- ---------- --- --- ------ ------ ---- -- ------<br>------- --- ------ ----- --- ---- ------- -- ---- --- --<br>------- ------,267895.7800000062,267892.365000007,267276.613,267280.064999999,267293.364,267913.151,,22,the
screen,html.Screen,2_1_1_1_23,2021-04-30T12:47:23.736Z,,,,,,,,,,,,,,,,,54,,,,,,,,,,,,,,563.2290000073262,,response,,,,100,,,,,,,Space,keypress(Space),,,,,,,,-- --- ---- --- ------ ----- ------- ---- -- --- ------- --<br>------- ---------- ------ -- ----- -- ----- -- ---- ------<br>--- state --- --- ------ -------- ----- --- ------ ----- --<br>----- ----- ---------- --- --- ------ ------ ---- -- ------<br>------- --- ------ ----- --- ---- ------- -- ---- --- --<br>------- ------,268480.2900000068,268476.38000000734,267896.4,267895.96999999776,267913.151,268482.685,,23,state
screen,html.Screen,2_1_1_1_24,2021-04-30T12:47:24.328Z,,,,,,,,,,,,,,,,,54,,,,,,,,,,,,,,585.7050000003655,,response,,,,100,,,,,,,Space,keypress(Space),,,,,,,,-- --- ---- --- ------ ----- ------- ---- -- --- ------- --<br>------- ---------- ------ -- ----- -- ----- -- ---- ------<br>--- ----- cut --- ------ -------- ----- --- ------ ----- --<br>----- ----- ---------- --- --- ------ ------ ---- -- ------<br>------- --- ------ ----- --- ---- ------- -- ---- --- --<br>------- ------,269071.8449999986,269068.39000000036,268465.934,268480.49499999615,268482.685,269085.721,,24,cut
screen,html.Screen,2_1_1_1_25,2021-04-30T12:47:24.752Z,,,,,,,,,,,,,,,,,54,,,,,,,,,,,,,,406.6290000004228,,response,,,,100,,,,,,,Space,keypress(Space),,,,,,,,-- --- ---- --- ------ ----- ------- ---- -- --- ------- --<br>------- ---------- ------ -- ----- -- ----- -- ---- ------<br>--- ----- --- the ------ -------- ----- --- ------ ----- --<br>----- ----- ---------- --- --- ------ ------ ---- -- ------<br>------- --- ------ ----- --- ---- ------- -- ---- --- --<br>------- ------,269495.49000000115,269492.35000000044,269068.97,269072.0399999991,269085.721,269504.496,,25,the
screen,html.Screen,2_1_1_1_26,2021-04-30T12:47:25.512Z,,,,,,,,,,,,,,,,,54,,,,,,,,,,,,,,747.93400000775,,response,,,,100,,,,,,,Space,keypress(Space),,,,,,,,-- --- ---- --- ------ ----- ------- ---- -- --- ------- --<br>------- ---------- ------ -- ----- -- ----- -- ---- ------<br>--- ----- --- --- bonds' -------- ----- --- ------ ----- --<br>----- ----- ---------- --- --- ------ ------ ---- -- ------<br>------- --- ------ ----- --- ---- ------- -- ---- --- --<br>------- ------,270255.86000000476,270252.43000000773,269487.745,269495.6850000017,269504.496,270258.291,,26,bonds'
screen,html.Screen,2_1_1_1_27,2021-04-30T12:47:26.416Z,,,,,,,,,,,,,,,,,54,,,,,,,,,,,,,,898.0690000081086,,response,,,,100,,,,,,,Space,keypress(Space),,,,,,,,-- --- ---- --- ------ ----- ------- ---- -- --- ------- --<br>------- ---------- ------ -- ----- -- ----- -- ---- ------<br>--- ----- --- --- ------ interest ----- --- ------ ----- --<br>----- ----- ---------- --- --- ------ ------ ---- -- ------<br>------- --- ------ ----- --- ---- ------- -- ---- --- --<br>------- ------,271159.7299999994,271156.36000000814,270241.54,270256.0450000019,270258.291,271162.845,,27,interest
screen,html.Screen,2_1_1_1_28,2021-04-30T12:47:27.128Z,,,,,,,,,,,,,,,,,54,,,,,,,,,,,,,,705.5300000054995,,response,,,,100,,,,,,,Space,keypress(Space),,,,,,,,-- --- ---- --- ------ ----- ------- ---- -- --- ------- --<br>------- ---------- ------ -- ----- -- ----- -- ---- ------<br>--- ----- --- --- ------ -------- rate. --- ------ ----- --<br>----- ----- ---------- --- --- ------ ------ ---- -- ------<br>------- --- ------ ----- --- ---- ------- -- ---- --- --<br>------- ------,271871.8700000027,271868.3750000055,271146.094,271159.92499999993,271162.845,271883.138,,28,rate.
screen,html.Screen,2_1_1_1_29,2021-04-30T12:47:27.688Z,,,,,,,,,,,,,,,,,54,,,,,,,,,,,,,,545.302000003343,,response,,,,100,,,,,,,Space,keypress(Space),,,,,,,,-- --- ---- --- ------ ----- ------- ---- -- --- ------- --<br>------- ---------- ------ -- ----- -- ----- -- ---- ------<br>--- ----- --- --- ------ -------- ----- The ------ ----- --<br>----- ----- ---------- --- --- ------ ------ ---- -- ------<br>------- --- ------ ----- --- ---- ------- -- ---- --- --<br>------- ------,272431.9499999983,272428.4400000033,271866.387,271872.080000001,271883.138,272436.736,,29,The
screen,html.Screen,2_1_1_1_30,2021-04-30T12:47:28.368Z,,,,,,,,,,,,,,,,,54,,,,,,,,,,,,,,671.6090000005788,,response,,,,100,,,,,,,Space,keypress(Space),,,,,,,,-- --- ---- --- ------ ----- ------- ---- -- --- ------- --<br>------- ---------- ------ -- ----- -- ----- -- ---- ------<br>--- ----- --- --- ------ -------- ----- --- market ----- --<br>----- ----- ---------- --- --- ------ ------ ---- -- ------<br>------- --- ------ ----- --- ---- ------- -- ---- --- --<br>------- ------,273111.76500000875,273108.34500000055,272419.985,272432.14499999885,272436.736,273123.527,,30,market
screen,html.Screen,2_1_1_1_31,2021-04-30T12:47:29.088Z,,,,,,,,,,,,,,,,,54,,,,,,,,,,,,,,704.8180000017164,,response,,,,100,,,,,,,Space,keypress(Space),,,,,,,,-- --- ---- --- ------ ----- ------- ---- -- --- ------- --<br>------- ---------- ------ -- ----- -- ----- -- ---- ------<br>--- ----- --- --- ------ -------- ----- --- ------ value --<br>----- ----- ---------- --- --- ------ ------ ---- -- ------<br>------- --- ------ ----- --- ---- ------- -- ---- --- --<br>------- ------,273831.7400000087,273828.3450000017,273106.776,273111.9600000093,273123.527,273843.82,,31,value
screen,html.Screen,2_1_1_1_32,2021-04-30T12:47:29.696Z,,,,,,,,,,,,,,,,,54,,,,,,,,,,,,,,592.5499999957974,,response,,,,100,,,,,,,Space,keypress(Space),,,,,,,,-- --- ---- --- ------ ----- ------- ---- -- --- ------- --<br>------- ---------- ------ -- ----- -- ----- -- ---- ------<br>--- ----- --- --- ------ -------- ----- --- ------ ----- of<br>----- ----- ---------- --- --- ------ ------ ---- -- ------<br>------- --- ------ ----- --- ---- ------- -- ---- --- --<br>------- ------,274440.300000002,274436.3699999958,273827.069,273831.92500000587,273843.82,274446.856,,32,of
screen,html.Screen,2_1_1_1_33,2021-04-30T12:47:30.201Z,,,,,,,,,,,,,,,,,54,,,,,,,,,,,,,,493.57400000235066,,response,,,,100,,,,,,,Space,keypress(Space),,,,,,,,-- --- ---- --- ------ ----- ------- ---- -- --- ------- --<br>------- ---------- ------ -- ----- -- ----- -- ---- ------<br>--- ----- --- --- ------ -------- ----- --- ------ ----- --<br>these ----- ---------- --- --- ------ ------ ---- -- ------<br>------- --- ------ ----- --- ---- ------- -- ---- --- --<br>------- ------,274944.6850000095,274940.4300000024,274430.105,274440.49500000256,274446.856,274949.386,,33,these
screen,html.Screen,2_1_1_1_34,2021-04-30T12:47:30.648Z,,,,,,,,,,,,,,,,,54,,,,,,,,,,,,,,438.9840000005788,,response,,,,100,,,,,,,Space,keypress(Space),,,,,,,,-- --- ---- --- ------ ----- ------- ---- -- --- ------- --<br>------- ---------- ------ -- ----- -- ----- -- ---- ------<br>--- ----- --- --- ------ -------- ----- --- ------ ----- --<br>----- bonds ---------- --- --- ------ ------ ---- -- ------<br>------- --- ------ ----- --- ---- ------- -- ---- --- --<br>------- ------,275391.9200000091,275388.3700000006,274932.635,274944.87500000105,274949.386,275401.663,,34,bonds
screen,html.Screen,2_1_1_1_35,2021-04-30T12:47:31.456Z,,,,,,,,,,,,,,,,,54,,,,,,,,,,,,,,794.6869999983464,,response,,,,100,,,,,,,Space,keypress(Space),,,,,,,,"-- --- ---- --- ------ ----- ------- ---- -- --- ------- --<br>------- ---------- ------ -- ----- -- ----- -- ---- ------<br>--- ----- --- --- ------ -------- ----- --- ------ ----- --<br>----- ----- plummeted, --- --- ------ ------ ---- -- ------<br>------- --- ------ ----- --- ---- ------- -- ---- --- --<br>------- ------",276199.7100000008,276196.34999999835,275384.912,275392.11500000965,275401.663,276205.711,,35,"plummeted,"
screen,html.Screen,2_1_1_1_36,2021-04-30T12:47:32.032Z,,,,,,,,,,,,,,,,,54,,,,,,,,,,,,,,566.638999999268,,response,,,,100,,,,,,,Space,keypress(Space),,,,,,,,-- --- ---- --- ------ ----- ------- ---- -- --- ------- --<br>------- ---------- ------ -- ----- -- ----- -- ---- ------<br>--- ----- --- --- ------ -------- ----- --- ------ ----- --<br>----- ----- ---------- and --- ------ ------ ---- -- ------<br>------- --- ------ ----- --- ---- ------- -- ---- --- --<br>------- ------,276775.6950000039,276772.3499999993,276188.96,276199.9000000069,276205.711,276791.996,,36,and
screen,html.Screen,2_1_1_1_37,2021-04-30T12:47:33.040Z,,,,,,,,,,,,,,,,,54,,,,,,,,,,,,,,988.3740000076941,,response,,,,100,,,,,,,Space,keypress(Space),,,,,,,,-- --- ---- --- ------ ----- ------- ---- -- --- ------- --<br>------- ---------- ------ -- ----- -- ----- -- ---- ------<br>--- ----- --- --- ------ -------- ----- --- ------ ----- --<br>----- ----- ---------- --- the ------ ------ ---- -- ------<br>------- --- ------ ----- --- ---- ------- -- ---- --- --<br>------- ------,277783.91500000726,277780.3700000077,276775.245,276775.89000000444,276791.996,277797.056,,37,the
screen,html.Screen,2_1_1_1_38,2021-04-30T12:47:33.944Z,,,,,,,,,,,,,,,,,54,,,,,,,,,,,,,,887.3090000082739,,response,,,,100,,,,,,,Space,keypress(Space),,,,,,,,-- --- ---- --- ------ ----- ------- ---- -- --- ------- --<br>------- ---------- ------ -- ----- -- ----- -- ---- ------<br>--- ----- --- --- ------ -------- ----- --- ------ ----- --<br>----- ----- ---------- --- --- market ------ ---- -- ------<br>------- --- ------ ----- --- ---- ------- -- ---- --- --<br>------- ------,278687.87000000884,278684.36500000826,277780.305,277784.1150000022,277797.056,278701.61,,38,market
screen,html.Screen,2_1_1_1_39,2021-04-30T12:47:34.696Z,,,,,,,,,,,,,,,,,54,,,,,,,,,,,,,,734.8349999993807,,response,,,,100,,,,,,,Space,keypress(Space),,,,,,,,-- --- ---- --- ------ ----- ------- ---- -- --- ------- --<br>------- ---------- ------ -- ----- -- ----- -- ---- ------<br>--- ----- --- --- ------ -------- ----- --- ------ ----- --<br>----- ----- ---------- --- --- ------ became ---- -- ------<br>------- --- ------ ----- --- ---- ------- -- ---- --- --<br>------- ------,279439.9850000045,279436.44499999937,278684.859,278688.0650000094,278701.61,279455.405,,39,became
screen,html.Screen,2_1_1_1_40,2021-04-30T12:47:35.200Z,,,,,,,,,,,,,,,,,54,,,,,,,,,,,,,,484.96000000217464,,response,,,,100,,,,,,,Space,keypress(Space),,,,,,,,-- --- ---- --- ------ ----- ------- ---- -- --- ------- --<br>------- ---------- ------ -- ----- -- ----- -- ---- ------<br>--- ----- --- --- ------ -------- ----- --- ------ ----- --<br>----- ----- ---------- --- --- ------ ------ wary -- ------<br>------- --- ------ ----- --- ---- ------- -- ---- --- --<br>------- ------,279943.8349999982,279940.3650000022,279438.654,279440.1849999995,279455.405,279957.935,,40,wary
screen,html.Screen,2_1_1_1_41,2021-04-30T12:47:35.624Z,,,,,,,,,,,,,,,,,54,,,,,,,,,,,,,,406.49500000145053,,response,,,,100,,,,,,,Space,keypress(Space),,,,,,,,-- --- ---- --- ------ ----- ------- ---- -- --- ------- --<br>------- ---------- ------ -- ----- -- ----- -- ---- ------<br>--- ----- --- --- ------ -------- ----- --- ------ ----- --<br>----- ----- ---------- --- --- ------ ------ ---- of ------<br>------- --- ------ ----- --- ---- ------- -- ---- --- --<br>------- ------,280367.9150000098,280364.43000000145,279941.184,279944.02500000433,279957.935,280376.71,,41,of
screen,html.Screen,2_1_1_1_42,2021-04-30T12:47:36.280Z,,,,,,,,,,,,,,,,,54,,,,,,,,,,,,,,643.6999999973341,,response,,,,100,,,,,,,Space,keypress(Space),,,,,,,,-- --- ---- --- ------ ----- ------- ---- -- --- ------- --<br>------- ---------- ------ -- ----- -- ----- -- ---- ------<br>--- ----- --- --- ------ -------- ----- --- ------ ----- --<br>----- ----- ---------- --- --- ------ ------ ---- -- French<br>------- --- ------ ----- --- ---- ------- -- ---- --- --<br>------- ------,281023.80000000994,281020.40999999736,280359.959,280368.1099999958,280376.71,281029.999,,42,French
screen,html.Screen,2_1_1_1_43,2021-04-30T12:47:36.960Z,,,,,,,,,,,,,,,,,54,,,,,,,,,,,,,,670.3760000003385,,response,,,,100,,,,,,,Space,keypress(Space),,,,,,,,-- --- ---- --- ------ ----- ------- ---- -- --- ------- --<br>------- ---------- ------ -- ----- -- ----- -- ---- ------<br>--- ----- --- --- ------ -------- ----- --- ------ ----- --<br>----- ----- ---------- --- --- ------ ------ ---- -- ------<br>credit. --- ------ ----- --- ---- ------- -- ---- --- --<br>------- ------,281703.9400000067,281700.37500000035,281013.248,281023.9949999959,281029.999,281716.79,,43,credit.
screen,html.Screen,2_1_1_1_44,2021-04-30T12:47:37.487Z,,,,,,,,,,,,,,,,,54,,,,,,,,,,,,,,511.55000000150176,,response,,,,100,,,,,,,Space,keypress(Space),,,,,,,,-- --- ---- --- ------ ----- ------- ---- -- --- ------- --<br>------- ---------- ------ -- ----- -- ----- -- ---- ------<br>--- ----- --- --- ------ -------- ----- --- ------ ----- --<br>----- ----- ---------- --- --- ------ ------ ---- -- ------<br>------- The ------ ----- --- ---- ------- -- ---- --- --<br>------- ------,282231.59999999916,282228.3400000015,281700.039,281704.14000000164,281716.79,282236.071,,44,The
screen,html.Screen,2_1_1_1_45,2021-04-30T12:47:38.072Z,,,,,,,,,,,,,,,,,54,,,,,,,,,,,,,,576.3740000032121,,response,,,,100,,,,,,,Space,keypress(Space),,,,,,,,-- --- ---- --- ------ ----- ------- ---- -- --- ------- --<br>------- ---------- ------ -- ----- -- ----- -- ---- ------<br>--- ----- --- --- ------ -------- ----- --- ------ ----- --<br>----- ----- ---------- --- --- ------ ------ ---- -- ------<br>------- --- French ----- --- ---- ------- -- ---- --- --<br>------- ------,282815.9799999994,282812.4450000032,282219.32,282231.7900000053,282236.071,282823.209,,45,French
screen,html.Screen,2_1_1_1_46,2021-04-30T12:47:38.688Z,,,,,,,,,,,,,,,,,54,,,,,,,,,,,,,,605.1410000019823,,response,,,,100,,,,,,,Space,keypress(Space),,,,,,,,-- --- ---- --- ------ ----- ------- ---- -- --- ------- --<br>------- ---------- ------ -- ----- -- ----- -- ---- ------<br>--- ----- --- --- ------ -------- ----- --- ------ ----- --<br>----- ----- ---------- --- --- ------ ------ ---- -- ------<br>------- --- ------ state --- ---- ------- -- ---- --- --<br>------- ------,283431.7699999956,283428.35000000196,282806.458,282816.17499999993,282823.209,283442.996,,46,state
screen,html.Screen,2_1_1_1_47,2021-04-30T12:47:39.143Z,,,,,,,,,,,,,,,,,54,,,,,,,,,,,,,,441.4090000043507,,response,,,,100,,,,,,,Space,keypress(Space),,,,,,,,-- --- ---- --- ------ ----- ------- ---- -- --- ------- --<br>------- ---------- ------ -- ----- -- ----- -- ---- ------<br>--- ----- --- --- ------ -------- ----- --- ------ ----- --<br>----- ----- ---------- --- --- ------ ------ ---- -- ------<br>------- --- ------ ----- was ---- ------- -- ---- --- --<br>------- ------,283887.58999999845,283884.40500000434,283426.245,283431.9700000051,283442.996,283895.273,,47,was
screen,html.Screen,2_1_1_1_48,2021-04-30T12:47:39.744Z,,,,,,,,,,,,,,,,,54,,,,,,,,,,,,,,589.0720000044093,,response,,,,100,,,,,,,Space,keypress(Space),,,,,,,,-- --- ---- --- ------ ----- ------- ---- -- --- ------- --<br>------- ---------- ------ -- ----- -- ----- -- ---- ------<br>--- ----- --- --- ------ -------- ----- --- ------ ----- --<br>----- ----- ---------- --- --- ------ ------ ---- -- ------<br>------- --- ------ ----- --- left ------- -- ---- --- --<br>------- ------,284488.1449999957,284484.3450000044,283878.522,283887.784999999,283895.273,284498.309,,48,left
screen,html.Screen,2_1_1_1_49,2021-04-30T12:47:40.287Z,,,,,,,,,,,,,,,,,54,,,,,,,,,,,,,,530.0359999987995,,response,,,,100,,,,,,,Space,keypress(Space),,,,,,,,-- --- ---- --- ------ ----- ------- ---- -- --- ------- --<br>------- ---------- ------ -- ----- -- ----- -- ---- ------<br>--- ----- --- --- ------ -------- ----- --- ------ ----- --<br>----- ----- ---------- --- --- ------ ------ ---- -- ------<br>------- --- ------ ----- --- ---- without -- ---- --- --<br>------- ------,285031.66500000225,285028.3449999988,284481.558,284488.3300000074,284498.309,285034.341,,49,without
screen,html.Screen,2_1_1_1_50,2021-04-30T12:47:40.959Z,,,,,,,,,,,,,,,,,54,,,,,,,,,,,,,,666.0089999991469,,response,,,,100,,,,,,,Space,keypress(Space),,,,,,,,-- --- ---- --- ------ ----- ------- ---- -- --- ------- --<br>------- ---------- ------ -- ----- -- ----- -- ---- ------<br>--- ----- --- --- ------ -------- ----- --- ------ ----- --<br>----- ----- ---------- --- --- ------ ------ ---- -- ------<br>------- --- ------ ----- --- ---- ------- an ---- --- --<br>------- ------,285703.55500000005,285700.34999999916,285017.59,285031.8649999972,285034.341,285721.132,,50,an
screen,html.Screen,2_1_1_1_51,2021-04-30T12:47:41.536Z,,,,,,,,,,,,,,,,,54,,,,,,,,,,,,,,555.2180000001099,,response,,,,100,,,,,,,Space,keypress(Space),,,,,,,,-- --- ---- --- ------ ----- ------- ---- -- --- ------- --<br>------- ---------- ------ -- ----- -- ----- -- ---- ------<br>--- ----- --- --- ------ -------- ----- --- ------ ----- --<br>----- ----- ---------- --- --- ------ ------ ---- -- ------<br>------- --- ------ ----- --- ---- ------- -- easy --- --<br>------- ------,286279.8049999983,286276.3500000001,285704.381,285703.7500000006,285721.132,286290.666,,51,easy
screen,html.Screen,2_1_1_1_52,2021-04-30T12:47:42.263Z,,,,,,,,,,,,,,,,,54,,,,,,,,,,,,,,713.5790000036941,,response,,,,100,,,,,,,Space,keypress(Space),,,,,,,,-- --- ---- --- ------ ----- ------- ---- -- --- ------- --<br>------- ---------- ------ -- ----- -- ----- -- ---- ------<br>--- ----- --- --- ------ -------- ----- --- ------ ----- --<br>----- ----- ---------- --- --- ------ ------ ---- -- ------<br>------- --- ------ ----- --- ---- ------- -- ---- way --<br>------- ------,287007.500000007,287004.2450000037,286273.915,286280.0050000078,286290.666,287010.959,,52,way
screen,html.Screen,2_1_1_1_53,2021-04-30T12:47:42.864Z,,,,,,,,,,,,,,,,,54,,,,,,,,,,,,,,593.3910000087344,,response,,,,100,,,,,,,Space,keypress(Space),,,,,,,,-- --- ---- --- ------ ----- ------- ---- -- --- ------- --<br>------- ---------- ------ -- ----- -- ----- -- ---- ------<br>--- ----- --- --- ------ -------- ----- --- ------ ----- --<br>----- ----- ---------- --- --- ------ ------ ---- -- ------<br>------- --- ------ ----- --- ---- ------- -- ---- --- of<br>------- ------,287607.87999999593,287604.3500000087,286994.208,287007.68999999855,287010.959,287613.995,,53,of
screen,html.Screen,2_1_1_1_54,2021-04-30T12:47:44.032Z,,,,,,,,,,,,,,,,,54,,,,,,,,,,,,,,1158.369999997085,,response,,,,100,,,,,,,Space,keypress(Space),,,,,,,,-- --- ---- --- ------ ----- ------- ---- -- --- ------- --<br>------- ---------- ------ -- ----- -- ----- -- ---- ------<br>--- ----- --- --- ------ -------- ----- --- ------ ----- --<br>----- ----- ---------- --- --- ------ ------ ---- -- ------<br>------- --- ------ ----- --- ---- ------- -- ---- --- --<br>raising ------,288775.84000000206,288772.3649999971,287597.244,287608.07499999646,287613.995,288786.565,,54,raising
screen,html.Screen,2_1_1_1_55,2021-04-30T12:47:44.816Z,,,,,,,,,,,,,,,,,54,,,,,,,,,,,,,,769.8200000034994,,response,,,,100,,,,,,,Space,keypress(Space),,,,,,,,-- --- ---- --- ------ ----- ------- ---- -- --- ------- --<br>------- ---------- ------ -- ----- -- ----- -- ---- ------<br>--- ----- --- --- ------ -------- ----- --- ------ ----- --<br>----- ----- ---------- --- --- ------ ------ ---- -- ------<br>------- --- ------ ----- --- ---- ------- -- ---- --- --<br>------- money.,289560.2599999984,289556.3850000035,288769.814,288776.045000006,288786.565,289573.862,,55,money.
Item 100,flow.Loop,2_1_1_1,2021-04-30T12:47:44.816Z,,,,,,,,,,,,,,,,,,,,,,,,,,,,,,,36753.469000003504,,completion,,,,,E,,,,,,,,,,,silence,,,,,289560.61000000045,289556.3850000035,252786.165,252789.3699999986,252802.916,289573.862,,,
Question 1,html.Screen,2_1_1_2,2021-04-30T12:47:50.917Z,,,,,,,,,,,,,,,,,,,,,,,,,,,,true,TRUE,,6085.328000005742,,response,,,,100,E,,,,,,TRUE,click #choice-1,,,,silence,,,,,295661.3500000094,295659.19000000576,289557.111,289560.765000002,289573.862,295672.075,,,
Question 2,html.Screen,2_1_1_3,2021-04-30T12:47:56.346Z,,,,,,,,,,,,,,,,,,,,,,,,,,,,true,FALSE,,5415.279999996012,,response,,,,100,E,,,,,,FALSE,click #choice-2,,,,silence,,,,,301090.6099999993,301087.354999996,295655.324,295661.4750000008,295672.075,301099.399,,,
Item 100,flow.Sequence,2_1_1,2021-04-30T12:47:56.346Z,,,,,,,,,,,,,,,,,,,,,,,,,,,,,,,58285.71099999602,,completion,,,,,,,,,,,,,,,,,,,,,301090.92000000237,301087.354999996,242784.893,242787.6350000006,242801.644,301099.399,,,
End of Practice,html.Page,2_1_2,2021-04-30T12:48:01.967Z,,,,,,,,,,,,,,,,,,,,,,,,,,,,,,,5611.816000003018,,form submission,,,,,,,,,,,,,,,,,,,,,306711.6650000098,306711.215000003,301082.648,301091.0799999983,301099.399,306710.984,,,
Practice,flow.Sequence,2_1,2021-04-30T12:48:01.967Z,,,,,,,,,,,,,,,,,,,,,,,,,,,,,,,128674.10200000298,,completion,,,,,,,,,,,,,,,,,,,,,306712.0850000065,306711.215000003,178020.362,178028.0950000015,178037.113,306710.984,,,
Trap_instruction,html.Page,2_2_0,2021-04-30T12:48:08.570Z,,,,,,,,,,,,,,,,,,,,,,,,,,,,,,,6603.496000000916,,form submission,,,,,,,,,,,,,,,,,,,,,313314.830000003,313314.4800000009,306694.233,306712.3250000004,306710.984,313328.782,,,
trap_trial,html.Screen,2_2_1,2021-04-30T12:48:12.448Z,,,,,,,,,,,,,,,,,,,,,,,,,,,,true,1,,3860.5630000061356,,response,,,,,,,,,,,1,click #choice-1,,,,,,,,,317192.88499999675,317189.34500000614,313312.031,313315.0100000057,313328.782,317198.263,,,
end of trap trial,html.Page,2_2_2,2021-04-30T12:48:15.760Z,,,,,,,,,,,,,,,,,,,,,,,,,,,,,,,3306.6220000021276,,form submission,,,,,,,,,,,,,,,,,,,,,320505.2200000064,320504.8850000021,317181.512,317193.2950000046,317198.263,320515.814,,,
Trap 1,flow.Sequence,2_2,2021-04-30T12:48:15.760Z,,,,,,,,,,,,,,,,,,,,,,,,,,,,,,,13793.901000002108,,completion,,,,,,,,,,,,,,,,,,,,,320505.50500000827,320504.8850000021,306694.233,306712.24999999686,306710.984,320515.814,,,
Standby,html.Page,2_3_0,2021-04-30T12:48:23.763Z,,,,,,,,,,,,,,,,,,,,,,,,,,,,,,,8006.978000000003,,timeout,,,,,,,,,,,,,,,,,,,,,328508.31499999913,328506.041,320499.063,320505.70999999763,320515.814,328522.792,,,
Holding screen,html.Screen,2_3_1_0_0,2021-04-30T12:48:30.766Z,,,,,,,,,,,,,,,,,,,,,,,,,,,,,,,7002.7820000000065,,timeout,,,,,,,,,,,,,,,,,,,,,335511.9100000011,335508.823,328506.041,328508.6149999988,328522.792,335525.574,,,
screen,html.Screen,2_3_1_0_1_0,2021-04-30T12:48:31.424Z,,,,,,,,,,,,,,,,,48,,,,,,,,,,,,,,638.7059999972116,,response,,,,10,E,,,,,,Space,keypress(Space),,,,lyrical,,,,As -- --- ------ ------- --------- ----------- --------<br>--------- -------- --- ------- -- ------- ---- -- ------<br>-- --- -------- -------- ---------- ---- ---- ---- ------<br>-- --------- -- ---- -- --- -- --- ------- -- - -----<br>---------- -- -- -- ---- ----- -- ------ -- --- ------<br>-------,336169.30000000866,336164.27999999723,335508.823,335512.26499999757,335525.574,336178.863,,0,As
screen,html.Screen,2_3_1_0_1_1,2021-04-30T12:48:31.839Z,,,,,,,,,,,,,,,,,48,,,,,,,,,,,,,,401.38699999905657,,response,,,,10,E,,,,,,Space,keypress(Space),,,,lyrical,,,,-- in --- ------ ------- --------- ----------- --------<br>--------- -------- --- ------- -- ------- ---- -- ------<br>-- --- -------- -------- ---------- ---- ---- ---- ------<br>-- --------- -- ---- -- --- -- --- ------- -- - -----<br>---------- -- -- -- ---- ----- -- ------ -- --- ------<br>-------,336584.4150000048,336580.24999999907,336162.112,336169.60000000836,336178.863,336597.638,,1,in
screen,html.Screen,2_3_1_0_1_2,2021-04-30T12:48:32.302Z,,,,,,,,,,,,,,,,,48,,,,,,,,,,,,,,446.61200000630924,,response,,,,10,E,,,,,,Space,keypress(Space),,,,lyrical,,,,-- -- the ------ ------- --------- ----------- --------<br>--------- -------- --- ------- -- ------- ---- -- ------<br>-- --- -------- -------- ---------- ---- ---- ---- ------<br>-- --------- -- ---- -- --- -- --- ------- -- - -----<br>---------- -- -- -- ---- ----- -- ------ -- --- ------<br>-------,337047.4400000094,337044.2500000063,336580.887,336584.61499999976,336597.638,337049.915,,2,the
screen,html.Screen,2_3_1_0_1_3,2021-04-30T12:48:32.870Z,,,,,,,,,,,,,,,,,48,,,,,,,,,,,,,,562.43000000139,,response,,,,10,E,,,,,,Space,keypress(Space),,,,lyrical,,,,-- -- --- United ------- --------- ----------- --------<br>--------- -------- --- ------- -- ------- ---- -- ------<br>-- --- -------- -------- ---------- ---- ---- ---- ------<br>-- --------- -- ---- -- --- -- --- ------- -- - -----<br>---------- -- -- -- ---- ----- -- ------ -- --- ------<br>-------,337615.9250000055,337612.34500000137,337033.164,337047.6400000043,337049.915,337619.449,,3,United
screen,html.Screen,2_3_1_0_1_4,2021-04-30T12:48:33.526Z,,,,,,,,,,,,,,,,,48,,,,,,,,,,,,,,648.8960000040242,,response,,,,10,E,,,,,,Space,keypress(Space),,,,lyrical,,,,"-- -- --- ------ States, --------- ----------- --------<br>--------- -------- --- ------- -- ------- ---- -- ------<br>-- --- -------- -------- ---------- ---- ---- ---- ------<br>-- --------- -- ---- -- --- -- --- ------- -- - -----<br>---------- -- -- -- ---- ----- -- ------ -- --- ------<br>-------",338271.7799999955,338268.34500000405,337602.698,337616.1149999971,337619.449,338272.738,,4,"States,"
screen,html.Screen,2_3_1_0_1_5,2021-04-30T12:48:34.062Z,,,,,,,,,,,,,,,,,48,,,,,,,,,,,,,,531.5370000022231,,response,,,,10,E,,,,,,Space,keypress(Space),,,,lyrical,,,,-- -- --- ------ ------- Colombian ----------- --------<br>--------- -------- --- ------- -- ------- ---- -- ------<br>-- --- -------- -------- ---------- ---- ---- ---- ------<br>-- --------- -- ---- -- --- -- --- ------- -- - -----<br>---------- -- -- -- ---- ----- -- ------ -- --- ------<br>-------,338807.4350000097,338804.27500000224,338255.987,338271.9700000016,338272.738,338808.77,,5,Colombian
screen,html.Screen,2_3_1_0_1_6,2021-04-30T12:48:34.774Z,,,,,,,,,,,,,,,,,48,,,,,,,,,,,,,,707.5749999963446,,response,,,,10,E,,,,,,Space,keypress(Space),,,,lyrical,,,,-- -- --- ------ ------- --------- legislation --------<br>--------- -------- --- ------- -- ------- ---- -- ------<br>-- --- -------- -------- ---------- ---- ---- ---- ------<br>-- --------- -- ---- -- --- -- --- ------- -- - -----<br>---------- -- -- -- ---- ----- -- ------ -- --- ------<br>-------,339519.8999999993,339516.34499999636,338792.019,338807.6299999957,338808.77,339529.063,,6,legislation
screen,html.Screen,2_3_1_0_1_7,2021-04-30T12:48:35.582Z,,,,,,,,,,,,,,,,,48,,,,,,,,,,,,,,795.2319999985048,,response,,,,10,E,,,,,,Space,keypress(Space),,,,lyrical,,,,-- -- --- ------ ------- --------- ----------- requires<br>--------- -------- --- ------- -- ------- ---- -- ------<br>-- --- -------- -------- ---------- ---- ---- ---- ------<br>-- --------- -- ---- -- --- -- --- ------- -- - -----<br>---------- -- -- -- ---- ----- -- ------ -- --- ------<br>-------,340327.92500000505,340324.2949999985,339512.312,339520.09000000544,339529.063,340334.11,,7,requires
screen,html.Screen,2_3_1_0_1_8,2021-04-30T12:48:36.270Z,,,,,,,,,,,,,,,,,48,,,,,,,,,,,,,,678.1050000097603,,response,,,,10,E,,,,,,Space,keypress(Space),,,,lyrical,,,,-- -- --- ------ ------- --------- ----------- --------<br>travelers -------- --- ------- -- ------- ---- -- ------<br>-- --- -------- -------- ---------- ---- ---- ---- ------<br>-- --------- -- ---- -- --- -- --- ------- -- - -----<br>---------- -- -- -- ---- ----- -- ------ -- --- ------<br>-------,341015.585000001,341012.21500000975,340317.359,340328.25000000594,340334.11,341020.901,,8,travelers
screen,html.Screen,2_3_1_0_1_9,2021-04-30T12:48:36.999Z,,,,,,,,,,,,,,,,,48,,,,,,,,,,,,,,719.454000001715,,response,,,,10,E,,,,,,Space,keypress(Space),,,,lyrical,,,,-- -- --- ------ ------- --------- ----------- --------<br>--------- entering --- ------- -- ------- ---- -- ------<br>-- --- -------- -------- ---------- ---- ---- ---- ------<br>-- --------- -- ---- -- --- -- --- ------- -- - -----<br>---------- -- -- -- ---- ----- -- ------ -- --- ------<br>-------,341744.30500000017,341740.3550000017,341004.15,341015.78000000154,341020.901,341757.945,,9,entering
screen,html.Screen,2_3_1_0_1_10,2021-04-30T12:48:37.494Z,,,,,,,,,,,,,,,,,48,,,,,,,,,,,,,,478.42000000429107,,response,,,,10,E,,,,,,Space,keypress(Space),,,,lyrical,,,,-- -- --- ------ ------- --------- ----------- --------<br>--------- -------- the ------- -- ------- ---- -- ------<br>-- --- -------- -------- ---------- ---- ---- ---- ------<br>-- --------- -- ---- -- --- -- --- ------- -- - -----<br>---------- -- -- -- ---- ----- -- ------ -- --- ------<br>-------,342239.8400000093,342236.3650000043,341741.194,341744.50500000967,341757.945,342243.724,,10,the
screen,html.Screen,2_3_1_0_1_11,2021-04-30T12:48:38.382Z,,,,,,,,,,,,,,,,,48,,,,,,,,,,,,,,880.546000000264,,response,,,,10,E,,,,,,Space,keypress(Space),,,,lyrical,,,,-- -- --- ------ ------- --------- ----------- --------<br>--------- -------- --- country -- ------- ---- -- ------<br>-- --- -------- -------- ---------- ---- ---- ---- ------<br>-- --------- -- ---- -- --- -- --- ------- -- - -----<br>---------- -- -- -- ---- ----- -- ------ -- --- ------<br>-------,343127.8900000034,343124.27000000025,342226.973,342240.0250000064,342243.724,343131.527,,11,country
screen,html.Screen,2_3_1_0_1_12,2021-04-30T12:48:39.110Z,,,,,,,,,,,,,,,,,48,,,,,,,,,,,,,,720.8230000010226,,response,,,,10,E,,,,,,Space,keypress(Space),,,,lyrical,,,,-- -- --- ------ ------- --------- ----------- --------<br>--------- -------- --- ------- to ------- ---- -- ------<br>-- --- -------- -------- ---------- ---- ---- ---- ------<br>-- --------- -- ---- -- --- -- --- ------- -- - -----<br>---------- -- -- -- ---- ----- -- ------ -- --- ------<br>-------,343855.45499999716,343852.350000001,343114.776,343128.2050000009,343131.527,343868.571,,12,to
screen,html.Screen,2_3_1_0_1_13,2021-04-30T12:48:39.734Z,,,,,,,,,,,,,,,,,48,,,,,,,,,,,,,,607.7840000061551,,response,,,,10,E,,,,,,Space,keypress(Space),,,,lyrical,,,,-- -- --- ------ ------- --------- ----------- --------<br>--------- -------- --- ------- -- declare ---- -- ------<br>-- --- -------- -------- ---------- ---- ---- ---- ------<br>-- --------- -- ---- -- --- -- --- ------- -- - -----<br>---------- -- -- -- ---- ----- -- ------ -- --- ------<br>-------,344479.52500000247,344476.35500000615,343851.82,343855.5900000065,343868.571,344488.358,,13,declare
screen,html.Screen,2_3_1_0_1_14,2021-04-30T12:48:40.438Z,,,,,,,,,,,,,,,,,48,,,,,,,,,,,,,,691.9970000040485,,response,,,,10,E,,,,,,Space,keypress(Space),,,,lyrical,,,,-- -- --- ------ ------- --------- ----------- --------<br>--------- -------- --- ------- -- ------- cash -- ------<br>-- --- -------- -------- ---------- ---- ---- ---- ------<br>-- --------- -- ---- -- --- -- --- ------- -- - -----<br>---------- -- -- -- ---- ----- -- ------ -- --- ------<br>-------,345183.9800000016,345180.35500000406,344471.607,344479.7150000086,344488.358,345191.9,,14,cash
screen,html.Screen,2_3_1_0_1_15,2021-04-30T12:48:40.926Z,,,,,,,,,,,,,,,,,48,,,,,,,,,,,,,,476.4000000047963,,response,,,,10,E,,,,,,Space,keypress(Space),,,,lyrical,,,,-- -- --- ------ ------- --------- ----------- --------<br>--------- -------- --- ------- -- ------- ---- in ------<br>-- --- -------- -------- ---------- ---- ---- ---- ------<br>-- --------- -- ---- -- --- -- --- ------- -- - -----<br>---------- -- -- -- ---- ----- -- ------ -- --- ------<br>-------,345671.66500000167,345668.3000000048,345175.149,345184.38000000606,345191.9,345677.679,,15,in
screen,html.Screen,2_3_1_0_1_16,2021-04-30T12:48:41.471Z,,,,,,,,,,,,,,,,,48,,,,,,,,,,,,,,534.6209999992279,,response,,,,10,E,,,,,,Space,keypress(Space),,,,lyrical,,,,-- -- --- ------ ------- --------- ----------- --------<br>--------- -------- --- ------- -- ------- ---- -- excess<br>-- --- -------- -------- ---------- ---- ---- ---- ------<br>-- --------- -- ---- -- --- -- --- ------- -- - -----<br>---------- -- -- -- ---- ----- -- ------ -- --- ------<br>-------,346216.24500000325,346212.29999999923,345660.928,345671.8700000056,345677.679,346230.462,,16,excess
screen,html.Screen,2_3_1_0_1_17,2021-04-30T12:48:41.919Z,,,,,,,,,,,,,,,,,48,,,,,,,,,,,,,,429.79800000420073,,response,,,,10,E,,,,,,Space,keypress(Space),,,,lyrical,,,,-- -- --- ------ ------- --------- ----------- --------<br>--------- -------- --- ------- -- ------- ---- -- ------<br>of --- -------- -------- ---------- ---- ---- ---- ------<br>-- --------- -- ---- -- --- -- --- ------- -- - -----<br>---------- -- -- -- ---- ----- -- ------ -- --- ------<br>-------,346664.25000000163,346660.2600000042,346213.711,346216.43500000937,346230.462,346665.988,,17,of
screen,html.Screen,2_3_1_0_1_18,2021-04-30T12:48:42.654Z,,,,,,,,,,,,,,,,,48,,,,,,,,,,,,,,730.2720000086119,,response,,,,10,E,,,,,,Space,keypress(Space),,,,lyrical,,,,-- -- --- ------ ------- --------- ----------- --------<br>--------- -------- --- ------- -- ------- ---- -- ------<br>-- ten -------- -------- ---------- ---- ---- ---- ------<br>-- --------- -- ---- -- --- -- --- ------- -- - -----<br>---------- -- -- -- ---- ----- -- ------ -- --- ------<br>-------,347399.900000004,347396.2600000086,346649.237,346664.45999999996,346665.988,347403.032,,18,ten
screen,html.Screen,2_3_1_0_1_19,2021-04-30T12:48:43.150Z,,,,,,,,,,,,,,,,,48,,,,,,,,,,,,,,489.302999996813,,response,,,,10,E,,,,,,Space,keypress(Space),,,,lyrical,,,,-- -- --- ------ ------- --------- ----------- --------<br>--------- -------- --- ------- -- ------- ---- -- ------<br>-- --- thousand -------- ---------- ---- ---- ---- ------<br>-- --------- -- ---- -- --- -- --- ------- -- - -----<br>---------- -- -- -- ---- ----- -- ------ -- --- ------<br>-------,347895.6449999969,347892.3349999968,347386.281,347400.2199999959,347403.032,347905.562,,19,thousand
screen,html.Screen,2_3_1_0_1_20,2021-04-30T12:48:43.765Z,,,,,,,,,,,,,,,,,48,,,,,,,,,,,,,,602.7730000059237,,response,,,,10,E,,,,,,Space,keypress(Space),,,,lyrical,,,,-- -- --- ------ ------- --------- ----------- --------<br>--------- -------- --- ------- -- ------- ---- -- ------<br>-- --- -------- dollars. ---------- ---- ---- ---- ------<br>-- --------- -- ---- -- --- -- --- ------- -- - -----<br>---------- -- -- -- ---- ----- -- ------ -- --- ------<br>-------,348510.7050000079,348508.3350000059,347888.811,347895.8399999974,347905.562,348525.349,,20,dollars.
screen,html.Screen,2_3_1_0_1_21,2021-04-30T12:48:44.342Z,,,,,,,,,,,,,,,,,48,,,,,,,,,,,,,,558.9959999956773,,response,,,,10,E,,,,,,Space,keypress(Space),,,,lyrical,,,,-- -- --- ------ ------- --------- ----------- --------<br>--------- -------- --- ------- -- ------- ---- -- ------<br>-- --- -------- -------- Concealing ---- ---- ---- ------<br>-- --------- -- ---- -- --- -- --- ------- -- - -----<br>---------- -- -- -- ---- ----- -- ------ -- --- ------<br>-------,349087.4699999986,349084.34499999566,348508.598,348510.85500000045,348525.349,349094.883,,21,Concealing
screen,html.Screen,2_3_1_0_1_22,2021-04-30T12:48:44.982Z,,,,,,,,,,,,,,,,,48,,,,,,,,,,,,,,629.462000009662,,response,,,,10,E,,,,,,Space,keypress(Space),,,,lyrical,,,,-- -- --- ------ ------- --------- ----------- --------<br>--------- -------- --- ------- -- ------- ---- -- ------<br>-- --- -------- -------- ---------- more ---- ---- ------<br>-- --------- -- ---- -- --- -- --- ------- -- - -----<br>---------- -- -- -- ---- ----- -- ------ -- --- ------<br>-------,349727.87000000244,349724.34500000963,349078.132,349087.6050000079,349094.883,349731.421,,22,more
screen,html.Screen,2_3_1_0_1_23,2021-04-30T12:48:45.542Z,,,,,,,,,,,,,,,,,48,,,,,,,,,,,,,,552.9189999983646,,response,,,,10,E,,,,,,Space,keypress(Space),,,,lyrical,,,,-- -- --- ------ ------- --------- ----------- --------<br>--------- -------- --- ------- -- ------- ---- -- ------<br>-- --- -------- -------- ---------- ---- than ---- ------<br>-- --------- -- ---- -- --- -- --- ------- -- - -----<br>---------- -- -- -- ---- ----- -- ------ -- --- ------<br>-------,350287.6350000006,350284.33999999834,349714.67,349728.065000003,349731.421,350301.717,,23,than
screen,html.Screen,2_3_1_0_1_24,2021-04-30T12:48:46.054Z,,,,,,,,,,,,,,,,,48,,,,,,,,,,,,,,494.62800000974676,,response,,,,10,E,,,,,,Space,keypress(Space),,,,lyrical,,,,-- -- --- ------ ------- --------- ----------- --------<br>--------- -------- --- ------- -- ------- ---- -- ------<br>-- --- -------- -------- ---------- ---- ---- that ------<br>-- --------- -- ---- -- --- -- --- ------- -- - -----<br>---------- -- -- -- ---- ----- -- ------ -- --- ------<br>-------,350799.82500000915,350796.34500000975,350284.966,350287.8250000067,350301.717,350804.247,,24,that
screen,html.Screen,2_3_1_0_1_25,2021-04-30T12:48:46.614Z,,,,,,,,,,,,,,,,,48,,,,,,,,,,,,,,552.0980000074487,,response,,,,10,E,,,,,,Space,keypress(Space),,,,lyrical,,,,-- -- --- ------ ------- --------- ----------- --------<br>--------- -------- --- ------- -- ------- ---- -- ------<br>-- --- -------- -------- ---------- ---- ---- ---- amount<br>-- --------- -- ---- -- --- -- --- ------- -- - -----<br>---------- -- -- -- ---- ----- -- ------ -- --- ------<br>-------,351359.98000000836,351356.3450000074,350787.496,350800.0250000041,350804.247,351373.781,,25,amount
screen,html.Screen,2_3_1_0_1_26,2021-04-30T12:48:47.062Z,,,,,,,,,,,,,,,,,48,,,,,,,,,,,,,,430.56900000578025,,response,,,,10,E,,,,,,Space,keypress(Space),,,,lyrical,,,,-- -- --- ------ ------- --------- ----------- --------<br>--------- -------- --- ------- -- ------- ---- -- ------<br>-- --- -------- -------- ---------- ---- ---- ---- ------<br>to --------- -- ---- -- --- -- --- ------- -- - -----<br>---------- -- -- -- ---- ----- -- ------ -- --- ------<br>-------,351807.8000000096,351804.3500000058,351357.03,351360.1800000033,351373.781,351809.307,,26,to
screen,html.Screen,2_3_1_0_1_27,2021-04-30T12:48:47.622Z,,,,,,,,,,,,,,,,,48,,,,,,,,,,,,,,555.0780000080704,,response,,,,10,E,,,,,,Space,keypress(Space),,,,lyrical,,,,-- -- --- ------ ------- --------- ----------- --------<br>--------- -------- --- ------- -- ------- ---- -- ------<br>-- --- -------- -------- ---------- ---- ---- ---- ------<br>-- transport -- ---- -- --- -- --- ------- -- - -----<br>---------- -- -- -- ---- ----- -- ------ -- --- ------<br>-------,352367.7549999993,352364.38500000804,351792.556,351807.9949999956,351809.307,352378.841,,27,transport
screen,html.Screen,2_3_1_0_1_28,2021-04-30T12:48:48.270Z,,,,,,,,,,,,,,,,,48,,,,,,,,,,,,,,633.4089999997523,,response,,,,10,E,,,,,,Space,keypress(Space),,,,lyrical,,,,-- -- --- ------ ------- --------- ----------- --------<br>--------- -------- --- ------- -- ------- ---- -- ------<br>-- --- -------- -------- ---------- ---- ---- ---- ------<br>-- --------- it ---- -- --- -- --- ------- -- - -----<br>---------- -- -- -- ---- ----- -- ------ -- --- ------<br>-------,353015.48000000184,353012.24999999977,352362.09,352367.94999999984,352378.841,353032.13,,28,it
screen,html.Screen,2_3_1_0_1_29,2021-04-30T12:48:48.878Z,,,,,,,,,,,,,,,,,48,,,,,,,,,,,,,,588.0950000060257,,response,,,,10,E,,,,,,Space,keypress(Space),,,,lyrical,,,,-- -- --- ------ ------- --------- ----------- --------<br>--------- -------- --- ------- -- ------- ---- -- ------<br>-- --- -------- -------- ---------- ---- ---- ---- ------<br>-- --------- -- into -- --- -- --- ------- -- - -----<br>---------- -- -- -- ---- ----- -- ------ -- --- ------<br>-------,353623.5149999993,353620.22500000603,353015.379,353015.6900000002,353032.13,353635.166,,29,into
screen,html.Screen,2_3_1_0_1_30,2021-04-30T12:48:49.502Z,,,,,,,,,,,,,,,,,48,,,,,,,,,,,,,,609.1440000091097,,response,,,,10,E,,,,,,Space,keypress(Space),,,,lyrical,,,,-- -- --- ------ ------- --------- ----------- --------<br>--------- -------- --- ------- -- ------- ---- -- ------<br>-- --- -------- -------- ---------- ---- ---- ---- ------<br>-- --------- -- ---- or --- -- --- ------- -- - -----<br>---------- -- -- -- ---- ----- -- ------ -- --- ------<br>-------,354247.9500000045,354244.31000000914,353618.415,353623.72499999765,353635.166,354254.953,,30,or
screen,html.Screen,2_3_1_0_1_31,2021-04-30T12:48:50.022Z,,,,,,,,,,,,,,,,,48,,,,,,,,,,,,,,509.4520000090124,,response,,,,10,E,,,,,,Space,keypress(Space),,,,lyrical,,,,-- -- --- ------ ------- --------- ----------- --------<br>--------- -------- --- ------- -- ------- ---- -- ------<br>-- --- -------- -------- ---------- ---- ---- ---- ------<br>-- --------- -- ---- -- out -- --- ------- -- - -----<br>---------- -- -- -- ---- ----- -- ------ -- --- ------<br>-------,354767.80499999586,354764.405000009,354238.202,354248.2750000054,354254.953,354774.234,,31,out
screen,html.Screen,2_3_1_0_1_32,2021-04-30T12:48:50.454Z,,,,,,,,,,,,,,,,,48,,,,,,,,,,,,,,422.11599999835016,,response,,,,10,E,,,,,,Space,keypress(Space),,,,lyrical,,,,-- -- --- ------ ------- --------- ----------- --------<br>--------- -------- --- ------- -- ------- ---- -- ------<br>-- --- -------- -------- ---------- ---- ---- ---- ------<br>-- --------- -- ---- -- --- of --- ------- -- - -----<br>---------- -- -- -- ---- ----- -- ------ -- --- ------<br>-------,355199.74999999977,355196.34999999835,354757.483,354767.9700000008,354774.234,355209.76,,32,of
screen,html.Screen,2_3_1_0_1_33,2021-04-30T12:48:51.022Z,,,,,,,,,,,,,,,,,48,,,,,,,,,,,,,,554.5400000098161,,response,,,,10,E,,,,,,Space,keypress(Space),,,,lyrical,,,,-- -- --- ------ ------- --------- ----------- --------<br>--------- -------- --- ------- -- ------- ---- -- ------<br>-- --- -------- -------- ---------- ---- ---- ---- ------<br>-- --------- -- ---- -- --- -- the ------- -- - -----<br>---------- -- -- -- ---- ----- -- ------ -- --- ------<br>-------,355767.84000000043,355764.3000000098,355193.009,355199.9450000003,355209.76,355779.294,,33,the
screen,html.Screen,2_3_1_0_1_34,2021-04-30T12:48:51.470Z,,,,,,,,,,,,,,,,,48,,,,,,,,,,,,,,433.0110000082059,,response,,,,10,E,,,,,,Space,keypress(Space),,,,lyrical,,,,-- -- --- ------ ------- --------- ----------- --------<br>--------- -------- --- ------- -- ------- ---- -- ------<br>-- --- -------- -------- ---------- ---- ---- ---- ------<br>-- --------- -- ---- -- --- -- --- country -- - -----<br>---------- -- -- -- ---- ----- -- ------ -- --- ------<br>-------,356215.8650000056,356212.3050000082,355762.543,355768.12999999675,355779.294,356231.571,,34,country
screen,html.Screen,2_3_1_0_1_35,2021-04-30T12:48:51.926Z,,,,,,,,,,,,,,,,,48,,,,,,,,,,,,,,436.77399999822956,,response,,,,10,E,,,,,,Space,keypress(Space),,,,lyrical,,,,-- -- --- ------ ------- --------- ----------- --------<br>--------- -------- --- ------- -- ------- ---- -- ------<br>-- --- -------- -------- ---------- ---- ---- ---- ------<br>-- --------- -- ---- -- --- -- --- ------- is - -----<br>---------- -- -- -- ---- ----- -- ------ -- --- ------<br>-------,356671.97500000475,356668.3449999982,356214.82,356216.21500000765,356231.571,356683.848,,35,is
screen,html.Screen,2_3_1_0_1_36,2021-04-30T12:48:52.302Z,,,,,,,,,,,,,,,,,48,,,,,,,,,,,,,,360.39200000290293,,response,,,,10,E,,,,,,Space,keypress(Space),,,,lyrical,,,,-- -- --- ------ ------- --------- ----------- --------<br>--------- -------- --- ------- -- ------- ---- -- ------<br>-- --- -------- -------- ---------- ---- ---- ---- ------<br>-- --------- -- ---- -- --- -- --- ------- -- a -----<br>---------- -- -- -- ---- ----- -- ------ -- --- ------<br>-------,357047.5299999962,357044.2400000029,356667.097,356672.1700000053,356683.848,357052.37,,36,a
screen,html.Screen,2_3_1_0_1_37,2021-04-30T12:48:52.908Z,,,,,,,,,,,,,,,,,48,,,,,,,,,,,,,,599.875000004773,,response,,,,10,E,,,,,,Space,keypress(Space),,,,lyrical,,,,-- -- --- ------ ------- --------- ----------- --------<br>--------- -------- --- ------- -- ------- ---- -- ------<br>-- --- -------- -------- ---------- ---- ---- ---- ------<br>-- --------- -- ---- -- --- -- --- ------- -- - crime<br>---------- -- -- -- ---- ----- -- ------ -- --- ------<br>-------,357654.33499999926,357652.24500000477,357035.619,357047.7150000079,357052.37,357655.406,,37,crime
screen,html.Screen,2_3_1_0_1_38,2021-04-30T12:48:53.486Z,,,,,,,,,,,,,,,,,48,,,,,,,,,,,,,,572.8589999979013,,response,,,,10,E,,,,,,Space,keypress(Space),,,,lyrical,,,,-- -- --- ------ ------- --------- ----------- --------<br>--------- -------- --- ------- -- ------- ---- -- ------<br>-- --- -------- -------- ---------- ---- ---- ---- ------<br>-- --------- -- ---- -- --- -- --- ------- -- - -----<br>punishable -- -- -- ---- ----- -- ------ -- --- ------<br>-------,358231.495,358228.2649999979,357638.655,357654.4600000052,357655.406,358241.691,,38,punishable
screen,html.Screen,2_3_1_0_1_39,2021-04-30T12:48:53.934Z,,,,,,,,,,,,,,,,,48,,,,,,,,,,,,,,434.61900000984315,,response,,,,10,E,,,,,,Space,keypress(Space),,,,lyrical,,,,-- -- --- ------ ------- --------- ----------- --------<br>--------- -------- --- ------- -- ------- ---- -- ------<br>-- --- -------- -------- ---------- ---- ---- ---- ------<br>-- --------- -- ---- -- --- -- --- ------- -- - -----<br>---------- by -- -- ---- ----- -- ------ -- --- ------<br>-------,358679.77000000246,358676.31000000983,358224.94,358231.7000000039,358241.691,358693.968,,39,by
screen,html.Screen,2_3_1_0_1_40,2021-04-30T12:48:54.445Z,,,,,,,,,,,,,,,,,48,,,,,,,,,,,,,,494.3620000045048,,response,,,,10,E,,,,,,Space,keypress(Space),,,,lyrical,,,,-- -- --- ------ ------- --------- ----------- --------<br>--------- -------- --- ------- -- ------- ---- -- ------<br>-- --- -------- -------- ---------- ---- ---- ---- ------<br>-- --------- -- ---- -- --- -- --- ------- -- - -----<br>---------- -- up -- ---- ----- -- ------ -- --- ------<br>-------,359190.6149999995,359188.3300000045,358677.217,358679.9200000096,358693.968,359196.498,,40,up
screen,html.Screen,2_3_1_0_1_41,2021-04-30T12:48:54.862Z,,,,,,,,,,,,,,,,,48,,,,,,,,,,,,,,407.81700000411365,,response,,,,10,E,,,,,,Space,keypress(Space),,,,lyrical,,,,-- -- --- ------ ------- --------- ----------- --------<br>--------- -------- --- ------- -- ------- ---- -- ------<br>-- --- -------- -------- ---------- ---- ---- ---- ------<br>-- --------- -- ---- -- --- -- --- ------- -- - -----<br>---------- -- -- to ---- ----- -- ------ -- --- ------<br>-------,359607.9800000007,359604.31500000414,359179.747,359190.75000000885,359196.498,359615.273,,41,to
