sender,sender_type,sender_id,timestamp,meta,,Blues,Classical,Country,Dance,Electronic,Folk,Gospel,Hip-Hop,Jazz,Latin,Musical/Film,New-age,Pop,Prolific_id,Provo_ID,R&B,Rap,Reggae,Religious,Rock,Soul,Swing,Traditional,age,artist_name,correct,correctResponse,distraction,duration,education,ended_on,familiarity,gender,headphone_check_performance,item,list,music_frequency,offensiveness,pleasantness,position_correct,preference,response,response_action,snippet_file,song_name,song_rating,sound,stimulus_1,stimulus_2,stimulus_3,text,time_commit,time_end,time_render,time_run,time_show,time_switch,url,word,word_ID
Prolific ID,html.Form,0,2021-04-30T11:54:30.479Z,"{""labjs_version"":""20.2.2"",""labjs_build"":{""flavor"":""production"",""commit"":""a25486e0c714a0ae2ce03ff94b7bb6896854dcfa""},""location"":""https://run.pavlovia.org/mvasilev/prolific_music_d/"",""userAgent"":""Mozilla/5.0 (Windows NT 10.0; Win64; x64; rv:88.0) Gecko/20100101 Firefox/88.0"",""platform"":""Win32"",""language"":""en-GB"",""locale"":""en-GB"",""timeZone"":""Europe/London"",""timezoneOffset"":-60,""screen_width"":1536,""screen_height"":864,""scroll_width"":1536,""scroll_height"":702,""window_innerWidth"":1536,""window_innerHeight"":750,""devicePixelRatio"":1.25}",,,,,,,,,,,,,,,59feed1da383a100011b3eaa,,,,,,,,,,,,,,,7865,,form submission,,,,,,,,,,,,,,,,,,,,,18765,18764,10882.34,10880,10899,18782.28,{},,
Introduction,html.Screen,1_0,2021-04-30T11:54:35.923Z,,,,,,,,,,,,,,,,,,,,,,,,,,,,,,,5420.720000000001,,response,,,,,,,,,,,continue,click button,,,,,,,,,24209,24203,18765.6,18767,18782.28,24232.28,,,
Volume calibration,html.Screen,1_1,2021-04-30T11:54:50.604Z,,,,,,,,,,,,,,,,,,,,,,,,,,,,,,,14642.720000000001,,response,,,,,,,,,,,continue,click button,,,,,,,,,38889,38875,24215.88,24209,24232.28,38915.46,,,
Task instructions,html.Screen,1_2,2021-04-30T11:55:16.509Z,,,,,,,,,,,,,,,,,,,,,,,,,,,,,,,25865.54,,response,,,,,,,,,,,continue,click button,,,,,,,,,64794,64781,38898.8,38889,38915.46,64815.58,,,
Sounds,html.Screen,1_3_0_0,2021-04-30T11:55:20.766Z,,,,,,,,,,,,,,,,,,,,,,,,,,,,,,,4250,,timeout,,,,,,,,,2,,,,,,,,I,S,O,,69051,69048.9,64798.92,64795,64815.58,69065.58,,,
Judgement,html.Screen,1_3_0_1,2021-04-30T11:55:23.331Z,,,,,,,,,,,,,,,,,,,,,,,,,,,,true,2,,2543.4199999999983,,response,,,,,,,,,2,,2,click #choice-2,,,,,I,S,O,,71617,71609,69048.9,69052,69065.58,71648.5,,,
Trial,flow.Sequence,1_3_0,2021-04-30T11:55:23.332Z,,,,,,,,,,,,,,,,,,,,,,,,,,,,,,,6793.419999999998,,completion,,,,,,,,,2,,,,,,,,I,S,O,,71617,71609,64798.92,64795,64815.58,71648.5,,,
Sounds,html.Screen,1_3_1_0,2021-04-30T11:55:27.598Z,,,,,,,,,,,,,,,,,,,,,,,,,,,,,,,4249.960000000006,,timeout,,,,,,,,,3,,,,,,,,O,I,S,,75883,75881.8,71631.82,71618,71648.5,75898.46,,,
Judgement,html.Screen,1_3_1_1,2021-04-30T11:55:28.685Z,,,,,,,,,,,,,,,,,,,,,,,,,,,,true,3,,1070.5399999999936,,response,,,,,,,,,3,,3,click #choice-3,,,,,O,I,S,,76971,76969,75881.8,75884,75898.46,76998.88,,,
Trial,flow.Sequence,1_3_1,2021-04-30T11:55:28.685Z,,,,,,,,,,,,,,,,,,,,,,,,,,,,,,,5320.5,,completion,,,,,,,,,3,,,,,,,,O,I,S,,76971,76969,71631.82,71617,71648.5,76998.88,,,
Sounds,html.Screen,1_3_2_0,2021-04-30T11:55:32.948Z,,,,,,,,,,,,,,,,,,,,,,,,,,,,,,,4249.539999999994,,timeout,,,,,,,,,1,,,,,,,,S,I,O,,81232,81231.76,76982.26,76971,76998.88,81248.42,,,
Judgement,html.Screen,1_3_2_1,2021-04-30T11:55:33.719Z,,,,,,,,,,,,,,,,,,,,,,,,,,,,true,1,,751.5800000000017,,response,,,,,,,,,1,,1,click #choice-1,,,,,S,I,O,,82004,82000,81231.76,81233,81248.42,82031.98,,,
Trial,flow.Sequence,1_3_2,2021-04-30T11:55:33.719Z,,,,,,,,,,,,,,,,,,,,,,,,,,,,,,,5001.119999999995,,completion,,,,,,,,,1,,,,,,,,S,I,O,,82004,82000,76982.26,76971,76998.88,82031.98,,,
Sounds,html.Screen,1_3_3_0,2021-04-30T11:55:37.981Z,,,,,,,,,,,,,,,,,,,,,,,,,,,,,,,4249.720000000001,,timeout,,,,,,,,,3,,,,,,,,I,O,S,,86267,86265.08,82015.38,82005,82031.98,86281.7,,,
Judgement,html.Screen,1_3_3_1,2021-04-30T11:55:38.871Z,,,,,,,,,,,,,,,,,,,,,,,,,,,,true,3,,858.3000000000029,,response,,,,,,,,,3,,3,click #choice-3,,,,,I,O,S,,87156,87140,86265.08,86267,86281.7,87181.98,,,
Trial,flow.Sequence,1_3_3,2021-04-30T11:55:38.871Z,,,,,,,,,,,,,,,,,,,,,,,,,,,,,,,5108.020000000004,,completion,,,,,,,,,3,,,,,,,,I,O,S,,87157,87140,82015.38,82005,82031.98,87181.98,,,
Sounds,html.Screen,1_3_4_0,2021-04-30T11:55:43.132Z,,,,,,,,,,,,,,,,,,,,,,,,,,,,,,,4249.800000000003,,timeout,,,,,,,,,1,,,,,,,,S,O,I,,91416,91415.12,87165.36,87157,87181.98,91431.78,,,
Judgement,html.Screen,1_3_4_1,2021-04-30T11:55:44.483Z,,,,,,,,,,,,,,,,,,,,,,,,,,,,true,1,,1333.2200000000012,,response,,,,,,,,,1,,1,click #choice-1,,,,,S,O,I,,92768,92765,91415.12,91416,91431.78,92798.66,,,
Trial,flow.Sequence,1_3_4,2021-04-30T11:55:44.483Z,,,,,,,,,,,,,,,,,,,,,,,,,,,,,,,5583.020000000004,,completion,,,,,,,,,1,,,,,,,,S,O,I,,92768,92765,87165.36,87157,87181.98,92798.66,,,
Sounds,html.Screen,1_3_5_0,2021-04-30T11:55:48.748Z,,,,,,,,,,,,,,,,,,,,,,,,,,,,,,,4249.679999999993,,timeout,,,,,,,,,2,,,,,,,,O,S,I,,97033,97031.66,92782,92769,92798.66,97048.34,,,
Judgement,html.Screen,1_3_5_1,2021-04-30T11:55:49.431Z,,,,,,,,,,,,,,,,,,,,,,,,,,,,true,2,,654.6600000000035,,response,,,,,,,,,2,,2,click #choice-2,,,,,O,S,I,,97717,97703,97031.66,97033,97048.34,97748.54,,,
Trial,flow.Sequence,1_3_5,2021-04-30T11:55:49.432Z,,,,,,,,,,,,,,,,,,,,,,,,,,,,,,,4904.3399999999965,,completion,,,,,,,,,2,,,,,,,,O,S,I,,97717,97703,92782,92769,92798.66,97748.54,,,
Task,flow.Loop,1_3,2021-04-30T11:55:49.433Z,,,,,,,,,,,,,,,,,,,,,,,,,,,,,,,32887.42,,completion,,,1,,,,,,,,,,,,,,,,,,97718,97703,64798.92,64795,64815.58,97748.54,,,
Trap,html.Screen,1_4,2021-04-30T11:55:49.434Z,,,,,,,,,,,,,,,,,,,,,,,,,,,,,,,NaN,,skipped,,,,,,,,,,,,,,,,,,,,,97719,97703,,97719,,97748.54,,,
Thanks,html.Screen,1_5,2021-04-30T11:55:52.359Z,,,,,,,,,,,,,,,,,,,,,,,,,,,,,,,2891.4600000000064,,response,,,,,,,,,,,continue,click button,,,,,,,,,100644,100640,97731.86,97719,97748.54,104465.04,,,
Headphone screening,flow.Sequence,1,2021-04-30T11:55:52.359Z,,,,,,,,,,,,,,,,,,,,,,,,,,,,,,,81857.72,,completion,,,,,,,,,,,,,,,,,,,,,100644,100640,18765.6,18766,18782.28,104465.04,,,
Instructions,html.Page,2_0,2021-04-30T11:56:11.045Z,,,,,,,,,,,,,,,,,,,,,,,,,,,,,,,14861.960000000006,,form submission,,,,,,,,,,,,,,,,,,,,,119329,119327,104448.38,104446,104465.04,119348.14,,,
Holding screen,html.Screen,2_1_0_0,2021-04-30T11:56:21.048Z,,,,,,,,,,,,,,,,,,,,,,,,,,,,,,,10000,,timeout,,,,,,,,,,,,,,,,,,,,,129333,129331.48,119331.48,119330,119348.14,129348.14,,,
screen,html.Screen,2_1_0_1_0,2021-04-30T11:56:22.627Z,,,,,,,,,,,,,,,,,53,,,,,,,,,,,,,,1557.8600000000006,,response,,,,99,,,,,,,Space,keypress(Space),,,,,,,,When -- ----- -- ------ - ------- --- ----------<br>------------- ------ ------ ---- ---- ------- ----- -- ----<br>-------- ------- -- ---------- --- - --- ----- ----- ----<br>---- --- --- ----- --- ---- ---- ------- ----- ---- -------<br>--- --- -- ----- -- --- ---- -- --- ---- -- ------ ------<br>--- ----- -- ----,130912,130906,129331.48,129333,129348.14,130914.72,,0,When
screen,html.Screen,2_1_0_1_1,2021-04-30T11:56:23.359Z,,,,,,,,,,,,,,,,,53,,,,,,,,,,,,,,725.2799999999988,,response,,,,99,,,,,,,Space,keypress(Space),,,,,,,,---- it ----- -- ------ - ------- --- ----------<br>------------- ------ ------ ---- ---- ------- ----- -- ----<br>-------- ------- -- ---------- --- - --- ----- ----- ----<br>---- --- --- ----- --- ---- ---- ------- ----- ---- -------<br>--- --- -- ----- -- --- ---- -- --- ---- -- ------ ------<br>--- ----- -- ----,131644,131640,130911.62,130912,130914.72,131648.1,,1,it
screen,html.Screen,2_1_0_1_2,2021-04-30T11:56:24.127Z,,,,,,,,,,,,,,,,,53,,,,,,,,,,,,,,757.8999999999942,,response,,,,99,,,,,,,Space,keypress(Space),,,,,,,,---- -- comes -- ------ - ------- --- ----------<br>------------- ------ ------ ---- ---- ------- ----- -- ----<br>-------- ------- -- ---------- --- - --- ----- ----- ----<br>---- --- --- ----- --- ---- ---- ------- ----- ---- -------<br>--- --- -- ----- -- --- ---- -- --- ---- -- ------ ------<br>--- ----- -- ----,132412,132406,131644.28,131644,131648.1,132414.74,,2,comes
screen,html.Screen,2_1_0_1_3,2021-04-30T11:56:24.683Z,,,,,,,,,,,,,,,,,53,,,,,,,,,,,,,,538.2600000000093,,response,,,,99,,,,,,,Space,keypress(Space),,,,,,,,---- -- ----- to ------ - ------- --- ----------<br>------------- ------ ------ ---- ---- ------- ----- -- ----<br>-------- ------- -- ---------- --- - --- ----- ----- ----<br>---- --- --- ----- --- ---- ---- ------- ----- ---- -------<br>--- --- -- ----- -- --- ---- -- --- ---- -- ------ ------<br>--- ----- -- ----,132968,132953,132412.22,132412,132414.74,132981.76,,3,to
screen,html.Screen,2_1_0_1_4,2021-04-30T11:56:25.377Z,,,,,,,,,,,,,,,,,53,,,,,,,,,,,,,,674.2399999999907,,response,,,,99,,,,,,,Space,keypress(Space),,,,,,,,---- -- ----- -- having - ------- --- ----------<br>------------- ------ ------ ---- ---- ------- ----- -- ----<br>-------- ------- -- ---------- --- - --- ----- ----- ----<br>---- --- --- ----- --- ---- ---- ------- ----- ---- -------<br>--- --- -- ----- -- --- ---- -- --- ---- -- ------ ------<br>--- ----- -- ----,133662,133656,132968.74,132968,132981.76,133664.74,,4,having
screen,html.Screen,2_1_0_1_5,2021-04-30T11:56:25.912Z,,,,,,,,,,,,,,,,,53,,,,,,,,,,,,,,522.2600000000093,,response,,,,99,,,,,,,Space,keypress(Space),,,,,,,,---- -- ----- -- ------ a ------- --- ----------<br>------------- ------ ------ ---- ---- ------- ----- -- ----<br>-------- ------- -- ---------- --- - --- ----- ----- ----<br>---- --- --- ----- --- ---- ---- ------- ----- ---- -------<br>--- --- -- ----- -- --- ---- -- --- ---- -- ------ ------<br>--- ----- -- ----,134198,134187,133662.44,133662,133664.74,134214.96,,5,a
screen,html.Screen,2_1_0_1_6,2021-04-30T11:56:26.618Z,,,,,,,,,,,,,,,,,53,,,,,,,,,,,,,,675.0400000000081,,response,,,,99,,,,,,,Space,keypress(Space),,,,,,,,---- -- ----- -- ------ - lasting --- ----------<br>------------- ------ ------ ---- ---- ------- ----- -- ----<br>-------- ------- -- ---------- --- - --- ----- ----- ----<br>---- --- --- ----- --- ---- ---- ------- ----- ---- -------<br>--- --- -- ----- -- --- ---- -- --- ---- -- ------ ------<br>--- ----- -- ----,134902,134890,134197.9,134198,134214.96,134914.98,,6,lasting
screen,html.Screen,2_1_0_1_7,2021-04-30T11:56:27.240Z,,,,,,,,,,,,,,,,,53,,,,,,,,,,,,,,600.0199999999895,,response,,,,99,,,,,,,Space,keypress(Space),,,,,,,,---- -- ----- -- ------ - ------- and ----------<br>------------- ------ ------ ---- ---- ------- ----- -- ----<br>-------- ------- -- ---------- --- - --- ----- ----- ----<br>---- --- --- ----- --- ---- ---- ------- ----- ---- -------<br>--- --- -- ----- -- --- ---- -- --- ---- -- ------ ------<br>--- ----- -- ----,135525,135515,134902.76,134902,134914.98,135531.54,,7,and
screen,html.Screen,2_1_0_1_8,2021-04-30T11:56:27.918Z,,,,,,,,,,,,,,,,,53,,,,,,,,,,,,,,655.4599999999919,,response,,,,99,,,,,,,Space,keypress(Space),,,,,,,,---- -- ----- -- ------ - ------- --- fulfilling<br>------------- ------ ------ ---- ---- ------- ----- -- ----<br>-------- ------- -- ---------- --- - --- ----- ----- ----<br>---- --- --- ----- --- ---- ---- ------- ----- ---- -------<br>--- --- -- ----- -- --- ---- -- --- ---- -- ------ ------<br>--- ----- -- ----,136204,136187,135525.4,135525,135531.54,136214.94,,8,fulfilling
screen,html.Screen,2_1_0_1_9,2021-04-30T11:56:28.589Z,,,,,,,,,,,,,,,,,53,,,,,,,,,,,,,,644.0599999999977,,response,,,,99,,,,,,,Space,keypress(Space),,,,,,,,"---- -- ----- -- ------ - ------- --- ----------<br>relationship, ------ ------ ---- ---- ------- ----- -- ----<br>-------- ------- -- ---------- --- - --- ----- ----- ----<br>---- --- --- ----- --- ---- ---- ------- ----- ---- -------<br>--- --- -- ----- -- --- ---- -- --- ---- -- ------ ------<br>--- ----- -- ----",136873,136859,136203.94,136204,136214.94,136881.66,,9,"relationship,"
screen,html.Screen,2_1_0_1_10,2021-04-30T11:56:29.251Z,,,,,,,,,,,,,,,,,53,,,,,,,,,,,,,,649.3399999999965,,response,,,,99,,,,,,,Space,keypress(Space),,,,,,,,---- -- ----- -- ------ - ------- --- ----------<br>------------- common ------ ---- ---- ------- ----- -- ----<br>-------- ------- -- ---------- --- - --- ----- ----- ----<br>---- --- --- ----- --- ---- ---- ------- ----- ---- -------<br>--- --- -- ----- -- --- ---- -- --- ---- -- ------ ------<br>--- ----- -- ----,137537,137531,136874.08,136874,136881.66,137548.36,,10,common
screen,html.Screen,2_1_0_1_11,2021-04-30T11:56:29.835Z,,,,,,,,,,,,,,,,,53,,,,,,,,,,,,,,561.640000000014,,response,,,,99,,,,,,,Space,keypress(Space),,,,,,,,---- -- ----- -- ------ - ------- --- ----------<br>------------- ------ wisdom ---- ---- ------- ----- -- ----<br>-------- ------- -- ---------- --- - --- ----- ----- ----<br>---- --- --- ----- --- ---- ---- ------- ----- ---- -------<br>--- --- -- ----- -- --- ---- -- --- ---- -- ------ ------<br>--- ----- -- ----,138120,138110,137537.24,137537,137548.36,138131.6,,11,wisdom
screen,html.Screen,2_1_0_1_12,2021-04-30T11:56:30.377Z,,,,,,,,,,,,,,,,,53,,,,,,,,,,,,,,524.3999999999942,,response,,,,99,,,,,,,Space,keypress(Space),,,,,,,,---- -- ----- -- ------ - ------- --- ----------<br>------------- ------ ------ says ---- ------- ----- -- ----<br>-------- ------- -- ---------- --- - --- ----- ----- ----<br>---- --- --- ----- --- ---- ---- ------- ----- ---- -------<br>--- --- -- ----- -- --- ---- -- --- ---- -- ------ ------<br>--- ----- -- ----,138662,138656,138120.5,138121,138131.6,138664.66,,12,says
screen,html.Screen,2_1_0_1_13,2021-04-30T11:56:30.943Z,,,,,,,,,,,,,,,,,53,,,,,,,,,,,,,,554.3399999999965,,response,,,,99,,,,,,,Space,keypress(Space),,,,,,,,---- -- ----- -- ------ - ------- --- ----------<br>------------- ------ ------ ---- that ------- ----- -- ----<br>-------- ------- -- ---------- --- - --- ----- ----- ----<br>---- --- --- ----- --- ---- ---- ------- ----- ---- -------<br>--- --- -- ----- -- --- ---- -- --- ---- -- ------ ------<br>--- ----- -- ----,139228,139219,138662.26,138662,138664.66,139231.34,,13,that
screen,html.Screen,2_1_0_1_14,2021-04-30T11:56:31.612Z,,,,,,,,,,,,,,,,,53,,,,,,,,,,,,,,658.6600000000035,,response,,,,99,,,,,,,Space,keypress(Space),,,,,,,,---- -- ----- -- ------ - ------- --- ----------<br>------------- ------ ------ ---- ---- feeling ----- -- ----<br>-------- ------- -- ---------- --- - --- ----- ----- ----<br>---- --- --- ----- --- ---- ---- ------- ----- ---- -------<br>--- --- -- ----- -- --- ---- -- --- ---- -- ------ ------<br>--- ----- -- ----,139897,139890,139228.74,139228,139231.34,139914.9,,14,feeling
screen,html.Screen,2_1_0_1_15,2021-04-30T11:56:32.245Z,,,,,,,,,,,,,,,,,53,,,,,,,,,,,,,,600.1000000000058,,response,,,,99,,,,,,,Space,keypress(Space),,,,,,,,---- -- ----- -- ------ - ------- --- ----------<br>------------- ------ ------ ---- ---- ------- close -- ----<br>-------- ------- -- ---------- --- - --- ----- ----- ----<br>---- --- --- ----- --- ---- ---- ------- ----- ---- -------<br>--- --- -- ----- -- --- ---- -- --- ---- -- ------ ------<br>--- ----- -- ----,140530,140515,139897.72,139898,139914.9,140531.3,,15,close
screen,html.Screen,2_1_0_1_16,2021-04-30T11:56:32.835Z,,,,,,,,,,,,,,,,,53,,,,,,,,,,,,,,577.7000000000116,,response,,,,99,,,,,,,Space,keypress(Space),,,,,,,,---- -- ----- -- ------ - ------- --- ----------<br>------------- ------ ------ ---- ---- ------- ----- to ----<br>-------- ------- -- ---------- --- - --- ----- ----- ----<br>---- --- --- ----- --- ---- ---- ------- ----- ---- -------<br>--- --- -- ----- -- --- ---- -- --- ---- -- ------ ------<br>--- ----- -- ----,141121,141109,140529.98,140530,140531.3,141131.62,,16,to
screen,html.Screen,2_1_0_1_17,2021-04-30T11:56:33.524Z,,,,,,,,,,,,,,,,,53,,,,,,,,,,,,,,665.3800000000047,,response,,,,99,,,,,,,Space,keypress(Space),,,,,,,,---- -- ----- -- ------ - ------- --- ----------<br>------------- ------ ------ ---- ---- ------- ----- -- your<br>-------- ------- -- ---------- --- - --- ----- ----- ----<br>---- --- --- ----- --- ---- ---- ------- ----- ---- -------<br>--- --- -- ----- -- --- ---- -- --- ---- -- ------ ------<br>--- ----- -- ----,141809,141797,141120.84,141121,141131.62,141814.94,,17,your
screen,html.Screen,2_1_0_1_18,2021-04-30T11:56:34.125Z,,,,,,,,,,,,,,,,,53,,,,,,,,,,,,,,591.0599999999977,,response,,,,99,,,,,,,Space,keypress(Space),,,,,,,,---- -- ----- -- ------ - ------- --- ----------<br>------------- ------ ------ ---- ---- ------- ----- -- ----<br>romantic ------- -- ---------- --- - --- ----- ----- ----<br>---- --- --- ----- --- ---- ---- ------- ----- ---- -------<br>--- --- -- ----- -- --- ---- -- --- ---- -- ------ ------<br>--- ----- -- ----,142411,142406,141809.02,141809,141814.94,142414.6,,18,romantic
screen,html.Screen,2_1_0_1_19,2021-04-30T11:56:34.780Z,,,,,,,,,,,,,,,,,53,,,,,,,,,,,,,,647.3999999999942,,response,,,,99,,,,,,,Space,keypress(Space),,,,,,,,---- -- ----- -- ------ - ------- --- ----------<br>------------- ------ ------ ---- ---- ------- ----- -- ----<br>-------- partner -- ---------- --- - --- ----- ----- ----<br>---- --- --- ----- --- ---- ---- ------- ----- ---- -------<br>--- --- -- ----- -- --- ---- -- --- ---- -- ------ ------<br>--- ----- -- ----,143065,143062,142410.62,142411,142414.6,143081.66,,19,partner
screen,html.Screen,2_1_0_1_20,2021-04-30T11:56:35.362Z,,,,,,,,,,,,,,,,,53,,,,,,,,,,,,,,558.3399999999965,,response,,,,99,,,,,,,Space,keypress(Space),,,,,,,,---- -- ----- -- ------ - ------- --- ----------<br>------------- ------ ------ ---- ---- ------- ----- -- ----<br>-------- ------- is ---------- --- - --- ----- ----- ----<br>---- --- --- ----- --- ---- ---- ------- ----- ---- -------<br>--- --- -- ----- -- --- ---- -- --- ---- -- ------ ------<br>--- ----- -- ----,143646,143640,143065.2,143065,143081.66,143647.94,,20,is
screen,html.Screen,2_1_0_1_21,2021-04-30T11:56:36.482Z,,,,,,,,,,,,,,,,,53,,,,,,,,,,,,,,1102.0599999999977,,response,,,,99,,,,,,,Space,keypress(Space),,,,,,,,---- -- ----- -- ------ - ------- --- ----------<br>------------- ------ ------ ---- ---- ------- ----- -- ----<br>-------- ------- -- paramount. --- - --- ----- ----- ----<br>---- --- --- ----- --- ---- ---- ------- ----- ---- -------<br>--- --- -- ----- -- --- ---- -- --- ---- -- ------ ------<br>--- ----- -- ----,144767,144750,143646.68,143647,143647.94,144781.58,,21,paramount.
screen,html.Screen,2_1_0_1_22,2021-04-30T11:56:37.096Z,,,,,,,,,,,,,,,,,53,,,,,,,,,,,,,,593.4200000000128,,response,,,,99,,,,,,,Space,keypress(Space),,,,,,,,---- -- ----- -- ------ - ------- --- ----------<br>------------- ------ ------ ---- ---- ------- ----- -- ----<br>-------- ------- -- ---------- But - --- ----- ----- ----<br>---- --- --- ----- --- ---- ---- ------- ----- ---- -------<br>--- --- -- ----- -- --- ---- -- --- ---- -- ------ ------<br>--- ----- -- ----,145381,145375,144767.18,144767,144781.58,145398.3,,22,But
screen,html.Screen,2_1_0_1_23,2021-04-30T11:56:37.757Z,,,,,,,,,,,,,,,,,53,,,,,,,,,,,,,,632.7000000000116,,response,,,,99,,,,,,,Space,keypress(Space),,,,,,,,---- -- ----- -- ------ - ------- --- ----------<br>------------- ------ ------ ---- ---- ------- ----- -- ----<br>-------- ------- -- ---------- --- a --- ----- ----- ----<br>---- --- --- ----- --- ---- ---- ------- ----- ---- -------<br>--- --- -- ----- -- --- ---- -- --- ---- -- ------ ------<br>--- ----- -- ----,146042,146031,145381.42,145381,145398.3,146048.08,,23,a
screen,html.Screen,2_1_0_1_24,2021-04-30T11:56:38.452Z,,,,,,,,,,,,,,,,,53,,,,,,,,,,,,,,686.9200000000128,,response,,,,99,,,,,,,Space,keypress(Space),,,,,,,,---- -- ----- -- ------ - ------- --- ----------<br>------------- ------ ------ ---- ---- ------- ----- -- ----<br>-------- ------- -- ---------- --- - new ----- ----- ----<br>---- --- --- ----- --- ---- ---- ------- ----- ---- -------<br>--- --- -- ----- -- --- ---- -- --- ---- -- ------ ------<br>--- ----- -- ----,146737,146735,146042.56,146042,146048.08,146748.08,,24,new
screen,html.Screen,2_1_0_1_25,2021-04-30T11:56:39.084Z,,,,,,,,,,,,,,,,,53,,,,,,,,,,,,,,610.9200000000128,,response,,,,99,,,,,,,Space,keypress(Space),,,,,,,,---- -- ----- -- ------ - ------- --- ----------<br>------------- ------ ------ ---- ---- ------- ----- -- ----<br>-------- ------- -- ---------- --- - --- study ----- ----<br>---- --- --- ----- --- ---- ---- ------- ----- ---- -------<br>--- --- -- ----- -- --- ---- -- --- ---- -- ------ ------<br>--- ----- -- ----,147370,147359,146736.56,146737,146748.08,147381.66,,25,study
screen,html.Screen,2_1_0_1_26,2021-04-30T11:56:39.756Z,,,,,,,,,,,,,,,,,53,,,,,,,,,,,,,,649.3399999999965,,response,,,,99,,,,,,,Space,keypress(Space),,,,,,,,---- -- ----- -- ------ - ------- --- ----------<br>------------- ------ ------ ---- ---- ------- ----- -- ----<br>-------- ------- -- ---------- --- - --- ----- finds ----<br>---- --- --- ----- --- ---- ---- ------- ----- ---- -------<br>--- --- -- ----- -- --- ---- -- --- ---- -- ------ ------<br>--- ----- -- ----,148041,148031,147369.8,147370,147381.66,148048.04,,26,finds
screen,html.Screen,2_1_0_1_27,2021-04-30T11:56:40.335Z,,,,,,,,,,,,,,,,,53,,,,,,,,,,,,,,560.9599999999919,,response,,,,99,,,,,,,Space,keypress(Space),,,,,,,,---- -- ----- -- ------ - ------- --- ----------<br>------------- ------ ------ ---- ---- ------- ----- -- ----<br>-------- ------- -- ---------- --- - --- ----- ----- that<br>---- --- --- ----- --- ---- ---- ------- ----- ---- -------<br>--- --- -- ----- -- --- ---- -- --- ---- -- ------ ------<br>--- ----- -- ----,148620,148609,148040.96,148041,148048.04,148631.24,,27,that
screen,html.Screen,2_1_0_1_28,2021-04-30T11:56:40.986Z,,,,,,,,,,,,,,,,,53,,,,,,,,,,,,,,633.7600000000093,,response,,,,99,,,,,,,Space,keypress(Space),,,,,,,,---- -- ----- -- ------ - ------- --- ----------<br>------------- ------ ------ ---- ---- ------- ----- -- ----<br>-------- ------- -- ---------- --- - --- ----- ----- ----<br>it's --- --- ----- --- ---- ---- ------- ----- ---- -------<br>--- --- -- ----- -- --- ---- -- --- ---- -- ------ ------<br>--- ----- -- ----,149271,149265,148620.28,148621,148631.24,149281.54,,28,it's
screen,html.Screen,2_1_0_1_29,2021-04-30T11:56:41.569Z,,,,,,,,,,,,,,,,,53,,,,,,,,,,,,,,562.4599999999919,,response,,,,99,,,,,,,Space,keypress(Space),,,,,,,,---- -- ----- -- ------ - ------- --- ----------<br>------------- ------ ------ ---- ---- ------- ----- -- ----<br>-------- ------- -- ---------- --- - --- ----- ----- ----<br>---- not --- ----- --- ---- ---- ------- ----- ---- -------<br>--- --- -- ----- -- --- ---- -- --- ---- -- ------ ------<br>--- ----- -- ----,149854,149844,149271.24,149271,149281.54,149864.86,,29,not
screen,html.Screen,2_1_0_1_30,2021-04-30T11:56:42.235Z,,,,,,,,,,,,,,,,,53,,,,,,,,,,,,,,650.140000000014,,response,,,,99,,,,,,,Space,keypress(Space),,,,,,,,---- -- ----- -- ------ - ------- --- ----------<br>------------- ------ ------ ---- ---- ------- ----- -- ----<br>-------- ------- -- ---------- --- - --- ----- ----- ----<br>---- --- how ----- --- ---- ---- ------- ----- ---- -------<br>--- --- -- ----- -- --- ---- -- --- ---- -- ------ ------<br>--- ----- -- ----,150520,150515,149854.24,149854,149864.86,150531.56,,30,how
screen,html.Screen,2_1_0_1_31,2021-04-30T11:56:42.891Z,,,,,,,,,,,,,,,,,53,,,,,,,,,,,,,,640.4400000000023,,response,,,,99,,,,,,,Space,keypress(Space),,,,,,,,---- -- ----- -- ------ - ------- --- ----------<br>------------- ------ ------ ---- ---- ------- ----- -- ----<br>-------- ------- -- ---------- --- - --- ----- ----- ----<br>---- --- --- close --- ---- ---- ------- ----- ---- -------<br>--- --- -- ----- -- --- ---- -- --- ---- -- ------ ------<br>--- ----- -- ----,151176,151172,150520.16,150520,150531.56,151181.5,,31,close
screen,html.Screen,2_1_0_1_32,2021-04-30T11:56:43.535Z,,,,,,,,,,,,,,,,,53,,,,,,,,,,,,,,630.5,,response,,,,99,,,,,,,Space,keypress(Space),,,,,,,,---- -- ----- -- ------ - ------- --- ----------<br>------------- ------ ------ ---- ---- ------- ----- -- ----<br>-------- ------- -- ---------- --- - --- ----- ----- ----<br>---- --- --- ----- you ---- ---- ------- ----- ---- -------<br>--- --- -- ----- -- --- ---- -- --- ---- -- ------ ------<br>--- ----- -- ----,151820,151812,151176.42,151176,151181.5,151831.5,,32,you
screen,html.Screen,2_1_0_1_33,2021-04-30T11:56:44.118Z,,,,,,,,,,,,,,,,,53,,,,,,,,,,,,,,558.5,,response,,,,99,,,,,,,Space,keypress(Space),,,,,,,,---- -- ----- -- ------ - ------- --- ----------<br>------------- ------ ------ ---- ---- ------- ----- -- ----<br>-------- ------- -- ---------- --- - --- ----- ----- ----<br>---- --- --- ----- --- feel ---- ------- ----- ---- -------<br>--- --- -- ----- -- --- ---- -- --- ---- -- ------ ------<br>--- ----- -- ----,152403,152390,151820.56,151820,151831.5,152414.54,,33,feel
screen,html.Screen,2_1_0_1_34,2021-04-30T11:56:44.770Z,,,,,,,,,,,,,,,,,53,,,,,,,,,,,,,,632.4599999999919,,response,,,,99,,,,,,,Space,keypress(Space),,,,,,,,---- -- ----- -- ------ - ------- --- ----------<br>------------- ------ ------ ---- ---- ------- ----- -- ----<br>-------- ------- -- ---------- --- - --- ----- ----- ----<br>---- --- --- ----- --- ---- that ------- ----- ---- -------<br>--- --- -- ----- -- --- ---- -- --- ---- -- ------ ------<br>--- ----- -- ----,153055,153047,152403.58,152404,152414.54,153064.84,,34,that
screen,html.Screen,2_1_0_1_35,2021-04-30T11:56:45.363Z,,,,,,,,,,,,,,,,,53,,,,,,,,,,,,,,575.1600000000035,,response,,,,99,,,,,,,Space,keypress(Space),,,,,,,,---- -- ----- -- ------ - ------- --- ----------<br>------------- ------ ------ ---- ---- ------- ----- -- ----<br>-------- ------- -- ---------- --- - --- ----- ----- ----<br>---- --- --- ----- --- ---- ---- matters ----- ---- -------<br>--- --- -- ----- -- --- ---- -- --- ---- -- ------ ------<br>--- ----- -- ----,153648,153640,153055.18,153055,153064.84,153664.82,,35,matters
screen,html.Screen,2_1_0_1_36,2021-04-30T11:56:46.163Z,,,,,,,,,,,,,,,,,53,,,,,,,,,,,,,,772.179999999993,,response,,,,99,,,,,,,Space,keypress(Space),,,,,,,,"---- -- ----- -- ------ - ------- --- ----------<br>------------- ------ ------ ---- ---- ------- ----- -- ----<br>-------- ------- -- ---------- --- - --- ----- ----- ----<br>---- --- --- ----- --- ---- ---- ------- most, ---- -------<br>--- --- -- ----- -- --- ---- -- --- ---- -- ------ ------<br>--- ----- -- ----",154447,154437,153648.8,153648,153664.82,154464.8,,36,"most,"
screen,html.Screen,2_1_0_1_37,2021-04-30T11:56:46.696Z,,,,,,,,,,,,,,,,,53,,,,,,,,,,,,,,504.20000000001164,,response,,,,99,,,,,,,Space,keypress(Space),,,,,,,,---- -- ----- -- ------ - ------- --- ----------<br>------------- ------ ------ ---- ---- ------- ----- -- ----<br>-------- ------- -- ---------- --- - --- ----- ----- ----<br>---- --- --- ----- --- ---- ---- ------- ----- it's -------<br>--- --- -- ----- -- --- ---- -- --- ---- -- ------ ------<br>--- ----- -- ----,154981,154969,154448.04,154447,154464.8,154998.24,,37,it's
screen,html.Screen,2_1_0_1_38,2021-04-30T11:56:47.301Z,,,,,,,,,,,,,,,,,53,,,,,,,,,,,,,,579.7600000000093,,response,,,,99,,,,,,,Space,keypress(Space),,,,,,,,---- -- ----- -- ------ - ------- --- ----------<br>------------- ------ ------ ---- ---- ------- ----- -- ----<br>-------- ------- -- ---------- --- - --- ----- ----- ----<br>---- --- --- ----- --- ---- ---- ------- ----- ---- whether<br>--- --- -- ----- -- --- ---- -- --- ---- -- ------ ------<br>--- ----- -- ----,155585,155578,154980.86,154981,154998.24,155597.88,,38,whether
screen,html.Screen,2_1_0_1_39,2021-04-30T11:56:47.825Z,,,,,,,,,,,,,,,,,53,,,,,,,,,,,,,,496.11999999999534,,response,,,,99,,,,,,,Space,keypress(Space),,,,,,,,---- -- ----- -- ------ - ------- --- ----------<br>------------- ------ ------ ---- ---- ------- ----- -- ----<br>-------- ------- -- ---------- --- - --- ----- ----- ----<br>---- --- --- ----- --- ---- ---- ------- ----- ---- -------<br>you --- -- ----- -- --- ---- -- --- ---- -- ------ ------<br>--- ----- -- ----,156111,156094,155585.52,155585,155597.88,156114.82,,39,you
screen,html.Screen,2_1_0_1_40,2021-04-30T11:56:48.384Z,,,,,,,,,,,,,,,,,53,,,,,,,,,,,,,,541.179999999993,,response,,,,99,,,,,,,Space,keypress(Space),,,,,,,,---- -- ----- -- ------ - ------- --- ----------<br>------------- ------ ------ ---- ---- ------- ----- -- ----<br>-------- ------- -- ---------- --- - --- ----- ----- ----<br>---- --- --- ----- --- ---- ---- ------- ----- ---- -------<br>--- are -- ----- -- --- ---- -- --- ---- -- ------ ------<br>--- ----- -- ----,156669,156656,156110.72,156111,156114.82,156681.48,,40,are
screen,html.Screen,2_1_0_1_41,2021-04-30T11:56:48.938Z,,,,,,,,,,,,,,,,,53,,,,,,,,,,,,,,537.5199999999895,,response,,,,99,,,,,,,Space,keypress(Space),,,,,,,,---- -- ----- -- ------ - ------- --- ----------<br>------------- ------ ------ ---- ---- ------- ----- -- ----<br>-------- ------- -- ---------- --- - --- ----- ----- ----<br>---- --- --- ----- --- ---- ---- ------- ----- ---- -------<br>--- --- as ----- -- --- ---- -- --- ---- -- ------ ------<br>--- ----- -- ----,157224,157219,156669.2,156669,156681.48,157231.52,,41,as
screen,html.Screen,2_1_0_1_42,2021-04-30T11:56:49.536Z,,,,,,,,,,,,,,,,,53,,,,,,,,,,,,,,580.4800000000105,,response,,,,99,,,,,,,Space,keypress(Space),,,,,,,,---- -- ----- -- ------ - ------- --- ----------<br>------------- ------ ------ ---- ---- ------- ----- -- ----<br>-------- ------- -- ---------- --- - --- ----- ----- ----<br>---- --- --- ----- --- ---- ---- ------- ----- ---- -------<br>--- --- -- close -- --- ---- -- --- ---- -- ------ ------<br>--- ----- -- ----,157821,157812,157223.96,157224,157231.52,157831.52,,42,close
screen,html.Screen,2_1_0_1_43,2021-04-30T11:56:50.118Z,,,,,,,,,,,,,,,,,53,,,,,,,,,,,,,,558.4800000000105,,response,,,,99,,,,,,,Space,keypress(Space),,,,,,,,---- -- ----- -- ------ - ------- --- ----------<br>------------- ------ ------ ---- ---- ------- ----- -- ----<br>-------- ------- -- ---------- --- - --- ----- ----- ----<br>---- --- --- ----- --- ---- ---- ------- ----- ---- -------<br>--- --- -- ----- as --- ---- -- --- ---- -- ------ ------<br>--- ----- -- ----,158403,158390,157821.18,157821,157831.52,158414.6,,43,as
screen,html.Screen,2_1_0_1_44,2021-04-30T11:56:50.722Z,,,,,,,,,,,,,,,,,53,,,,,,,,,,,,,,585.3999999999942,,response,,,,99,,,,,,,Space,keypress(Space),,,,,,,,---- -- ----- -- ------ - ------- --- ----------<br>------------- ------ ------ ---- ---- ------- ----- -- ----<br>-------- ------- -- ---------- --- - --- ----- ----- ----<br>---- --- --- ----- --- ---- ---- ------- ----- ---- -------<br>--- --- -- ----- -- you ---- -- --- ---- -- ------ ------<br>--- ----- -- ----,159007,159000,158403.42,158404,158414.6,159014.66,,44,you
screen,html.Screen,2_1_0_1_45,2021-04-30T11:56:51.312Z,,,,,,,,,,,,,,,,,53,,,,,,,,,,,,,,579.3399999999965,,response,,,,99,,,,,,,Space,keypress(Space),,,,,,,,---- -- ----- -- ------ - ------- --- ----------<br>------------- ------ ------ ---- ---- ------- ----- -- ----<br>-------- ------- -- ---------- --- - --- ----- ----- ----<br>---- --- --- ----- --- ---- ---- ------- ----- ---- -------<br>--- --- -- ----- -- --- want -- --- ---- -- ------ ------<br>--- ----- -- ----,159597,159594,159007.4,159007,159014.66,159614.78,,45,want
screen,html.Screen,2_1_0_1_46,2021-04-30T11:56:51.863Z,,,,,,,,,,,,,,,,,53,,,,,,,,,,,,,,525.2200000000012,,response,,,,99,,,,,,,Space,keypress(Space),,,,,,,,---- -- ----- -- ------ - ------- --- ----------<br>------------- ------ ------ ---- ---- ------- ----- -- ----<br>-------- ------- -- ---------- --- - --- ----- ----- ----<br>---- --- --- ----- --- ---- ---- ------- ----- ---- -------<br>--- --- -- ----- -- --- ---- to --- ---- -- ------ ------<br>--- ----- -- ----,160148,160140,159597.1,159597,159614.78,160164.72,,46,to
screen,html.Screen,2_1_0_1_47,2021-04-30T11:56:52.870Z,,,,,,,,,,,,,,,,,53,,,,,,,,,,,,,,975.2799999999988,,response,,,,99,,,,,,,Space,keypress(Space),,,,,,,,"---- -- ----- -- ------ - ------- --- ----------<br>------------- ------ ------ ---- ---- ------- ----- -- ----<br>-------- ------- -- ---------- --- - --- ----- ----- ----<br>---- --- --- ----- --- ---- ---- ------- ----- ---- -------<br>--- --- -- ----- -- --- ---- -- be, ---- -- ------ ------<br>--- ----- -- ----",161155,161140,160148.5,160148,160164.72,161164.74,,47,"be,"
screen,html.Screen,2_1_0_1_48,2021-04-30T11:56:53.386Z,,,,,,,,,,,,,,,,,53,,,,,,,,,,,,,,491.2600000000093,,response,,,,99,,,,,,,Space,keypress(Space),,,,,,,,---- -- ----- -- ------ - ------- --- ----------<br>------------- ------ ------ ---- ---- ------- ----- -- ----<br>-------- ------- -- ---------- --- - --- ----- ----- ----<br>---- --- --- ----- --- ---- ---- ------- ----- ---- -------<br>--- --- -- ----- -- --- ---- -- --- even -- ------ ------<br>--- ----- -- ----,161671,161656,161155.16,161155,161164.74,161681.12,,48,even
screen,html.Screen,2_1_0_1_49,2021-04-30T11:56:53.926Z,,,,,,,,,,,,,,,,,53,,,,,,,,,,,,,,521.8800000000047,,response,,,,99,,,,,,,Space,keypress(Space),,,,,,,,---- -- ----- -- ------ - ------- --- ----------<br>------------- ------ ------ ---- ---- ------- ----- -- ----<br>-------- ------- -- ---------- --- - --- ----- ----- ----<br>---- --- --- ----- --- ---- ---- ------- ----- ---- -------<br>--- --- -- ----- -- --- ---- -- --- ---- if ------ ------<br>--- ----- -- ----,162210,162203,161671.34,161671,161681.12,162214.62,,49,if
screen,html.Screen,2_1_0_1_50,2021-04-30T11:56:54.497Z,,,,,,,,,,,,,,,,,53,,,,,,,,,,,,,,551.3800000000047,,response,,,,99,,,,,,,Space,keypress(Space),,,,,,,,---- -- ----- -- ------ - ------- --- ----------<br>------------- ------ ------ ---- ---- ------- ----- -- ----<br>-------- ------- -- ---------- --- - --- ----- ----- ----<br>---- --- --- ----- --- ---- ---- ------- ----- ---- -------<br>--- --- -- ----- -- --- ---- -- --- ---- -- that's ------<br>--- ----- -- ----,162783,162766,162210.56,162210,162214.62,162798.14,,50,that's
screen,html.Screen,2_1_0_1_51,2021-04-30T11:56:55.170Z,,,,,,,,,,,,,,,,,53,,,,,,,,,,,,,,654.859999999986,,response,,,,99,,,,,,,Space,keypress(Space),,,,,,,,---- -- ----- -- ------ - ------- --- ----------<br>------------- ------ ------ ---- ---- ------- ----- -- ----<br>-------- ------- -- ---------- --- - --- ----- ----- ----<br>---- --- --- ----- --- ---- ---- ------- ----- ---- -------<br>--- --- -- ----- -- --- ---- -- --- ---- -- ------ really<br>--- ----- -- ----,163455,163453,162782.66,162783,162798.14,163464.52,,51,really
screen,html.Screen,2_1_0_1_52,2021-04-30T11:56:55.742Z,,,,,,,,,,,,,,,,,53,,,,,,,,,,,,,,550.4800000000105,,response,,,,99,,,,,,,Space,keypress(Space),,,,,,,,---- -- ----- -- ------ - ------- --- ----------<br>------------- ------ ------ ---- ---- ------- ----- -- ----<br>-------- ------- -- ---------- --- - --- ----- ----- ----<br>---- --- --- ----- --- ---- ---- ------- ----- ---- -------<br>--- --- -- ----- -- --- ---- -- --- ---- -- ------ ------<br>not ----- -- ----,164028,164015,163455.32,163455,163464.52,164031.36,,52,not
screen,html.Screen,2_1_0_1_53,2021-04-30T11:56:56.316Z,,,,,,,,,,,,,,,,,53,,,,,,,,,,,,,,562.640000000014,,response,,,,99,,,,,,,Space,keypress(Space),,,,,,,,---- -- ----- -- ------ - ------- --- ----------<br>------------- ------ ------ ---- ---- ------- ----- -- ----<br>-------- ------- -- ---------- --- - --- ----- ----- ----<br>---- --- --- ----- --- ---- ---- ------- ----- ---- -------<br>--- --- -- ----- -- --- ---- -- --- ---- -- ------ ------<br>--- close -- ----,164601,164594,164027.86,164028,164031.36,164614.42,,53,close
screen,html.Screen,2_1_0_1_54,2021-04-30T11:56:56.770Z,,,,,,,,,,,,,,,,,53,,,,,,,,,,,,,,432.5799999999872,,response,,,,99,,,,,,,Space,keypress(Space),,,,,,,,---- -- ----- -- ------ - ------- --- ----------<br>------------- ------ ------ ---- ---- ------- ----- -- ----<br>-------- ------- -- ---------- --- - --- ----- ----- ----<br>---- --- --- ----- --- ---- ---- ------- ----- ---- -------<br>--- --- -- ----- -- --- ---- -- --- ---- -- ------ ------<br>--- ----- at ----,165056,165047,164601.32,164601,164614.42,165064.76,,54,at
screen,html.Screen,2_1_0_1_55,2021-04-30T11:56:58.365Z,,,,,,,,,,,,,,,,,53,,,,,,,,,,,,,,1575.2399999999907,,response,,,,99,,,,,,,Space,keypress(Space),,,,,,,,---- -- ----- -- ------ - ------- --- ----------<br>------------- ------ ------ ---- ---- ------- ----- -- ----<br>-------- ------- -- ---------- --- - --- ----- ----- ----<br>---- --- --- ----- --- ---- ---- ------- ----- ---- -------<br>--- --- -- ----- -- --- ---- -- --- ---- -- ------ ------<br>--- ----- -- all.,166650,166640,165055.56,165056,165064.76,166664.66,,55,all.
Item 99,flow.Loop,2_1_0_1,2021-04-30T11:56:58.366Z,,,,,,,,,,,,,,,,,,,,,,,,,,,,,,,37291.86,,completion,,,,,D,,,,,,,,,,,silence,,,,,166651,166640,129331.48,129333,129348.14,166664.66,,,
Question 1,html.Screen,2_1_0_2,2021-04-30T11:57:04.709Z,,,,,,,,,,,,,,,,,,,,,,,,,,,,true,FALSE,,6319.3399999999965,,response,,,,99,D,,,,,,FALSE,click #choice-2,,,,silence,,,,,172994,172984,166650.64,166651,166664.66,173014.66,,,
Question 2,html.Screen,2_1_0_3,2021-04-30T11:57:11.275Z,,,,,,,,,,,,,,,,,,,,,,,,,,,,true,TRUE,,6532.3399999999965,,response,,,,99,D,,,,,,TRUE,click #choice-1,,,,silence,,,,,179560,179547,172998.04,172994,173014.66,179581,,,
Item 99,flow.Sequence,2_1_0,2021-04-30T11:57:11.275Z,,,,,,,,,,,,,,,,,,,,,,,,,,,,,,,60198.86,,completion,,,,,,,,,,,,,,,,,,,,,179560,179547,119331.48,119329,119348.14,179581,,,
Holding screen,html.Screen,2_1_1_0,2021-04-30T11:57:21.280Z,,,,,,,,,,,,,,,,,,,,,,,,,,,,,,,9999.920000000013,,timeout,,,,,,,,,,,,,,,,,,,,,189566,189564.26,179564.34,179561,179581,189580.92,,,
screen,html.Screen,2_1_1_1_0,2021-04-30T11:57:22.460Z,,,,,,,,,,,,,,,,,54,,,,,,,,,,,,,,1153.0799999999872,,response,,,,100,,,,,,,Space,keypress(Space),,,,,,,,At --- ---- --- ------ ----- ------- ---- -- --- ------- --<br>------- ---------- ------ -- ----- -- ----- -- ---- ------<br>--- ----- --- --- ------ -------- ----- --- ------ ----- --<br>----- ----- ---------- --- --- ------ ------ ---- -- ------<br>------- --- ------ ----- --- ---- ------- -- ---- --- --<br>------- ------,190744,190734,189564.26,189566,189580.92,190747.7,,0,At
screen,html.Screen,2_1_1_1_1,2021-04-30T11:57:22.976Z,,,,,,,,,,,,,,,,,54,,,,,,,,,,,,,,502.29999999998836,,response,,,,100,,,,,,,Space,keypress(Space),,,,,,,,-- the ---- --- ------ ----- ------- ---- -- --- ------- --<br>------- ---------- ------ -- ----- -- ----- -- ---- ------<br>--- ----- --- --- ------ -------- ----- --- ------ ----- --<br>----- ----- ---------- --- --- ------ ------ ---- -- ------<br>------- --- ------ ----- --- ---- ------- -- ---- --- --<br>------- ------,191260,191250,190744.66,190745,190747.7,191264.3,,1,the
screen,html.Screen,2_1_1_1_2,2021-04-30T11:57:23.596Z,,,,,,,,,,,,,,,,,54,,,,,,,,,,,,,,610.7000000000116,,response,,,,100,,,,,,,Space,keypress(Space),,,,,,,,-- --- time --- ------ ----- ------- ---- -- --- ------- --<br>------- ---------- ------ -- ----- -- ----- -- ---- ------<br>--- ----- --- --- ------ -------- ----- --- ------ ----- --<br>----- ----- ---------- --- --- ------ ------ ---- -- ------<br>------- --- ------ ----- --- ---- ------- -- ---- --- --<br>------- ------,191882,191875,191260.62,191260,191264.3,191897.84,,2,time
screen,html.Screen,2_1_1_1_3,2021-04-30T11:57:24.160Z,,,,,,,,,,,,,,,,,54,,,,,,,,,,,,,,539.1600000000035,,response,,,,100,,,,,,,Space,keypress(Space),,,,,,,,-- --- ---- the ------ ----- ------- ---- -- --- ------- --<br>------- ---------- ------ -- ----- -- ----- -- ---- ------<br>--- ----- --- --- ------ -------- ----- --- ------ ----- --<br>----- ----- ---------- --- --- ------ ------ ---- -- ------<br>------- --- ------ ----- --- ---- ------- -- ---- --- --<br>------- ------,192445,192437,191882.04,191882,191897.84,192447.54,,3,the
screen,html.Screen,2_1_1_1_4,2021-04-30T11:57:24.763Z,,,,,,,,,,,,,,,,,54,,,,,,,,,,,,,,583.4599999999919,,response,,,,100,,,,,,,Space,keypress(Space),,,,,,,,-- --- ---- --- French ----- ------- ---- -- --- ------- --<br>------- ---------- ------ -- ----- -- ----- -- ---- ------<br>--- ----- --- --- ------ -------- ----- --- ------ ----- --<br>----- ----- ---------- --- --- ------ ------ ---- -- ------<br>------- --- ------ ----- --- ---- ------- -- ---- --- --<br>------- ------,193048,193031,192444.9,192445,192447.54,193064.58,,4,French
screen,html.Screen,2_1_1_1_5,2021-04-30T11:57:25.390Z,,,,,,,,,,,,,,,,,54,,,,,,,,,,,,,,607.4200000000128,,response,,,,100,,,,,,,Space,keypress(Space),,,,,,,,-- --- ---- --- ------ crown ------- ---- -- --- ------- --<br>------- ---------- ------ -- ----- -- ----- -- ---- ------<br>--- ----- --- --- ------ -------- ----- --- ------ ----- --<br>----- ----- ---------- --- --- ------ ------ ---- -- ------<br>------- --- ------ ----- --- ---- ------- -- ---- --- --<br>------- ------,193675,193672,193048.36,193048,193064.58,193680.86,,5,crown
screen,html.Screen,2_1_1_1_6,2021-04-30T11:57:25.872Z,,,,,,,,,,,,,,,,,54,,,,,,,,,,,,,,459.14000000001397,,response,,,,100,,,,,,,Space,keypress(Space),,,,,,,,-- --- ---- --- ------ ----- secured ---- -- --- ------- --<br>------- ---------- ------ -- ----- -- ----- -- ---- ------<br>--- ----- --- --- ------ -------- ----- --- ------ ----- --<br>----- ----- ---------- --- --- ------ ------ ---- -- ------<br>------- --- ------ ----- --- ---- ------- -- ---- --- --<br>------- ------,194157,194140,193675.18,193675,193680.86,194164.4,,6,secured
screen,html.Screen,2_1_1_1_7,2021-04-30T11:57:26.508Z,,,,,,,,,,,,,,,,,54,,,,,,,,,,,,,,616.6000000000058,,response,,,,100,,,,,,,Space,keypress(Space),,,,,,,,-- --- ---- --- ------ ----- ------- much -- --- ------- --<br>------- ---------- ------ -- ----- -- ----- -- ---- ------<br>--- ----- --- --- ------ -------- ----- --- ------ ----- --<br>----- ----- ---------- --- --- ------ ------ ---- -- ------<br>------- --- ------ ----- --- ---- ------- -- ---- --- --<br>------- ------,194793,194781,194157.24,194158,194164.4,194797.58,,7,much
screen,html.Screen,2_1_1_1_8,2021-04-30T11:57:27.219Z,,,,,,,,,,,,,,,,,54,,,,,,,,,,,,,,702.4200000000128,,response,,,,100,,,,,,,Space,keypress(Space),,,,,,,,-- --- ---- --- ------ ----- ------- ---- of --- ------- --<br>------- ---------- ------ -- ----- -- ----- -- ---- ------<br>--- ----- --- --- ------ -------- ----- --- ------ ----- --<br>----- ----- ---------- --- --- ------ ------ ---- -- ------<br>------- --- ------ ----- --- ---- ------- -- ---- --- --<br>------- ------,195504,195500,194793.66,194794,194797.58,195514.5,,8,of
screen,html.Screen,2_1_1_1_9,2021-04-30T11:57:27.697Z,,,,,,,,,,,,,,,,,54,,,,,,,,,,,,,,454.5,,response,,,,100,,,,,,,Space,keypress(Space),,,,,,,,-- --- ---- --- ------ ----- ------- ---- -- its ------- --<br>------- ---------- ------ -- ----- -- ----- -- ---- ------<br>--- ----- --- --- ------ -------- ----- --- ------ ----- --<br>----- ----- ---------- --- --- ------ ------ ---- -- ------<br>------- --- ------ ----- --- ---- ------- -- ---- --- --<br>------- ------,195981,195969,195503.58,195504,195514.5,195997.88,,9,its
screen,html.Screen,2_1_1_1_10,2021-04-30T11:57:28.282Z,,,,,,,,,,,,,,,,,54,,,,,,,,,,,,,,564.1199999999953,,response,,,,100,,,,,,,Space,keypress(Space),,,,,,,,-- --- ---- --- ------ ----- ------- ---- -- --- revenue --<br>------- ---------- ------ -- ----- -- ----- -- ---- ------<br>--- ----- --- --- ------ -------- ----- --- ------ ----- --<br>----- ----- ---------- --- --- ------ ------ ---- -- ------<br>------- --- ------ ----- --- ---- ------- -- ---- --- --<br>------- ------,196568,196562,195981.76,195981,195997.88,196580.8,,10,revenue
screen,html.Screen,2_1_1_1_11,2021-04-30T11:57:28.841Z,,,,,,,,,,,,,,,,,54,,,,,,,,,,,,,,528.2000000000116,,response,,,,100,,,,,,,Space,keypress(Space),,,,,,,,-- --- ---- --- ------ ----- ------- ---- -- --- ------- by<br>------- ---------- ------ -- ----- -- ----- -- ---- ------<br>--- ----- --- --- ------ -------- ----- --- ------ ----- --<br>----- ----- ---------- --- --- ------ ------ ---- -- ------<br>------- --- ------ ----- --- ---- ------- -- ---- --- --<br>------- ------,197126,197109,196567.7,196568,196580.8,197131,,11,by
screen,html.Screen,2_1_1_1_12,2021-04-30T11:57:29.337Z,,,,,,,,,,,,,,,,,54,,,,,,,,,,,,,,478,,response,,,,100,,,,,,,Space,keypress(Space),,,,,,,,-- --- ---- --- ------ ----- ------- ---- -- --- ------- --<br>issuing ---------- ------ -- ----- -- ----- -- ---- ------<br>--- ----- --- --- ------ -------- ----- --- ------ ----- --<br>----- ----- ---------- --- --- ------ ------ ---- -- ------<br>------- --- ------ ----- --- ---- ------- -- ---- --- --<br>------- ------,197622,197609,197125.66,197126,197131,197631.18,,12,issuing
screen,html.Screen,2_1_1_1_13,2021-04-30T11:57:29.902Z,,,,,,,,,,,,,,,,,54,,,,,,,,,,,,,,540.820000000007,,response,,,,100,,,,,,,Space,keypress(Space),,,,,,,,-- --- ---- --- ------ ----- ------- ---- -- --- ------- --<br>------- government ------ -- ----- -- ----- -- ---- ------<br>--- ----- --- --- ------ -------- ----- --- ------ ----- --<br>----- ----- ---------- --- --- ------ ------ ---- -- ------<br>------- --- ------ ----- --- ---- ------- -- ---- --- --<br>------- ------,198187,198172,197622.16,197622,197631.18,198197.68,,13,government
screen,html.Screen,2_1_1_1_14,2021-04-30T11:57:30.536Z,,,,,,,,,,,,,,,,,54,,,,,,,,,,,,,,614.320000000007,,response,,,,100,,,,,,,Space,keypress(Space),,,,,,,,-- --- ---- --- ------ ----- ------- ---- -- --- ------- --<br>------- ---------- bonds. -- ----- -- ----- -- ---- ------<br>--- ----- --- --- ------ -------- ----- --- ------ ----- --<br>----- ----- ---------- --- --- ------ ------ ---- -- ------<br>------- --- ------ ----- --- ---- ------- -- ---- --- --<br>------- ------,198821,198812,198187.18,198187,198197.68,198830.92,,14,bonds.
screen,html.Screen,2_1_1_1_15,2021-04-30T11:57:31.086Z,,,,,,,,,,,,,,,,,54,,,,,,,,,,,,,,528.0799999999872,,response,,,,100,,,,,,,Space,keypress(Space),,,,,,,,-- --- ---- --- ------ ----- ------- ---- -- --- ------- --<br>------- ---------- ------ In ----- -- ----- -- ---- ------<br>--- ----- --- --- ------ -------- ----- --- ------ ----- --<br>----- ----- ---------- --- --- ------ ------ ---- -- ------<br>------- --- ------ ----- --- ---- ------- -- ---- --- --<br>------- ------,199370,199359,198820.8,198821,198830.92,199381.2,,15,In
screen,html.Screen,2_1_1_1_16,2021-04-30T11:57:31.664Z,,,,,,,,,,,,,,,,,54,,,,,,,,,,,,,,556.7999999999884,,response,,,,100,,,,,,,Space,keypress(Space),,,,,,,,"-- --- ---- --- ------ ----- ------- ---- -- --- ------- --<br>------- ---------- ------ -- 1727, -- ----- -- ---- ------<br>--- ----- --- --- ------ -------- ----- --- ------ ----- --<br>----- ----- ---------- --- --- ------ ------ ---- -- ------<br>------- --- ------ ----- --- ---- ------- -- ---- --- --<br>------- ------",199949,199938,199371.04,199370,199381.2,199964.44,,16,"1727,"
screen,html.Screen,2_1_1_1_17,2021-04-30T11:57:32.240Z,,,,,,,,,,,,,,,,,54,,,,,,,,,,,,,,550.5599999999977,,response,,,,100,,,,,,,Space,keypress(Space),,,,,,,,-- --- ---- --- ------ ----- ------- ---- -- --- ------- --<br>------- ---------- ------ -- ----- in ----- -- ---- ------<br>--- ----- --- --- ------ -------- ----- --- ------ ----- --<br>----- ----- ---------- --- --- ------ ------ ---- -- ------<br>------- --- ------ ----- --- ---- ------- -- ---- --- --<br>------- ------,200525,200515,199949.22,199949,199964.44,200531,,17,in
screen,html.Screen,2_1_1_1_18,2021-04-30T11:57:32.783Z,,,,,,,,,,,,,,,,,54,,,,,,,,,,,,,,531,,response,,,,100,,,,,,,Space,keypress(Space),,,,,,,,-- --- ---- --- ------ ----- ------- ---- -- --- ------- --<br>------- ---------- ------ -- ----- -- order -- ---- ------<br>--- ----- --- --- ------ -------- ----- --- ------ ----- --<br>----- ----- ---------- --- --- ------ ------ ---- -- ------<br>------- --- ------ ----- --- ---- ------- -- ---- --- --<br>------- ------,201067,201062,200525.2,200525,200531,201081.14,,18,order
screen,html.Screen,2_1_1_1_19,2021-04-30T11:57:33.313Z,,,,,,,,,,,,,,,,,54,,,,,,,,,,,,,,512.859999999986,,response,,,,100,,,,,,,Space,keypress(Space),,,,,,,,-- --- ---- --- ------ ----- ------- ---- -- --- ------- --<br>------- ---------- ------ -- ----- -- ----- to ---- ------<br>--- ----- --- --- ------ -------- ----- --- ------ ----- --<br>----- ----- ---------- --- --- ------ ------ ---- -- ------<br>------- --- ------ ----- --- ---- ------- -- ---- --- --<br>------- ------,201597,201594,201067.88,201068,201081.14,201614.4,,19,to
screen,html.Screen,2_1_1_1_20,2021-04-30T11:57:33.820Z,,,,,,,,,,,,,,,,,54,,,,,,,,,,,,,,479.6000000000058,,response,,,,100,,,,,,,Space,keypress(Space),,,,,,,,-- --- ---- --- ------ ----- ------- ---- -- --- ------- --<br>------- ---------- ------ -- ----- -- ----- -- save ------<br>--- ----- --- --- ------ -------- ----- --- ------ ----- --<br>----- ----- ---------- --- --- ------ ------ ---- -- ------<br>------- --- ------ ----- --- ---- ------- -- ---- --- --<br>------- ------,202105,202094,201597.88,201597,201614.4,202114.4,,20,save
screen,html.Screen,2_1_1_1_21,2021-04-30T11:57:34.511Z,,,,,,,,,,,,,,,,,54,,,,,,,,,,,,,,666.6000000000058,,response,,,,100,,,,,,,Space,keypress(Space),,,,,,,,"-- --- ---- --- ------ ----- ------- ---- -- --- ------- --<br>------- ---------- ------ -- ----- -- ----- -- ---- money,<br>--- ----- --- --- ------ -------- ----- --- ------ ----- --<br>----- ----- ---------- --- --- ------ ------ ---- -- ------<br>------- --- ------ ----- --- ---- ------- -- ---- --- --<br>------- ------",202796,202781,202105.2,202105,202114.4,202797.5,,21,"money,"
screen,html.Screen,2_1_1_1_22,2021-04-30T11:57:35.047Z,,,,,,,,,,,,,,,,,54,,,,,,,,,,,,,,530.5,,response,,,,100,,,,,,,Space,keypress(Space),,,,,,,,-- --- ---- --- ------ ----- ------- ---- -- --- ------- --<br>------- ---------- ------ -- ----- -- ----- -- ---- ------<br>the ----- --- --- ------ -------- ----- --- ------ ----- --<br>----- ----- ---------- --- --- ------ ------ ---- -- ------<br>------- --- ------ ----- --- ---- ------- -- ---- --- --<br>------- ------,203332,203328,202796.18,202796,202797.5,203347.86,,22,the
screen,html.Screen,2_1_1_1_23,2021-04-30T11:57:35.546Z,,,,,,,,,,,,,,,,,54,,,,,,,,,,,,,,480.14000000001397,,response,,,,100,,,,,,,Space,keypress(Space),,,,,,,,-- --- ---- --- ------ ----- ------- ---- -- --- ------- --<br>------- ---------- ------ -- ----- -- ----- -- ---- ------<br>--- state --- --- ------ -------- ----- --- ------ ----- --<br>----- ----- ---------- --- --- ------ ------ ---- -- ------<br>------- --- ------ ----- --- ---- ------- -- ---- --- --<br>------- ------,203832,203828,203331.58,203332,203347.86,203847.82,,23,state
screen,html.Screen,2_1_1_1_24,2021-04-30T11:57:36.124Z,,,,,,,,,,,,,,,,,54,,,,,,,,,,,,,,558.179999999993,,response,,,,100,,,,,,,Space,keypress(Space),,,,,,,,-- --- ---- --- ------ ----- ------- ---- -- --- ------- --<br>------- ---------- ------ -- ----- -- ----- -- ---- ------<br>--- ----- cut --- ------ -------- ----- --- ------ ----- --<br>----- ----- ---------- --- --- ------ ------ ---- -- ------<br>------- --- ------ ----- --- ---- ------- -- ---- --- --<br>------- ------,204410,204406,203831.8,203832,203847.82,204414.38,,24,cut
screen,html.Screen,2_1_1_1_25,2021-04-30T11:57:36.650Z,,,,,,,,,,,,,,,,,54,,,,,,,,,,,,,,507.61999999999534,,response,,,,100,,,,,,,Space,keypress(Space),,,,,,,,-- --- ---- --- ------ ----- ------- ---- -- --- ------- --<br>------- ---------- ------ -- ----- -- ----- -- ---- ------<br>--- ----- --- the ------ -------- ----- --- ------ ----- --<br>----- ----- ---------- --- --- ------ ------ ---- -- ------<br>------- --- ------ ----- --- ---- ------- -- ---- --- --<br>------- ------,204934,204922,204409.68,204410,204414.38,204947.84,,25,the
screen,html.Screen,2_1_1_1_26,2021-04-30T11:57:37.176Z,,,,,,,,,,,,,,,,,54,,,,,,,,,,,,,,505.1600000000035,,response,,,,100,,,,,,,Space,keypress(Space),,,,,,,,-- --- ---- --- ------ ----- ------- ---- -- --- ------- --<br>------- ---------- ------ -- ----- -- ----- -- ---- ------<br>--- ----- --- --- bonds' -------- ----- --- ------ ----- --<br>----- ----- ---------- --- --- ------ ------ ---- -- ------<br>------- --- ------ ----- --- ---- ------- -- ---- --- --<br>------- ------,205461,205453,204935.02,204935,204947.84,205464.22,,26,bonds'
screen,html.Screen,2_1_1_1_27,2021-04-30T11:57:37.801Z,,,,,,,,,,,,,,,,,54,,,,,,,,,,,,,,613.7799999999988,,response,,,,100,,,,,,,Space,keypress(Space),,,,,,,,-- --- ---- --- ------ ----- ------- ---- -- --- ------- --<br>------- ---------- ------ -- ----- -- ----- -- ---- ------<br>--- ----- --- --- ------ interest ----- --- ------ ----- --<br>----- ----- ---------- --- --- ------ ------ ---- -- ------<br>------- --- ------ ----- --- ---- ------- -- ---- --- --<br>------- ------,206085,206078,205461.1,205461,205464.22,206097.76,,27,interest
screen,html.Screen,2_1_1_1_28,2021-04-30T11:57:38.358Z,,,,,,,,,,,,,,,,,54,,,,,,,,,,,,,,542.2399999999907,,response,,,,100,,,,,,,Space,keypress(Space),,,,,,,,-- --- ---- --- ------ ----- ------- ---- -- --- ------- --<br>------- ---------- ------ -- ----- -- ----- -- ---- ------<br>--- ----- --- --- ------ -------- rate. --- ------ ----- --<br>----- ----- ---------- --- --- ------ ------ ---- -- ------<br>------- --- ------ ----- --- ---- ------- -- ---- --- --<br>------- ------,206643,206640,206085.68,206085,206097.76,206647.48,,28,rate.
screen,html.Screen,2_1_1_1_29,2021-04-30T11:57:38.958Z,,,,,,,,,,,,,,,,,54,,,,,,,,,,,,,,586.5199999999895,,response,,,,100,,,,,,,Space,keypress(Space),,,,,,,,-- --- ---- --- ------ ----- ------- ---- -- --- ------- --<br>------- ---------- ------ -- ----- -- ----- -- ---- ------<br>--- ----- --- --- ------ -------- ----- The ------ ----- --<br>----- ----- ---------- --- --- ------ ------ ---- -- ------<br>------- --- ------ ----- --- ---- ------- -- ---- --- --<br>------- ------,207244,207234,206643.16,206643,206647.48,207247.4,,29,The
screen,html.Screen,2_1_1_1_30,2021-04-30T11:57:39.412Z,,,,,,,,,,,,,,,,,54,,,,,,,,,,,,,,439.6000000000058,,response,,,,100,,,,,,,Space,keypress(Space),,,,,,,,-- --- ---- --- ------ ----- ------- ---- -- --- ------- --<br>------- ---------- ------ -- ----- -- ----- -- ---- ------<br>--- ----- --- --- ------ -------- ----- --- market ----- --<br>----- ----- ---------- --- --- ------ ------ ---- -- ------<br>------- --- ------ ----- --- ---- ------- -- ---- --- --<br>------- ------,207697,207687,207243.72,207244,207247.4,207714.1,,30,market
screen,html.Screen,2_1_1_1_31,2021-04-30T11:57:40.039Z,,,,,,,,,,,,,,,,,54,,,,,,,,,,,,,,597.8999999999942,,response,,,,100,,,,,,,Space,keypress(Space),,,,,,,,-- --- ---- --- ------ ----- ------- ---- -- --- ------- --<br>------- ---------- ------ -- ----- -- ----- -- ---- ------<br>--- ----- --- --- ------ -------- ----- --- ------ value --<br>----- ----- ---------- --- --- ------ ------ ---- -- ------<br>------- --- ------ ----- --- ---- ------- -- ---- --- --<br>------- ------,208323,208312,207697.46,207697,207714.1,208331.14,,31,value
screen,html.Screen,2_1_1_1_32,2021-04-30T11:57:40.568Z,,,,,,,,,,,,,,,,,54,,,,,,,,,,,,,,512.859999999986,,response,,,,100,,,,,,,Space,keypress(Space),,,,,,,,-- --- ---- --- ------ ----- ------- ---- -- --- ------- --<br>------- ---------- ------ -- ----- -- ----- -- ---- ------<br>--- ----- --- --- ------ -------- ----- --- ------ ----- of<br>----- ----- ---------- --- --- ------ ------ ---- -- ------<br>------- --- ------ ----- --- ---- ------- -- ---- --- --<br>------- ------,208853,208844,208323.82,208323,208331.14,208864.38,,32,of
screen,html.Screen,2_1_1_1_33,2021-04-30T11:57:41.108Z,,,,,,,,,,,,,,,,,54,,,,,,,,,,,,,,525.6199999999953,,response,,,,100,,,,,,,Space,keypress(Space),,,,,,,,-- --- ---- --- ------ ----- ------- ---- -- --- ------- --<br>------- ---------- ------ -- ----- -- ----- -- ---- ------<br>--- ----- --- --- ------ -------- ----- --- ------ ----- --<br>these ----- ---------- --- --- ------ ------ ---- -- ------<br>------- --- ------ ----- --- ---- ------- -- ---- --- --<br>------- ------,209392,209390,208853.72,208853,208864.38,209397.72,,33,these
screen,html.Screen,2_1_1_1_34,2021-04-30T11:57:41.677Z,,,,,,,,,,,,,,,,,54,,,,,,,,,,,,,,555.2799999999988,,response,,,,100,,,,,,,Space,keypress(Space),,,,,,,,-- --- ---- --- ------ ----- ------- ---- -- --- ------- --<br>------- ---------- ------ -- ----- -- ----- -- ---- ------<br>--- ----- --- --- ------ -------- ----- --- ------ ----- --<br>----- bonds ---------- --- --- ------ ------ ---- -- ------<br>------- --- ------ ----- --- ---- ------- -- ---- --- --<br>------- ------,209962,209953,209392.82,209392,209397.72,209964.1,,34,bonds
screen,html.Screen,2_1_1_1_35,2021-04-30T11:57:42.583Z,,,,,,,,,,,,,,,,,54,,,,,,,,,,,,,,894.8999999999942,,response,,,,100,,,,,,,Space,keypress(Space),,,,,,,,"-- --- ---- --- ------ ----- ------- ---- -- --- ------- --<br>------- ---------- ------ -- ----- -- ----- -- ---- ------<br>--- ----- --- --- ------ -------- ----- --- ------ ----- --<br>----- ----- plummeted, --- --- ------ ------ ---- -- ------<br>------- --- ------ ----- --- ---- ------- -- ---- --- --<br>------- ------",210868,210859,209962.18,209962,209964.1,210880.82,,35,"plummeted,"
screen,html.Screen,2_1_1_1_36,2021-04-30T11:57:43.059Z,,,,,,,,,,,,,,,,,54,,,,,,,,,,,,,,447.179999999993,,response,,,,100,,,,,,,Space,keypress(Space),,,,,,,,-- --- ---- --- ------ ----- ------- ---- -- --- ------- --<br>------- ---------- ------ -- ----- -- ----- -- ---- ------<br>--- ----- --- --- ------ -------- ----- --- ------ ----- --<br>----- ----- ---------- and --- ------ ------ ---- -- ------<br>------- --- ------ ----- --- ---- ------- -- ---- --- --<br>------- ------,211344,211328,210867.4,210868,210880.82,211347.42,,36,and
screen,html.Screen,2_1_1_1_37,2021-04-30T11:57:43.577Z,,,,,,,,,,,,,,,,,54,,,,,,,,,,,,,,511.5799999999872,,response,,,,100,,,,,,,Space,keypress(Space),,,,,,,,-- --- ---- --- ------ ----- ------- ---- -- --- ------- --<br>------- ---------- ------ -- ----- -- ----- -- ---- ------<br>--- ----- --- --- ------ -------- ----- --- ------ ----- --<br>----- ----- ---------- --- the ------ ------ ---- -- ------<br>------- --- ------ ----- --- ---- ------- -- ---- --- --<br>------- ------,211862,211859,211344.64,211344,211347.42,211864.08,,37,the
screen,html.Screen,2_1_1_1_38,2021-04-30T11:57:44.200Z,,,,,,,,,,,,,,,,,54,,,,,,,,,,,,,,604.9200000000128,,response,,,,100,,,,,,,Space,keypress(Space),,,,,,,,-- --- ---- --- ------ ----- ------- ---- -- --- ------- --<br>------- ---------- ------ -- ----- -- ----- -- ---- ------<br>--- ----- --- --- ------ -------- ----- --- ------ ----- --<br>----- ----- ---------- --- --- market ------ ---- -- ------<br>------- --- ------ ----- --- ---- ------- -- ---- --- --<br>------- ------,212485,212469,211862.4,211863,211864.08,212497.34,,38,market
screen,html.Screen,2_1_1_1_39,2021-04-30T11:57:44.674Z,,,,,,,,,,,,,,,,,54,,,,,,,,,,,,,,455.6600000000035,,response,,,,100,,,,,,,Space,keypress(Space),,,,,,,,-- --- ---- --- ------ ----- ------- ---- -- --- ------- --<br>------- ---------- ------ -- ----- -- ----- -- ---- ------<br>--- ----- --- --- ------ -------- ----- --- ------ ----- --<br>----- ----- ---------- --- --- ------ became ---- -- ------<br>------- --- ------ ----- --- ---- ------- -- ---- --- --<br>------- ------,212960,212953,212485.12,212485,212497.34,212964.22,,39,became
screen,html.Screen,2_1_1_1_40,2021-04-30T11:57:45.247Z,,,,,,,,,,,,,,,,,54,,,,,,,,,,,,,,550.7799999999988,,response,,,,100,,,,,,,Space,keypress(Space),,,,,,,,-- --- ---- --- ------ ----- ------- ---- -- --- ------- --<br>------- ---------- ------ -- ----- -- ----- -- ---- ------<br>--- ----- --- --- ------ -------- ----- --- ------ ----- --<br>----- ----- ---------- --- --- ------ ------ wary -- ------<br>------- --- ------ ----- --- ---- ------- -- ---- --- --<br>------- ------,213533,213515,212959.72,212960,212964.22,213547.7,,40,wary
screen,html.Screen,2_1_1_1_41,2021-04-30T11:57:45.825Z,,,,,,,,,,,,,,,,,54,,,,,,,,,,,,,,546.2999999999884,,response,,,,100,,,,,,,Space,keypress(Space),,,,,,,,-- --- ---- --- ------ ----- ------- ---- -- --- ------- --<br>------- ---------- ------ -- ----- -- ----- -- ---- ------<br>--- ----- --- --- ------ -------- ----- --- ------ ----- --<br>----- ----- ---------- --- --- ------ ------ ---- of ------<br>------- --- ------ ----- --- ---- ------- -- ---- --- --<br>------- ------,214110,214094,213532.82,213533,213547.7,214114.22,,41,of
screen,html.Screen,2_1_1_1_42,2021-04-30T11:57:46.456Z,,,,,,,,,,,,,,,,,54,,,,,,,,,,,,,,619.7799999999988,,response,,,,100,,,,,,,Space,keypress(Space),,,,,,,,-- --- ---- --- ------ ----- ------- ---- -- --- ------- --<br>------- ---------- ------ -- ----- -- ----- -- ---- ------<br>--- ----- --- --- ------ -------- ----- --- ------ ----- --<br>----- ----- ---------- --- --- ------ ------ ---- -- French<br>------- --- ------ ----- --- ---- ------- -- ---- --- --<br>------- ------,214741,214734,214110.04,214110,214114.22,214747.6,,42,French
screen,html.Screen,2_1_1_1_43,2021-04-30T11:57:47.537Z,,,,,,,,,,,,,,,,,54,,,,,,,,,,,,,,1064.3999999999942,,response,,,,100,,,,,,,Space,keypress(Space),,,,,,,,-- --- ---- --- ------ ----- ------- ---- -- --- ------- --<br>------- ---------- ------ -- ----- -- ----- -- ---- ------<br>--- ----- --- --- ------ -------- ----- --- ------ ----- --<br>----- ----- ---------- --- --- ------ ------ ---- -- ------<br>credit. --- ------ ----- --- ---- ------- -- ---- --- --<br>------- ------,215821,215812,214741.1,214741,214747.6,215831.04,,43,credit.
screen,html.Screen,2_1_1_1_44,2021-04-30T11:57:48.112Z,,,,,,,,,,,,,,,,,54,,,,,,,,,,,,,,558.9599999999919,,response,,,,100,,,,,,,Space,keypress(Space),,,,,,,,-- --- ---- --- ------ ----- ------- ---- -- --- ------- --<br>------- ---------- ------ -- ----- -- ----- -- ---- ------<br>--- ----- --- --- ------ -------- ----- --- ------ ----- --<br>----- ----- ---------- --- --- ------ ------ ---- -- ------<br>------- The ------ ----- --- ---- ------- -- ---- --- --<br>------- ------,216397,216390,215821.6,215822,215831.04,216414.26,,44,The
screen,html.Screen,2_1_1_1_45,2021-04-30T11:57:48.616Z,,,,,,,,,,,,,,,,,54,,,,,,,,,,,,,,475.7399999999907,,response,,,,100,,,,,,,Space,keypress(Space),,,,,,,,-- --- ---- --- ------ ----- ------- ---- -- --- ------- --<br>------- ---------- ------ -- ----- -- ----- -- ---- ------<br>--- ----- --- --- ------ -------- ----- --- ------ ----- --<br>----- ----- ---------- --- --- ------ ------ ---- -- ------<br>------- --- French ----- --- ---- ------- -- ---- --- --<br>------- ------,216902,216890,216397.4,216397,216414.26,216914.26,,45,French
screen,html.Screen,2_1_1_1_46,2021-04-30T11:57:49.230Z,,,,,,,,,,,,,,,,,54,,,,,,,,,,,,,,585.7399999999907,,response,,,,100,,,,,,,Space,keypress(Space),,,,,,,,-- --- ---- --- ------ ----- ------- ---- -- --- ------- --<br>------- ---------- ------ -- ----- -- ----- -- ---- ------<br>--- ----- --- --- ------ -------- ----- --- ------ ----- --<br>----- ----- ---------- --- --- ------ ------ ---- -- ------<br>------- --- ------ state --- ---- ------- -- ---- --- --<br>------- ------,217515,217500,216901.66,216902,216914.26,217530.94,,46,state
screen,html.Screen,2_1_1_1_47,2021-04-30T11:57:49.766Z,,,,,,,,,,,,,,,,,54,,,,,,,,,,,,,,516.0599999999977,,response,,,,100,,,,,,,Space,keypress(Space),,,,,,,,-- --- ---- --- ------ ----- ------- ---- -- --- ------- --<br>------- ---------- ------ -- ----- -- ----- -- ---- ------<br>--- ----- --- --- ------ -------- ----- --- ------ ----- --<br>----- ----- ---------- --- --- ------ ------ ---- -- ------<br>------- --- ------ ----- was ---- ------- -- ---- --- --<br>------- ------,218051,218047,217515.12,217515,217530.94,218064.08,,47,was
screen,html.Screen,2_1_1_1_48,2021-04-30T11:57:50.345Z,,,,,,,,,,,,,,,,,54,,,,,,,,,,,,,,560.9200000000128,,response,,,,100,,,,,,,Space,keypress(Space),,,,,,,,-- --- ---- --- ------ ----- ------- ---- -- --- ------- --<br>------- ---------- ------ -- ----- -- ----- -- ---- ------<br>--- ----- --- --- ------ -------- ----- --- ------ ----- --<br>----- ----- ---------- --- --- ------ ------ ---- -- ------<br>------- --- ------ ----- --- left ------- -- ---- --- --<br>------- ------,218630,218625,218051.36,218051,218064.08,218630.66,,48,left
screen,html.Screen,2_1_1_1_49,2021-04-30T11:57:50.905Z,,,,,,,,,,,,,,,,,54,,,,,,,,,,,,,,556.3399999999965,,response,,,,100,,,,,,,Space,keypress(Space),,,,,,,,-- --- ---- --- ------ ----- ------- ---- -- --- ------- --<br>------- ---------- ------ -- ----- -- ----- -- ---- ------<br>--- ----- --- --- ------ -------- ----- --- ------ ----- --<br>----- ----- ---------- --- --- ------ ------ ---- -- ------<br>------- --- ------ ----- --- ---- without -- ---- --- --<br>------- ------,219190,219187,218629.64,218630,218630.66,219197.56,,49,without
screen,html.Screen,2_1_1_1_50,2021-04-30T11:57:51.409Z,,,,,,,,,,,,,,,,,54,,,,,,,,,,,,,,489.4400000000023,,response,,,,100,,,,,,,Space,keypress(Space),,,,,,,,-- --- ---- --- ------ ----- ------- ---- -- --- ------- --<br>------- ---------- ------ -- ----- -- ----- -- ---- ------<br>--- ----- --- --- ------ -------- ----- --- ------ ----- --<br>----- ----- ---------- --- --- ------ ------ ---- -- ------<br>------- --- ------ ----- --- ---- ------- an ---- --- --<br>------- ------,219693,219687,219190.5,219190,219197.56,219697.34,,50,an
screen,html.Screen,2_1_1_1_51,2021-04-30T11:57:51.917Z,,,,,,,,,,,,,,,,,54,,,,,,,,,,,,,,489.6600000000035,,response,,,,100,,,,,,,Space,keypress(Space),,,,,,,,-- --- ---- --- ------ ----- ------- ---- -- --- ------- --<br>------- ---------- ------ -- ----- -- ----- -- ---- ------<br>--- ----- --- --- ------ -------- ----- --- ------ ----- --<br>----- ----- ---------- --- --- ------ ------ ---- -- ------<br>------- --- ------ ----- --- ---- ------- -- easy --- --<br>------- ------,220201,220187,219694.08,219693,219697.34,220214.3,,51,easy
screen,html.Screen,2_1_1_1_52,2021-04-30T11:57:52.409Z,,,,,,,,,,,,,,,,,54,,,,,,,,,,,,,,472.70000000001164,,response,,,,100,,,,,,,Space,keypress(Space),,,,,,,,-- --- ---- --- ------ ----- ------- ---- -- --- ------- --<br>------- ---------- ------ -- ----- -- ----- -- ---- ------<br>--- ----- --- --- ------ -------- ----- --- ------ ----- --<br>----- ----- ---------- --- --- ------ ------ ---- -- ------<br>------- --- ------ ----- --- ---- ------- -- ---- way --<br>------- ------,220693,220687,220201.74,220201,220214.3,220697.3,,52,way
screen,html.Screen,2_1_1_1_53,2021-04-30T11:57:52.922Z,,,,,,,,,,,,,,,,,54,,,,,,,,,,,,,,505.70000000001164,,response,,,,100,,,,,,,Space,keypress(Space),,,,,,,,-- --- ---- --- ------ ----- ------- ---- -- --- ------- --<br>------- ---------- ------ -- ----- -- ----- -- ---- ------<br>--- ----- --- --- ------ -------- ----- --- ------ ----- --<br>----- ----- ---------- --- --- ------ ------ ---- -- ------<br>------- --- ------ ----- --- ---- ------- -- ---- --- of<br>------- ------,221207,221203,220693.7,220693,220697.3,221214.2,,53,of
screen,html.Screen,2_1_1_1_54,2021-04-30T11:57:53.456Z,,,,,,,,,,,,,,,,,54,,,,,,,,,,,,,,519.7999999999884,,response,,,,100,,,,,,,Space,keypress(Space),,,,,,,,-- --- ---- --- ------ ----- ------- ---- -- --- ------- --<br>------- ---------- ------ -- ----- -- ----- -- ---- ------<br>--- ----- --- --- ------ -------- ----- --- ------ ----- --<br>----- ----- ---------- --- --- ------ ------ ---- -- ------<br>------- --- ------ ----- --- ---- ------- -- ---- --- --<br>raising ------,221741,221734,221207.1,221207,221214.2,221747.5,,54,raising
screen,html.Screen,2_1_1_1_55,2021-04-30T11:57:54.841Z,,,,,,,,,,,,,,,,,54,,,,,,,,,,,,,,1377.5,,response,,,,100,,,,,,,Space,keypress(Space),,,,,,,,-- --- ---- --- ------ ----- ------- ---- -- --- ------- --<br>------- ---------- ------ -- ----- -- ----- -- ---- ------<br>--- ----- --- --- ------ -------- ----- --- ------ ----- --<br>----- ----- ---------- --- --- ------ ------ ---- -- ------<br>------- --- ------ ----- --- ---- ------- -- ---- --- --<br>------- money.,223126,223125,221741.14,221741,221747.5,223130.62,,55,money.
Item 100,flow.Loop,2_1_1_1,2021-04-30T11:57:54.841Z,,,,,,,,,,,,,,,,,,,,,,,,,,,,,,,33544.07999999999,,completion,,,,,D,,,,,,,,,,,silence,,,,,223126,223125,189564.26,189566,189580.92,223130.62,,,
Question 1,html.Screen,2_1_1_2,2021-04-30T11:57:57.761Z,,,,,,,,,,,,,,,,,,,,,,,,,,,,true,TRUE,,2900.3800000000047,,response,,,,100,D,,,,,,TRUE,click #choice-1,,,,silence,,,,,226046,226031,223126.82,223126,223130.62,226064,,,
Question 2,html.Screen,2_1_1_3,2021-04-30T11:57:59.853Z,,,,,,,,,,,,,,,,,,,,,,,,,,,,true,FALSE,,2061,,response,,,,100,D,,,,,,FALSE,click #choice-2,,,,silence,,,,,228138,228125,226047.34,226046,226064,228163.9,,,
Item 100,flow.Sequence,2_1_1,2021-04-30T11:57:59.853Z,,,,,,,,,,,,,,,,,,,,,,,,,,,,,,,48544,,completion,,,,,,,,,,,,,,,,,,,,,228138,228125,179564.34,179561,179581,228163.9,,,
End of Practice,html.Page,2_1_2,2021-04-30T11:58:14.500Z,,,,,,,,,,,,,,,,,,,,,,,,,,,,,,,14621.100000000006,,form submission,,,,,,,,,,,,,,,,,,,,,242785,242785,228147.24,228138,228163.9,242814.08,,,
Practice,flow.Sequence,2_1,2021-04-30T11:58:14.500Z,,,,,,,,,,,,,,,,,,,,,,,,,,,,,,,123436.86,,completion,,,,,,,,,,,,,,,,,,,,,242785,242785,119331.48,119329,119348.14,242814.08,,,
Trap_instruction,html.Page,2_2_0,2021-04-30T11:58:22.994Z,,,,,,,,,,,,,,,,,,,,,,,,,,,,,,,8464.920000000013,,form submission,,,,,,,,,,,,,,,,,,,,,251279,251279,242797.48,242785,242814.08,251313.72,,,
trap_trial,html.Screen,2_2_1,2021-04-30T11:58:26.874Z,,,,,,,,,,,,,,,,,,,,,,,,,,,,true,1,,3842.279999999999,,response,,,,,,,,,,,1,click #choice-1,,,,,,,,,255158,255156,251297.04,251279,251313.72,255180.38,,,
end of trap trial,html.Page,2_2_2,2021-04-30T11:58:28.811Z,,,,,,,,,,,,,,,,,,,,,,,,,,,,,,,1914.6199999999953,,form submission,,,,,,,,,,,,,,,,,,,,,257095,257095,255163.7,255158,255180.38,257113.68,,,
Trap 1,flow.Sequence,2_2,2021-04-30T11:58:28.811Z,,,,,,,,,,,,,,,,,,,,,,,,,,,,,,,14280.920000000013,,completion,,,,,,,,,,,,,,,,,,,,,257096,257095,242797.48,242785,242814.08,257113.68,,,
Standby,html.Page,2_3_0,2021-04-30T11:58:36.813Z,,,,,,,,,,,,,,,,,,,,,,,,,,,,,,,7999.919999999984,,timeout,,,,,,,,,,,,,,,,,,,,,265098,265096.94,257097,257096,257113.68,265113.6,,,
Holding screen,html.Screen,2_3_1_0_0,2021-04-30T11:58:43.813Z,,,,,,,,,,,,,,,,,,,,,,,,,,,,,,,6999.98000000004,,timeout,,,,,,,,,,,,,,,,,,,,,272098,272096.94,265096.94,265098,265113.6,272113.58,,,
screen,html.Screen,2_3_1_0_1_0,2021-04-30T11:58:45.190Z,,,,,,,,,,,,,,,,,11,,,,,,,,,,,,,,1355.4199999999837,,response,,,,4,D,,,,,,Space,keypress(Space),,,,silence,,,,Known -- ---- --- -- --- -------- ------------ ---------- --<br>- ------- ------ --------- -- ------------ -- --- ---- -----<br>------ ---- ---- ------ ------ ------- --- ----- ---------<br>---- --- -------- -------- --- --- -- ------- --- --- -----<br>-- --- ------ ------- --- --- -------- ---- --------- --<br>---------- -- -------- ----------------,273475,273469,272096.94,272098,272113.58,273480.22,,0,Known
screen,html.Screen,2_3_1_0_1_1,2021-04-30T11:58:45.779Z,,,,,,,,,,,,,,,,,11,,,,,,,,,,,,,,566.7800000000279,,response,,,,4,D,,,,,,Space,keypress(Space),,,,silence,,,,----- as ---- --- -- --- -------- ------------ ---------- --<br>- ------- ------ --------- -- ------------ -- --- ---- -----<br>------ ---- ---- ------ ------ ------- --- ----- ---------<br>---- --- -------- -------- --- --- -- ------- --- --- -----<br>-- --- ------ ------- --- --- -------- ---- --------- --<br>---------- -- -------- ----------------,274064,274047,273475.26,273475,273480.22,274080.5,,1,as
screen,html.Screen,2_3_1_0_1_2,2021-04-30T11:58:46.532Z,,,,,,,,,,,,,,,,,11,,,,,,,,,,,,,,731.5,,response,,,,4,D,,,,,,Space,keypress(Space),,,,silence,,,,----- -- Rapa --- -- --- -------- ------------ ---------- --<br>- ------- ------ --------- -- ------------ -- --- ---- -----<br>------ ---- ---- ------ ------ ------- --- ----- ---------<br>---- --- -------- -------- --- --- -- ------- --- --- -----<br>-- --- ------ ------- --- --- -------- ---- --------- --<br>---------- -- -------- ----------------,274816,274812,274064.36,274065,274080.5,274830.4,,2,Rapa
screen,html.Screen,2_3_1_0_1_3,2021-04-30T11:58:47.143Z,,,,,,,,,,,,,,,,,11,,,,,,,,,,,,,,592.5999999999767,,response,,,,4,D,,,,,,Space,keypress(Space),,,,silence,,,,----- -- ---- Nui -- --- -------- ------------ ---------- --<br>- ------- ------ --------- -- ------------ -- --- ---- -----<br>------ ---- ---- ------ ------ ------- --- ----- ---------<br>---- --- -------- -------- --- --- -- ------- --- --- -----<br>-- --- ------ ------- --- --- -------- ---- --------- --<br>---------- -- -------- ----------------,275428,275423,274816.96,274817,274830.4,275430.18,,3,Nui
screen,html.Screen,2_3_1_0_1_4,2021-04-30T11:58:47.707Z,,,,,,,,,,,,,,,,,11,,,,,,,,,,,,,,553.820000000007,,response,,,,4,D,,,,,,Space,keypress(Space),,,,silence,,,,----- -- ---- --- to --- -------- ------------ ---------- --<br>- ------- ------ --------- -- ------------ -- --- ---- -----<br>------ ---- ---- ------ ------ ------- --- ----- ---------<br>---- --- -------- -------- --- --- -- ------- --- --- -----<br>-- --- ------ ------- --- --- -------- ---- --------- --<br>---------- -- -------- ----------------,275992,275984,275428.2,275428,275430.18,275997,,4,to
screen,html.Screen,2_3_1_0_1_5,2021-04-30T11:58:48.331Z,,,,,,,,,,,,,,,,,11,,,,,,,,,,,,,,612,,response,,,,4,D,,,,,,Space,keypress(Space),,,,silence,,,,----- -- ---- --- -- the -------- ------------ ---------- --<br>- ------- ------ --------- -- ------------ -- --- ---- -----<br>------ ---- ---- ------ ------ ------- --- ----- ---------<br>---- --- -------- -------- --- --- -- ------- --- --- -----<br>-- --- ------ ------- --- --- -------- ---- --------- --<br>---------- -- -------- ----------------,276616,276609,275992.24,275992,275997,276630.52,,5,the
screen,html.Screen,2_3_1_0_1_6,2021-04-30T11:58:48.905Z,,,,,,,,,,,,,,,,,11,,,,,,,,,,,,,,557.4799999999814,,response,,,,4,D,,,,,,Space,keypress(Space),,,,silence,,,,----- -- ---- --- -- --- island's ------------ ---------- --<br>- ------- ------ --------- -- ------------ -- --- ---- -----<br>------ ---- ---- ------ ------ ------- --- ----- ---------<br>---- --- -------- -------- --- --- -- ------- --- --- -----<br>-- --- ------ ------- --- --- -------- ---- --------- --<br>---------- -- -------- ----------------,277189,277188,276616.32,276616,276630.52,277197.2,,6,island's
screen,html.Screen,2_3_1_0_1_7,2021-04-30T11:58:49.549Z,,,,,,,,,,,,,,,,,11,,,,,,,,,,,,,,630.7999999999884,,response,,,,4,D,,,,,,Space,keypress(Space),,,,silence,,,,"----- -- ---- --- -- --- -------- inhabitants, ---------- --<br>- ------- ------ --------- -- ------------ -- --- ---- -----<br>------ ---- ---- ------ ------ ------- --- ----- ---------<br>---- --- -------- -------- --- --- -- ------- --- --- -----<br>-- --- ------ ------- --- --- -------- ---- --------- --<br>---------- -- -------- ----------------",277835,277828,277189.58,277189,277197.2,277847.2,,7,"inhabitants,"
screen,html.Screen,2_3_1_0_1_8,2021-04-30T11:58:50.764Z,,,,,,,,,,,,,,,,,11,,,,,,,,,,,,,,1199.7999999999884,,response,,,,4,D,,,,,,Space,keypress(Space),,,,silence,,,,----- -- ---- --- -- --- -------- ------------ Rongorongo --<br>- ------- ------ --------- -- ------------ -- --- ---- -----<br>------ ---- ---- ------ ------ ------- --- ----- ---------<br>---- --- -------- -------- --- --- -- ------- --- --- -----<br>-- --- ------ ------- --- --- -------- ---- --------- --<br>---------- -- -------- ----------------,279049,279047,277834.68,277835,277847.2,279063.5,,8,Rongorongo
screen,html.Screen,2_3_1_0_1_9,2021-04-30T11:58:51.335Z,,,,,,,,,,,,,,,,,11,,,,,,,,,,,,,,545.5,,response,,,,4,D,,,,,,Space,keypress(Space),,,,silence,,,,----- -- ---- --- -- --- -------- ------------ ---------- is<br>- ------- ------ --------- -- ------------ -- --- ---- -----<br>------ ---- ---- ------ ------ ------- --- ----- ---------<br>---- --- -------- -------- --- --- -- ------- --- --- -----<br>-- --- ------ ------- --- --- -------- ---- --------- --<br>---------- -- -------- ----------------,279620,279609,279049.38,279050,279063.5,279630.56,,9,is
screen,html.Screen,2_3_1_0_1_10,2021-04-30T11:58:51.967Z,,,,,,,,,,,,,,,,,11,,,,,,,,,,,,,,619.4400000000023,,response,,,,4,D,,,,,,Space,keypress(Space),,,,silence,,,,----- -- ---- --- -- --- -------- ------------ ---------- --<br>a ------- ------ --------- -- ------------ -- --- ---- -----<br>------ ---- ---- ------ ------ ------- --- ----- ---------<br>---- --- -------- -------- --- --- -- ------- --- --- -----<br>-- --- ------ ------- --- --- -------- ---- --------- --<br>---------- -- -------- ----------------,280252,280250,279620.72,279621,279630.56,280263.5,,10,a
screen,html.Screen,2_3_1_0_1_11,2021-04-30T11:58:52.547Z,,,,,,,,,,,,,,,,,11,,,,,,,,,,,,,,564.5,,response,,,,4,D,,,,,,Space,keypress(Space),,,,silence,,,,----- -- ---- --- -- --- -------- ------------ ---------- --<br>- writing ------ --------- -- ------------ -- --- ---- -----<br>------ ---- ---- ------ ------ ------- --- ----- ---------<br>---- --- -------- -------- --- --- -- ------- --- --- -----<br>-- --- ------ ------- --- --- -------- ---- --------- --<br>---------- -- -------- ----------------,280833,280828,280252.48,280252,280263.5,280847.14,,11,writing
screen,html.Screen,2_3_1_0_1_12,2021-04-30T11:58:53.273Z,,,,,,,,,,,,,,,,,11,,,,,,,,,,,,,,700.859999999986,,response,,,,4,D,,,,,,Space,keypress(Space),,,,silence,,,,----- -- ---- --- -- --- -------- ------------ ---------- --<br>- ------- system --------- -- ------------ -- --- ---- -----<br>------ ---- ---- ------ ------ ------- --- ----- ---------<br>---- --- -------- -------- --- --- -- ------- --- --- -----<br>-- --- ------ ------- --- --- -------- ---- --------- --<br>---------- -- -------- ----------------,281558,281548,280832.72,280833,280847.14,281563.38,,12,system
screen,html.Screen,2_3_1_0_1_13,2021-04-30T11:58:53.963Z,,,,,,,,,,,,,,,,,11,,,,,,,,,,,,,,670.6199999999953,,response,,,,4,D,,,,,,Space,keypress(Space),,,,silence,,,,----- -- ---- --- -- --- -------- ------------ ---------- --<br>- ------- ------ comprised -- ------------ -- --- ---- -----<br>------ ---- ---- ------ ------ ------- --- ----- ---------<br>---- --- -------- -------- --- --- -- ------- --- --- -----<br>-- --- ------ ------- --- --- -------- ---- --------- --<br>---------- -- -------- ----------------,282248,282234,281558.34,281558,281563.38,282263.44,,13,comprised
screen,html.Screen,2_3_1_0_1_14,2021-04-30T11:58:54.806Z,,,,,,,,,,,,,,,,,11,,,,,,,,,,,,,,815.5599999999977,,response,,,,4,D,,,,,,Space,keypress(Space),,,,silence,,,,----- -- ---- --- -- --- -------- ------------ ---------- --<br>- ------- ------ --------- of ------------ -- --- ---- -----<br>------ ---- ---- ------ ------ ------- --- ----- ---------<br>---- --- -------- -------- --- --- -- ------- --- --- -----<br>-- --- ------ ------- --- --- -------- ---- --------- --<br>---------- -- -------- ----------------,283091,283079,282248.34,282249,282263.44,283097.14,,14,of
screen,html.Screen,2_3_1_0_1_15,2021-04-30T11:58:56.372Z,,,,,,,,,,,,,,,,,11,,,,,,,,,,,,,,1542.859999999986,,response,,,,4,D,,,,,,Space,keypress(Space),,,,silence,,,,----- -- ---- --- -- --- -------- ------------ ---------- --<br>- ------- ------ --------- -- pictographs. -- --- ---- -----<br>------ ---- ---- ------ ------ ------- --- ----- ---------<br>---- --- -------- -------- --- --- -- ------- --- --- -----<br>-- --- ------ ------- --- --- -------- ---- --------- --<br>---------- -- -------- ----------------,284657,284640,283091.78,283091,283097.14,284680.08,,15,pictographs.
screen,html.Screen,2_3_1_0_1_16,2021-04-30T11:58:57.460Z,,,,,,,,,,,,,,,,,11,,,,,,,,,,,,,,1053.9199999999837,,response,,,,4,D,,,,,,Space,keypress(Space),,,,silence,,,,----- -- ---- --- -- --- -------- ------------ ---------- --<br>- ------- ------ --------- -- ------------ It --- ---- -----<br>------ ---- ---- ------ ------ ------- --- ----- ---------<br>---- --- -------- -------- --- --- -- ------- --- --- -----<br>-- --- ------ ------- --- --- -------- ---- --------- --<br>---------- -- -------- ----------------,285745,285734,284663.42,284657,284680.08,285746.78,,16,It
screen,html.Screen,2_3_1_0_1_17,2021-04-30T11:58:58.233Z,,,,,,,,,,,,,,,,,11,,,,,,,,,,,,,,768.2199999999721,,response,,,,4,D,,,,,,Space,keypress(Space),,,,silence,,,,----- -- ---- --- -- --- -------- ------------ ---------- --<br>- ------- ------ --------- -- ------------ -- has ---- -----<br>------ ---- ---- ------ ------ ------- --- ----- ---------<br>---- --- -------- -------- --- --- -- ------- --- --- -----<br>-- --- ------ ------- --- --- -------- ---- --------- --<br>---------- -- -------- ----------------,286518,286515,285745.02,285745,285746.78,286530.5,,17,has
screen,html.Screen,2_3_1_0_1_18,2021-04-30T11:58:58.782Z,,,,,,,,,,,,,,,,,11,,,,,,,,,,,,,,531.5,,response,,,,4,D,,,,,,Space,keypress(Space),,,,silence,,,,----- -- ---- --- -- --- -------- ------------ ---------- --<br>- ------- ------ --------- -- ------------ -- --- been -----<br>------ ---- ---- ------ ------ ------- --- ----- ---------<br>---- --- -------- -------- --- --- -- ------- --- --- -----<br>-- --- ------ ------- --- --- -------- ---- --------- --<br>---------- -- -------- ----------------,287067,287062,286517.86,286518,286530.5,287080.44,,18,been
screen,html.Screen,2_3_1_0_1_19,2021-04-30T11:58:59.488Z,,,,,,,,,,,,,,,,,11,,,,,,,,,,,,,,684.5599999999977,,response,,,,4,D,,,,,,Space,keypress(Space),,,,silence,,,,----- -- ---- --- -- --- -------- ------------ ---------- --<br>- ------- ------ --------- -- ------------ -- --- ---- found<br>------ ---- ---- ------ ------ ------- --- ----- ---------<br>---- --- -------- -------- --- --- -- ------- --- --- -----<br>-- --- ------ ------- --- --- -------- ---- --------- --<br>---------- -- -------- ----------------,287772,287765,287067.04,287067,287080.44,287780.48,,19,found
screen,html.Screen,2_3_1_0_1_20,2021-04-30T11:59:00.005Z,,,,,,,,,,,,,,,,,11,,,,,,,,,,,,,,500.5200000000186,,response,,,,4,D,,,,,,Space,keypress(Space),,,,silence,,,,----- -- ---- --- -- --- -------- ------------ ---------- --<br>- ------- ------ --------- -- ------------ -- --- ---- -----<br>carved ---- ---- ------ ------ ------- --- ----- ---------<br>---- --- -------- -------- --- --- -- ------- --- --- -----<br>-- --- ------ ------- --- --- -------- ---- --------- --<br>---------- -- -------- ----------------,288291,288281,287773.2,287773,287780.48,288296.96,,20,carved
screen,html.Screen,2_3_1_0_1_21,2021-04-30T11:59:00.524Z,,,,,,,,,,,,,,,,,11,,,,,,,,,,,,,,500.03999999997905,,response,,,,4,D,,,,,,Space,keypress(Space),,,,silence,,,,----- -- ---- --- -- --- -------- ------------ ---------- --<br>- ------- ------ --------- -- ------------ -- --- ---- -----<br>------ into ---- ------ ------ ------- --- ----- ---------<br>---- --- -------- -------- --- --- -- ------- --- --- -----<br>-- --- ------ ------- --- --- -------- ---- --------- --<br>---------- -- -------- ----------------,288809,288797,288290.42,288291,288296.96,288813.48,,21,into
screen,html.Screen,2_3_1_0_1_22,2021-04-30T11:59:01.048Z,,,,,,,,,,,,,,,,,11,,,,,,,,,,,,,,514.5200000000186,,response,,,,4,D,,,,,,Space,keypress(Space),,,,silence,,,,----- -- ---- --- -- --- -------- ------------ ---------- --<br>- ------- ------ --------- -- ------------ -- --- ---- -----<br>------ ---- many ------ ------ ------- --- ----- ---------<br>---- --- -------- -------- --- --- -- ------- --- --- -----<br>-- --- ------ ------- --- --- -------- ---- --------- --<br>---------- -- -------- ----------------,289333,289328,288809.58,288809,288813.48,289347.08,,22,many
screen,html.Screen,2_3_1_0_1_23,2021-04-30T11:59:01.791Z,,,,,,,,,,,,,,,,,11,,,,,,,,,,,,,,714.9199999999837,,response,,,,4,D,,,,,,Space,keypress(Space),,,,silence,,,,----- -- ---- --- -- --- -------- ------------ ---------- --<br>- ------- ------ --------- -- ------------ -- --- ---- -----<br>------ ---- ---- oblong ------ ------- --- ----- ---------<br>---- --- -------- -------- --- --- -- ------- --- --- -----<br>-- --- ------ ------- --- --- -------- ---- --------- --<br>---------- -- -------- ----------------,290076,290062,289333.78,289333,289347.08,290080.26,,23,oblong
screen,html.Screen,2_3_1_0_1_24,2021-04-30T11:59:02.351Z,,,,,,,,,,,,,,,,,11,,,,,,,,,,,,,,544.7399999999907,,response,,,,4,D,,,,,,Space,keypress(Space),,,,silence,,,,----- -- ---- --- -- --- -------- ------------ ---------- --<br>- ------- ------ --------- -- ------------ -- --- ---- -----<br>------ ---- ---- ------ wooden ------- --- ----- ---------<br>---- --- -------- -------- --- --- -- ------- --- --- -----<br>-- --- ------ ------- --- --- -------- ---- --------- --<br>---------- -- -------- ----------------,290636,290625,290075.96,290076,290080.26,290647.02,,24,wooden
screen,html.Screen,2_3_1_0_1_25,2021-04-30T11:59:03.020Z,,,,,,,,,,,,,,,,,11,,,,,,,,,,,,,,649.9799999999814,,response,,,,4,D,,,,,,Space,keypress(Space),,,,silence,,,,----- -- ---- --- -- --- -------- ------------ ---------- --<br>- ------- ------ --------- -- ------------ -- --- ---- -----<br>------ ---- ---- ------ ------ tablets --- ----- ---------<br>---- --- -------- -------- --- --- -- ------- --- --- -----<br>-- --- ------ ------- --- --- -------- ---- --------- --<br>---------- -- -------- ----------------,291304,291297,290636.28,290636,290647.02,291313.44,,25,tablets
screen,html.Screen,2_3_1_0_1_26,2021-04-30T11:59:03.665Z,,,,,,,,,,,,,,,,,11,,,,,,,,,,,,,,623.5599999999977,,response,,,,4,D,,,,,,Space,keypress(Space),,,,silence,,,,----- -- ---- --- -- --- -------- ------------ ---------- --<br>- ------- ------ --------- -- ------------ -- --- ---- -----<br>------ ---- ---- ------ ------ ------- and ----- ---------<br>---- --- -------- -------- --- --- -- ------- --- --- -----<br>-- --- ------ ------- --- --- -------- ---- --------- --<br>---------- -- -------- ----------------,291950,291937,291304.66,291305,291313.44,291963.44,,26,and
screen,html.Screen,2_3_1_0_1_27,2021-04-30T11:59:04.365Z,,,,,,,,,,,,,,,,,11,,,,,,,,,,,,,,676.5599999999977,,response,,,,4,D,,,,,,Space,keypress(Space),,,,silence,,,,----- -- ---- --- -- --- -------- ------------ ---------- --<br>- ------- ------ --------- -- ------------ -- --- ---- -----<br>------ ---- ---- ------ ------ ------- --- other ---------<br>---- --- -------- -------- --- --- -- ------- --- --- -----<br>-- --- ------ ------- --- --- -------- ---- --------- --<br>---------- -- -------- ----------------,292650,292640,291950.66,291951,291963.44,292663.46,,27,other
screen,html.Screen,2_3_1_0_1_28,2021-04-30T11:59:05.086Z,,,,,,,,,,,,,,,,,11,,,,,,,,,,,,,,695.539999999979,,response,,,,4,D,,,,,,Space,keypress(Space),,,,silence,,,,----- -- ---- --- -- --- -------- ------------ ---------- --<br>- ------- ------ --------- -- ------------ -- --- ---- -----<br>------ ---- ---- ------ ------ ------- --- ----- artifacts<br>---- --- -------- -------- --- --- -- ------- --- --- -----<br>-- --- ------ ------- --- --- -------- ---- --------- --<br>---------- -- -------- ----------------,293371,293359,292650.44,292650,292663.46,293380.34,,28,artifacts
screen,html.Screen,2_3_1_0_1_29,2021-04-30T11:59:05.661Z,,,,,,,,,,,,,,,,,11,,,,,,,,,,,,,,557.6599999999744,,response,,,,4,D,,,,,,Space,keypress(Space),,,,silence,,,,----- -- ---- --- -- --- -------- ------------ ---------- --<br>- ------- ------ --------- -- ------------ -- --- ---- -----<br>------ ---- ---- ------ ------ ------- --- ----- ---------<br>from --- -------- -------- --- --- -- ------- --- --- -----<br>-- --- ------ ------- --- --- -------- ---- --------- --<br>---------- -- -------- ----------------,293945,293938,293370.78,293371,293380.34,293963.32,,29,from
screen,html.Screen,2_3_1_0_1_30,2021-04-30T11:59:06.345Z,,,,,,,,,,,,,,,,,11,,,,,,,,,,,,,,661.679999999993,,response,,,,4,D,,,,,,Space,keypress(Space),,,,silence,,,,----- -- ---- --- -- --- -------- ------------ ---------- --<br>- ------- ------ --------- -- ------------ -- --- ---- -----<br>------ ---- ---- ------ ------ ------- --- ----- ---------<br>---- the -------- -------- --- --- -- ------- --- --- -----<br>-- --- ------ ------- --- --- -------- ---- --------- --<br>---------- -- -------- ----------------,294630,294625,293945.84,293945,293963.32,294647.08,,30,the
screen,html.Screen,2_3_1_0_1_31,2021-04-30T11:59:07.016Z,,,,,,,,,,,,,,,,,11,,,,,,,,,,,,,,649.9199999999837,,response,,,,4,D,,,,,,Space,keypress(Space),,,,silence,,,,----- -- ---- --- -- --- -------- ------------ ---------- --<br>- ------- ------ --------- -- ------------ -- --- ---- -----<br>------ ---- ---- ------ ------ ------- --- ----- ---------<br>---- --- island's -------- --- --- -- ------- --- --- -----<br>-- --- ------ ------- --- --- -------- ---- --------- --<br>---------- -- -------- ----------------,295301,295297,294630.26,294630,294647.08,295313.46,,31,island's
screen,html.Screen,2_3_1_0_1_32,2021-04-30T11:59:07.675Z,,,,,,,,,,,,,,,,,11,,,,,,,,,,,,,,639.539999999979,,response,,,,4,D,,,,,,Space,keypress(Space),,,,silence,,,,----- -- ---- --- -- --- -------- ------------ ---------- --<br>- ------- ------ --------- -- ------------ -- --- ---- -----<br>------ ---- ---- ------ ------ ------- --- ----- ---------<br>---- --- -------- history. --- --- -- ------- --- --- -----<br>-- --- ------ ------- --- --- -------- ---- --------- --<br>---------- -- -------- ----------------,295960,295953,295301.38,295301,295313.46,295963.32,,32,history.
screen,html.Screen,2_3_1_0_1_33,2021-04-30T11:59:08.433Z,,,,,,,,,,,,,,,,,11,,,,,,,,,,,,,,739.679999999993,,response,,,,4,D,,,,,,Space,keypress(Space),,,,silence,,,,----- -- ---- --- -- --- -------- ------------ ---------- --<br>- ------- ------ --------- -- ------------ -- --- ---- -----<br>------ ---- ---- ------ ------ ------- --- ----- ---------<br>---- --- -------- -------- The --- -- ------- --- --- -----<br>-- --- ------ ------- --- --- -------- ---- --------- --<br>---------- -- -------- ----------------,296717,296703,295959.72,295960,295963.32,296730.4,,33,The
screen,html.Screen,2_3_1_0_1_34,2021-04-30T11:59:09.072Z,,,,,,,,,,,,,,,,,11,,,,,,,,,,,,,,613.5999999999767,,response,,,,4,D,,,,,,Space,keypress(Space),,,,silence,,,,----- -- ---- --- -- --- -------- ------------ ---------- --<br>- ------- ------ --------- -- ------------ -- --- ---- -----<br>------ ---- ---- ------ ------ ------- --- ----- ---------<br>---- --- -------- -------- --- art -- ------- --- --- -----<br>-- --- ------ ------- --- --- -------- ---- --------- --<br>---------- -- -------- ----------------,297357,297344,296717.72,296717,296730.4,297363.38,,34,art
screen,html.Screen,2_3_1_0_1_35,2021-04-30T11:59:09.585Z,,,,,,,,,,,,,,,,,11,,,,,,,,,,,,,,495.61999999999534,,response,,,,4,D,,,,,,Space,keypress(Space),,,,silence,,,,----- -- ---- --- -- --- -------- ------------ ---------- --<br>- ------- ------ --------- -- ------------ -- --- ---- -----<br>------ ---- ---- ------ ------ ------- --- ----- ---------<br>---- --- -------- -------- --- --- of ------- --- --- -----<br>-- --- ------ ------- --- --- -------- ---- --------- --<br>---------- -- -------- ----------------,297871,297859,297357.12,297357,297363.38,297880.36,,35,of
screen,html.Screen,2_3_1_0_1_36,2021-04-30T11:59:10.384Z,,,,,,,,,,,,,,,,,11,,,,,,,,,,,,,,775.640000000014,,response,,,,4,D,,,,,,Space,keypress(Space),,,,silence,,,,----- -- ---- --- -- --- -------- ------------ ---------- --<br>- ------- ------ --------- -- ------------ -- --- ---- -----<br>------ ---- ---- ------ ------ ------- --- ----- ---------<br>---- --- -------- -------- --- --- -- writing --- --- -----<br>-- --- ------ ------- --- --- -------- ---- --------- --<br>---------- -- -------- ----------------,298669,298656,297871.12,297871,297880.36,298679.98,,36,writing
screen,html.Screen,2_3_1_0_1_37,2021-04-30T11:59:11.022Z,,,,,,,,,,,,,,,,,11,,,,,,,,,,,,,,617.0200000000186,,response,,,,4,D,,,,,,Space,keypress(Space),,,,silence,,,,----- -- ---- --- -- --- -------- ------------ ---------- --<br>- ------- ------ --------- -- ------------ -- --- ---- -----<br>------ ---- ---- ------ ------ ------- --- ----- ---------<br>---- --- -------- -------- --- --- -- ------- was --- -----<br>-- --- ------ ------- --- --- -------- ---- --------- --<br>---------- -- -------- ----------------,299307,299297,298669.4,298669,298679.98,299313.36,,37,was
screen,html.Screen,2_3_1_0_1_38,2021-04-30T11:59:11.459Z,,,,,,,,,,,,,,,,,11,,,,,,,,,,,,,,420.64000000001397,,response,,,,4,D,,,,,,Space,keypress(Space),,,,silence,,,,----- -- ---- --- -- --- -------- ------------ ---------- --<br>- ------- ------ --------- -- ------------ -- --- ---- -----<br>------ ---- ---- ------ ------ ------- --- ----- ---------<br>---- --- -------- -------- --- --- -- ------- --- not -----<br>-- --- ------ ------- --- --- -------- ---- --------- --<br>---------- -- -------- ----------------,299744,299734,299307.24,299307,299313.36,299746.7,,38,not
screen,html.Screen,2_3_1_0_1_39,2021-04-30T11:59:12.059Z,,,,,,,,,,,,,,,,,11,,,,,,,,,,,,,,581.2999999999884,,response,,,,4,D,,,,,,Space,keypress(Space),,,,silence,,,,----- -- ---- --- -- --- -------- ------------ ---------- --<br>- ------- ------ --------- -- ------------ -- --- ---- -----<br>------ ---- ---- ------ ------ ------- --- ----- ---------<br>---- --- -------- -------- --- --- -- ------- --- --- known<br>-- --- ------ ------- --- --- -------- ---- --------- --<br>---------- -- -------- ----------------,300344,300328,299744.58,299744,299746.7,300346.64,,39,known
screen,html.Screen,2_3_1_0_1_40,2021-04-30T11:59:12.627Z,,,,,,,,,,,,,,,,,11,,,,,,,,,,,,,,559.359999999986,,response,,,,4,D,,,,,,Space,keypress(Space),,,,silence,,,,----- -- ---- --- -- --- -------- ------------ ---------- --<br>- ------- ------ --------- -- ------------ -- --- ---- -----<br>------ ---- ---- ------ ------ ------- --- ----- ---------<br>---- --- -------- -------- --- --- -- ------- --- --- -----<br>in --- ------ ------- --- --- -------- ---- --------- --<br>---------- -- -------- ----------------,300912,300906,300344,300344,300346.64,300930.28,,40,in
screen,html.Screen,2_3_1_0_1_41,2021-04-30T11:59:13.227Z,,,,,,,,,,,,,,,,,11,,,,,,,,,,,,,,569.7199999999721,,response,,,,4,D,,,,,,Space,keypress(Space),,,,silence,,,,----- -- ---- --- -- --- -------- ------------ ---------- --<br>- ------- ------ --------- -- ------------ -- --- ---- -----<br>------ ---- ---- ------ ------ ------- --- ----- ---------<br>---- --- -------- -------- --- --- -- ------- --- --- -----<br>-- any ------ ------- --- --- -------- ---- --------- --<br>---------- -- -------- ----------------,301512,301500,300912.42,300912,300930.28,301529.94,,41,any
screen,html.Screen,2_3_1_0_1_42,2021-04-30T11:59:13.959Z,,,,,,,,,,,,,,,,,11,,,,,,,,,,,,,,704.0599999999977,,response,,,,4,D,,,,,,Space,keypress(Space),,,,silence,,,,----- -- ---- --- -- --- -------- ------------ ---------- --<br>- ------- ------ --------- -- ------------ -- --- ---- -----<br>------ ---- ---- ------ ------ ------- --- ----- ---------<br>---- --- -------- -------- --- --- -- ------- --- --- -----<br>-- --- nearby ------- --- --- -------- ---- --------- --<br>---------- -- -------- ----------------,302245,302234,301512.86,301512,301529.94,302246.68,,42,nearby
screen,html.Screen,2_3_1_0_1_43,2021-04-30T11:59:15.311Z,,,,,,,,,,,,,,,,,11,,,,,,,,,,,,,,1347.320000000007,,response,,,,4,D,,,,,,Space,keypress(Space),,,,silence,,,,----- -- ---- --- -- --- -------- ------------ ---------- --<br>- ------- ------ --------- -- ------------ -- --- ---- -----<br>------ ---- ---- ------ ------ ------- --- ----- ---------<br>---- --- -------- -------- --- --- -- ------- --- --- -----<br>-- --- ------ islands --- --- -------- ---- --------- --<br>---------- -- -------- ----------------,303596,303594,302244.46,302245,302246.68,303613.28,,43,islands
screen,html.Screen,2_3_1_0_1_44,2021-04-30T11:59:15.991Z,,,,,,,,,,,,,,,,,11,,,,,,,,,,,,,,651.7199999999721,,response,,,,4,D,,,,,,Space,keypress(Space),,,,silence,,,,----- -- ---- --- -- --- -------- ------------ ---------- --<br>- ------- ------ --------- -- ------------ -- --- ---- -----<br>------ ---- ---- ------ ------ ------- --- ----- ---------<br>---- --- -------- -------- --- --- -- ------- --- --- -----<br>-- --- ------ ------- and --- -------- ---- --------- --<br>---------- -- -------- ----------------,304277,304265,303596.26,303596,303613.28,304279.96,,44,and
screen,html.Screen,2_3_1_0_1_45,2021-04-30T11:59:16.559Z,,,,,,,,,,,,,,,,,11,,,,,,,,,,,,,,549.039999999979,,response,,,,4,D,,,,,,Space,keypress(Space),,,,silence,,,,----- -- ---- --- -- --- -------- ------------ ---------- --<br>- ------- ------ --------- -- ------------ -- --- ---- -----<br>------ ---- ---- ------ ------ ------- --- ----- ---------<br>---- --- -------- -------- --- --- -- ------- --- --- -----<br>-- --- ------ ------- --- the -------- ---- --------- --<br>---------- -- -------- ----------------,304844,304829,304277.14,304277,304279.96,304846.64,,45,the
screen,html.Screen,2_3_1_0_1_46,2021-04-30T11:59:17.285Z,,,,,,,,,,,,,,,,,11,,,,,,,,,,,,,,716.359999999986,,response,,,,4,D,,,,,,Space,keypress(Space),,,,silence,,,,----- -- ---- --- -- --- -------- ------------ ---------- --<br>- ------- ------ --------- -- ------------ -- --- ---- -----<br>------ ---- ---- ------ ------ ------- --- ----- ---------<br>---- --- -------- -------- --- --- -- ------- --- --- -----<br>-- --- ------ ------- --- --- script's ---- --------- --<br>---------- -- -------- ----------------,305570,305563,304844.42,304844,304846.64,305580.02,,46,script's
screen,html.Screen,2_3_1_0_1_47,2021-04-30T11:59:18.070Z,,,,,,,,,,,,,,,,,11,,,,,,,,,,,,,,763.9799999999814,,response,,,,4,D,,,,,,Space,keypress(Space),,,,silence,,,,----- -- ---- --- -- --- -------- ------------ ---------- --<br>- ------- ------ --------- -- ------------ -- --- ---- -----<br>------ ---- ---- ------ ------ ------- --- ----- ---------<br>---- --- -------- -------- --- --- -- ------- --- --- -----<br>-- --- ------ ------- --- --- -------- mere --------- --<br>---------- -- -------- ----------------,306355,306344,305570.5,305570,305580.02,306363.34,,47,mere
screen,html.Screen,2_3_1_0_1_48,2021-04-30T11:59:18.734Z,,,,,,,,,,,,,,,,,11,,,,,,,,,,,,,,651.6599999999744,,response,,,,4,D,,,,,,Space,keypress(Space),,,,silence,,,,----- -- ---- --- -- --- -------- ------------ ---------- --<br>- ------- ------ --------- -- ------------ -- --- ---- -----<br>------ ---- ---- ------ ------ ------- --- ----- ---------<br>---- --- -------- -------- --- --- -- ------- --- --- -----<br>-- --- ------ ------- --- --- -------- ---- existence --<br>---------- -- -------- ----------------,307019,307015,306355.68,306355,306363.34,307030.08,,48,existence
screen,html.Screen,2_3_1_0_1_49,2021-04-30T11:59:19.281Z,,,,,,,,,,,,,,,,,11,,,,,,,,,,,,,,531.9199999999837,,response,,,,4,D,,,,,,Space,keypress(Space),,,,silence,,,,----- -- ---- --- -- --- -------- ------------ ---------- --<br>- ------- ------ --------- -- ------------ -- --- ---- -----<br>------ ---- ---- ------ ------ ------- --- ----- ---------<br>---- --- -------- -------- --- --- -- ------- --- --- -----<br>-- --- ------ ------- --- --- -------- ---- --------- is<br>---------- -- -------- ----------------,307566,307562,307019.66,307020,307030.08,307579.94,,49,is
screen,html.Screen,2_3_1_0_1_50,2021-04-30T11:59:19.912Z,,,,,,,,,,,,,,,,,11,,,,,,,,,,,,,,608.0599999999977,,response,,,,4,D,,,,,,Space,keypress(Space),,,,silence,,,,----- -- ---- --- -- --- -------- ------------ ---------- --<br>- ------- ------ --------- -- ------------ -- --- ---- -----<br>------ ---- ---- ------ ------ ------- --- ----- ---------<br>---- --- -------- -------- --- --- -- ------- --- --- -----<br>-- --- ------ ------- --- --- -------- ---- --------- --<br>sufficient -- -------- ----------------,308197,308188,307566.04,307566,307579.94,308213.22,,50,sufficient
screen,html.Screen,2_3_1_0_1_51,2021-04-30T11:59:20.448Z,,,,,,,,,,,,,,,,,11,,,,,,,,,,,,,,506.78000000002794,,response,,,,4,D,,,,,,Space,keypress(Space),,,,silence,,,,----- -- ---- --- -- --- -------- ------------ ---------- --<br>- ------- ------ --------- -- ------------ -- --- ---- -----<br>------ ---- ---- ------ ------ ------- --- ----- ---------<br>---- --- -------- -------- --- --- -- ------- --- --- -----<br>-- --- ------ ------- --- --- -------- ---- --------- --<br>---------- to -------- ----------------,308733,308720,308196.94,308197,308213.22,308746.9,,51,to
