sender,sender_type,sender_id,timestamp,meta,,Blues,Classical,Country,Dance,Electronic,Folk,Gospel,Hip-Hop,Jazz,Latin,Musical/Film,New-age,Pop,Prolific_id,Provo_ID,R&B,Rap,Reggae,Religious,Rock,Soul,Swing,Traditional,age,artist_name,correct,correctResponse,distraction,duration,education,ended_on,familiarity,gender,headphone_check_performance,item,list,music_frequency,offensiveness,pleasantness,position_correct,preference,response,response_action,snippet_file,song_name,song_rating,sound,stimulus_1,stimulus_2,stimulus_3,text,time_commit,time_end,time_render,time_run,time_show,time_switch,url,word,word_ID
Prolific ID,html.Form,0,2021-04-26T09:31:00.193Z,"{""labjs_version"":""20.2.2"",""labjs_build"":{""flavor"":""production"",""commit"":""a25486e0c714a0ae2ce03ff94b7bb6896854dcfa""},""location"":""https://run.pavlovia.org/mvasilev/prolific_music_a/"",""userAgent"":""Mozilla/5.0 (Windows NT 10.0; Win64; x64) AppleWebKit/537.36 (KHTML, like Gecko) Chrome/90.0.4430.72 Safari/537.36"",""platform"":""Win32"",""language"":""en-GB"",""locale"":""en-GB"",""timeZone"":""Europe/London"",""timezoneOffset"":-60,""screen_width"":1366,""screen_height"":768,""scroll_width"":1366,""scroll_height"":609,""window_innerWidth"":1366,""window_innerHeight"":657,""devicePixelRatio"":1}",,,,,,,,,,,,,,,5b9972d9d3ccc00001fec10c,,,,,,,,,,,,,,,4054.623000000691,,form submission,,,,,,,,,,,,,,,,,,,,,15943.460000000414,15943.125000000691,11855.251,11867.255000000114,11888.502,16054.817,{},,
Introduction,html.Screen,1_0,2021-04-26T09:31:04.161Z,,,,,,,,,,,,,,,,,,,,,,,,,,,,,,,3854.0330000007125,,response,,,,,,,,,,,continue,click button,,,,,,,,,19910.74000000026,19908.85000000071,15938.206,15943.780000000515,16054.817,19937.768,,,
Volume calibration,html.Screen,1_1,2021-04-26T09:31:21.760Z,,,,,,,,,,,,,,,,,,,,,,,,,,,,,,,17571.207000000646,,response,,,,,,,,,,,continue,click button,,,,,,,,,37509.71500000014,37508.975000000646,19921.162,19910.870000000614,19937.768,37536.474,,,
Task instructions,html.Screen,1_2,2021-04-26T09:31:28.536Z,,,,,,,,,,,,,,,,,,,,,,,,,,,,,,,6748.461000000585,,response,,,,,,,,,,,continue,click button,,,,,,,,,44285.63000000031,44284.93500000059,37519.778,37509.86000000012,37536.474,44312.63,,,
Sounds,html.Screen,1_3_0_0,2021-04-26T09:31:32.808Z,,,,,,,,,,,,,,,,,,,,,,,,,,,,,,,4256.321000000004,,timeout,,,,,,,,,2,,,,,,,,I,S,O,,48558.15000000075,48552.385,44269.423,44285.870000000614,44312.63,48568.951,,,
Judgement,html.Screen,1_3_0_1,2021-04-26T09:31:33.496Z,,,,,,,,,,,,,,,,,,,,,,,,,,,,true,2,,675.9590000003445,,response,,,,,,,,,2,,2,click #choice-2,,,,,I,S,O,,49245.69000000065,49244.910000000345,48552.385,48558.570000000145,48568.951,49252.183,,,
Trial,flow.Sequence,1_3_0,2021-04-26T09:31:33.496Z,,,,,,,,,,,,,,,,,,,,,,,,,,,,,,,4932.280000000348,,completion,,,,,,,,,2,,,,,,,,I,S,O,,49245.975000000726,49244.910000000345,44269.423,44285.81000000031,44312.63,49252.183,,,
Sounds,html.Screen,1_3_1_0,2021-04-26T09:31:37.737Z,,,,,,,,,,,,,,,,,,,,,,,,,,,,,,,4250.082000000002,,timeout,,,,,,,,,3,,,,,,,,O,I,S,,53487.02500000036,53485.258,49235.665,49246.110000000044,49252.183,53502.265,,,
Judgement,html.Screen,1_3_1_1,2021-04-26T09:31:39.064Z,,,,,,,,,,,,,,,,,,,,,,,,,,,,true,3,,1310.6800000005824,,response,,,,,,,,,3,,3,click #choice-3,,,,,O,I,S,,54813.66000000071,54812.94500000058,53485.258,53487.37500000061,53502.265,54818.42,,,
Trial,flow.Sequence,1_3_1,2021-04-26T09:31:39.064Z,,,,,,,,,,,,,,,,,,,,,,,,,,,,,,,5560.7620000005845,,completion,,,,,,,,,3,,,,,,,,O,I,S,,54813.85500000033,54812.94500000058,49235.665,49246.070000000145,49252.183,54818.42,,,
Sounds,html.Screen,1_3_2_0,2021-04-26T09:31:43.303Z,,,,,,,,,,,,,,,,,,,,,,,,,,,,,,,4249.688000000002,,timeout,,,,,,,,,2,,,,,,,,O,S,I,,59052.685000000565,59051.521,54801.919,54813.985000000685,54818.42,59068.108,,,
Judgement,html.Screen,1_3_2_1,2021-04-26T09:31:43.791Z,,,,,,,,,,,,,,,,,,,,,,,,,,,,true,2,,472.5320000001666,,response,,,,,,,,,2,,2,click #choice-2,,,,,O,S,I,,59541.23000000072,59540.64000000017,59051.521,59052.990000000136,59068.108,59568.126,,,
Trial,flow.Sequence,1_3_2,2021-04-26T09:31:43.791Z,,,,,,,,,,,,,,,,,,,,,,,,,,,,,,,4722.2200000001685,,completion,,,,,,,,,2,,,,,,,,O,S,I,,59541.40000000007,59540.64000000017,54801.919,54813.945000000786,54818.42,59568.126,,,
Sounds,html.Screen,1_3_3_0,2021-04-26T09:31:48.052Z,,,,,,,,,,,,,,,,,,,,,,,,,,,,,,,4249.614000000001,,timeout,,,,,,,,,1,,,,,,,,S,O,I,,63802.395000000615,63801.212,59552.863,59541.51499999989,59568.126,63817.74,,,
Judgement,html.Screen,1_3_3_1,2021-04-26T09:31:48.495Z,,,,,,,,,,,,,,,,,,,,,,,,,,,,true,1,,427.0799999998926,,response,,,,,,,,,1,,1,click #choice-1,,,,,S,O,I,,64245.5200000004,64244.81999999989,63801.212,63802.740000000085,63817.74,64251.019,,,
Trial,flow.Sequence,1_3_3,2021-04-26T09:31:48.495Z,,,,,,,,,,,,,,,,,,,,,,,,,,,,,,,4676.693999999894,,completion,,,,,,,,,1,,,,,,,,S,O,I,,64245.69500000052,64244.81999999989,59552.863,59541.480000000774,59568.126,64251.019,,,
Sounds,html.Screen,1_3_4_0,2021-04-26T09:31:52.735Z,,,,,,,,,,,,,,,,,,,,,,,,,,,,,,,4249.736999999994,,timeout,,,,,,,,,1,,,,,,,,S,I,O,,68485.26000000039,68484.101,64234.533,64245.81000000035,64251.019,68500.756,,,
Judgement,html.Screen,1_3_4_1,2021-04-26T09:31:53.152Z,,,,,,,,,,,,,,,,,,,,,,,,,,,,true,1,,400.7140000007057,,response,,,,,,,,,1,,1,click #choice-1,,,,,S,I,O,,68902.09500000038,68901.4700000007,68484.101,68485.57500000061,68500.756,68917.312,,,
Trial,flow.Sequence,1_3_4,2021-04-26T09:31:53.152Z,,,,,,,,,,,,,,,,,,,,,,,,,,,,,,,4650.451000000699,,completion,,,,,,,,,1,,,,,,,,S,I,O,,68902.26000000075,68901.4700000007,64234.533,64245.77500000032,64251.019,68917.312,,,
Sounds,html.Screen,1_3_5_0,2021-04-26T09:31:57.401Z,,,,,,,,,,,,,,,,,,,,,,,,,,,,,,,4249.725999999995,,timeout,,,,,,,,,3,,,,,,,,I,O,S,,73151.53000000009,73150.463,68900.728,68902.36499999992,68917.312,73167.038,,,
Judgement,html.Screen,1_3_5_1,2021-04-26T09:31:58.263Z,,,,,,,,,,,,,,,,,,,,,,,,,,,,true,3,,845.8470000000962,,response,,,,,,,,,3,,3,click #choice-3,,,,,I,O,S,,74013.64499999999,74012.8850000001,73150.463,73151.8500000002,73167.038,74016.928,,,
Trial,flow.Sequence,1_3_5,2021-04-26T09:31:58.264Z,,,,,,,,,,,,,,,,,,,,,,,,,,,,,,,5095.573000000091,,completion,,,,,,,,,3,,,,,,,,I,O,S,,74013.81500000025,74012.8850000001,68900.728,68902.3299999999,68917.312,74016.928,,,
Task,flow.Loop,1_3,2021-04-26T09:31:58.267Z,,,,,,,,,,,,,,,,,,,,,,,,,,,,,,,29700.2550000001,,completion,,,1,,,,,,,,,,,,,,,,,,74017.41500000026,74012.8850000001,44269.423,44285.75000000001,44312.63,74016.928,,,
Trap,html.Screen,1_4,2021-04-26T09:31:58.268Z,,,,,,,,,,,,,,,,,,,,,,,,,,,,,,,NaN,,skipped,,,,,,,,,,,,,,,,,,,,,74018.46999999997,74012.8850000001,,74018.3649999999,,74016.928,,,
Thanks,html.Screen,1_5,2021-04-26T09:32:01.359Z,,,,,,,,,,,,,,,,,,,,,,,,,,,,,,,3091.882000000638,,response,,,,,,,,,,,continue,click button,,,,,,,,,77109.44000000018,77108.81000000064,74000.378,74018.56500000031,74016.928,80533.402,,,
Headphone screening,flow.Sequence,1,2021-04-26T09:32:01.359Z,,,,,,,,,,,,,,,,,,,,,,,,,,,,,,,61053.99300000064,,completion,,,,,,,,,,,,,,,,,,,,,77109.60000000068,77108.81000000064,15938.206,15943.74500000049,16054.817,80533.402,,,
Instructions,html.Page,2_0,2021-04-26T09:32:14.600Z,,,,,,,,,,,,,,,,,,,,,,,,,,,,,,,9816.373000000589,,form submission,,,,,,,,,,,,,,,,,,,,,90350.10000000056,90349.77500000059,80466.473,80531.15500000058,80533.402,90365.721,,,
Holding screen,html.Screen,2_1_0_0,2021-04-26T09:32:24.601Z,,,,,,,,,,,,,,,,,,,,,,,,,,,,,,,10082.460999999996,,timeout,,,,,,,,,,,,,,,,,,,,,100351.2150000006,100348.407,90349.162,90350.27500000069,90365.721,100448.182,,,
screen,html.Screen,2_1_0_1_0,2021-04-26T09:32:25.659Z,,,,,,,,,,,,,,,,,53,,,,,,,,,,,,,,954.958000000348,,response,,,,99,,,,,,,Space,keypress(Space),,,,,,,,When -- ----- -- ------ - ------- --- ----------<br>------------- ------ ------ ---- ---- ------- ----- -- ----<br>-------- ------- -- ---------- --- - --- ----- ----- ----<br>---- --- --- ----- --- ---- ---- ------- ----- ---- -------<br>--- --- -- ----- -- --- ---- -- --- ---- -- ------ ------<br>--- ----- -- ----,101408.96000000066,101403.14000000035,100348.407,100351.69000000041,100448.182,101414.87,,0,When
screen,html.Screen,2_1_0_1_1,2021-04-26T09:32:26.103Z,,,,,,,,,,,,,,,,,53,,,,,,,,,,,,,,437.16000000001804,,response,,,,99,,,,,,,Space,keypress(Space),,,,,,,,---- it ----- -- ------ - ------- --- ----------<br>------------- ------ ------ ---- ---- ------- ----- -- ----<br>-------- ------- -- ---------- --- - --- ----- ----- ----<br>---- --- --- ----- --- ---- ---- ------- ----- ---- -------<br>--- --- -- ----- -- --- ---- -- --- ---- -- ------ ------<br>--- ----- -- ----,101853.1350000003,101852.03000000001,101398.091,101409.33000000041,101414.87,101864.867,,1,it
screen,html.Screen,2_1_0_1_2,2021-04-26T09:32:26.552Z,,,,,,,,,,,,,,,,,53,,,,,,,,,,,,,,436.22800000071584,,response,,,,99,,,,,,,Space,keypress(Space),,,,,,,,---- -- comes -- ------ - ------- --- ----------<br>------------- ------ ------ ---- ---- ------- ----- -- ----<br>-------- ------- -- ---------- --- - --- ----- ----- ----<br>---- --- --- ----- --- ---- ---- ------- ----- ---- -------<br>--- --- -- ----- -- --- ---- -- --- ---- -- ------ ------<br>--- ----- -- ----,102302.19500000021,102301.09500000071,101848.293,101853.56000000046,101864.867,102314.849,,2,comes
screen,html.Screen,2_1_0_1_3,2021-04-26T09:32:27.061Z,,,,,,,,,,,,,,,,,53,,,,,,,,,,,,,,494.78100000064296,,response,,,,99,,,,,,,Space,keypress(Space),,,,,,,,---- -- ----- to ------ - ------- --- ----------<br>------------- ------ ------ ---- ---- ------- ----- -- ----<br>-------- ------- -- ---------- --- - --- ----- ----- ----<br>---- --- --- ----- --- ---- ---- ------- ----- ---- -------<br>--- --- -- ----- -- --- ---- -- --- ---- -- ------ ------<br>--- ----- -- ----,102810.95499999993,102809.63000000064,102298.208,102302.5000000007,102314.849,102814.751,,3,to
screen,html.Screen,2_1_0_1_4,2021-04-26T09:32:27.450Z,,,,,,,,,,,,,,,,,53,,,,,,,,,,,,,,384.72900000021036,,response,,,,99,,,,,,,Space,keypress(Space),,,,,,,,---- -- ----- -- having - ------- --- ----------<br>------------- ------ ------ ---- ---- ------- ----- -- ----<br>-------- ------- -- ---------- --- - --- ----- ----- ----<br>---- --- --- ----- --- ---- ---- ------- ----- ---- -------<br>--- --- -- ----- -- --- ---- -- --- ---- -- ------ ------<br>--- ----- -- ----,103200.56999999998,103199.48000000021,102798.184,102811.38499999998,102814.751,103214.821,,4,having
screen,html.Screen,2_1_0_1_5,2021-04-26T09:32:28.040Z,,,,,,,,,,,,,,,,,53,,,,,,,,,,,,,,573.574000000488,,response,,,,99,,,,,,,Space,keypress(Space),,,,,,,,---- -- ----- -- ------ a ------- --- ----------<br>------------- ------ ------ ---- ---- ------- ----- -- ----<br>-------- ------- -- ---------- --- - --- ----- ----- ----<br>---- --- --- ----- --- ---- ---- ------- ----- ---- -------<br>--- --- -- ----- -- --- ---- -- --- ---- -- ------ ------<br>--- ----- -- ----,103789.8750000004,103788.39500000048,103198.17,103200.88000000032,103214.821,103814.737,,5,a
screen,html.Screen,2_1_0_1_6,2021-04-26T09:32:28.478Z,,,,,,,,,,,,,,,,,53,,,,,,,,,,,,,,412.5880000007455,,response,,,,99,,,,,,,Space,keypress(Space),,,,,,,,---- -- ----- -- ------ - lasting --- ----------<br>------------- ------ ------ ---- ---- ------- ----- -- ----<br>-------- ------- -- ---------- --- - --- ----- ----- ----<br>---- --- --- ----- --- ---- ---- ------- ----- ---- -------<br>--- --- -- ----- -- --- ---- -- --- ---- -- ------ ------<br>--- ----- -- ----,104228.38500000034,104227.32500000074,103798.092,103790.1950000005,103814.737,104248.077,,6,lasting
screen,html.Screen,2_1_0_1_7,2021-04-26T09:32:28.877Z,,,,,,,,,,,,,,,,,53,,,,,,,,,,,,,,377.653000000646,,response,,,,99,,,,,,,Space,keypress(Space),,,,,,,,---- -- ----- -- ------ - ------- and ----------<br>------------- ------ ------ ---- ---- ------- ----- -- ----<br>-------- ------- -- ---------- --- - --- ----- ----- ----<br>---- --- --- ----- --- ---- ---- ------- ----- ---- -------<br>--- --- -- ----- -- --- ---- -- --- ---- -- ------ ------<br>--- ----- -- ----,104626.75500000024,104625.73000000065,104231.292,104228.6950000007,104248.077,104631.289,,7,and
screen,html.Screen,2_1_0_1_8,2021-04-26T09:32:29.331Z,,,,,,,,,,,,,,,,,53,,,,,,,,,,,,,,448.61100000063016,,response,,,,99,,,,,,,Space,keypress(Space),,,,,,,,---- -- ----- -- ------ - ------- --- fulfilling<br>------------- ------ ------ ---- ---- ------- ----- -- ----<br>-------- ------- -- ---------- --- - --- ----- ----- ----<br>---- --- --- ----- --- ---- ---- ------- ----- ---- -------<br>--- --- -- ----- -- --- ---- -- --- ---- -- ------ ------<br>--- ----- -- ----,105080.98000000064,105079.90000000063,104614.604,104627.07000000046,104631.289,105097.927,,8,fulfilling
screen,html.Screen,2_1_0_1_9,2021-04-26T09:32:30.238Z,,,,,,,,,,,,,,,,,53,,,,,,,,,,,,,,889.0830000007409,,response,,,,99,,,,,,,Space,keypress(Space),,,,,,,,"---- -- ----- -- ------ - ------- --- ----------<br>relationship, ------ ------ ---- ---- ------- ----- -- ----<br>-------- ------- -- ---------- --- - --- ----- ----- ----<br>---- --- --- ----- --- ---- ---- ------- ----- ---- -------<br>--- --- -- ----- -- --- ---- -- --- ---- -- ------ ------<br>--- ----- -- ----",105988.06000000058,105987.01000000074,105081.188,105081.40000000002,105097.927,105997.826,,9,"relationship,"
screen,html.Screen,2_1_0_1_10,2021-04-26T09:32:30.718Z,,,,,,,,,,,,,,,,,53,,,,,,,,,,,,,,469.464000000502,,response,,,,99,,,,,,,Space,keypress(Space),,,,,,,,---- -- ----- -- ------ - ------- --- ----------<br>------------- common ------ ---- ---- ------- ----- -- ----<br>-------- ------- -- ---------- --- - --- ----- ----- ----<br>---- --- --- ----- --- ---- ---- ------- ----- ---- -------<br>--- --- -- ----- -- --- ---- -- --- ---- -- ------ ------<br>--- ----- -- ----,106468.3700000005,106467.2900000005,105981.29,105988.5600000007,105997.826,106481.258,,10,common
screen,html.Screen,2_1_0_1_11,2021-04-26T09:32:31.085Z,,,,,,,,,,,,,,,,,53,,,,,,,,,,,,,,353.2370000000519,,response,,,,99,,,,,,,Space,keypress(Space),,,,,,,,---- -- ----- -- ------ - ------- --- ----------<br>------------- ------ wisdom ---- ---- ------- ----- -- ----<br>-------- ------- -- ---------- --- - --- ----- ----- ----<br>---- --- --- ----- --- ---- ---- ------- ----- ---- -------<br>--- --- -- ----- -- --- ---- -- --- ---- -- ------ ------<br>--- ----- -- ----,106835.61000000009,106834.49500000005,106464.567,106468.67999999995,106481.258,106864.527,,11,wisdom
screen,html.Screen,2_1_0_1_12,2021-04-26T09:32:31.444Z,,,,,,,,,,,,,,,,,53,,,,,,,,,,,,,,328.0980000005802,,response,,,,99,,,,,,,Space,keypress(Space),,,,,,,,---- -- ----- -- ------ - ------- --- ----------<br>------------- ------ ------ says ---- ------- ----- -- ----<br>-------- ------- -- ---------- --- - --- ----- ----- ----<br>---- --- --- ----- --- ---- ---- ------- ----- ---- -------<br>--- --- -- ----- -- --- ---- -- --- ---- -- ------ ------<br>--- ----- -- ----,107193.92000000062,107192.62500000058,106847.823,106835.92000000045,106864.527,107197.758,,12,says
screen,html.Screen,2_1_0_1_13,2021-04-26T09:32:31.756Z,,,,,,,,,,,,,,,,,53,,,,,,,,,,,,,,307.6420000000071,,response,,,,99,,,,,,,Space,keypress(Space),,,,,,,,---- -- ----- -- ------ - ------- --- ----------<br>------------- ------ ------ ---- that ------- ----- -- ----<br>-------- ------- -- ---------- --- - --- ----- ----- ----<br>---- --- --- ----- --- ---- ---- ------- ----- ---- -------<br>--- --- -- ----- -- --- ---- -- --- ---- -- ------ ------<br>--- ----- -- ----,107506.5199999999,107505.40000000001,107181.099,107194.305,107197.758,107531.153,,13,that
screen,html.Screen,2_1_0_1_14,2021-04-26T09:32:32.115Z,,,,,,,,,,,,,,,,,53,,,,,,,,,,,,,,332.46700000007695,,response,,,,99,,,,,,,Space,keypress(Space),,,,,,,,---- -- ----- -- ------ - ------- --- ----------<br>------------- ------ ------ ---- ---- feeling ----- -- ----<br>-------- ------- -- ---------- --- - --- ----- ----- ----<br>---- --- --- ----- --- ---- ---- ------- ----- ---- -------<br>--- --- -- ----- -- --- ---- -- --- ---- -- ------ ------<br>--- ----- -- ----,107865.08500000037,107863.62000000008,107514.482,107506.84500000079,107531.153,107881.114,,14,feeling
screen,html.Screen,2_1_0_1_15,2021-04-26T09:32:32.454Z,,,,,,,,,,,,,,,,,53,,,,,,,,,,,,,,321.5809999999474,,response,,,,99,,,,,,,Space,keypress(Space),,,,,,,,---- -- ----- -- ------ - ------- --- ----------<br>------------- ------ ------ ---- ---- ------- close -- ----<br>-------- ------- -- ---------- --- - --- ----- ----- ----<br>---- --- --- ----- --- ---- ---- ------- ----- ---- -------<br>--- --- -- ----- -- --- ---- -- --- ---- -- ------ ------<br>--- ----- -- ----,108203.75500000046,108202.69499999995,107864.363,107865.4550000001,107881.114,108214.337,,15,close
screen,html.Screen,2_1_0_1_16,2021-04-26T09:32:32.746Z,,,,,,,,,,,,,,,,,53,,,,,,,,,,,,,,280.9180000007327,,response,,,,99,,,,,,,Space,keypress(Space),,,,,,,,---- -- ----- -- ------ - ------- --- ----------<br>------------- ------ ------ ---- ---- ------- ----- to ----<br>-------- ------- -- ---------- --- - --- ----- ----- ----<br>---- --- --- ----- --- ---- ---- ------- ----- ---- -------<br>--- --- -- ----- -- --- ---- -- --- ---- -- ------ ------<br>--- ----- -- ----,108496.3600000001,108495.25500000073,108197.698,108204.07500000056,108214.337,108514.488,,16,to
screen,html.Screen,2_1_0_1_17,2021-04-26T09:32:33.123Z,,,,,,,,,,,,,,,,,53,,,,,,,,,,,,,,358.13200000009965,,response,,,,99,,,,,,,Space,keypress(Space),,,,,,,,---- -- ----- -- ------ - ------- --- ----------<br>------------- ------ ------ ---- ---- ------- ----- -- your<br>-------- ------- -- ---------- --- - --- ----- ----- ----<br>---- --- --- ----- --- ---- ---- ------- ----- ---- -------<br>--- --- -- ----- -- --- ---- -- --- ---- -- ------ ------<br>--- ----- -- ----,108873.63000000005,108872.6200000001,108497.674,108496.67500000032,108514.488,108897.749,,17,your
screen,html.Screen,2_1_0_1_18,2021-04-26T09:32:33.543Z,,,,,,,,,,,,,,,,,53,,,,,,,,,,,,,,394.5610000007291,,response,,,,99,,,,,,,Space,keypress(Space),,,,,,,,---- -- ----- -- ------ - ------- --- ----------<br>------------- ------ ------ ---- ---- ------- ----- -- ----<br>romantic ------- -- ---------- --- - --- ----- ----- ----<br>---- --- --- ----- --- ---- ---- ------- ----- ---- -------<br>--- --- -- ----- -- --- ---- -- --- ---- -- ------ ------<br>--- ----- -- ----,109293.36000000057,109292.31000000073,108881.073,108873.9599999999,108897.749,109297.614,,18,romantic
screen,html.Screen,2_1_0_1_19,2021-04-26T09:32:34.052Z,,,,,,,,,,,,,,,,,53,,,,,,,,,,,,,,503.2260000007809,,response,,,,99,,,,,,,Space,keypress(Space),,,,,,,,---- -- ----- -- ------ - ------- --- ----------<br>------------- ------ ------ ---- ---- ------- ----- -- ----<br>-------- partner -- ---------- --- - --- ----- ----- ----<br>---- --- --- ----- --- ---- ---- ------- ----- ---- -------<br>--- --- -- ----- -- --- ---- -- --- ---- -- ------ ------<br>--- ----- -- ----,109801.89000000064,109800.84000000078,109281.011,109293.6749999999,109297.614,109814.288,,19,partner
screen,html.Screen,2_1_0_1_20,2021-04-26T09:32:34.501Z,,,,,,,,,,,,,,,,,53,,,,,,,,,,,,,,435.45200000019395,,response,,,,99,,,,,,,Space,keypress(Space),,,,,,,,---- -- ----- -- ------ - ------- --- ----------<br>------------- ------ ------ ---- ---- ------- ----- -- ----<br>-------- ------- is ---------- --- - --- ----- ----- ----<br>---- --- --- ----- --- ---- ---- ------- ----- ---- -------<br>--- --- -- ----- -- --- ---- -- --- ---- -- ------ ------<br>--- ----- -- ----,110250.85000000036,110249.7400000002,109797.657,109802.20000000008,109814.288,110264.211,,20,is
screen,html.Screen,2_1_0_1_21,2021-04-26T09:32:34.919Z,,,,,,,,,,,,,,,,,53,,,,,,,,,,,,,,404.184000000605,,response,,,,99,,,,,,,Space,keypress(Space),,,,,,,,---- -- ----- -- ------ - ------- --- ----------<br>------------- ------ ------ ---- ---- ------- ----- -- ----<br>-------- ------- -- paramount. --- - --- ----- ----- ----<br>---- --- --- ----- --- ---- ---- ------- ----- ---- -------<br>--- --- -- ----- -- --- ---- -- --- ---- -- ------ ------<br>--- ----- -- ----,110669.44500000044,110668.3950000006,110247.593,110251.15499999993,110264.211,110680.926,,21,paramount.
screen,html.Screen,2_1_0_1_22,2021-04-26T09:32:35.520Z,,,,,,,,,,,,,,,,,53,,,,,,,,,,,,,,587.7140000002255,,response,,,,99,,,,,,,Space,keypress(Space),,,,,,,,---- -- ----- -- ------ - ------- --- ----------<br>------------- ------ ------ ---- ---- ------- ----- -- ----<br>-------- ------- -- ---------- But - --- ----- ----- ----<br>---- --- --- ----- --- ---- ---- ------- ----- ---- -------<br>--- --- -- ----- -- --- ---- -- --- ---- -- ------ ------<br>--- ----- -- ----,111269.75500000027,111268.64000000023,110664.151,110669.75000000003,110680.926,111280.897,,22,But
screen,html.Screen,2_1_0_1_23,2021-04-26T09:32:35.863Z,,,,,,,,,,,,,,,,,53,,,,,,,,,,,,,,330.77800000010757,,response,,,,99,,,,,,,Space,keypress(Space),,,,,,,,---- -- ----- -- ------ - ------- --- ----------<br>------------- ------ ------ ---- ---- ------- ----- -- ----<br>-------- ------- -- ---------- --- a --- ----- ----- ----<br>---- --- --- ----- --- ---- ---- ------- ----- ---- -------<br>--- --- -- ----- -- --- ---- -- --- ---- -- ------ ------<br>--- ----- -- ----,111612.75000000023,111611.6750000001,111264.206,111270.06000000074,111280.897,111632.185,,23,a
screen,html.Screen,2_1_0_1_24,2021-04-26T09:32:36.240Z,,,,,,,,,,,,,,,,,53,,,,,,,,,,,,,,356.93500000018685,,response,,,,99,,,,,,,Space,keypress(Space),,,,,,,,---- -- ----- -- ------ - ------- --- ----------<br>------------- ------ ------ ---- ---- ------- ----- -- ----<br>-------- ------- -- ---------- --- - new ----- ----- ----<br>---- --- --- ----- --- ---- ---- ------- ----- ---- -------<br>--- --- -- ----- -- --- ---- -- --- ---- -- ------ ------<br>--- ----- -- ----,111990.1550000004,111989.12000000018,111597.45,111613.07000000033,111632.185,111997.387,,24,new
screen,html.Screen,2_1_0_1_25,2021-04-26T09:32:36.639Z,,,,,,,,,,,,,,,,,53,,,,,,,,,,,,,,390.963000000178,,response,,,,99,,,,,,,Space,keypress(Space),,,,,,,,---- -- ----- -- ------ - ------- --- ----------<br>------------- ------ ------ ---- ---- ------- ----- -- ----<br>-------- ------- -- ---------- --- - --- study ----- ----<br>---- --- --- ----- --- ---- ---- ------- ----- ---- -------<br>--- --- -- ----- -- --- ---- -- --- ---- -- ------ ------<br>--- ----- -- ----,112389.51500000076,112388.35000000018,111980.813,111990.47000000064,111997.387,112397.337,,25,study
screen,html.Screen,2_1_0_1_26,2021-04-26T09:32:37.007Z,,,,,,,,,,,,,,,,,53,,,,,,,,,,,,,,358.69300000046496,,response,,,,99,,,,,,,Space,keypress(Space),,,,,,,,---- -- ----- -- ------ - ------- --- ----------<br>------------- ------ ------ ---- ---- ------- ----- -- ----<br>-------- ------- -- ---------- --- - --- ----- finds ----<br>---- --- --- ----- --- ---- ---- ------- ----- ---- -------<br>--- --- -- ----- -- --- ---- -- --- ---- -- ------ ------<br>--- ----- -- ----,112757.08000000031,112756.03000000046,112380.778,112389.8250000002,112397.337,112763.99,,26,finds
screen,html.Screen,2_1_0_1_27,2021-04-26T09:32:37.370Z,,,,,,,,,,,,,,,,,53,,,,,,,,,,,,,,354.7950000005658,,response,,,,99,,,,,,,Space,keypress(Space),,,,,,,,---- -- ----- -- ------ - ------- --- ----------<br>------------- ------ ------ ---- ---- ------- ----- -- ----<br>-------- ------- -- ---------- --- - --- ----- ----- that<br>---- --- --- ----- --- ---- ---- ------- ----- ---- -------<br>--- --- -- ----- -- --- ---- -- --- ---- -- ------ ------<br>--- ----- -- ----,113119.87000000045,113118.78500000057,112747.419,112757.39000000067,112763.99,113130.742,,27,that
screen,html.Screen,2_1_0_1_28,2021-04-26T09:32:37.698Z,,,,,,,,,,,,,,,,,53,,,,,,,,,,,,,,316.2730000006559,,response,,,,99,,,,,,,Space,keypress(Space),,,,,,,,---- -- ----- -- ------ - ------- --- ----------<br>------------- ------ ------ ---- ---- ------- ----- -- ----<br>-------- ------- -- ---------- --- - --- ----- ----- ----<br>it's --- --- ----- --- ---- ---- ------- ----- ---- -------<br>--- --- -- ----- -- --- ---- -- --- ---- -- ------ ------<br>--- ----- -- ----,113448.19499999995,113447.01500000065,113114.032,113120.18000000081,113130.742,113464.039,,28,it's
screen,html.Screen,2_1_0_1_29,2021-04-26T09:32:38.046Z,,,,,,,,,,,,,,,,,53,,,,,,,,,,,,,,330.62100000046485,,response,,,,99,,,,,,,Space,keypress(Space),,,,,,,,---- -- ----- -- ------ - ------- --- ----------<br>------------- ------ ------ ---- ---- ------- ----- -- ----<br>-------- ------- -- ---------- --- - --- ----- ----- ----<br>---- not --- ----- --- ---- ---- ------- ----- ---- -------<br>--- --- -- ----- -- --- ---- -- --- ---- -- ------ ------<br>--- ----- -- ----,113795.78500000025,113794.66000000047,113447.372,113448.53000000058,113464.039,113815.684,,29,not
screen,html.Screen,2_1_0_1_30,2021-04-26T09:32:38.398Z,,,,,,,,,,,,,,,,,53,,,,,,,,,,,,,,331.89600000075006,,response,,,,99,,,,,,,Space,keypress(Space),,,,,,,,---- -- ----- -- ------ - ------- --- ----------<br>------------- ------ ------ ---- ---- ------- ----- -- ----<br>-------- ------- -- ---------- --- - --- ----- ----- ----<br>---- --- how ----- --- ---- ---- ------- ----- ---- -------<br>--- --- -- ----- -- --- ---- -- --- ---- -- ------ ------<br>--- ----- -- ----,114148.725,114147.58000000074,113780.635,113796.09500000061,113815.684,114163.992,,30,how
screen,html.Screen,2_1_0_1_31,2021-04-26T09:32:38.726Z,,,,,,,,,,,,,,,,,53,,,,,,,,,,,,,,311.593000000139,,response,,,,99,,,,,,,Space,keypress(Space),,,,,,,,---- -- ----- -- ------ - ------- --- ----------<br>------------- ------ ------ ---- ---- ------- ----- -- ----<br>-------- ------- -- ---------- --- - --- ----- ----- ----<br>---- --- --- close --- ---- ---- ------- ----- ---- -------<br>--- --- -- ----- -- --- ---- -- --- ---- -- ------ ------<br>--- ----- -- ----,114476.62500000023,114475.58500000014,114147.273,114149.0300000005,114163.992,114480.534,,31,close
screen,html.Screen,2_1_0_1_32,2021-04-26T09:32:39.073Z,,,,,,,,,,,,,,,,,53,,,,,,,,,,,,,,341.95100000059756,,response,,,,99,,,,,,,Space,keypress(Space),,,,,,,,---- -- ----- -- ------ - ------- --- ----------<br>------------- ------ ------ ---- ---- ------- ----- -- ----<br>-------- ------- -- ---------- --- - --- ----- ----- ----<br>---- --- --- ----- you ---- ---- ------- ----- ---- -------<br>--- --- -- ----- -- --- ---- -- --- ---- -- ------ ------<br>--- ----- -- ----,114823.61000000036,114822.4850000006,114463.978,114476.9350000006,114480.534,114830.533,,32,you
screen,html.Screen,2_1_0_1_33,2021-04-26T09:32:39.417Z,,,,,,,,,,,,,,,,,53,,,,,,,,,,,,,,334.9670000000624,,response,,,,99,,,,,,,Space,keypress(Space),,,,,,,,---- -- ----- -- ------ - ------- --- ----------<br>------------- ------ ------ ---- ---- ------- ----- -- ----<br>-------- ------- -- ---------- --- - --- ----- ----- ----<br>---- --- --- ----- --- feel ---- ------- ----- ---- -------<br>--- --- -- ----- -- --- ---- -- --- ---- -- ------ ------<br>--- ----- -- ----,115166.8950000003,115165.50000000006,114813.925,114823.92000000073,114830.533,115180.448,,33,feel
screen,html.Screen,2_1_0_1_34,2021-04-26T09:32:39.786Z,,,,,,,,,,,,,,,,,53,,,,,,,,,,,,,,354.10700000017823,,response,,,,99,,,,,,,Space,keypress(Space),,,,,,,,---- -- ----- -- ------ - ------- --- ----------<br>------------- ------ ------ ---- ---- ------- ----- -- ----<br>-------- ------- -- ---------- --- - --- ----- ----- ----<br>---- --- --- ----- --- ---- that ------- ----- ---- -------<br>--- --- -- ----- -- --- ---- -- --- ---- -- ------ ------<br>--- ----- -- ----,115536.23500000048,115534.55500000018,115163.81,115171.65999999997,115180.448,115563.748,,34,that
screen,html.Screen,2_1_0_1_35,2021-04-26T09:32:40.163Z,,,,,,,,,,,,,,,,,53,,,,,,,,,,,,,,348.48199999990175,,response,,,,99,,,,,,,Space,keypress(Space),,,,,,,,---- -- ----- -- ------ - ------- --- ----------<br>------------- ------ ------ ---- ---- ------- ----- -- ----<br>-------- ------- -- ---------- --- - --- ----- ----- ----<br>---- --- --- ----- --- ---- ---- matters ----- ---- -------<br>--- --- -- ----- -- --- ---- -- --- ---- -- ------ ------<br>--- ----- -- ----,115913.66000000016,115912.22999999991,115547.085,115536.53000000032,115563.748,115930.406,,35,matters
screen,html.Screen,2_1_0_1_36,2021-04-26T09:32:40.481Z,,,,,,,,,,,,,,,,,53,,,,,,,,,,,,,,299.3590000000404,,response,,,,99,,,,,,,Space,keypress(Space),,,,,,,,"---- -- ----- -- ------ - ------- --- ----------<br>------------- ------ ------ ---- ---- ------- ----- -- ----<br>-------- ------- -- ---------- --- - --- ----- ----- ----<br>---- --- --- ----- --- ---- ---- ------- most, ---- -------<br>--- --- -- ----- -- --- ---- -- --- ---- -- ------ ------<br>--- ----- -- ----",116231.58000000057,116229.76500000004,115913.812,115916.49000000051,115930.406,116247.127,,36,"most,"
screen,html.Screen,2_1_0_1_37,2021-04-26T09:32:40.805Z,,,,,,,,,,,,,,,,,53,,,,,,,,,,,,,,306.5080000002199,,response,,,,99,,,,,,,Space,keypress(Space),,,,,,,,---- -- ----- -- ------ - ------- --- ----------<br>------------- ------ ------ ---- ---- ------- ----- -- ----<br>-------- ------- -- ---------- --- - --- ----- ----- ----<br>---- --- --- ----- --- ---- ---- ------- ----- it's -------<br>--- --- -- ----- -- --- ---- -- --- ---- -- ------ ------<br>--- ----- -- ----,116554.87500000073,116553.63500000021,116230.389,116231.88000000027,116247.127,116563.751,,37,it's
screen,html.Screen,2_1_0_1_38,2021-04-26T09:32:41.203Z,,,,,,,,,,,,,,,,,53,,,,,,,,,,,,,,388.3240000001533,,response,,,,99,,,,,,,Space,keypress(Space),,,,,,,,---- -- ----- -- ------ - ------- --- ----------<br>------------- ------ ------ ---- ---- ------- ----- -- ----<br>-------- ------- -- ---------- --- - --- ----- ----- ----<br>---- --- --- ----- --- ---- ---- ------- ----- ---- whether<br>--- --- -- ----- -- --- ---- -- --- ---- -- ------ ------<br>--- ----- -- ----,116953.17000000068,116952.07500000016,116547.132,116555.36000000029,116563.751,116963.778,,38,whether
screen,html.Screen,2_1_0_1_39,2021-04-26T09:32:41.591Z,,,,,,,,,,,,,,,,,53,,,,,,,,,,,,,,376.6820000003354,,response,,,,99,,,,,,,Space,keypress(Space),,,,,,,,---- -- ----- -- ------ - ------- --- ----------<br>------------- ------ ------ ---- ---- ------- ----- -- ----<br>-------- ------- -- ---------- --- - --- ----- ----- ----<br>---- --- --- ----- --- ---- ---- ------- ----- ---- -------<br>you --- -- ----- -- --- ---- -- --- ---- -- ------ ------<br>--- ----- -- ----,117341.50500000032,117340.46000000034,116947.101,116953.47000000038,116963.778,117346.948,,39,you
screen,html.Screen,2_1_0_1_40,2021-04-26T09:32:42.039Z,,,,,,,,,,,,,,,,,53,,,,,,,,,,,,,,441.4870000003866,,response,,,,99,,,,,,,Space,keypress(Space),,,,,,,,---- -- ----- -- ------ - ------- --- ----------<br>------------- ------ ------ ---- ---- ------- ----- -- ----<br>-------- ------- -- ---------- --- - --- ----- ----- ----<br>---- --- --- ----- --- ---- ---- ------- ----- ---- -------<br>--- are -- ----- -- --- ---- -- --- ---- -- ------ ------<br>--- ----- -- ----,117789.45999999996,117788.43500000039,117330.428,117341.80500000002,117346.948,117813.621,,40,are
screen,html.Screen,2_1_0_1_41,2021-04-26T09:32:42.433Z,,,,,,,,,,,,,,,,,53,,,,,,,,,,,,,,368.23400000072434,,response,,,,99,,,,,,,Space,keypress(Space),,,,,,,,---- -- ----- -- ------ - ------- --- ----------<br>------------- ------ ------ ---- ---- ------- ----- -- ----<br>-------- ------- -- ---------- --- - --- ----- ----- ----<br>---- --- --- ----- --- ---- ---- ------- ----- ---- -------<br>--- --- as ----- -- --- ---- -- --- ---- -- ------ ------<br>--- ----- -- ----,118183.06000000029,118181.85500000072,117796.966,117789.74500000004,117813.621,118197.02,,41,as
screen,html.Screen,2_1_0_1_42,2021-04-26T09:32:42.914Z,,,,,,,,,,,,,,,,,53,,,,,,,,,,,,,,466.12500000043656,,response,,,,99,,,,,,,Space,keypress(Space),,,,,,,,---- -- ----- -- ------ - ------- --- ----------<br>------------- ------ ------ ---- ---- ------- ----- -- ----<br>-------- ------- -- ---------- --- - --- ----- ----- ----<br>---- --- --- ----- --- ---- ---- ------- ----- ---- -------<br>--- --- -- close -- --- ---- -- --- ---- -- ------ ------<br>--- ----- -- ----,118664.30000000037,118663.14500000044,118180.335,118183.35000000024,118197.02,118680.307,,42,close
screen,html.Screen,2_1_0_1_43,2021-04-26T09:32:43.332Z,,,,,,,,,,,,,,,,,53,,,,,,,,,,,,,,400.5480000001553,,response,,,,99,,,,,,,Space,keypress(Space),,,,,,,,---- -- ----- -- ------ - ------- --- ----------<br>------------- ------ ------ ---- ---- ------- ----- -- ----<br>-------- ------- -- ---------- --- - --- ----- ----- ----<br>---- --- --- ----- --- ---- ---- ------- ----- ---- -------<br>--- --- -- ----- as --- ---- -- --- ---- -- ------ ------<br>--- ----- -- ----,119081.89000000039,119080.85500000016,118663.632,118664.60000000006,118680.307,119096.956,,43,as
screen,html.Screen,2_1_0_1_44,2021-04-26T09:32:43.750Z,,,,,,,,,,,,,,,,,53,,,,,,,,,,,,,,402.4940000002389,,response,,,,99,,,,,,,Space,keypress(Space),,,,,,,,---- -- ----- -- ------ - ------- --- ----------<br>------------- ------ ------ ---- ---- ------- ----- -- ----<br>-------- ------- -- ---------- --- - --- ----- ----- ----<br>---- --- --- ----- --- ---- ---- ------- ----- ---- -------<br>--- --- -- ----- -- you ---- -- --- ---- -- ------ ------<br>--- ----- -- ----,119500.48500000048,119499.45000000024,119080.255,119082.18000000034,119096.956,119513.468,,44,you
screen,html.Screen,2_1_0_1_45,2021-04-26T09:32:44.180Z,,,,,,,,,,,,,,,,,53,,,,,,,,,,,,,,414.8519999999844,,response,,,,99,,,,,,,Space,keypress(Space),,,,,,,,---- -- ----- -- ------ - ------- --- ----------<br>------------- ------ ------ ---- ---- ------- ----- -- ----<br>-------- ------- -- ---------- --- - --- ----- ----- ----<br>---- --- --- ----- --- ---- ---- ------- ----- ---- -------<br>--- --- -- ----- -- --- want -- --- ---- -- ------ ------<br>--- ----- -- ----,119929.77000000064,119928.31999999998,119496.859,119503.85000000006,119513.468,119946.876,,45,want
screen,html.Screen,2_1_0_1_46,2021-04-26T09:32:44.598Z,,,,,,,,,,,,,,,,,53,,,,,,,,,,,,,,400.21900000008463,,response,,,,99,,,,,,,Space,keypress(Space),,,,,,,,---- -- ----- -- ------ - ------- --- ----------<br>------------- ------ ------ ---- ---- ------- ----- -- ----<br>-------- ------- -- ---------- --- - --- ----- ----- ----<br>---- --- --- ----- --- ---- ---- ------- ----- ---- -------<br>--- --- -- ----- -- --- ---- to --- ---- -- ------ ------<br>--- ----- -- ----,120348.12500000044,120347.09500000009,119930.101,119930.04999999993,119946.876,120363.471,,46,to
screen,html.Screen,2_1_0_1_47,2021-04-26T09:32:44.981Z,,,,,,,,,,,,,,,,,53,,,,,,,,,,,,,,367.0440000001836,,response,,,,99,,,,,,,Space,keypress(Space),,,,,,,,"---- -- ----- -- ------ - ------- --- ----------<br>------------- ------ ------ ---- ---- ------- ----- -- ----<br>-------- ------- -- ---------- --- - --- ----- ----- ----<br>---- --- --- ----- --- ---- ---- ------- ----- ---- -------<br>--- --- -- ----- -- --- ---- -- be, ---- -- ------ ------<br>--- ----- -- ----",120731.57500000071,120730.51500000019,120346.76,120348.41000000051,120363.471,120746.817,,47,"be,"
screen,html.Screen,2_1_0_1_48,2021-04-26T09:32:45.697Z,,,,,,,,,,,,,,,,,53,,,,,,,,,,,,,,700.0630000004167,,response,,,,99,,,,,,,Space,keypress(Space),,,,,,,,---- -- ----- -- ------ - ------- --- ----------<br>------------- ------ ------ ---- ---- ------- ----- -- ----<br>-------- ------- -- ---------- --- - --- ----- ----- ----<br>---- --- --- ----- --- ---- ---- ------- ----- ---- -------<br>--- --- -- ----- -- --- ---- -- --- even -- ------ ------<br>--- ----- -- ----,121447.92000000052,121446.88000000041,120730.11,120731.86500000066,120746.817,121463.413,,48,even
screen,html.Screen,2_1_0_1_49,2021-04-26T09:32:46.054Z,,,,,,,,,,,,,,,,,53,,,,,,,,,,,,,,340.6420000005164,,response,,,,99,,,,,,,Space,keypress(Space),,,,,,,,---- -- ----- -- ------ - ------- --- ----------<br>------------- ------ ------ ---- ---- ------- ----- -- ----<br>-------- ------- -- ---------- --- - --- ----- ----- ----<br>---- --- --- ----- --- ---- ---- ------- ----- ---- -------<br>--- --- -- ----- -- --- ---- -- --- ---- if ------ ------<br>--- ----- -- ----,121805.08000000009,121804.05500000052,121446.731,121448.19499999995,121463.413,121813.342,,49,if
screen,html.Screen,2_1_0_1_50,2021-04-26T09:32:46.458Z,,,,,,,,,,,,,,,,,53,,,,,,,,,,,,,,394.24799999997776,,response,,,,99,,,,,,,Space,keypress(Space),,,,,,,,---- -- ----- -- ------ - ------- --- ----------<br>------------- ------ ------ ---- ---- ------- ----- -- ----<br>-------- ------- -- ---------- --- - --- ----- ----- ----<br>---- --- --- ----- --- ---- ---- ------- ----- ---- -------<br>--- --- -- ----- -- --- ---- -- --- ---- -- that's ------<br>--- ----- -- ----,122208.61500000046,122207.58999999998,121796.684,121805.47999999998,121813.342,122213.257,,50,that's
screen,html.Screen,2_1_0_1_51,2021-04-26T09:32:46.898Z,,,,,,,,,,,,,,,,,53,,,,,,,,,,,,,,434.1980000002659,,response,,,,99,,,,,,,Space,keypress(Space),,,,,,,,---- -- ----- -- ------ - ------- --- ----------<br>------------- ------ ------ ---- ---- ------- ----- -- ----<br>-------- ------- -- ---------- --- - --- ----- ----- ----<br>---- --- --- ----- --- ---- ---- ------- ----- ---- -------<br>--- --- -- ----- -- --- ---- -- --- ---- -- ------ really<br>--- ----- -- ----,122648.49500000037,122647.45500000026,122196.67,122208.9050000004,122213.257,122663.336,,51,really
screen,html.Screen,2_1_0_1_52,2021-04-26T09:32:47.266Z,,,,,,,,,,,,,,,,,53,,,,,,,,,,,,,,352.3240000000369,,response,,,,99,,,,,,,Space,keypress(Space),,,,,,,,---- -- ----- -- ------ - ------- --- ----------<br>------------- ------ ------ ---- ---- ------- ----- -- ----<br>-------- ------- -- ---------- --- - --- ----- ----- ----<br>---- --- --- ----- --- ---- ---- ------- ----- ---- -------<br>--- --- -- ----- -- --- ---- -- --- ---- -- ------ ------<br>not ----- -- ----,123016.66999999998,123015.66000000003,122646.639,122648.77000000069,122663.336,123029.973,,52,not
screen,html.Screen,2_1_0_1_53,2021-04-26T09:32:47.644Z,,,,,,,,,,,,,,,,,53,,,,,,,,,,,,,,364.04700000063167,,response,,,,99,,,,,,,Space,keypress(Space),,,,,,,,---- -- ----- -- ------ - ------- --- ----------<br>------------- ------ ------ ---- ---- ------- ----- -- ----<br>-------- ------- -- ---------- --- - --- ----- ----- ----<br>---- --- --- ----- --- ---- ---- ------- ----- ---- -------<br>--- --- -- ----- -- --- ---- -- --- ---- -- ------ ------<br>--- close -- ----,123395.06000000074,123394.02000000063,123013.191,123016.9450000003,123029.973,123413.581,,53,close
screen,html.Screen,2_1_0_1_54,2021-04-26T09:32:48.032Z,,,,,,,,,,,,,,,,,53,,,,,,,,,,,,,,368.30400000032387,,response,,,,99,,,,,,,Space,keypress(Space),,,,,,,,---- -- ----- -- ------ - ------- --- ----------<br>------------- ------ ------ ---- ---- ------- ----- -- ----<br>-------- ------- -- ---------- --- - --- ----- ----- ----<br>---- --- --- ----- --- ---- ---- ------- ----- ---- -------<br>--- --- -- ----- -- --- ---- -- --- ---- -- ------ ------<br>--- ----- at ----,123782.92500000042,123781.88500000033,123379.887,123395.46000000063,123413.581,123796.604,,54,at
screen,html.Screen,2_1_0_1_55,2021-04-26T09:32:49.485Z,,,,,,,,,,,,,,,,,53,,,,,,,,,,,,,,1437.7960000002786,,response,,,,99,,,,,,,Space,keypress(Space),,,,,,,,---- -- ----- -- ------ - ------- --- ----------<br>------------- ------ ------ ---- ---- ------- ----- -- ----<br>-------- ------- -- ---------- --- - --- ----- ----- ----<br>---- --- --- ----- --- ---- ---- ------- ----- ---- -------<br>--- --- -- ----- -- --- ---- -- --- ---- -- ------ ------<br>--- ----- -- all.,125235.41999999998,125234.40000000029,123779.874,123783.20500000063,123796.604,125246.363,,55,all.
Item 99,flow.Loop,2_1_0_1,2021-04-26T09:32:49.485Z,,,,,,,,,,,,,,,,,,,,,,,,,,,,,,,24786.218000000285,,completion,,,,,A,,,,,,,,,,,silence,,,,,125236.1150000006,125234.40000000029,100348.407,100351.56499999994,100448.182,125246.363,,,
Question 1,html.Screen,2_1_0_2,2021-04-26T09:32:55.342Z,,,,,,,,,,,,,,,,,,,,,,,,,,,,true,FALSE,,5846.0919999999605,,response,,,,99,A,,,,,,FALSE,click #choice-2,,,,silence,,,,,131093.13999999996,131092.45499999996,125229.652,125236.39000000003,125246.363,131095.825,,,
Question 2,html.Screen,2_1_0_3,2021-04-26T09:33:03.638Z,,,,,,,,,,,,,,,,,,,,,,,,,,,,true,TRUE,,8292.7200000007,,response,,,,99,A,,,,,,TRUE,click #choice-1,,,,silence,,,,,139389.07999999993,139388.5450000007,131079.303,131093.24999999988,131095.825,139395.19,,,
Item 99,flow.Sequence,2_1_0,2021-04-26T09:33:03.638Z,,,,,,,,,,,,,,,,,,,,,,,,,,,,,,,49022.824000000706,,completion,,,,,,,,,,,,,,,,,,,,,139389.23000000068,139388.5450000007,90349.162,90350.25000000041,90365.721,139395.19,,,
Holding screen,html.Screen,2_1_1_0,2021-04-26T09:33:13.628Z,,,,,,,,,,,,,,,,,,,,,,,,,,,,,,,9999.323000000004,,timeout,,,,,,,,,,,,,,,,,,,,,149378.9000000006,149377.89,139378.695,139389.3250000001,139395.19,149394.513,,,
screen,html.Screen,2_1_1_1_0,2021-04-26T09:33:14.100Z,,,,,,,,,,,,,,,,,54,,,,,,,,,,,,,,454.6470000006666,,response,,,,100,,,,,,,Space,keypress(Space),,,,,,,,At --- ---- --- ------ ----- ------- ---- -- --- ------- --<br>------- ---------- ------ -- ----- -- ----- -- ---- ------<br>--- ----- --- --- ------ -------- ----- --- ------ ----- --<br>----- ----- ---------- --- --- ------ ------ ---- -- ------<br>------- --- ------ ----- --- ---- ------- -- ---- --- --<br>------- ------,149850.5950000008,149849.16000000067,149377.89,149379.26500000048,149394.513,149861.146,,0,At
screen,html.Screen,2_1_1_1_1,2021-04-26T09:33:14.396Z,,,,,,,,,,,,,,,,,54,,,,,,,,,,,,,,284.9040000002715,,response,,,,100,,,,,,,Space,keypress(Space),,,,,,,,-- the ---- --- ------ ----- ------- ---- -- --- ------- --<br>------- ---------- ------ -- ----- -- ----- -- ---- ------<br>--- ----- --- --- ------ -------- ----- --- ------ ----- --<br>----- ----- ---------- --- --- ------ ------ ---- -- ------<br>------- --- ------ ----- --- ---- ------- -- ---- --- --<br>------- ------,150147.04500000062,150146.05000000028,149844.524,149850.91499999998,149861.146,150177.882,,1,the
screen,html.Screen,2_1_1_1_2,2021-04-26T09:33:14.709Z,,,,,,,,,,,,,,,,,54,,,,,,,,,,,,,,281.09300000045914,,response,,,,100,,,,,,,Space,keypress(Space),,,,,,,,-- --- time --- ------ ----- ------- ---- -- --- ------- --<br>------- ---------- ------ -- ----- -- ----- -- ---- ------<br>--- ----- --- --- ------ -------- ----- --- ------ ----- --<br>----- ----- ---------- --- --- ------ ------ ---- -- ------<br>------- --- ------ ----- --- ---- ------- -- ---- --- --<br>------- ------,150460.09500000038,150458.97500000047,150161.199,150147.34000000043,150177.882,150494.525,,2,time
screen,html.Screen,2_1_1_1_3,2021-04-26T09:33:15.007Z,,,,,,,,,,,,,,,,,54,,,,,,,,,,,,,,262.0700000007346,,response,,,,100,,,,,,,Space,keypress(Space),,,,,,,,-- --- ---- the ------ ----- ------- ---- -- --- ------- --<br>------- ---------- ------ -- ----- -- ----- -- ---- ------<br>--- ----- --- --- ------ -------- ----- --- ------ ----- --<br>----- ----- ---------- --- --- ------ ------ ---- -- ------<br>------- --- ------ ----- --- ---- ------- -- ---- --- --<br>------- ------,150757.63000000006,150756.59500000073,150478.279,150460.3700000007,150494.525,150761.042,,3,the
screen,html.Screen,2_1_1_1_4,2021-04-26T09:33:15.335Z,,,,,,,,,,,,,,,,,54,,,,,,,,,,,,,,323.45799999995506,,response,,,,100,,,,,,,Space,keypress(Space),,,,,,,,-- --- ---- --- French ----- ------- ---- -- --- ------- --<br>------- ---------- ------ -- ----- -- ----- -- ---- ------<br>--- ----- --- --- ------ -------- ----- --- ------ ----- --<br>----- ----- ---------- --- --- ------ ------ ---- -- ------<br>------- --- ------ ----- --- ---- ------- -- ---- --- --<br>------- ------,151085.54000000004,151084.49999999994,150744.42,150757.91000000027,150761.042,151094.303,,4,French
screen,html.Screen,2_1_1_1_5,2021-04-26T09:33:15.708Z,,,,,,,,,,,,,,,,,54,,,,,,,,,,,,,,363.4220000001951,,response,,,,100,,,,,,,Space,keypress(Space),,,,,,,,-- --- ---- --- ------ crown ------- ---- -- --- ------- --<br>------- ---------- ------ -- ----- -- ----- -- ---- ------<br>--- ----- --- --- ------ -------- ----- --- ------ ----- --<br>----- ----- ---------- --- --- ------ ------ ---- -- ------<br>------- --- ------ ----- --- ---- ------- -- ---- --- --<br>------- ------,151458.82500000062,151457.7250000002,151077.761,151085.9500000006,151094.303,151460.969,,5,crown
screen,html.Screen,2_1_1_1_6,2021-04-26T09:33:16.219Z,,,,,,,,,,,,,,,,,54,,,,,,,,,,,,,,508.21100000003935,,response,,,,100,,,,,,,Space,keypress(Space),,,,,,,,-- --- ---- --- ------ ----- secured ---- -- --- ------- --<br>------- ---------- ------ -- ----- -- ----- -- ---- ------<br>--- ----- --- --- ------ -------- ----- --- ------ ----- --<br>----- ----- ---------- --- --- ------ ------ ---- -- ------<br>------- --- ------ ----- --- ---- ------- -- ---- --- --<br>------- ------,151970.2299999999,151969.18000000005,151444.416,151459.10499999992,151460.969,151977.706,,6,secured
screen,html.Screen,2_1_1_1_7,2021-04-26T09:33:16.556Z,,,,,,,,,,,,,,,,,54,,,,,,,,,,,,,,328.2640000003448,,response,,,,100,,,,,,,Space,keypress(Space),,,,,,,,-- --- ---- --- ------ ----- ------- much -- --- ------- --<br>------- ---------- ------ -- ----- -- ----- -- ---- ------<br>--- ----- --- --- ------ -------- ----- --- ------ ----- --<br>----- ----- ---------- --- --- ------ ------ ---- -- ------<br>------- --- ------ ----- --- ---- ------- -- ---- --- --<br>------- ------,152306.98500000016,152305.97000000035,151961.056,151970.50500000024,151977.706,152310.901,,7,much
screen,html.Screen,2_1_1_1_8,2021-04-26T09:33:16.864Z,,,,,,,,,,,,,,,,,54,,,,,,,,,,,,,,302.92900000023656,,response,,,,100,,,,,,,Space,keypress(Space),,,,,,,,-- --- ---- --- ------ ----- ------- ---- of --- ------- --<br>------- ---------- ------ -- ----- -- ----- -- ---- ------<br>--- ----- --- --- ------ -------- ----- --- ------ ----- --<br>----- ----- ---------- --- --- ------ ------ ---- -- ------<br>------- --- ------ ----- --- ---- ------- -- ---- --- --<br>------- ------,152614.91000000024,152613.83000000025,152294.337,152307.26500000036,152310.901,152627.646,,8,of
screen,html.Screen,2_1_1_1_9,2021-04-26T09:33:17.157Z,,,,,,,,,,,,,,,,,54,,,,,,,,,,,,,,278.7690000003786,,response,,,,100,,,,,,,Space,keypress(Space),,,,,,,,-- --- ---- --- ------ ----- ------- ---- -- its ------- --<br>------- ---------- ------ -- ----- -- ----- -- ---- ------<br>--- ----- --- --- ------ -------- ----- --- ------ ----- --<br>----- ----- ---------- --- --- ------ ------ ---- -- ------<br>------- --- ------ ----- --- ---- ------- -- ---- --- --<br>------- ------,152907.9500000007,152906.4150000004,152611.01,152615.32500000065,152627.646,152910.862,,9,its
screen,html.Screen,2_1_1_1_10,2021-04-26T09:33:17.444Z,,,,,,,,,,,,,,,,,54,,,,,,,,,,,,,,283.0880000007746,,response,,,,100,,,,,,,Space,keypress(Space),,,,,,,,-- --- ---- --- ------ ----- ------- ---- -- --- revenue --<br>------- ---------- ------ -- ----- -- ----- -- ---- ------<br>--- ----- --- --- ------ -------- ----- --- ------ ----- --<br>----- ----- ---------- --- --- ------ ------ ---- -- ------<br>------- --- ------ ----- --- ---- ------- -- ---- --- --<br>------- ------,153195.01500000025,153193.95000000077,152894.214,152908.4499999999,152910.862,153210.967,,10,revenue
screen,html.Screen,2_1_1_1_11,2021-04-26T09:33:18.023Z,,,,,,,,,,,,,,,,,54,,,,,,,,,,,,,,562.4430000006978,,response,,,,100,,,,,,,Space,keypress(Space),,,,,,,,-- --- ---- --- ------ ----- ------- ---- -- --- ------- by<br>------- ---------- ------ -- ----- -- ----- -- ---- ------<br>--- ----- --- --- ------ -------- ----- --- ------ ----- --<br>----- ----- ---------- --- --- ------ ------ ---- -- ------<br>------- --- ------ ----- --- ---- ------- -- ---- --- --<br>------- ------,153774.03500000038,153773.4100000007,153194.241,153195.40000000052,153210.967,153777.411,,11,by
screen,html.Screen,2_1_1_1_12,2021-04-26T09:33:18.482Z,,,,,,,,,,,,,,,,,54,,,,,,,,,,,,,,454.5539999999455,,response,,,,100,,,,,,,Space,keypress(Space),,,,,,,,-- --- ---- --- ------ ----- ------- ---- -- --- ------- --<br>issuing ---------- ------ -- ----- -- ----- -- ---- ------<br>--- ----- --- --- ------ -------- ----- --- ------ ----- --<br>----- ----- ---------- --- --- ------ ------ ---- -- ------<br>------- --- ------ ----- --- ---- ------- -- ---- --- --<br>------- ------,154232.9950000003,154231.96499999994,153760.876,153774.22500000012,153777.411,154244.26,,12,issuing
screen,html.Screen,2_1_1_1_13,2021-04-26T09:33:19.205Z,,,,,,,,,,,,,,,,,54,,,,,,,,,,,,,,710.0199999999022,,response,,,,100,,,,,,,Space,keypress(Space),,,,,,,,-- --- ---- --- ------ ----- ------- ---- -- --- ------- --<br>------- government ------ -- ----- -- ----- -- ---- ------<br>--- ----- --- --- ------ -------- ----- --- ------ ----- --<br>----- ----- ---------- --- --- ------ ------ ---- -- ------<br>------- --- ------ ----- --- ---- ------- -- ---- --- --<br>------- ------,154955.42000000022,154954.2799999999,154227.536,154233.28000000038,154244.26,154960.721,,13,government
screen,html.Screen,2_1_1_1_14,2021-04-26T09:33:20.702Z,,,,,,,,,,,,,,,,,54,,,,,,,,,,,,,,1490.844000000303,,response,,,,100,,,,,,,Space,keypress(Space),,,,,,,,-- --- ---- --- ------ ----- ------- ---- -- --- ------- --<br>------- ---------- bonds. -- ----- -- ----- -- ---- ------<br>--- ----- --- --- ------ -------- ----- --- ------ ----- --<br>----- ----- ---------- --- --- ------ ------ ---- -- ------<br>------- --- ------ ----- --- ---- ------- -- ---- --- --<br>------- ------,156452.62499999988,156451.5650000003,154944.094,154955.81000000038,154960.721,156460.567,,14,bonds.
screen,html.Screen,2_1_1_1_15,2021-04-26T09:33:21.181Z,,,,,,,,,,,,,,,,,54,,,,,,,,,,,,,,470.2830000006361,,response,,,,100,,,,,,,Space,keypress(Space),,,,,,,,-- --- ---- --- ------ ----- ------- ---- -- --- ------- --<br>------- ---------- ------ In ----- -- ----- -- ---- ------<br>--- ----- --- --- ------ -------- ----- --- ------ ----- --<br>----- ----- ---------- --- --- ------ ------ ---- -- ------<br>------- --- ------ ----- --- ---- ------- -- ---- --- --<br>------- ------,156931.86500000046,156930.85000000065,156444.012,156452.90000000023,156460.567,156960.675,,15,In
screen,html.Screen,2_1_1_1_16,2021-04-26T09:33:21.661Z,,,,,,,,,,,,,,,,,54,,,,,,,,,,,,,,449.3300000006566,,response,,,,100,,,,,,,Space,keypress(Space),,,,,,,,"-- --- ---- --- ------ ----- ------- ---- -- --- ------- --<br>------- ---------- ------ -- 1727, -- ----- -- ---- ------<br>--- ----- --- --- ------ -------- ----- --- ------ ----- --<br>----- ----- ---------- --- --- ------ ------ ---- -- ------<br>------- --- ------ ----- --- ---- ------- -- ---- --- --<br>------- ------",157411.51500000068,157410.00500000064,156944.013,156932.15500000044,156960.675,157427.304,,16,"1727,"
screen,html.Screen,2_1_1_1_17,2021-04-26T09:33:21.998Z,,,,,,,,,,,,,,,,,54,,,,,,,,,,,,,,321.23100000061095,,response,,,,100,,,,,,,Space,keypress(Space),,,,,,,,-- --- ---- --- ------ ----- ------- ---- -- --- ------- --<br>------- ---------- ------ -- ----- in ----- -- ---- ------<br>--- ----- --- --- ------ -------- ----- --- ------ ----- --<br>----- ----- ---------- --- --- ------ ------ ---- -- ------<br>------- --- ------ ----- --- ---- ------- -- ---- --- --<br>------- ------,157748.95000000016,157748.53500000061,157410.529,157411.80000000077,157427.304,157760.456,,17,in
screen,html.Screen,2_1_1_1_18,2021-04-26T09:33:22.302Z,,,,,,,,,,,,,,,,,54,,,,,,,,,,,,,,291.3539999999339,,response,,,,100,,,,,,,Space,keypress(Space),,,,,,,,-- --- ---- --- ------ ----- ------- ---- -- --- ------- --<br>------- ---------- ------ -- ----- -- order -- ---- ------<br>--- ----- --- --- ------ -------- ----- --- ------ ----- --<br>----- ----- ---------- --- --- ------ ------ ---- -- ------<br>------- --- ------ ----- --- ---- ------- -- ---- --- --<br>------- ------,158052.9000000006,158051.80999999994,157743.933,157749.05000000034,157760.456,158060.613,,18,order
screen,html.Screen,2_1_1_1_19,2021-04-26T09:33:22.579Z,,,,,,,,,,,,,,,,,54,,,,,,,,,,,,,,267.64700000023004,,response,,,,100,,,,,,,Space,keypress(Space),,,,,,,,-- --- ---- --- ------ ----- ------- ---- -- --- ------- --<br>------- ---------- ------ -- ----- -- ----- to ---- ------<br>--- ----- --- --- ------ -------- ----- --- ------ ----- --<br>----- ----- ---------- --- --- ------ ------ ---- -- ------<br>------- --- ------ ----- --- ---- ------- -- ---- --- --<br>------- ------,158329.2850000007,158328.26000000024,158043.838,158053.19000000053,158060.613,158343.831,,19,to
screen,html.Screen,2_1_1_1_20,2021-04-26T09:33:22.811Z,,,,,,,,,,,,,,,,,54,,,,,,,,,,,,,,216.4940000003553,,response,,,,100,,,,,,,Space,keypress(Space),,,,,,,,-- --- ---- --- ------ ----- ------- ---- -- --- ------- --<br>------- ---------- ------ -- ----- -- ----- -- save ------<br>--- ----- --- --- ------ -------- ----- --- ------ ----- --<br>----- ----- ---------- --- --- ------ ------ ---- -- ------<br>------- --- ------ ----- --- ---- ------- -- ---- --- --<br>------- ------,158561.8199999999,158560.32500000036,158327.266,158329.57500000065,158343.831,158593.92,,20,save
screen,html.Screen,2_1_1_1_21,2021-04-26T09:33:23.058Z,,,,,,,,,,,,,,,,,54,,,,,,,,,,,,,,213.57500000001164,,response,,,,100,,,,,,,Space,keypress(Space),,,,,,,,"-- --- ---- --- ------ ----- ------- ---- -- --- ------- --<br>------- ---------- ------ -- ----- -- ----- -- ---- money,<br>--- ----- --- --- ------ -------- ----- --- ------ ----- --<br>----- ----- ---------- --- --- ------ ------ ---- -- ------<br>------- --- ------ ----- --- ---- ------- -- ---- --- --<br>------- ------",158808.66500000047,158807.49500000002,158577.193,158562.1000000001,158593.92,158840.785,,21,"money,"
screen,html.Screen,2_1_1_1_22,2021-04-26T09:33:23.466Z,,,,,,,,,,,,,,,,,54,,,,,,,,,,,,,,375.3300000001618,,response,,,,100,,,,,,,Space,keypress(Space),,,,,,,,-- --- ---- --- ------ ----- ------- ---- -- --- ------- --<br>------- ---------- ------ -- ----- -- ----- -- ---- ------<br>the ----- --- --- ------ -------- ----- --- ------ ----- --<br>----- ----- ---------- --- --- ------ ------ ---- -- ------<br>------- --- ------ ----- --- ---- ------- -- ---- --- --<br>------- ------,159217.15500000026,159216.11500000017,158793.857,158808.94500000068,158840.785,159243.76,,22,the
screen,html.Screen,2_1_1_1_23,2021-04-26T09:33:23.779Z,,,,,,,,,,,,,,,,,54,,,,,,,,,,,,,,285.13500000035856,,response,,,,100,,,,,,,Space,keypress(Space),,,,,,,,-- --- ---- --- ------ ----- ------- ---- -- --- ------- --<br>------- ---------- ------ -- ----- -- ----- -- ---- ------<br>--- state --- --- ------ -------- ----- --- ------ ----- --<br>----- ----- ---------- --- --- ------ ------ ---- -- ------<br>------- --- ------ ----- --- ---- ------- -- ---- --- --<br>------- ------,159529.91500000007,159528.89500000037,159227.15,159217.4300000006,159243.76,159543.694,,23,state
screen,html.Screen,2_1_1_1_24,2021-04-26T09:33:24.076Z,,,,,,,,,,,,,,,,,54,,,,,,,,,,,,,,282.1710000007006,,response,,,,100,,,,,,,Space,keypress(Space),,,,,,,,-- --- ---- --- ------ ----- ------- ---- -- --- ------- --<br>------- ---------- ------ -- ----- -- ----- -- ---- ------<br>--- ----- cut --- ------ -------- ----- --- ------ ----- --<br>----- ----- ---------- --- --- ------ ------ ---- -- ------<br>------- --- ------ ----- --- ---- ------- -- ---- --- --<br>------- ------,159826.32000000012,159825.8650000007,159527.12,159530.19500000027,159543.694,159844.698,,24,cut
screen,html.Screen,2_1_1_1_25,2021-04-26T09:33:24.404Z,,,,,,,,,,,,,,,,,54,,,,,,,,,,,,,,309.28699999992386,,response,,,,100,,,,,,,Space,keypress(Space),,,,,,,,-- --- ---- --- ------ ----- ------- ---- -- --- ------- --<br>------- ---------- ------ -- ----- -- ----- -- ---- ------<br>--- ----- --- the ------ -------- ----- --- ------ ----- --<br>----- ----- ---------- --- --- ------ ------ ---- -- ------<br>------- --- ------ ----- --- ---- ------- -- ---- --- --<br>------- ------,160154.43000000052,160153.98499999993,159810.259,159826.42000000033,159844.698,160160.21,,25,the
screen,html.Screen,2_1_1_1_26,2021-04-26T09:33:24.696Z,,,,,,,,,,,,,,,,,54,,,,,,,,,,,,,,286.07499999998254,,response,,,,100,,,,,,,Space,keypress(Space),,,,,,,,-- --- ---- --- ------ ----- ------- ---- -- --- ------- --<br>------- ---------- ------ -- ----- -- ----- -- ---- ------<br>--- ----- --- --- bonds' -------- ----- --- ------ ----- --<br>----- ----- ---------- --- --- ------ ------ ---- -- ------<br>------- --- ------ ----- --- ---- ------- -- ---- --- --<br>------- ------,160446.77000000048,160446.28499999997,160143.556,160154.5350000006,160160.21,160460.218,,26,bonds'
screen,html.Screen,2_1_1_1_27,2021-04-26T09:33:25.017Z,,,,,,,,,,,,,,,,,54,,,,,,,,,,,,,,306.5470000003115,,response,,,,100,,,,,,,Space,keypress(Space),,,,,,,,-- --- ---- --- ------ ----- ------- ---- -- --- ------- --<br>------- ---------- ------ -- ----- -- ----- -- ---- ------<br>--- ----- --- --- ------ interest ----- --- ------ ----- --<br>----- ----- ---------- --- --- ------ ------ ---- -- ------<br>------- --- ------ ----- --- ---- ------- -- ---- --- --<br>------- ------,160767.77500000026,160766.7650000003,160443.538,160446.87500000055,160460.218,160776.957,,27,interest
screen,html.Screen,2_1_1_1_28,2021-04-26T09:33:25.455Z,,,,,,,,,,,,,,,,,54,,,,,,,,,,,,,,427.60800000000745,,response,,,,100,,,,,,,Space,keypress(Space),,,,,,,,-- --- ---- --- ------ ----- ------- ---- -- --- ------- --<br>------- ---------- ------ -- ----- -- ----- -- ---- ------<br>--- ----- --- --- ------ -------- rate. --- ------ ----- --<br>----- ----- ---------- --- --- ------ ------ ---- -- ------<br>------- --- ------ ----- --- ---- ------- -- ---- --- --<br>------- ------,161205.6050000001,161204.565,160760.178,160768.0650000002,160776.957,161210.212,,28,rate.
screen,html.Screen,2_1_1_1_29,2021-04-26T09:33:25.778Z,,,,,,,,,,,,,,,,,54,,,,,,,,,,,,,,317.1230000006617,,response,,,,100,,,,,,,Space,keypress(Space),,,,,,,,-- --- ---- --- ------ ----- ------- ---- -- --- ------- --<br>------- ---------- ------ -- ----- -- ----- -- ---- ------<br>--- ----- --- --- ------ -------- ----- The ------ ----- --<br>----- ----- ---------- --- --- ------ ------ ---- -- ------<br>------- --- ------ ----- --- ---- ------- -- ---- --- --<br>------- ------,161528.3900000004,161527.33500000066,161193.592,161206.0100000008,161210.212,161543.644,,29,The
screen,html.Screen,2_1_1_1_30,2021-04-26T09:33:26.096Z,,,,,,,,,,,,,,,,,54,,,,,,,,,,,,,,301.5710000002873,,response,,,,100,,,,,,,Space,keypress(Space),,,,,,,,-- --- ---- --- ------ ----- ------- ---- -- --- ------- --<br>------- ---------- ------ -- ----- -- ----- -- ---- ------<br>--- ----- --- --- ------ -------- ----- --- market ----- --<br>----- ----- ---------- --- --- ------ ------ ---- -- ------<br>------- --- ------ ----- --- ---- ------- -- ---- --- --<br>------- ------,161846.26500000013,161845.2150000003,161526.949,161528.6700000006,161543.644,161860.282,,30,market
screen,html.Screen,2_1_1_1_31,2021-04-26T09:33:26.361Z,,,,,,,,,,,,,,,,,54,,,,,,,,,,,,,,251.51800000056392,,response,,,,100,,,,,,,Space,keypress(Space),,,,,,,,-- --- ---- --- ------ ----- ------- ---- -- --- ------- --<br>------- ---------- ------ -- ----- -- ----- -- ---- ------<br>--- ----- --- --- ------ -------- ----- --- ------ value --<br>----- ----- ---------- --- --- ------ ------ ---- -- ------<br>------- --- ------ ----- --- ---- ------- -- ---- --- --<br>------- ------,162112.2350000005,162111.80000000057,161843.574,161846.54500000033,161860.282,162126.756,,31,value
screen,html.Screen,2_1_1_1_32,2021-04-26T09:33:26.675Z,,,,,,,,,,,,,,,,,54,,,,,,,,,,,,,,298.4990000001271,,response,,,,100,,,,,,,Space,keypress(Space),,,,,,,,-- --- ---- --- ------ ----- ------- ---- -- --- ------- --<br>------- ---------- ------ -- ----- -- ----- -- ---- ------<br>--- ----- --- --- ------ -------- ----- --- ------ ----- of<br>----- ----- ---------- --- --- ------ ------ ---- -- ------<br>------- --- ------ ----- --- ---- ------- -- ---- --- --<br>------- ------,162426.24500000058,162425.25500000012,162110.163,162112.32500000007,162126.756,162443.455,,32,of
screen,html.Screen,2_1_1_1_33,2021-04-26T09:33:26.993Z,,,,,,,,,,,,,,,,,54,,,,,,,,,,,,,,299.44000000032247,,response,,,,100,,,,,,,Space,keypress(Space),,,,,,,,-- --- ---- --- ------ ----- ------- ---- -- --- ------- --<br>------- ---------- ------ -- ----- -- ----- -- ---- ------<br>--- ----- --- --- ------ -------- ----- --- ------ ----- --<br>these ----- ---------- --- --- ------ ------ ---- -- ------<br>------- --- ------ ----- --- ---- ------- -- ---- --- --<br>------- ------,162743.97500000033,162742.8950000003,162426.73,162426.5350000005,162443.455,162760.266,,33,these
screen,html.Screen,2_1_1_1_34,2021-04-26T09:33:27.316Z,,,,,,,,,,,,,,,,,54,,,,,,,,,,,,,,305.51399999990826,,response,,,,100,,,,,,,Space,keypress(Space),,,,,,,,-- --- ---- --- ------ ----- ------- ---- -- --- ------- --<br>------- ---------- ------ -- ----- -- ----- -- ---- ------<br>--- ----- --- --- ------ -------- ----- --- ------ ----- --<br>----- bonds ---------- --- --- ------ ------ ---- -- ------<br>------- --- ------ ----- --- ---- ------- -- ---- --- --<br>------- ------,163066.88500000018,163065.7799999999,162743.54,162744.26500000028,162760.266,163076.798,,34,bonds
screen,html.Screen,2_1_1_1_35,2021-04-26T09:33:27.612Z,,,,,,,,,,,,,,,,,54,,,,,,,,,,,,,,285.4320000006119,,response,,,,100,,,,,,,Space,keypress(Space),,,,,,,,"-- --- ---- --- ------ ----- ------- ---- -- --- ------- --<br>------- ---------- ------ -- ----- -- ----- -- ---- ------<br>--- ----- --- --- ------ -------- ----- --- ------ ----- --<br>----- ----- plummeted, --- --- ------ ------ ---- -- ------<br>------- --- ------ ----- --- ---- ------- -- ---- --- --<br>------- ------",163363.2350000007,163362.23000000062,163060.125,163067.20500000028,163076.798,163376.84,,35,"plummeted,"
screen,html.Screen,2_1_1_1_36,2021-04-26T09:33:27.994Z,,,,,,,,,,,,,,,,,54,,,,,,,,,,,,,,365.70000000018626,,response,,,,100,,,,,,,Space,keypress(Space),,,,,,,,-- --- ---- --- ------ ----- ------- ---- -- --- ------- --<br>------- ---------- ------ -- ----- -- ----- -- ---- ------<br>--- ----- --- --- ------ -------- ----- --- ------ ----- --<br>----- ----- ---------- and --- ------ ------ ---- -- ------<br>------- --- ------ ----- --- ---- ------- -- ---- --- --<br>------- ------,163744.30000000028,163742.54000000018,163360.169,163363.52000000078,163376.84,163760.133,,36,and
screen,html.Screen,2_1_1_1_37,2021-04-26T09:33:28.324Z,,,,,,,,,,,,,,,,,54,,,,,,,,,,,,,,314.05700000026263,,response,,,,100,,,,,,,Space,keypress(Space),,,,,,,,-- --- ---- --- ------ ----- ------- ---- -- --- ------- --<br>------- ---------- ------ -- ----- -- ----- -- ---- ------<br>--- ----- --- --- ------ -------- ----- --- ------ ----- --<br>----- ----- ---------- --- the ------ ------ ---- -- ------<br>------- --- ------ ----- --- ---- ------- -- ---- --- --<br>------- ------,164075.245,164074.19000000026,163743.345,163744.59500000012,163760.133,164093.804,,37,the
screen,html.Screen,2_1_1_1_38,2021-04-26T09:33:28.652Z,,,,,,,,,,,,,,,,,54,,,,,,,,,,,,,,307.51599999994505,,response,,,,100,,,,,,,Space,keypress(Space),,,,,,,,-- --- ---- --- ------ ----- ------- ---- -- --- ------- --<br>------- ---------- ------ -- ----- -- ----- -- ---- ------<br>--- ----- --- --- ------ -------- ----- --- ------ ----- --<br>----- ----- ---------- --- --- market ------ ---- -- ------<br>------- --- ------ ----- --- ---- ------- -- ---- --- --<br>------- ------,164402.35500000016,164401.31999999995,164060.11,164075.66000000044,164093.804,164410,,38,market
screen,html.Screen,2_1_1_1_39,2021-04-26T09:33:28.927Z,,,,,,,,,,,,,,,,,54,,,,,,,,,,,,,,267.6800000006915,,response,,,,100,,,,,,,Space,keypress(Space),,,,,,,,-- --- ---- --- ------ ----- ------- ---- -- --- ------- --<br>------- ---------- ------ -- ----- -- ----- -- ---- ------<br>--- ----- --- --- ------ -------- ----- --- ------ ----- --<br>----- ----- ---------- --- --- ------ became ---- -- ------<br>------- --- ------ ----- --- ---- ------- -- ---- --- --<br>------- ------,164678.08500000046,164677.6800000007,164393.41,164403.60000000056,164410,164693.3,,39,became
screen,html.Screen,2_1_1_1_40,2021-04-26T09:33:29.201Z,,,,,,,,,,,,,,,,,54,,,,,,,,,,,,,,257.4300000004878,,response,,,,100,,,,,,,Space,keypress(Space),,,,,,,,-- --- ---- --- ------ ----- ------- ---- -- --- ------- --<br>------- ---------- ------ -- ----- -- ----- -- ---- ------<br>--- ----- --- --- ------ -------- ----- --- ------ ----- --<br>----- ----- ---------- --- --- ------ ------ wary -- ------<br>------- --- ------ ----- --- ---- ------- -- ---- --- --<br>------- ------,164951.75500000006,164950.73000000048,164676.73,164678.18500000067,164693.3,164959.953,,40,wary
screen,html.Screen,2_1_1_1_41,2021-04-26T09:33:29.559Z,,,,,,,,,,,,,,,,,54,,,,,,,,,,,,,,348.867000000173,,response,,,,100,,,,,,,Space,keypress(Space),,,,,,,,-- --- ---- --- ------ ----- ------- ---- -- --- ------- --<br>------- ---------- ------ -- ----- -- ----- -- ---- ------<br>--- ----- --- --- ------ -------- ----- --- ------ ----- --<br>----- ----- ---------- --- --- ------ ------ ---- of ------<br>------- --- ------ ----- --- ---- ------- -- ---- --- --<br>------- ------,165309.8850000006,165308.82000000018,164943.359,164952.03500000027,164959.953,165326.678,,41,of
screen,html.Screen,2_1_1_1_42,2021-04-26T09:33:29.872Z,,,,,,,,,,,,,,,,,54,,,,,,,,,,,,,,294.862000000081,,response,,,,100,,,,,,,Space,keypress(Space),,,,,,,,-- --- ---- --- ------ ----- ------- ---- -- --- ------- --<br>------- ---------- ------ -- ----- -- ----- -- ---- ------<br>--- ----- --- --- ------ -------- ----- --- ------ ----- --<br>----- ----- ---------- --- --- ------ ------ ---- -- French<br>------- --- ------ ----- --- ---- ------- -- ---- --- --<br>------- ------,165622.5600000007,165621.5400000001,165309.988,165310.16,165326.678,165626.559,,42,French
screen,html.Screen,2_1_1_1_43,2021-04-26T09:33:30.190Z,,,,,,,,,,,,,,,,,54,,,,,,,,,,,,,,312.72600000037346,,response,,,,100,,,,,,,Space,keypress(Space),,,,,,,,-- --- ---- --- ------ ----- ------- ---- -- --- ------- --<br>------- ---------- ------ -- ----- -- ----- -- ---- ------<br>--- ----- --- --- ------ -------- ----- --- ------ ----- --<br>----- ----- ---------- --- --- ------ ------ ---- -- ------<br>credit. --- ------ ----- --- ---- ------- -- ---- --- --<br>------- ------,165940.31500000073,165939.28500000038,165609.884,165622.85000000065,165626.559,165943.196,,43,credit.
screen,html.Screen,2_1_1_1_44,2021-04-26T09:33:30.548Z,,,,,,,,,,,,,,,,,54,,,,,,,,,,,,,,354.2440000002971,,response,,,,100,,,,,,,Space,keypress(Space),,,,,,,,-- --- ---- --- ------ ----- ------- ---- -- --- ------- --<br>------- ---------- ------ -- ----- -- ----- -- ---- ------<br>--- ----- --- --- ------ -------- ----- --- ------ ----- --<br>----- ----- ---------- --- --- ------ ------ ---- -- ------<br>------- The ------ ----- --- ---- ------- -- ---- --- --<br>------- ------,166298.44500000036,166297.4400000003,165926.629,165940.59500000003,165943.196,166309.941,,44,The
screen,html.Screen,2_1_1_1_45,2021-04-26T09:33:30.896Z,,,,,,,,,,,,,,,,,54,,,,,,,,,,,,,,335.53400000027614,,response,,,,100,,,,,,,Space,keypress(Space),,,,,,,,-- --- ---- --- ------ ----- ------- ---- -- --- ------- --<br>------- ---------- ------ -- ----- -- ----- -- ---- ------<br>--- ----- --- --- ------ -------- ----- --- ------ ----- --<br>----- ----- ---------- --- --- ------ ------ ---- -- ------<br>------- --- French ----- --- ---- ------- -- ---- --- --<br>------- ------,166646.57500000065,166645.47500000027,166293.207,166298.73000000045,166309.941,166659.933,,45,French
screen,html.Screen,2_1_1_1_46,2021-04-26T09:33:31.170Z,,,,,,,,,,,,,,,,,54,,,,,,,,,,,,,,259.9420000005048,,response,,,,100,,,,,,,Space,keypress(Space),,,,,,,,-- --- ---- --- ------ ----- ------- ---- -- --- ------- --<br>------- ---------- ------ -- ----- -- ----- -- ---- ------<br>--- ----- --- --- ------ -------- ----- --- ------ ----- --<br>----- ----- ---------- --- --- ------ ------ ---- -- ------<br>------- --- ------ state --- ---- ------- -- ---- --- --<br>------- ------,166920.91000000073,166919.8750000005,166643.213,166646.86000000074,166659.933,166926.435,,46,state
screen,html.Screen,2_1_1_1_47,2021-04-26T09:33:31.447Z,,,,,,,,,,,,,,,,,54,,,,,,,,,,,,,,269.7050000000163,,response,,,,100,,,,,,,Space,keypress(Space),,,,,,,,-- --- ---- --- ------ ----- ------- ---- -- --- ------- --<br>------- ---------- ------ -- ----- -- ----- -- ---- ------<br>--- ----- --- --- ------ -------- ----- --- ------ ----- --<br>----- ----- ---------- --- --- ------ ------ ---- -- ------<br>------- --- ------ ----- was ---- ------- -- ---- --- --<br>------- ------,167197.2450000003,167196.14,166909.868,166921.1949999999,166926.435,167209.889,,47,was
screen,html.Screen,2_1_1_1_48,2021-04-26T09:33:31.739Z,,,,,,,,,,,,,,,,,54,,,,,,,,,,,,,,278.90600000022096,,response,,,,100,,,,,,,Space,keypress(Space),,,,,,,,-- --- ---- --- ------ ----- ------- ---- -- --- ------- --<br>------- ---------- ------ -- ----- -- ----- -- ---- ------<br>--- ----- --- --- ------ -------- ----- --- ------ ----- --<br>----- ----- ---------- --- --- ------ ------ ---- -- ------<br>------- --- ------ ----- --- left ------- -- ---- --- --<br>------- ------,167489.8350000003,167488.79500000022,167193.212,167197.55000000077,167209.889,167493.08,,48,left
screen,html.Screen,2_1_1_1_49,2021-04-26T09:33:31.995Z,,,,,,,,,,,,,,,,,54,,,,,,,,,,,,,,251.97000000046683,,response,,,,100,,,,,,,Space,keypress(Space),,,,,,,,-- --- ---- --- ------ ----- ------- ---- -- --- ------- --<br>------- ---------- ------ -- ----- -- ----- -- ---- ------<br>--- ----- --- --- ------ -------- ----- --- ------ ----- --<br>----- ----- ---------- --- --- ------ ------ ---- -- ------<br>------- --- ------ ----- --- ---- without -- ---- --- --<br>------- ------,167746.0800000008,167745.05000000045,167476.48,167490.11500000051,167493.08,167759.861,,49,without
screen,html.Screen,2_1_1_1_50,2021-04-26T09:33:32.308Z,,,,,,,,,,,,,,,,,54,,,,,,,,,,,,,,297.7740000001213,,response,,,,100,,,,,,,Space,keypress(Space),,,,,,,,-- --- ---- --- ------ ----- ------- ---- -- --- ------- --<br>------- ---------- ------ -- ----- -- ----- -- ---- ------<br>--- ----- --- --- ------ -------- ----- --- ------ ----- --<br>----- ----- ---------- --- --- ------ ------ ---- -- ------<br>------- --- ------ ----- --- ---- ------- an ---- --- --<br>------- ------,168058.6400000002,168057.63500000013,167743.151,167746.36499999996,167759.861,168076.456,,50,an
screen,html.Screen,2_1_1_1_51,2021-04-26T09:33:32.596Z,,,,,,,,,,,,,,,,,54,,,,,,,,,,,,,,268.80899999992107,,response,,,,100,,,,,,,Space,keypress(Space),,,,,,,,-- --- ---- --- ------ ----- ------- ---- -- --- ------- --<br>------- ---------- ------ -- ----- -- ----- -- ---- ------<br>--- ----- --- --- ------ -------- ----- --- ------ ----- --<br>----- ----- ---------- --- --- ------ ------ ---- -- ------<br>------- --- ------ ----- --- ---- ------- -- easy --- --<br>------- ------,168346.36000000045,168345.26499999993,168043.082,168058.9200000004,168076.456,168359.762,,51,easy
screen,html.Screen,2_1_1_1_52,2021-04-26T09:33:32.888Z,,,,,,,,,,,,,,,,,54,,,,,,,,,,,,,,277.8680000001914,,response,,,,100,,,,,,,Space,keypress(Space),,,,,,,,-- --- ---- --- ------ ----- ------- ---- -- --- ------- --<br>------- ---------- ------ -- ----- -- ----- -- ---- ------<br>--- ----- --- --- ------ -------- ----- --- ------ ----- --<br>----- ----- ---------- --- --- ------ ------ ---- -- ------<br>------- --- ------ ----- --- ---- ------- -- ---- way --<br>------- ------,168638.645,168637.63000000018,168343.099,168346.64500000054,168359.762,168642.983,,52,way
screen,html.Screen,2_1_1_1_53,2021-04-26T09:33:33.196Z,,,,,,,,,,,,,,,,,54,,,,,,,,,,,,,,303.23199999993085,,response,,,,100,,,,,,,Space,keypress(Space),,,,,,,,-- --- ---- --- ------ ----- ------- ---- -- --- ------- --<br>------- ---------- ------ -- ----- -- ----- -- ---- ------<br>--- ----- --- --- ------ -------- ----- --- ------ ----- --<br>----- ----- ---------- --- --- ------ ------ ---- -- ------<br>------- --- ------ ----- --- ---- ------- -- ---- --- of<br>------- ------,168947.21500000014,168946.21499999994,168626.434,168638.9250000002,168642.983,168959.739,,53,of
screen,html.Screen,2_1_1_1_54,2021-04-26T09:33:33.514Z,,,,,,,,,,,,,,,,,54,,,,,,,,,,,,,,303.4310000001569,,response,,,,100,,,,,,,Space,keypress(Space),,,,,,,,-- --- ---- --- ------ ----- ------- ---- -- --- ------- --<br>------- ---------- ------ -- ----- -- ----- -- ---- ------<br>--- ----- --- --- ------ -------- ----- --- ------ ----- --<br>----- ----- ---------- --- --- ------ ------ ---- -- ------<br>------- --- ------ ----- --- ---- ------- -- ---- --- --<br>raising ------,169264.2650000007,169263.17000000016,168943.036,168947.5250000005,168959.739,169276.368,,54,raising
screen,html.Screen,2_1_1_1_55,2021-04-26T09:33:33.866Z,,,,,,,,,,,,,,,,,54,,,,,,,,,,,,,,339.7820000007632,,response,,,,100,,,,,,,Space,keypress(Space),,,,,,,,-- --- ---- --- ------ ----- ------- ---- -- --- ------- --<br>------- ---------- ------ -- ----- -- ----- -- ---- ------<br>--- ----- --- --- ------ -------- ----- --- ------ ----- --<br>----- ----- ---------- --- --- ------ ------ ---- -- ------<br>------- --- ------ ----- --- ---- ------- -- ---- --- --<br>------- money.,169617.18999999994,169616.15000000075,169259.683,169264.6250000007,169276.368,169626.227,,55,money.
Item 100,flow.Loop,2_1_1_1,2021-04-26T09:33:33.867Z,,,,,,,,,,,,,,,,,,,,,,,,,,,,,,,20221.637000000745,,completion,,,,,A,,,,,,,,,,,silence,,,,,169617.67000000054,169616.15000000075,149377.89,149379.16500000027,149394.513,169626.227,,,
Question 1,html.Screen,2_1_1_2,2021-04-26T09:33:36.390Z,,,,,,,,,,,,,,,,,,,,,,,,,,,,true,TRUE,,2514.228000000643,,response,,,,100,A,,,,,,TRUE,click #choice-1,,,,silence,,,,,172140.99000000078,172140.45500000066,169609.645,169617.90500000006,169626.227,172159.354,,,
Question 2,html.Screen,2_1_1_3,2021-04-26T09:33:39.558Z,,,,,,,,,,,,,,,,,,,,,,,,,,,,true,FALSE,,3149.096000000456,,response,,,,100,A,,,,,,FALSE,click #choice-2,,,,silence,,,,,175309.1549999999,175308.45000000045,172142.644,172141.09000000008,172159.354,175340.263,,,
Item 100,flow.Sequence,2_1_1,2021-04-26T09:33:39.559Z,,,,,,,,,,,,,,,,,,,,,,,,,,,,,,,35913.260000000446,,completion,,,,,,,,,,,,,,,,,,,,,175309.3800000006,175308.45000000045,139378.695,139389.30000000075,139395.19,175340.263,,,
End of Practice,html.Page,2_1_2,2021-04-26T09:33:43.359Z,,,,,,,,,,,,,,,,,,,,,,,,,,,,,,,3768.9020000007586,,form submission,,,,,,,,,,,,,,,,,,,,,179109.51999999996,179109.16500000076,175292.466,175309.47500000003,175340.263,179125.492,,,
Practice,flow.Sequence,2_1,2021-04-26T09:33:43.359Z,,,,,,,,,,,,,,,,,,,,,,,,,,,,,,,88743.44400000076,,completion,,,,,,,,,,,,,,,,,,,,,179109.66499999995,179109.16500000076,90349.162,90350.21500000039,90365.721,179125.492,,,
Trap_instruction,html.Page,2_2_0,2021-04-26T09:33:48.386Z,,,,,,,,,,,,,,,,,,,,,,,,,,,,,,,5007.322999999946,,form submission,,,,,,,,,,,,,,,,,,,,,184136.94500000018,184132.81499999994,179108.769,179109.76500000016,179125.492,184208.474,,,
trap_trial,html.Screen,2_2_1,2021-04-26T09:33:52.022Z,,,,,,,,,,,,,,,,,,,,,,,,,,,,true,1,,3563.9810000002617,,response,,,,,,,,,,,1,click #choice-1,,,,,,,,,187773.1300000005,187772.45500000025,184125.105,184137.06500000082,184208.474,187774.769,,,
end of trap trial,html.Page,2_2_2,2021-04-26T09:33:54.423Z,,,,,,,,,,,,,,,,,,,,,,,,,,,,,,,2398.451000000583,,form submission,,,,,,,,,,,,,,,,,,,,,190173.48500000025,190173.22000000058,187758.291,187773.23500000057,187774.769,190174.578,,,
Trap 1,flow.Sequence,2_2,2021-04-26T09:33:54.423Z,,,,,,,,,,,,,,,,,,,,,,,,,,,,,,,11047.728000000585,,completion,,,,,,,,,,,,,,,,,,,,,190173.63999999998,190173.22000000058,179108.769,179109.735,179125.492,190174.578,,,
Standby,html.Page,2_3_0,2021-04-26T09:34:02.408Z,,,,,,,,,,,,,,,,,,,,,,,,,,,,,,,7999.433999999979,,timeout,,,,,,,,,,,,,,,,,,,,,198158.60500000053,198157.433,190158.02,190173.74000000017,190174.578,198174.012,,,
Holding screen,html.Screen,2_3_1_0_0,2021-04-26T09:34:09.407Z,,,,,,,,,,,,,,,,,,,,,,,,,,,,,,,6999.478000000003,,timeout,,,,,,,,,,,,,,,,,,,,,205158.01499999998,205156.876,198157.433,198159.02000000005,198174.012,205173.49,,,
screen,html.Screen,2_3_1_0_1_0,2021-04-26T09:34:10.217Z,,,,,,,,,,,,,,,,,51,,,,,,,,,,,,,,792.700000000099,,response,,,,13,A,,,,,,Space,keypress(Space),,,,silence,,,,American -------- --- --- ---- --- --- ------ -- --------<br>---- --------- --- ------- ------------ ---------- ---------<br>--- ---------- ------- ---------- ------- -- -------- ----<br>---- --- ------ ----- ------ -- ---- --- ----- -- - -------<br>-------- -- --- --- -- ----- ----------- ----- -----------<br>---- --- ---------- --- ---- --- -- ----------,205967.72000000055,205966.1900000001,205156.876,205158.4300000004,205173.49,205973.442,,0,American
screen,html.Screen,2_3_1_0_1_1,2021-04-26T09:34:10.536Z,,,,,,,,,,,,,,,,,51,,,,,,,,,,,,,,312.1530000002822,,response,,,,13,A,,,,,,Space,keypress(Space),,,,silence,,,,-------- industry --- --- ---- --- --- ------ -- --------<br>---- --------- --- ------- ------------ ---------- ---------<br>--- ---------- ------- ---------- ------- -- -------- ----<br>---- --- ------ ----- ------ -- ---- --- ----- -- - -------<br>-------- -- --- --- -- ----- ----------- ----- -----------<br>---- --- ---------- --- ---- --- -- ----------,206286.81000000052,206285.5950000003,205956.864,205968.04500000054,205973.442,206290.082,,1,industry
screen,html.Screen,2_3_1_0_1_2,2021-04-26T09:34:10.933Z,,,,,,,,,,,,,,,,,51,,,,,,,,,,,,,,393.06299999996554,,response,,,,13,A,,,,,,Space,keypress(Space),,,,silence,,,,-------- -------- may --- ---- --- --- ------ -- --------<br>---- --------- --- ------- ------------ ---------- ---------<br>--- ---------- ------- ---------- ------- -- -------- ----<br>---- --- ------ ----- ------ -- ---- --- ----- -- - -------<br>-------- -- --- --- -- ----- ----------- ----- -----------<br>---- --- ---------- --- ---- --- -- ----------,206684.23000000074,206683.14499999996,206273.478,206287.09500000058,206290.082,206690.036,,2,may
screen,html.Screen,2_3_1_0_1_3,2021-04-26T09:34:11.250Z,,,,,,,,,,,,,,,,,51,,,,,,,,,,,,,,310.0540000004694,,response,,,,13,A,,,,,,Space,keypress(Space),,,,silence,,,,-------- -------- --- not ---- --- --- ------ -- --------<br>---- --------- --- ------- ------------ ---------- ---------<br>--- ---------- ------- ---------- ------- -- -------- ----<br>---- --- ------ ----- ------ -- ---- --- ----- -- - -------<br>-------- -- --- --- -- ----- ----------- ----- -----------<br>---- --- ---------- --- ---- --- -- ----------,207001.1000000004,207000.09000000046,206673.468,206684.52500000058,206690.036,207006.673,,3,not
screen,html.Screen,2_3_1_0_1_4,2021-04-26T09:34:11.564Z,,,,,,,,,,,,,,,,,51,,,,,,,,,,,,,,307.0470000000787,,response,,,,13,A,,,,,,Space,keypress(Space),,,,silence,,,,-------- -------- --- --- know --- --- ------ -- --------<br>---- --------- --- ------- ------------ ---------- ---------<br>--- ---------- ------- ---------- ------- -- -------- ----<br>---- --- ------ ----- ------ -- ---- --- ----- -- - -------<br>-------- -- --- --- -- ----- ----------- ----- -----------<br>---- --- ---------- --- ---- --- -- ----------,207314.95500000074,207313.7200000001,206990.11,207001.38000000062,207006.673,207323.308,,4,know
screen,html.Screen,2_3_1_0_1_5,2021-04-26T09:34:11.811Z,,,,,,,,,,,,,,,,,51,,,,,,,,,,,,,,237.59200000041164,,response,,,,13,A,,,,,,Space,keypress(Space),,,,silence,,,,"-------- -------- --- --- ---- it, --- ------ -- --------<br>---- --------- --- ------- ------------ ---------- ---------<br>--- ---------- ------- ---------- ------- -- -------- ----<br>---- --- ------ ----- ------ -- ---- --- ----- -- - -------<br>-------- -- --- --- -- ----- ----------- ----- -----------<br>---- --- ---------- --- ---- --- -- ----------",207561.925,207560.9000000004,207306.768,207315.30000000022,207323.308,207573.444,,5,"it,"
screen,html.Screen,2_3_1_0_1_6,2021-04-26T09:34:12.134Z,,,,,,,,,,,,,,,,,51,,,,,,,,,,,,,,310.32100000049104,,response,,,,13,A,,,,,,Space,keypress(Space),,,,silence,,,,-------- -------- --- --- ---- --- but ------ -- --------<br>---- --------- --- ------- ------------ ---------- ---------<br>--- ---------- ------- ---------- ------- -- -------- ----<br>---- --- ------ ----- ------ -- ---- --- ----- -- - -------<br>-------- -- --- --- -- ----- ----------- ----- -----------<br>---- --- ---------- --- ---- --- -- ----------,207884.865,207883.76500000048,207556.717,207562.2050000002,207573.444,207889.92,,6,but
screen,html.Screen,2_3_1_0_1_7,2021-04-26T09:34:12.412Z,,,,,,,,,,,,,,,,,51,,,,,,,,,,,,,,271.270000000688,,response,,,,13,A,,,,,,Space,keypress(Space),,,,silence,,,,-------- -------- --- --- ---- --- --- debate -- --------<br>---- --------- --- ------- ------------ ---------- ---------<br>--- ---------- ------- ---------- ------- -- -------- ----<br>---- --- ------ ----- ------ -- ---- --- ----- -- - -------<br>-------- -- --- --- -- ----- ----------- ----- -----------<br>---- --- ---------- --- ---- --- -- ----------,208162.28000000046,208161.1900000007,207873.343,207885.1450000002,207889.92,208173.386,,7,debate
screen,html.Screen,2_3_1_0_1_8,2021-04-26T09:34:12.644Z,,,,,,,,,,,,,,,,,51,,,,,,,,,,,,,,219.87900000059744,,response,,,,13,A,,,,,,Space,keypress(Space),,,,silence,,,,-------- -------- --- --- ---- --- --- ------ in --------<br>---- --------- --- ------- ------------ ---------- ---------<br>--- ---------- ------- ---------- ------- -- -------- ----<br>---- --- ------ ----- ------ -- ---- --- ----- -- - -------<br>-------- -- --- --- -- ----- ----------- ----- -----------<br>---- --- ---------- --- ---- --- -- ----------,208394.32500000022,208393.2650000006,208156.606,208162.56000000067,208173.386,208406.685,,8,in
screen,html.Screen,2_3_1_0_1_9,2021-04-26T09:34:12.849Z,,,,,,,,,,,,,,,,,51,,,,,,,,,,,,,,192.39000000007218,,response,,,,13,A,,,,,,Space,keypress(Space),,,,silence,,,,-------- -------- --- --- ---- --- --- ------ -- Congress<br>---- --------- --- ------- ------------ ---------- ---------<br>--- ---------- ------- ---------- ------- -- -------- ----<br>---- --- ------ ----- ------ -- ---- --- ----- -- - -------<br>-------- -- --- --- -- ----- ----------- ----- -----------<br>---- --- ---------- --- ---- --- -- ----------,208600.1150000002,208599.07500000007,208389.966,208394.72999999998,208406.685,208606.569,,9,Congress
screen,html.Screen,2_3_1_0_1_10,2021-04-26T09:34:13.243Z,,,,,,,,,,,,,,,,,51,,,,,,,,,,,,,,385.9760000000824,,response,,,,13,A,,,,,,Space,keypress(Space),,,,silence,,,,-------- -------- --- --- ---- --- --- ------ -- --------<br>over --------- --- ------- ------------ ---------- ---------<br>--- ---------- ------- ---------- ------- -- -------- ----<br>---- --- ------ ----- ------ -- ---- --- ----- -- - -------<br>-------- -- --- --- -- ----- ----------- ----- -----------<br>---- --- ---------- --- ---- --- -- ----------,208993.6350000007,208992.54500000007,208589.919,208600.48000000007,208606.569,209006.513,,10,over
screen,html.Screen,2_3_1_0_1_11,2021-04-26T09:34:13.674Z,,,,,,,,,,,,,,,,,51,,,,,,,,,,,,,,416.867000000173,,response,,,,13,A,,,,,,Space,keypress(Space),,,,silence,,,,-------- -------- --- --- ---- --- --- ------ -- --------<br>---- reforming --- ------- ------------ ---------- ---------<br>--- ---------- ------- ---------- ------- -- -------- ----<br>---- --- ------ ----- ------ -- ---- --- ----- -- - -------<br>-------- -- --- --- -- ----- ----------- ----- -----------<br>---- --- ---------- --- ---- --- -- ----------,209424.72500000076,209423.38000000018,208989.95,208993.9250000007,209006.513,209456.601,,11,reforming
screen,html.Screen,2_3_1_0_1_12,2021-04-26T09:34:14.001Z,,,,,,,,,,,,,,,,,51,,,,,,,,,,,,,,293.6740000003192,,response,,,,13,A,,,,,,Space,keypress(Space),,,,silence,,,,-------- -------- --- --- ---- --- --- ------ -- --------<br>---- --------- the ------- ------------ ---------- ---------<br>--- ---------- ------- ---------- ------- -- -------- ----<br>---- --- ------ ----- ------ -- ---- --- ----- -- - -------<br>-------- -- --- --- -- ----- ----------- ----- -----------<br>---- --- ---------- --- ---- --- -- ----------,209751.34500000058,209750.2750000003,209440.199,209425.0200000006,209456.601,209756.466,,12,the
screen,html.Screen,2_3_1_0_1_13,2021-04-26T09:34:14.287Z,,,,,,,,,,,,,,,,,51,,,,,,,,,,,,,,280.41400000057183,,response,,,,13,A,,,,,,Space,keypress(Space),,,,silence,,,,-------- -------- --- --- ---- --- --- ------ -- --------<br>---- --------- --- federal ------------ ---------- ---------<br>--- ---------- ------- ---------- ------- -- -------- ----<br>---- --- ------ ----- ------ -- ---- --- ----- -- - -------<br>-------- -- --- --- -- ----- ----------- ----- -----------<br>---- --- ---------- --- ---- --- -- ----------,210037.92500000054,210036.88000000056,209739.905,209751.6250000008,209756.466,210056.917,,13,federal
screen,html.Screen,2_3_1_0_1_14,2021-04-26T09:34:14.631Z,,,,,,,,,,,,,,,,,51,,,,,,,,,,,,,,324.01800000015646,,response,,,,13,A,,,,,,Space,keypress(Space),,,,silence,,,,-------- -------- --- --- ---- --- --- ------ -- --------<br>---- --------- --- ------- government's ---------- ---------<br>--- ---------- ------- ---------- ------- -- -------- ----<br>---- --- ------ ----- ------ -- ---- --- ----- -- - -------<br>-------- -- --- --- -- ----- ----------- ----- -----------<br>---- --- ---------- --- ---- --- -- ----------,210382.01500000013,210380.93500000014,210023.224,210038.2100000006,210056.917,210389.802,,14,government's
screen,html.Screen,2_3_1_0_1_15,2021-04-26T09:34:15.328Z,,,,,,,,,,,,,,,,,51,,,,,,,,,,,,,,688.2430000002205,,response,,,,13,A,,,,,,Space,keypress(Space),,,,silence,,,,-------- -------- --- --- ---- --- --- ------ -- --------<br>---- --------- --- ------- ------------ regulatory ---------<br>--- ---------- ------- ---------- ------- -- -------- ----<br>---- --- ------ ----- ------ -- ---- --- ----- -- - -------<br>-------- -- --- --- -- ----- ----------- ----- -----------<br>---- --- ---------- --- ---- --- -- ----------,211079.18000000063,211078.04500000022,210373.193,210382.29500000033,210389.802,211089.695,,15,regulatory
screen,html.Screen,2_3_1_0_1_16,2021-04-26T09:34:15.682Z,,,,,,,,,,,,,,,,,51,,,,,,,,,,,,,,341.68000000010943,,response,,,,13,A,,,,,,Space,keypress(Space),,,,silence,,,,-------- -------- --- --- ---- --- --- ------ -- --------<br>---- --------- --- ------- ------------ ---------- apparatus<br>--- ---------- ------- ---------- ------- -- -------- ----<br>---- --- ------ ----- ------ -- ---- --- ----- -- - -------<br>-------- -- --- --- -- ----- ----------- ----- -----------<br>---- --- ---------- --- ---- --- -- ----------,211432.39500000072,211431.37500000012,211073.136,211079.45999999993,211089.695,211439.696,,16,apparatus
screen,html.Screen,2_3_1_0_1_17,2021-04-26T09:34:16.261Z,,,,,,,,,,,,,,,,,51,,,,,,,,,,,,,,570.6340000000782,,response,,,,13,A,,,,,,Space,keypress(Space),,,,silence,,,,-------- -------- --- --- ---- --- --- ------ -- --------<br>---- --------- --- ------- ------------ ---------- ---------<br>may ---------- ------- ---------- ------- -- -------- ----<br>---- --- ------ ----- ------ -- ---- --- ----- -- - -------<br>-------- -- --- --- -- ----- ----------- ----- -----------<br>---- --- ---------- --- ---- --- -- ----------,212011.69000000026,212010.33000000007,211423.106,211432.6800000008,211439.696,212039.738,,17,may
screen,html.Screen,2_3_1_0_1_18,2021-04-26T09:34:16.650Z,,,,,,,,,,,,,,,,,51,,,,,,,,,,,,,,360.09200000029523,,response,,,,13,A,,,,,,Space,keypress(Space),,,,silence,,,,-------- -------- --- --- ---- --- --- ------ -- --------<br>---- --------- --- ------- ------------ ---------- ---------<br>--- profoundly ------- ---------- ------- -- -------- ----<br>---- --- ------ ----- ------ -- ---- --- ----- -- - -------<br>-------- -- --- --- -- ----- ----------- ----- -----------<br>---- --- ---------- --- ---- --- -- ----------,212400.98500000022,212399.8300000003,212023.066,212011.9800000002,212039.738,212406.268,,18,profoundly
screen,html.Screen,2_3_1_0_1_19,2021-04-26T09:34:17.048Z,,,,,,,,,,,,,,,,,51,,,,,,,,,,,,,,391.1320000003616,,response,,,,13,A,,,,,,Space,keypress(Space),,,,silence,,,,-------- -------- --- --- ---- --- --- ------ -- --------<br>---- --------- --- ------- ------------ ---------- ---------<br>--- ---------- improve ---------- ------- -- -------- ----<br>---- --- ------ ----- ------ -- ---- --- ----- -- - -------<br>-------- -- --- --- -- ----- ----------- ----- -----------<br>---- --- ---------- --- ---- --- -- ----------,212798.49000000014,212797.40000000037,212389.707,212401.2700000003,212406.268,212806.242,,19,improve
screen,html.Screen,2_3_1_0_1_20,2021-04-26T09:34:17.507Z,,,,,,,,,,,,,,,,,51,,,,,,,,,,,,,,450.1530000003404,,response,,,,13,A,,,,,,Space,keypress(Space),,,,silence,,,,-------- -------- --- --- ---- --- --- ------ -- --------<br>---- --------- --- ------- ------------ ---------- ---------<br>--- ---------- ------- companies' ------- -- -------- ----<br>---- --- ------ ----- ------ -- ---- --- ----- -- - -------<br>-------- -- --- --- -- ----- ----------- ----- -----------<br>---- --- ---------- --- ---- --- -- ----------,213257.39500000054,213256.39500000034,212789.625,212798.77000000034,212806.242,213272.977,,20,companies'
screen,html.Screen,2_3_1_0_1_21,2021-04-26T09:34:17.996Z,,,,,,,,,,,,,,,,,51,,,,,,,,,,,,,,472.9230000007956,,response,,,,13,A,,,,,,Space,keypress(Space),,,,silence,,,,-------- -------- --- --- ---- --- --- ------ -- --------<br>---- --------- --- ------- ------------ ---------- ---------<br>--- ---------- ------- ---------- ability -- -------- ----<br>---- --- ------ ----- ------ -- ---- --- ----- -- - -------<br>-------- -- --- --- -- ----- ----------- ----- -----------<br>---- --- ---------- --- ---- --- -- ----------,213746.91000000076,213745.9000000008,213256.29,213257.6850000005,213272.977,213756.228,,21,ability
screen,html.Screen,2_3_1_0_1_22,2021-04-26T09:34:18.355Z,,,,,,,,,,,,,,,,,51,,,,,,,,,,,,,,348.72199999992154,,response,,,,13,A,,,,,,Space,keypress(Space),,,,silence,,,,-------- -------- --- --- ---- --- --- ------ -- --------<br>---- --------- --- ------- ------------ ---------- ---------<br>--- ---------- ------- ---------- ------- to -------- ----<br>---- --- ------ ----- ------ -- ---- --- ----- -- - -------<br>-------- -- --- --- -- ----- ----------- ----- -----------<br>---- --- ---------- --- ---- --- -- ----------,214105.96000000078,214104.94999999992,213739.546,213747.19000000006,213756.228,214122.876,,22,to
screen,html.Screen,2_3_1_0_1_23,2021-04-26T09:34:18.668Z,,,,,,,,,,,,,,,,,51,,,,,,,,,,,,,,294.97900000060326,,response,,,,13,A,,,,,,Space,keypress(Space),,,,silence,,,,-------- -------- --- --- ---- --- --- ------ -- --------<br>---- --------- --- ------- ------------ ---------- ---------<br>--- ---------- ------- ---------- ------- -- survive. ----<br>---- --- ------ ----- ------ -- ---- --- ----- -- - -------<br>-------- -- --- --- -- ----- ----------- ----- -----------<br>---- --- ---------- --- ---- --- -- ----------,214418.88500000004,214417.8550000006,214106.122,214106.26000000047,214122.876,214422.771,,23,survive.
screen,html.Screen,2_3_1_0_1_24,2021-04-26T09:34:19.237Z,,,,,,,,,,,,,,,,,51,,,,,,,,,,,,,,564.104000000516,,response,,,,13,A,,,,,,Space,keypress(Space),,,,silence,,,,-------- -------- --- --- ---- --- --- ------ -- --------<br>---- --------- --- ------- ------------ ---------- ---------<br>--- ---------- ------- ---------- ------- -- -------- This<br>---- --- ------ ----- ------ -- ---- --- ----- -- - -------<br>-------- -- --- --- -- ----- ----------- ----- -----------<br>---- --- ---------- --- ---- --- -- ----------,214987.9550000005,214986.87500000052,214406.222,214420.84500000055,214422.771,215006.539,,24,This
screen,html.Screen,2_3_1_0_1_25,2021-04-26T09:34:19.535Z,,,,,,,,,,,,,,,,,51,,,,,,,,,,,,,,278.846000000136,,response,,,,13,A,,,,,,Space,keypress(Space),,,,silence,,,,-------- -------- --- --- ---- --- --- ------ -- --------<br>---- --------- --- ------- ------------ ---------- ---------<br>--- ---------- ------- ---------- ------- -- -------- ----<br>week --- ------ ----- ------ -- ---- --- ----- -- - -------<br>-------- -- --- --- -- ----- ----------- ----- -----------<br>---- --- ---------- --- ---- --- -- ----------,215286.10000000027,215285.38500000013,214972.81,214988.24000000057,215006.539,215289.32,,25,week
screen,html.Screen,2_3_1_0_1_26,2021-04-26T09:34:19.903Z,,,,,,,,,,,,,,,,,51,,,,,,,,,,,,,,363.4749999999767,,response,,,,13,A,,,,,,Space,keypress(Space),,,,silence,,,,-------- -------- --- --- ---- --- --- ------ -- --------<br>---- --------- --- ------- ------------ ---------- ---------<br>--- ---------- ------- ---------- ------- -- -------- ----<br>---- the ------ ----- ------ -- ---- --- ----- -- - -------<br>-------- -- --- --- -- ----- ----------- ----- -----------<br>---- --- ---------- --- ---- --- -- ----------,215653.86500000022,215652.79499999998,215272.807,215286.30000000066,215289.32,215655.998,,26,the
screen,html.Screen,2_3_1_0_1_27,2021-04-26T09:34:20.216Z,,,,,,,,,,,,,,,,,51,,,,,,,,,,,,,,309.51700000077835,,response,,,,13,A,,,,,,Space,keypress(Space),,,,silence,,,,-------- -------- --- --- ---- --- --- ------ -- --------<br>---- --------- --- ------- ------------ ---------- ---------<br>--- ---------- ------- ---------- ------- -- -------- ----<br>---- --- Senate ----- ------ -- ---- --- ----- -- - -------<br>-------- -- --- --- -- ----- ----------- ----- -----------<br>---- --- ---------- --- ---- --- -- ----------,215966.62000000014,215965.51500000077,215639.436,215654.1500000003,215655.998,215972.659,,27,Senate
screen,html.Screen,2_3_1_0_1_28,2021-04-26T09:34:20.524Z,,,,,,,,,,,,,,,,,51,,,,,,,,,,,,,,301.15100000056555,,response,,,,13,A,,,,,,Space,keypress(Space),,,,silence,,,,-------- -------- --- --- ---- --- --- ------ -- --------<br>---- --------- --- ------- ------------ ---------- ---------<br>--- ---------- ------- ---------- ------- -- -------- ----<br>---- --- ------ seems ------ -- ---- --- ----- -- - -------<br>-------- -- --- --- -- ----- ----------- ----- -----------<br>---- --- ---------- --- ---- --- -- ----------,216274.80000000013,216273.81000000058,215956.099,215966.91499999998,215972.659,216289.301,,28,seems
screen,html.Screen,2_3_1_0_1_29,2021-04-26T09:34:20.832Z,,,,,,,,,,,,,,,,,51,,,,,,,,,,,,,,292.05400000026566,,response,,,,13,A,,,,,,Space,keypress(Space),,,,silence,,,,-------- -------- --- --- ---- --- --- ------ -- --------<br>---- --------- --- ------- ------------ ---------- ---------<br>--- ---------- ------- ---------- ------- -- -------- ----<br>---- --- ------ ----- poised -- ---- --- ----- -- - -------<br>-------- -- --- --- -- ----- ----------- ----- -----------<br>---- --- ---------- --- ---- --- -- ----------,216583.10500000062,216581.35500000027,216272.714,216275.08500000022,216289.301,216605.957,,29,poised
screen,html.Screen,2_3_1_0_1_30,2021-04-26T09:34:21.185Z,,,,,,,,,,,,,,,,,51,,,,,,,,,,,,,,328.37799999990966,,response,,,,13,A,,,,,,Space,keypress(Space),,,,silence,,,,-------- -------- --- --- ---- --- --- ------ -- --------<br>---- --------- --- ------- ------------ ---------- ---------<br>--- ---------- ------- ---------- ------- -- -------- ----<br>---- --- ------ ----- ------ to ---- --- ----- -- - -------<br>-------- -- --- --- -- ----- ----------- ----- -----------<br>---- --- ---------- --- ---- --- -- ----------,216935.37000000014,216934.3349999999,216589.272,216583.41500000007,216605.957,216939.248,,30,to
screen,html.Screen,2_3_1_0_1_31,2021-04-26T09:34:21.533Z,,,,,,,,,,,,,,,,,51,,,,,,,,,,,,,,343.1420000003127,,response,,,,13,A,,,,,,Space,keypress(Space),,,,silence,,,,-------- -------- --- --- ---- --- --- ------ -- --------<br>---- --------- --- ------- ------------ ---------- ---------<br>--- ---------- ------- ---------- ------- -- -------- ----<br>---- --- ------ ----- ------ -- join --- ----- -- - -------<br>-------- -- --- --- -- ----- ----------- ----- -----------<br>---- --- ---------- --- ---- --- -- ----------,217283.40000000026,217282.3900000003,216922.672,216935.73000000016,216939.248,217289.208,,31,join
screen,html.Screen,2_3_1_0_1_32,2021-04-26T09:34:21.860Z,,,,,,,,,,,,,,,,,51,,,,,,,,,,,,,,320.08700000020326,,response,,,,13,A,,,,,,Space,keypress(Space),,,,silence,,,,-------- -------- --- --- ---- --- --- ------ -- --------<br>---- --------- --- ------- ------------ ---------- ---------<br>--- ---------- ------- ---------- ------- -- -------- ----<br>---- --- ------ ----- ------ -- ---- the ----- -- - -------<br>-------- -- --- --- -- ----- ----------- ----- -----------<br>---- --- ---------- --- ---- --- -- ----------,217610.3350000003,217609.29500000022,217272.642,217283.68000000046,217289.208,217622.574,,32,the
screen,html.Screen,2_3_1_0_1_33,2021-04-26T09:34:22.391Z,,,,,,,,,,,,,,,,,51,,,,,,,,,,,,,,518.3210000004619,,response,,,,13,A,,,,,,Space,keypress(Space),,,,silence,,,,-------- -------- --- --- ---- --- --- ------ -- --------<br>---- --------- --- ------- ------------ ---------- ---------<br>--- ---------- ------- ---------- ------- -- -------- ----<br>---- --- ------ ----- ------ -- ---- --- House -- - -------<br>-------- -- --- --- -- ----- ----------- ----- -----------<br>---- --- ---------- --- ---- --- -- ----------,218141.93500000055,218140.89500000046,217605.963,217610.62500000026,217622.574,218155.942,,33,House
screen,html.Screen,2_3_1_0_1_34,2021-04-26T09:34:22.704Z,,,,,,,,,,,,,,,,,51,,,,,,,,,,,,,,297.8130000004603,,response,,,,13,A,,,,,,Space,keypress(Space),,,,silence,,,,-------- -------- --- --- ---- --- --- ------ -- --------<br>---- --------- --- ------- ------------ ---------- ---------<br>--- ---------- ------- ---------- ------- -- -------- ----<br>---- --- ------ ----- ------ -- ---- --- ----- in - -------<br>-------- -- --- --- -- ----- ----------- ----- -----------<br>---- --- ---------- --- ---- --- -- ----------,218454.78499999992,218453.75500000047,218139.228,218142.21500000075,218155.942,218489.108,,34,in
screen,html.Screen,2_3_1_0_1_35,2021-04-26T09:34:23.062Z,,,,,,,,,,,,,,,,,51,,,,,,,,,,,,,,322.1370000007737,,response,,,,13,A,,,,,,Space,keypress(Space),,,,silence,,,,-------- -------- --- --- ---- --- --- ------ -- --------<br>---- --------- --- ------- ------------ ---------- ---------<br>--- ---------- ------- ---------- ------- -- -------- ----<br>---- --- ------ ----- ------ -- ---- --- ----- -- a -------<br>-------- -- --- --- -- ----- ----------- ----- -----------<br>---- --- ---------- --- ---- --- -- ----------,218812.3650000007,218811.24500000078,218472.458,218455.1500000007,218489.108,218822.511,,35,a
screen,html.Screen,2_3_1_0_1_36,2021-04-26T09:34:23.460Z,,,,,,,,,,,,,,,,,51,,,,,,,,,,,,,,387.02900000073714,,response,,,,13,A,,,,,,Space,keypress(Space),,,,silence,,,,-------- -------- --- --- ---- --- --- ------ -- --------<br>---- --------- --- ------- ------------ ---------- ---------<br>--- ---------- ------- ---------- ------- -- -------- ----<br>---- --- ------ ----- ------ -- ---- --- ----- -- - massive<br>-------- -- --- --- -- ----- ----------- ----- -----------<br>---- --- ---------- --- ---- --- -- ----------,219210.56500000032,219209.54000000074,218805.872,218812.6400000001,218822.511,219222.508,,36,massive
screen,html.Screen,2_3_1_0_1_37,2021-04-26T09:34:23.889Z,,,,,,,,,,,,,,,,,51,,,,,,,,,,,,,,415.81200000000536,,response,,,,13,A,,,,,,Space,keypress(Space),,,,silence,,,,-------- -------- --- --- ---- --- --- ------ -- --------<br>---- --------- --- ------- ------------ ---------- ---------<br>--- ---------- ------- ---------- ------- -- -------- ----<br>---- --- ------ ----- ------ -- ---- --- ----- -- - -------<br>overhaul -- --- --- -- ----- ----------- ----- -----------<br>---- --- ---------- --- ---- --- -- ----------,219639.38000000053,219638.32,219205.821,219210.85000000038,219222.508,219655.755,,37,overhaul
