sender,sender_type,sender_id,timestamp,meta,,Blues,Classical,Country,Dance,Electronic,Folk,Gospel,Hip-Hop,Jazz,Latin,Musical/Film,New-age,Pop,Prolific_id,Provo_ID,R&B,Rap,Reggae,Religious,Rock,Soul,Swing,Traditional,age,artist_name,correct,correctResponse,distraction,duration,education,ended_on,familiarity,gender,headphone_check_performance,item,list,music_frequency,offensiveness,pleasantness,position_correct,preference,response,response_action,snippet_file,song_name,song_rating,sound,stimulus_1,stimulus_2,stimulus_3,text,time_commit,time_end,time_render,time_run,time_show,time_switch,url,word,word_ID
Prolific ID,html.Form,0,2021-04-26T14:29:42.328Z,"{""labjs_version"":""20.2.2"",""labjs_build"":{""flavor"":""production"",""commit"":""a25486e0c714a0ae2ce03ff94b7bb6896854dcfa""},""location"":""https://run.pavlovia.org/mvasilev/prolific_music_c/"",""userAgent"":""Mozilla/5.0 (Macintosh; Intel Mac OS X 10.15; rv:88.0) Gecko/20100101 Firefox/88.0"",""platform"":""MacIntel"",""language"":""en-GB"",""locale"":""en-GB"",""timeZone"":""Europe/London"",""timezoneOffset"":-60,""screen_width"":1440,""screen_height"":900,""scroll_width"":1440,""scroll_height"":778,""window_innerWidth"":1440,""window_innerHeight"":826,""devicePixelRatio"":2}",,,,,,,,,,,,,,,5f8d77f0b348950659f1919e,,,,,,,,,,,,,,,13484.92,,form submission,,,,,,,,,,,,,,,,,,,,,27823,27822,14320.42,14314,14337.08,27837.46,{},,
Introduction,html.Screen,1_0,2021-04-26T14:29:48.294Z,,,,,,,,,,,,,,,,,,,,,,,,,,,,,,,5947.540000000001,,response,,,,,,,,,,,continue,click button,,,,,,,,,33789,33785,27820.8,27824,27837.46,33804.32,,,
Volume calibration,html.Screen,1_1,2021-04-26T14:30:19.903Z,,,,,,,,,,,,,,,,,,,,,,,,,,,,,,,31591.68,,response,,,,,,,,,,,continue,click button,,,,,,,,,65399,65396,33787.64,33790,33804.32,65420.86,,,
Task instructions,html.Screen,1_2,2021-04-26T14:30:28.928Z,,,,,,,,,,,,,,,,,,,,,,,,,,,,,,,9000.14,,response,,,,,,,,,,,continue,click button,,,,,,,,,74425,74421,65404.18,65400,65420.86,74454.44,,,
Sounds,html.Screen,1_3_0_0,2021-04-26T14:30:33.195Z,,,,,,,,,,,,,,,,,,,,,,,,,,,,,,,4251.080000000002,,timeout,,,,,,,,,1,,,,,,,,S,I,O,,78692,78688.88,74438.8,74428,74454.44,78705.52,,,
Judgement,html.Screen,1_3_0_1,2021-04-26T14:30:35.001Z,,,,,,,,,,,,,,,,,,,,,,,,,,,,true,1,,1789.479999999996,,response,,,,,,,,,1,,1,click #choice-1,,,,,S,I,O,,80498,80495,78688.88,78693,78705.52,80522.3,,,
Trial,flow.Sequence,1_3_0,2021-04-26T14:30:35.002Z,,,,,,,,,,,,,,,,,,,,,,,,,,,,,,,6040.559999999998,,completion,,,,,,,,,1,,,,,,,,S,I,O,,80500,80495,74438.8,74428,74454.44,80522.3,,,
Sounds,html.Screen,1_3_1_0,2021-04-26T14:30:39.260Z,,,,,,,,,,,,,,,,,,,,,,,,,,,,,,,4250.059999999998,,timeout,,,,,,,,,2,,,,,,,,O,S,I,,84757,84755.68,80505.58,80501,80522.3,84772.36,,,
Judgement,html.Screen,1_3_1_1,2021-04-26T14:30:40.685Z,,,,,,,,,,,,,,,,,,,,,,,,,,,,true,2,,1407.6399999999994,,response,,,,,,,,,2,,2,click #choice-2,,,,,O,S,I,,86183,86180,84755.68,84758,84772.36,86205.74,,,
Trial,flow.Sequence,1_3_1,2021-04-26T14:30:40.686Z,,,,,,,,,,,,,,,,,,,,,,,,,,,,,,,5657.699999999997,,completion,,,,,,,,,2,,,,,,,,O,S,I,,86184,86180,80505.58,80501,80522.3,86205.74,,,
Sounds,html.Screen,1_3_2_0,2021-04-26T14:30:44.943Z,,,,,,,,,,,,,,,,,,,,,,,,,,,,,,,4250.119999999995,,timeout,,,,,,,,,1,,,,,,,,S,O,I,,90441,90439.18,86189.06,86184,86205.74,90455.86,,,
Judgement,html.Screen,1_3_2_1,2021-04-26T14:30:46.835Z,,,,,,,,,,,,,,,,,,,,,,,,,,,,true,1,,1873.1399999999994,,response,,,,,,,,,1,,1,click #choice-1,,,,,S,O,I,,92333,92329,90439.18,90442,90455.86,92355.94,,,
Trial,flow.Sequence,1_3_2,2021-04-26T14:30:46.836Z,,,,,,,,,,,,,,,,,,,,,,,,,,,,,,,6123.259999999995,,completion,,,,,,,,,1,,,,,,,,S,O,I,,92333,92329,86189.06,86184,86205.74,92355.94,,,
Sounds,html.Screen,1_3_3_0,2021-04-26T14:30:51.093Z,,,,,,,,,,,,,,,,,,,,,,,,,,,,,,,4250.080000000002,,timeout,,,,,,,,,3,,,,,,,,O,I,S,,96590,96588.84,92339.26,92333,92355.94,96606.02,,,
Judgement,html.Screen,1_3_3_1,2021-04-26T14:30:52.340Z,,,,,,,,,,,,,,,,,,,,,,,,,,,,true,3,,1229.979999999996,,response,,,,,,,,,3,,3,click #choice-3,,,,,O,I,S,,97838,97836,96588.84,96591,96606.02,97856.06,,,
Trial,flow.Sequence,1_3_3,2021-04-26T14:30:52.341Z,,,,,,,,,,,,,,,,,,,,,,,,,,,,,,,5480.059999999998,,completion,,,,,,,,,3,,,,,,,,O,I,S,,97839,97836,92339.26,92333,92355.94,97856.06,,,
Sounds,html.Screen,1_3_4_0,2021-04-26T14:30:56.593Z,,,,,,,,,,,,,,,,,,,,,,,,,,,,,,,4250.119999999995,,timeout,,,,,,,,,2,,,,,,,,I,S,O,,102091,102089.5,97839.46,97839,97856.06,102106.18,,,
Judgement,html.Screen,1_3_4_1,2021-04-26T14:30:57.704Z,,,,,,,,,,,,,,,,,,,,,,,,,,,,true,2,,1091.820000000007,,response,,,,,,,,,2,,2,click #choice-2,,,,,I,S,O,,103201,103198,102089.5,102091,102106.18,103222.88,,,
Trial,flow.Sequence,1_3_4,2021-04-26T14:30:57.704Z,,,,,,,,,,,,,,,,,,,,,,,,,,,,,,,5341.940000000002,,completion,,,,,,,,,2,,,,,,,,I,S,O,,103202,103198,97839.46,97839,97856.06,103222.88,,,
Sounds,html.Screen,1_3_5_0,2021-04-26T14:31:01.959Z,,,,,,,,,,,,,,,,,,,,,,,,,,,,,,,4250.119999999995,,timeout,,,,,,,,,3,,,,,,,,I,O,S,,107457,107456.32,103206.2,103202,103222.88,107473,,,
Judgement,html.Screen,1_3_5_1,2021-04-26T14:31:02.701Z,,,,,,,,,,,,,,,,,,,,,,,,,,,,true,3,,723,,response,,,,,,,,,3,,3,click #choice-3,,,,,I,O,S,,108200,108196,107456.32,107458,107473,108223,,,
Trial,flow.Sequence,1_3_5,2021-04-26T14:31:02.702Z,,,,,,,,,,,,,,,,,,,,,,,,,,,,,,,4973.119999999995,,completion,,,,,,,,,3,,,,,,,,I,O,S,,108200,108196,103206.2,103202,103222.88,108223,,,
Task,flow.Loop,1_3,2021-04-26T14:31:02.703Z,,,,,,,,,,,,,,,,,,,,,,,,,,,,,,,33741.56,,completion,,,1,,,,,,,,,,,,,,,,,,108201,108196,74438.8,74427,74454.44,108223,,,
Trap,html.Screen,1_4,2021-04-26T14:31:02.706Z,,,,,,,,,,,,,,,,,,,,,,,,,,,,,,,NaN,,skipped,,,,,,,,,,,,,,,,,,,,,108204,108196,,108204,,108223,,,
Thanks,html.Screen,1_5,2021-04-26T14:31:15.129Z,,,,,,,,,,,,,,,,,,,,,,,,,,,,,,,12403,,response,,,,,,,,,,,continue,click button,,,,,,,,,120628,120626,108206.36,108205,108223,122856.74,,,
Headphone screening,flow.Sequence,1,2021-04-26T14:31:15.130Z,,,,,,,,,,,,,,,,,,,,,,,,,,,,,,,92788.54000000001,,completion,,,,,,,,,,,,,,,,,,,,,120628,120626,27820.8,27824,27837.46,122856.74,,,
Instructions,html.Page,2_0,2021-04-26T14:31:36.476Z,,,,,,,,,,,,,,,,,,,,,,,,,,,,,,,19118.259999999995,,form submission,,,,,,,,,,,,,,,,,,,,,141976,141975,122840.08,122838,122856.74,141990.58,,,
Holding screen,html.Screen,2_1_0_0,2021-04-26T14:31:46.476Z,,,,,,,,,,,,,,,,,,,,,,,,,,,,,,,10000.340000000026,,timeout,,,,,,,,,,,,,,,,,,,,,151976,151974.2,141973.94,141978,141990.58,151990.92,,,
screen,html.Screen,2_1_0_1_0,2021-04-26T14:31:49.048Z,,,,,,,,,,,,,,,,,53,,,,,,,,,,,,,,2548.079999999987,,response,,,,99,,,,,,,Space,keypress(Space),,,,,,,,When -- ----- -- ------ - ------- --- ----------<br>------------- ------ ------ ---- ---- ------- ----- -- ----<br>-------- ------- -- ---------- --- - --- ----- ----- ----<br>---- --- --- ----- --- ---- ---- ------- ----- ---- -------<br>--- --- -- ----- -- --- ---- -- --- ---- -- ------ ------<br>--- ----- -- ----,154549,154539,151974.2,151978,151990.92,154574.32,,0,When
screen,html.Screen,2_1_0_1_1,2021-04-26T14:31:49.520Z,,,,,,,,,,,,,,,,,53,,,,,,,,,,,,,,438.679999999993,,response,,,,99,,,,,,,Space,keypress(Space),,,,,,,,---- it ----- -- ------ - ------- --- ----------<br>------------- ------ ------ ---- ---- ------- ----- -- ----<br>-------- ------- -- ---------- --- - --- ----- ----- ----<br>---- --- --- ----- --- ---- ---- ------- ----- ---- -------<br>--- --- -- ----- -- --- ---- -- --- ---- -- ------ ------<br>--- ----- -- ----,155021,155013,154557.64,154549,154574.32,155041,,1,it
screen,html.Screen,2_1_0_1_2,2021-04-26T14:31:50.020Z,,,,,,,,,,,,,,,,,53,,,,,,,,,,,,,,472,,response,,,,99,,,,,,,Space,keypress(Space),,,,,,,,---- -- comes -- ------ - ------- --- ----------<br>------------- ------ ------ ---- ---- ------- ----- -- ----<br>-------- ------- -- ---------- --- - --- ----- ----- ----<br>---- --- --- ----- --- ---- ---- ------- ----- ---- -------<br>--- --- -- ----- -- --- ---- -- --- ---- -- ------ ------<br>--- ----- -- ----,155520,155513,155024.32,155021,155041,155540.06,,2,comes
screen,html.Screen,2_1_0_1_3,2021-04-26T14:31:50.428Z,,,,,,,,,,,,,,,,,53,,,,,,,,,,,,,,382.9400000000023,,response,,,,99,,,,,,,Space,keypress(Space),,,,,,,,---- -- ----- to ------ - ------- --- ----------<br>------------- ------ ------ ---- ---- ------- ----- -- ----<br>-------- ------- -- ---------- --- - --- ----- ----- ----<br>---- --- --- ----- --- ---- ---- ------- ----- ---- -------<br>--- --- -- ----- -- --- ---- -- --- ---- -- ------ ------<br>--- ----- -- ----,155929,155923,155524.36,155520,155540.06,155957.42,,3,to
screen,html.Screen,2_1_0_1_4,2021-04-26T14:31:50.993Z,,,,,,,,,,,,,,,,,53,,,,,,,,,,,,,,529.5799999999872,,response,,,,99,,,,,,,Space,keypress(Space),,,,,,,,---- -- ----- -- having - ------- --- ----------<br>------------- ------ ------ ---- ---- ------- ----- -- ----<br>-------- ------- -- ---------- --- - --- ----- ----- ----<br>---- --- --- ----- --- ---- ---- ------- ----- ---- -------<br>--- --- -- ----- -- --- ---- -- --- ---- -- ------ ------<br>--- ----- -- ----,156494,156487,155941.04,155930,155957.42,156524.42,,4,having
screen,html.Screen,2_1_0_1_5,2021-04-26T14:31:51.407Z,,,,,,,,,,,,,,,,,53,,,,,,,,,,,,,,375.5799999999872,,response,,,,99,,,,,,,Space,keypress(Space),,,,,,,,---- -- ----- -- ------ a ------- --- ----------<br>------------- ------ ------ ---- ---- ------- ----- -- ----<br>-------- ------- -- ---------- --- - --- ----- ----- ----<br>---- --- --- ----- --- ---- ---- ------- ----- ---- -------<br>--- --- -- ----- -- --- ---- -- --- ---- -- ------ ------<br>--- ----- -- ----,156907,156900,156507.76,156494,156524.42,156941.08,,5,a
screen,html.Screen,2_1_0_1_6,2021-04-26T14:31:51.881Z,,,,,,,,,,,,,,,,,53,,,,,,,,,,,,,,434.9200000000128,,response,,,,99,,,,,,,Space,keypress(Space),,,,,,,,---- -- ----- -- ------ - lasting --- ----------<br>------------- ------ ------ ---- ---- ------- ----- -- ----<br>-------- ------- -- ---------- --- - --- ----- ----- ----<br>---- --- --- ----- --- ---- ---- ------- ----- ---- -------<br>--- --- -- ----- -- --- ---- -- --- ---- -- ------ ------<br>--- ----- -- ----,157382,157376,156924.48,156908,156941.08,157407.8,,6,lasting
screen,html.Screen,2_1_0_1_7,2021-04-26T14:31:52.246Z,,,,,,,,,,,,,,,,,53,,,,,,,,,,,,,,331.20000000001164,,response,,,,99,,,,,,,Space,keypress(Space),,,,,,,,---- -- ----- -- ------ - ------- and ----------<br>------------- ------ ------ ---- ---- ------- ----- -- ----<br>-------- ------- -- ---------- --- - --- ----- ----- ----<br>---- --- --- ----- --- ---- ---- ------- ----- ---- -------<br>--- --- -- ----- -- --- ---- -- --- ---- -- ------ ------<br>--- ----- -- ----,157746,157739,157391.1,157382,157407.8,157774.46,,7,and
screen,html.Screen,2_1_0_1_8,2021-04-26T14:31:52.686Z,,,,,,,,,,,,,,,,,53,,,,,,,,,,,,,,404.54000000000815,,response,,,,99,,,,,,,Space,keypress(Space),,,,,,,,---- -- ----- -- ------ - ------- --- fulfilling<br>------------- ------ ------ ---- ---- ------- ----- -- ----<br>-------- ------- -- ---------- --- - --- ----- ----- ----<br>---- --- --- ----- --- ---- ---- ------- ----- ---- -------<br>--- --- -- ----- -- --- ---- -- --- ---- -- ------ ------<br>--- ----- -- ----,158186,158179,157757.8,157746,157774.46,158207.8,,8,fulfilling
screen,html.Screen,2_1_0_1_9,2021-04-26T14:31:53.094Z,,,,,,,,,,,,,,,,,53,,,,,,,,,,,,,,381.20000000001164,,response,,,,99,,,,,,,Space,keypress(Space),,,,,,,,"---- -- ----- -- ------ - ------- --- ----------<br>relationship, ------ ------ ---- ---- ------- ----- -- ----<br>-------- ------- -- ---------- --- - --- ----- ----- ----<br>---- --- --- ----- --- ---- ---- ------- ----- ---- -------<br>--- --- -- ----- -- --- ---- -- --- ---- -- ------ ------<br>--- ----- -- ----",158595,158589,158191.12,158187,158207.8,158624.46,,9,"relationship,"
screen,html.Screen,2_1_0_1_10,2021-04-26T14:31:53.523Z,,,,,,,,,,,,,,,,,53,,,,,,,,,,,,,,393.54000000000815,,response,,,,99,,,,,,,Space,keypress(Space),,,,,,,,---- -- ----- -- ------ - ------- --- ----------<br>------------- common ------ ---- ---- ------- ----- -- ----<br>-------- ------- -- ---------- --- - --- ----- ----- ----<br>---- --- --- ----- --- ---- ---- ------- ----- ---- -------<br>--- --- -- ----- -- --- ---- -- --- ---- -- ------ ------<br>--- ----- -- ----,159024,159018,158607.8,158595,158624.46,159057.86,,10,common
screen,html.Screen,2_1_0_1_11,2021-04-26T14:31:54.037Z,,,,,,,,,,,,,,,,,53,,,,,,,,,,,,,,474.14000000001397,,response,,,,99,,,,,,,Space,keypress(Space),,,,,,,,---- -- ----- -- ------ - ------- --- ----------<br>------------- ------ wisdom ---- ---- ------- ----- -- ----<br>-------- ------- -- ---------- --- - --- ----- ----- ----<br>---- --- --- ----- --- ---- ---- ------- ----- ---- -------<br>--- --- -- ----- -- --- ---- -- --- ---- -- ------ ------<br>--- ----- -- ----,159538,159532,159041.18,159024,159057.86,159557.86,,11,wisdom
screen,html.Screen,2_1_0_1_12,2021-04-26T14:31:54.410Z,,,,,,,,,,,,,,,,,53,,,,,,,,,,,,,,348.14000000001397,,response,,,,99,,,,,,,Space,keypress(Space),,,,,,,,---- -- ----- -- ------ - ------- --- ----------<br>------------- ------ ------ says ---- ------- ----- -- ----<br>-------- ------- -- ---------- --- - --- ----- ----- ----<br>---- --- --- ----- --- ---- ---- ------- ----- ---- -------<br>--- --- -- ----- -- --- ---- -- --- ---- -- ------ ------<br>--- ----- -- ----,159911,159906,159541.18,159538,159557.86,159941.22,,12,says
screen,html.Screen,2_1_0_1_13,2021-04-26T14:31:54.809Z,,,,,,,,,,,,,,,,,53,,,,,,,,,,,,,,362.77999999999884,,response,,,,99,,,,,,,Space,keypress(Space),,,,,,,,---- -- ----- -- ------ - ------- --- ----------<br>------------- ------ ------ ---- that ------- ----- -- ----<br>-------- ------- -- ---------- --- - --- ----- ----- ----<br>---- --- --- ----- --- ---- ---- ------- ----- ---- -------<br>--- --- -- ----- -- --- ---- -- --- ---- -- ------ ------<br>--- ----- -- ----,160310,160304,159924.58,159911,159941.22,160341.22,,13,that
screen,html.Screen,2_1_0_1_14,2021-04-26T14:31:55.201Z,,,,,,,,,,,,,,,,,53,,,,,,,,,,,,,,353.77999999999884,,response,,,,99,,,,,,,Space,keypress(Space),,,,,,,,---- -- ----- -- ------ - ------- --- ----------<br>------------- ------ ------ ---- ---- feeling ----- -- ----<br>-------- ------- -- ---------- --- - --- ----- ----- ----<br>---- --- --- ----- --- ---- ---- ------- ----- ---- -------<br>--- --- -- ----- -- --- ---- -- --- ---- -- ------ ------<br>--- ----- -- ----,160701,160695,160324.54,160310,160341.22,160724.56,,14,feeling
screen,html.Screen,2_1_0_1_15,2021-04-26T14:31:55.547Z,,,,,,,,,,,,,,,,,53,,,,,,,,,,,,,,317.4400000000023,,response,,,,99,,,,,,,Space,keypress(Space),,,,,,,,---- -- ----- -- ------ - ------- --- ----------<br>------------- ------ ------ ---- ---- ------- close -- ----<br>-------- ------- -- ---------- --- - --- ----- ----- ----<br>---- --- --- ----- --- ---- ---- ------- ----- ---- -------<br>--- --- -- ----- -- --- ---- -- --- ---- -- ------ ------<br>--- ----- -- ----,161047,161042,160707.88,160702,160724.56,161073.7,,15,close
screen,html.Screen,2_1_0_1_16,2021-04-26T14:31:55.864Z,,,,,,,,,,,,,,,,,53,,,,,,,,,,,,,,285.29999999998836,,response,,,,99,,,,,,,Space,keypress(Space),,,,,,,,---- -- ----- -- ------ - ------- --- ----------<br>------------- ------ ------ ---- ---- ------- ----- to ----<br>-------- ------- -- ---------- --- - --- ----- ----- ----<br>---- --- --- ----- --- ---- ---- ------- ----- ---- -------<br>--- --- -- ----- -- --- ---- -- --- ---- -- ------ ------<br>--- ----- -- ----,161365,161359,161057.88,161048,161073.7,161391.28,,16,to
screen,html.Screen,2_1_0_1_17,2021-04-26T14:31:56.196Z,,,,,,,,,,,,,,,,,53,,,,,,,,,,,,,,299.72000000000116,,response,,,,99,,,,,,,Space,keypress(Space),,,,,,,,---- -- ----- -- ------ - ------- --- ----------<br>------------- ------ ------ ---- ---- ------- ----- -- your<br>-------- ------- -- ---------- --- - --- ----- ----- ----<br>---- --- --- ----- --- ---- ---- ------- ----- ---- -------<br>--- --- -- ----- -- --- ---- -- --- ---- -- ------ ------<br>--- ----- -- ----,161697,161691,161374.56,161365,161391.28,161724.6,,17,your
screen,html.Screen,2_1_0_1_18,2021-04-26T14:31:56.527Z,,,,,,,,,,,,,,,,,53,,,,,,,,,,,,,,297.3999999999942,,response,,,,99,,,,,,,Space,keypress(Space),,,,,,,,---- -- ----- -- ------ - ------- --- ----------<br>------------- ------ ------ ---- ---- ------- ----- -- ----<br>romantic ------- -- ---------- --- - --- ----- ----- ----<br>---- --- --- ----- --- ---- ---- ------- ----- ---- -------<br>--- --- -- ----- -- --- ---- -- --- ---- -- ------ ------<br>--- ----- -- ----,162028,162022,161707.92,161697,161724.6,162057.94,,18,romantic
screen,html.Screen,2_1_0_1_19,2021-04-26T14:31:56.830Z,,,,,,,,,,,,,,,,,53,,,,,,,,,,,,,,266.0599999999977,,response,,,,99,,,,,,,Space,keypress(Space),,,,,,,,---- -- ----- -- ------ - ------- --- ----------<br>------------- ------ ------ ---- ---- ------- ----- -- ----<br>-------- partner -- ---------- --- - --- ----- ----- ----<br>---- --- --- ----- --- ---- ---- ------- ----- ---- -------<br>--- --- -- ----- -- --- ---- -- --- ---- -- ------ ------<br>--- ----- -- ----,162330,162324,162041.26,162028,162057.94,162357.94,,19,partner
screen,html.Screen,2_1_0_1_20,2021-04-26T14:31:57.139Z,,,,,,,,,,,,,,,,,53,,,,,,,,,,,,,,277.0599999999977,,response,,,,99,,,,,,,Space,keypress(Space),,,,,,,,---- -- ----- -- ------ - ------- --- ----------<br>------------- ------ ------ ---- ---- ------- ----- -- ----<br>-------- ------- is ---------- --- - --- ----- ----- ----<br>---- --- --- ----- --- ---- ---- ------- ----- ---- -------<br>--- --- -- ----- -- --- ---- -- --- ---- -- ------ ------<br>--- ----- -- ----,162639,162635,162341.26,162331,162357.94,162657.94,,20,is
screen,html.Screen,2_1_0_1_21,2021-04-26T14:31:57.436Z,,,,,,,,,,,,,,,,,53,,,,,,,,,,,,,,274.0599999999977,,response,,,,99,,,,,,,Space,keypress(Space),,,,,,,,---- -- ----- -- ------ - ------- --- ----------<br>------------- ------ ------ ---- ---- ------- ----- -- ----<br>-------- ------- -- paramount. --- - --- ----- ----- ----<br>---- --- --- ----- --- ---- ---- ------- ----- ---- -------<br>--- --- -- ----- -- --- ---- -- --- ---- -- ------ ------<br>--- ----- -- ----,162937,162932,162641.26,162641,162657.94,162957.98,,21,paramount.
screen,html.Screen,2_1_0_1_22,2021-04-26T14:31:57.742Z,,,,,,,,,,,,,,,,,53,,,,,,,,,,,,,,279.0199999999895,,response,,,,99,,,,,,,Space,keypress(Space),,,,,,,,---- -- ----- -- ------ - ------- --- ----------<br>------------- ------ ------ ---- ---- ------- ----- -- ----<br>-------- ------- -- ---------- But - --- ----- ----- ----<br>---- --- --- ----- --- ---- ---- ------- ----- ---- -------<br>--- --- -- ----- -- --- ---- -- --- ---- -- ------ ------<br>--- ----- -- ----,163243,163237,162941.3,162937,162957.98,163274.62,,22,But
screen,html.Screen,2_1_0_1_23,2021-04-26T14:31:58.054Z,,,,,,,,,,,,,,,,,53,,,,,,,,,,,,,,274.38000000000466,,response,,,,99,,,,,,,Space,keypress(Space),,,,,,,,---- -- ----- -- ------ - ------- --- ----------<br>------------- ------ ------ ---- ---- ------- ----- -- ----<br>-------- ------- -- ---------- --- a --- ----- ----- ----<br>---- --- --- ----- --- ---- ---- ------- ----- ---- -------<br>--- --- -- ----- -- --- ---- -- --- ---- -- ------ ------<br>--- ----- -- ----,163555,163549,163257.92,163243,163274.62,163574.62,,23,a
screen,html.Screen,2_1_0_1_24,2021-04-26T14:31:58.384Z,,,,,,,,,,,,,,,,,53,,,,,,,,,,,,,,304.38000000000466,,response,,,,99,,,,,,,Space,keypress(Space),,,,,,,,---- -- ----- -- ------ - ------- --- ----------<br>------------- ------ ------ ---- ---- ------- ----- -- ----<br>-------- ------- -- ---------- --- - new ----- ----- ----<br>---- --- --- ----- --- ---- ---- ------- ----- ---- -------<br>--- --- -- ----- -- --- ---- -- --- ---- -- ------ ------<br>--- ----- -- ----,163885,163879,163557.02,163555,163574.62,163907.98,,24,new
screen,html.Screen,2_1_0_1_25,2021-04-26T14:31:58.693Z,,,,,,,,,,,,,,,,,53,,,,,,,,,,,,,,280.0199999999895,,response,,,,99,,,,,,,Space,keypress(Space),,,,,,,,---- -- ----- -- ------ - ------- --- ----------<br>------------- ------ ------ ---- ---- ------- ----- -- ----<br>-------- ------- -- ---------- --- - --- study ----- ----<br>---- --- --- ----- --- ---- ---- ------- ----- ---- -------<br>--- --- -- ----- -- --- ---- -- --- ---- -- ------ ------<br>--- ----- -- ----,164194,164188,163891.2,163886,163907.98,164224.62,,25,study
screen,html.Screen,2_1_0_1_26,2021-04-26T14:31:59.015Z,,,,,,,,,,,,,,,,,53,,,,,,,,,,,,,,285.38000000000466,,response,,,,99,,,,,,,Space,keypress(Space),,,,,,,,---- -- ----- -- ------ - ------- --- ----------<br>------------- ------ ------ ---- ---- ------- ----- -- ----<br>-------- ------- -- ---------- --- - --- ----- finds ----<br>---- --- --- ----- --- ---- ---- ------- ----- ---- -------<br>--- --- -- ----- -- --- ---- -- --- ---- -- ------ ------<br>--- ----- -- ----,164516,164510,164207.98,164194,164224.62,164541.3,,26,finds
screen,html.Screen,2_1_0_1_27,2021-04-26T14:31:59.310Z,,,,,,,,,,,,,,,,,53,,,,,,,,,,,,,,263.70000000001164,,response,,,,99,,,,,,,Space,keypress(Space),,,,,,,,---- -- ----- -- ------ - ------- --- ----------<br>------------- ------ ------ ---- ---- ------- ----- -- ----<br>-------- ------- -- ---------- --- - --- ----- ----- that<br>---- --- --- ----- --- ---- ---- ------- ----- ---- -------<br>--- --- -- ----- -- --- ---- -- --- ---- -- ------ ------<br>--- ----- -- ----,164810,164805,164524.62,164516,164541.3,164841.32,,27,that
screen,html.Screen,2_1_0_1_28,2021-04-26T14:31:59.605Z,,,,,,,,,,,,,,,,,53,,,,,,,,,,,,,,258.679999999993,,response,,,,99,,,,,,,Space,keypress(Space),,,,,,,,---- -- ----- -- ------ - ------- --- ----------<br>------------- ------ ------ ---- ---- ------- ----- -- ----<br>-------- ------- -- ---------- --- - --- ----- ----- ----<br>it's --- --- ----- --- ---- ---- ------- ----- ---- -------<br>--- --- -- ----- -- --- ---- -- --- ---- -- ------ ------<br>--- ----- -- ----,165105,165100,164824.62,164811,164841.32,165124.64,,28,it's
screen,html.Screen,2_1_0_1_29,2021-04-26T14:31:59.884Z,,,,,,,,,,,,,,,,,53,,,,,,,,,,,,,,254.35999999998603,,response,,,,99,,,,,,,Space,keypress(Space),,,,,,,,---- -- ----- -- ------ - ------- --- ----------<br>------------- ------ ------ ---- ---- ------- ----- -- ----<br>-------- ------- -- ---------- --- - --- ----- ----- ----<br>---- not --- ----- --- ---- ---- ------- ----- ---- -------<br>--- --- -- ----- -- --- ---- -- --- ---- -- ------ ------<br>--- ----- -- ----,165385,165379,165107.38,165106,165124.64,165408,,29,not
screen,html.Screen,2_1_0_1_30,2021-04-26T14:32:00.194Z,,,,,,,,,,,,,,,,,53,,,,,,,,,,,,,,281,,response,,,,99,,,,,,,Space,keypress(Space),,,,,,,,---- -- ----- -- ------ - ------- --- ----------<br>------------- ------ ------ ---- ---- ------- ----- -- ----<br>-------- ------- -- ---------- --- - --- ----- ----- ----<br>---- --- how ----- --- ---- ---- ------- ----- ---- -------<br>--- --- -- ----- -- --- ---- -- --- ---- -- ------ ------<br>--- ----- -- ----,165694,165689,165391.34,165385,165408,165724.66,,30,how
screen,html.Screen,2_1_0_1_31,2021-04-26T14:32:00.512Z,,,,,,,,,,,,,,,,,53,,,,,,,,,,,,,,282.3399999999965,,response,,,,99,,,,,,,Space,keypress(Space),,,,,,,,---- -- ----- -- ------ - ------- --- ----------<br>------------- ------ ------ ---- ---- ------- ----- -- ----<br>-------- ------- -- ---------- --- - --- ----- ----- ----<br>---- --- --- close --- ---- ---- ------- ----- ---- -------<br>--- --- -- ----- -- --- ---- -- --- ---- -- ------ ------<br>--- ----- -- ----,166013,166007,165708,165695,165724.66,166041.36,,31,close
screen,html.Screen,2_1_0_1_32,2021-04-26T14:32:00.820Z,,,,,,,,,,,,,,,,,53,,,,,,,,,,,,,,274.64000000001397,,response,,,,99,,,,,,,Space,keypress(Space),,,,,,,,---- -- ----- -- ------ - ------- --- ----------<br>------------- ------ ------ ---- ---- ------- ----- -- ----<br>-------- ------- -- ---------- --- - --- ----- ----- ----<br>---- --- --- ----- you ---- ---- ------- ----- ---- -------<br>--- --- -- ----- -- --- ---- -- --- ---- -- ------ ------<br>--- ----- -- ----,166321,166316,166024.68,166014,166041.36,166341.36,,32,you
screen,html.Screen,2_1_0_1_33,2021-04-26T14:32:01.142Z,,,,,,,,,,,,,,,,,53,,,,,,,,,,,,,,295.64000000001397,,response,,,,99,,,,,,,Space,keypress(Space),,,,,,,,---- -- ----- -- ------ - ------- --- ----------<br>------------- ------ ------ ---- ---- ------- ----- -- ----<br>-------- ------- -- ---------- --- - --- ----- ----- ----<br>---- --- --- ----- --- feel ---- ------- ----- ---- -------<br>--- --- -- ----- -- --- ---- -- --- ---- -- ------ ------<br>--- ----- -- ----,166642,166637,166324.66,166321,166341.36,166674.7,,33,feel
screen,html.Screen,2_1_0_1_34,2021-04-26T14:32:01.500Z,,,,,,,,,,,,,,,,,53,,,,,,,,,,,,,,320.29999999998836,,response,,,,99,,,,,,,Space,keypress(Space),,,,,,,,---- -- ----- -- ------ - ------- --- ----------<br>------------- ------ ------ ---- ---- ------- ----- -- ----<br>-------- ------- -- ---------- --- - --- ----- ----- ----<br>---- --- --- ----- --- ---- that ------- ----- ---- -------<br>--- --- -- ----- -- --- ---- -- --- ---- -- ------ ------<br>--- ----- -- ----,167001,166995,166658.02,166643,166674.7,167023.7,,34,that
screen,html.Screen,2_1_0_1_35,2021-04-26T14:32:01.813Z,,,,,,,,,,,,,,,,,53,,,,,,,,,,,,,,284.29999999998836,,response,,,,99,,,,,,,Space,keypress(Space),,,,,,,,---- -- ----- -- ------ - ------- --- ----------<br>------------- ------ ------ ---- ---- ------- ----- -- ----<br>-------- ------- -- ---------- --- - --- ----- ----- ----<br>---- --- --- ----- --- ---- ---- matters ----- ---- -------<br>--- --- -- ----- -- --- ---- -- --- ---- -- ------ ------<br>--- ----- -- ----,167314,167308,167008.02,167002,167023.7,167341.38,,35,matters
screen,html.Screen,2_1_0_1_36,2021-04-26T14:32:02.119Z,,,,,,,,,,,,,,,,,53,,,,,,,,,,,,,,272.61999999999534,,response,,,,99,,,,,,,Space,keypress(Space),,,,,,,,"---- -- ----- -- ------ - ------- --- ----------<br>------------- ------ ------ ---- ---- ------- ----- -- ----<br>-------- ------- -- ---------- --- - --- ----- ----- ----<br>---- --- --- ----- --- ---- ---- ------- most, ---- -------<br>--- --- -- ----- -- --- ---- -- --- ---- -- ------ ------<br>--- ----- -- ----",167620,167614,167324.7,167314,167341.38,167641.4,,36,"most,"
screen,html.Screen,2_1_0_1_37,2021-04-26T14:32:02.460Z,,,,,,,,,,,,,,,,,53,,,,,,,,,,,,,,313.6000000000058,,response,,,,99,,,,,,,Space,keypress(Space),,,,,,,,---- -- ----- -- ------ - ------- --- ----------<br>------------- ------ ------ ---- ---- ------- ----- -- ----<br>-------- ------- -- ---------- --- - --- ----- ----- ----<br>---- --- --- ----- --- ---- ---- ------- ----- it's -------<br>--- --- -- ----- -- --- ---- -- --- ---- -- ------ ------<br>--- ----- -- ----,167961,167955,167624.48,167620,167641.4,167991.4,,37,it's
screen,html.Screen,2_1_0_1_38,2021-04-26T14:32:02.817Z,,,,,,,,,,,,,,,,,53,,,,,,,,,,,,,,320.6000000000058,,response,,,,99,,,,,,,Space,keypress(Space),,,,,,,,---- -- ----- -- ------ - ------- --- ----------<br>------------- ------ ------ ---- ---- ------- ----- -- ----<br>-------- ------- -- ---------- --- - --- ----- ----- ----<br>---- --- --- ----- --- ---- ---- ------- ----- ---- whether<br>--- --- -- ----- -- --- ---- -- --- ---- -- ------ ------<br>--- ----- -- ----,168318,168312,167974.7,167961,167991.4,168341.4,,38,whether
screen,html.Screen,2_1_0_1_39,2021-04-26T14:32:03.152Z,,,,,,,,,,,,,,,,,53,,,,,,,,,,,,,,306.6000000000058,,response,,,,99,,,,,,,Space,keypress(Space),,,,,,,,---- -- ----- -- ------ - ------- --- ----------<br>------------- ------ ------ ---- ---- ------- ----- -- ----<br>-------- ------- -- ---------- --- - --- ----- ----- ----<br>---- --- --- ----- --- ---- ---- ------- ----- ---- -------<br>you --- -- ----- -- --- ---- -- --- ---- -- ------ ------<br>--- ----- -- ----,168653,168648,168324.76,168318,168341.4,168674.74,,39,you
screen,html.Screen,2_1_0_1_40,2021-04-26T14:32:03.448Z,,,,,,,,,,,,,,,,,53,,,,,,,,,,,,,,268.2600000000093,,response,,,,99,,,,,,,Space,keypress(Space),,,,,,,,---- -- ----- -- ------ - ------- --- ----------<br>------------- ------ ------ ---- ---- ------- ----- -- ----<br>-------- ------- -- ---------- --- - --- ----- ----- ----<br>---- --- --- ----- --- ---- ---- ------- ----- ---- -------<br>--- are -- ----- -- --- ---- -- --- ---- -- ------ ------<br>--- ----- -- ----,168949,168943,168658.06,168654,168674.74,168974.32,,40,are
screen,html.Screen,2_1_0_1_41,2021-04-26T14:32:03.791Z,,,,,,,,,,,,,,,,,53,,,,,,,,,,,,,,312.679999999993,,response,,,,99,,,,,,,Space,keypress(Space),,,,,,,,---- -- ----- -- ------ - ------- --- ----------<br>------------- ------ ------ ---- ---- ------- ----- -- ----<br>-------- ------- -- ---------- --- - --- ----- ----- ----<br>---- --- --- ----- --- ---- ---- ------- ----- ---- -------<br>--- --- as ----- -- --- ---- -- --- ---- -- ------ ------<br>--- ----- -- ----,169292,169287,168958.06,168950,168974.32,169324.76,,41,as
screen,html.Screen,2_1_0_1_42,2021-04-26T14:32:04.131Z,,,,,,,,,,,,,,,,,53,,,,,,,,,,,,,,301.2399999999907,,response,,,,99,,,,,,,Space,keypress(Space),,,,,,,,---- -- ----- -- ------ - ------- --- ----------<br>------------- ------ ------ ---- ---- ------- ----- -- ----<br>-------- ------- -- ---------- --- - --- ----- ----- ----<br>---- --- --- ----- --- ---- ---- ------- ----- ---- -------<br>--- --- -- close -- --- ---- -- --- ---- -- ------ ------<br>--- ----- -- ----,169632,169626,169308.12,169293,169324.76,169658.12,,42,close
screen,html.Screen,2_1_0_1_43,2021-04-26T14:32:04.438Z,,,,,,,,,,,,,,,,,53,,,,,,,,,,,,,,274.88000000000466,,response,,,,99,,,,,,,Space,keypress(Space),,,,,,,,---- -- ----- -- ------ - ------- --- ----------<br>------------- ------ ------ ---- ---- ------- ----- -- ----<br>-------- ------- -- ---------- --- - --- ----- ----- ----<br>---- --- --- ----- --- ---- ---- ------- ----- ---- -------<br>--- --- -- ----- as --- ---- -- --- ---- -- ------ ------<br>--- ----- -- ----,169938,169933,169641.5,169632,169658.12,169958.14,,43,as
screen,html.Screen,2_1_0_1_44,2021-04-26T14:32:04.773Z,,,,,,,,,,,,,,,,,53,,,,,,,,,,,,,,310.85999999998603,,response,,,,99,,,,,,,Space,keypress(Space),,,,,,,,---- -- ----- -- ------ - ------- --- ----------<br>------------- ------ ------ ---- ---- ------- ----- -- ----<br>-------- ------- -- ---------- --- - --- ----- ----- ----<br>---- --- --- ----- --- ---- ---- ------- ----- ---- -------<br>--- --- -- ----- -- you ---- -- --- ---- -- ------ ------<br>--- ----- -- ----,170274,170269,169941.46,169939,169958.14,170291.48,,44,you
screen,html.Screen,2_1_0_1_45,2021-04-26T14:32:05.076Z,,,,,,,,,,,,,,,,,53,,,,,,,,,,,,,,280.5199999999895,,response,,,,99,,,,,,,Space,keypress(Space),,,,,,,,---- -- ----- -- ------ - ------- --- ----------<br>------------- ------ ------ ---- ---- ------- ----- -- ----<br>-------- ------- -- ---------- --- - --- ----- ----- ----<br>---- --- --- ----- --- ---- ---- ------- ----- ---- -------<br>--- --- -- ----- -- --- want -- --- ---- -- ------ ------<br>--- ----- -- ----,170578,170572,170274.78,170274,170291.48,170608.14,,45,want
screen,html.Screen,2_1_0_1_46,2021-04-26T14:32:05.408Z,,,,,,,,,,,,,,,,,53,,,,,,,,,,,,,,293.85999999998603,,response,,,,99,,,,,,,Space,keypress(Space),,,,,,,,---- -- ----- -- ------ - ------- --- ----------<br>------------- ------ ------ ---- ---- ------- ----- -- ----<br>-------- ------- -- ---------- --- - --- ----- ----- ----<br>---- --- --- ----- --- ---- ---- ------- ----- ---- -------<br>--- --- -- ----- -- --- ---- to --- ---- -- ------ ------<br>--- ----- -- ----,170909,170902,170590.92,170578,170608.14,170941.5,,46,to
screen,html.Screen,2_1_0_1_47,2021-04-26T14:32:05.716Z,,,,,,,,,,,,,,,,,53,,,,,,,,,,,,,,270.5,,response,,,,99,,,,,,,Space,keypress(Space),,,,,,,,"---- -- ----- -- ------ - ------- --- ----------<br>------------- ------ ------ ---- ---- ------- ----- -- ----<br>-------- ------- -- ---------- --- - --- ----- ----- ----<br>---- --- --- ----- --- ---- ---- ------- ----- ---- -------<br>--- --- -- ----- -- --- ---- -- be, ---- -- ------ ------<br>--- ----- -- ----",171217,171212,170924.8,170909,170941.5,171241.5,,47,"be,"
screen,html.Screen,2_1_0_1_48,2021-04-26T14:32:06.057Z,,,,,,,,,,,,,,,,,53,,,,,,,,,,,,,,310.5,,response,,,,99,,,,,,,Space,keypress(Space),,,,,,,,---- -- ----- -- ------ - ------- --- ----------<br>------------- ------ ------ ---- ---- ------- ----- -- ----<br>-------- ------- -- ---------- --- - --- ----- ----- ----<br>---- --- --- ----- --- ---- ---- ------- ----- ---- -------<br>--- --- -- ----- -- --- ---- -- --- even -- ------ ------<br>--- ----- -- ----,171558,171552,171224.82,171217,171241.5,171590.68,,48,even
screen,html.Screen,2_1_0_1_49,2021-04-26T14:32:06.365Z,,,,,,,,,,,,,,,,,53,,,,,,,,,,,,,,270.320000000007,,response,,,,99,,,,,,,Space,keypress(Space),,,,,,,,---- -- ----- -- ------ - ------- --- ----------<br>------------- ------ ------ ---- ---- ------- ----- -- ----<br>-------- ------- -- ---------- --- - --- ----- ----- ----<br>---- --- --- ----- --- ---- ---- ------- ----- ---- -------<br>--- --- -- ----- -- --- ---- -- --- ---- if ------ ------<br>--- ----- -- ----,171866,171861,171574.82,171558,171590.68,171891.5,,49,if
screen,html.Screen,2_1_0_1_50,2021-04-26T14:32:06.704Z,,,,,,,,,,,,,,,,,53,,,,,,,,,,,,,,308.5,,response,,,,99,,,,,,,Space,keypress(Space),,,,,,,,---- -- ----- -- ------ - ------- --- ----------<br>------------- ------ ------ ---- ---- ------- ----- -- ----<br>-------- ------- -- ---------- --- - --- ----- ----- ----<br>---- --- --- ----- --- ---- ---- ------- ----- ---- -------<br>--- --- -- ----- -- --- ---- -- --- ---- -- that's ------<br>--- ----- -- ----,172205,172200,171874.82,171867,171891.5,172224.82,,50,that's
screen,html.Screen,2_1_0_1_51,2021-04-26T14:32:07.025Z,,,,,,,,,,,,,,,,,53,,,,,,,,,,,,,,295.179999999993,,response,,,,99,,,,,,,Space,keypress(Space),,,,,,,,---- -- ----- -- ------ - ------- --- ----------<br>------------- ------ ------ ---- ---- ------- ----- -- ----<br>-------- ------- -- ---------- --- - --- ----- ----- ----<br>---- --- --- ----- --- ---- ---- ------- ----- ---- -------<br>--- --- -- ----- -- --- ---- -- --- ---- -- ------ really<br>--- ----- -- ----,172526,172520,172207.44,172206,172224.82,172558.24,,51,really
screen,html.Screen,2_1_0_1_52,2021-04-26T14:32:07.343Z,,,,,,,,,,,,,,,,,53,,,,,,,,,,,,,,279.7600000000093,,response,,,,99,,,,,,,Space,keypress(Space),,,,,,,,---- -- ----- -- ------ - ------- --- ----------<br>------------- ------ ------ ---- ---- ------- ----- -- ----<br>-------- ------- -- ---------- --- - --- ----- ----- ----<br>---- --- --- ----- --- ---- ---- ------- ----- ---- -------<br>--- --- -- ----- -- --- ---- -- --- ---- -- ------ ------<br>not ----- -- ----,172844,172838,172541.5,172526,172558.24,172873.96,,52,not
screen,html.Screen,2_1_0_1_53,2021-04-26T14:32:07.705Z,,,,,,,,,,,,,,,,,53,,,,,,,,,,,,,,326.04000000000815,,response,,,,99,,,,,,,Space,keypress(Space),,,,,,,,---- -- ----- -- ------ - ------- --- ----------<br>------------- ------ ------ ---- ---- ------- ----- -- ----<br>-------- ------- -- ---------- --- - --- ----- ----- ----<br>---- --- --- ----- --- ---- ---- ------- ----- ---- -------<br>--- --- -- ----- -- --- ---- -- --- ---- -- ------ ------<br>--- close -- ----,173206,173200,172858.2,172844,172873.96,173224.88,,53,close
screen,html.Screen,2_1_0_1_54,2021-04-26T14:32:08.083Z,,,,,,,,,,,,,,,,,53,,,,,,,,,,,,,,354.11999999999534,,response,,,,99,,,,,,,Space,keypress(Space),,,,,,,,---- -- ----- -- ------ - ------- --- ----------<br>------------- ------ ------ ---- ---- ------- ----- -- ----<br>-------- ------- -- ---------- --- - --- ----- ----- ----<br>---- --- --- ----- --- ---- ---- ------- ----- ---- -------<br>--- --- -- ----- -- --- ---- -- --- ---- -- ------ ------<br>--- ----- at ----,173584,173579,173208.2,173207,173224.88,173608.2,,54,at
screen,html.Screen,2_1_0_1_55,2021-04-26T14:32:08.575Z,,,,,,,,,,,,,,,,,53,,,,,,,,,,,,,,461.79999999998836,,response,,,,99,,,,,,,Space,keypress(Space),,,,,,,,---- -- ----- -- ------ - ------- --- ----------<br>------------- ------ ------ ---- ---- ------- ----- -- ----<br>-------- ------- -- ---------- --- - --- ----- ----- ----<br>---- --- --- ----- --- ---- ---- ------- ----- ---- -------<br>--- --- -- ----- -- --- ---- -- --- ---- -- ------ ------<br>--- ----- -- all.,174076,174070,173591.54,173585,173608.2,174107.74,,55,all.
Item 99,flow.Loop,2_1_0_1,2021-04-26T14:32:08.576Z,,,,,,,,,,,,,,,,,,,,,,,,,,,,,,,22079.079999999987,,completion,,,,,C,,,,,,,,,,,silence,,,,,174078,174070,151974.2,151978,151990.92,174107.74,,,
Question 1,html.Screen,2_1_0_2,2021-04-26T14:32:16.518Z,,,,,,,,,,,,,,,,,,,,,,,,,,,,false,FALSE,,7909.260000000009,,response,,,,99,C,,,,,,TRUE,click #choice-1,,,,silence,,,,,182020,182017,174091.26,174078,174107.74,182041.7,,,
Question 2,html.Screen,2_1_0_3,2021-04-26T14:32:21.815Z,,,,,,,,,,,,,,,,,,,,,,,,,,,,true,TRUE,,5272.299999999988,,response,,,,99,C,,,,,,TRUE,click #choice-1,,,,silence,,,,,187316,187314,182025.04,182020,182041.7,187341.2,,,
Item 99,flow.Sequence,2_1_0,2021-04-26T14:32:21.816Z,,,,,,,,,,,,,,,,,,,,,,,,,,,,,,,45323.42000000001,,completion,,,,,,,,,,,,,,,,,,,,,187317,187314,141973.94,141977,141990.58,187341.2,,,
Holding screen,html.Screen,2_1_1_0,2021-04-26T14:32:31.825Z,,,,,,,,,,,,,,,,,,,,,,,,,,,,,,,10001,,timeout,,,,,,,,,,,,,,,,,,,,,197327,197325.52,187325.18,187318,187341.2,197342.2,,,
screen,html.Screen,2_1_1_1_0,2021-04-26T14:32:32.726Z,,,,,,,,,,,,,,,,,54,,,,,,,,,,,,,,877.7999999999884,,response,,,,100,,,,,,,Space,keypress(Space),,,,,,,,At --- ---- --- ------ ----- ------- ---- -- --- ------- --<br>------- ---------- ------ -- ----- -- ----- -- ---- ------<br>--- ----- --- --- ------ -------- ----- --- ------ ----- --<br>----- ----- ---------- --- --- ------ ------ ---- -- ------<br>------- --- ------ ----- --- ---- ------- -- ---- --- --<br>------- ------,198228,198220,197325.52,197327,197342.2,198258.94,,0,At
screen,html.Screen,2_1_1_1_1,2021-04-26T14:32:33.288Z,,,,,,,,,,,,,,,,,54,,,,,,,,,,,,,,525.0599999999977,,response,,,,100,,,,,,,Space,keypress(Space),,,,,,,,-- the ---- --- ------ ----- ------- ---- -- --- ------- --<br>------- ---------- ------ -- ----- -- ----- -- ---- ------<br>--- ----- --- --- ------ -------- ----- --- ------ ----- --<br>----- ----- ---------- --- --- ------ ------ ---- -- ------<br>------- --- ------ ----- --- ---- ------- -- ---- --- --<br>------- ------,198790,198784,198241.96,198228,198258.94,198808.14,,1,the
screen,html.Screen,2_1_1_1_2,2021-04-26T14:32:33.776Z,,,,,,,,,,,,,,,,,54,,,,,,,,,,,,,,463.85999999998603,,response,,,,100,,,,,,,Space,keypress(Space),,,,,,,,-- --- time --- ------ ----- ------- ---- -- --- ------- --<br>------- ---------- ------ -- ----- -- ----- -- ---- ------<br>--- ----- --- --- ------ -------- ----- --- ------ ----- --<br>----- ----- ---------- --- --- ------ ------ ---- -- ------<br>------- --- ------ ----- --- ---- ------- -- ---- --- --<br>------- ------,199278,199272,198792.24,198790,198808.14,199308.94,,2,time
screen,html.Screen,2_1_1_1_3,2021-04-26T14:32:34.220Z,,,,,,,,,,,,,,,,,54,,,,,,,,,,,,,,408.0599999999977,,response,,,,100,,,,,,,Space,keypress(Space),,,,,,,,-- --- ---- the ------ ----- ------- ---- -- --- ------- --<br>------- ---------- ------ -- ----- -- ----- -- ---- ------<br>--- ----- --- --- ------ -------- ----- --- ------ ----- --<br>----- ----- ---------- --- --- ------ ------ ---- -- ------<br>------- --- ------ ----- --- ---- ------- -- ---- --- --<br>------- ------,199722,199717,199291.38,199278,199308.94,199742.3,,3,the
screen,html.Screen,2_1_1_1_4,2021-04-26T14:32:34.894Z,,,,,,,,,,,,,,,,,54,,,,,,,,,,,,,,647.7000000000116,,response,,,,100,,,,,,,Space,keypress(Space),,,,,,,,-- --- ---- --- French ----- ------- ---- -- --- ------- --<br>------- ---------- ------ -- ----- -- ----- -- ---- ------<br>--- ----- --- --- ------ -------- ----- --- ------ ----- --<br>----- ----- ---------- --- --- ------ ------ ---- -- ------<br>------- --- ------ ----- --- ---- ------- -- ---- --- --<br>------- ------,200395,200390,199725.62,199722,199742.3,200425.64,,4,French
screen,html.Screen,2_1_1_1_5,2021-04-26T14:32:35.421Z,,,,,,,,,,,,,,,,,54,,,,,,,,,,,,,,492.35999999998603,,response,,,,100,,,,,,,Space,keypress(Space),,,,,,,,-- --- ---- --- ------ crown ------- ---- -- --- ------- --<br>------- ---------- ------ -- ----- -- ----- -- ---- ------<br>--- ----- --- --- ------ -------- ----- --- ------ ----- --<br>----- ----- ---------- --- --- ------ ------ ---- -- ------<br>------- --- ------ ----- --- ---- ------- -- ---- --- --<br>------- ------,200924,200918,200408.96,200396,200425.64,200941.36,,5,crown
screen,html.Screen,2_1_1_1_6,2021-04-26T14:32:35.919Z,,,,,,,,,,,,,,,,,54,,,,,,,,,,,,,,473.64000000001397,,response,,,,100,,,,,,,Space,keypress(Space),,,,,,,,-- --- ---- --- ------ ----- secured ---- -- --- ------- --<br>------- ---------- ------ -- ----- -- ----- -- ---- ------<br>--- ----- --- --- ------ -------- ----- --- ------ ----- --<br>----- ----- ---------- --- --- ------ ------ ---- -- ------<br>------- --- ------ ----- --- ---- ------- -- ---- --- --<br>------- ------,201420,201415,200925.64,200924,200941.36,201442.34,,6,secured
screen,html.Screen,2_1_1_1_7,2021-04-26T14:32:36.434Z,,,,,,,,,,,,,,,,,54,,,,,,,,,,,,,,487.6600000000035,,response,,,,100,,,,,,,Space,keypress(Space),,,,,,,,-- --- ---- --- ------ ----- ------- much -- --- ------- --<br>------- ---------- ------ -- ----- -- ----- -- ---- ------<br>--- ----- --- --- ------ -------- ----- --- ------ ----- --<br>----- ----- ---------- --- --- ------ ------ ---- -- ------<br>------- --- ------ ----- --- ---- ------- -- ---- --- --<br>------- ------,201936,201930,201425.36,201421,201442.34,201958.08,,7,much
screen,html.Screen,2_1_1_1_8,2021-04-26T14:32:36.886Z,,,,,,,,,,,,,,,,,54,,,,,,,,,,,,,,424.9200000000128,,response,,,,100,,,,,,,Space,keypress(Space),,,,,,,,-- --- ---- --- ------ ----- ------- ---- of --- ------- --<br>------- ---------- ------ -- ----- -- ----- -- ---- ------<br>--- ----- --- --- ------ -------- ----- --- ------ ----- --<br>----- ----- ---------- --- --- ------ ------ ---- -- ------<br>------- --- ------ ----- --- ---- ------- -- ---- --- --<br>------- ------,202388,202383,201942.4,201936,201958.08,202408.12,,8,of
screen,html.Screen,2_1_1_1_9,2021-04-26T14:32:37.328Z,,,,,,,,,,,,,,,,,54,,,,,,,,,,,,,,416.88000000000466,,response,,,,100,,,,,,,Space,keypress(Space),,,,,,,,-- --- ---- --- ------ ----- ------- ---- -- its ------- --<br>------- ---------- ------ -- ----- -- ----- -- ---- ------<br>--- ----- --- --- ------ -------- ----- --- ------ ----- --<br>----- ----- ---------- --- --- ------ ------ ---- -- ------<br>------- --- ------ ----- --- ---- ------- -- ---- --- --<br>------- ------,202831,202825,202392.4,202389,202408.12,202859.06,,9,its
screen,html.Screen,2_1_1_1_10,2021-04-26T14:32:37.965Z,,,,,,,,,,,,,,,,,54,,,,,,,,,,,,,,602.9400000000023,,response,,,,100,,,,,,,Space,keypress(Space),,,,,,,,-- --- ---- --- ------ ----- ------- ---- -- --- revenue --<br>------- ---------- ------ -- ----- -- ----- -- ---- ------<br>--- ----- --- --- ------ -------- ----- --- ------ ----- --<br>----- ----- ---------- --- --- ------ ------ ---- -- ------<br>------- --- ------ ----- --- ---- ------- -- ---- --- --<br>------- ------,203468,203462,202842.34,202831,202859.06,203492.38,,10,revenue
screen,html.Screen,2_1_1_1_11,2021-04-26T14:32:38.405Z,,,,,,,,,,,,,,,,,54,,,,,,,,,,,,,,408.61999999999534,,response,,,,100,,,,,,,Space,keypress(Space),,,,,,,,-- --- ---- --- ------ ----- ------- ---- -- --- ------- by<br>------- ---------- ------ -- ----- -- ----- -- ---- ------<br>--- ----- --- --- ------ -------- ----- --- ------ ----- --<br>----- ----- ---------- --- --- ------ ------ ---- -- ------<br>------- --- ------ ----- --- ---- ------- -- ---- --- --<br>------- ------,203906,203901,203475.7,203468,203492.38,203925.72,,11,by
screen,html.Screen,2_1_1_1_12,2021-04-26T14:32:38.877Z,,,,,,,,,,,,,,,,,54,,,,,,,,,,,,,,447.27999999999884,,response,,,,100,,,,,,,Space,keypress(Space),,,,,,,,-- --- ---- --- ------ ----- ------- ---- -- --- ------- --<br>issuing ---------- ------ -- ----- -- ----- -- ---- ------<br>--- ----- --- --- ------ -------- ----- --- ------ ----- --<br>----- ----- ---------- --- --- ------ ------ ---- -- ------<br>------- --- ------ ----- --- ---- ------- -- ---- --- --<br>------- ------,204379,204373,203909.02,203908,203925.72,204409.06,,12,issuing
screen,html.Screen,2_1_1_1_13,2021-04-26T14:32:39.393Z,,,,,,,,,,,,,,,,,54,,,,,,,,,,,,,,480.9400000000023,,response,,,,100,,,,,,,Space,keypress(Space),,,,,,,,-- --- ---- --- ------ ----- ------- ---- -- --- ------- --<br>------- government ------ -- ----- -- ----- -- ---- ------<br>--- ----- --- --- ------ -------- ----- --- ------ ----- --<br>----- ----- ---------- --- --- ------ ------ ---- -- ------<br>------- --- ------ ----- --- ---- ------- -- ---- --- --<br>------- ------,204895,204890,204392.38,204379,204409.06,204925.76,,13,government
screen,html.Screen,2_1_1_1_14,2021-04-26T14:32:40.024Z,,,,,,,,,,,,,,,,,54,,,,,,,,,,,,,,594.2399999999907,,response,,,,100,,,,,,,Space,keypress(Space),,,,,,,,-- --- ---- --- ------ ----- ------- ---- -- --- ------- --<br>------- ---------- bonds. -- ----- -- ----- -- ---- ------<br>--- ----- --- --- ------ -------- ----- --- ------ ----- --<br>----- ----- ---------- --- --- ------ ------ ---- -- ------<br>------- --- ------ ----- --- ---- ------- -- ---- --- --<br>------- ------,205526,205520,204909.06,204896,204925.76,205558.16,,14,bonds.
screen,html.Screen,2_1_1_1_15,2021-04-26T14:32:40.614Z,,,,,,,,,,,,,,,,,54,,,,,,,,,,,,,,552.8399999999965,,response,,,,100,,,,,,,Space,keypress(Space),,,,,,,,-- --- ---- --- ------ ----- ------- ---- -- --- ------- --<br>------- ---------- ------ In ----- -- ----- -- ---- ------<br>--- ----- --- --- ------ -------- ----- --- ------ ----- --<br>----- ----- ---------- --- --- ------ ------ ---- -- ------<br>------- --- ------ ----- --- ---- ------- -- ---- --- --<br>------- ------,206116,206111,205541.56,205526,205558.16,206142.46,,15,In
screen,html.Screen,2_1_1_1_16,2021-04-26T14:32:41.508Z,,,,,,,,,,,,,,,,,54,,,,,,,,,,,,,,864.5400000000081,,response,,,,100,,,,,,,Space,keypress(Space),,,,,,,,"-- --- ---- --- ------ ----- ------- ---- -- --- ------- --<br>------- ---------- ------ -- 1727, -- ----- -- ---- ------<br>--- ----- --- --- ------ -------- ----- --- ------ ----- --<br>----- ----- ---------- --- --- ------ ------ ---- -- ------<br>------- --- ------ ----- --- ---- ------- -- ---- --- --<br>------- ------",207011,207007,206125.8,206117,206142.46,207042.46,,16,"1727,"
screen,html.Screen,2_1_1_1_17,2021-04-26T14:32:41.956Z,,,,,,,,,,,,,,,,,54,,,,,,,,,,,,,,409.54000000000815,,response,,,,100,,,,,,,Space,keypress(Space),,,,,,,,-- --- ---- --- ------ ----- ------- ---- -- --- ------- --<br>------- ---------- ------ -- ----- in ----- -- ---- ------<br>--- ----- --- --- ------ -------- ----- --- ------ ----- --<br>----- ----- ---------- --- --- ------ ------ ---- -- ------<br>------- --- ------ ----- --- ---- ------- -- ---- --- --<br>------- ------,207458,207452,207025.78,207011,207042.46,207475,,17,in
screen,html.Screen,2_1_1_1_18,2021-04-26T14:32:42.557Z,,,,,,,,,,,,,,,,,54,,,,,,,,,,,,,,578,,response,,,,100,,,,,,,Space,keypress(Space),,,,,,,,-- --- ---- --- ------ ----- ------- ---- -- --- ------- --<br>------- ---------- ------ -- ----- -- order -- ---- ------<br>--- ----- --- --- ------ -------- ----- --- ------ ----- --<br>----- ----- ---------- --- --- ------ ------ ---- -- ------<br>------- --- ------ ----- --- ---- ------- -- ---- --- --<br>------- ------,208059,208053,207459.14,207459,207475,208092.48,,18,order
screen,html.Screen,2_1_1_1_19,2021-04-26T14:32:43.158Z,,,,,,,,,,,,,,,,,54,,,,,,,,,,,,,,561.5199999999895,,response,,,,100,,,,,,,Space,keypress(Space),,,,,,,,-- --- ---- --- ------ ----- ------- ---- -- --- ------- --<br>------- ---------- ------ -- ----- -- ----- to ---- ------<br>--- ----- --- --- ------ -------- ----- --- ------ ----- --<br>----- ----- ---------- --- --- ------ ------ ---- -- ------<br>------- --- ------ ----- --- ---- ------- -- ---- --- --<br>------- ------,208660,208654,208075.8,208059,208092.48,208692.5,,19,to
screen,html.Screen,2_1_1_1_20,2021-04-26T14:32:43.735Z,,,,,,,,,,,,,,,,,54,,,,,,,,,,,,,,538.5,,response,,,,100,,,,,,,Space,keypress(Space),,,,,,,,-- --- ---- --- ------ ----- ------- ---- -- --- ------- --<br>------- ---------- ------ -- ----- -- ----- -- save ------<br>--- ----- --- --- ------ -------- ----- --- ------ ----- --<br>----- ----- ---------- --- --- ------ ------ ---- -- ------<br>------- --- ------ ----- --- ---- ------- -- ---- --- --<br>------- ------,209237,209231,208675.84,208661,208692.5,209259.2,,20,save
screen,html.Screen,2_1_1_1_21,2021-04-26T14:32:44.428Z,,,,,,,,,,,,,,,,,54,,,,,,,,,,,,,,664.7999999999884,,response,,,,100,,,,,,,Space,keypress(Space),,,,,,,,"-- --- ---- --- ------ ----- ------- ---- -- --- ------- --<br>------- ---------- ------ -- ----- -- ----- -- ---- money,<br>--- ----- --- --- ------ -------- ----- --- ------ ----- --<br>----- ----- ---------- --- --- ------ ------ ---- -- ------<br>------- --- ------ ----- --- ---- ------- -- ---- --- --<br>------- ------",209930,209924,209241.58,209238,209259.2,209959.24,,21,"money,"
screen,html.Screen,2_1_1_1_22,2021-04-26T14:32:45.064Z,,,,,,,,,,,,,,,,,54,,,,,,,,,,,,,,601.7600000000093,,response,,,,100,,,,,,,Space,keypress(Space),,,,,,,,-- --- ---- --- ------ ----- ------- ---- -- --- ------- --<br>------- ---------- ------ -- ----- -- ----- -- ---- ------<br>the ----- --- --- ------ -------- ----- --- ------ ----- --<br>----- ----- ---------- --- --- ------ ------ ---- -- ------<br>------- --- ------ ----- --- ---- ------- -- ---- --- --<br>------- ------,210567,210561,209941.64,209930,209959.24,210592.06,,22,the
screen,html.Screen,2_1_1_1_23,2021-04-26T14:32:45.707Z,,,,,,,,,,,,,,,,,54,,,,,,,,,,,,,,612.9400000000023,,response,,,,100,,,,,,,Space,keypress(Space),,,,,,,,-- --- ---- --- ------ ----- ------- ---- -- --- ------- --<br>------- ---------- ------ -- ----- -- ----- -- ---- ------<br>--- state --- --- ------ -------- ----- --- ------ ----- --<br>----- ----- ---------- --- --- ------ ------ ---- -- ------<br>------- --- ------ ----- --- ---- ------- -- ---- --- --<br>------- ------,211209,211205,210575.9,210568,210592.06,211242.6,,23,state
screen,html.Screen,2_1_1_1_24,2021-04-26T14:32:46.407Z,,,,,,,,,,,,,,,,,54,,,,,,,,,,,,,,661.3999999999942,,response,,,,100,,,,,,,Space,keypress(Space),,,,,,,,-- --- ---- --- ------ ----- ------- ---- -- --- ------- --<br>------- ---------- ------ -- ----- -- ----- -- ---- ------<br>--- ----- cut --- ------ -------- ----- --- ------ ----- --<br>----- ----- ---------- --- --- ------ ------ ---- -- ------<br>------- --- ------ ----- --- ---- ------- -- ---- --- --<br>------- ------,211910,211904,211225.92,211209,211242.6,211942.6,,24,cut
screen,html.Screen,2_1_1_1_25,2021-04-26T14:32:46.921Z,,,,,,,,,,,,,,,,,54,,,,,,,,,,,,,,475.3999999999942,,response,,,,100,,,,,,,Space,keypress(Space),,,,,,,,-- --- ---- --- ------ ----- ------- ---- -- --- ------- --<br>------- ---------- ------ -- ----- -- ----- -- ---- ------<br>--- ----- --- the ------ -------- ----- --- ------ ----- --<br>----- ----- ---------- --- --- ------ ------ ---- -- ------<br>------- --- ------ ----- --- ---- ------- -- ---- --- --<br>------- ------,212424,212418,211925.92,211910,211942.6,212441.64,,25,the
screen,html.Screen,2_1_1_1_26,2021-04-26T14:32:47.527Z,,,,,,,,,,,,,,,,,54,,,,,,,,,,,,,,582.359999999986,,response,,,,100,,,,,,,Space,keypress(Space),,,,,,,,-- --- ---- --- ------ ----- ------- ---- -- --- ------- --<br>------- ---------- ------ -- ----- -- ----- -- ---- ------<br>--- ----- --- --- bonds' -------- ----- --- ------ ----- --<br>----- ----- ---------- --- --- ------ ------ ---- -- ------<br>------- --- ------ ----- --- ---- ------- -- ---- --- --<br>------- ------,213030,213024,212425.14,212424,212441.64,213058.34,,26,bonds'
screen,html.Screen,2_1_1_1_27,2021-04-26T14:32:48.048Z,,,,,,,,,,,,,,,,,54,,,,,,,,,,,,,,485.6600000000035,,response,,,,100,,,,,,,Space,keypress(Space),,,,,,,,-- --- ---- --- ------ ----- ------- ---- -- --- ------- --<br>------- ---------- ------ -- ----- -- ----- -- ---- ------<br>--- ----- --- --- ------ interest ----- --- ------ ----- --<br>----- ----- ---------- --- --- ------ ------ ---- -- ------<br>------- --- ------ ----- --- ---- ------- -- ---- --- --<br>------- ------,213550,213544,213042.62,213030,213058.34,213576.02,,27,interest
screen,html.Screen,2_1_1_1_28,2021-04-26T14:32:48.513Z,,,,,,,,,,,,,,,,,54,,,,,,,,,,,,,,433.9800000000105,,response,,,,100,,,,,,,Space,keypress(Space),,,,,,,,-- --- ---- --- ------ ----- ------- ---- -- --- ------- --<br>------- ---------- ------ -- ----- -- ----- -- ---- ------<br>--- ----- --- --- ------ -------- rate. --- ------ ----- --<br>----- ----- ---------- --- --- ------ ------ ---- -- ------<br>------- --- ------ ----- --- ---- ------- -- ---- --- --<br>------- ------,214016,214010,213559.32,213551,213576.02,214042.66,,28,rate.
screen,html.Screen,2_1_1_1_29,2021-04-26T14:32:49.046Z,,,,,,,,,,,,,,,,,54,,,,,,,,,,,,,,500.3399999999965,,response,,,,100,,,,,,,Space,keypress(Space),,,,,,,,-- --- ---- --- ------ ----- ------- ---- -- --- ------- --<br>------- ---------- ------ -- ----- -- ----- -- ---- ------<br>--- ----- --- --- ------ -------- ----- The ------ ----- --<br>----- ----- ---------- --- --- ------ ------ ---- -- ------<br>------- --- ------ ----- --- ---- ------- -- ---- --- --<br>------- ------,214549,214543,214026,214016,214042.66,214576.04,,29,The
screen,html.Screen,2_1_1_1_30,2021-04-26T14:32:49.659Z,,,,,,,,,,,,,,,,,54,,,,,,,,,,,,,,579.9599999999919,,response,,,,100,,,,,,,Space,keypress(Space),,,,,,,,-- --- ---- --- ------ ----- ------- ---- -- --- ------- --<br>------- ---------- ------ -- ----- -- ----- -- ---- ------<br>--- ----- --- --- ------ -------- ----- --- market ----- --<br>----- ----- ---------- --- --- ------ ------ ---- -- ------<br>------- --- ------ ----- --- ---- ------- -- ---- --- --<br>------- ------,215162,215156,214559.34,214550,214576.04,215192.7,,30,market
screen,html.Screen,2_1_1_1_31,2021-04-26T14:32:50.197Z,,,,,,,,,,,,,,,,,54,,,,,,,,,,,,,,501.29999999998836,,response,,,,100,,,,,,,Space,keypress(Space),,,,,,,,-- --- ---- --- ------ ----- ------- ---- -- --- ------- --<br>------- ---------- ------ -- ----- -- ----- -- ---- ------<br>--- ----- --- --- ------ -------- ----- --- ------ value --<br>----- ----- ---------- --- --- ------ ------ ---- -- ------<br>------- --- ------ ----- --- ---- ------- -- ---- --- --<br>------- ------,215699,215694,215176.04,215162,215192.7,215725.38,,31,value
screen,html.Screen,2_1_1_1_32,2021-04-26T14:32:50.623Z,,,,,,,,,,,,,,,,,54,,,,,,,,,,,,,,394.61999999999534,,response,,,,100,,,,,,,Space,keypress(Space),,,,,,,,-- --- ---- --- ------ ----- ------- ---- -- --- ------- --<br>------- ---------- ------ -- ----- -- ----- -- ---- ------<br>--- ----- --- --- ------ -------- ----- --- ------ ----- of<br>----- ----- ---------- --- --- ------ ------ ---- -- ------<br>------- --- ------ ----- --- ---- ------- -- ---- --- --<br>------- ------,216126,216120,215709.38,215700,215725.38,216159.4,,32,of
screen,html.Screen,2_1_1_1_33,2021-04-26T14:32:51.058Z,,,,,,,,,,,,,,,,,54,,,,,,,,,,,,,,395.6000000000058,,response,,,,100,,,,,,,Space,keypress(Space),,,,,,,,-- --- ---- --- ------ ----- ------- ---- -- --- ------- --<br>------- ---------- ------ -- ----- -- ----- -- ---- ------<br>--- ----- --- --- ------ -------- ----- --- ------ ----- --<br>these ----- ---------- --- --- ------ ------ ---- -- ------<br>------- --- ------ ----- --- ---- ------- -- ---- --- --<br>------- ------,216561,216555,216142.72,216126,216159.4,216592.78,,33,these
screen,html.Screen,2_1_1_1_34,2021-04-26T14:32:51.519Z,,,,,,,,,,,,,,,,,54,,,,,,,,,,,,,,423.22000000000116,,response,,,,100,,,,,,,Space,keypress(Space),,,,,,,,-- --- ---- --- ------ ----- ------- ---- -- --- ------- --<br>------- ---------- ------ -- ----- -- ----- -- ---- ------<br>--- ----- --- --- ------ -------- ----- --- ------ ----- --<br>----- bonds ---------- --- --- ------ ------ ---- -- ------<br>------- --- ------ ----- --- ---- ------- -- ---- --- --<br>------- ------,217022,217016,216576.08,216562,216592.78,217042.76,,34,bonds
screen,html.Screen,2_1_1_1_35,2021-04-26T14:32:51.932Z,,,,,,,,,,,,,,,,,54,,,,,,,,,,,,,,387.2399999999907,,response,,,,100,,,,,,,Space,keypress(Space),,,,,,,,"-- --- ---- --- ------ ----- ------- ---- -- --- ------- --<br>------- ---------- ------ -- ----- -- ----- -- ---- ------<br>--- ----- --- --- ------ -------- ----- --- ------ ----- --<br>----- ----- plummeted, --- --- ------ ------ ---- -- ------<br>------- --- ------ ----- --- ---- ------- -- ---- --- --<br>------- ------",217434,217430,217026.08,217022,217042.76,217459.44,,35,"plummeted,"
screen,html.Screen,2_1_1_1_36,2021-04-26T14:32:52.405Z,,,,,,,,,,,,,,,,,54,,,,,,,,,,,,,,441.5599999999977,,response,,,,100,,,,,,,Space,keypress(Space),,,,,,,,-- --- ---- --- ------ ----- ------- ---- -- --- ------- --<br>------- ---------- ------ -- ----- -- ----- -- ---- ------<br>--- ----- --- --- ------ -------- ----- --- ------ ----- --<br>----- ----- ---------- and --- ------ ------ ---- -- ------<br>------- --- ------ ----- --- ---- ------- -- ---- --- --<br>------- ------,217907,217901,217442.52,217435,217459.44,217926.1,,36,and
screen,html.Screen,2_1_1_1_37,2021-04-26T14:32:52.780Z,,,,,,,,,,,,,,,,,54,,,,,,,,,,,,,,350.8999999999942,,response,,,,100,,,,,,,Space,keypress(Space),,,,,,,,-- --- ---- --- ------ ----- ------- ---- -- --- ------- --<br>------- ---------- ------ -- ----- -- ----- -- ---- ------<br>--- ----- --- --- ------ -------- ----- --- ------ ----- --<br>----- ----- ---------- --- the ------ ------ ---- -- ------<br>------- --- ------ ----- --- ---- ------- -- ---- --- --<br>------- ------,218282,218277,217909.42,217908,217926.1,218308.9,,37,the
screen,html.Screen,2_1_1_1_38,2021-04-26T14:32:53.243Z,,,,,,,,,,,,,,,,,54,,,,,,,,,,,,,,431.1000000000058,,response,,,,100,,,,,,,Space,keypress(Space),,,,,,,,-- --- ---- --- ------ ----- ------- ---- -- --- ------- --<br>------- ---------- ------ -- ----- -- ----- -- ---- ------<br>--- ----- --- --- ------ -------- ----- --- ------ ----- --<br>----- ----- ---------- --- --- market ------ ---- -- ------<br>------- --- ------ ----- --- ---- ------- -- ---- --- --<br>------- ------,218746,218740,218292.78,218283,218308.9,218776.16,,38,market
screen,html.Screen,2_1_1_1_39,2021-04-26T14:32:53.638Z,,,,,,,,,,,,,,,,,54,,,,,,,,,,,,,,358.8399999999965,,response,,,,100,,,,,,,Space,keypress(Space),,,,,,,,-- --- ---- --- ------ ----- ------- ---- -- --- ------- --<br>------- ---------- ------ -- ----- -- ----- -- ---- ------<br>--- ----- --- --- ------ -------- ----- --- ------ ----- --<br>----- ----- ---------- --- --- ------ became ---- -- ------<br>------- --- ------ ----- --- ---- ------- -- ---- --- --<br>------- ------,219140,219135,218759.2,218746,218776.16,219159.02,,39,became
screen,html.Screen,2_1_1_1_40,2021-04-26T14:32:54.077Z,,,,,,,,,,,,,,,,,54,,,,,,,,,,,,,,414.9800000000105,,response,,,,100,,,,,,,Space,keypress(Space),,,,,,,,-- --- ---- --- ------ ----- ------- ---- -- --- ------- --<br>------- ---------- ------ -- ----- -- ----- -- ---- ------<br>--- ----- --- --- ------ -------- ----- --- ------ ----- --<br>----- ----- ---------- --- --- ------ ------ wary -- ------<br>------- --- ------ ----- --- ---- ------- -- ---- --- --<br>------- ------,219579,219574,219142.78,219141,219159.02,219609.52,,40,wary
screen,html.Screen,2_1_1_1_41,2021-04-26T14:32:54.582Z,,,,,,,,,,,,,,,,,54,,,,,,,,,,,,,,469.4800000000105,,response,,,,100,,,,,,,Space,keypress(Space),,,,,,,,-- --- ---- --- ------ ----- ------- ---- -- --- ------- --<br>------- ---------- ------ -- ----- -- ----- -- ---- ------<br>--- ----- --- --- ------ -------- ----- --- ------ ----- --<br>----- ----- ---------- --- --- ------ ------ ---- of ------<br>------- --- ------ ----- --- ---- ------- -- ---- --- --<br>------- ------,220085,220079,219592.82,219580,219609.52,220108.6,,41,of
screen,html.Screen,2_1_1_1_42,2021-04-26T14:32:55.049Z,,,,,,,,,,,,,,,,,54,,,,,,,,,,,,,,438.3999999999942,,response,,,,100,,,,,,,Space,keypress(Space),,,,,,,,-- --- ---- --- ------ ----- ------- ---- -- --- ------- --<br>------- ---------- ------ -- ----- -- ----- -- ---- ------<br>--- ----- --- --- ------ -------- ----- --- ------ ----- --<br>----- ----- ---------- --- --- ------ ------ ---- -- French<br>------- --- ------ ----- --- ---- ------- -- ---- --- --<br>------- ------,220553,220547,220092.82,220085,220108.6,220576.2,,42,French
screen,html.Screen,2_1_1_1_43,2021-04-26T14:32:55.508Z,,,,,,,,,,,,,,,,,54,,,,,,,,,,,,,,429.79999999998836,,response,,,,100,,,,,,,Space,keypress(Space),,,,,,,,-- --- ---- --- ------ ----- ------- ---- -- --- ------- --<br>------- ---------- ------ -- ----- -- ----- -- ---- ------<br>--- ----- --- --- ------ -------- ----- --- ------ ----- --<br>----- ----- ---------- --- --- ------ ------ ---- -- ------<br>credit. --- ------ ----- --- ---- ------- -- ---- --- --<br>------- ------,221011,221006,220559.5,220553,220576.2,221042.88,,43,credit.
screen,html.Screen,2_1_1_1_44,2021-04-26T14:32:55.912Z,,,,,,,,,,,,,,,,,54,,,,,,,,,,,,,,367.11999999999534,,response,,,,100,,,,,,,Space,keypress(Space),,,,,,,,-- --- ---- --- ------ ----- ------- ---- -- --- ------- --<br>------- ---------- ------ -- ----- -- ----- -- ---- ------<br>--- ----- --- --- ------ -------- ----- --- ------ ----- --<br>----- ----- ---------- --- --- ------ ------ ---- -- ------<br>------- The ------ ----- --- ---- ------- -- ---- --- --<br>------- ------,221415,221410,221026.2,221012,221042.88,221442.88,,44,The
screen,html.Screen,2_1_1_1_45,2021-04-26T14:32:56.357Z,,,,,,,,,,,,,,,,,54,,,,,,,,,,,,,,411.11999999999534,,response,,,,100,,,,,,,Space,keypress(Space),,,,,,,,-- --- ---- --- ------ ----- ------- ---- -- --- ------- --<br>------- ---------- ------ -- ----- -- ----- -- ---- ------<br>--- ----- --- --- ------ -------- ----- --- ------ ----- --<br>----- ----- ---------- --- --- ------ ------ ---- -- ------<br>------- --- French ----- --- ---- ------- -- ---- --- --<br>------- ------,221860,221854,221426.22,221416,221442.88,221892.94,,45,French
screen,html.Screen,2_1_1_1_46,2021-04-26T14:32:56.931Z,,,,,,,,,,,,,,,,,54,,,,,,,,,,,,,,535.0599999999977,,response,,,,100,,,,,,,Space,keypress(Space),,,,,,,,-- --- ---- --- ------ ----- ------- ---- -- --- ------- --<br>------- ---------- ------ -- ----- -- ----- -- ---- ------<br>--- ----- --- --- ------ -------- ----- --- ------ ----- --<br>----- ----- ---------- --- --- ------ ------ ---- -- ------<br>------- --- ------ state --- ---- ------- -- ---- --- --<br>------- ------,222434,222428,221876.22,221860,221892.94,222458.92,,46,state
screen,html.Screen,2_1_1_1_47,2021-04-26T14:32:57.411Z,,,,,,,,,,,,,,,,,54,,,,,,,,,,,,,,449.0799999999872,,response,,,,100,,,,,,,Space,keypress(Space),,,,,,,,-- --- ---- --- ------ ----- ------- ---- -- --- ------- --<br>------- ---------- ------ -- ----- -- ----- -- ---- ------<br>--- ----- --- --- ------ -------- ----- --- ------ ----- --<br>----- ----- ---------- --- --- ------ ------ ---- -- ------<br>------- --- ------ ----- was ---- ------- -- ---- --- --<br>------- ------,222914,222908,222442.88,222434,222458.92,222942.92,,47,was
screen,html.Screen,2_1_1_1_48,2021-04-26T14:32:57.816Z,,,,,,,,,,,,,,,,,54,,,,,,,,,,,,,,370.0799999999872,,response,,,,100,,,,,,,Space,keypress(Space),,,,,,,,-- --- ---- --- ------ ----- ------- ---- -- --- ------- --<br>------- ---------- ------ -- ----- -- ----- -- ---- ------<br>--- ----- --- --- ------ -------- ----- --- ------ ----- --<br>----- ----- ---------- --- --- ------ ------ ---- -- ------<br>------- --- ------ ----- --- left ------- -- ---- --- --<br>------- ------,223319,223313,222926.28,222914,222942.92,223341.94,,48,left
screen,html.Screen,2_1_1_1_49,2021-04-26T14:32:58.281Z,,,,,,,,,,,,,,,,,54,,,,,,,,,,,,,,437.0599999999977,,response,,,,100,,,,,,,Space,keypress(Space),,,,,,,,-- --- ---- --- ------ ----- ------- ---- -- --- ------- --<br>------- ---------- ------ -- ----- -- ----- -- ---- ------<br>--- ----- --- --- ------ -------- ----- --- ------ ----- --<br>----- ----- ---------- --- --- ------ ------ ---- -- ------<br>------- --- ------ ----- --- ---- without -- ---- --- --<br>------- ------,223784,223779,223326.26,223319,223341.94,223809.6,,49,without
screen,html.Screen,2_1_1_1_50,2021-04-26T14:32:58.694Z,,,,,,,,,,,,,,,,,54,,,,,,,,,,,,,,381.3999999999942,,response,,,,100,,,,,,,Space,keypress(Space),,,,,,,,-- --- ---- --- ------ ----- ------- ---- -- --- ------- --<br>------- ---------- ------ -- ----- -- ----- -- ---- ------<br>--- ----- --- --- ------ -------- ----- --- ------ ----- --<br>----- ----- ---------- --- --- ------ ------ ---- -- ------<br>------- --- ------ ----- --- ---- ------- an ---- --- --<br>------- ------,224197,224191,223792.92,223784,223809.6,224226.32,,50,an
screen,html.Screen,2_1_1_1_51,2021-04-26T14:32:59.161Z,,,,,,,,,,,,,,,,,54,,,,,,,,,,,,,,432.679999999993,,response,,,,100,,,,,,,Space,keypress(Space),,,,,,,,-- --- ---- --- ------ ----- ------- ---- -- --- ------- --<br>------- ---------- ------ -- ----- -- ----- -- ---- ------<br>--- ----- --- --- ------ -------- ----- --- ------ ----- --<br>----- ----- ---------- --- --- ------ ------ ---- -- ------<br>------- --- ------ ----- --- ---- ------- -- easy --- --<br>------- ------,224665,224659,224209.68,224197,224226.32,224692.98,,51,easy
screen,html.Screen,2_1_1_1_52,2021-04-26T14:32:59.657Z,,,,,,,,,,,,,,,,,54,,,,,,,,,,,,,,461.0199999999895,,response,,,,100,,,,,,,Space,keypress(Space),,,,,,,,-- --- ---- --- ------ ----- ------- ---- -- --- ------- --<br>------- ---------- ------ -- ----- -- ----- -- ---- ------<br>--- ----- --- --- ------ -------- ----- --- ------ ----- --<br>----- ----- ---------- --- --- ------ ------ ---- -- ------<br>------- --- ------ ----- --- ---- ------- -- ---- way --<br>------- ------,225160,225154,224676.34,224665,224692.98,225193.08,,52,way
screen,html.Screen,2_1_1_1_53,2021-04-26T14:33:00.113Z,,,,,,,,,,,,,,,,,54,,,,,,,,,,,,,,416.9200000000128,,response,,,,100,,,,,,,Space,keypress(Space),,,,,,,,-- --- ---- --- ------ ----- ------- ---- -- --- ------- --<br>------- ---------- ------ -- ----- -- ----- -- ---- ------<br>--- ----- --- --- ------ -------- ----- --- ------ ----- --<br>----- ----- ---------- --- --- ------ ------ ---- -- ------<br>------- --- ------ ----- --- ---- ------- -- ---- --- of<br>------- ------,225615,225610,225176.32,225160,225193.08,225643,,53,of
screen,html.Screen,2_1_1_1_54,2021-04-26T14:33:00.609Z,,,,,,,,,,,,,,,,,54,,,,,,,,,,,,,,463,,response,,,,100,,,,,,,Space,keypress(Space),,,,,,,,-- --- ---- --- ------ ----- ------- ---- -- --- ------- --<br>------- ---------- ------ -- ----- -- ----- -- ---- ------<br>--- ----- --- --- ------ -------- ----- --- ------ ----- --<br>----- ----- ---------- --- --- ------ ------ ---- -- ------<br>------- --- ------ ----- --- ---- ------- -- ---- --- --<br>raising ------,226111,226106,225626.32,225616,225643,226143.02,,54,raising
screen,html.Screen,2_1_1_1_55,2021-04-26T14:33:03.683Z,,,,,,,,,,,,,,,,,54,,,,,,,,,,,,,,3036.9800000000105,,response,,,,100,,,,,,,Space,keypress(Space),,,,,,,,-- --- ---- --- ------ ----- ------- ---- -- --- ------- --<br>------- ---------- ------ -- ----- -- ----- -- ---- ------<br>--- ----- --- --- ------ -------- ----- --- ------ ----- --<br>----- ----- ---------- --- --- ------ ------ ---- -- ------<br>------- --- ------ ----- --- ---- ------- -- ---- --- --<br>------- money.,229186,229180,226126.36,226111,226143.02,229209.64,,55,money.
Item 100,flow.Loop,2_1_1_1,2021-04-26T14:33:03.683Z,,,,,,,,,,,,,,,,,,,,,,,,,,,,,,,31837.79999999999,,completion,,,,,C,,,,,,,,,,,silence,,,,,229186,229180,197325.52,197327,197342.2,229209.64,,,
Question 1,html.Screen,2_1_1_2,2021-04-26T14:33:06.490Z,,,,,,,,,,,,,,,,,,,,,,,,,,,,true,TRUE,,2780.359999999986,,response,,,,100,C,,,,,,TRUE,click #choice-1,,,,silence,,,,,231993,231990,229193,229186,229209.64,232009.84,,,
Question 2,html.Screen,2_1_1_3,2021-04-26T14:33:09.463Z,,,,,,,,,,,,,,,,,,,,,,,,,,,,true,FALSE,,2952.1600000000035,,response,,,,100,C,,,,,,FALSE,click #choice-2,,,,silence,,,,,234966,234962,231993.16,231993,232009.84,234993.24,,,
Item 100,flow.Sequence,2_1_1,2021-04-26T14:33:09.463Z,,,,,,,,,,,,,,,,,,,,,,,,,,,,,,,47620.79999999999,,completion,,,,,,,,,,,,,,,,,,,,,234966,234962,187325.18,187318,187341.2,234993.24,,,
End of Practice,html.Page,2_1_2,2021-04-26T14:33:13.875Z,,,,,,,,,,,,,,,,,,,,,,,,,,,,,,,4383.760000000009,,form submission,,,,,,,,,,,,,,,,,,,,,239378,239377,234976.54,234966,234993.24,239393.3,,,
Practice,flow.Sequence,2_1,2021-04-26T14:33:13.875Z,,,,,,,,,,,,,,,,,,,,,,,,,,,,,,,97386.42000000001,,completion,,,,,,,,,,,,,,,,,,,,,239379,239377,141973.94,141977,141990.58,239393.3,,,
Trap_instruction,html.Page,2_2_0,2021-04-26T14:33:16.902Z,,,,,,,,,,,,,,,,,,,,,,,,,,,,,,,3011.7000000000116,,form submission,,,,,,,,,,,,,,,,,,,,,242406,242405,239376.34,239379,239393.3,242426.76,,,
trap_trial,html.Screen,2_2_1,2021-04-26T14:33:20.210Z,,,,,,,,,,,,,,,,,,,,,,,,,,,,true,1,,3282.2399999999907,,response,,,,,,,,,,,1,click #choice-1,,,,,,,,,245713,245709,242410.1,242406,242426.76,245743.52,,,
end of trap trial,html.Page,2_2_2,2021-04-26T14:33:22.691Z,,,,,,,,,,,,,,,,,,,,,,,,,,,,,,,2451.4800000000105,,form submission,,,,,,,,,,,,,,,,,,,,,248195,248195,245726.52,245714,245743.52,248210.26,,,
Trap 1,flow.Sequence,2_2,2021-04-26T14:33:22.692Z,,,,,,,,,,,,,,,,,,,,,,,,,,,,,,,8801.700000000012,,completion,,,,,,,,,,,,,,,,,,,,,248196,248195,239376.34,239379,239393.3,248210.26,,,
Standby,html.Page,2_3_0,2021-04-26T14:33:30.691Z,,,,,,,,,,,,,,,,,,,,,,,,,,,,,,,8000.279999999999,,timeout,,,,,,,,,,,,,,,,,,,,,256195,256193.86,248193.56,248196,248210.26,256210.54,,,
Holding screen,html.Screen,2_3_1_0_0,2021-04-26T14:33:37.690Z,,,,,,,,,,,,,,,,,,,,,,,,,,,,,,,7000.139999999985,,timeout,,,,,,,,,,,,,,,,,,,,,263194,263194,256193.86,256196,256210.54,263210.68,,,
screen,html.Screen,2_3_1_0_1_0,2021-04-26T14:33:38.728Z,,,,,,,,,,,,,,,,,51,,,,,,,,,,,,,,1014.320000000007,,response,,,,13,C,,,,,,Space,keypress(Space),,,,instrumental,,,,American -------- --- --- ---- --- --- ------ -- --------<br>---- --------- --- ------- ------------ ---------- ---------<br>--- ---------- ------- ---------- ------- -- -------- ----<br>---- --- ------ ----- ------ -- ---- --- ----- -- - -------<br>-------- -- --- --- -- ----- ----------- ----- -----------<br>---- --- ---------- --- ---- --- -- ----------,264233,264225,263194,263195,263210.68,264260.1,,0,American
screen,html.Screen,2_3_1_0_1_1,2021-04-26T14:33:39.357Z,,,,,,,,,,,,,,,,,51,,,,,,,,,,,,,,595.9000000000233,,response,,,,13,C,,,,,,Space,keypress(Space),,,,instrumental,,,,-------- industry --- --- ---- --- --- ------ -- --------<br>---- --------- --- ------- ------------ ---------- ---------<br>--- ---------- ------- ---------- ------- -- -------- ----<br>---- --- ------ ----- ------ -- ---- --- ----- -- - -------<br>-------- -- --- --- -- ----- ----------- ----- -----------<br>---- --- ---------- --- ---- --- -- ----------,264862,264856,264244.04,264233,264260.1,264894.04,,1,industry
screen,html.Screen,2_3_1_0_1_2,2021-04-26T14:33:39.981Z,,,,,,,,,,,,,,,,,51,,,,,,,,,,,,,,586.960000000021,,response,,,,13,C,,,,,,Space,keypress(Space),,,,instrumental,,,,-------- -------- may --- ---- --- --- ------ -- --------<br>---- --------- --- ------- ------------ ---------- ---------<br>--- ---------- ------- ---------- ------- -- -------- ----<br>---- --- ------ ----- ------ -- ---- --- ----- -- - -------<br>-------- -- --- --- -- ----- ----------- ----- -----------<br>---- --- ---------- --- ---- --- -- ----------,265485,265481,264877.42,264862,264894.04,265510.78,,2,may
screen,html.Screen,2_3_1_0_1_3,2021-04-26T14:33:40.625Z,,,,,,,,,,,,,,,,,51,,,,,,,,,,,,,,613.2199999999721,,response,,,,13,C,,,,,,Space,keypress(Space),,,,instrumental,,,,-------- -------- --- not ---- --- --- ------ -- --------<br>---- --------- --- ------- ------------ ---------- ---------<br>--- ---------- ------- ---------- ------- -- -------- ----<br>---- --- ------ ----- ------ -- ---- --- ----- -- - -------<br>-------- -- --- --- -- ----- ----------- ----- -----------<br>---- --- ---------- --- ---- --- -- ----------,266131,266124,265494.1,265486,265510.78,266160.76,,3,not
screen,html.Screen,2_3_1_0_1_4,2021-04-26T14:33:41.247Z,,,,,,,,,,,,,,,,,51,,,,,,,,,,,,,,584.2399999999907,,response,,,,13,C,,,,,,Space,keypress(Space),,,,instrumental,,,,-------- -------- --- --- know --- --- ------ -- --------<br>---- --------- --- ------- ------------ ---------- ---------<br>--- ---------- ------- ---------- ------- -- -------- ----<br>---- --- ------ ----- ------ -- ---- --- ----- -- - -------<br>-------- -- --- --- -- ----- ----------- ----- -----------<br>---- --- ---------- --- ---- --- -- ----------,266752,266745,266144.12,266131,266160.76,266777.5,,4,know
screen,html.Screen,2_3_1_0_1_5,2021-04-26T14:33:42.010Z,,,,,,,,,,,,,,,,,51,,,,,,,,,,,,,,733.5,,response,,,,13,C,,,,,,Space,keypress(Space),,,,instrumental,,,,"-------- -------- --- --- ---- it, --- ------ -- --------<br>---- --------- --- ------- ------------ ---------- ---------<br>--- ---------- ------- ---------- ------- -- -------- ----<br>---- --- ------ ----- ------ -- ---- --- ----- -- - -------<br>-------- -- --- --- -- ----- ----------- ----- -----------<br>---- --- ---------- --- ---- --- -- ----------",267515,267511,266760.82,266752,266777.5,267544.22,,5,"it,"
screen,html.Screen,2_3_1_0_1_6,2021-04-26T14:33:42.486Z,,,,,,,,,,,,,,,,,51,,,,,,,,,,,,,,440.78000000002794,,response,,,,13,C,,,,,,Space,keypress(Space),,,,instrumental,,,,-------- -------- --- --- ---- --- but ------ -- --------<br>---- --------- --- ------- ------------ ---------- ---------<br>--- ---------- ------- ---------- ------- -- -------- ----<br>---- --- ------ ----- ------ -- ---- --- ----- -- - -------<br>-------- -- --- --- -- ----- ----------- ----- -----------<br>---- --- ---------- --- ---- --- -- ----------,267991,267985,267527.46,267516,267544.22,268010.84,,6,but
screen,html.Screen,2_3_1_0_1_7,2021-04-26T14:33:43.087Z,,,,,,,,,,,,,,,,,51,,,,,,,,,,,,,,575.1599999999744,,response,,,,13,C,,,,,,Space,keypress(Space),,,,instrumental,,,,-------- -------- --- --- ---- --- --- debate -- --------<br>---- --------- --- ------- ------------ ---------- ---------<br>--- ---------- ------- ---------- ------- -- -------- ----<br>---- --- ------ ----- ------ -- ---- --- ----- -- - -------<br>-------- -- --- --- -- ----- ----------- ----- -----------<br>---- --- ---------- --- ---- --- -- ----------,268592,268586,267993.38,267991,268010.84,268610.84,,7,debate
screen,html.Screen,2_3_1_0_1_8,2021-04-26T14:33:43.605Z,,,,,,,,,,,,,,,,,51,,,,,,,,,,,,,,492.1599999999744,,response,,,,13,C,,,,,,Space,keypress(Space),,,,instrumental,,,,-------- -------- --- --- ---- --- --- ------ in --------<br>---- --------- --- ------- ------------ ---------- ---------<br>--- ---------- ------- ---------- ------- -- -------- ----<br>---- --- ------ ----- ------ -- ---- --- ----- -- - -------<br>-------- -- --- --- -- ----- ----------- ----- -----------<br>---- --- ---------- --- ---- --- -- ----------,269109,269103,268593.98,268593,268610.84,269126.56,,8,in
screen,html.Screen,2_3_1_0_1_9,2021-04-26T14:33:44.219Z,,,,,,,,,,,,,,,,,51,,,,,,,,,,,,,,592.4400000000023,,response,,,,13,C,,,,,,Space,keypress(Space),,,,instrumental,,,,-------- -------- --- --- ---- --- --- ------ -- Congress<br>---- --------- --- ------- ------------ ---------- ---------<br>--- ---------- ------- ---------- ------- -- -------- ----<br>---- --- ------ ----- ------ -- ---- --- ----- -- - -------<br>-------- -- --- --- -- ----- ----------- ----- -----------<br>---- --- ---------- --- ---- --- -- ----------,269724,269719,269110.82,269110,269126.56,269744.22,,9,Congress
screen,html.Screen,2_3_1_0_1_10,2021-04-26T14:33:44.842Z,,,,,,,,,,,,,,,,,51,,,,,,,,,,,,,,595.7800000000279,,response,,,,13,C,,,,,,Space,keypress(Space),,,,instrumental,,,,-------- -------- --- --- ---- --- --- ------ -- --------<br>over --------- --- ------- ------------ ---------- ---------<br>--- ---------- ------- ---------- ------- -- -------- ----<br>---- --- ------ ----- ------ -- ---- --- ----- -- - -------<br>-------- -- --- --- -- ----- ----------- ----- -----------<br>---- --- ---------- --- ---- --- -- ----------,270345,270340,269726.72,269724,269744.22,270376.62,,10,over
screen,html.Screen,2_3_1_0_1_11,2021-04-26T14:33:45.479Z,,,,,,,,,,,,,,,,,51,,,,,,,,,,,,,,601.3800000000047,,response,,,,13,C,,,,,,Space,keypress(Space),,,,instrumental,,,,-------- -------- --- --- ---- --- --- ------ -- --------<br>---- reforming --- ------- ------------ ---------- ---------<br>--- ---------- ------- ---------- ------- -- -------- ----<br>---- --- ------ ----- ------ -- ---- --- ----- -- - -------<br>-------- -- --- --- -- ----- ----------- ----- -----------<br>---- --- ---------- --- ---- --- -- ----------,270983,270978,270360.52,270346,270376.62,271010.06,,11,reforming
screen,html.Screen,2_3_1_0_1_12,2021-04-26T14:33:46.174Z,,,,,,,,,,,,,,,,,51,,,,,,,,,,,,,,664.9400000000023,,response,,,,13,C,,,,,,Space,keypress(Space),,,,instrumental,,,,-------- -------- --- --- ---- --- --- ------ -- --------<br>---- --------- the ------- ------------ ---------- ---------<br>--- ---------- ------- ---------- ------- -- -------- ----<br>---- --- ------ ----- ------ -- ---- --- ----- -- - -------<br>-------- -- --- --- -- ----- ----------- ----- -----------<br>---- --- ---------- --- ---- --- -- ----------,271680,271675,270994.24,270983,271010.06,271710.92,,12,the
screen,html.Screen,2_3_1_0_1_13,2021-04-26T14:33:46.785Z,,,,,,,,,,,,,,,,,51,,,,,,,,,,,,,,573.0800000000163,,response,,,,13,C,,,,,,Space,keypress(Space),,,,instrumental,,,,-------- -------- --- --- ---- --- --- ------ -- --------<br>---- --------- --- federal ------------ ---------- ---------<br>--- ---------- ------- ---------- ------- -- -------- ----<br>---- --- ------ ----- ------ -- ---- --- ----- -- - -------<br>-------- -- --- --- -- ----- ----------- ----- -----------<br>---- --- ---------- --- ---- --- -- ----------,272290,272284,271693.72,271680,271710.92,272310.92,,13,federal
screen,html.Screen,2_3_1_0_1_14,2021-04-26T14:33:47.267Z,,,,,,,,,,,,,,,,,51,,,,,,,,,,,,,,454.0800000000163,,response,,,,13,C,,,,,,Space,keypress(Space),,,,instrumental,,,,-------- -------- --- --- ---- --- --- ------ -- --------<br>---- --------- --- ------- government's ---------- ---------<br>--- ---------- ------- ---------- ------- -- -------- ----<br>---- --- ------ ----- ------ -- ---- --- ----- -- - -------<br>-------- -- --- --- -- ----- ----------- ----- -----------<br>---- --- ---------- --- ---- --- -- ----------,272771,272765,272294.24,272290,272310.92,272794.26,,14,government's
screen,html.Screen,2_3_1_0_1_15,2021-04-26T14:33:47.874Z,,,,,,,,,,,,,,,,,51,,,,,,,,,,,,,,579.7399999999907,,response,,,,13,C,,,,,,Space,keypress(Space),,,,instrumental,,,,-------- -------- --- --- ---- --- --- ------ -- --------<br>---- --------- --- ------- ------------ regulatory ---------<br>--- ---------- ------- ---------- ------- -- -------- ----<br>---- --- ------ ----- ------ -- ---- --- ----- -- - -------<br>-------- -- --- --- -- ----- ----------- ----- -----------<br>---- --- ---------- --- ---- --- -- ----------,273379,273374,272777.58,272772,272794.26,273410.98,,15,regulatory
screen,html.Screen,2_3_1_0_1_16,2021-04-26T14:33:48.524Z,,,,,,,,,,,,,,,,,51,,,,,,,,,,,,,,612.0200000000186,,response,,,,13,C,,,,,,Space,keypress(Space),,,,instrumental,,,,-------- -------- --- --- ---- --- --- ------ -- --------<br>---- --------- --- ------- ------------ ---------- apparatus<br>--- ---------- ------- ---------- ------- -- -------- ----<br>---- --- ------ ----- ------ -- ---- --- ----- -- - -------<br>-------- -- --- --- -- ----- ----------- ----- -----------<br>---- --- ---------- --- ---- --- -- ----------,274029,274023,273394.28,273380,273410.98,274060.06,,16,apparatus
screen,html.Screen,2_3_1_0_1_17,2021-04-26T14:33:49.068Z,,,,,,,,,,,,,,,,,51,,,,,,,,,,,,,,507.9400000000023,,response,,,,13,C,,,,,,Space,keypress(Space),,,,instrumental,,,,-------- -------- --- --- ---- --- --- ------ -- --------<br>---- --------- --- ------- ------------ ---------- ---------<br>may ---------- ------- ---------- ------- -- -------- ----<br>---- --- ------ ----- ------ -- ---- --- ----- -- - -------<br>-------- -- --- --- -- ----- ----------- ----- -----------<br>---- --- ---------- --- ---- --- -- ----------,274573,274568,274043.4,274029,274060.06,274594.34,,17,may
screen,html.Screen,2_3_1_0_1_18,2021-04-26T14:33:49.695Z,,,,,,,,,,,,,,,,,51,,,,,,,,,,,,,,600.6599999999744,,response,,,,13,C,,,,,,Space,keypress(Space),,,,instrumental,,,,-------- -------- --- --- ---- --- --- ------ -- --------<br>---- --------- --- ------- ------------ ---------- ---------<br>--- profoundly ------- ---------- ------- -- -------- ----<br>---- --- ------ ----- ------ -- ---- --- ----- -- - -------<br>-------- -- --- --- -- ----- ----------- ----- -----------<br>---- --- ---------- --- ---- --- -- ----------,275200,275195,274577.64,274574,274594.34,275227.7,,18,profoundly
screen,html.Screen,2_3_1_0_1_19,2021-04-26T14:33:50.320Z,,,,,,,,,,,,,,,,,51,,,,,,,,,,,,,,592.2999999999884,,response,,,,13,C,,,,,,Space,keypress(Space),,,,instrumental,,,,-------- -------- --- --- ---- --- --- ------ -- --------<br>---- --------- --- ------- ------------ ---------- ---------<br>--- ---------- improve ---------- ------- -- -------- ----<br>---- --- ------ ----- ------ -- ---- --- ----- -- - -------<br>-------- -- --- --- -- ----- ----------- ----- -----------<br>---- --- ---------- --- ---- --- -- ----------,275825,275820,275210.98,275200,275227.7,275844.32,,19,improve
screen,html.Screen,2_3_1_0_1_20,2021-04-26T14:33:50.966Z,,,,,,,,,,,,,,,,,51,,,,,,,,,,,,,,620.679999999993,,response,,,,13,C,,,,,,Space,keypress(Space),,,,instrumental,,,,-------- -------- --- --- ---- --- --- ------ -- --------<br>---- --------- --- ------- ------------ ---------- ---------<br>--- ---------- ------- companies' ------- -- -------- ----<br>---- --- ------ ----- ------ -- ---- --- ----- -- - -------<br>-------- -- --- --- -- ----- ----------- ----- -----------<br>---- --- ---------- --- ---- --- -- ----------,276471,276465,275827.66,275825,275844.32,276493.44,,20,companies'
screen,html.Screen,2_3_1_0_1_21,2021-04-26T14:33:51.709Z,,,,,,,,,,,,,,,,,51,,,,,,,,,,,,,,714.5599999999977,,response,,,,13,C,,,,,,Space,keypress(Space),,,,instrumental,,,,-------- -------- --- --- ---- --- --- ------ -- --------<br>---- --------- --- ------- ------------ ---------- ---------<br>--- ---------- ------- ---------- ability -- -------- ----<br>---- --- ------ ----- ------ -- ---- --- ----- -- - -------<br>-------- -- --- --- -- ----- ----------- ----- -----------<br>---- --- ---------- --- ---- --- -- ----------,277214,277208,276477.64,276472,276493.44,277243.56,,21,ability
screen,html.Screen,2_3_1_0_1_22,2021-04-26T14:33:52.348Z,,,,,,,,,,,,,,,,,51,,,,,,,,,,,,,,603.4400000000023,,response,,,,13,C,,,,,,Space,keypress(Space),,,,instrumental,,,,-------- -------- --- --- ---- --- --- ------ -- --------<br>---- --------- --- ------- ------------ ---------- ---------<br>--- ---------- ------- ---------- ------- to -------- ----<br>---- --- ------ ----- ------ -- ---- --- ----- -- - -------<br>-------- -- --- --- -- ----- ----------- ----- -----------<br>---- --- ---------- --- ---- --- -- ----------,277853,277847,277227.62,277215,277243.56,277877.7,,22,to
screen,html.Screen,2_3_1_0_1_23,2021-04-26T14:33:53.107Z,,,,,,,,,,,,,,,,,51,,,,,,,,,,,,,,728.2999999999884,,response,,,,13,C,,,,,,Space,keypress(Space),,,,instrumental,,,,-------- -------- --- --- ---- --- --- ------ -- --------<br>---- --------- --- ------- ------------ ---------- ---------<br>--- ---------- ------- ---------- ------- -- survive. ----<br>---- --- ------ ----- ------ -- ---- --- ----- -- - -------<br>-------- -- --- --- -- ----- ----------- ----- -----------<br>---- --- ---------- --- ---- --- -- ----------,278612,278606,277860.38,277854,277877.7,278644.44,,23,survive.
screen,html.Screen,2_3_1_0_1_24,2021-04-26T14:33:53.574Z,,,,,,,,,,,,,,,,,51,,,,,,,,,,,,,,429.5599999999977,,response,,,,13,C,,,,,,Space,keypress(Space),,,,instrumental,,,,-------- -------- --- --- ---- --- --- ------ -- --------<br>---- --------- --- ------- ------------ ---------- ---------<br>--- ---------- ------- ---------- ------- -- -------- This<br>---- --- ------ ----- ------ -- ---- --- ----- -- - -------<br>-------- -- --- --- -- ----- ----------- ----- -----------<br>---- --- ---------- --- ---- --- -- ----------,279079,279074,278627.24,278613,278644.44,279111.12,,24,This
screen,html.Screen,2_3_1_0_1_25,2021-04-26T14:33:54.056Z,,,,,,,,,,,,,,,,,51,,,,,,,,,,,,,,444.88000000000466,,response,,,,13,C,,,,,,Space,keypress(Space),,,,instrumental,,,,-------- -------- --- --- ---- --- --- ------ -- --------<br>---- --------- --- ------- ------------ ---------- ---------<br>--- ---------- ------- ---------- ------- -- -------- ----<br>week --- ------ ----- ------ -- ---- --- ----- -- - -------<br>-------- -- --- --- -- ----- ----------- ----- -----------<br>---- --- ---------- --- ---- --- -- ----------,279562,279556,279094.18,279080,279111.12,279594.48,,25,week
screen,html.Screen,2_3_1_0_1_26,2021-04-26T14:33:54.348Z,,,,,,,,,,,,,,,,,51,,,,,,,,,,,,,,253.52000000001863,,response,,,,13,C,,,,,,Space,keypress(Space),,,,instrumental,,,,-------- -------- --- --- ---- --- --- ------ -- --------<br>---- --------- --- ------- ------------ ---------- ---------<br>--- ---------- ------- ---------- ------- -- -------- ----<br>---- the ------ ----- ------ -- ---- --- ----- -- - -------<br>-------- -- --- --- -- ----- ----------- ----- -----------<br>---- --- ---------- --- ---- --- -- ----------,279853,279848,279577.82,279562,279594.48,279876.84,,26,the
screen,html.Screen,2_3_1_0_1_27,2021-04-26T14:33:54.743Z,,,,,,,,,,,,,,,,,51,,,,,,,,,,,,,,365.1599999999744,,response,,,,13,C,,,,,,Space,keypress(Space),,,,instrumental,,,,-------- -------- --- --- ---- --- --- ------ -- --------<br>---- --------- --- ------- ------------ ---------- ---------<br>--- ---------- ------- ---------- ------- -- -------- ----<br>---- --- Senate ----- ------ -- ---- --- ----- -- - -------<br>-------- -- --- --- -- ----- ----------- ----- -----------<br>---- --- ---------- --- ---- --- -- ----------,280248,280242,279861.14,279854,279876.84,280277.86,,27,Senate
screen,html.Screen,2_3_1_0_1_28,2021-04-26T14:33:55.249Z,,,,,,,,,,,,,,,,,51,,,,,,,,,,,,,,471.14000000001397,,response,,,,13,C,,,,,,Space,keypress(Space),,,,instrumental,,,,-------- -------- --- --- ---- --- --- ------ -- --------<br>---- --------- --- ------- ------------ ---------- ---------<br>--- ---------- ------- ---------- ------- -- -------- ----<br>---- --- ------ seems ------ -- ---- --- ----- -- - -------<br>-------- -- --- --- -- ----- ----------- ----- -----------<br>---- --- ---------- --- ---- --- -- ----------,280754,280749,280261.2,280248,280277.86,280776.88,,28,seems
screen,html.Screen,2_3_1_0_1_29,2021-04-26T14:33:55.579Z,,,,,,,,,,,,,,,,,51,,,,,,,,,,,,,,301.11999999999534,,response,,,,13,C,,,,,,Space,keypress(Space),,,,instrumental,,,,-------- -------- --- --- ---- --- --- ------ -- --------<br>---- --------- --- ------- ------------ ---------- ---------<br>--- ---------- ------- ---------- ------- -- -------- ----<br>---- --- ------ ----- poised -- ---- --- ----- -- - -------<br>-------- -- --- --- -- ----- ----------- ----- -----------<br>---- --- ---------- --- ---- --- -- ----------,281083,281078,280761.14,280754,280776.88,281111.18,,29,poised
screen,html.Screen,2_3_1_0_1_30,2021-04-26T14:33:56.008Z,,,,,,,,,,,,,,,,,51,,,,,,,,,,,,,,396.820000000007,,response,,,,13,C,,,,,,Space,keypress(Space),,,,instrumental,,,,-------- -------- --- --- ---- --- --- ------ -- --------<br>---- --------- --- ------- ------------ ---------- ---------<br>--- ---------- ------- ---------- ------- -- -------- ----<br>---- --- ------ ----- ------ to ---- --- ----- -- - -------<br>-------- -- --- --- -- ----- ----------- ----- -----------<br>---- --- ---------- --- ---- --- -- ----------,281514,281508,281094.46,281084,281111.18,281544.3,,30,to
screen,html.Screen,2_3_1_0_1_31,2021-04-26T14:33:56.406Z,,,,,,,,,,,,,,,,,51,,,,,,,,,,,,,,360.70000000001164,,response,,,,13,C,,,,,,Space,keypress(Space),,,,instrumental,,,,-------- -------- --- --- ---- --- --- ------ -- --------<br>---- --------- --- ------- ------------ ---------- ---------<br>--- ---------- ------- ---------- ------- -- -------- ----<br>---- --- ------ ----- ------ -- join --- ----- -- - -------<br>-------- -- --- --- -- ----- ----------- ----- -----------<br>---- --- ---------- --- ---- --- -- ----------,281911,281905,281527.88,281514,281544.3,281944.54,,31,join
screen,html.Screen,2_3_1_0_1_32,2021-04-26T14:33:56.788Z,,,,,,,,,,,,,,,,,51,,,,,,,,,,,,,,342.46000000002095,,response,,,,13,C,,,,,,Space,keypress(Space),,,,instrumental,,,,-------- -------- --- --- ---- --- --- ------ -- --------<br>---- --------- --- ------- ------------ ---------- ---------<br>--- ---------- ------- ---------- ------- -- -------- ----<br>---- --- ------ ----- ------ -- ---- the ----- -- - -------<br>-------- -- --- --- -- ----- ----------- ----- -----------<br>---- --- ---------- --- ---- --- -- ----------,282293,282287,281927.84,281912,281944.54,282311.28,,32,the
screen,html.Screen,2_3_1_0_1_33,2021-04-26T14:33:57.199Z,,,,,,,,,,,,,,,,,51,,,,,,,,,,,,,,386.71999999997206,,response,,,,13,C,,,,,,Space,keypress(Space),,,,instrumental,,,,-------- -------- --- --- ---- --- --- ------ -- --------<br>---- --------- --- ------- ------------ ---------- ---------<br>--- ---------- ------- ---------- ------- -- -------- ----<br>---- --- ------ ----- ------ -- ---- --- House -- - -------<br>-------- -- --- --- -- ----- ----------- ----- -----------<br>---- --- ---------- --- ---- --- -- ----------,282705,282698,282294.52,282294,282311.28,282727.86,,33,House
screen,html.Screen,2_3_1_0_1_34,2021-04-26T14:33:57.553Z,,,,,,,,,,,,,,,,,51,,,,,,,,,,,,,,324.14000000001397,,response,,,,13,C,,,,,,Space,keypress(Space),,,,instrumental,,,,-------- -------- --- --- ---- --- --- ------ -- --------<br>---- --------- --- ------- ------------ ---------- ---------<br>--- ---------- ------- ---------- ------- -- -------- ----<br>---- --- ------ ----- ------ -- ---- --- ----- in - -------<br>-------- -- --- --- -- ----- ----------- ----- -----------<br>---- --- ---------- --- ---- --- -- ----------,283057,283052,282711.16,282705,282727.86,283077.02,,34,in
screen,html.Screen,2_3_1_0_1_35,2021-04-26T14:33:57.907Z,,,,,,,,,,,,,,,,,51,,,,,,,,,,,,,,329.9799999999814,,response,,,,13,C,,,,,,Space,keypress(Space),,,,instrumental,,,,-------- -------- --- --- ---- --- --- ------ -- --------<br>---- --------- --- ------- ------------ ---------- ---------<br>--- ---------- ------- ---------- ------- -- -------- ----<br>---- --- ------ ----- ------ -- ---- --- ----- -- a -------<br>-------- -- --- --- -- ----- ----------- ----- -----------<br>---- --- ---------- --- ---- --- -- ----------,283412,283407,283061.24,283058,283077.02,283444.58,,35,a
screen,html.Screen,2_3_1_0_1_36,2021-04-26T14:33:58.487Z,,,,,,,,,,,,,,,,,51,,,,,,,,,,,,,,541.4199999999837,,response,,,,13,C,,,,,,Space,keypress(Space),,,,instrumental,,,,-------- -------- --- --- ---- --- --- ------ -- --------<br>---- --------- --- ------- ------------ ---------- ---------<br>--- ---------- ------- ---------- ------- -- -------- ----<br>---- --- ------ ----- ------ -- ---- --- ----- -- - massive<br>-------- -- --- --- -- ----- ----------- ----- -----------<br>---- --- ---------- --- ---- --- -- ----------,283992,283986,283427.84,283412,283444.58,284011.22,,36,massive
screen,html.Screen,2_3_1_0_1_37,2021-04-26T14:33:58.920Z,,,,,,,,,,,,,,,,,51,,,,,,,,,,,,,,407.78000000002794,,response,,,,13,C,,,,,,Space,keypress(Space),,,,instrumental,,,,-------- -------- --- --- ---- --- --- ------ -- --------<br>---- --------- --- ------- ------------ ---------- ---------<br>--- ---------- ------- ---------- ------- -- -------- ----<br>---- --- ------ ----- ------ -- ---- --- ----- -- - -------<br>overhaul -- --- --- -- ----- ----------- ----- -----------<br>---- --- ---------- --- ---- --- -- ----------,284426,284419,283994.52,283993,284011.22,284443.84,,37,overhaul
screen,html.Screen,2_3_1_0_1_38,2021-04-26T14:33:59.306Z,,,,,,,,,,,,,,,,,51,,,,,,,,,,,,,,362.1599999999744,,response,,,,13,C,,,,,,Space,keypress(Space),,,,instrumental,,,,-------- -------- --- --- ---- --- --- ------ -- --------<br>---- --------- --- ------- ------------ ---------- ---------<br>--- ---------- ------- ---------- ------- -- -------- ----<br>---- --- ------ ----- ------ -- ---- --- ----- -- - -------<br>-------- of --- --- -- ----- ----------- ----- -----------<br>---- --- ---------- --- ---- --- -- ----------,284811,284806,284427.84,284426,284443.84,284844.6,,38,of
screen,html.Screen,2_3_1_0_1_39,2021-04-26T14:33:59.626Z,,,,,,,,,,,,,,,,,51,,,,,,,,,,,,,,280.4000000000233,,response,,,,13,C,,,,,,Space,keypress(Space),,,,instrumental,,,,-------- -------- --- --- ---- --- --- ------ -- --------<br>---- --------- --- ------- ------------ ---------- ---------<br>--- ---------- ------- ---------- ------- -- -------- ----<br>---- --- ------ ----- ------ -- ---- --- ----- -- - -------<br>-------- -- the --- -- ----- ----------- ----- -----------<br>---- --- ---------- --- ---- --- -- ----------,285131,285125,284827.84,284811,284844.6,285161.3,,39,the
screen,html.Screen,2_3_1_0_1_40,2021-04-26T14:34:00.071Z,,,,,,,,,,,,,,,,,51,,,,,,,,,,,,,,408.70000000001164,,response,,,,13,C,,,,,,Space,keypress(Space),,,,instrumental,,,,-------- -------- --- --- ---- --- --- ------ -- --------<br>---- --------- --- ------- ------------ ---------- ---------<br>--- ---------- ------- ---------- ------- -- -------- ----<br>---- --- ------ ----- ------ -- ---- --- ----- -- - -------<br>-------- -- --- way -- ----- ----------- ----- -----------<br>---- --- ---------- --- ---- --- -- ----------,285576,285570,285144.62,285132,285161.3,285594.66,,40,way
screen,html.Screen,2_3_1_0_1_41,2021-04-26T14:34:00.416Z,,,,,,,,,,,,,,,,,51,,,,,,,,,,,,,,320.3400000000256,,response,,,,13,C,,,,,,Space,keypress(Space),,,,instrumental,,,,-------- -------- --- --- ---- --- --- ------ -- --------<br>---- --------- --- ------- ------------ ---------- ---------<br>--- ---------- ------- ---------- ------- -- -------- ----<br>---- --- ------ ----- ------ -- ---- --- ----- -- - -------<br>-------- -- --- --- in ----- ----------- ----- -----------<br>---- --- ---------- --- ---- --- -- ----------,285921,285915,285577.96,285577,285594.66,285944.64,,41,in
screen,html.Screen,2_3_1_0_1_42,2021-04-26T14:34:00.770Z,,,,,,,,,,,,,,,,,51,,,,,,,,,,,,,,325.35999999998603,,response,,,,13,C,,,,,,Space,keypress(Space),,,,instrumental,,,,-------- -------- --- --- ---- --- --- ------ -- --------<br>---- --------- --- ------- ------------ ---------- ---------<br>--- ---------- ------- ---------- ------- -- -------- ----<br>---- --- ------ ----- ------ -- ---- --- ----- -- - -------<br>-------- -- --- --- -- which ----------- ----- -----------<br>---- --- ---------- --- ---- --- -- ----------,286275,286270,285927.96,285922,285944.64,286293.68,,42,which
screen,html.Screen,2_3_1_0_1_43,2021-04-26T14:34:01.208Z,,,,,,,,,,,,,,,,,51,,,,,,,,,,,,,,414.320000000007,,response,,,,13,C,,,,,,Space,keypress(Space),,,,instrumental,,,,-------- -------- --- --- ---- --- --- ------ -- --------<br>---- --------- --- ------- ------------ ---------- ---------<br>--- ---------- ------- ---------- ------- -- -------- ----<br>---- --- ------ ----- ------ -- ---- --- ----- -- - -------<br>-------- -- --- --- -- ----- bureaucrats ----- -----------<br>---- --- ---------- --- ---- --- -- ----------,286713,286708,286277.94,286276,286293.68,286744.72,,43,bureaucrats
screen,html.Screen,2_3_1_0_1_44,2021-04-26T14:34:01.643Z,,,,,,,,,,,,,,,,,51,,,,,,,,,,,,,,398.28000000002794,,response,,,,13,C,,,,,,Space,keypress(Space),,,,instrumental,,,,-------- -------- --- --- ---- --- --- ------ -- --------<br>---- --------- --- ------- ------------ ---------- ---------<br>--- ---------- ------- ---------- ------- -- -------- ----<br>---- --- ------ ----- ------ -- ---- --- ----- -- - -------<br>-------- -- --- --- -- ----- ----------- enact -----------<br>---- --- ---------- --- ---- --- -- ----------,287148,287143,286727.9,286714,286744.72,287178.04,,44,enact
screen,html.Screen,2_3_1_0_1_45,2021-04-26T14:34:02.305Z,,,,,,,,,,,,,,,,,51,,,,,,,,,,,,,,625.960000000021,,response,,,,13,C,,,,,,Space,keypress(Space),,,,instrumental,,,,-------- -------- --- --- ---- --- --- ------ -- --------<br>---- --------- --- ------- ------------ ---------- ---------<br>--- ---------- ------- ---------- ------- -- -------- ----<br>---- --- ------ ----- ------ -- ---- --- ----- -- - -------<br>-------- -- --- --- -- ----- ----------- ----- regulations<br>---- --- ---------- --- ---- --- -- ----------,287811,287804,287161.3,287148,287178.04,287827.98,,45,regulations
screen,html.Screen,2_3_1_0_1_46,2021-04-26T14:34:02.785Z,,,,,,,,,,,,,,,,,51,,,,,,,,,,,,,,457.0200000000186,,response,,,,13,C,,,,,,Space,keypress(Space),,,,instrumental,,,,-------- -------- --- --- ---- --- --- ------ -- --------<br>---- --------- --- ------- ------------ ---------- ---------<br>--- ---------- ------- ---------- ------- -- -------- ----<br>---- --- ------ ----- ------ -- ---- --- ----- -- - -------<br>-------- -- --- --- -- ----- ----------- ----- -----------<br>that --- ---------- --- ---- --- -- ----------,288291,288285,287811.3,287811,287827.98,288310.4,,46,that
screen,html.Screen,2_3_1_0_1_47,2021-04-26T14:34:03.285Z,,,,,,,,,,,,,,,,,51,,,,,,,,,,,,,,474.5999999999767,,response,,,,13,C,,,,,,Space,keypress(Space),,,,instrumental,,,,-------- -------- --- --- ---- --- --- ------ -- --------<br>---- --------- --- ------- ------------ ---------- ---------<br>--- ---------- ------- ---------- ------- -- -------- ----<br>---- --- ------ ----- ------ -- ---- --- ----- -- - -------<br>-------- -- --- --- -- ----- ----------- ----- -----------<br>---- are ---------- --- ---- --- -- ----------,288790,288785,288294.62,288291,288310.4,288811.28,,47,are
screen,html.Screen,2_3_1_0_1_48,2021-04-26T14:34:03.886Z,,,,,,,,,,,,,,,,,51,,,,,,,,,,,,,,573.7199999999721,,response,,,,13,C,,,,,,Space,keypress(Space),,,,instrumental,,,,-------- -------- --- --- ---- --- --- ------ -- --------<br>---- --------- --- ------- ------------ ---------- ---------<br>--- ---------- ------- ---------- ------- -- -------- ----<br>---- --- ------ ----- ------ -- ---- --- ----- -- - -------<br>-------- -- --- --- -- ----- ----------- ----- -----------<br>---- --- strangling --- ---- --- -- ----------,289391,289385,288794.58,288790,288811.28,289410.46,,48,strangling
screen,html.Screen,2_3_1_0_1_49,2021-04-26T14:34:04.284Z,,,,,,,,,,,,,,,,,51,,,,,,,,,,,,,,372.53999999997905,,response,,,,13,C,,,,,,Space,keypress(Space),,,,instrumental,,,,-------- -------- --- --- ---- --- --- ------ -- --------<br>---- --------- --- ------- ------------ ---------- ---------<br>--- ---------- ------- ---------- ------- -- -------- ----<br>---- --- ------ ----- ------ -- ---- --- ----- -- - -------<br>-------- -- --- --- -- ----- ----------- ----- -----------<br>---- --- ---------- the ---- --- -- ----------,289789,289783,289394.58,289392,289410.46,289811.3,,49,the
