sender,sender_type,sender_id,timestamp,meta,,Blues,Classical,Country,Dance,Electronic,Folk,Gospel,Hip-Hop,Jazz,Latin,Musical/Film,New-age,Pop,Prolific_id,Provo_ID,R&B,Rap,Reggae,Religious,Rock,Soul,Swing,Traditional,age,artist_name,correct,correctResponse,distraction,duration,education,ended_on,familiarity,gender,headphone_check_performance,item,list,music_frequency,offensiveness,pleasantness,position_correct,preference,response,response_action,snippet_file,song_name,song_rating,sound,stimulus_1,stimulus_2,stimulus_3,text,time_commit,time_end,time_render,time_run,time_show,time_switch,url,word,word_ID
Prolific ID,html.Form,0,2021-04-26T19:04:11.211Z,"{""labjs_version"":""20.2.2"",""labjs_build"":{""flavor"":""production"",""commit"":""a25486e0c714a0ae2ce03ff94b7bb6896854dcfa""},""location"":""https://run.pavlovia.org/mvasilev/prolific_music_d/"",""userAgent"":""Mozilla/5.0 (Windows NT 10.0; Win64; x64) AppleWebKit/537.36 (KHTML, like Gecko) Chrome/90.0.4430.85 Safari/537.36"",""platform"":""Win32"",""language"":""en-GB"",""locale"":""en-GB"",""timeZone"":""Europe/London"",""timezoneOffset"":-60,""screen_width"":1536,""screen_height"":864,""scroll_width"":1536,""scroll_height"":674,""window_innerWidth"":1536,""window_innerHeight"":722,""devicePixelRatio"":1.25}",,,,,,,,,,,,,,,5ec390e91c38ea1e1a06c7bb,,,,,,,,,,,,,,,3787.3490000031106,,form submission,,,,,,,,,,,,,,,,,,,,,14970.980000005511,14970.71500000311,11166.66,11166.87500000262,11183.366,14980.222,{},,
Introduction,html.Screen,1_0,2021-04-26T19:04:15.126Z,,,,,,,,,,,,,,,,,,,,,,,,,,,,,,,3904.113000002466,,response,,,,,,,,,,,continue,click button,,,,,,,,,18886.08500000555,18884.335000002466,14963.72,14971.190000003844,14980.222,18893.634,,,
Volume calibration,html.Screen,1_1,2021-04-26T19:04:25.811Z,,,,,,,,,,,,,,,,,,,,,,,,,,,,,,,10675.576000001478,,response,,,,,,,,,,,continue,click button,,,,,,,,,29571.125000002212,29569.210000001476,18877.176,18886.210000004212,18893.634,29584.931,,,
Task instructions,html.Screen,1_2,2021-04-26T19:04:34.125Z,,,,,,,,,,,,,,,,,,,,,,,,,,,,,,,8298.52900000456,,response,,,,,,,,,,,continue,click button,,,,,,,,,37884.57500000368,37883.46000000456,29568.575,29571.34500000393,29584.931,37894.921,,,
Sounds,html.Screen,1_3_0_0,2021-04-26T19:04:38.368Z,,,,,,,,,,,,,,,,,,,,,,,,,,,,,,,4246.382999999994,,timeout,,,,,,,,,1,,,,,,,,S,I,O,,42128.09500000003,42124.631,37878.237,37884.93500000186,37894.921,42141.304,,,
Judgement,html.Screen,1_3_0_1,2021-04-26T19:04:39.304Z,,,,,,,,,,,,,,,,,,,,,,,,,,,,true,1,,921.1709999988161,,response,,,,,,,,,1,,1,click #choice-1,,,,,S,I,O,,43063.60500000301,43062.47499999881,42124.631,42128.1999999992,42141.304,43073.842,,,
Trial,flow.Sequence,1_3_0,2021-04-26T19:04:39.304Z,,,,,,,,,,,,,,,,,,,,,,,,,,,,,,,5167.5539999988105,,completion,,,,,,,,,1,,,,,,,,S,I,O,,43063.84999999864,43062.47499999881,37878.237,37884.8399999988,37894.921,43073.842,,,
Sounds,html.Screen,1_3_1_0,2021-04-26T19:04:43.544Z,,,,,,,,,,,,,,,,,,,,,,,,,,,,,,,4246.533000000003,,timeout,,,,,,,,,2,,,,,,,,O,S,I,,47304.24000000494,47303.724,43057.202,43063.945000001695,43073.842,47320.375,,,
Judgement,html.Screen,1_3_1_1,2021-04-26T19:04:44.168Z,,,,,,,,,,,,,,,,,,,,,,,,,,,,true,2,,606.6750000056927,,response,,,,,,,,,2,,2,click #choice-2,,,,,O,S,I,,47927.575000001525,47927.05000000569,47303.724,47304.32999999903,47320.375,47936.504,,,
Trial,flow.Sequence,1_3_1,2021-04-26T19:04:44.168Z,,,,,,,,,,,,,,,,,,,,,,,,,,,,,,,4853.208000005696,,completion,,,,,,,,,2,,,,,,,,O,S,I,,47927.739999999176,47927.05000000569,43057.202,43063.914999998815,43073.842,47936.504,,,
Sounds,html.Screen,1_3_2_0,2021-04-26T19:04:48.407Z,,,,,,,,,,,,,,,,,,,,,,,,,,,,,,,4246.559000000001,,timeout,,,,,,,,,2,,,,,,,,I,S,O,,52167.294999999285,52166.414,47913.987,47927.84500000562,47936.504,52183.063,,,
Judgement,html.Screen,1_3_2_1,2021-04-26T19:04:48.935Z,,,,,,,,,,,,,,,,,,,,,,,,,,,,true,2,,511.22699999945326,,response,,,,,,,,,2,,2,click #choice-2,,,,,I,S,O,,52695.18500000413,52694.289999999455,52166.414,52167.405000000144,52183.063,52715.956,,,
Trial,flow.Sequence,1_3_2,2021-04-26T19:04:48.935Z,,,,,,,,,,,,,,,,,,,,,,,,,,,,,,,4757.785999999454,,completion,,,,,,,,,2,,,,,,,,I,S,O,,52695.449999999255,52694.289999999455,47913.987,47927.810000001045,47936.504,52715.956,,,
Sounds,html.Screen,1_3_3_0,2021-04-26T19:04:53.186Z,,,,,,,,,,,,,,,,,,,,,,,,,,,,,,,4246.489000000001,,timeout,,,,,,,,,3,,,,,,,,O,I,S,,56946.4650000009,56945.797,52699.67,52695.64000000537,52715.956,56962.445,,,
Judgement,html.Screen,1_3_3_1,2021-04-26T19:04:53.765Z,,,,,,,,,,,,,,,,,,,,,,,,,,,,true,3,,561.855000004587,,response,,,,,,,,,3,,3,click #choice-3,,,,,O,I,S,,57525.235000000976,57524.30000000459,56945.797,56946.63500000024,56962.445,57545.344,,,
Trial,flow.Sequence,1_3_3,2021-04-26T19:04:53.766Z,,,,,,,,,,,,,,,,,,,,,,,,,,,,,,,4808.344000004588,,completion,,,,,,,,,3,,,,,,,,O,I,S,,57525.49500000168,57524.30000000459,52699.67,52695.57999999961,52715.956,57545.344,,,
Sounds,html.Screen,1_3_4_0,2021-04-26T19:04:58.016Z,,,,,,,,,,,,,,,,,,,,,,,,,,,,,,,4246.495999999999,,timeout,,,,,,,,,1,,,,,,,,S,O,I,,61775.7150000034,61775.152,57528.961,57525.67500000441,57545.344,61791.84,,,
Judgement,html.Screen,1_3_4_1,2021-04-26T19:04:58.653Z,,,,,,,,,,,,,,,,,,,,,,,,,,,,true,1,,619.6800000014773,,response,,,,,,,,,1,,1,click #choice-1,,,,,S,O,I,,62413.01000000385,62411.520000001474,61775.152,61775.82000000257,61791.84,62424.684,,,
Trial,flow.Sequence,1_3_4,2021-04-26T19:04:58.653Z,,,,,,,,,,,,,,,,,,,,,,,,,,,,,,,4866.1760000014765,,completion,,,,,,,,,1,,,,,,,,S,O,I,,62413.274999998976,62411.520000001474,57528.961,57525.63000000373,57545.344,62424.684,,,
Sounds,html.Screen,1_3_5_0,2021-04-26T19:05:02.896Z,,,,,,,,,,,,,,,,,,,,,,,,,,,,,,,4246.761999999995,,timeout,,,,,,,,,3,,,,,,,,I,O,S,,66656.07499999896,66654.575,62408.218,62413.445000005595,62424.684,66671.446,,,
Judgement,html.Screen,1_3_5_1,2021-04-26T19:05:03.656Z,,,,,,,,,,,,,,,,,,,,,,,,,,,,true,3,,743.1940000026952,,response,,,,,,,,,3,,3,click #choice-3,,,,,I,O,S,,67416.0250000059,67414.64000000269,66654.575,66656.41500000493,66671.446,67420.576,,,
Trial,flow.Sequence,1_3_5,2021-04-26T19:05:03.656Z,,,,,,,,,,,,,,,,,,,,,,,,,,,,,,,4989.95600000269,,completion,,,,,,,,,3,,,,,,,,I,O,S,,67416.29000000103,67414.64000000269,62408.218,62413.39500000322,62424.684,67420.576,,,
Task,flow.Loop,1_3,2021-04-26T19:05:03.662Z,,,,,,,,,,,,,,,,,,,,,,,,,,,,,,,29519.71900000269,,completion,,,1,,,,,,,,,,,,,,,,,,67421.8450000044,67414.64000000269,37878.237,37884.760000000824,37894.921,67420.576,,,
Trap,html.Screen,1_4,2021-04-26T19:05:03.663Z,,,,,,,,,,,,,,,,,,,,,,,,,,,,,,,NaN,,skipped,,,,,,,,,,,,,,,,,,,,,67423.13999999897,67414.64000000269,,67423.0549999993,,67420.576,,,
Thanks,html.Screen,1_5,2021-04-26T19:05:06.669Z,,,,,,,,,,,,,,,,,,,,,,,,,,,,,,,3007.208999999857,,response,,,,,,,,,,,continue,click button,,,,,,,,,70428.57999999978,70427.78499999986,67403.98,67423.22499999864,67420.576,73015.977,,,
Headphone screening,flow.Sequence,1,2021-04-26T19:05:06.669Z,,,,,,,,,,,,,,,,,,,,,,,,,,,,,,,55447.56299999986,,completion,,,,,,,,,,,,,,,,,,,,,70428.820000001,70427.78499999986,14963.72,14971.165000002657,14980.222,73015.977,,,
Instructions,html.Page,2_0,2021-04-26T19:05:23.204Z,,,,,,,,,,,,,,,,,,,,,,,,,,,,,,,13947.26300000459,,form submission,,,,,,,,,,,,,,,,,,,,,86963.56000000378,86963.24000000459,72999.278,73008.3700000032,73015.977,86971.168,,,
Holding screen,html.Screen,2_1_0_0,2021-04-26T19:05:33.188Z,,,,,,,,,,,,,,,,,,,,,,,,,,,,,,,10008.519,,timeout,,,,,,,,,,,,,,,,,,,,,96947.8900000031,96946.884,86954.579,86963.83500000229,86971.168,96979.687,,,
screen,html.Screen,2_1_0_1_0,2021-04-26T19:05:34.457Z,,,,,,,,,,,,,,,,,53,,,,,,,,,,,,,,1232.0430000027118,,response,,,,99,,,,,,,Space,keypress(Space),,,,,,,,When -- ----- -- ------ - ------- --- ----------<br>------------- ------ ------ ---- ---- ------- ----- -- ----<br>-------- ------- -- ---------- --- - --- ----- ----- ----<br>---- --- --- ----- --- ---- ---- ------- ----- ---- -------<br>--- --- -- ----- -- --- ---- -- --- ---- -- ------ ------<br>--- ----- -- ----,98217.2750000027,98211.73000000272,96946.884,96948.30500000535,96979.687,98228.777,,0,When
screen,html.Screen,2_1_0_1_1,2021-04-26T19:05:34.781Z,,,,,,,,,,,,,,,,,53,,,,,,,,,,,,,,310.9280000028666,,response,,,,99,,,,,,,Space,keypress(Space),,,,,,,,---- it ----- -- ------ - ------- --- ----------<br>------------- ------ ------ ---- ---- ------- ----- -- ----<br>-------- ------- -- ---------- --- - --- ----- ----- ----<br>---- --- --- ----- --- ---- ---- ------- ----- ---- -------<br>--- --- -- ----- -- --- ---- -- --- ---- -- ------ ------<br>--- ----- -- ----,98540.69000000163,98539.70500000287,98212.341,98217.45999999985,98228.777,98544.979,,1,it
screen,html.Screen,2_1_0_1_2,2021-04-26T19:05:35.144Z,,,,,,,,,,,,,,,,,53,,,,,,,,,,,,,,357.58100000226113,,response,,,,99,,,,,,,Space,keypress(Space),,,,,,,,---- -- comes -- ------ - ------- --- ----------<br>------------- ------ ------ ---- ---- ------- ----- -- ----<br>-------- ------- -- ---------- --- - --- ----- ----- ----<br>---- --- --- ----- --- ---- ---- ------- ----- ---- -------<br>--- --- -- ----- -- --- ---- -- --- ---- -- ------ ------<br>--- ----- -- ----,98903.49499999866,98902.56000000227,98528.661,98540.97500000353,98544.979,98911.554,,2,comes
screen,html.Screen,2_1_0_1_3,2021-04-26T19:05:35.436Z,,,,,,,,,,,,,,,,,53,,,,,,,,,,,,,,284.13600000046426,,response,,,,99,,,,,,,Space,keypress(Space),,,,,,,,---- -- ----- to ------ - ------- --- ----------<br>------------- ------ ------ ---- ---- ------- ----- -- ----<br>-------- ------- -- ---------- --- - --- ----- ----- ----<br>---- --- --- ----- --- ---- ---- ------- ----- ---- -------<br>--- --- -- ----- -- --- ---- -- --- ---- -- ------ ------<br>--- ----- -- ----,99196.08500000322,99195.69000000047,98895.125,98903.78500000224,98911.554,99211.593,,3,to
screen,html.Screen,2_1_0_1_4,2021-04-26T19:05:35.744Z,,,,,,,,,,,,,,,,,53,,,,,,,,,,,,,,290.98200000589713,,response,,,,99,,,,,,,Space,keypress(Space),,,,,,,,---- -- ----- -- having - ------- --- ----------<br>------------- ------ ------ ---- ---- ------- ----- -- ----<br>-------- ------- -- ---------- --- - --- ----- ----- ----<br>---- --- --- ----- --- ---- ---- ------- ----- ---- -------<br>--- --- -- ----- -- --- ---- -- --- ---- -- ------ ------<br>--- ----- -- ----,99503.56000000465,99502.57500000589,99194.81,99196.1700000029,99211.593,99510.979,,4,having
screen,html.Screen,2_1_0_1_5,2021-04-26T19:05:36.027Z,,,,,,,,,,,,,,,,,53,,,,,,,,,,,,,,274.53600000320876,,response,,,,99,,,,,,,Space,keypress(Space),,,,,,,,---- -- ----- -- ------ a ------- --- ----------<br>------------- ------ ------ ---- ---- ------- ----- -- ----<br>-------- ------- -- ---------- --- - --- ----- ----- ----<br>---- --- --- ----- --- ---- ---- ------- ----- ---- -------<br>--- --- -- ----- -- --- ---- -- --- ---- -- ------ ------<br>--- ----- -- ----,99786.48500000418,99785.51500000322,99494.338,99503.84000000486,99510.979,99794.086,,5,a
screen,html.Screen,2_1_0_1_6,2021-04-26T19:05:36.354Z,,,,,,,,,,,,,,,,,53,,,,,,,,,,,,,,318.82400000347116,,response,,,,99,,,,,,,Space,keypress(Space),,,,,,,,---- -- ----- -- ------ - lasting --- ----------<br>------------- ------ ------ ---- ---- ------- ----- -- ----<br>-------- ------- -- ---------- --- - --- ----- ----- ----<br>---- --- --- ----- --- ---- ---- ------- ----- ---- -------<br>--- --- -- ----- -- --- ---- -- --- ---- -- ------ ------<br>--- ----- -- ----,100114.11500000395,100112.91000000347,99777.809,99786.77500000049,99794.086,100127.317,,6,lasting
screen,html.Screen,2_1_0_1_7,2021-04-26T19:05:36.688Z,,,,,,,,,,,,,,,,,53,,,,,,,,,,,,,,320.34799999969255,,response,,,,99,,,,,,,Space,keypress(Space),,,,,,,,---- -- ----- -- ------ - ------- and ----------<br>------------- ------ ------ ---- ---- ------- ----- -- ----<br>-------- ------- -- ---------- --- - --- ----- ----- ----<br>---- --- --- ----- --- ---- ---- ------- ----- ---- -------<br>--- --- -- ----- -- --- ---- -- --- ---- -- ------ ------<br>--- ----- -- ----,100448.1500000038,100447.66499999969,100110.804,100114.48000000382,100127.317,100460.474,,7,and
screen,html.Screen,2_1_0_1_8,2021-04-26T19:05:37.046Z,,,,,,,,,,,,,,,,,53,,,,,,,,,,,,,,344.9109999996581,,response,,,,99,,,,,,,Space,keypress(Space),,,,,,,,---- -- ----- -- ------ - ------- --- fulfilling<br>------------- ------ ------ ---- ---- ------- ----- -- ----<br>-------- ------- -- ---------- --- - --- ----- ----- ----<br>---- --- --- ----- --- ---- ---- ------- ----- ---- -------<br>--- --- -- ----- -- --- ---- -- --- ---- -- ------ ------<br>--- ----- -- ----,100805.92500000057,100805.38499999966,100443.548,100448.26499999908,100460.474,100809.883,,8,fulfilling
screen,html.Screen,2_1_0_1_9,2021-04-26T19:05:37.351Z,,,,,,,,,,,,,,,,,53,,,,,,,,,,,,,,300.20200000025216,,response,,,,99,,,,,,,Space,keypress(Space),,,,,,,,"---- -- ----- -- ------ - ------- --- ----------<br>relationship, ------ ------ ---- ---- ------- ----- -- ----<br>-------- ------- -- ---------- --- - --- ----- ----- ----<br>---- --- --- ----- --- ---- ---- ------- ----- ---- -------<br>--- --- -- ----- -- --- ---- -- --- ---- -- ------ ------<br>--- ----- -- ----",101111.05500000122,101110.08500000025,100793.497,100806.04000000312,100809.883,101126.747,,9,"relationship,"
screen,html.Screen,2_1_0_1_10,2021-04-26T19:05:37.747Z,,,,,,,,,,,,,,,,,53,,,,,,,,,,,,,,379.482999999047,,response,,,,99,,,,,,,Space,keypress(Space),,,,,,,,---- -- ----- -- ------ - ------- --- ----------<br>------------- common ------ ---- ---- ------- ----- -- ----<br>-------- ------- -- ---------- --- - --- ----- ----- ----<br>---- --- --- ----- --- ---- ---- ------- ----- ---- -------<br>--- --- -- ----- -- --- ---- -- --- ---- -- ------ ------<br>--- ----- -- ----,101507.16000000102,101506.22999999905,101109.952,101111.36999999871,101126.747,101509.317,,10,common
screen,html.Screen,2_1_0_1_11,2021-04-26T19:05:38.037Z,,,,,,,,,,,,,,,,,53,,,,,,,,,,,,,,286.43300000477757,,response,,,,99,,,,,,,Space,keypress(Space),,,,,,,,---- -- ----- -- ------ - ------- --- ----------<br>------------- ------ wisdom ---- ---- ------- ----- -- ----<br>-------- ------- -- ---------- --- - --- ----- ----- ----<br>---- --- --- ----- --- ---- ---- ------- ----- ---- -------<br>--- --- -- ----- -- --- ---- -- --- ---- -- ------ ------<br>--- ----- -- ----,101796.3149999996,101795.75000000477,101492.873,101507.44500000292,101509.317,101809.138,,11,wisdom
screen,html.Screen,2_1_0_1_12,2021-04-26T19:05:38.353Z,,,,,,,,,,,,,,,,,53,,,,,,,,,,,,,,303.1270000033837,,response,,,,99,,,,,,,Space,keypress(Space),,,,,,,,---- -- ----- -- ------ - ------- --- ----------<br>------------- ------ ------ says ---- ------- ----- -- ----<br>-------- ------- -- ---------- --- - --- ----- ----- ----<br>---- --- --- ----- --- ---- ---- ------- ----- ---- -------<br>--- --- -- ----- -- --- ---- -- --- ---- -- ------ ------<br>--- ----- -- ----,102112.93999999907,102112.26500000339,101792.766,101796.46499999944,101809.138,102125.404,,12,says
screen,html.Screen,2_1_0_1_13,2021-04-26T19:05:38.654Z,,,,,,,,,,,,,,,,,53,,,,,,,,,,,,,,287.55600000148115,,response,,,,99,,,,,,,Space,keypress(Space),,,,,,,,---- -- ----- -- ------ - ------- --- ----------<br>------------- ------ ------ ---- that ------- ----- -- ----<br>-------- ------- -- ---------- --- - --- ----- ----- ----<br>---- --- --- ----- --- ---- ---- ------- ----- ---- -------<br>--- --- -- ----- -- --- ---- -- --- ---- -- ------ ------<br>--- ----- -- ----,102413.89000000345,102412.96000000148,102109.142,102113.17500000587,102125.404,102425.61,,13,that
screen,html.Screen,2_1_0_1_14,2021-04-26T19:05:38.941Z,,,,,,,,,,,,,,,,,53,,,,,,,,,,,,,,275.02500000105647,,response,,,,99,,,,,,,Space,keypress(Space),,,,,,,,---- -- ----- -- ------ - ------- --- ----------<br>------------- ------ ------ ---- ---- feeling ----- -- ----<br>-------- ------- -- ---------- --- - --- ----- ----- ----<br>---- --- --- ----- --- ---- ---- ------- ----- ---- -------<br>--- --- -- ----- -- --- ---- -- --- ---- -- ------ ------<br>--- ----- -- ----,102701.03000000381,102700.63500000106,102408.48,102414.17500000534,102425.61,102708.448,,14,feeling
screen,html.Screen,2_1_0_1_15,2021-04-26T19:05:39.250Z,,,,,,,,,,,,,,,,,53,,,,,,,,,,,,,,300.69700000362354,,response,,,,99,,,,,,,Space,keypress(Space),,,,,,,,---- -- ----- -- ------ - ------- --- ----------<br>------------- ------ ------ ---- ---- ------- close -- ----<br>-------- ------- -- ---------- --- - --- ----- ----- ----<br>---- --- --- ----- --- ---- ---- ------- ----- ---- -------<br>--- --- -- ----- -- --- ---- -- --- ---- -- ------ ------<br>--- ----- -- ----,103010.08500000171,103009.14500000363,102691.658,102701.1050000001,102708.448,103025.117,,15,close
screen,html.Screen,2_1_0_1_16,2021-04-26T19:05:39.573Z,,,,,,,,,,,,,,,,,53,,,,,,,,,,,,,,306.9280000028375,,response,,,,99,,,,,,,Space,keypress(Space),,,,,,,,---- -- ----- -- ------ - ------- --- ----------<br>------------- ------ ------ ---- ---- ------- ----- to ----<br>-------- ------- -- ---------- --- - --- ----- ----- ----<br>---- --- --- ----- --- ---- ---- ------- ----- ---- -------<br>--- --- -- ----- -- --- ---- -- --- ---- -- ------ ------<br>--- ----- -- ----,103332.54500000476,103332.04500000284,103008.262,103010.3850000014,103025.117,103341.478,,16,to
screen,html.Screen,2_1_0_1_17,2021-04-26T19:05:39.923Z,,,,,,,,,,,,,,,,,53,,,,,,,,,,,,,,340.53200000408106,,response,,,,99,,,,,,,Space,keypress(Space),,,,,,,,---- -- ----- -- ------ - ------- --- ----------<br>------------- ------ ------ ---- ---- ------- ----- -- your<br>-------- ------- -- ---------- --- - --- ----- ----- ----<br>---- --- --- ----- --- ---- ---- ------- ----- ---- -------<br>--- --- -- ----- -- --- ---- -- --- ---- -- ------ ------<br>--- ----- -- ----,103682.42000000464,103682.01000000408,103324.437,103332.63499999885,103341.478,103690.828,,17,your
screen,html.Screen,2_1_0_1_18,2021-04-26T19:05:40.212Z,,,,,,,,,,,,,,,,,53,,,,,,,,,,,,,,279.76699999887205,,response,,,,99,,,,,,,Space,keypress(Space),,,,,,,,---- -- ----- -- ------ - ------- --- ----------<br>------------- ------ ------ ---- ---- ------- ----- -- ----<br>romantic ------- -- ---------- --- - --- ----- ----- ----<br>---- --- --- ----- --- ---- ---- ------- ----- ---- -------<br>--- --- -- ----- -- --- ---- -- --- ---- -- ------ ------<br>--- ----- -- ----,103971.6000000044,103970.59499999887,103674.501,103682.5450000033,103690.828,103973.941,,18,romantic
screen,html.Screen,2_1_0_1_19,2021-04-26T19:05:40.531Z,,,,,,,,,,,,,,,,,53,,,,,,,,,,,,,,315.3640000056912,,response,,,,99,,,,,,,Space,keypress(Space),,,,,,,,---- -- ----- -- ------ - ------- --- ----------<br>------------- ------ ------ ---- ---- ------- ----- -- ----<br>-------- partner -- ---------- --- - --- ----- ----- ----<br>---- --- --- ----- --- ---- ---- ------- ----- ---- -------<br>--- --- -- ----- -- --- ---- -- --- ---- -- ------ ------<br>--- ----- -- ----,104290.41500000312,104289.3050000057,103957.752,103971.8950000024,103973.941,104307.306,,19,partner
screen,html.Screen,2_1_0_1_20,2021-04-26T19:05:40.856Z,,,,,,,,,,,,,,,,,53,,,,,,,,,,,,,,307.9539999986737,,response,,,,99,,,,,,,Space,keypress(Space),,,,,,,,---- -- ----- -- ------ - ------- --- ----------<br>------------- ------ ------ ---- ---- ------- ----- -- ----<br>-------- ------- is ---------- --- - --- ----- ----- ----<br>---- --- --- ----- --- ---- ---- ------- ----- ---- -------<br>--- --- -- ----- -- --- ---- -- --- ---- -- ------ ------<br>--- ----- -- ----,104616.19500000234,104615.25999999867,104290.595,104290.69500000332,104307.306,104623.37,,20,is
screen,html.Screen,2_1_0_1_21,2021-04-26T19:05:41.119Z,,,,,,,,,,,,,,,,,53,,,,,,,,,,,,,,254.370000003546,,response,,,,99,,,,,,,Space,keypress(Space),,,,,,,,---- -- ----- -- ------ - ------- --- ----------<br>------------- ------ ------ ---- ---- ------- ----- -- ----<br>-------- ------- -- paramount. --- - --- ----- ----- ----<br>---- --- --- ----- --- ---- ---- ------- ----- ---- -------<br>--- --- -- ----- -- --- ---- -- --- ---- -- ------ ------<br>--- ----- -- ----,104878.68500000332,104877.74000000354,104606.935,104616.49000000034,104623.37,104890.132,,21,paramount.
screen,html.Screen,2_1_0_1_22,2021-04-26T19:05:41.494Z,,,,,,,,,,,,,,,,,53,,,,,,,,,,,,,,362.2079999990965,,response,,,,99,,,,,,,Space,keypress(Space),,,,,,,,---- -- ----- -- ------ - ------- --- ----------<br>------------- ------ ------ ---- ---- ------- ----- -- ----<br>-------- ------- -- ---------- But - --- ----- ----- ----<br>---- --- --- ----- --- ---- ---- ------- ----- ---- -------<br>--- --- -- ----- -- --- ---- -- --- ---- -- ------ ------<br>--- ----- -- ----,105253.28000000445,105252.3399999991,104873.112,104878.98000000132,104890.132,105256.232,,22,But
screen,html.Screen,2_1_0_1_23,2021-04-26T19:05:41.762Z,,,,,,,,,,,,,,,,,53,,,,,,,,,,,,,,264.4080000024551,,response,,,,99,,,,,,,Space,keypress(Space),,,,,,,,---- -- ----- -- ------ - ------- --- ----------<br>------------- ------ ------ ---- ---- ------- ----- -- ----<br>-------- ------- -- ---------- --- a --- ----- ----- ----<br>---- --- --- ----- --- ---- ---- ------- ----- ---- -------<br>--- --- -- ----- -- --- ---- -- --- ---- -- ------ ------<br>--- ----- -- ----,105521.73000000039,105520.64000000246,105239.542,105253.56499999907,105256.232,105556.38,,23,a
screen,html.Screen,2_1_0_1_24,2021-04-26T19:05:42.060Z,,,,,,,,,,,,,,,,,53,,,,,,,,,,,,,,262.40500000311295,,response,,,,99,,,,,,,Space,keypress(Space),,,,,,,,---- -- ----- -- ------ - ------- --- ----------<br>------------- ------ ------ ---- ---- ------- ----- -- ----<br>-------- ------- -- ---------- --- - new ----- ----- ----<br>---- --- --- ----- --- ---- ---- ------- ----- ---- -------<br>--- --- -- ----- -- --- ---- -- --- ---- -- ------ ------<br>--- ----- -- ----,105819.73500000458,105818.78500000312,105539.512,105522.19500000501,105556.38,105822.415,,24,new
screen,html.Screen,2_1_0_1_25,2021-04-26T19:05:42.362Z,,,,,,,,,,,,,,,,,53,,,,,,,,,,,,,,298.8950000022742,,response,,,,99,,,,,,,Space,keypress(Space),,,,,,,,---- -- ----- -- ------ - ------- --- ----------<br>------------- ------ ------ ---- ---- ------- ----- -- ----<br>-------- ------- -- ---------- --- - --- study ----- ----<br>---- --- --- ----- --- ---- ---- ------- ----- ---- -------<br>--- --- -- ----- -- --- ---- -- --- ---- -- ------ ------<br>--- ----- -- ----,106122.23500000255,106121.31000000227,105805.789,105820.01500000479,105822.415,106138.898,,25,study
screen,html.Screen,2_1_0_1_26,2021-04-26T19:05:42.691Z,,,,,,,,,,,,,,,,,53,,,,,,,,,,,,,,311.3019999993121,,response,,,,99,,,,,,,Space,keypress(Space),,,,,,,,---- -- ----- -- ------ - ------- --- ----------<br>------------- ------ ------ ---- ---- ------- ----- -- ----<br>-------- ------- -- ---------- --- - --- ----- finds ----<br>---- --- --- ----- --- ---- ---- ------- ----- ---- -------<br>--- --- -- ----- -- --- ---- -- --- ---- -- ------ ------<br>--- ----- -- ----,106450.56000000477,106450.19999999931,106122.583,106122.52000000444,106138.898,106455.21,,26,finds
screen,html.Screen,2_1_0_1_27,2021-04-26T19:05:43.010Z,,,,,,,,,,,,,,,,,53,,,,,,,,,,,,,,313.8350000009086,,response,,,,99,,,,,,,Space,keypress(Space),,,,,,,,---- -- ----- -- ------ - ------- --- ----------<br>------------- ------ ------ ---- ---- ------- ----- -- ----<br>-------- ------- -- ---------- --- - --- ----- ----- that<br>---- --- --- ----- --- ---- ---- ------- ----- ---- -------<br>--- --- -- ----- -- --- ---- -- --- ---- -- ------ ------<br>--- ----- -- ----,106769.45500000147,106769.04500000092,106438.527,106450.68000000174,106455.21,106771.562,,27,that
screen,html.Screen,2_1_0_1_28,2021-04-26T19:05:43.278Z,,,,,,,,,,,,,,,,,53,,,,,,,,,,,,,,265.6480000022275,,response,,,,99,,,,,,,Space,keypress(Space),,,,,,,,---- -- ----- -- ------ - ------- --- ----------<br>------------- ------ ------ ---- ---- ------- ----- -- ----<br>-------- ------- -- ---------- --- - --- ----- ----- ----<br>it's --- --- ----- --- ---- ---- ------- ----- ---- -------<br>--- --- -- ----- -- --- ---- -- --- ---- -- ------ ------<br>--- ----- -- ----,107038.23499999999,107037.21000000223,106755.088,106769.54000000114,106771.562,107054.866,,28,it's
screen,html.Screen,2_1_0_1_29,2021-04-26T19:05:43.528Z,,,,,,,,,,,,,,,,,53,,,,,,,,,,,,,,232.8340000007738,,response,,,,99,,,,,,,Space,keypress(Space),,,,,,,,---- -- ----- -- ------ - ------- --- ----------<br>------------- ------ ------ ---- ---- ------- ----- -- ----<br>-------- ------- -- ---------- --- - --- ----- ----- ----<br>---- not --- ----- --- ---- ---- ------- ----- ---- -------<br>--- --- -- ----- -- --- ---- -- --- ---- -- ------ ------<br>--- ----- -- ----,107288.155000002,107287.70000000077,107038.482,107038.51500000019,107054.866,107305.023,,29,not
screen,html.Screen,2_1_0_1_30,2021-04-26T19:05:43.823Z,,,,,,,,,,,,,,,,,53,,,,,,,,,,,,,,276.97200000045996,,response,,,,99,,,,,,,Space,keypress(Space),,,,,,,,---- -- ----- -- ------ - ------- --- ----------<br>------------- ------ ------ ---- ---- ------- ----- -- ----<br>-------- ------- -- ---------- --- - --- ----- ----- ----<br>---- --- how ----- --- ---- ---- ------- ----- ---- -------<br>--- --- -- ----- -- --- ---- -- --- ---- -- ------ ------<br>--- ----- -- ----,107582.88500000344,107581.99500000046,107288.374,107288.24500000337,107305.023,107587.597,,30,how
screen,html.Screen,2_1_0_1_31,2021-04-26T19:05:44.090Z,,,,,,,,,,,,,,,,,53,,,,,,,,,,,,,,261.4130000053701,,response,,,,99,,,,,,,Space,keypress(Space),,,,,,,,---- -- ----- -- ------ - ------- --- ----------<br>------------- ------ ------ ---- ---- ------- ----- -- ----<br>-------- ------- -- ---------- --- - --- ----- ----- ----<br>---- --- --- close --- ---- ---- ------- ----- ---- -------<br>--- --- -- ----- -- --- ---- -- --- ---- -- ------ ------<br>--- ----- -- ----,107850.05000000092,107849.01000000536,107571.367,107583.17499999976,107587.597,107854.108,,31,close
screen,html.Screen,2_1_0_1_32,2021-04-26T19:05:44.420Z,,,,,,,,,,,,,,,,,53,,,,,,,,,,,,,,324.82200000186276,,response,,,,99,,,,,,,Space,keypress(Space),,,,,,,,---- -- ----- -- ------ - ------- --- ----------<br>------------- ------ ------ ---- ---- ------- ----- -- ----<br>-------- ------- -- ---------- --- - --- ----- ----- ----<br>---- --- --- ----- you ---- ---- ------- ----- ---- -------<br>--- --- -- ----- -- --- ---- -- --- ---- -- ------ ------<br>--- ----- -- ----,108179.42500000208,108178.93000000186,107837.678,107850.34000000451,107854.108,108187.454,,32,you
screen,html.Screen,2_1_0_1_33,2021-04-26T19:05:44.693Z,,,,,,,,,,,,,,,,,53,,,,,,,,,,,,,,264.066000002349,,response,,,,99,,,,,,,Space,keypress(Space),,,,,,,,---- -- ----- -- ------ - ------- --- ----------<br>------------- ------ ------ ---- ---- ------- ----- -- ----<br>-------- ------- -- ---------- --- - --- ----- ----- ----<br>---- --- --- ----- --- feel ---- ------- ----- ---- -------<br>--- --- -- ----- -- --- ---- -- --- ---- -- ------ ------<br>--- ----- -- ----,108452.78500000131,108451.52000000235,108170.686,108179.55500000244,108187.454,108470.457,,33,feel
screen,html.Screen,2_1_0_1_34,2021-04-26T19:05:44.954Z,,,,,,,,,,,,,,,,,53,,,,,,,,,,,,,,241.90799999941373,,response,,,,99,,,,,,,Space,keypress(Space),,,,,,,,---- -- ----- -- ------ - ------- --- ----------<br>------------- ------ ------ ---- ---- ------- ----- -- ----<br>-------- ------- -- ---------- --- - --- ----- ----- ----<br>---- --- --- ----- --- ---- that ------- ----- ---- -------<br>--- --- -- ----- -- --- ---- -- --- ---- -- ------ ------<br>--- ----- -- ----,108713.28000000358,108712.36499999941,108437.273,108453.04500000202,108470.457,108720.235,,34,that
screen,html.Screen,2_1_0_1_35,2021-04-26T19:05:45.281Z,,,,,,,,,,,,,,,,,53,,,,,,,,,,,,,,319.3650000037014,,response,,,,99,,,,,,,Space,keypress(Space),,,,,,,,---- -- ----- -- ------ - ------- --- ----------<br>------------- ------ ------ ---- ---- ------- ----- -- ----<br>-------- ------- -- ---------- --- - --- ----- ----- ----<br>---- --- --- ----- --- ---- ---- matters ----- ---- -------<br>--- --- -- ----- -- --- ---- -- --- ---- -- ------ ------<br>--- ----- -- ----,109040.53500000009,109039.6000000037,108703.739,108713.56999999989,108720.235,109053.614,,35,matters
screen,html.Screen,2_1_0_1_36,2021-04-26T19:05:45.532Z,,,,,,,,,,,,,,,,,53,,,,,,,,,,,,,,236.89599999890197,,response,,,,99,,,,,,,Space,keypress(Space),,,,,,,,"---- -- ----- -- ------ - ------- --- ----------<br>------------- ------ ------ ---- ---- ------- ----- -- ----<br>-------- ------- -- ---------- --- - --- ----- ----- ----<br>---- --- --- ----- --- ---- ---- ------- most, ---- -------<br>--- --- -- ----- -- --- ---- -- --- ---- -- ------ ------<br>--- ----- -- ----",109291.59000000072,109290.5099999989,109036.742,109042.15000000113,109053.614,109302.896,,36,"most,"
screen,html.Screen,2_1_0_1_37,2021-04-26T19:05:45.814Z,,,,,,,,,,,,,,,,,53,,,,,,,,,,,,,,270.3689999990893,,response,,,,99,,,,,,,Space,keypress(Space),,,,,,,,---- -- ----- -- ------ - ------- --- ----------<br>------------- ------ ------ ---- ---- ------- ----- -- ----<br>-------- ------- -- ---------- --- - --- ----- ----- ----<br>---- --- --- ----- --- ---- ---- ------- ----- it's -------<br>--- --- -- ----- -- --- ---- -- --- ---- -- ------ ------<br>--- ----- -- ----,109574.11500000308,109573.26499999908,109286.353,109291.83000000194,109302.896,109586.527,,37,it's
screen,html.Screen,2_1_0_1_38,2021-04-26T19:05:46.139Z,,,,,,,,,,,,,,,,,53,,,,,,,,,,,,,,311.583000001905,,response,,,,99,,,,,,,Space,keypress(Space),,,,,,,,---- -- ----- -- ------ - ------- --- ----------<br>------------- ------ ------ ---- ---- ------- ----- -- ----<br>-------- ------- -- ---------- --- - --- ----- ----- ----<br>---- --- --- ----- --- ---- ---- ------- ----- ---- whether<br>--- --- -- ----- -- --- ---- -- --- ---- -- ------ ------<br>--- ----- -- ----,109899.04500000557,109898.1100000019,109569.613,109575.7900000026,109586.527,109902.455,,38,whether
screen,html.Screen,2_1_0_1_39,2021-04-26T19:05:46.370Z,,,,,,,,,,,,,,,,,53,,,,,,,,,,,,,,226.66500000505766,,response,,,,99,,,,,,,Space,keypress(Space),,,,,,,,---- -- ----- -- ------ - ------- --- ----------<br>------------- ------ ------ ---- ---- ------- ----- -- ----<br>-------- ------- -- ---------- --- - --- ----- ----- ----<br>---- --- --- ----- --- ---- ---- ------- ----- ---- -------<br>you --- -- ----- -- --- ---- -- --- ---- -- ------ ------<br>--- ----- -- ----,110129.51500000054,110129.12000000506,109885.69,109899.31500000239,109902.455,110135.939,,39,you
screen,html.Screen,2_1_0_1_40,2021-04-26T19:05:46.658Z,,,,,,,,,,,,,,,,,53,,,,,,,,,,,,,,281.4510000023438,,response,,,,99,,,,,,,Space,keypress(Space),,,,,,,,---- -- ----- -- ------ - ------- --- ----------<br>------------- ------ ------ ---- ---- ------- ----- -- ----<br>-------- ------- -- ---------- --- - --- ----- ----- ----<br>---- --- --- ----- --- ---- ---- ------- ----- ---- -------<br>--- are -- ----- -- --- ---- -- --- ---- -- ------ ------<br>--- ----- -- ----,110417.83000000578,110417.39000000234,110119.219,110129.60000000021,110135.939,110435.726,,40,are
screen,html.Screen,2_1_0_1_41,2021-04-26T19:05:46.891Z,,,,,,,,,,,,,,,,,53,,,,,,,,,,,,,,214.55900000335532,,response,,,,99,,,,,,,Space,keypress(Space),,,,,,,,---- -- ----- -- ------ - ------- --- ----------<br>------------- ------ ------ ---- ---- ------- ----- -- ----<br>-------- ------- -- ---------- --- - --- ----- ----- ----<br>---- --- --- ----- --- ---- ---- ------- ----- ---- -------<br>--- --- as ----- -- --- ---- -- --- ---- -- ------ ------<br>--- ----- -- ----,110651.23000000312,110650.28500000335,110401.957,110417.92500000156,110435.726,110668.719,,41,as
screen,html.Screen,2_1_0_1_42,2021-04-26T19:05:47.126Z,,,,,,,,,,,,,,,,,53,,,,,,,,,,,,,,215.8209999991086,,response,,,,99,,,,,,,Space,keypress(Space),,,,,,,,---- -- ----- -- ------ - ------- --- ----------<br>------------- ------ ------ ---- ---- ------- ----- -- ----<br>-------- ------- -- ---------- --- - --- ----- ----- ----<br>---- --- --- ----- --- ---- ---- ------- ----- ---- -------<br>--- --- -- close -- --- ---- -- --- ---- -- ------ ------<br>--- ----- -- ----,110885.45500000328,110884.5399999991,110651.95,110651.49999999994,110668.719,110901.931,,42,close
screen,html.Screen,2_1_0_1_43,2021-04-26T19:05:47.418Z,,,,,,,,,,,,,,,,,53,,,,,,,,,,,,,,275.08400000112306,,response,,,,99,,,,,,,Space,keypress(Space),,,,,,,,---- -- ----- -- ------ - ------- --- ----------<br>------------- ------ ------ ---- ---- ------- ----- -- ----<br>-------- ------- -- ---------- --- - --- ----- ----- ----<br>---- --- --- ----- --- ---- ---- ------- ----- ---- -------<br>--- --- -- ----- as --- ---- -- --- ---- -- ------ ------<br>--- ----- -- ----,111177.6549999995,111177.01500000112,110885.255,110885.74499999959,110901.931,111184.88,,43,as
screen,html.Screen,2_1_0_1_44,2021-04-26T19:05:47.651Z,,,,,,,,,,,,,,,,,53,,,,,,,,,,,,,,221.9249999987078,,response,,,,99,,,,,,,Space,keypress(Space),,,,,,,,---- -- ----- -- ------ - ------- --- ----------<br>------------- ------ ------ ---- ---- ------- ----- -- ----<br>-------- ------- -- ---------- --- - --- ----- ----- ----<br>---- --- --- ----- --- ---- ---- ------- ----- ---- -------<br>--- --- -- ----- -- you ---- -- --- ---- -- ------ ------<br>--- ----- -- ----,111410.70500000205,111406.80499999871,111168.125,111177.79000000155,111184.88,111418.256,,44,you
screen,html.Screen,2_1_0_1_45,2021-04-26T19:05:47.888Z,,,,,,,,,,,,,,,,,53,,,,,,,,,,,,,,228.34900000173366,,response,,,,99,,,,,,,Space,keypress(Space),,,,,,,,---- -- ----- -- ------ - ------- --- ----------<br>------------- ------ ------ ---- ---- ------- ----- -- ----<br>-------- ------- -- ---------- --- - --- ----- ----- ----<br>---- --- --- ----- --- ---- ---- ------- ----- ---- -------<br>--- --- -- ----- -- --- want -- --- ---- -- ------ ------<br>--- ----- -- ----,111647.47999999963,111646.60500000173,111401.664,111411.00000000006,111418.256,111651.004,,45,want
screen,html.Screen,2_1_0_1_46,2021-04-26T19:05:48.182Z,,,,,,,,,,,,,,,,,53,,,,,,,,,,,,,,289.3910000050819,,response,,,,99,,,,,,,Space,keypress(Space),,,,,,,,---- -- ----- -- ------ - ------- --- ----------<br>------------- ------ ------ ---- ---- ------- ----- -- ----<br>-------- ------- -- ---------- --- - --- ----- ----- ----<br>---- --- --- ----- --- ---- ---- ------- ----- ---- -------<br>--- --- -- ----- -- --- ---- to --- ---- -- ------ ------<br>--- ----- -- ----,111941.28500000079,111940.39500000508,111634.666,111647.89500000188,111651.004,111951.006,,46,to
screen,html.Screen,2_1_0_1_47,2021-04-26T19:05:48.430Z,,,,,,,,,,,,,,,,,53,,,,,,,,,,,,,,238.21900000190362,,response,,,,99,,,,,,,Space,keypress(Space),,,,,,,,"---- -- ----- -- ------ - ------- --- ----------<br>------------- ------ ------ ---- ---- ------- ----- -- ----<br>-------- ------- -- ---------- --- - --- ----- ----- ----<br>---- --- --- ----- --- ---- ---- ------- ----- ---- -------<br>--- --- -- ----- -- --- ---- -- be, ---- -- ------ ------<br>--- ----- -- ----",112189.76500000281,112189.2250000019,111934.453,111941.5450000015,111951.006,112200.557,,47,"be,"
screen,html.Screen,2_1_0_1_48,2021-04-26T19:05:48.733Z,,,,,,,,,,,,,,,,,53,,,,,,,,,,,,,,291.27299999902607,,response,,,,99,,,,,,,Space,keypress(Space),,,,,,,,---- -- ----- -- ------ - ------- --- ----------<br>------------- ------ ------ ---- ---- ------- ----- -- ----<br>-------- ------- -- ---------- --- - --- ----- ----- ----<br>---- --- --- ----- --- ---- ---- ------- ----- ---- -------<br>--- --- -- ----- -- --- ---- -- --- even -- ------ ------<br>--- ----- -- ----,112492.63500000234,112491.82999999903,112184.288,112189.89500000316,112200.557,112500.402,,48,even
screen,html.Screen,2_1_0_1_49,2021-04-26T19:05:48.959Z,,,,,,,,,,,,,,,,,53,,,,,,,,,,,,,,217.38300000072923,,response,,,,99,,,,,,,Space,keypress(Space),,,,,,,,---- -- ----- -- ------ - ------- --- ----------<br>------------- ------ ------ ---- ---- ------- ----- -- ----<br>-------- ------- -- ---------- --- - --- ----- ----- ----<br>---- --- --- ----- --- ---- ---- ------- ----- ---- -------<br>--- --- -- ----- -- --- ---- -- --- ---- if ------ ------<br>--- ----- -- ----,112718.61000000354,112717.78500000073,112483.943,112492.91000000085,112500.402,112733.832,,49,if
screen,html.Screen,2_1_0_1_50,2021-04-26T19:05:49.230Z,,,,,,,,,,,,,,,,,53,,,,,,,,,,,,,,254.9080000006943,,response,,,,99,,,,,,,Space,keypress(Space),,,,,,,,---- -- ----- -- ------ - ------- --- ----------<br>------------- ------ ------ ---- ---- ------- ----- -- ----<br>-------- ------- -- ---------- --- - --- ----- ----- ----<br>---- --- --- ----- --- ---- ---- ------- ----- ---- -------<br>--- --- -- ----- -- --- ---- -- --- ---- -- that's ------<br>--- ----- -- ----,112989.63500000536,112988.74000000069,112717.047,112718.87499999866,112733.832,113000.173,,50,that's
screen,html.Screen,2_1_0_1_51,2021-04-26T19:05:49.566Z,,,,,,,,,,,,,,,,,53,,,,,,,,,,,,,,324.5570000002772,,response,,,,99,,,,,,,Space,keypress(Space),,,,,,,,---- -- ----- -- ------ - ------- --- ----------<br>------------- ------ ------ ---- ---- ------- ----- -- ----<br>-------- ------- -- ---------- --- - --- ----- ----- ----<br>---- --- --- ----- --- ---- ---- ------- ----- ---- -------<br>--- --- -- ----- -- --- ---- -- --- ---- -- ------ really<br>--- ----- -- ----,113325.60500000545,113324.73000000027,112983.215,112989.91000000387,113000.173,113333.019,,51,really
screen,html.Screen,2_1_0_1_52,2021-04-26T19:05:49.818Z,,,,,,,,,,,,,,,,,53,,,,,,,,,,,,,,244.18099999972037,,response,,,,99,,,,,,,Space,keypress(Space),,,,,,,,---- -- ----- -- ------ - ------- --- ----------<br>------------- ------ ------ ---- ---- ------- ----- -- ----<br>-------- ------- -- ---------- --- - --- ----- ----- ----<br>---- --- --- ----- --- ---- ---- ------- ----- ---- -------<br>--- --- -- ----- -- --- ---- -- --- ---- -- ------ ------<br>not ----- -- ----,113578.04500000202,113577.19999999972,113316.249,113325.87500000227,113333.019,113582.696,,52,not
screen,html.Screen,2_1_0_1_53,2021-04-26T19:05:50.081Z,,,,,,,,,,,,,,,,,53,,,,,,,,,,,,,,257.5039999987348,,response,,,,99,,,,,,,Space,keypress(Space),,,,,,,,---- -- ----- -- ------ - ------- --- ----------<br>------------- ------ ------ ---- ---- ------- ----- -- ----<br>-------- ------- -- ---------- --- - --- ----- ----- ----<br>---- --- --- ----- --- ---- ---- ------- ----- ---- -------<br>--- --- -- ----- -- --- ---- -- --- ---- -- ------ ------<br>--- close -- ----,113841.1000000051,113840.19999999873,113566.382,113578.31499999884,113582.696,113849.152,,53,close
screen,html.Screen,2_1_0_1_54,2021-04-26T19:05:50.364Z,,,,,,,,,,,,,,,,,53,,,,,,,,,,,,,,274.6280000017141,,response,,,,99,,,,,,,Space,keypress(Space),,,,,,,,---- -- ----- -- ------ - ------- --- ----------<br>------------- ------ ------ ---- ---- ------- ----- -- ----<br>-------- ------- -- ---------- --- - --- ----- ----- ----<br>---- --- --- ----- --- ---- ---- ------- ----- ---- -------<br>--- --- -- ----- -- --- ---- -- --- ---- -- ------ ------<br>--- ----- at ----,114124.14500000159,114123.78000000172,113832.941,113841.3600000058,113849.152,114132.418,,54,at
screen,html.Screen,2_1_0_1_55,2021-04-26T19:05:50.699Z,,,,,,,,,,,,,,,,,53,,,,,,,,,,,,,,325.3020000057877,,response,,,,99,,,,,,,Space,keypress(Space),,,,,,,,---- -- ----- -- ------ - ------- --- ----------<br>------------- ------ ------ ---- ---- ------- ----- -- ----<br>-------- ------- -- ---------- --- - --- ----- ----- ----<br>---- --- --- ----- --- ---- ---- ------- ----- ---- -------<br>--- --- -- ----- -- --- ---- -- --- ---- -- ------ ------<br>--- ----- -- all.,114458.6049999998,114457.7200000058,114115.946,114124.21500000346,114132.418,114465.294,,55,all.
Item 99,flow.Loop,2_1_0_1,2021-04-26T19:05:50.699Z,,,,,,,,,,,,,,,,,,,,,,,,,,,,,,,17478.033000005787,,completion,,,,,D,,,,,,,,,,,silence,,,,,114459.13500000461,114457.7200000058,96946.884,96948.1900000028,96979.687,114465.294,,,
Question 1,html.Screen,2_1_0_2,2021-04-26T19:05:59.310Z,,,,,,,,,,,,,,,,,,,,,,,,,,,,true,FALSE,,8603.466000001936,,response,,,,99,D,,,,,,FALSE,click #choice-2,,,,silence,,,,,123069.81500000256,123068.76000000193,114449.132,114459.37500000582,114465.294,123074.904,,,
Question 2,html.Screen,2_1_0_3,2021-04-26T19:06:04.493Z,,,,,,,,,,,,,,,,,,,,,,,,,,,,true,TRUE,,5177.35600000112,,response,,,,99,D,,,,,,TRUE,click #choice-1,,,,silence,,,,,128252.78999999864,128252.26000000112,123058.343,123069.9850000019,123074.904,128253.985,,,
Item 99,flow.Sequence,2_1_0,2021-04-26T19:06:04.493Z,,,,,,,,,,,,,,,,,,,,,,,,,,,,,,,41281.09200000111,,completion,,,,,,,,,,,,,,,,,,,,,128252.90500000119,128252.26000000112,86954.579,86963.79000000161,86971.168,128253.985,,,
Holding screen,html.Screen,2_1_1_0,2021-04-26T19:06:14.487Z,,,,,,,,,,,,,,,,,,,,,,,,,,,,,,,10008.487000000008,,timeout,,,,,,,,,,,,,,,,,,,,,138246.85000000318,138245.867,128237.524,128252.98499999917,128253.985,138262.472,,,
screen,html.Screen,2_1_1_1_0,2021-04-26T19:06:15.406Z,,,,,,,,,,,,,,,,,54,,,,,,,,,,,,,,902.5679999998538,,response,,,,100,,,,,,,Space,keypress(Space),,,,,,,,At --- ---- --- ------ ----- ------- ---- -- --- ------- --<br>------- ---------- ------ -- ----- -- ----- -- ---- ------<br>--- ----- --- --- ------ -------- ----- --- ------ ----- --<br>----- ----- ---------- --- --- ------ ------ ---- -- ------<br>------- --- ------ ----- --- ---- ------- -- ---- --- --<br>------- ------,139165.59000000416,139165.03999999986,138245.867,138247.15500000457,138262.472,139178.82,,0,At
screen,html.Screen,2_1_1_1_1,2021-04-26T19:06:15.896Z,,,,,,,,,,,,,,,,,54,,,,,,,,,,,,,,476.56000000378117,,response,,,,100,,,,,,,Space,keypress(Space),,,,,,,,-- the ---- --- ------ ----- ------- ---- -- --- ------- --<br>------- ---------- ------ -- ----- -- ----- -- ---- ------<br>--- ----- --- --- ------ -------- ----- --- ------ ----- --<br>----- ----- ---------- --- --- ------ ------ ---- -- ------<br>------- --- ------ ----- --- ---- ------- -- ---- --- --<br>------- ------,139656.2300000005,139655.3800000038,139162.213,139165.72499999893,139178.82,139661.349,,1,the
screen,html.Screen,2_1_1_1_2,2021-04-26T19:06:16.514Z,,,,,,,,,,,,,,,,,54,,,,,,,,,,,,,,611.4760000000242,,response,,,,100,,,,,,,Space,keypress(Space),,,,,,,,-- --- time --- ------ ----- ------- ---- -- --- ------- --<br>------- ---------- ------ -- ----- -- ----- -- ---- ------<br>--- ----- --- --- ------ -------- ----- --- ------ ----- --<br>----- ----- ---------- --- --- ------ ------ ---- -- ------<br>------- --- ------ ----- --- ---- ------- -- ---- --- --<br>------- ------,140273.78500000486,140272.825,139644.992,139656.56000000308,139661.349,140277.459,,2,time
screen,html.Screen,2_1_1_1_3,2021-04-26T19:06:16.808Z,,,,,,,,,,,,,,,,,54,,,,,,,,,,,,,,288.94600000503124,,response,,,,100,,,,,,,Space,keypress(Space),,,,,,,,-- --- ---- the ------ ----- ------- ---- -- --- ------- --<br>------- ---------- ------ -- ----- -- ----- -- ---- ------<br>--- ----- --- --- ------ -------- ----- --- ------ ----- --<br>----- ----- ---------- --- --- ------ ------ ---- -- ------<br>------- --- ------ ----- --- ---- ------- -- ---- --- --<br>------- ------,140567.3650000026,140566.40500000503,140261.234,140274.06500000507,140277.459,140577.248,,3,the
screen,html.Screen,2_1_1_1_4,2021-04-26T19:06:17.611Z,,,,,,,,,,,,,,,,,54,,,,,,,,,,,,,,792.3470000037632,,response,,,,100,,,,,,,Space,keypress(Space),,,,,,,,-- --- ---- --- French ----- ------- ---- -- --- ------- --<br>------- ---------- ------ -- ----- -- ----- -- ---- ------<br>--- ----- --- --- ------ -------- ----- --- ------ ----- --<br>----- ----- ---------- --- --- ------ ------ ---- -- ------<br>------- --- ------ ----- --- ---- ------- -- ---- --- --<br>------- ------,141370.43500000436,141369.59500000376,140560.584,140567.62500000332,140577.248,141376.626,,4,French
screen,html.Screen,2_1_1_1_5,2021-04-26T19:06:18.137Z,,,,,,,,,,,,,,,,,54,,,,,,,,,,,,,,519.0240000058548,,response,,,,100,,,,,,,Space,keypress(Space),,,,,,,,-- --- ---- --- ------ crown ------- ---- -- --- ------- --<br>------- ---------- ------ -- ----- -- ----- -- ---- ------<br>--- ----- --- --- ------ -------- ----- --- ------ ----- --<br>----- ----- ---------- --- --- ------ ------ ---- -- ------<br>------- --- ------ ----- --- ---- ------- -- ---- --- --<br>------- ------,141896.83000000514,141895.65000000584,141360.185,141370.71000000287,141376.626,141909.591,,5,crown
screen,html.Screen,2_1_1_1_6,2021-04-26T19:06:18.499Z,,,,,,,,,,,,,,,,,54,,,,,,,,,,,,,,348.5490000053833,,response,,,,100,,,,,,,Space,keypress(Space),,,,,,,,-- --- ---- --- ------ ----- secured ---- -- --- ------- --<br>------- ---------- ------ -- ----- -- ----- -- ---- ------<br>--- ----- --- --- ------ -------- ----- --- ------ ----- --<br>----- ----- ---------- --- --- ------ ------ ---- -- ------<br>------- --- ------ ----- --- ---- ------- -- ---- --- --<br>------- ------,142259.15499999974,142258.14000000537,141892.876,141897.05500000127,141909.591,142275.943,,6,secured
screen,html.Screen,2_1_1_1_7,2021-04-26T19:06:18.826Z,,,,,,,,,,,,,,,,,54,,,,,,,,,,,,,,308.6570000019565,,response,,,,100,,,,,,,Space,keypress(Space),,,,,,,,-- --- ---- --- ------ ----- ------- much -- --- ------- --<br>------- ---------- ------ -- ----- -- ----- -- ---- ------<br>--- ----- --- --- ------ -------- ----- --- ------ ----- --<br>----- ----- ---------- --- --- ------ ------ ---- -- ------<br>------- --- ------ ----- --- ---- ------- -- ---- --- --<br>------- ------,142585.54500000173,142584.60000000196,142259.372,142259.41500000044,142275.943,142592.272,,7,much
screen,html.Screen,2_1_1_1_8,2021-04-26T19:06:19.173Z,,,,,,,,,,,,,,,,,54,,,,,,,,,,,,,,339.7280000007013,,response,,,,100,,,,,,,Space,keypress(Space),,,,,,,,-- --- ---- --- ------ ----- ------- ---- of --- ------- --<br>------- ---------- ------ -- ----- -- ----- -- ---- ------<br>--- ----- --- --- ------ -------- ----- --- ------ ----- --<br>----- ----- ---------- --- --- ------ ------ ---- -- ------<br>------- --- ------ ----- --- ---- ------- -- ---- --- --<br>------- ------,142932.44000000414,142932.0000000007,142575.648,142585.81000000413,142592.272,142942.003,,8,of
screen,html.Screen,2_1_1_1_9,2021-04-26T19:06:19.505Z,,,,,,,,,,,,,,,,,54,,,,,,,,,,,,,,321.93200000267825,,response,,,,100,,,,,,,Space,keypress(Space),,,,,,,,-- --- ---- --- ------ ----- ------- ---- -- its ------- --<br>------- ---------- ------ -- ----- -- ----- -- ---- ------<br>--- ----- --- --- ------ -------- ----- --- ------ ----- --<br>----- ----- ---------- --- --- ------ ------ ---- -- ------<br>------- --- ------ ----- --- ---- ------- -- ---- --- --<br>------- ------,143264.83000000007,143263.93500000268,142925.789,142932.53499999992,142942.003,143275.413,,9,its
screen,html.Screen,2_1_1_1_10,2021-04-26T19:06:19.700Z,,,,,,,,,,,,,,,,,54,,,,,,,,,,,,,,183.19700000149896,,response,,,,100,,,,,,,Space,keypress(Space),,,,,,,,-- --- ---- --- ------ ----- ------- ---- -- --- revenue --<br>------- ---------- ------ -- ----- -- ----- -- ---- ------<br>--- ----- --- --- ------ -------- ----- --- ------ ----- --<br>----- ----- ---------- --- --- ------ ------ ---- -- ------<br>------- --- ------ ----- --- ---- ------- -- ---- --- --<br>------- ------,143459.70500000112,143458.6100000015,143258.426,143265.10000000417,143275.413,143475.297,,10,revenue
screen,html.Screen,2_1_1_1_11,2021-04-26T19:06:20.418Z,,,,,,,,,,,,,,,,,54,,,,,,,,,,,,,,701.5130000044883,,response,,,,100,,,,,,,Space,keypress(Space),,,,,,,,-- --- ---- --- ------ ----- ------- ---- -- --- ------- by<br>------- ---------- ------ -- ----- -- ----- -- ---- ------<br>--- ----- --- --- ------ -------- ----- --- ------ ----- --<br>----- ----- ---------- --- --- ------ ------ ---- -- ------<br>------- --- ------ ----- --- ---- ------- -- ---- --- --<br>------- ------,144177.3350000003,144176.81000000448,143458.23,143459.96500000183,143475.297,144191.152,,11,by
screen,html.Screen,2_1_1_1_12,2021-04-26T19:06:21.015Z,,,,,,,,,,,,,,,,,54,,,,,,,,,,,,,,582.2980000005919,,response,,,,100,,,,,,,Space,keypress(Space),,,,,,,,-- --- ---- --- ------ ----- ------- ---- -- --- ------- --<br>issuing ---------- ------ -- ----- -- ----- -- ---- ------<br>--- ----- --- --- ------ -------- ----- --- ------ ----- --<br>----- ----- ---------- --- --- ------ ------ ---- -- ------<br>------- --- ------ ----- --- ---- ------- -- ---- --- --<br>------- ------,144774.41499999986,144773.4500000006,144174.803,144177.45000000286,144191.152,144790.826,,12,issuing
screen,html.Screen,2_1_1_1_13,2021-04-26T19:06:21.379Z,,,,,,,,,,,,,,,,,54,,,,,,,,,,,,,,347.0390000042389,,response,,,,100,,,,,,,Space,keypress(Space),,,,,,,,-- --- ---- --- ------ ----- ------- ---- -- --- ------- --<br>------- government ------ -- ----- -- ----- -- ---- ------<br>--- ----- --- --- ------ -------- ----- --- ------ ----- --<br>----- ----- ---------- --- --- ------ ------ ---- -- ------<br>------- --- ------ ----- --- ---- ------- -- ---- --- --<br>------- ------,145138.3050000004,145137.86500000424,144773.892,144774.66999999888,144790.826,145140.113,,13,government
screen,html.Screen,2_1_1_1_14,2021-04-26T19:06:21.693Z,,,,,,,,,,,,,,,,,54,,,,,,,,,,,,,,312.27200000412995,,response,,,,100,,,,,,,Space,keypress(Space),,,,,,,,-- --- ---- --- ------ ----- ------- ---- -- --- ------- --<br>------- ---------- bonds. -- ----- -- ----- -- ---- ------<br>--- ----- --- --- ------ -------- ----- --- ------ ----- --<br>----- ----- ---------- --- --- ------ ------ ---- -- ------<br>------- --- ------ ----- --- ---- ------- -- ---- --- --<br>------- ------,145452.98500000354,145452.38500000414,145123.891,145138.39000000007,145140.113,145456.583,,14,bonds.
screen,html.Screen,2_1_1_1_15,2021-04-26T19:06:22.149Z,,,,,,,,,,,,,,,,,54,,,,,,,,,,,,,,451.1320000011765,,response,,,,100,,,,,,,Space,keypress(Space),,,,,,,,-- --- ---- --- ------ ----- ------- ---- -- --- ------- --<br>------- ---------- ------ In ----- -- ----- -- ---- ------<br>--- ----- --- --- ------ -------- ----- --- ------ ----- --<br>----- ----- ---------- --- --- ------ ------ ---- -- ------<br>------- --- ------ ----- --- ---- ------- -- ---- --- --<br>------- ------,145908.5699999996,145907.7150000012,145440.238,145453.13500000339,145456.583,145923.3,,15,In
screen,html.Screen,2_1_1_1_16,2021-04-26T19:06:22.682Z,,,,,,,,,,,,,,,,,54,,,,,,,,,,,,,,517.8200000031502,,response,,,,100,,,,,,,Space,keypress(Space),,,,,,,,"-- --- ---- --- ------ ----- ------- ---- -- --- ------- --<br>------- ---------- ------ -- 1727, -- ----- -- ---- ------<br>--- ----- --- --- ------ -------- ----- --- ------ ----- --<br>----- ----- ---------- --- --- ------ ------ ---- -- ------<br>------- --- ------ ----- --- ---- ------- -- ---- --- --<br>------- ------",146442.1599999987,146441.12000000314,145906.243,145908.8499999998,145923.3,146456.047,,16,"1727,"
screen,html.Screen,2_1_1_1_17,2021-04-26T19:06:23.095Z,,,,,,,,,,,,,,,,,54,,,,,,,,,,,,,,397.6180000023742,,response,,,,100,,,,,,,Space,keypress(Space),,,,,,,,-- --- ---- --- ------ ----- ------- ---- -- --- ------- --<br>------- ---------- ------ -- ----- in ----- -- ---- ------<br>--- ----- --- --- ------ -------- ----- --- ------ ----- --<br>----- ----- ---------- --- --- ------ ------ ---- -- ------<br>------- --- ------ ----- --- ---- ------- -- ---- --- --<br>------- ------,146854.62000000553,146853.66500000237,146439.41,146442.53500000195,146456.047,146872.198,,17,in
screen,html.Screen,2_1_1_1_18,2021-04-26T19:06:23.478Z,,,,,,,,,,,,,,,,,54,,,,,,,,,,,,,,364.4720000056841,,response,,,,100,,,,,,,Space,keypress(Space),,,,,,,,-- --- ---- --- ------ ----- ------- ---- -- --- ------- --<br>------- ---------- ------ -- ----- -- order -- ---- ------<br>--- ----- --- --- ------ -------- ----- --- ------ ----- --<br>----- ----- ---------- --- --- ------ ------ ---- -- ------<br>------- --- ------ ----- --- ---- ------- -- ---- --- --<br>------- ------,147237.63999999937,147236.6700000057,146855.411,146854.87500000454,146872.198,147255.558,,18,order
screen,html.Screen,2_1_1_1_19,2021-04-26T19:06:23.920Z,,,,,,,,,,,,,,,,,54,,,,,,,,,,,,,,424.1020000016142,,response,,,,100,,,,,,,Space,keypress(Space),,,,,,,,-- --- ---- --- ------ ----- ------- ---- -- --- ------- --<br>------- ---------- ------ -- ----- -- ----- to ---- ------<br>--- ----- --- --- ------ -------- ----- --- ------ ----- --<br>----- ----- ---------- --- --- ------ ------ ---- -- ------<br>------- --- ------ ----- --- ---- ------- -- ---- --- --<br>------- ------,147680.09000000166,147679.6600000016,147238.464,147238.00000000483,147255.558,147688.455,,19,to
screen,html.Screen,2_1_1_1_20,2021-04-26T19:06:24.347Z,,,,,,,,,,,,,,,,,54,,,,,,,,,,,,,,417.42000000111875,,response,,,,100,,,,,,,Space,keypress(Space),,,,,,,,-- --- ---- --- ------ ----- ------- ---- -- --- ------- --<br>------- ---------- ------ -- ----- -- ----- -- save ------<br>--- ----- --- --- ------ -------- ----- --- ------ ----- --<br>----- ----- ---------- --- --- ------ ------ ---- -- ------<br>------- --- ------ ----- --- ---- ------- -- ---- --- --<br>------- ------,148106.72999999952,148105.8750000011,147671.37,147680.18999999913,147688.455,148121.389,,20,save
screen,html.Screen,2_1_1_1_21,2021-04-26T19:06:24.677Z,,,,,,,,,,,,,,,,,54,,,,,,,,,,,,,,314.32100000520586,,response,,,,100,,,,,,,Space,keypress(Space),,,,,,,,"-- --- ---- --- ------ ----- ------- ---- -- --- ------- --<br>------- ---------- ------ -- ----- -- ----- -- ---- money,<br>--- ----- --- --- ------ -------- ----- --- ------ ----- --<br>----- ----- ---------- --- --- ------ ------ ---- -- ------<br>------- --- ------ ----- --- ---- ------- -- ---- --- --<br>------- ------",148436.57499999972,148435.7100000052,148104.687,148107.0000000036,148121.389,148454.174,,21,"money,"
screen,html.Screen,2_1_1_1_22,2021-04-26T19:06:25.071Z,,,,,,,,,,,,,,,,,54,,,,,,,,,,,,,,376.06100000126753,,response,,,,100,,,,,,,Space,keypress(Space),,,,,,,,-- --- ---- --- ------ ----- ------- ---- -- --- ------- --<br>------- ---------- ------ -- ----- -- ----- -- ---- ------<br>the ----- --- --- ------ -------- ----- --- ------ ----- --<br>----- ----- ---------- --- --- ------ ------ ---- -- ------<br>------- --- ------ ----- --- ---- ------- -- ---- --- --<br>------- ------,148831.07000000018,148830.23500000127,148421.251,148436.84000000212,148454.174,148837.137,,22,the
screen,html.Screen,2_1_1_1_23,2021-04-26T19:06:25.368Z,,,,,,,,,,,,,,,,,54,,,,,,,,,,,,,,289.7030000044615,,response,,,,100,,,,,,,Space,keypress(Space),,,,,,,,-- --- ---- --- ------ ----- ------- ---- -- --- ------- --<br>------- ---------- ------ -- ----- -- ----- -- ---- ------<br>--- state --- --- ------ -------- ----- --- ------ ----- --<br>----- ----- ---------- --- --- ------ ------ ---- -- ------<br>------- --- ------ ----- --- ---- ------- -- ---- --- --<br>------- ------,149127.35500000417,149126.84000000445,148820.45,148831.3300000009,148837.137,149137.278,,23,state
screen,html.Screen,2_1_1_1_24,2021-04-26T19:06:25.662Z,,,,,,,,,,,,,,,,,54,,,,,,,,,,,,,,283.1520000055898,,response,,,,100,,,,,,,Space,keypress(Space),,,,,,,,-- --- ---- --- ------ ----- ------- ---- -- --- ------- --<br>------- ---------- ------ -- ----- -- ----- -- ---- ------<br>--- ----- cut --- ------ -------- ----- --- ------ ----- --<br>----- ----- ---------- --- --- ------ ------ ---- -- ------<br>------- --- ------ ----- --- ---- ------- -- ---- --- --<br>------- ------,149421.34500000247,149420.43000000558,149120.494,149127.47500000114,149137.278,149436.761,,24,cut
screen,html.Screen,2_1_1_1_25,2021-04-26T19:06:25.965Z,,,,,,,,,,,,,,,,,54,,,,,,,,,,,,,,287.64400000084424,,response,,,,100,,,,,,,Space,keypress(Space),,,,,,,,-- --- ---- --- ------ ----- ------- ---- -- --- ------- --<br>------- ---------- ------ -- ----- -- ----- -- ---- ------<br>--- ----- --- the ------ -------- ----- --- ------ ----- --<br>----- ----- ---------- --- --- ------ ------ ---- -- ------<br>------- --- ------ ----- --- ---- ------- -- ---- --- --<br>------- ------,149725.25500000484,149724.40500000084,149420.248,149421.6000000015,149436.761,149736.831,,25,the
screen,html.Screen,2_1_1_1_26,2021-04-26T19:06:26.253Z,,,,,,,,,,,,,,,,,54,,,,,,,,,,,,,,275.41400000534486,,response,,,,100,,,,,,,Space,keypress(Space),,,,,,,,-- --- ---- --- ------ ----- ------- ---- -- --- ------- --<br>------- ---------- ------ -- ----- -- ----- -- ---- ------<br>--- ----- --- --- bonds' -------- ----- --- ------ ----- --<br>----- ----- ---------- --- --- ------ ------ ---- -- ------<br>------- --- ------ ----- --- ---- ------- -- ---- --- --<br>------- ------,150013.17500000005,150012.24500000535,149719.933,149725.54500000115,149736.831,150019.516,,26,bonds'
screen,html.Screen,2_1_1_1_27,2021-04-26T19:06:26.585Z,,,,,,,,,,,,,,,,,54,,,,,,,,,,,,,,324.40399999934016,,response,,,,100,,,,,,,Space,keypress(Space),,,,,,,,-- --- ---- --- ------ ----- ------- ---- -- --- ------- --<br>------- ---------- ------ -- ----- -- ----- -- ---- ------<br>--- ----- --- --- ------ interest ----- --- ------ ----- --<br>----- ----- ---------- --- --- ------ ------ ---- -- ------<br>------- --- ------ ----- --- ---- ------- -- ---- --- --<br>------- ------,150344.78500000114,150343.91999999934,150003.078,150013.44500000414,150019.516,150352.66,,27,interest
screen,html.Screen,2_1_1_1_28,2021-04-26T19:06:26.916Z,,,,,,,,,,,,,,,,,54,,,,,,,,,,,,,,322.6099999997241,,response,,,,100,,,,,,,Space,keypress(Space),,,,,,,,-- --- ---- --- ------ ----- ------- ---- -- --- ------- --<br>------- ---------- ------ -- ----- -- ----- -- ---- ------<br>--- ----- --- --- ------ -------- rate. --- ------ ----- --<br>----- ----- ---------- --- --- ------ ------ ---- -- ------<br>------- --- ------ ----- --- ---- ------- -- ---- --- --<br>------- ------,150676.16999999882,150675.26999999973,150336.266,150345.05500000523,150352.66,150686.095,,28,rate.
screen,html.Screen,2_1_1_1_29,2021-04-26T19:06:27.299Z,,,,,,,,,,,,,,,,,54,,,,,,,,,,,,,,371.2700000005716,,response,,,,100,,,,,,,Space,keypress(Space),,,,,,,,-- --- ---- --- ------ ----- ------- ---- -- --- ------- --<br>------- ---------- ------ -- ----- -- ----- -- ---- ------<br>--- ----- --- --- ------ -------- ----- The ------ ----- --<br>----- ----- ---------- --- --- ------ ------ ---- -- ------<br>------- --- ------ ----- --- ---- ------- -- ---- --- --<br>------- ------,151058.29000000085,151057.36500000057,150669.442,150676.4600000024,150686.095,151068.795,,29,The
screen,html.Screen,2_1_1_1_30,2021-04-26T19:06:27.598Z,,,,,,,,,,,,,,,,,54,,,,,,,,,,,,,,288.4750000004133,,response,,,,100,,,,,,,Space,keypress(Space),,,,,,,,-- --- ---- --- ------ ----- ------- ---- -- --- ------- --<br>------- ---------- ------ -- ----- -- ----- -- ---- ------<br>--- ----- --- --- ------ -------- ----- --- market ----- --<br>----- ----- ---------- --- --- ------ ------ ---- -- ------<br>------- --- ------ ----- --- ---- ------- -- ---- --- --<br>------- ------,151358.09000000154,151357.27000000043,151051.963,151058.55000000156,151068.795,151368.761,,30,market
screen,html.Screen,2_1_1_1_31,2021-04-26T19:06:27.959Z,,,,,,,,,,,,,,,,,54,,,,,,,,,,,,,,349.25900000025285,,response,,,,100,,,,,,,Space,keypress(Space),,,,,,,,-- --- ---- --- ------ ----- ------- ---- -- --- ------- --<br>------- ---------- ------ -- ----- -- ----- -- ---- ------<br>--- ----- --- --- ------ -------- ----- --- ------ value --<br>----- ----- ---------- --- --- ------ ------ ---- -- ------<br>------- --- ------ ----- --- ---- ------- -- ---- --- --<br>------- ------,151718.4750000015,151718.02000000025,151352.113,151358.31999999937,151368.761,151735.219,,31,value
screen,html.Screen,2_1_1_1_32,2021-04-26T19:06:28.265Z,,,,,,,,,,,,,,,,,54,,,,,,,,,,,,,,288.75600000369013,,response,,,,100,,,,,,,Space,keypress(Space),,,,,,,,-- --- ---- --- ------ ----- ------- ---- -- --- ------- --<br>------- ---------- ------ -- ----- -- ----- -- ---- ------<br>--- ----- --- --- ------ -------- ----- --- ------ ----- of<br>----- ----- ---------- --- --- ------ ------ ---- -- ------<br>------- --- ------ ----- --- ---- ------- -- ---- --- --<br>------- ------,152024.81000000262,152023.9750000037,151718.45,151718.58000000066,151735.219,152034.869,,32,of
screen,html.Screen,2_1_1_1_33,2021-04-26T19:06:28.560Z,,,,,,,,,,,,,,,,,54,,,,,,,,,,,,,,283.7910000044503,,response,,,,100,,,,,,,Space,keypress(Space),,,,,,,,-- --- ---- --- ------ ----- ------- ---- -- --- ------- --<br>------- ---------- ------ -- ----- -- ----- -- ---- ------<br>--- ----- --- --- ------ -------- ----- --- ------ ----- --<br>these ----- ---------- --- --- ------ ------ ---- -- ------<br>------- --- ------ ----- --- ---- ------- -- ---- --- --<br>------- ------,152319.58000000304,152318.66000000446,152017.912,152025.04500000214,152034.869,152334.701,,33,these
screen,html.Screen,2_1_1_1_34,2021-04-26T19:06:28.836Z,,,,,,,,,,,,,,,,,54,,,,,,,,,,,,,,260.029000004346,,response,,,,100,,,,,,,Space,keypress(Space),,,,,,,,-- --- ---- --- ------ ----- ------- ---- -- --- ------- --<br>------- ---------- ------ -- ----- -- ----- -- ---- ------<br>--- ----- --- --- ------ -------- ----- --- ------ ----- --<br>----- bonds ---------- --- --- ------ ------ ---- -- ------<br>------- --- ------ ----- --- ---- ------- -- ---- --- --<br>------- ------,152595.61500000564,152594.73000000435,152318.103,152319.83500000206,152334.701,152600.673,,34,bonds
screen,html.Screen,2_1_1_1_35,2021-04-26T19:06:29.619Z,,,,,,,,,,,,,,,,,54,,,,,,,,,,,,,,778.1470000053523,,response,,,,100,,,,,,,Space,keypress(Space),,,,,,,,"-- --- ---- --- ------ ----- ------- ---- -- --- ------- --<br>------- ---------- ------ -- ----- -- ----- -- ---- ------<br>--- ----- --- --- ------ -------- ----- --- ------ ----- --<br>----- ----- plummeted, --- --- ------ ------ ---- -- ------<br>------- --- ------ ----- --- ---- ------- -- ---- --- --<br>------- ------",153379.25499999983,153378.82000000536,152584.555,152595.89000000415,152600.673,153383.465,,35,"plummeted,"
screen,html.Screen,2_1_1_1_36,2021-04-26T19:06:29.951Z,,,,,,,,,,,,,,,,,54,,,,,,,,,,,,,,326.4350000016566,,response,,,,100,,,,,,,Space,keypress(Space),,,,,,,,-- --- ---- --- ------ ----- ------- ---- -- --- ------- --<br>------- ---------- ------ -- ----- -- ----- -- ---- ------<br>--- ----- --- --- ------ -------- ----- --- ------ ----- --<br>----- ----- ---------- and --- ------ ------ ---- -- ------<br>------- --- ------ ----- --- ---- ------- -- ---- --- --<br>------- ------,153710.2950000044,153709.90000000165,153366.971,153379.3500000029,153383.465,153716.794,,36,and
screen,html.Screen,2_1_1_1_37,2021-04-26T19:06:30.231Z,,,,,,,,,,,,,,,,,54,,,,,,,,,,,,,,272.60600000584964,,response,,,,100,,,,,,,Space,keypress(Space),,,,,,,,-- --- ---- --- ------ ----- ------- ---- -- --- ------- --<br>------- ---------- ------ -- ----- -- ----- -- ---- ------<br>--- ----- --- --- ------ -------- ----- --- ------ ----- --<br>----- ----- ---------- --- the ------ ------ ---- -- ------<br>------- --- ------ ----- --- ---- ------- -- ---- --- --<br>------- ------,153990.32499999885,153989.40000000584,153700.221,153710.40000000357,153716.794,153999.859,,37,the
screen,html.Screen,2_1_1_1_38,2021-04-26T19:06:30.461Z,,,,,,,,,,,,,,,,,54,,,,,,,,,,,,,,220.29600000270875,,response,,,,100,,,,,,,Space,keypress(Space),,,,,,,,-- --- ---- --- ------ ----- ------- ---- -- --- ------- --<br>------- ---------- ------ -- ----- -- ----- -- ---- ------<br>--- ----- --- --- ------ -------- ----- --- ------ ----- --<br>----- ----- ---------- --- --- market ------ ---- -- ------<br>------- --- ------ ----- --- ---- ------- -- ---- --- --<br>------- ------,154221.0500000001,154220.1550000027,153983.118,153990.58499999956,153999.859,154233.126,,38,market
screen,html.Screen,2_1_1_1_39,2021-04-26T19:06:30.766Z,,,,,,,,,,,,,,,,,54,,,,,,,,,,,,,,291.63400000025285,,response,,,,100,,,,,,,Space,keypress(Space),,,,,,,,-- --- ---- --- ------ ----- ------- ---- -- --- ------- --<br>------- ---------- ------ -- ----- -- ----- -- ---- ------<br>--- ----- --- --- ------ -------- ----- --- ------ ----- --<br>----- ----- ---------- --- --- ------ became ---- -- ------<br>------- --- ------ ----- --- ---- ------- -- ---- --- --<br>------- ------,154525.7350000029,154524.76000000024,154216.412,154221.3000000047,154233.126,154532.595,,39,became
screen,html.Screen,2_1_1_1_40,2021-04-26T19:06:31.071Z,,,,,,,,,,,,,,,,,54,,,,,,,,,,,,,,297.50000000480213,,response,,,,100,,,,,,,Space,keypress(Space),,,,,,,,-- --- ---- --- ------ ----- ------- ---- -- --- ------- --<br>------- ---------- ------ -- ----- -- ----- -- ---- ------<br>--- ----- --- --- ------ -------- ----- --- ------ ----- --<br>----- ----- ---------- --- --- ------ ------ wary -- ------<br>------- --- ------ ----- --- ---- ------- -- ---- --- --<br>------- ------,154831.10999999917,154830.0950000048,154516.242,154526.0000000053,154532.595,154858.859,,40,wary
screen,html.Screen,2_1_1_1_41,2021-04-26T19:06:31.387Z,,,,,,,,,,,,,,,,,54,,,,,,,,,,,,,,287.39100000524195,,response,,,,100,,,,,,,Space,keypress(Space),,,,,,,,-- --- ---- --- ------ ----- ------- ---- -- --- ------- --<br>------- ---------- ------ -- ----- -- ----- -- ---- ------<br>--- ----- --- --- ------ -------- ----- --- ------ ----- --<br>----- ----- ---------- --- --- ------ ------ ---- of ------<br>------- --- ------ ----- --- ---- ------- -- ---- --- --<br>------- ------,155146.6700000019,155146.25000000524,154815.857,154831.45499999955,154858.859,155148.55,,41,of
screen,html.Screen,2_1_1_1_42,2021-04-26T19:06:31.712Z,,,,,,,,,,,,,,,,,54,,,,,,,,,,,,,,316.3550000007381,,response,,,,100,,,,,,,Space,keypress(Space),,,,,,,,-- --- ---- --- ------ ----- ------- ---- -- --- ------- --<br>------- ---------- ------ -- ----- -- ----- -- ---- ------<br>--- ----- --- --- ------ -------- ----- --- ------ ----- --<br>----- ----- ---------- --- --- ------ ------ ---- -- French<br>------- --- ------ ----- --- ---- ------- -- ---- --- --<br>------- ------,155471.375000001,155464.90500000073,155132.322,155146.76500000496,155148.55,155482.037,,42,French
screen,html.Screen,2_1_1_1_43,2021-04-26T19:06:32.076Z,,,,,,,,,,,,,,,,,54,,,,,,,,,,,,,,353.0530000004801,,response,,,,100,,,,,,,Space,keypress(Space),,,,,,,,-- --- ---- --- ------ ----- ------- ---- -- --- ------- --<br>------- ---------- ------ -- ----- -- ----- -- ---- ------<br>--- ----- --- --- ------ -------- ----- --- ------ ----- --<br>----- ----- ---------- --- --- ------ ------ ---- -- ------<br>credit. --- ------ ----- --- ---- ------- -- ---- --- --<br>------- ------,155836.16500000062,155835.0900000005,155465.364,155471.6550000012,155482.037,155848.112,,43,credit.
screen,html.Screen,2_1_1_1_44,2021-04-26T19:06:32.414Z,,,,,,,,,,,,,,,,,54,,,,,,,,,,,,,,325.3380000020552,,response,,,,100,,,,,,,Space,keypress(Space),,,,,,,,-- --- ---- --- ------ ----- ------- ---- -- --- ------- --<br>------- ---------- ------ -- ----- -- ----- -- ---- ------<br>--- ----- --- --- ------ -------- ----- --- ------ ----- --<br>----- ----- ---------- --- --- ------ ------ ---- -- ------<br>------- The ------ ----- --- ---- ------- -- ---- --- --<br>------- ------,156174.05500000314,156173.45000000205,155831.428,155836.52000000438,155848.112,156181.196,,44,The
screen,html.Screen,2_1_1_1_45,2021-04-26T19:06:32.731Z,,,,,,,,,,,,,,,,,54,,,,,,,,,,,,,,308.09899999940535,,response,,,,100,,,,,,,Space,keypress(Space),,,,,,,,-- --- ---- --- ------ ----- ------- ---- -- --- ------- --<br>------- ---------- ------ -- ----- -- ----- -- ---- ------<br>--- ----- --- --- ------ -------- ----- --- ------ ----- --<br>----- ----- ---------- --- --- ------ ------ ---- -- ------<br>------- --- French ----- --- ---- ------- -- ---- --- --<br>------- ------,156490.30000000494,156489.2949999994,156164.781,156174.21000000468,156181.196,156497.554,,45,French
screen,html.Screen,2_1_1_1_46,2021-04-26T19:06:32.962Z,,,,,,,,,,,,,,,,,54,,,,,,,,,,,,,,222.9410000013886,,response,,,,100,,,,,,,Space,keypress(Space),,,,,,,,-- --- ---- --- ------ ----- ------- ---- -- --- ------- --<br>------- ---------- ------ -- ----- -- ----- -- ---- ------<br>--- ----- --- --- ------ -------- ----- --- ------ ----- --<br>----- ----- ---------- --- --- ------ ------ ---- -- ------<br>------- --- ------ state --- ---- ------- -- ---- --- --<br>------- ------,156721.41000000556,156720.4950000014,156481.214,156490.56000000564,156497.554,156730.971,,46,state
screen,html.Screen,2_1_1_1_47,2021-04-26T19:06:33.290Z,,,,,,,,,,,,,,,,,54,,,,,,,,,,,,,,317.5590000000375,,response,,,,100,,,,,,,Space,keypress(Space),,,,,,,,-- --- ---- --- ------ ----- ------- ---- -- --- ------- --<br>------- ---------- ------ -- ----- -- ----- -- ---- ------<br>--- ----- --- --- ------ -------- ----- --- ------ ----- --<br>----- ----- ---------- --- --- ------ ------ ---- -- ------<br>------- --- ------ ----- was ---- ------- -- ---- --- --<br>------- ------,157049.4050000052,157048.53000000003,156714.298,156721.669999999,156730.971,157064.106,,47,was
screen,html.Screen,2_1_1_1_48,2021-04-26T19:06:33.537Z,,,,,,,,,,,,,,,,,54,,,,,,,,,,,,,,231.2440000003262,,response,,,,100,,,,,,,Space,keypress(Space),,,,,,,,-- --- ---- --- ------ ----- ------- ---- -- --- ------- --<br>------- ---------- ------ -- ----- -- ----- -- ---- ------<br>--- ----- --- --- ------ -------- ----- --- ------ ----- --<br>----- ----- ---------- --- --- ------ ------ ---- -- ------<br>------- --- ------ ----- --- left ------- -- ---- --- --<br>------- ------,157296.41500000434,157295.35000000033,157047.063,157049.66500000592,157064.106,157313.598,,48,left
screen,html.Screen,2_1_1_1_49,2021-04-26T19:06:33.821Z,,,,,,,,,,,,,,,,,54,,,,,,,,,,,,,,266.3470000049565,,response,,,,100,,,,,,,Space,keypress(Space),,,,,,,,-- --- ---- --- ------ ----- ------- ---- -- --- ------- --<br>------- ---------- ------ -- ----- -- ----- -- ---- ------<br>--- ----- --- --- ------ -------- ----- --- ------ ----- --<br>----- ----- ---------- --- --- ------ ------ ---- -- ------<br>------- --- ------ ----- --- ---- without -- ---- --- --<br>------- ------,157580.3950000045,157579.94500000495,157296.936,157296.72000000573,157313.598,157597.136,,49,without
screen,html.Screen,2_1_1_1_50,2021-04-26T19:06:34.128Z,,,,,,,,,,,,,,,,,54,,,,,,,,,,,,,,289.67400000360794,,response,,,,100,,,,,,,Space,keypress(Space),,,,,,,,-- --- ---- --- ------ ----- ------- ---- -- --- ------- --<br>------- ---------- ------ -- ----- -- ----- -- ---- ------<br>--- ----- --- --- ------ -------- ----- --- ------ ----- --<br>----- ----- ---------- --- --- ------ ------ ---- -- ------<br>------- --- ------ ----- --- ---- ------- an ---- --- --<br>------- ------,157887.7100000027,157886.8100000036,157580.254,157580.50500000536,157597.136,157896.402,,50,an
screen,html.Screen,2_1_1_1_51,2021-04-26T19:06:34.418Z,,,,,,,,,,,,,,,,,54,,,,,,,,,,,,,,280.82800000114366,,response,,,,100,,,,,,,Space,keypress(Space),,,,,,,,-- --- ---- --- ------ ----- ------- ---- -- --- ------- --<br>------- ---------- ------ -- ----- -- ----- -- ---- ------<br>--- ----- --- --- ------ -------- ----- --- ------ ----- --<br>----- ----- ---------- --- --- ------ ------ ---- -- ------<br>------- --- ------ ----- --- ---- ------- -- easy --- --<br>------- ------,158177.84000000393,158177.23000000115,157879.652,157887.9500000039,157896.402,158211.722,,51,easy
screen,html.Screen,2_1_1_1_52,2021-04-26T19:06:34.741Z,,,,,,,,,,,,,,,,,54,,,,,,,,,,,,,,288.4180000037304,,response,,,,100,,,,,,,Space,keypress(Space),,,,,,,,-- --- ---- --- ------ ----- ------- ---- -- --- ------- --<br>------- ---------- ------ -- ----- -- ----- -- ---- ------<br>--- ----- --- --- ------ -------- ----- --- ------ ----- --<br>----- ----- ---------- --- --- ------ ------ ---- -- ------<br>------- --- ------ ----- --- ---- ------- -- ---- way --<br>------- ------,158501.04999999894,158500.14000000374,158162.983,158178.00500000158,158211.722,158512.607,,52,way
screen,html.Screen,2_1_1_1_53,2021-04-26T19:06:35.049Z,,,,,,,,,,,,,,,,,54,,,,,,,,,,,,,,295.56800000558724,,response,,,,100,,,,,,,Space,keypress(Space),,,,,,,,-- --- ---- --- ------ ----- ------- ---- -- --- ------- --<br>------- ---------- ------ -- ----- -- ----- -- ---- ------<br>--- ----- --- --- ------ -------- ----- --- ------ ----- --<br>----- ----- ---------- --- --- ------ ------ ---- -- ------<br>------- --- ------ ----- --- ---- ------- -- ---- --- of<br>------- ------,158808.85500000295,158808.17500000558,158496.223,158501.30999999965,158512.607,158812.254,,53,of
screen,html.Screen,2_1_1_1_54,2021-04-26T19:06:35.364Z,,,,,,,,,,,,,,,,,54,,,,,,,,,,,,,,310.9159999989497,,response,,,,100,,,,,,,Space,keypress(Space),,,,,,,,-- --- ---- --- ------ ----- ------- ---- -- --- ------- --<br>------- ---------- ------ -- ----- -- ----- -- ---- ------<br>--- ----- --- --- ------ -------- ----- --- ------ ----- --<br>----- ----- ---------- --- --- ------ ------ ---- -- ------<br>------- --- ------ ----- --- ---- ------- -- ---- --- --<br>raising ------,159123.57000000338,159123.16999999894,158796.09,158809.07000000298,158812.254,159128.734,,54,raising
screen,html.Screen,2_1_1_1_55,2021-04-26T19:06:35.755Z,,,,,,,,,,,,,,,,,54,,,,,,,,,,,,,,384.95100000535604,,response,,,,100,,,,,,,Space,keypress(Space),,,,,,,,-- --- ---- --- ------ ----- ------- ---- -- --- ------- --<br>------- ---------- ------ -- ----- -- ----- -- ---- ------<br>--- ----- --- --- ------ -------- ----- --- ------ ----- --<br>----- ----- ---------- --- --- ------ ------ ---- -- ------<br>------- --- ------ ----- --- ---- ------- -- ---- --- --<br>------- money.,159514.55500000156,159513.68500000535,159112.407,159123.66499999916,159128.734,159528.701,,55,money.
Item 100,flow.Loop,2_1_1_1,2021-04-26T19:06:35.755Z,,,,,,,,,,,,,,,,,,,,,,,,,,,,,,,21251.213000005344,,completion,,,,,D,,,,,,,,,,,silence,,,,,159514.95000000432,159513.68500000535,138245.867,138247.0749999993,138262.472,159528.701,,,
Question 1,html.Screen,2_1_1_2,2021-04-26T19:06:40.848Z,,,,,,,,,,,,,,,,,,,,,,,,,,,,false,TRUE,,5078.198999998858,,response,,,,100,D,,,,,,FALSE,click #choice-2,,,,silence,,,,,164607.895000001,164606.89999999886,159511.67,159515.12999999977,159528.701,164624.167,,,
Question 2,html.Screen,2_1_1_3,2021-04-26T19:06:43.224Z,,,,,,,,,,,,,,,,,,,,,,,,,,,,true,FALSE,,2358.87800000087,,response,,,,100,D,,,,,,FALSE,click #choice-2,,,,silence,,,,,166984.01500000182,166983.04500000086,164607.451,164607.98500000237,164624.167,166988.945,,,
Item 100,flow.Sequence,2_1_1,2021-04-26T19:06:43.224Z,,,,,,,,,,,,,,,,,,,,,,,,,,,,,,,38729.060000000856,,completion,,,,,,,,,,,,,,,,,,,,,166984.1349999988,166983.04500000086,128237.524,128252.96000000526,128253.985,166988.945,,,
End of Practice,html.Page,2_1_2,2021-04-26T19:06:47.833Z,,,,,,,,,,,,,,,,,,,,,,,,,,,,,,,4603.755000001052,,form submission,,,,,,,,,,,,,,,,,,,,,171592.92000000278,171592.70000000106,166972.285,166984.19000000285,166988.945,171601.787,,,
Practice,flow.Sequence,2_1,2021-04-26T19:06:47.833Z,,,,,,,,,,,,,,,,,,,,,,,,,,,,,,,84621.53200000105,,completion,,,,,,,,,,,,,,,,,,,,,171593.05500000482,171592.70000000106,86954.579,86963.73500000482,86971.168,171601.787,,,
Trap_instruction,html.Page,2_2_0,2021-04-26T19:06:51.104Z,,,,,,,,,,,,,,,,,,,,,,,,,,,,,,,3261.45800000045,,form submission,,,,,,,,,,,,,,,,,,,,,174863.37500000081,174863.24500000046,171585.097,171593.1449999989,171601.787,174865.709,,,
trap_trial,html.Screen,2_2_1,2021-04-26T19:06:56.479Z,,,,,,,,,,,,,,,,,,,,,,,,,,,,true,1,,5371.946000004449,,response,,,,,,,,,,,1,click #choice-1,,,,,,,,,180238.29000000114,180237.65500000445,174849.08,174863.440000001,174865.709,180244.657,,,
end of trap trial,html.Page,2_2_2,2021-04-26T19:06:58.282Z,,,,,,,,,,,,,,,,,,,,,,,,,,,,,,,1796.4380000004894,,form submission,,,,,,,,,,,,,,,,,,,,,182041.25500000373,182041.0950000005,180228.206,180238.43000000488,180244.657,182043.2,,,
Trap 1,flow.Sequence,2_2,2021-04-26T19:06:58.282Z,,,,,,,,,,,,,,,,,,,,,,,,,,,,,,,10439.308000000485,,completion,,,,,,,,,,,,,,,,,,,,,182041.369999999,182041.0950000005,171585.097,171593.1150000033,171601.787,182043.2,,,
Standby,html.Page,2_3_0,2021-04-26T19:07:06.261Z,,,,,,,,,,,,,,,,,,,,,,,,,,,,,,,7993.792999999976,,timeout,,,,,,,,,,,,,,,,,,,,,190020.54000000498,190019.986,182026.476,182041.45000000426,182043.2,190036.993,,,
Holding screen,html.Screen,2_3_1_0_0,2021-04-26T19:07:13.256Z,,,,,,,,,,,,,,,,,,,,,,,,,,,,,,,6994.031000000017,,timeout,,,,,,,,,,,,,,,,,,,,,197015.53000000422,197014.352,190019.986,190020.70500000264,190036.993,197031.024,,,
screen,html.Screen,2_3_1_0_1_0,2021-04-26T19:07:14.003Z,,,,,,,,,,,,,,,,,11,,,,,,,,,,,,,,730.9310000017576,,response,,,,4,D,,,,,,Space,keypress(Space),,,,silence,,,,Known -- ---- --- -- --- -------- ------------ ---------- --<br>- ------- ------ --------- -- ------------ -- --- ---- -----<br>------ ---- ---- ------ ------ ------- --- ----- ---------<br>---- --- -------- -------- --- --- -- ------- --- --- -----<br>-- --- ------ ------- --- --- -------- ---- --------- --<br>---------- -- -------- ----------------,197762.3850000018,197761.95500000176,197014.352,197015.95000000088,197031.024,197763.573,,0,Known
screen,html.Screen,2_3_1_0_1_1,2021-04-26T19:07:15.797Z,,,,,,,,,,,,,,,,,11,,,,,,,,,,,,,,1792.6069999995816,,response,,,,4,D,,,,,,Space,keypress(Space),,,,silence,,,,----- as ---- --- -- --- -------- ------------ ---------- --<br>- ------- ------ --------- -- ------------ -- --- ---- -----<br>------ ---- ---- ------ ------ ------- --- ----- ---------<br>---- --- -------- -------- --- --- -- ------- --- --- -----<br>-- --- ------ ------- --- --- -------- ---- --------- --<br>---------- -- -------- ----------------,199556.7200000005,199556.1799999996,197747.198,197762.4700000015,197763.573,199562.155,,1,as
screen,html.Screen,2_3_1_0_1_2,2021-04-26T19:07:16.089Z,,,,,,,,,,,,,,,,,11,,,,,,,,,,,,,,286.1499999995285,,response,,,,4,D,,,,,,Space,keypress(Space),,,,silence,,,,----- -- Rapa --- -- --- -------- ------------ ---------- --<br>- ------- ------ --------- -- ------------ -- --- ---- -----<br>------ ---- ---- ------ ------ ------- --- ----- ---------<br>---- --- -------- -------- --- --- -- ------- --- --- -----<br>-- --- ------ ------- --- --- -------- ---- --------- --<br>---------- -- -------- ----------------,199848.77500000584,199848.30499999953,199545.591,199556.79500000406,199562.155,199862.277,,2,Rapa
screen,html.Screen,2_3_1_0_1_3,2021-04-26T19:07:16.393Z,,,,,,,,,,,,,,,,,11,,,,,,,,,,,,,,288.7830000037793,,response,,,,4,D,,,,,,Space,keypress(Space),,,,silence,,,,----- -- ---- Nui -- --- -------- ------------ ---------- --<br>- ------- ------ --------- -- ------------ -- --- ---- -----<br>------ ---- ---- ------ ------ ------- --- ----- ---------<br>---- --- -------- -------- --- --- -- ------- --- --- -----<br>-- --- ------ ------- --- --- -------- ---- --------- --<br>---------- -- -------- ----------------,200152.30000000156,200151.06000000378,199845.359,199848.88499999943,199862.277,200161.815,,3,Nui
screen,html.Screen,2_3_1_0_1_4,2021-04-26T19:07:16.731Z,,,,,,,,,,,,,,,,,11,,,,,,,,,,,,,,327.2199999986915,,response,,,,4,D,,,,,,Space,keypress(Space),,,,silence,,,,----- -- ---- --- to --- -------- ------------ ---------- --<br>- ------- ------ --------- -- ------------ -- --- ---- -----<br>------ ---- ---- ------ ------ ------- --- ----- ---------<br>---- --- -------- -------- --- --- -- ------- --- --- -----<br>-- --- ------ ------- --- --- -------- ---- --------- --<br>---------- -- -------- ----------------,200490.30499999935,200489.0349999987,200145.127,200152.7700000006,200161.815,200494.88,,4,to
screen,html.Screen,2_3_1_0_1_5,2021-04-26T19:07:17.033Z,,,,,,,,,,,,,,,,,11,,,,,,,,,,,,,,296.52500000357395,,response,,,,4,D,,,,,,Space,keypress(Space),,,,silence,,,,----- -- ---- --- -- the -------- ------------ ---------- --<br>- ------- ------ --------- -- ------------ -- --- ---- -----<br>------ ---- ---- ------ ------ ------- --- ----- ---------<br>---- --- -------- -------- --- --- -- ------- --- --- -----<br>-- --- ------ ------- --- --- -------- ---- --------- --<br>---------- -- -------- ----------------,200792.7650000056,200791.40500000358,200478.19,200490.66000000312,200494.88,200814.588,,5,the
screen,html.Screen,2_3_1_0_1_6,2021-04-26T19:07:17.288Z,,,,,,,,,,,,,,,,,11,,,,,,,,,,,,,,232.56200000579702,,response,,,,4,D,,,,,,Space,keypress(Space),,,,silence,,,,----- -- ---- --- -- --- island's ------------ ---------- --<br>- ------- ------ --------- -- ------------ -- --- ---- -----<br>------ ---- ---- ------ ------ ------- --- ----- ---------<br>---- --- -------- -------- --- --- -- ------- --- --- -----<br>-- --- ------ ------- --- --- -------- ---- --------- --<br>---------- -- -------- ----------------,201048.18000000523,201047.1500000058,200778.212,200793.1200000021,200814.588,201060.962,,6,island's
screen,html.Screen,2_3_1_0_1_7,2021-04-26T19:07:17.652Z,,,,,,,,,,,,,,,,,11,,,,,,,,,,,,,,349.1830000016489,,response,,,,4,D,,,,,,Space,keypress(Space),,,,silence,,,,"----- -- ---- --- -- --- -------- inhabitants, ---------- --<br>- ------- ------ --------- -- ------------ -- --- ---- -----<br>------ ---- ---- ------ ------ ------- --- ----- ---------<br>---- --- -------- -------- --- --- -- ------- --- --- -----<br>-- --- ------ ------- --- --- -------- ---- --------- --<br>---------- -- -------- ----------------",201411.28500000195,201410.14500000165,201044.783,201048.48000000493,201060.962,201427.952,,7,"inhabitants,"
screen,html.Screen,2_3_1_0_1_8,2021-04-26T19:07:18.077Z,,,,,,,,,,,,,,,,,11,,,,,,,,,,,,,,407.2429999996675,,response,,,,4,D,,,,,,Space,keypress(Space),,,,silence,,,,----- -- ---- --- -- --- -------- ------------ Rongorongo --<br>- ------- ------ --------- -- ------------ -- --- ---- -----<br>------ ---- ---- ------ ------ ------- --- ----- ---------<br>---- --- -------- -------- --- --- -- ------- --- --- -----<br>-- --- ------ ------- --- --- -------- ---- --------- --<br>---------- -- -------- ----------------,201836.24000000418,201835.19499999966,201410.553,201411.63500000403,201427.952,201843.67,,8,Rongorongo
screen,html.Screen,2_3_1_0_1_9,2021-04-26T19:07:18.980Z,,,,,,,,,,,,,,,,,11,,,,,,,,,,,,,,895.1099999996659,,response,,,,4,D,,,,,,Space,keypress(Space),,,,silence,,,,----- -- ---- --- -- --- -------- ------------ ---------- is<br>- ------- ------ --------- -- ------------ -- --- ---- -----<br>------ ---- ---- ------ ------ ------- --- ----- ---------<br>---- --- -------- -------- --- --- -- ------- --- --- -----<br>-- --- ------ ------- --- --- -------- ---- --------- --<br>---------- -- -------- ----------------,202739.2600000021,202738.77999999968,201827.279,201836.54000000388,201843.67,202742.966,,9,is
screen,html.Screen,2_3_1_0_1_10,2021-04-26T19:07:19.301Z,,,,,,,,,,,,,,,,,11,,,,,,,,,,,,,,316.51400000354624,,response,,,,4,D,,,,,,Space,keypress(Space),,,,silence,,,,----- -- ---- --- -- --- -------- ------------ ---------- --<br>a ------- ------ --------- -- ------------ -- --- ---- -----<br>------ ---- ---- ------ ------ ------- --- ----- ---------<br>---- --- -------- -------- --- --- -- ------- --- --- -----<br>-- --- ------ ------- --- --- -------- ---- --------- --<br>---------- -- -------- ----------------,203060.65500000113,203059.48000000353,202726.692,202739.35000000347,202742.966,203076.496,,10,a
screen,html.Screen,2_3_1_0_1_11,2021-04-26T19:07:19.541Z,,,,,,,,,,,,,,,,,11,,,,,,,,,,,,,,223.6540000027453,,response,,,,4,D,,,,,,Space,keypress(Space),,,,silence,,,,----- -- ---- --- -- --- -------- ------------ ---------- --<br>- writing ------ --------- -- ------------ -- --- ---- -----<br>------ ---- ---- ------ ------ ------- --- ----- ---------<br>---- --- -------- -------- --- --- -- ------- --- --- -----<br>-- --- ------ ------- --- --- -------- ---- --------- --<br>---------- -- -------- ----------------,203300.45500000415,203300.15000000276,203059.765,203061.0450000022,203076.496,203309.072,,11,writing
screen,html.Screen,2_3_1_0_1_12,2021-04-26T19:07:19.769Z,,,,,,,,,,,,,,,,,11,,,,,,,,,,,,,,218.53800000465708,,response,,,,4,D,,,,,,Space,keypress(Space),,,,silence,,,,----- -- ---- --- -- --- -------- ------------ ---------- --<br>- ------- system --------- -- ------------ -- --- ---- -----<br>------ ---- ---- ------ ------ ------- --- ----- ---------<br>---- --- -------- -------- --- --- -- ------- --- --- -----<br>-- --- ------ ------- --- --- -------- ---- --------- --<br>---------- -- -------- ----------------,203528.23000000353,203527.61000000464,203292.476,203300.54000000382,203309.072,203542.698,,12,system
screen,html.Screen,2_3_1_0_1_13,2021-04-26T19:07:20.102Z,,,,,,,,,,,,,,,,,11,,,,,,,,,,,,,,317.5620000012859,,response,,,,4,D,,,,,,Space,keypress(Space),,,,silence,,,,----- -- ---- --- -- --- -------- ------------ ---------- --<br>- ------- ------ comprised -- ------------ -- --- ---- -----<br>------ ---- ---- ------ ------ ------- --- ----- ---------<br>---- --- -------- -------- --- --- -- ------- --- --- -----<br>-- --- ------ ------- --- --- -------- ---- --------- --<br>---------- -- -------- ----------------,203861.6750000001,203860.2600000013,203525.526,203528.3400000044,203542.698,203875.812,,13,comprised
screen,html.Screen,2_3_1_0_1_14,2021-04-26T19:07:20.422Z,,,,,,,,,,,,,,,,,11,,,,,,,,,,,,,,304.8929999988468,,response,,,,4,D,,,,,,Space,keypress(Space),,,,silence,,,,----- -- ---- --- -- --- -------- ------------ ---------- --<br>- ------- ------ --------- of ------------ -- --- ---- -----<br>------ ---- ---- ------ ------ ------- --- ----- ---------<br>---- --- -------- -------- --- --- -- ------- --- --- -----<br>-- --- ------ ------- --- --- -------- ---- --------- --<br>---------- -- -------- ----------------,204181.75000000338,204180.70499999885,203858.808,203861.92999999912,203875.812,204192.02,,14,of
screen,html.Screen,2_3_1_0_1_15,2021-04-26T19:07:20.752Z,,,,,,,,,,,,,,,,,11,,,,,,,,,,,,,,318.59000000482774,,response,,,,4,D,,,,,,Space,keypress(Space),,,,silence,,,,----- -- ---- --- -- --- -------- ------------ ---------- --<br>- ------- ------ --------- -- pictographs. -- --- ---- -----<br>------ ---- ---- ------ ------ ------- --- ----- ---------<br>---- --- -------- -------- --- --- -- ------- --- --- -----<br>-- --- ------ ------- --- --- -------- ---- --------- --<br>---------- -- -------- ----------------,204511.8300000031,204510.61000000482,204175.103,204182.04500000138,204192.02,204524.777,,15,pictographs.
screen,html.Screen,2_3_1_0_1_16,2021-04-26T19:07:21.182Z,,,,,,,,,,,,,,,,,11,,,,,,,,,,,,,,415.6879999996745,,response,,,,4,D,,,,,,Space,keypress(Space),,,,silence,,,,----- -- ---- --- -- --- -------- ------------ ---------- --<br>- ------- ------ --------- -- ------------ It --- ---- -----<br>------ ---- ---- ------ ------ ------- --- ----- ---------<br>---- --- -------- -------- --- --- -- ------- --- --- -----<br>-- --- ------ ------- --- --- -------- ---- --------- --<br>---------- -- -------- ----------------,204941.46000000183,204940.46499999968,204508.031,204512.23500000197,204524.777,204958.131,,16,It
screen,html.Screen,2_3_1_0_1_17,2021-04-26T19:07:21.513Z,,,,,,,,,,,,,,,,,11,,,,,,,,,,,,,,313.6440000010771,,response,,,,4,D,,,,,,Space,keypress(Space),,,,silence,,,,----- -- ---- --- -- --- -------- ------------ ---------- --<br>- ------- ------ --------- -- ------------ -- has ---- -----<br>------ ---- ---- ------ ------ ------- --- ----- ---------<br>---- --- -------- -------- --- --- -- ------- --- --- -----<br>-- --- ------ ------- --- --- -------- ---- --------- --<br>---------- -- -------- ----------------,205272.2649999996,205271.77500000107,204941.391,204941.7500000054,204958.131,205274.113,,17,has
screen,html.Screen,2_3_1_0_1_18,2021-04-26T19:07:21.808Z,,,,,,,,,,,,,,,,,11,,,,,,,,,,,,,,292.6770000043907,,response,,,,4,D,,,,,,Space,keypress(Space),,,,silence,,,,----- -- ---- --- -- --- -------- ------------ ---------- --<br>- ------- ------ --------- -- ------------ -- --- been -----<br>------ ---- ---- ------ ------ ------- --- ----- ---------<br>---- --- -------- -------- --- --- -- ------- --- --- -----<br>-- --- ------ ------- --- --- -------- ---- --------- --<br>---------- -- -------- ----------------,205567.6950000052,205566.7900000044,205257.872,205272.39499999996,205274.113,205573.968,,18,been
screen,html.Screen,2_3_1_0_1_19,2021-04-26T19:07:22.155Z,,,,,,,,,,,,,,,,,11,,,,,,,,,,,,,,339.452000004414,,response,,,,4,D,,,,,,Space,keypress(Space),,,,silence,,,,----- -- ---- --- -- --- -------- ------------ ---------- --<br>- ------- ------ --------- -- ------------ -- --- ---- found<br>------ ---- ---- ------ ------ ------- --- ----- ---------<br>---- --- -------- -------- --- --- -- ------- --- --- -----<br>-- --- ------ ------- --- --- -------- ---- --------- --<br>---------- -- -------- ----------------,205914.46500000166,205913.4200000044,205557.332,205567.9550000059,205573.968,205923.951,,19,found
screen,html.Screen,2_3_1_0_1_20,2021-04-26T19:07:22.420Z,,,,,,,,,,,,,,,,,11,,,,,,,,,,,,,,254.6790000021574,,response,,,,4,D,,,,,,Space,keypress(Space),,,,silence,,,,----- -- ---- --- -- --- -------- ------------ ---------- --<br>- ------- ------ --------- -- ------------ -- --- ---- -----<br>carved ---- ---- ------ ------ ------- --- ----- ---------<br>---- --- -------- -------- --- --- -- ------- --- --- -----<br>-- --- ------ ------- --- --- -------- ---- --------- --<br>---------- -- -------- ----------------,206179.6050000048,206178.63000000216,205907.363,205914.81500000373,205923.951,206190.327,,20,carved
screen,html.Screen,2_3_1_0_1_21,2021-04-26T19:07:22.716Z,,,,,,,,,,,,,,,,,11,,,,,,,,,,,,,,284.4379999990342,,response,,,,4,D,,,,,,Space,keypress(Space),,,,silence,,,,----- -- ---- --- -- --- -------- ------------ ---------- --<br>- ------- ------ --------- -- ------------ -- --- ---- -----<br>------ into ---- ------ ------ ------- --- ----- ---------<br>---- --- -------- -------- --- --- -- ------- --- --- -----<br>-- --- ------ ------- --- --- -------- ---- --------- --<br>---------- -- -------- ----------------,206475.695000001,206474.76499999902,206173.603,206179.86000000383,206190.327,206490.201,,21,into
screen,html.Screen,2_3_1_0_1_22,2021-04-26T19:07:22.931Z,,,,,,,,,,,,,,,,,11,,,,,,,,,,,,,,199.62400000129128,,response,,,,4,D,,,,,,Space,keypress(Space),,,,silence,,,,----- -- ---- --- -- --- -------- ------------ ---------- --<br>- ------- ------ --------- -- ------------ -- --- ---- -----<br>------ ---- many ------ ------ ------- --- ----- ---------<br>---- --- -------- -------- --- --- -- ------- --- --- -----<br>-- --- ------ ------- --- --- -------- ---- --------- --<br>---------- -- -------- ----------------,206690.21500000235,206689.8250000013,206473.563,206475.9600000034,206490.201,206706.878,,22,many
screen,html.Screen,2_3_1_0_1_23,2021-04-26T19:07:23.196Z,,,,,,,,,,,,,,,,,11,,,,,,,,,,,,,,247.85200000493205,,response,,,,4,D,,,,,,Space,keypress(Space),,,,silence,,,,----- -- ---- --- -- --- -------- ------------ ---------- --<br>- ------- ------ --------- -- ------------ -- --- ---- -----<br>------ ---- ---- oblong ------ ------- --- ----- ---------<br>---- --- -------- -------- --- --- -- ------- --- --- -----<br>-- --- ------ ------- --- --- -------- ---- --------- --<br>---------- -- -------- ----------------,206955.6350000057,206954.73000000493,206690.073,206690.30500000372,206706.878,206973.076,,23,oblong
screen,html.Screen,2_3_1_0_1_24,2021-04-26T19:07:23.563Z,,,,,,,,,,,,,,,,,11,,,,,,,,,,,,,,349.0489999987767,,response,,,,4,D,,,,,,Space,keypress(Space),,,,silence,,,,----- -- ---- --- -- --- -------- ------------ ---------- --<br>- ------- ------ --------- -- ------------ -- --- ---- -----<br>------ ---- ---- ------ wooden ------- --- ----- ---------<br>---- --- -------- -------- --- --- -- ------- --- --- -----<br>-- --- ------ ------- --- --- -------- ---- --------- --<br>---------- -- -------- ----------------,207322.74999999936,207322.12499999878,206956.315,206955.91500000592,206973.076,207339.274,,24,wooden
screen,html.Screen,2_3_1_0_1_25,2021-04-26T19:07:23.827Z,,,,,,,,,,,,,,,,,11,,,,,,,,,,,,,,247.03599999877042,,response,,,,4,D,,,,,,Space,keypress(Space),,,,silence,,,,----- -- ---- --- -- --- -------- ------------ ---------- --<br>- ------- ------ --------- -- ------------ -- --- ---- -----<br>------ ---- ---- ------ ------ tablets --- ----- ---------<br>---- --- -------- -------- --- --- -- ------- --- --- -----<br>-- --- ------ ------- --- --- -------- ---- --------- --<br>---------- -- -------- ----------------,207586.7950000029,207586.30999999878,207322.733,207322.9050000009,207339.274,207588.861,,25,tablets
screen,html.Screen,2_3_1_0_1_26,2021-04-26T19:07:24.122Z,,,,,,,,,,,,,,,,,11,,,,,,,,,,,,,,291.9389999989944,,response,,,,4,D,,,,,,Space,keypress(Space),,,,silence,,,,----- -- ---- --- -- --- -------- ------------ ---------- --<br>- ------- ------ --------- -- ------------ -- --- ---- -----<br>------ ---- ---- ------ ------ ------- and ----- ---------<br>---- --- -------- -------- --- --- -- ------- --- --- -----<br>-- --- ------ ------- --- --- -------- ---- --------- --<br>---------- -- -------- ----------------,207881.74000000436,207880.799999999,207572.648,207586.91499999986,207588.861,207888.788,,26,and
screen,html.Screen,2_3_1_0_1_27,2021-04-26T19:07:24.388Z,,,,,,,,,,,,,,,,,11,,,,,,,,,,,,,,257.8720000057947,,response,,,,4,D,,,,,,Space,keypress(Space),,,,silence,,,,----- -- ---- --- -- --- -------- ------------ ---------- --<br>- ------- ------ --------- -- ------------ -- --- ---- -----<br>------ ---- ---- ------ ------ ------- --- other ---------<br>---- --- -------- -------- --- --- -- ------- --- --- -----<br>-- --- ------ ------- --- --- -------- ---- --------- --<br>---------- -- -------- ----------------,208147.5900000005,208146.6600000058,207872.466,207881.99500000337,207888.788,208155.198,,27,other
screen,html.Screen,2_3_1_0_1_28,2021-04-26T19:07:24.667Z,,,,,,,,,,,,,,,,,11,,,,,,,,,,,,,,270.23200000295765,,response,,,,4,D,,,,,,Space,keypress(Space),,,,silence,,,,----- -- ---- --- -- --- -------- ------------ ---------- --<br>- ------- ------ --------- -- ------------ -- --- ---- -----<br>------ ---- ---- ------ ------ ------- --- ----- artifacts<br>---- --- -------- -------- --- --- -- ------- --- --- -----<br>-- --- ------ ------- --- --- -------- ---- --------- --<br>---------- -- -------- ----------------,208426.38499999885,208425.43000000296,208138.818,208147.8550000029,208155.198,208438.66,,28,artifacts
screen,html.Screen,2_3_1_0_1_29,2021-04-26T19:07:25.076Z,,,,,,,,,,,,,,,,,11,,,,,,,,,,,,,,396.1249999990978,,response,,,,4,D,,,,,,Space,keypress(Space),,,,silence,,,,----- -- ---- --- -- --- -------- ------------ ---------- --<br>- ------- ------ --------- -- ------------ -- --- ---- -----<br>------ ---- ---- ------ ------ ------- --- ----- ---------<br>from --- -------- -------- --- --- -- ------- --- --- -----<br>-- --- ------ ------- --- --- -------- ---- --------- --<br>---------- -- -------- ----------------,208835.76000000176,208834.7849999991,208421.81,208426.64000000514,208438.66,208837.952,,29,from
screen,html.Screen,2_3_1_0_1_30,2021-04-26T19:07:25.291Z,,,,,,,,,,,,,,,,,11,,,,,,,,,,,,,,211.79300000390504,,response,,,,4,D,,,,,,Space,keypress(Space),,,,silence,,,,----- -- ---- --- -- --- -------- ------------ ---------- --<br>- ------- ------ --------- -- ------------ -- --- ---- -----<br>------ ---- ---- ------ ------ ------- --- ----- ---------<br>---- the -------- -------- --- --- -- ------- --- --- -----<br>-- --- ------ ------- --- --- -------- ---- --------- --<br>---------- -- -------- ----------------,209050.71000000316,209049.7450000039,208821.291,208836.03000000585,208837.952,209054.452,,30,the
screen,html.Screen,2_3_1_0_1_31,2021-04-26T19:07:25.514Z,,,,,,,,,,,,,,,,,11,,,,,,,,,,,,,,219.16799999994691,,response,,,,4,D,,,,,,Space,keypress(Space),,,,silence,,,,----- -- ---- --- -- --- -------- ------------ ---------- --<br>- ------- ------ --------- -- ------------ -- --- ---- -----<br>------ ---- ---- ------ ------ ------- --- ----- ---------<br>---- --- island's -------- --- --- -- ------- --- --- -----<br>-- --- ------ ------- --- --- -------- ---- --------- --<br>---------- -- -------- ----------------,209274.04500000557,209273.61999999994,209038.06,209051.00500000117,209054.452,209288.16,,31,island's
screen,html.Screen,2_3_1_0_1_32,2021-04-26T19:07:25.857Z,,,,,,,,,,,,,,,,,11,,,,,,,,,,,,,,328.27000000185217,,response,,,,4,D,,,,,,Space,keypress(Space),,,,silence,,,,----- -- ---- --- -- --- -------- ------------ ---------- --<br>- ------- ------ --------- -- ------------ -- --- ---- -----<br>------ ---- ---- ------ ------ ------- --- ----- ---------<br>---- --- -------- history. --- --- -- ------- --- --- -----<br>-- --- ------ ------- --- --- -------- ---- --------- --<br>---------- -- -------- ----------------,209616.8949999992,209616.43000000186,209271.149,209274.13000000524,209288.16,209620.672,,32,history.
screen,html.Screen,2_3_1_0_1_33,2021-04-26T19:07:26.196Z,,,,,,,,,,,,,,,,,11,,,,,,,,,,,,,,334.45800000210875,,response,,,,4,D,,,,,,Space,keypress(Space),,,,silence,,,,----- -- ---- --- -- --- -------- ------------ ---------- --<br>- ------- ------ --------- -- ------------ -- --- ---- -----<br>------ ---- ---- ------ ------ ------- --- ----- ---------<br>---- --- -------- -------- The --- -- ------- --- --- -----<br>-- --- ------ ------- --- --- -------- ---- --------- --<br>---------- -- -------- ----------------,209956.08000000357,209955.1300000021,209604.197,209616.97500000446,209620.672,209970.444,,33,The
screen,html.Screen,2_3_1_0_1_34,2021-04-26T19:07:26.487Z,,,,,,,,,,,,,,,,,11,,,,,,,,,,,,,,275.40599999934784,,response,,,,4,D,,,,,,Space,keypress(Space),,,,silence,,,,----- -- ---- --- -- --- -------- ------------ ---------- --<br>- ------- ------ --------- -- ------------ -- --- ---- -----<br>------ ---- ---- ------ ------ ------- --- ----- ---------<br>---- --- -------- -------- --- art -- ------- --- --- -----<br>-- --- ------ ------- --- --- -------- ---- --------- --<br>---------- -- -------- ----------------,210246.88500000047,210245.84999999934,209954.108,209956.34000000427,209970.444,210253.441,,34,art
screen,html.Screen,2_3_1_0_1_35,2021-04-26T19:07:26.755Z,,,,,,,,,,,,,,,,,11,,,,,,,,,,,,,,260.4140000047046,,response,,,,4,D,,,,,,Space,keypress(Space),,,,silence,,,,----- -- ---- --- -- --- -------- ------------ ---------- --<br>- ------- ------ --------- -- ------------ -- --- ---- -----<br>------ ---- ---- ------ ------ ------- --- ----- ---------<br>---- --- -------- -------- --- --- of ------- --- --- -----<br>-- --- ------ ------- --- --- -------- ---- --------- --<br>---------- -- -------- ----------------,210514.33499999985,210513.8550000047,210237.224,210247.24000000424,210253.441,210520.175,,35,of
screen,html.Screen,2_3_1_0_1_36,2021-04-26T19:07:26.970Z,,,,,,,,,,,,,,,,,11,,,,,,,,,,,,,,208.51500000356464,,response,,,,4,D,,,,,,Space,keypress(Space),,,,silence,,,,----- -- ---- --- -- --- -------- ------------ ---------- --<br>- ------- ------ --------- -- ------------ -- --- ---- -----<br>------ ---- ---- ------ ------ ------- --- ----- ---------<br>---- --- -------- -------- --- --- -- writing --- --- -----<br>-- --- ------ ------- --- --- -------- ---- --------- --<br>---------- -- -------- ----------------,210729.57000000315,210728.69000000355,210503.677,210514.4150000051,210520.175,210736.442,,36,writing
screen,html.Screen,2_3_1_0_1_37,2021-04-26T19:07:27.315Z,,,,,,,,,,,,,,,,,11,,,,,,,,,,,,,,337.24800000470714,,response,,,,4,D,,,,,,Space,keypress(Space),,,,silence,,,,----- -- ---- --- -- --- -------- ------------ ---------- --<br>- ------- ------ --------- -- ------------ -- --- ---- -----<br>------ ---- ---- ------ ------ ------- --- ----- ---------<br>---- --- -------- -------- --- --- -- ------- was --- -----<br>-- --- ------ ------- --- --- -------- ---- --------- --<br>---------- -- -------- ----------------,211074.6500000023,211073.69000000472,210719.692,210729.83999999997,210736.442,211086.187,,37,was
