sender,sender_type,sender_id,timestamp,meta,,Blues,Classical,Country,Dance,Electronic,Folk,Gospel,Hip-Hop,Jazz,Latin,Musical/Film,New-age,Pop,Prolific_id,Provo_ID,R&B,Rap,Reggae,Religious,Rock,Soul,Swing,Traditional,age,artist_name,correct,correctResponse,distraction,duration,education,ended_on,familiarity,gender,headphone_check_performance,item,list,music_frequency,offensiveness,pleasantness,position_correct,preference,response,response_action,snippet_file,song_name,song_rating,sound,stimulus_1,stimulus_2,stimulus_3,text,time_commit,time_end,time_render,time_run,time_show,time_switch,url,word,word_ID
Prolific ID,html.Form,0,2021-04-26T10:37:35.822Z,"{""labjs_version"":""20.2.2"",""labjs_build"":{""flavor"":""production"",""commit"":""a25486e0c714a0ae2ce03ff94b7bb6896854dcfa""},""location"":""https://run.pavlovia.org/mvasilev/prolific_music_a/"",""userAgent"":""Mozilla/5.0 (Windows NT 10.0; Win64; x64) AppleWebKit/537.36 (KHTML, like Gecko) Chrome/90.0.4430.85 Safari/537.36"",""platform"":""Win32"",""language"":""en-US"",""locale"":""en-US"",""timeZone"":""Europe/London"",""timezoneOffset"":-60,""screen_width"":1366,""screen_height"":768,""scroll_width"":1366,""scroll_height"":577,""window_innerWidth"":1366,""window_innerHeight"":625,""devicePixelRatio"":1}",,,,,,,,,,,,,,,603c124974df2e8f9f375fa8,,,,,,,,,,,,,,,6111.477000007897,,form submission,,,,,,,,,,,,,,,,,,,,,24495.114999939688,24493.855000007898,18299.052,18306.71999999322,18382.378,24532.485,{},,
Introduction,html.Screen,1_0,2021-04-26T10:37:42.276Z,,,,,,,,,,,,,,,,,,,,,,,,,,,,,,,6412.654999967068,,response,,,,,,,,,,,continue,click button,,,,,,,,,30949.924999964423,30945.13999996707,24482.503,24495.939999935217,24532.485,30965.951,,,
Volume calibration,html.Screen,1_1,2021-04-26T10:38:47.642Z,,,,,,,,,,,,,,,,,,,,,,,,,,,,,,,65341.90899994259,,response,,,,,,,,,,,continue,click button,,,,,,,,,96315.11999992654,96307.8599999426,30932.614,30950.349999940954,30965.951,96317.365,,,
Task instructions,html.Screen,1_2,2021-04-26T10:39:37.262Z,,,,,,,,,,,,,,,,,,,,,,,,,,,,,,,49617.40999997243,,response,,,,,,,,,,,continue,click button,,,,,,,,,145936.21999991592,145934.77499997243,96300.555,96315.54499990307,96317.365,145951.511,,,
Sounds,html.Screen,1_3_0_0,2021-04-26T10:39:41.515Z,,,,,,,,,,,,,,,,,,,,,,,,,,,,,,,4250.084999999992,,timeout,,,,,,,,,1,,,,,,,,S,I,O,,150189.294999931,150184.933,145934.827,145936.86499993782,145951.511,150201.596,,,
Judgement,html.Screen,1_3_0_1,2021-04-26T10:39:43.018Z,,,,,,,,,,,,,,,,,,,,,,,,,,,,true,1,,1489.0839999997115,,response,,,,,,,,,1,,1,click #choice-1,,,,,S,I,O,,151692.42499989923,151690.6799999997,150184.933,150189.6799999522,150201.596,151701.599,,,
Trial,flow.Sequence,1_3_0,2021-04-26T10:39:43.019Z,,,,,,,,,,,,,,,,,,,,,,,,,,,,,,,5739.168999999703,,completion,,,,,,,,,1,,,,,,,,S,I,O,,151693.21999989916,151690.6799999997,145934.827,145936.70999992173,145951.511,151701.599,,,
Sounds,html.Screen,1_3_1_0,2021-04-26T10:39:47.262Z,,,,,,,,,,,,,,,,,,,,,,,,,,,,,,,4250.110000000015,,timeout,,,,,,,,,3,,,,,,,,O,I,S,,155936.1599999247,155935.049,151684.962,151693.63999995403,151701.599,155951.709,,,
Judgement,html.Screen,1_3_1_1,2021-04-26T10:39:48.014Z,,,,,,,,,,,,,,,,,,,,,,,,,,,,true,3,,734.8659999415104,,response,,,,,,,,,3,,3,click #choice-3,,,,,O,I,S,,156687.93499993626,156686.5749999415,155935.049,155936.4699999569,155951.709,156701.703,,,
Trial,flow.Sequence,1_3_1,2021-04-26T10:39:48.014Z,,,,,,,,,,,,,,,,,,,,,,,,,,,,,,,4984.9759999415255,,completion,,,,,,,,,3,,,,,,,,O,I,S,,156688.42999998014,156686.5749999415,151684.962,151693.49999993574,151701.599,156701.703,,,
Sounds,html.Screen,1_3_2_0,2021-04-26T10:39:52.262Z,,,,,,,,,,,,,,,,,,,,,,,,,,,,,,,4250.103000000003,,timeout,,,,,,,,,1,,,,,,,,S,O,I,,160936.2699999474,160935.139,156685.056,156688.82499996107,156701.703,160951.806,,,
Judgement,html.Screen,1_3_2_1,2021-04-26T10:39:52.830Z,,,,,,,,,,,,,,,,,,,,,,,,,,,,true,1,,550.6839999843796,,response,,,,,,,,,1,,1,click #choice-1,,,,,S,O,I,,161503.84999997914,161502.4899999844,160935.139,160936.55499990564,160951.806,161518.478,,,
Trial,flow.Sequence,1_3_2,2021-04-26T10:39:52.830Z,,,,,,,,,,,,,,,,,,,,,,,,,,,,,,,4800.786999984382,,completion,,,,,,,,,1,,,,,,,,S,O,I,,161504.30999998935,161502.4899999844,156685.056,156688.68999998085,156701.703,161518.478,,,
Sounds,html.Screen,1_3_3_0,2021-04-26T10:39:57.079Z,,,,,,,,,,,,,,,,,,,,,,,,,,,,,,,4250.06700000001,,timeout,,,,,,,,,3,,,,,,,,I,O,S,,165753.11999989208,165751.9,161501.818,161504.69499989413,161518.478,165768.545,,,
Judgement,html.Screen,1_3_3_1,2021-04-26T10:39:57.770Z,,,,,,,,,,,,,,,,,,,,,,,,,,,,true,3,,673.8699999394885,,response,,,,,,,,,3,,3,click #choice-3,,,,,I,O,S,,166443.74999997672,166442.4149999395,165751.9,165753.39999992866,165768.545,166451.925,,,
Trial,flow.Sequence,1_3_3,2021-04-26T10:39:57.770Z,,,,,,,,,,,,,,,,,,,,,,,,,,,,,,,4923.9369999394985,,completion,,,,,,,,,3,,,,,,,,I,O,S,,166444.19999991078,166442.4149999395,161501.818,161504.5599999139,161518.478,166451.925,,,
Sounds,html.Screen,1_3_4_0,2021-04-26T10:40:02.012Z,,,,,,,,,,,,,,,,,,,,,,,,,,,,,,,4250.075000000012,,timeout,,,,,,,,,2,,,,,,,,I,S,O,,170686.21999991592,170685.33,166435.248,166444.55499993637,166451.925,170702,,,
Judgement,html.Screen,1_3_4_1,2021-04-26T10:40:02.522Z,,,,,,,,,,,,,,,,,,,,,,,,,,,,true,2,,492.2849999759346,,response,,,,,,,,,2,,2,click #choice-2,,,,,I,S,O,,171195.73999999557,171194.28499997593,170685.33,170686.4999999525,170702,171202.019,,,
Trial,flow.Sequence,1_3_4,2021-04-26T10:40:02.522Z,,,,,,,,,,,,,,,,,,,,,,,,,,,,,,,4742.359999975946,,completion,,,,,,,,,2,,,,,,,,I,S,O,,171196.2099999655,171194.28499997593,166435.248,166444.44499991369,166451.925,171202.019,,,
Sounds,html.Screen,1_3_5_0,2021-04-26T10:40:06.762Z,,,,,,,,,,,,,,,,,,,,,,,,,,,,,,,4250.075000000012,,timeout,,,,,,,,,2,,,,,,,,O,S,I,,175436.28999998327,175435.421,171185.336,171196.56999991275,171202.019,175452.094,,,
Judgement,html.Screen,1_3_5_1,2021-04-26T10:40:07.502Z,,,,,,,,,,,,,,,,,,,,,,,,,,,,true,2,,722.0459999009327,,response,,,,,,,,,2,,2,click #choice-2,,,,,O,S,I,,176175.47499993816,176174.13999990094,175435.421,175436.56499998178,175452.094,176185.436,,,
Trial,flow.Sequence,1_3_5,2021-04-26T10:40:07.502Z,,,,,,,,,,,,,,,,,,,,,,,,,,,,,,,4972.120999900944,,completion,,,,,,,,,2,,,,,,,,O,S,I,,176175.93999998644,176174.13999990094,171185.336,171196.46499992814,171202.019,176185.436,,,
Task,flow.Loop,1_3,2021-04-26T10:40:07.512Z,,,,,,,,,,,,,,,,,,,,,,,,,,,,,,,30222.628999900946,,completion,,,1,,,,,,,,,,,,,,,,,,176186.2399999518,176174.13999990094,145934.827,145936.5449999459,145951.511,176185.436,,,
Trap,html.Screen,1_4,2021-04-26T10:40:07.515Z,,,,,,,,,,,,,,,,,,,,,,,,,,,,,,,NaN,,skipped,,,,,,,,,,,,,,,,,,,,,176189.17999998666,176174.13999990094,,176188.80000000354,,176185.436,,,
Thanks,html.Screen,1_5,2021-04-26T10:40:18.897Z,,,,,,,,,,,,,,,,,,,,,,,,,,,,,,,11384.508999995654,,response,,,,,,,,,,,continue,click button,,,,,,,,,187571.27499999478,187569.94499999564,176168.783,176189.4949999405,176185.436,190702.428,,,
Headphone screening,flow.Sequence,1,2021-04-26T10:40:18.898Z,,,,,,,,,,,,,,,,,,,,,,,,,,,,,,,163037.45999999566,,completion,,,,,,,,,,,,,,,,,,,,,187571.809999994,187569.94499999564,24482.503,24495.839999988675,24532.485,190702.428,,,
Instructions,html.Page,2_0,2021-04-26T10:40:42.982Z,,,,,,,,,,,,,,,,,,,,,,,,,,,,,,,20952.466999926895,,form submission,,,,,,,,,,,,,,,,,,,,,211655.44499992393,211654.8949999269,190685.75,190698.1599999126,190702.428,211669.456,,,
Holding screen,html.Screen,2_1_0_0,2021-04-26T10:40:52.980Z,,,,,,,,,,,,,,,,,,,,,,,,,,,,,,,10000.209000000003,,timeout,,,,,,,,,,,,,,,,,,,,,221653.68499991018,221652.977,211652.78,211655.97999992315,211669.456,221669.665,,,
screen,html.Screen,2_1_0_1_0,2021-04-26T10:40:54.016Z,,,,,,,,,,,,,,,,,53,,,,,,,,,,,,,,1015.834999904997,,response,,,,99,,,,,,,Space,keypress(Space),,,,,,,,When -- ----- -- ------ - ------- --- ----------<br>------------- ------ ------ ---- ---- ------- ----- -- ----<br>-------- ------- -- ---------- --- - --- ----- ----- ----<br>---- --- --- ----- --- ---- ---- ------- ----- ---- -------<br>--- --- -- ----- -- --- ---- -- --- ---- -- ------ ------<br>--- ----- -- ----,222689.63999999687,222685.499999905,221652.977,221654.11999996286,221669.665,222703,,0,When
screen,html.Screen,2_1_0_1_1,2021-04-26T10:40:54.476Z,,,,,,,,,,,,,,,,,53,,,,,,,,,,,,,,445.6949999816716,,response,,,,99,,,,,,,Space,keypress(Space),,,,,,,,---- it ----- -- ------ - ------- --- ----------<br>------------- ------ ------ ---- ---- ------- ----- -- ----<br>-------- ------- -- ---------- --- - --- ----- ----- ----<br>---- --- --- ----- --- ---- ---- ------- ----- ---- -------<br>--- --- -- ----- -- --- ---- -- --- ---- -- ------ ------<br>--- ----- -- ----,223149.60499992594,223148.69499998167,222686.343,222690.04499993753,222703,223153.057,,1,it
screen,html.Screen,2_1_0_1_2,2021-04-26T10:40:54.950Z,,,,,,,,,,,,,,,,,53,,,,,,,,,,,,,,469.63799991089036,,response,,,,99,,,,,,,Space,keypress(Space),,,,,,,,---- -- comes -- ------ - ------- --- ----------<br>------------- ------ ------ ---- ---- ------- ----- -- ----<br>-------- ------- -- ---------- --- - --- ----- ----- ----<br>---- --- --- ----- --- ---- ---- ------- ----- ---- -------<br>--- --- -- ----- -- --- ---- -- --- ---- -- ------ ------<br>--- ----- -- ----,223623.60999989323,223622.6949999109,223136.335,223149.8900000006,223153.057,223636.403,,2,comes
screen,html.Screen,2_1_0_1_3,2021-04-26T10:40:55.402Z,,,,,,,,,,,,,,,,,53,,,,,,,,,,,,,,438.6719999424531,,response,,,,99,,,,,,,Space,keypress(Space),,,,,,,,---- -- ----- to ------ - ------- --- ----------<br>------------- ------ ------ ---- ---- ------- ----- -- ----<br>-------- ------- -- ---------- --- - --- ----- ----- ----<br>---- --- --- ----- --- ---- ---- ------- ----- ---- -------<br>--- --- -- ----- -- --- ---- -- --- ---- -- ------ ------<br>--- ----- -- ----,224075.99499996286,224075.07499994244,223619.69,223623.8949999679,223636.403,224086.354,,3,to
screen,html.Screen,2_1_0_1_4,2021-04-26T10:40:55.864Z,,,,,,,,,,,,,,,,,53,,,,,,,,,,,,,,450.67600000678794,,response,,,,99,,,,,,,Space,keypress(Space),,,,,,,,---- -- ----- -- having - ------- --- ----------<br>------------- ------ ------ ---- ---- ------- ----- -- ----<br>-------- ------- -- ---------- --- - --- ----- ----- ----<br>---- --- --- ----- --- ---- ---- ------- ----- ---- -------<br>--- --- -- ----- -- --- ---- -- --- ---- -- ------ ------<br>--- ----- -- ----,224537.89499995764,224537.03000000678,224069.708,224076.29999995697,224086.354,224553.031,,4,having
screen,html.Screen,2_1_0_1_5,2021-04-26T10:40:56.241Z,,,,,,,,,,,,,,,,,53,,,,,,,,,,,,,,361.0189999048307,,response,,,,99,,,,,,,Space,keypress(Space),,,,,,,,---- -- ----- -- ------ a ------- --- ----------<br>------------- ------ ------ ---- ---- ------- ----- -- ----<br>-------- ------- -- ---------- --- - --- ----- ----- ----<br>---- --- --- ----- --- ---- ---- ------- ----- ---- -------<br>--- --- -- ----- -- --- ---- -- --- ---- -- ------ ------<br>--- ----- -- ----,224914.88999989815,224914.04999990482,224536.391,224538.18499995396,224553.031,224919.721,,5,a
screen,html.Screen,2_1_0_1_6,2021-04-26T10:40:56.650Z,,,,,,,,,,,,,,,,,53,,,,,,,,,,,,,,403.5339999374992,,response,,,,99,,,,,,,Space,keypress(Space),,,,,,,,---- -- ----- -- ------ - lasting --- ----------<br>------------- ------ ------ ---- ---- ------- ----- -- ----<br>-------- ------- -- ---------- --- - --- ----- ----- ----<br>---- --- --- ----- --- ---- ---- ------- ----- ---- -------<br>--- --- -- ----- -- --- ---- -- --- ---- -- ------ ------<br>--- ----- -- ----,225324.07999993302,225323.2549999375,224903.037,224915.17999989446,224919.721,225336.394,,6,lasting
screen,html.Screen,2_1_0_1_7,2021-04-26T10:40:57.057Z,,,,,,,,,,,,,,,,,53,,,,,,,,,,,,,,393.3709999381972,,response,,,,99,,,,,,,Space,keypress(Space),,,,,,,,---- -- ----- -- ------ - ------- and ----------<br>------------- ------ ------ ---- ---- ------- ----- -- ----<br>-------- ------- -- ---------- --- - --- ----- ----- ----<br>---- --- --- ----- --- ---- ---- ------- ----- ---- -------<br>--- --- -- ----- -- --- ---- -- --- ---- -- ------ ------<br>--- ----- -- ----,225730.63499992713,225729.7649999382,225319.711,225324.36500000767,225336.394,225736.398,,7,and
screen,html.Screen,2_1_0_1_8,2021-04-26T10:40:57.495Z,,,,,,,,,,,,,,,,,53,,,,,,,,,,,,,,431.1069999030442,,response,,,,99,,,,,,,Space,keypress(Space),,,,,,,,---- -- ----- -- ------ - ------- --- fulfilling<br>------------- ------ ------ ---- ---- ------- ----- -- ----<br>-------- ------- -- ---------- --- - --- ----- ----- ----<br>---- --- --- ----- --- ---- ---- ------- ----- ---- -------<br>--- --- -- ----- -- --- ---- -- --- ---- -- ------ ------<br>--- ----- -- ----,226168.63499989267,226167.50499990303,225719.731,225730.9200000018,225736.398,226197.756,,8,fulfilling
screen,html.Screen,2_1_0_1_9,2021-04-26T10:40:58.118Z,,,,,,,,,,,,,,,,,53,,,,,,,,,,,,,,593.4139999822364,,response,,,,99,,,,,,,Space,keypress(Space),,,,,,,,"---- -- ----- -- ------ - ------- --- ----------<br>relationship, ------ ------ ---- ---- ------- ----- -- ----<br>-------- ------- -- ---------- --- - --- ----- ----- ----<br>---- --- --- ----- --- ---- ---- ------- ----- ---- -------<br>--- --- -- ----- -- --- ---- -- --- ---- -- ------ ------<br>--- ----- -- ----",226792.0499999309,226791.16999998223,226153.059,226168.95999992266,226197.756,226803.077,,9,"relationship,"
screen,html.Screen,2_1_0_1_10,2021-04-26T10:40:58.538Z,,,,,,,,,,,,,,,,,53,,,,,,,,,,,,,,407.837999945099,,response,,,,99,,,,,,,Space,keypress(Space),,,,,,,,---- -- ----- -- ------ - ------- --- ----------<br>------------- common ------ ---- ---- ------- ----- -- ----<br>-------- ------- -- ---------- --- - --- ----- ----- ----<br>---- --- --- ----- --- ---- ---- ------- ----- ---- -------<br>--- --- -- ----- -- --- ---- -- --- ---- -- ------ ------<br>--- ----- -- ----,227211.82500000577,227210.9149999451,226786.421,226792.33500000555,226803.077,227219.745,,10,common
screen,html.Screen,2_1_0_1_11,2021-04-26T10:40:58.959Z,,,,,,,,,,,,,,,,,53,,,,,,,,,,,,,,412.6349999663653,,response,,,,99,,,,,,,Space,keypress(Space),,,,,,,,---- -- ----- -- ------ - ------- --- ----------<br>------------- ------ wisdom ---- ---- ------- ----- -- ----<br>-------- ------- -- ---------- --- - --- ----- ----- ----<br>---- --- --- ----- --- ---- ---- ------- ----- ---- -------<br>--- --- -- ----- -- --- ---- -- --- ---- -- ------ ------<br>--- ----- -- ----,227633.36499989964,227632.37999996636,227203.086,227212.12499996182,227219.745,227636.452,,11,wisdom
screen,html.Screen,2_1_0_1_12,2021-04-26T10:40:59.386Z,,,,,,,,,,,,,,,,,53,,,,,,,,,,,,,,422.5529999300488,,response,,,,99,,,,,,,Space,keypress(Space),,,,,,,,---- -- ----- -- ------ - ------- --- ----------<br>------------- ------ ------ says ---- ------- ----- -- ----<br>-------- ------- -- ---------- --- - --- ----- ----- ----<br>---- --- --- ----- --- ---- ---- ------- ----- ---- -------<br>--- --- -- ----- -- --- ---- -- --- ---- -- ------ ------<br>--- ----- -- ----,228059.89499995485,228059.00499993004,227619.752,227633.64499993622,227636.452,228069.769,,12,says
screen,html.Screen,2_1_0_1_13,2021-04-26T10:40:59.833Z,,,,,,,,,,,,,,,,,53,,,,,,,,,,,,,,436.66099995034165,,response,,,,99,,,,,,,Space,keypress(Space),,,,,,,,---- -- ----- -- ------ - ------- --- ----------<br>------------- ------ ------ ---- that ------- ----- -- ----<br>-------- ------- -- ---------- --- - --- ----- ----- ----<br>---- --- --- ----- --- ---- ---- ------- ----- ---- -------<br>--- --- -- ----- -- --- ---- -- --- ---- -- ------ ------<br>--- ----- -- ----,228507.29999993928,228506.42999995034,228053.096,228060.1799999131,228069.769,228519.775,,13,that
screen,html.Screen,2_1_0_1_14,2021-04-26T10:41:00.445Z,,,,,,,,,,,,,,,,,53,,,,,,,,,,,,,,598.5349999325408,,response,,,,99,,,,,,,Space,keypress(Space),,,,,,,,---- -- ----- -- ------ - ------- --- ----------<br>------------- ------ ------ ---- ---- feeling ----- -- ----<br>-------- ------- -- ---------- --- - --- ----- ----- ----<br>---- --- --- ----- --- ---- ---- ------- ----- ---- -------<br>--- --- -- ----- -- --- ---- -- --- ---- -- ------ ------<br>--- ----- -- ----,229119.20999991708,229118.30999993253,228503.11,228507.57999997586,228519.775,229136.474,,14,feeling
screen,html.Screen,2_1_0_1_15,2021-04-26T10:41:00.988Z,,,,,,,,,,,,,,,,,53,,,,,,,,,,,,,,524.815999960003,,response,,,,99,,,,,,,Space,keypress(Space),,,,,,,,---- -- ----- -- ------ - ------- --- ----------<br>------------- ------ ------ ---- ---- ------- close -- ----<br>-------- ------- -- ---------- --- - --- ----- ----- ----<br>---- --- --- ----- --- ---- ---- ------- ----- ---- -------<br>--- --- -- ----- -- --- ---- -- --- ---- -- ------ ------<br>--- ----- -- ----,229662.14499995112,229661.28999996,229119.785,229119.50499995146,229136.474,229669.797,,15,close
screen,html.Screen,2_1_0_1_16,2021-04-26T10:41:01.394Z,,,,,,,,,,,,,,,,,53,,,,,,,,,,,,,,396.9230000025418,,response,,,,99,,,,,,,Space,keypress(Space),,,,,,,,---- -- ----- -- ------ - ------- --- ----------<br>------------- ------ ------ ---- ---- ------- ----- to ----<br>-------- ------- -- ---------- --- - --- ----- ----- ----<br>---- --- --- ----- --- ---- ---- ------- ----- ---- -------<br>--- --- -- ----- -- --- ---- -- --- ---- -- ------ ------<br>--- ----- -- ----,230067.57499999367,230066.72000000253,229653.13,229662.4249999877,229669.797,230069.808,,16,to
screen,html.Screen,2_1_0_1_17,2021-04-26T10:41:01.814Z,,,,,,,,,,,,,,,,,53,,,,,,,,,,,,,,417.6919999301608,,response,,,,99,,,,,,,Space,keypress(Space),,,,,,,,---- -- ----- -- ------ - ------- --- ----------<br>------------- ------ ------ ---- ---- ------- ----- -- your<br>-------- ------- -- ---------- --- - --- ----- ----- ----<br>---- --- --- ----- --- ---- ---- ------- ----- ---- -------<br>--- --- -- ----- -- --- ---- -- --- ---- -- ------ ------<br>--- ----- -- ----,230488.37999999523,230487.49999993015,230053.142,230067.86499998998,230069.808,230503.153,,17,your
screen,html.Screen,2_1_0_1_18,2021-04-26T10:41:02.261Z,,,,,,,,,,,,,,,,,53,,,,,,,,,,,,,,431.12200000690063,,response,,,,99,,,,,,,Space,keypress(Space),,,,,,,,---- -- ----- -- ------ - ------- --- ----------<br>------------- ------ ------ ---- ---- ------- ----- -- ----<br>romantic ------- -- ---------- --- - --- ----- ----- ----<br>---- --- --- ----- --- ---- ---- ------- ----- ---- -------<br>--- --- -- ----- -- --- ---- -- --- ---- -- ------ ------<br>--- ----- -- ----,230935.1949999109,230934.2750000069,230486.477,230488.67999995127,230503.153,230958.133,,18,romantic
screen,html.Screen,2_1_0_1_19,2021-04-26T10:41:02.660Z,,,,,,,,,,,,,,,,,53,,,,,,,,,,,,,,374.43699996956275,,response,,,,99,,,,,,,Space,keypress(Space),,,,,,,,---- -- ----- -- ------ - ------- --- ----------<br>------------- ------ ------ ---- ---- ------- ----- -- ----<br>-------- partner -- ---------- --- - --- ----- ----- ----<br>---- --- --- ----- --- ---- ---- ------- ----- ---- -------<br>--- --- -- ----- -- --- ---- -- --- ---- -- ------ ------<br>--- ----- -- ----,231333.38999992702,231332.56999996956,230919.818,230935.47499994747,230958.133,231336.516,,19,partner
screen,html.Screen,2_1_0_1_20,2021-04-26T10:41:03.078Z,,,,,,,,,,,,,,,,,53,,,,,,,,,,,,,,414.2589999640477,,response,,,,99,,,,,,,Space,keypress(Space),,,,,,,,---- -- ----- -- ------ - ------- --- ----------<br>------------- ------ ------ ---- ---- ------- ----- -- ----<br>-------- ------- is ---------- --- - --- ----- ----- ----<br>---- --- --- ----- --- ---- ---- ------- ----- ---- -------<br>--- --- -- ----- -- --- ---- -- --- ---- -- ------ ------<br>--- ----- -- ----,231751.61999999546,231750.77499996405,231319.819,231333.66000000387,231336.516,231780.981,,20,is
screen,html.Screen,2_1_0_1_21,2021-04-26T10:41:03.960Z,,,,,,,,,,,,,,,,,53,,,,,,,,,,,,,,852.1639999706822,,response,,,,99,,,,,,,Space,keypress(Space),,,,,,,,---- -- ----- -- ------ - ------- --- ----------<br>------------- ------ ------ ---- ---- ------- ----- -- ----<br>-------- ------- -- paramount. --- - --- ----- ----- ----<br>---- --- --- ----- --- ---- ---- ------- ----- ---- -------<br>--- --- -- ----- -- --- ---- -- --- ---- -- ------ ------<br>--- ----- -- ----,232634.04499995522,232633.14499997068,231736.496,231751.89999991562,231780.981,232636.565,,21,paramount.
screen,html.Screen,2_1_0_1_22,2021-04-26T10:41:04.436Z,,,,,,,,,,,,,,,,,53,,,,,,,,,,,,,,472.15499990194803,,response,,,,99,,,,,,,Space,keypress(Space),,,,,,,,---- -- ----- -- ------ - ------- --- ----------<br>------------- ------ ------ ---- ---- ------- ----- -- ----<br>-------- ------- -- ---------- But - --- ----- ----- ----<br>---- --- --- ----- --- ---- ---- ------- ----- ---- -------<br>--- --- -- ----- -- --- ---- -- --- ---- -- ------ ------<br>--- ----- -- ----,233109.55999989528,233108.71999990195,232619.848,232634.31999995373,232636.565,233119.883,,22,But
screen,html.Screen,2_1_0_1_23,2021-04-26T10:41:04.886Z,,,,,,,,,,,,,,,,,53,,,,,,,,,,,,,,439.06699997690157,,response,,,,99,,,,,,,Space,keypress(Space),,,,,,,,---- -- ----- -- ------ - ------- --- ----------<br>------------- ------ ------ ---- ---- ------- ----- -- ----<br>-------- ------- -- ---------- --- a --- ----- ----- ----<br>---- --- --- ----- --- ---- ---- ------- ----- ---- -------<br>--- --- -- ----- -- --- ---- -- --- ---- -- ------ ------<br>--- ----- -- ----,233559.8400000017,233558.9499999769,233103.195,233109.850000008,233119.883,233569.874,,23,a
screen,html.Screen,2_1_0_1_24,2021-04-26T10:41:05.258Z,,,,,,,,,,,,,,,,,53,,,,,,,,,,,,,,360.9559999683988,,response,,,,99,,,,,,,Space,keypress(Space),,,,,,,,---- -- ----- -- ------ - ------- --- ----------<br>------------- ------ ------ ---- ---- ------- ----- -- ----<br>-------- ------- -- ---------- --- - new ----- ----- ----<br>---- --- --- ----- --- ---- ---- ------- ----- ---- -------<br>--- --- -- ----- -- --- ---- -- --- ---- -- ------ ------<br>--- ----- -- ----,233931.69499991927,233930.8299999684,233553.202,233560.12499995995,233569.874,233936.556,,24,new
screen,html.Screen,2_1_0_1_25,2021-04-26T10:41:05.689Z,,,,,,,,,,,,,,,,,53,,,,,,,,,,,,,,425.19399992362014,,response,,,,99,,,,,,,Space,keypress(Space),,,,,,,,---- -- ----- -- ------ - ------- --- ----------<br>------------- ------ ------ ---- ---- ------- ----- -- ----<br>-------- ------- -- ---------- --- - --- study ----- ----<br>---- --- --- ----- --- ---- ---- ------- ----- ---- -------<br>--- --- -- ----- -- --- ---- -- --- ---- -- ------ ------<br>--- ----- -- ----,234362.60999995284,234361.74999992363,233919.88,233931.96499999613,233936.556,234369.881,,25,study
screen,html.Screen,2_1_0_1_26,2021-04-26T10:41:06.102Z,,,,,,,,,,,,,,,,,53,,,,,,,,,,,,,,404.6989999684156,,response,,,,99,,,,,,,Space,keypress(Space),,,,,,,,---- -- ----- -- ------ - ------- --- ----------<br>------------- ------ ------ ---- ---- ------- ----- -- ----<br>-------- ------- -- ---------- --- - --- ----- finds ----<br>---- --- --- ----- --- ---- ---- ------- ----- ---- -------<br>--- --- -- ----- -- --- ---- -- --- ---- -- ------ ------<br>--- ----- -- ----,234775.50999994855,234774.5799999684,234353.223,234362.88499995135,234369.881,234786.566,,26,finds
screen,html.Screen,2_1_0_1_27,2021-04-26T10:41:06.585Z,,,,,,,,,,,,,,,,,53,,,,,,,,,,,,,,471.0339998953277,,response,,,,99,,,,,,,Space,keypress(Space),,,,,,,,---- -- ----- -- ------ - ------- --- ----------<br>------------- ------ ------ ---- ---- ------- ----- -- ----<br>-------- ------- -- ---------- --- - --- ----- ----- that<br>---- --- --- ----- --- ---- ---- ------- ----- ---- -------<br>--- --- -- ----- -- --- ---- -- --- ---- -- ------ ------<br>--- ----- -- ----,235258.44499992672,235257.59999989532,234769.897,234775.80499998294,234786.566,235269.915,,27,that
screen,html.Screen,2_1_0_1_28,2021-04-26T10:41:08.777Z,,,,,,,,,,,,,,,,,53,,,,,,,,,,,,,,2180.3949999856122,,response,,,,99,,,,,,,Space,keypress(Space),,,,,,,,---- -- ----- -- ------ - ------- --- ----------<br>------------- ------ ------ ---- ---- ------- ----- -- ----<br>-------- ------- -- ---------- --- - --- ----- ----- ----<br>it's --- --- ----- --- ---- ---- ------- ----- ---- -------<br>--- --- -- ----- -- --- ---- -- --- ---- -- ------ ------<br>--- ----- -- ----,237451.14999997895,237450.30999998562,235253.23,235258.7249999633,235269.915,237453.285,,28,it's
screen,html.Screen,2_1_0_1_29,2021-04-26T10:41:09.269Z,,,,,,,,,,,,,,,,,53,,,,,,,,,,,,,,488.49999991539516,,response,,,,99,,,,,,,Space,keypress(Space),,,,,,,,---- -- ----- -- ------ - ------- --- ----------<br>------------- ------ ------ ---- ---- ------- ----- -- ----<br>-------- ------- -- ---------- --- - --- ----- ----- ----<br>---- not --- ----- --- ---- ---- ------- ----- ---- -------<br>--- --- -- ----- -- --- ---- -- --- ---- -- ------ ------<br>--- ----- -- ----,237942.6749999402,237941.7849999154,237436.614,237451.42999989912,237453.285,237953.296,,29,not
screen,html.Screen,2_1_0_1_30,2021-04-26T10:41:09.673Z,,,,,,,,,,,,,,,,,53,,,,,,,,,,,,,,392.55899996319204,,response,,,,99,,,,,,,Space,keypress(Space),,,,,,,,---- -- ----- -- ------ - ------- --- ----------<br>------------- ------ ------ ---- ---- ------- ----- -- ----<br>-------- ------- -- ---------- --- - --- ----- ----- ----<br>---- --- how ----- --- ---- ---- ------- ----- ---- -------<br>--- --- -- ----- -- --- ---- -- --- ---- -- ------ ------<br>--- ----- -- ----,238346.70999995433,238345.8549999632,237936.621,237942.9849999724,237953.296,238353.318,,30,how
screen,html.Screen,2_1_0_1_31,2021-04-26T10:41:10.049Z,,,,,,,,,,,,,,,,,53,,,,,,,,,,,,,,369.16199999672244,,response,,,,99,,,,,,,Space,keypress(Space),,,,,,,,---- -- ----- -- ------ - ------- --- ----------<br>------------- ------ ------ ---- ---- ------- ----- -- ----<br>-------- ------- -- ---------- --- - --- ----- ----- ----<br>---- --- --- close --- ---- ---- ------- ----- ---- -------<br>--- --- -- ----- -- --- ---- -- --- ---- -- ------ ------<br>--- ----- -- ----,238723.36499998346,238722.47999999672,238336.637,238346.97999991477,238353.318,238736.642,,31,close
screen,html.Screen,2_1_0_1_32,2021-04-26T10:41:10.437Z,,,,,,,,,,,,,,,,,53,,,,,,,,,,,,,,373.8929999852553,,response,,,,99,,,,,,,Space,keypress(Space),,,,,,,,---- -- ----- -- ------ - ------- --- ----------<br>------------- ------ ------ ---- ---- ------- ----- -- ----<br>-------- ------- -- ---------- --- - --- ----- ----- ----<br>---- --- --- ----- you ---- ---- ------- ----- ---- -------<br>--- --- -- ----- -- --- ---- -- --- ---- -- ------ ------<br>--- ----- -- ----,239111.36499990243,239110.53499998525,238719.969,238723.63999998197,238736.642,239119.984,,32,you
screen,html.Screen,2_1_0_1_33,2021-04-26T10:41:11.025Z,,,,,,,,,,,,,,,,,53,,,,,,,,,,,,,,577.8409999228898,,response,,,,99,,,,,,,Space,keypress(Space),,,,,,,,---- -- ----- -- ------ - ------- --- ----------<br>------------- ------ ------ ---- ---- ------- ----- -- ----<br>-------- ------- -- ---------- --- - --- ----- ----- ----<br>---- --- --- ----- --- feel ---- ------- ----- ---- -------<br>--- --- -- ----- -- --- ---- -- --- ---- -- ------ ------<br>--- ----- -- ----,239698.65999999456,239697.8249999229,239103.315,239111.64499993902,239119.984,239703.335,,33,feel
screen,html.Screen,2_1_0_1_34,2021-04-26T10:41:11.414Z,,,,,,,,,,,,,,,,,53,,,,,,,,,,,,,,383.63999998380314,,response,,,,99,,,,,,,Space,keypress(Space),,,,,,,,---- -- ----- -- ------ - ------- --- ----------<br>------------- ------ ------ ---- ---- ------- ----- -- ----<br>-------- ------- -- ---------- --- - --- ----- ----- ----<br>---- --- --- ----- --- ---- that ------- ----- ---- -------<br>--- --- -- ----- -- --- ---- -- --- ---- -- ------ ------<br>--- ----- -- ----,240088.12999993097,240086.9749999838,239686.66,239698.93999991473,239703.335,240103.342,,34,that
screen,html.Screen,2_1_0_1_35,2021-04-26T10:41:11.884Z,,,,,,,,,,,,,,,,,53,,,,,,,,,,,,,,453.8929999565589,,response,,,,99,,,,,,,Space,keypress(Space),,,,,,,,---- -- ----- -- ------ - ------- --- ----------<br>------------- ------ ------ ---- ---- ------- ----- -- ----<br>-------- ------- -- ---------- --- - --- ----- ----- ----<br>---- --- --- ----- --- ---- ---- matters ----- ---- -------<br>--- --- -- ----- -- --- ---- -- --- ---- -- ------ ------<br>--- ----- -- ----,240558.09499998577,240557.23499995656,240086.672,240088.40000000782,240103.342,240570.047,,35,matters
screen,html.Screen,2_1_0_1_36,2021-04-26T10:41:12.312Z,,,,,,,,,,,,,,,,,53,,,,,,,,,,,,,,415.25299994208035,,response,,,,99,,,,,,,Space,keypress(Space),,,,,,,,"---- -- ----- -- ------ - ------- --- ----------<br>------------- ------ ------ ---- ---- ------- ----- -- ----<br>-------- ------- -- ---------- --- - --- ----- ----- ----<br>---- --- --- ----- --- ---- ---- ------- most, ---- -------<br>--- --- -- ----- -- --- ---- -- --- ---- -- ------ ------<br>--- ----- -- ----",240986.13499989733,240985.29999994207,240553.343,240559.44999994244,240570.047,241003.367,,36,"most,"
screen,html.Screen,2_1_0_1_37,2021-04-26T10:41:12.792Z,,,,,,,,,,,,,,,,,53,,,,,,,,,,,,,,462.1229999732168,,response,,,,99,,,,,,,Space,keypress(Space),,,,,,,,---- -- ----- -- ------ - ------- --- ----------<br>------------- ------ ------ ---- ---- ------- ----- -- ----<br>-------- ------- -- ---------- --- - --- ----- ----- ----<br>---- --- --- ----- --- ---- ---- ------- ----- it's -------<br>--- --- -- ----- -- --- ---- -- --- ---- -- ------ ------<br>--- ----- -- ----,241466.33500000462,241465.48999997322,240986.683,240986.39499989804,241003.367,241470.04,,37,it's
screen,html.Screen,2_1_0_1_38,2021-04-26T10:41:13.257Z,,,,,,,,,,,,,,,,,53,,,,,,,,,,,,,,459.9899999304034,,response,,,,99,,,,,,,Space,keypress(Space),,,,,,,,---- -- ----- -- ------ - ------- --- ----------<br>------------- ------ ------ ---- ---- ------- ----- -- ----<br>-------- ------- -- ---------- --- - --- ----- ----- ----<br>---- --- --- ----- --- ---- ---- ------- ----- ---- whether<br>--- --- -- ----- -- --- ---- -- --- ---- -- ------ ------<br>--- ----- -- ----,241930.89999991935,241930.0299999304,241453.357,241466.59999992698,241470.04,241936.725,,38,whether
screen,html.Screen,2_1_0_1_39,2021-04-26T10:41:13.675Z,,,,,,,,,,,,,,,,,53,,,,,,,,,,,,,,411.5149999629648,,response,,,,99,,,,,,,Space,keypress(Space),,,,,,,,---- -- ----- -- ------ - ------- --- ----------<br>------------- ------ ------ ---- ---- ------- ----- -- ----<br>-------- ------- -- ---------- --- - --- ----- ----- ----<br>---- --- --- ----- --- ---- ---- ------- ----- ---- -------<br>you --- -- ----- -- --- ---- -- --- ---- -- ------ ------<br>--- ----- -- ----,242349.1099999519,242348.23999996297,241920.034,241931.1699999962,241936.725,242353.388,,39,you
screen,html.Screen,2_1_0_1_40,2021-04-26T10:41:14.012Z,,,,,,,,,,,,,,,,,53,,,,,,,,,,,,,,331.72700000021723,,response,,,,99,,,,,,,Space,keypress(Space),,,,,,,,---- -- ----- -- ------ - ------- --- ----------<br>------------- ------ ------ ---- ---- ------- ----- -- ----<br>-------- ------- -- ---------- --- - --- ----- ----- ----<br>---- --- --- ----- --- ---- ---- ------- ----- ---- -------<br>--- are -- ----- -- --- ---- -- --- ---- -- ------ ------<br>--- ----- -- ----,242685.94999995548,242685.11500000022,242336.715,242349.38499995042,242353.388,242720.056,,40,are
screen,html.Screen,2_1_0_1_41,2021-04-26T10:41:14.401Z,,,,,,,,,,,,,,,,,53,,,,,,,,,,,,,,353.8239999235084,,response,,,,99,,,,,,,Space,keypress(Space),,,,,,,,---- -- ----- -- ------ - ------- --- ----------<br>------------- ------ ------ ---- ---- ------- ----- -- ----<br>-------- ------- -- ---------- --- - --- ----- ----- ----<br>---- --- --- ----- --- ---- ---- ------- ----- ---- -------<br>--- --- as ----- -- --- ---- -- --- ---- -- ------ ------<br>--- ----- -- ----,243074.73499991465,243073.87999992352,242703.395,242686.20499991812,242720.056,243086.727,,41,as
screen,html.Screen,2_1_0_1_42,2021-04-26T10:41:14.801Z,,,,,,,,,,,,,,,,,53,,,,,,,,,,,,,,387.26299996947637,,response,,,,99,,,,,,,Space,keypress(Space),,,,,,,,---- -- ----- -- ------ - ------- --- ----------<br>------------- ------ ------ ---- ---- ------- ----- -- ----<br>-------- ------- -- ---------- --- - --- ----- ----- ----<br>---- --- --- ----- --- ---- ---- ------- ----- ---- -------<br>--- --- -- close -- --- ---- -- --- ---- -- ------ ------<br>--- ----- -- ----,243474.8649999965,243473.9899999695,243070.057,243074.98499995563,243086.727,243486.735,,42,close
screen,html.Screen,2_1_0_1_43,2021-04-26T10:41:15.243Z,,,,,,,,,,,,,,,,,53,,,,,,,,,,,,,,429.70499994268175,,response,,,,99,,,,,,,Space,keypress(Space),,,,,,,,---- -- ----- -- ------ - ------- --- ----------<br>------------- ------ ------ ---- ---- ------- ----- -- ----<br>-------- ------- -- ---------- --- - --- ----- ----- ----<br>---- --- --- ----- --- ---- ---- ------- ----- ---- -------<br>--- --- -- ----- as --- ---- -- --- ---- -- ------ ------<br>--- ----- -- ----,243917.31499996968,243916.43999994267,243470.063,243475.11999995913,243486.735,243920.093,,43,as
screen,html.Screen,2_1_0_1_44,2021-04-26T10:41:15.629Z,,,,,,,,,,,,,,,,,53,,,,,,,,,,,,,,381.6969999395078,,response,,,,99,,,,,,,Space,keypress(Space),,,,,,,,---- -- ----- -- ------ - ------- --- ----------<br>------------- ------ ------ ---- ---- ------- ----- -- ----<br>-------- ------- -- ---------- --- - --- ----- ----- ----<br>---- --- --- ----- --- ---- ---- ------- ----- ---- -------<br>--- --- -- ----- -- you ---- -- --- ---- -- ------ ------<br>--- ----- -- ----,244302.60999989696,244301.7899999395,243903.413,243917.5699999323,243920.093,244336.751,,44,you
screen,html.Screen,2_1_0_1_45,2021-04-26T10:41:16.158Z,,,,,,,,,,,,,,,,,53,,,,,,,,,,,,,,492.01399998384295,,response,,,,99,,,,,,,Space,keypress(Space),,,,,,,,---- -- ----- -- ------ - ------- --- ----------<br>------------- ------ ------ ---- ---- ------- ----- -- ----<br>-------- ------- -- ---------- --- - --- ----- ----- ----<br>---- --- --- ----- --- ---- ---- ------- ----- ---- -------<br>--- --- -- ----- -- --- want -- --- ---- -- ------ ------<br>--- ----- -- ----,244832.22999994177,244828.76499998383,244323.342,244302.864999976,244336.751,244836.774,,45,want
screen,html.Screen,2_1_0_1_46,2021-04-26T10:41:16.590Z,,,,,,,,,,,,,,,,,53,,,,,,,,,,,,,,426.2709999123763,,response,,,,99,,,,,,,Space,keypress(Space),,,,,,,,---- -- ----- -- ------ - ------- --- ----------<br>------------- ------ ------ ---- ---- ------- ----- -- ----<br>-------- ------- -- ---------- --- - --- ----- ----- ----<br>---- --- --- ----- --- ---- ---- ------- ----- ---- -------<br>--- --- -- ----- -- --- ---- to --- ---- -- ------ ------<br>--- ----- -- ----,245264.2549999291,245263.04499991238,244820.1,244832.52499997616,244836.774,245270.109,,46,to
screen,html.Screen,2_1_0_1_47,2021-04-26T10:41:17.056Z,,,,,,,,,,,,,,,,,53,,,,,,,,,,,,,,459.2109999257955,,response,,,,99,,,,,,,Space,keypress(Space),,,,,,,,"---- -- ----- -- ------ - ------- --- ----------<br>------------- ------ ------ ---- ---- ------- ----- -- ----<br>-------- ------- -- ---------- --- - --- ----- ----- ----<br>---- --- --- ----- --- ---- ---- ------- ----- ---- -------<br>--- --- -- ----- -- --- ---- -- be, ---- -- ------ ------<br>--- ----- -- ----",245730.18999991473,245729.3199999258,245253.429,245264.49499989394,245270.109,245736.787,,47,"be,"
screen,html.Screen,2_1_0_1_48,2021-04-26T10:41:17.564Z,,,,,,,,,,,,,,,,,53,,,,,,,,,,,,,,500.2479999982752,,response,,,,99,,,,,,,Space,keypress(Space),,,,,,,,---- -- ----- -- ------ - ------- --- ----------<br>------------- ------ ------ ---- ---- ------- ----- -- ----<br>-------- ------- -- ---------- --- - --- ----- ----- ----<br>---- --- --- ----- --- ---- ---- ------- ----- ---- -------<br>--- --- -- ----- -- --- ---- -- --- even -- ------ ------<br>--- ----- -- ----,246237.84999991767,246237.0349999983,245720.112,245730.42999999598,245736.787,246253.46,,48,even
screen,html.Screen,2_1_0_1_49,2021-04-26T10:41:17.943Z,,,,,,,,,,,,,,,,,53,,,,,,,,,,,,,,362.7049998975999,,response,,,,99,,,,,,,Space,keypress(Space),,,,,,,,---- -- ----- -- ------ - ------- --- ----------<br>------------- ------ ------ ---- ---- ------- ----- -- ----<br>-------- ------- -- ---------- --- - --- ----- ----- ----<br>---- --- --- ----- --- ---- ---- ------- ----- ---- -------<br>--- --- -- ----- -- --- ---- -- --- ---- if ------ ------<br>--- ----- -- ----,246617.0249999268,246616.1649998976,246236.784,246238.09499992058,246253.46,246620.148,,49,if
screen,html.Screen,2_1_0_1_50,2021-04-26T10:41:18.341Z,,,,,,,,,,,,,,,,,53,,,,,,,,,,,,,,393.44699990941444,,response,,,,99,,,,,,,Space,keypress(Space),,,,,,,,---- -- ----- -- ------ - ------- --- ----------<br>------------- ------ ------ ---- ---- ------- ----- -- ----<br>-------- ------- -- ---------- --- - --- ----- ----- ----<br>---- --- --- ----- --- ---- ---- ------- ----- ---- -------<br>--- --- -- ----- -- --- ---- -- --- ---- -- that's ------<br>--- ----- -- ----,247014.42999998108,247013.5949999094,246603.462,246617.26500000805,246620.148,247020.143,,50,that's
screen,html.Screen,2_1_0_1_51,2021-04-26T10:41:18.808Z,,,,,,,,,,,,,,,,,53,,,,,,,,,,,,,,460.7620000039751,,response,,,,99,,,,,,,Space,keypress(Space),,,,,,,,---- -- ----- -- ------ - ------- --- ----------<br>------------- ------ ------ ---- ---- ------- ----- -- ----<br>-------- ------- -- ---------- --- - --- ----- ----- ----<br>---- --- --- ----- --- ---- ---- ------- ----- ---- -------<br>--- --- -- ----- -- --- ---- -- --- ---- -- ------ really<br>--- ----- -- ----,247481.79999995045,247480.905000004,247003.466,247014.6699999459,247020.143,247486.819,,51,really
screen,html.Screen,2_1_0_1_52,2021-04-26T10:41:19.225Z,,,,,,,,,,,,,,,,,53,,,,,,,,,,,,,,411.08599990341463,,response,,,,99,,,,,,,Space,keypress(Space),,,,,,,,---- -- ----- -- ------ - ------- --- ----------<br>------------- ------ ------ ---- ---- ------- ----- -- ----<br>-------- ------- -- ---------- --- - --- ----- ----- ----<br>---- --- --- ----- --- ---- ---- ------- ----- ---- -------<br>--- --- -- ----- -- --- ---- -- --- ---- -- ------ ------<br>not ----- -- ----,247898.75999989454,247897.9049999034,247470.142,247482.0399999153,247486.819,247903.489,,52,not
screen,html.Screen,2_1_0_1_53,2021-04-26T10:41:19.686Z,,,,,,,,,,,,,,,,,53,,,,,,,,,,,,,,455.08599996200064,,response,,,,99,,,,,,,Space,keypress(Space),,,,,,,,---- -- ----- -- ------ - ------- --- ----------<br>------------- ------ ------ ---- ---- ------- ----- -- ----<br>-------- ------- -- ---------- --- - --- ----- ----- ----<br>---- --- --- ----- --- ---- ---- ------- ----- ---- -------<br>--- --- -- ----- -- --- ---- -- --- ---- -- ------ ------<br>--- close -- ----,248359.40999991726,248358.574999962,247886.816,247898.9949999377,247903.489,248370.168,,53,close
screen,html.Screen,2_1_0_1_54,2021-04-26T10:41:20.128Z,,,,,,,,,,,,,,,,,53,,,,,,,,,,,,,,431.15199996955926,,response,,,,99,,,,,,,Space,keypress(Space),,,,,,,,---- -- ----- -- ------ - ------- --- ----------<br>------------- ------ ------ ---- ---- ------- ----- -- ----<br>-------- ------- -- ---------- --- - --- ----- ----- ----<br>---- --- --- ----- --- ---- ---- ------- ----- ---- -------<br>--- --- -- ----- -- --- ---- -- --- ---- -- ------ ------<br>--- ----- at ----,248802.2499999497,248801.31999996956,248353.488,248359.6499999985,248370.168,248822.895,,54,at
screen,html.Screen,2_1_0_1_55,2021-04-26T10:41:20.978Z,,,,,,,,,,,,,,,,,53,,,,,,,,,,,,,,828.2950000041455,,response,,,,99,,,,,,,Space,keypress(Space),,,,,,,,---- -- ----- -- ------ - ------- --- ----------<br>------------- ------ ------ ---- ---- ------- ----- -- ----<br>-------- ------- -- ---------- --- - --- ----- ----- ----<br>---- --- --- ----- --- ---- ---- ------- ----- ---- -------<br>--- --- -- ----- -- --- ---- -- --- ---- -- ------ ------<br>--- ----- -- all.,249652.03499991912,249651.19000000414,248786.838,248802.50499991234,248822.895,249686.857,,55,all.
Item 99,flow.Loop,2_1_0_1,2021-04-26T10:41:20.979Z,,,,,,,,,,,,,,,,,,,,,,,,,,,,,,,27981.525000004127,,completion,,,,,A,,,,,,,,,,,silence,,,,,249652.52000000328,249651.19000000414,221652.977,221653.9899999043,221669.665,249686.857,,,
Question 1,html.Screen,2_1_0_2,2021-04-26T10:41:25.360Z,,,,,,,,,,,,,,,,,,,,,,,,,,,,true,FALSE,,4345.732999958884,,response,,,,99,A,,,,,,FALSE,click #choice-2,,,,silence,,,,,254033.97999994922,254032.58999995887,249670.195,249652.7749999659,249686.857,254036.965,,,
Question 2,html.Screen,2_1_0_3,2021-04-26T10:41:29.500Z,,,,,,,,,,,,,,,,,,,,,,,,,,,,true,TRUE,,4135.564999981638,,response,,,,99,A,,,,,,TRUE,click #choice-1,,,,silence,,,,,258173.75999991782,258172.52999998163,254020.262,254034.2599999858,254036.965,258187.046,,,
Item 99,flow.Sequence,2_1_0,2021-04-26T10:41:29.500Z,,,,,,,,,,,,,,,,,,,,,,,,,,,,,,,46503.07399998163,,completion,,,,,,,,,,,,,,,,,,,,,258174.14499993902,258172.52999998163,211652.78,211655.87499993853,211669.456,258187.046,,,
Holding screen,html.Screen,2_1_1_0,2021-04-26T10:41:39.497Z,,,,,,,,,,,,,,,,,,,,,,,,,,,,,,,10000.218000000023,,timeout,,,,,,,,,,,,,,,,,,,,,268171.32999992464,268170.559,258170.356,258174.46499993093,258187.046,268187.264,,,
screen,html.Screen,2_1_1_1_0,2021-04-26T10:41:41.041Z,,,,,,,,,,,,,,,,,54,,,,,,,,,,,,,,1526.9259999696515,,response,,,,100,,,,,,,Space,keypress(Space),,,,,,,,At --- ---- --- ------ ----- ------- ---- -- --- ------- --<br>------- ---------- ------ -- ----- -- ----- -- ---- ------<br>--- ----- --- --- ------ -------- ----- --- ------ ----- --<br>----- ----- ---------- --- --- ------ ------ ---- -- ------<br>------- --- ------ ----- --- ---- ------- -- ---- --- --<br>------- ------,269715.25499993004,269714.1899999697,268170.559,268171.6699999524,268187.264,269720.604,,0,At
screen,html.Screen,2_1_1_1_1,2021-04-26T10:41:41.349Z,,,,,,,,,,,,,,,,,54,,,,,,,,,,,,,,301.785999940068,,response,,,,100,,,,,,,Space,keypress(Space),,,,,,,,-- the ---- --- ------ ----- ------- ---- -- --- ------- --<br>------- ---------- ------ -- ----- -- ----- -- ---- ------<br>--- ----- --- --- ------ -------- ----- --- ------ ----- --<br>----- ----- ---------- --- --- ------ ------ ---- -- ------<br>------- --- ------ ----- --- ---- ------- -- ---- --- --<br>------- ------,270023.1949998997,270022.38999994006,269703.904,269715.5250000069,269720.604,270037.259,,1,the
screen,html.Screen,2_1_1_1_2,2021-04-26T10:41:41.550Z,,,,,,,,,,,,,,,,,54,,,,,,,,,,,,,,185.81599998712773,,response,,,,100,,,,,,,Space,keypress(Space),,,,,,,,-- --- time --- ------ ----- ------- ---- -- --- ------- --<br>------- ---------- ------ -- ----- -- ----- -- ---- ------<br>--- ----- --- --- ------ -------- ----- --- ------ ----- --<br>----- ----- ---------- --- --- ------ ------ ---- -- ------<br>------- --- ------ ----- --- ---- ------- -- ---- --- --<br>------- ------,270223.864999949,270223.07499998715,270020.59,270023.44999997877,270037.259,270237.255,,2,time
screen,html.Screen,2_1_1_1_3,2021-04-26T10:41:41.935Z,,,,,,,,,,,,,,,,,54,,,,,,,,,,,,,,370.25500000163447,,response,,,,100,,,,,,,Space,keypress(Space),,,,,,,,-- --- ---- the ------ ----- ------- ---- -- --- ------- --<br>------- ---------- ------ -- ----- -- ----- -- ---- ------<br>--- ----- --- --- ------ -------- ----- --- ------ ----- --<br>----- ----- ---------- --- --- ------ ------ ---- -- ------<br>------- --- ------ ----- --- ---- ------- -- ---- --- --<br>------- ------,270608.34999999497,270607.51000000164,270220.581,270224.0999999922,270237.255,270620.629,,3,the
screen,html.Screen,2_1_1_1_4,2021-04-26T10:41:42.253Z,,,,,,,,,,,,,,,,,54,,,,,,,,,,,,,,305.48599992197705,,response,,,,100,,,,,,,Space,keypress(Space),,,,,,,,-- --- ---- --- French ----- ------- ---- -- --- ------- --<br>------- ---------- ------ -- ----- -- ----- -- ---- ------<br>--- ----- --- --- ------ -------- ----- --- ------ ----- --<br>----- ----- ---------- --- --- ------ ------ ---- -- ------<br>------- --- ------ ----- --- ---- ------- -- ---- --- --<br>------- ------,270926.9549999153,270926.114999922,270603.935,270608.6199999554,270620.629,270937.291,,4,French
screen,html.Screen,2_1_1_1_5,2021-04-26T10:41:42.564Z,,,,,,,,,,,,,,,,,54,,,,,,,,,,,,,,300.08899994770763,,response,,,,100,,,,,,,Space,keypress(Space),,,,,,,,-- --- ---- --- ------ crown ------- ---- -- --- ------- --<br>------- ---------- ------ -- ----- -- ----- -- ---- ------<br>--- ----- --- --- ------ -------- ----- --- ------ ----- --<br>----- ----- ---------- --- --- ------ ------ ---- -- ------<br>------- --- ------ ----- --- ---- ------- -- ---- --- --<br>------- ------,271238.21999994107,271237.37999994773,270920.612,270927.1949999966,270937.291,271253.95,,5,crown
screen,html.Screen,2_1_1_1_6,2021-04-26T10:41:42.929Z,,,,,,,,,,,,,,,,,54,,,,,,,,,,,,,,347.60499994287966,,response,,,,100,,,,,,,Space,keypress(Space),,,,,,,,-- --- ---- --- ------ ----- secured ---- -- --- ------- --<br>------- ---------- ------ -- ----- -- ----- -- ---- ------<br>--- ----- --- --- ------ -------- ----- --- ------ ----- --<br>----- ----- ---------- --- --- ------ ------ ---- -- ------<br>------- --- ------ ----- --- ---- ------- -- ---- --- --<br>------- ------,271602.41999989375,271601.5549999429,271237.267,271238.4749999037,271253.95,271628.326,,6,secured
screen,html.Screen,2_1_1_1_7,2021-04-26T10:41:43.311Z,,,,,,,,,,,,,,,,,54,,,,,,,,,,,,,,355.4990000029793,,response,,,,100,,,,,,,Space,keypress(Space),,,,,,,,-- --- ---- --- ------ ----- ------- much -- --- ------- --<br>------- ---------- ------ -- ----- -- ----- -- ---- ------<br>--- ----- --- --- ------ -------- ----- --- ------ ----- --<br>----- ----- ---------- --- --- ------ ------ ---- -- ------<br>------- --- ------ ----- --- ---- ------- -- ---- --- --<br>------- ------,271984.6350000007,271983.825000003,271587.284,271602.659999975,271628.326,271987.309,,7,much
screen,html.Screen,2_1_1_1_8,2021-04-26T10:41:43.714Z,,,,,,,,,,,,,,,,,54,,,,,,,,,,,,,,399.2059999037301,,response,,,,100,,,,,,,Space,keypress(Space),,,,,,,,-- --- ---- --- ------ ----- ------- ---- of --- ------- --<br>------- ---------- ------ -- ----- -- ----- -- ---- ------<br>--- ----- --- --- ------ -------- ----- --- ------ ----- --<br>----- ----- ---------- --- --- ------ ------ ---- -- ------<br>------- --- ------ ----- --- ---- ------- -- ---- --- --<br>------- ------,272387.3649999732,272386.51499990374,271970.615,271984.87499996554,271987.309,272403.971,,8,of
screen,html.Screen,2_1_1_1_9,2021-04-26T10:41:44.076Z,,,,,,,,,,,,,,,,,54,,,,,,,,,,,,,,344.71399999863934,,response,,,,100,,,,,,,Space,keypress(Space),,,,,,,,-- --- ---- --- ------ ----- ------- ---- -- its ------- --<br>------- ---------- ------ -- ----- -- ----- -- ---- ------<br>--- ----- --- --- ------ -------- ----- --- ------ ----- --<br>----- ----- ---------- --- --- ------ ------ ---- -- ------<br>------- --- ------ ----- --- ---- ------- -- ---- --- --<br>------- ------,272749.51499991585,272748.68499999866,272387.299,272387.6099999761,272403.971,272753.977,,9,its
screen,html.Screen,2_1_1_1_10,2021-04-26T10:41:45.022Z,,,,,,,,,,,,,,,,,54,,,,,,,,,,,,,,941.4130000080331,,response,,,,100,,,,,,,Space,keypress(Space),,,,,,,,-- --- ---- --- ------ ----- ------- ---- -- --- revenue --<br>------- ---------- ------ -- ----- -- ----- -- ---- ------<br>--- ----- --- --- ------ -------- ----- --- ------ ----- --<br>----- ----- ---------- --- --- ------ ------ ---- -- ------<br>------- --- ------ ----- --- ---- ------- -- ---- --- --<br>------- ------,273696.2300000014,273695.39000000805,272737.304,272749.7649999568,272753.977,273703.987,,10,revenue
screen,html.Screen,2_1_1_1_11,2021-04-26T10:41:45.437Z,,,,,,,,,,,,,,,,,54,,,,,,,,,,,,,,406.08799997501774,,response,,,,100,,,,,,,Space,keypress(Space),,,,,,,,-- --- ---- --- ------ ----- ------- ---- -- --- ------- by<br>------- ---------- ------ -- ----- -- ----- -- ---- ------<br>--- ----- --- --- ------ -------- ----- --- ------ ----- --<br>----- ----- ---------- --- --- ------ ------ ---- -- ------<br>------- --- ------ ----- --- ---- ------- -- ---- --- --<br>------- ------,274110.9099999303,274110.07499997504,273687.328,273696.47999992594,273703.987,274120.669,,11,by
screen,html.Screen,2_1_1_1_12,2021-04-26T10:41:45.925Z,,,,,,,,,,,,,,,,,54,,,,,,,,,,,,,,476.92099990299903,,response,,,,100,,,,,,,Space,keypress(Space),,,,,,,,-- --- ---- --- ------ ----- ------- ---- -- --- ------- --<br>issuing ---------- ------ -- ----- -- ----- -- ---- ------<br>--- ----- --- --- ------ -------- ----- --- ------ ----- --<br>----- ----- ---------- --- --- ------ ------ ---- -- ------<br>------- --- ------ ----- --- ---- ------- -- ---- --- --<br>------- ------,274598.40999997687,274597.589999903,274103.996,274111.1549999332,274120.669,274604.018,,12,issuing
screen,html.Screen,2_1_1_1_13,2021-04-26T10:41:46.525Z,,,,,,,,,,,,,,,,,54,,,,,,,,,,,,,,594.0669999236125,,response,,,,100,,,,,,,Space,keypress(Space),,,,,,,,-- --- ---- --- ------ ----- ------- ---- -- --- ------- --<br>------- government ------ -- ----- -- ----- -- ---- ------<br>--- ----- --- --- ------ -------- ----- --- ------ ----- --<br>----- ----- ---------- --- --- ------ ------ ---- -- ------<br>------- --- ------ ----- --- ---- ------- -- ---- --- --<br>------- ------,275199.0099999821,275198.0849999236,274587.337,274598.6549999798,274604.018,275204.026,,13,government
screen,html.Screen,2_1_1_1_14,2021-04-26T10:41:48.889Z,,,,,,,,,,,,,,,,,54,,,,,,,,,,,,,,2357.8839999312186,,response,,,,100,,,,,,,Space,keypress(Space),,,,,,,,-- --- ---- --- ------ ----- ------- ---- -- --- ------- --<br>------- ---------- bonds. -- ----- -- ----- -- ---- ------<br>--- ----- --- --- ------ -------- ----- --- ------ ----- --<br>----- ----- ---------- --- --- ------ ------ ---- -- ------<br>------- --- ------ ----- --- ---- ------- -- ---- --- --<br>------- ------,277562.71999992896,277561.90999993123,275187.347,275199.2649999447,275204.026,277570.74,,14,bonds.
screen,html.Screen,2_1_1_1_15,2021-04-26T10:41:49.277Z,,,,,,,,,,,,,,,,,54,,,,,,,,,,,,,,379.3849999739323,,response,,,,100,,,,,,,Space,keypress(Space),,,,,,,,-- --- ---- --- ------ ----- ------- ---- -- --- ------- --<br>------- ---------- ------ In ----- -- ----- -- ---- ------<br>--- ----- --- --- ------ -------- ----- --- ------ ----- --<br>----- ----- ---------- --- --- ------ ------ ---- -- ------<br>------- --- ------ ----- --- ---- ------- -- ---- --- --<br>------- ------,277950.9599999292,277950.1249999739,277554.06,277562.96999996994,277570.74,277954.074,,15,In
screen,html.Screen,2_1_1_1_16,2021-04-26T10:41:50.480Z,,,,,,,,,,,,,,,,,54,,,,,,,,,,,,,,1199.3009999943897,,response,,,,100,,,,,,,Space,keypress(Space),,,,,,,,"-- --- ---- --- ------ ----- ------- ---- -- --- ------- --<br>------- ---------- ------ -- 1727, -- ----- -- ---- ------<br>--- ----- --- --- ------ -------- ----- --- ------ ----- --<br>----- ----- ---------- --- --- ------ ------ ---- -- ------<br>------- --- ------ ----- --- ---- ------- -- ---- --- --<br>------- ------",279154.2199999094,279153.3749999944,277937.4,277951.199999894,277954.074,279170.806,,16,"1727,"
screen,html.Screen,2_1_1_1_17,2021-04-26T10:41:50.897Z,,,,,,,,,,,,,,,,,54,,,,,,,,,,,,,,399.5739999319194,,response,,,,100,,,,,,,Space,keypress(Space),,,,,,,,-- --- ---- --- ------ ----- ------- ---- -- --- ------- --<br>------- ---------- ------ -- ----- in ----- -- ---- ------<br>--- ----- --- --- ------ -------- ----- --- ------ ----- --<br>----- ----- ---------- --- --- ------ ------ ---- -- ------<br>------- --- ------ ----- --- ---- ------- -- ---- --- --<br>------- ------,279571.2000000058,279570.3799999319,279154.097,279154.4649999123,279170.806,279587.44,,17,in
screen,html.Screen,2_1_1_1_18,2021-04-26T10:41:51.329Z,,,,,,,,,,,,,,,,,54,,,,,,,,,,,,,,415.0649999821908,,response,,,,100,,,,,,,Space,keypress(Space),,,,,,,,-- --- ---- --- ------ ----- ------- ---- -- --- ------- --<br>------- ---------- ------ -- ----- -- order -- ---- ------<br>--- ----- --- --- ------ -------- ----- --- ------ ----- --<br>----- ----- ---------- --- --- ------ ------ ---- -- ------<br>------- --- ------ ----- --- ---- ------- -- ---- --- --<br>------- ------,280003.3199999016,280002.5049999822,279570.773,279571.4399999706,279587.44,280029.078,,18,order
screen,html.Screen,2_1_1_1_19,2021-04-26T10:41:51.682Z,,,,,,,,,,,,,,,,,54,,,,,,,,,,,,,,326.2819999286439,,response,,,,100,,,,,,,Space,keypress(Space),,,,,,,,-- --- ---- --- ------ ----- ------- ---- -- --- ------- --<br>------- ---------- ------ -- ----- -- ----- to ---- ------<br>--- ----- --- --- ------ -------- ----- --- ------ ----- --<br>----- ----- ---------- --- --- ------ ------ ---- -- ------<br>------- --- ------ ----- --- ---- ------- -- ---- --- --<br>------- ------,280356.1950000003,280355.3599999286,279987.443,280003.5599999828,280029.078,280370.79,,19,to
screen,html.Screen,2_1_1_1_20,2021-04-26T10:41:52.052Z,,,,,,,,,,,,,,,,,54,,,,,,,,,,,,,,354.3599999547587,,response,,,,100,,,,,,,Space,keypress(Space),,,,,,,,-- --- ---- --- ------ ----- ------- ---- -- --- ------- --<br>------- ---------- ------ -- ----- -- ----- -- save ------<br>--- ----- --- --- ------ -------- ----- --- ------ ----- --<br>----- ----- ---------- --- --- ------ ------ ---- -- ------<br>------- --- ------ ----- --- ---- ------- -- ---- --- --<br>------- ------,280726.0199999437,280725.14999995474,280354.118,280356.43499996513,280370.79,280737.461,,20,save
screen,html.Screen,2_1_1_1_21,2021-04-26T10:41:52.517Z,,,,,,,,,,,,,,,,,54,,,,,,,,,,,,,,452.1340000034543,,response,,,,100,,,,,,,Space,keypress(Space),,,,,,,,"-- --- ---- --- ------ ----- ------- ---- -- --- ------- --<br>------- ---------- ------ -- ----- -- ----- -- ---- money,<br>--- ----- --- --- ------ -------- ----- --- ------ ----- --<br>----- ----- ---------- --- --- ------ ------ ---- -- ------<br>------- --- ------ ----- --- ---- ------- -- ---- --- --<br>------- ------",281190.4799999902,281189.59500000346,280720.79,280726.2599999085,280737.461,281204.138,,21,"money,"
screen,html.Screen,2_1_1_1_22,2021-04-26T10:41:52.963Z,,,,,,,,,,,,,,,,,54,,,,,,,,,,,,,,432.21199992793845,,response,,,,100,,,,,,,Space,keypress(Space),,,,,,,,-- --- ---- --- ------ ----- ------- ---- -- --- ------- --<br>------- ---------- ------ -- ----- -- ----- -- ---- ------<br>the ----- --- --- ------ -------- ----- --- ------ ----- --<br>----- ----- ---------- --- --- ------ ------ ---- -- ------<br>------- --- ------ ----- --- ---- ------- -- ---- --- --<br>------- ------,281637.1949999593,281636.3499999279,281187.469,281190.73499995284,281204.138,281654.154,,22,the
screen,html.Screen,2_1_1_1_23,2021-04-26T10:41:53.620Z,,,,,,,,,,,,,,,,,54,,,,,,,,,,,,,,638.4959999594139,,response,,,,100,,,,,,,Space,keypress(Space),,,,,,,,-- --- ---- --- ------ ----- ------- ---- -- --- ------- --<br>------- ---------- ------ -- ----- -- ----- -- ---- ------<br>--- state --- --- ------ -------- ----- --- ------ ----- --<br>----- ----- ---------- --- --- ------ ------ ---- -- ------<br>------- --- ------ ----- --- ---- ------- -- ---- --- --<br>------- ------,282293.48499991465,282292.6499999594,281637.501,281637.4399999622,281654.154,282304.156,,23,state
screen,html.Screen,2_1_1_1_24,2021-04-26T10:41:54.031Z,,,,,,,,,,,,,,,,,54,,,,,,,,,,,,,,399.4339999318472,,response,,,,100,,,,,,,Space,keypress(Space),,,,,,,,-- --- ---- --- ------ ----- ------- ---- -- --- ------- --<br>------- ---------- ------ -- ----- -- ----- -- ---- ------<br>--- ----- cut --- ------ -------- ----- --- ------ ----- --<br>----- ----- ---------- --- --- ------ ------ ---- -- ------<br>------- --- ------ ----- --- ---- ------- -- ---- --- --<br>------- ------,282704.41999996547,282703.58999993186,282287.486,282293.74999995343,282304.156,282720.833,,24,cut
screen,html.Screen,2_1_1_1_25,2021-04-26T10:41:54.495Z,,,,,,,,,,,,,,,,,54,,,,,,,,,,,,,,447.10199991764966,,response,,,,100,,,,,,,Space,keypress(Space),,,,,,,,-- --- ---- --- ------ ----- ------- ---- -- --- ------- --<br>------- ---------- ------ -- ----- -- ----- -- ---- ------<br>--- ----- --- the ------ -------- ----- --- ------ ----- --<br>----- ----- ---------- --- --- ------ ------ ---- -- ------<br>------- --- ------ ----- --- ---- ------- -- ---- --- --<br>------- ------,283168.8349999022,283167.93499991763,282704.163,282704.6649999684,282720.833,283170.866,,25,the
screen,html.Screen,2_1_1_1_26,2021-04-26T10:41:55.195Z,,,,,,,,,,,,,,,,,54,,,,,,,,,,,,,,697.5239999596379,,response,,,,100,,,,,,,Space,keypress(Space),,,,,,,,-- --- ---- --- ------ ----- ------- ---- -- --- ------- --<br>------- ---------- ------ -- ----- -- ----- -- ---- ------<br>--- ----- --- --- bonds' -------- ----- --- ------ ----- --<br>----- ----- ---------- --- --- ------ ------ ---- -- ------<br>------- --- ------ ----- --- ---- ------- -- ---- --- --<br>------- ------,283869.234999991,283868.3899999596,283154.175,283169.08499994315,283170.866,283889.498,,26,bonds'
screen,html.Screen,2_1_1_1_27,2021-04-26T10:41:55.935Z,,,,,,,,,,,,,,,,,54,,,,,,,,,,,,,,718.7719999678666,,response,,,,100,,,,,,,Space,keypress(Space),,,,,,,,-- --- ---- --- ------ ----- ------- ---- -- --- ------- --<br>------- ---------- ------ -- ----- -- ----- -- ---- ------<br>--- ----- --- --- ------ interest ----- --- ------ ----- --<br>----- ----- ---------- --- --- ------ ------ ---- -- ------<br>------- --- ------ ----- --- ---- ------- -- ---- --- --<br>------- ------,284609.1449999949,284608.2699999679,283854.178,283869.47499995586,283889.498,284620.911,,27,interest
screen,html.Screen,2_1_1_1_28,2021-04-26T10:41:56.593Z,,,,,,,,,,,,,,,,,54,,,,,,,,,,,,,,644.6690000065719,,response,,,,100,,,,,,,Space,keypress(Space),,,,,,,,-- --- ---- --- ------ ----- ------- ---- -- --- ------- --<br>------- ---------- ------ -- ----- -- ----- -- ---- ------<br>--- ----- --- --- ------ -------- rate. --- ------ ----- --<br>----- ----- ---------- --- --- ------ ------ ---- -- ------<br>------- --- ------ ----- --- ---- ------- -- ---- --- --<br>------- ------,285266.4199999999,285265.5800000066,284604.191,284609.4049999956,284620.911,285270.892,,28,rate.
screen,html.Screen,2_1_1_1_29,2021-04-26T10:41:57.078Z,,,,,,,,,,,,,,,,,54,,,,,,,,,,,,,,480.43299996107817,,response,,,,100,,,,,,,Space,keypress(Space),,,,,,,,-- --- ---- --- ------ ----- ------- ---- -- --- ------- --<br>------- ---------- ------ -- ----- -- ----- -- ---- ------<br>--- ----- --- --- ------ -------- ----- The ------ ----- --<br>----- ----- ---------- --- --- ------ ------ ---- -- ------<br>------- --- ------ ----- --- ---- ------- -- ---- --- --<br>------- ------,285752.1999999881,285751.32499996107,285254.214,285266.66500000283,285270.892,285754.241,,29,The
screen,html.Screen,2_1_1_1_30,2021-04-26T10:41:57.545Z,,,,,,,,,,,,,,,,,54,,,,,,,,,,,,,,464.2289999634377,,response,,,,100,,,,,,,Space,keypress(Space),,,,,,,,-- --- ---- --- ------ ----- ------- ---- -- --- ------- --<br>------- ---------- ------ -- ----- -- ----- -- ---- ------<br>--- ----- --- --- ------ -------- ----- --- market ----- --<br>----- ----- ---------- --- --- ------ ------ ---- -- ------<br>------- --- ------ ----- --- ---- ------- -- ---- --- --<br>------- ------,286219.29499995895,286218.4699999634,285737.551,285752.444999991,285754.241,286243.044,,30,market
screen,html.Screen,2_1_1_1_31,2021-04-26T10:41:58.248Z,,,,,,,,,,,,,,,,,54,,,,,,,,,,,,,,678.0659999956843,,response,,,,100,,,,,,,Space,keypress(Space),,,,,,,,-- --- ---- --- ------ ----- ------- ---- -- --- ------- --<br>------- ---------- ------ -- ----- -- ----- -- ---- ------<br>--- ----- --- --- ------ -------- ----- --- ------ value --<br>----- ----- ---------- --- --- ------ ------ ---- -- ------<br>------- --- ------ ----- --- ---- ------- -- ---- --- --<br>------- ------,286921.94499995094,286921.1099999957,286204.232,286219.53999996185,286243.044,286937.583,,31,value
screen,html.Screen,2_1_1_1_32,2021-04-26T10:41:58.705Z,,,,,,,,,,,,,,,,,54,,,,,,,,,,,,,,440.3719999162713,,response,,,,100,,,,,,,Space,keypress(Space),,,,,,,,-- --- ---- --- ------ ----- ------- ---- -- --- ------- --<br>------- ---------- ------ -- ----- -- ----- -- ---- ------<br>--- ----- --- --- ------ -------- ----- --- ------ ----- of<br>----- ----- ---------- --- --- ------ ------ ---- -- ------<br>------- --- ------ ----- --- ---- ------- -- ---- --- --<br>------- ------,287378.8249999052,287377.95499991626,286920.919,286922.18999995384,286937.583,287387.585,,32,of
screen,html.Screen,2_1_1_1_33,2021-04-26T10:41:59.150Z,,,,,,,,,,,,,,,,,54,,,,,,,,,,,,,,435.0849999067723,,response,,,,100,,,,,,,Space,keypress(Space),,,,,,,,-- --- ---- --- ------ ----- ------- ---- -- --- ------- --<br>------- ---------- ------ -- ----- -- ----- -- ---- ------<br>--- ----- --- --- ------ -------- ----- --- ------ ----- --<br>these ----- ---------- --- --- ------ ------ ---- -- ------<br>------- --- ------ ----- --- ---- ------- -- ---- --- --<br>------- ------,287823.4649999067,287822.6699999068,287370.92,287379.06499998644,287387.585,287837.6,,33,these
screen,html.Screen,2_1_1_1_34,2021-04-26T10:41:59.692Z,,,,,,,,,,,,,,,,,54,,,,,,,,,,,,,,526.9499999402324,,response,,,,100,,,,,,,Space,keypress(Space),,,,,,,,-- --- ---- --- ------ ----- ------- ---- -- --- ------- --<br>------- ---------- ------ -- ----- -- ----- -- ---- ------<br>--- ----- --- --- ------ -------- ----- --- ------ ----- --<br>----- bonds ---------- --- --- ------ ------ ---- -- ------<br>------- --- ------ ----- --- ---- ------- -- ---- --- --<br>------- ------,288365.3949999716,288364.5499999402,287820.929,287823.71999998577,287837.6,288370.946,,34,bonds
screen,html.Screen,2_1_1_1_35,2021-04-26T10:42:00.522Z,,,,,,,,,,,,,,,,,54,,,,,,,,,,,,,,824.553999914322,,response,,,,100,,,,,,,Space,keypress(Space),,,,,,,,"-- --- ---- --- ------ ----- ------- ---- -- --- ------- --<br>------- ---------- ------ -- ----- -- ----- -- ---- ------<br>--- ----- --- --- ------ -------- ----- --- ------ ----- --<br>----- ----- plummeted, --- --- ------ ------ ---- -- ------<br>------- --- ------ ----- --- ---- ------- -- ---- --- --<br>------- ------",289196.3199999882,289195.4999999143,288354.276,288365.6299998984,288370.946,289204.29,,35,"plummeted,"
screen,html.Screen,2_1_1_1_36,2021-04-26T10:42:00.951Z,,,,,,,,,,,,,,,,,54,,,,,,,,,,,,,,419.38000000087777,,response,,,,100,,,,,,,Space,keypress(Space),,,,,,,,-- --- ---- --- ------ ----- ------- ---- -- --- ------- --<br>------- ---------- ------ -- ----- -- ----- -- ---- ------<br>--- ----- --- --- ------ -------- ----- --- ------ ----- --<br>----- ----- ---------- and --- ------ ------ ---- -- ------<br>------- --- ------ ----- --- ---- ------- -- ---- --- --<br>------- ------,289624.4949999964,289623.67000000086,289187.611,289196.559999953,289204.29,289637.641,,36,and
screen,html.Screen,2_1_1_1_37,2021-04-26T10:42:01.489Z,,,,,,,,,,,,,,,,,54,,,,,,,,,,,,,,523.8089998977375,,response,,,,100,,,,,,,Space,keypress(Space),,,,,,,,-- --- ---- --- ------ ----- ------- ---- -- --- ------- --<br>------- ---------- ------ -- ----- -- ----- -- ---- ------<br>--- ----- --- --- ------ -------- ----- --- ------ ----- --<br>----- ----- ---------- --- the ------ ------ ---- -- ------<br>------- --- ------ ----- --- ---- ------- -- ---- --- --<br>------- ------,290162.39999991376,290161.44999989774,289620.967,289624.7399999993,289637.641,290170.971,,37,the
screen,html.Screen,2_1_1_1_38,2021-04-26T10:42:01.957Z,,,,,,,,,,,,,,,,,54,,,,,,,,,,,,,,459.3439999584807,,response,,,,100,,,,,,,Space,keypress(Space),,,,,,,,-- --- ---- --- ------ ----- ------- ---- -- --- ------- --<br>------- ---------- ------ -- ----- -- ----- -- ---- ------<br>--- ----- --- --- ------ -------- ----- --- ------ ----- --<br>----- ----- ---------- --- --- market ------ ---- -- ------<br>------- --- ------ ----- --- ---- ------- -- ---- --- --<br>------- ------,290631.1599999899,290630.3149999585,290154.322,290162.73999994155,290170.971,290637.675,,38,market
screen,html.Screen,2_1_1_1_39,2021-04-26T10:42:02.485Z,,,,,,,,,,,,,,,,,54,,,,,,,,,,,,,,520.4449999200297,,response,,,,100,,,,,,,Space,keypress(Space),,,,,,,,-- --- ---- --- ------ ----- ------- ---- -- --- ------- --<br>------- ---------- ------ -- ----- -- ----- -- ---- ------<br>--- ----- --- --- ------ -------- ----- --- ------ ----- --<br>----- ----- ---------- --- --- ------ became ---- -- ------<br>------- --- ------ ----- --- ---- ------- -- ---- --- --<br>------- ------,291158.9649999514,291158.11999992,290620.989,290631.4049999928,290637.675,291171.026,,39,became
screen,html.Screen,2_1_1_1_40,2021-04-26T10:42:03.115Z,,,,,,,,,,,,,,,,,54,,,,,,,,,,,,,,617.4289999143803,,response,,,,100,,,,,,,Space,keypress(Space),,,,,,,,-- --- ---- --- ------ ----- ------- ---- -- --- ------- --<br>------- ---------- ------ -- ----- -- ----- -- ---- ------<br>--- ----- --- --- ------ -------- ----- --- ------ ----- --<br>----- ----- ---------- --- --- ------ ------ wary -- ------<br>------- --- ------ ----- --- ---- ------- -- ---- --- --<br>------- ------,291789.3249999033,291788.4549999144,291154.339,291159.1999999946,291171.026,291804.343,,40,wary
screen,html.Screen,2_1_1_1_41,2021-04-26T10:42:03.553Z,,,,,,,,,,,,,,,,,54,,,,,,,,,,,,,,421.67699994368013,,response,,,,100,,,,,,,Space,keypress(Space),,,,,,,,-- --- ---- --- ------ ----- ------- ---- -- --- ------- --<br>------- ---------- ------ -- ----- -- ----- -- ---- ------<br>--- ----- --- --- ------ -------- ----- --- ------ ----- --<br>----- ----- ---------- --- --- ------ ------ ---- of ------<br>------- --- ------ ----- --- ---- ------- -- ---- --- --<br>------- ------,292226.8449999392,292226.0199999437,291787.677,291789.56999990623,291804.343,292237.683,,41,of
screen,html.Screen,2_1_1_1_42,2021-04-26T10:42:04.120Z,,,,,,,,,,,,,,,,,54,,,,,,,,,,,,,,555.4519999271142,,response,,,,100,,,,,,,Space,keypress(Space),,,,,,,,-- --- ---- --- ------ ----- ------- ---- -- --- ------- --<br>------- ---------- ------ -- ----- -- ----- -- ---- ------<br>--- ----- --- --- ------ -------- ----- --- ------ ----- --<br>----- ----- ---------- --- --- ------ ------ ---- -- French<br>------- --- ------ ----- --- ---- ------- -- ---- --- --<br>------- ------,292793.9699999988,292793.13499992713,292221.031,292227.09999990184,292237.683,292804.364,,42,French
screen,html.Screen,2_1_1_1_43,2021-04-26T10:42:05.144Z,,,,,,,,,,,,,,,,,54,,,,,,,,,,,,,,1012.470999946876,,response,,,,100,,,,,,,Space,keypress(Space),,,,,,,,-- --- ---- --- ------ ----- ------- ---- -- --- ------- --<br>------- ---------- ------ -- ----- -- ----- -- ---- ------<br>--- ----- --- --- ------ -------- ----- --- ------ ----- --<br>----- ----- ---------- --- --- ------ ------ ---- -- ------<br>credit. --- ------ ----- --- ---- ------- -- ---- --- --<br>------- ------,293817.6649999805,293816.8349999469,292787.694,292794.20499992557,292804.364,293821.065,,43,credit.
screen,html.Screen,2_1_1_1_44,2021-04-26T10:42:05.796Z,,,,,,,,,,,,,,,,,54,,,,,,,,,,,,,,647.7699999487377,,response,,,,100,,,,,,,Space,keypress(Space),,,,,,,,-- --- ---- --- ------ ----- ------- ---- -- --- ------- --<br>------- ---------- ------ -- ----- -- ----- -- ---- ------<br>--- ----- --- --- ------ -------- ----- --- ------ ----- --<br>----- ----- ---------- --- --- ------ ------ ---- -- ------<br>------- The ------ ----- --- ---- ------- -- ---- --- --<br>------- ------,294469.67999998014,294468.83499994874,293804.402,293817.9049999453,293821.065,294495.392,,44,The
screen,html.Screen,2_1_1_1_45,2021-04-26T10:42:06.426Z,,,,,,,,,,,,,,,,,54,,,,,,,,,,,,,,603.4629999892786,,response,,,,100,,,,,,,Space,keypress(Space),,,,,,,,-- --- ---- --- ------ ----- ------- ---- -- --- ------- --<br>------- ---------- ------ -- ----- -- ----- -- ---- ------<br>--- ----- --- --- ------ -------- ----- --- ------ ----- --<br>----- ----- ---------- --- --- ------ ------ ---- -- ------<br>------- --- French ----- --- ---- ------- -- ---- --- --<br>------- ------,295099.68999994453,295098.8549999893,294454.394,294469.9299999047,294495.392,295104.412,,45,French
screen,html.Screen,2_1_1_1_46,2021-04-26T10:42:07.170Z,,,,,,,,,,,,,,,,,54,,,,,,,,,,,,,,738.5329999239184,,response,,,,100,,,,,,,Space,keypress(Space),,,,,,,,-- --- ---- --- ------ ----- ------- ---- -- --- ------- --<br>------- ---------- ------ -- ----- -- ----- -- ---- ------<br>--- ----- --- --- ------ -------- ----- --- ------ ----- --<br>----- ----- ---------- --- --- ------ ------ ---- -- ------<br>------- --- ------ state --- ---- ------- -- ---- --- --<br>------- ------,295843.7449999619,295842.94499992393,295087.733,295099.92999990936,295104.412,295854.43,,46,state
screen,html.Screen,2_1_1_1_47,2021-04-26T10:42:07.725Z,,,,,,,,,,,,,,,,,54,,,,,,,,,,,,,,543.9299999919604,,response,,,,100,,,,,,,Space,keypress(Space),,,,,,,,-- --- ---- --- ------ ----- ------- ---- -- --- ------- --<br>------- ---------- ------ -- ----- -- ----- -- ---- ------<br>--- ----- --- --- ------ -------- ----- --- ------ ----- --<br>----- ----- ---------- --- --- ------ ------ ---- -- ------<br>------- --- ------ ----- was ---- ------- -- ---- --- --<br>------- ------,296399.1699999897,296398.35999999195,295837.743,295843.98999996483,295854.43,296404.447,,47,was
screen,html.Screen,2_1_1_1_48,2021-04-26T10:42:08.410Z,,,,,,,,,,,,,,,,,54,,,,,,,,,,,,,,678.5479999461095,,response,,,,100,,,,,,,Space,keypress(Space),,,,,,,,-- --- ---- --- ------ ----- ------- ---- -- --- ------- --<br>------- ---------- ------ -- ----- -- ----- -- ---- ------<br>--- ----- --- --- ------ -------- ----- --- ------ ----- --<br>----- ----- ---------- --- --- ------ ------ ---- -- ------<br>------- --- ------ ----- --- left ------- -- ---- --- --<br>------- ------,297083.8049999438,297082.9949999461,296387.767,296399.4099999545,296404.447,297087.786,,48,left
screen,html.Screen,2_1_1_1_49,2021-04-26T10:42:08.964Z,,,,,,,,,,,,,,,,,54,,,,,,,,,,,,,,548.9589999088203,,response,,,,100,,,,,,,Space,keypress(Space),,,,,,,,-- --- ---- --- ------ ----- ------- ---- -- --- ------- --<br>------- ---------- ------ -- ----- -- ----- -- ---- ------<br>--- ----- --- --- ------ -------- ----- --- ------ ----- --<br>----- ----- ---------- --- --- ------ ------ ---- -- ------<br>------- --- ------ ----- --- ---- without -- ---- --- --<br>------- ------,297637.5849999022,297636.74499990884,297071.108,297084.0499999467,297087.786,297654.461,,49,without
screen,html.Screen,2_1_1_1_50,2021-04-26T10:42:09.407Z,,,,,,,,,,,,,,,,,54,,,,,,,,,,,,,,425.79899995878804,,response,,,,100,,,,,,,Space,keypress(Space),,,,,,,,-- --- ---- --- ------ ----- ------- ---- -- --- ------- --<br>------- ---------- ------ -- ----- -- ----- -- ---- ------<br>--- ----- --- --- ------ -------- ----- --- ------ ----- --<br>----- ----- ---------- --- --- ------ ------ ---- -- ------<br>------- --- ------ ----- --- ---- ------- an ---- --- --<br>------- ------,298081.09499991406,298080.2599999588,297637.787,297637.81999994535,297654.461,298087.789,,50,an
screen,html.Screen,2_1_1_1_51,2021-04-26T10:42:09.865Z,,,,,,,,,,,,,,,,,54,,,,,,,,,,,,,,449.98599997523706,,response,,,,100,,,,,,,Space,keypress(Space),,,,,,,,-- --- ---- --- ------ ----- ------- ---- -- --- ------- --<br>------- ---------- ------ -- ----- -- ----- -- ---- ------<br>--- ----- --- --- ------ -------- ----- --- ------ ----- --<br>----- ----- ---------- --- --- ------ ------ ---- -- ------<br>------- --- ------ ----- --- ---- ------- -- easy --- --<br>------- ------,298538.63500000443,298537.7749999752,298071.129,298081.33999991696,298087.789,298554.496,,51,easy
screen,html.Screen,2_1_1_1_52,2021-04-26T10:42:10.326Z,,,,,,,,,,,,,,,,,54,,,,,,,,,,,,,,444.14899992692517,,response,,,,100,,,,,,,Space,keypress(Space),,,,,,,,-- --- ---- --- ------ ----- ------- ---- -- --- ------- --<br>------- ---------- ------ -- ----- -- ----- -- ---- ------<br>--- ----- --- --- ------ -------- ----- --- ------ ----- --<br>----- ----- ---------- --- --- ------ ------ ---- -- ------<br>------- --- ------ ----- --- ---- ------- -- ---- way --<br>------- ------,298999.46999992244,298998.6449999269,298537.79,298538.87499996927,298554.496,299004.488,,52,way
screen,html.Screen,2_1_1_1_53,2021-04-26T10:42:10.740Z,,,,,,,,,,,,,,,,,54,,,,,,,,,,,,,,408.3520000044955,,response,,,,100,,,,,,,Space,keypress(Space),,,,,,,,-- --- ---- --- ------ ----- ------- ---- -- --- ------- --<br>------- ---------- ------ -- ----- -- ----- -- ---- ------<br>--- ----- --- --- ------ -------- ----- --- ------ ----- --<br>----- ----- ---------- --- --- ------ ------ ---- -- ------<br>------- --- ------ ----- --- ---- ------- -- ---- --- of<br>------- ------,299413.7649999466,299412.8400000045,298987.814,298999.7100000037,299004.488,299421.187,,53,of
screen,html.Screen,2_1_1_1_54,2021-04-26T10:42:11.236Z,,,,,,,,,,,,,,,,,54,,,,,,,,,,,,,,488.00299991847714,,response,,,,100,,,,,,,Space,keypress(Space),,,,,,,,-- --- ---- --- ------ ----- ------- ---- -- --- ------- --<br>------- ---------- ------ -- ----- -- ----- -- ---- ------<br>--- ----- --- --- ------ -------- ----- --- ------ ----- --<br>----- ----- ---------- --- --- ------ ------ ---- -- ------<br>------- --- ------ ----- --- ---- ------- -- ---- --- --<br>raising ------,299910.03999998793,299909.18999991845,299404.482,299413.99999998976,299421.187,299921.166,,54,raising
screen,html.Screen,2_1_1_1_55,2021-04-26T10:42:11.907Z,,,,,,,,,,,,,,,,,54,,,,,,,,,,,,,,658.3989999053883,,response,,,,100,,,,,,,Space,keypress(Space),,,,,,,,-- --- ---- --- ------ ----- ------- ---- -- --- ------- --<br>------- ---------- ------ -- ----- -- ----- -- ---- ------<br>--- ----- --- --- ------ -------- ----- --- ------ ----- --<br>----- ----- ---------- --- --- ------ ------ ---- -- ------<br>------- --- ------ ----- --- ---- ------- -- ---- --- --<br>------- money.,300580.3799999412,300579.5649999054,299904.505,299910.2749999147,299921.166,300587.855,,55,money.
Item 100,flow.Loop,2_1_1_1,2021-04-26T10:42:11.907Z,,,,,,,,,,,,,,,,,,,,,,,,,,,,,,,32392.30099990539,,completion,,,,,A,,,,,,,,,,,silence,,,,,300580.8299999917,300579.5649999054,268170.559,268171.5700000059,268187.264,300587.855,,,
Question 1,html.Screen,2_1_1_2,2021-04-26T10:42:14.399Z,,,,,,,,,,,,,,,,,,,,,,,,,,,,true,TRUE,,2483.8650000072084,,response,,,,100,A,,,,,,TRUE,click #choice-1,,,,silence,,,,,303073.08000000194,303071.7200000072,300571.179,300581.0599999968,300587.855,303087.894,,,
Question 2,html.Screen,2_1_1_3,2021-04-26T10:42:16.527Z,,,,,,,,,,,,,,,,,,,,,,,,,,,,true,FALSE,,2111.655999902985,,response,,,,100,A,,,,,,FALSE,click #choice-2,,,,silence,,,,,305200.7749999175,305199.54999990296,303071.217,303073.35500000045,303087.894,305204.61,,,
Item 100,flow.Sequence,2_1_1,2021-04-26T10:42:16.527Z,,,,,,,,,,,,,,,,,,,,,,,,,,,,,,,47012.503999902954,,completion,,,,,,,,,,,,,,,,,,,,,305201.199999894,305199.54999990296,258170.356,258174.36999990605,258187.046,305204.61,,,
End of Practice,html.Page,2_1_2,2021-04-26T10:42:22.928Z,,,,,,,,,,,,,,,,,,,,,,,,,,,,,,,6396.219999893918,,form submission,,,,,,,,,,,,,,,,,,,,,311601.2749999063,311600.8299998939,305187.929,305201.4349999372,305204.61,311604.761,,,
Practice,flow.Sequence,2_1,2021-04-26T10:42:22.928Z,,,,,,,,,,,,,,,,,,,,,,,,,,,,,,,99931.3739998939,,completion,,,,,,,,,,,,,,,,,,,,,311601.6749999253,311600.8299998939,211652.78,211655.75499995612,211669.456,311604.761,,,
Trap_instruction,html.Page,2_2_0,2021-04-26T10:42:28.688Z,,,,,,,,,,,,,,,,,,,,,,,,,,,,,,,5755.884000007936,,form submission,,,,,,,,,,,,,,,,,,,,,317361.0599999083,317360.64500000793,311588.05,311601.97499999776,311604.761,317388.268,,,
trap_trial,html.Screen,2_2_1,2021-04-26T10:42:32.343Z,,,,,,,,,,,,,,,,,,,,,,,,,,,,true,1,,3626.9619999026763,,response,,,,,,,,,,,1,click #choice-1,,,,,,,,,321016.5749998996,321015.22999990266,317354.826,317361.2949999515,317388.268,321021.594,,,
end of trap trial,html.Page,2_2_2,2021-04-26T10:42:34.656Z,,,,,,,,,,,,,,,,,,,,,,,,,,,,,,,2307.070999920892,,form submission,,,,,,,,,,,,,,,,,,,,,323329.0499999421,323328.6649999209,321004.923,321016.8549999362,321021.594,323338.288,,,
Trap 1,flow.Sequence,2_2,2021-04-26T10:42:34.656Z,,,,,,,,,,,,,,,,,,,,,,,,,,,,,,,11723.903999920876,,completion,,,,,,,,,,,,,,,,,,,,,323329.4149999274,323328.6649999209,311588.05,311601.8799999729,311604.761,323338.288,,,
Standby,html.Page,2_3_0,2021-04-26T10:42:42.649Z,,,,,,,,,,,,,,,,,,,,,,,,,,,,,,,8000.162000000011,,timeout,,,,,,,,,,,,,,,,,,,,,331322.5600000005,331321.785,323321.633,323329.7099999618,323338.288,331338.45,,,
Holding screen,html.Screen,2_3_1_0_0,2021-04-26T10:42:49.649Z,,,,,,,,,,,,,,,,,,,,,,,,,,,,,,,7000.16399999999,,timeout,,,,,,,,,,,,,,,,,,,,,338322.61499995366,338321.934,331321.785,331322.9749999009,331338.45,338338.614,,,
screen,html.Screen,2_3_1_0_1_0,2021-04-26T10:42:50.906Z,,,,,,,,,,,,,,,,,51,,,,,,,,,,,,,,1239.7609999245615,,response,,,,13,A,,,,,,Space,keypress(Space),,,,silence,,,,American -------- --- --- ---- --- --- ------ -- --------<br>---- --------- --- ------- ------------ ---------- ---------<br>--- ---------- ------- ---------- ------- -- -------- ----<br>---- --- ------ ----- ------ -- ---- --- ----- -- - -------<br>-------- -- --- --- -- ----- ----------- ----- -----------<br>---- --- ---------- --- ---- --- -- ----------,339579.5649999054,339578.37499992456,338321.934,338323.06500000414,338338.614,339588.604,,0,American
screen,html.Screen,2_3_1_0_1_1,2021-04-26T10:42:51.624Z,,,,,,,,,,,,,,,,,51,,,,,,,,,,,,,,708.0309999187593,,response,,,,13,A,,,,,,Space,keypress(Space),,,,silence,,,,-------- industry --- --- ---- --- --- ------ -- --------<br>---- --------- --- ------- ------------ ---------- ---------<br>--- ---------- ------- ---------- ------- -- -------- ----<br>---- --- ------ ----- ------ -- ---- --- ----- -- - -------<br>-------- -- --- --- -- ----- ----------- ----- -----------<br>---- --- ---------- --- ---- --- -- ----------,340297.4849999882,340296.63499991875,339571.944,339579.88499989733,339588.604,340305.284,,1,industry
screen,html.Screen,2_3_1_0_1_2,2021-04-26T10:42:52.067Z,,,,,,,,,,,,,,,,,51,,,,,,,,,,,,,,434.3009999739006,,response,,,,13,A,,,,,,Space,keypress(Space),,,,silence,,,,-------- -------- may --- ---- --- --- ------ -- --------<br>---- --------- --- ------- ------------ ---------- ---------<br>--- ---------- ------- ---------- ------- -- -------- ----<br>---- --- ------ ----- ------ -- ---- --- ----- -- - -------<br>-------- -- --- --- -- ----- ----------- ----- -----------<br>---- --- ---------- --- ---- --- -- ----------,340740.4699999606,340739.5849999739,340288.618,340297.72499995306,340305.284,340755.303,,2,may
screen,html.Screen,2_3_1_0_1_3,2021-04-26T10:42:52.921Z,,,,,,,,,,,,,,,,,51,,,,,,,,,,,,,,837.9869999897783,,response,,,,13,A,,,,,,Space,keypress(Space),,,,silence,,,,-------- -------- --- not ---- --- --- ------ -- --------<br>---- --------- --- ------- ------------ ---------- ---------<br>--- ---------- ------- ---------- ------- -- -------- ----<br>---- --- ------ ----- ------ -- ---- --- ----- -- - -------<br>-------- -- --- --- -- ----- ----------- ----- -----------<br>---- --- ---------- --- ---- --- -- ----------,341594.119999907,341593.2899999898,340738.636,340740.7050000038,340755.303,341605.313,,3,not
screen,html.Screen,2_3_1_0_1_4,2021-04-26T10:42:53.834Z,,,,,,,,,,,,,,,,,51,,,,,,,,,,,,,,901.2969999239431,,response,,,,13,A,,,,,,Space,keypress(Space),,,,silence,,,,-------- -------- --- --- know --- --- ------ -- --------<br>---- --------- --- ------- ------------ ---------- ---------<br>--- ---------- ------- ---------- ------- -- -------- ----<br>---- --- ------ ----- ------ -- ---- --- ----- -- - -------<br>-------- -- --- --- -- ----- ----------- ----- -----------<br>---- --- ---------- --- ---- --- -- ----------,342507.55999994,342506.60999992397,341588.647,341594.3599999882,341605.313,342522.002,,4,know
screen,html.Screen,2_3_1_0_1_5,2021-04-26T10:42:54.246Z,,,,,,,,,,,,,,,,,51,,,,,,,,,,,,,,396.72799991758075,,response,,,,13,A,,,,,,Space,keypress(Space),,,,silence,,,,"-------- -------- --- --- ---- it, --- ------ -- --------<br>---- --------- --- ------- ------------ ---------- ---------<br>--- ---------- ------- ---------- ------- -- -------- ----<br>---- --- ------ ----- ------ -- ---- --- ----- -- - -------<br>-------- -- --- --- -- ----- ----------- ----- -----------<br>---- --- ---------- --- ---- --- -- ----------",342919.54999999143,342918.72999991756,342505.341,342507.8449998982,342522.002,342922.02,,5,"it,"
screen,html.Screen,2_3_1_0_1_6,2021-04-26T10:42:54.836Z,,,,,,,,,,,,,,,,,51,,,,,,,,,,,,,,586.0999998967163,,response,,,,13,A,,,,,,Space,keypress(Space),,,,silence,,,,-------- -------- --- --- ---- --- but ------ -- --------<br>---- --------- --- ------- ------------ ---------- ---------<br>--- ---------- ------- ---------- ------- -- -------- ----<br>---- --- ------ ----- ------ -- ---- --- ----- -- - -------<br>-------- -- --- --- -- ----- ----------- ----- -----------<br>---- --- ---------- --- ---- --- -- ----------,343508.97999992594,343508.11999989673,342905.337,342919.78999995627,342922.02,343522.016,,6,but
screen,html.Screen,2_3_1_0_1_7,2021-04-26T10:42:55.484Z,,,,,,,,,,,,,,,,,51,,,,,,,,,,,,,,634.8389999501524,,response,,,,13,A,,,,,,Space,keypress(Space),,,,silence,,,,-------- -------- --- --- ---- --- --- debate -- --------<br>---- --------- --- ------- ------------ ---------- ---------<br>--- ---------- ------- ---------- ------- -- -------- ----<br>---- --- ------ ----- ------ -- ---- --- ----- -- - -------<br>-------- -- --- --- -- ----- ----------- ----- -----------<br>---- --- ---------- --- ---- --- -- ----------,344157.6649999479,344156.85499995016,343505.345,343509.2149999691,343522.016,344172.072,,7,debate
screen,html.Screen,2_3_1_0_1_8,2021-04-26T10:42:55.880Z,,,,,,,,,,,,,,,,,51,,,,,,,,,,,,,,379.78800000686897,,response,,,,13,A,,,,,,Space,keypress(Space),,,,silence,,,,-------- -------- --- --- ---- --- --- ------ in --------<br>---- --------- --- ------- ------------ ---------- ---------<br>--- ---------- ------- ---------- ------- -- -------- ----<br>---- --- ------ ----- ------ -- ---- --- ----- -- - -------<br>-------- -- --- --- -- ----- ----------- ----- -----------<br>---- --- ---------- --- ---- --- -- ----------,344552.74999991525,344551.86000000685,344155.357,344157.9099999508,344172.072,344555.363,,8,in
screen,html.Screen,2_3_1_0_1_9,2021-04-26T10:42:56.438Z,,,,,,,,,,,,,,,,,51,,,,,,,,,,,,,,554.9169999061851,,response,,,,13,A,,,,,,Space,keypress(Space),,,,silence,,,,-------- -------- --- --- ---- --- --- ------ -- Congress<br>---- --------- --- ------- ------------ ---------- ---------<br>--- ---------- ------- ---------- ------- -- -------- ----<br>---- --- ------ ----- ------ -- ---- --- ----- -- - -------<br>-------- -- --- --- -- ----- ----------- ----- -----------<br>---- --- ---------- --- ---- --- -- ----------,345111.1099999398,345110.2799999062,344538.698,344552.99499991816,344555.363,345122.041,,9,Congress
screen,html.Screen,2_3_1_0_1_10,2021-04-26T10:42:57.229Z,,,,,,,,,,,,,,,,,51,,,,,,,,,,,,,,778.8189999360475,,response,,,,13,A,,,,,,Space,keypress(Space),,,,silence,,,,-------- -------- --- --- ---- --- --- ------ -- --------<br>over --------- --- ------- ------------ ---------- ---------<br>--- ---------- ------- ---------- ------- -- -------- ----<br>---- --- ------ ----- ------ -- ---- --- ----- -- - -------<br>-------- -- --- --- -- ----- ----------- ----- -----------<br>---- --- ---------- --- ---- --- -- ----------,345901.67999989353,345900.8599999361,345105.384,345111.3599999808,345122.041,345905.404,,10,over
screen,html.Screen,2_3_1_0_1_11,2021-04-26T10:42:57.659Z,,,,,,,,,,,,,,,,,51,,,,,,,,,,,,,,425.4359999514418,,response,,,,13,A,,,,,,Space,keypress(Space),,,,silence,,,,-------- -------- --- --- ---- --- --- ------ -- --------<br>---- reforming --- ------- ------------ ---------- ---------<br>--- ---------- ------- ---------- ------- -- -------- ----<br>---- --- ------ ----- ------ -- ---- --- ----- -- - -------<br>-------- -- --- --- -- ----- ----------- ----- -----------<br>---- --- ---------- --- ---- --- -- ----------,346331.7349998979,346330.8399999514,345888.722,345901.9199999748,345905.404,346338.729,,11,reforming
screen,html.Screen,2_3_1_0_1_12,2021-04-26T10:42:58.059Z,,,,,,,,,,,,,,,,,51,,,,,,,,,,,,,,392.6810000076075,,response,,,,13,A,,,,,,Space,keypress(Space),,,,silence,,,,-------- -------- --- --- ---- --- --- ------ -- --------<br>---- --------- the ------- ------------ ---------- ---------<br>--- ---------- ------- ---------- ------- -- -------- ----<br>---- --- ------ ----- ------ -- ---- --- ----- -- - -------<br>-------- -- --- --- -- ----- ----------- ----- -----------<br>---- --- ---------- --- ---- --- -- ----------,346732.27499995846,346731.4100000076,346322.062,346331.9799999008,346338.729,346738.752,,12,the
screen,html.Screen,2_3_1_0_1_13,2021-04-26T10:42:58.505Z,,,,,,,,,,,,,,,,,51,,,,,,,,,,,,,,439.0329999489477,,response,,,,13,A,,,,,,Space,keypress(Space),,,,silence,,,,-------- -------- --- --- ---- --- --- ------ -- --------<br>---- --------- --- federal ------------ ---------- ---------<br>--- ---------- ------- ---------- ------- -- -------- ----<br>---- --- ------ ----- ------ -- ---- --- ----- -- - -------<br>-------- -- --- --- -- ----- ----------- ----- -----------<br>---- --- ---------- --- ---- --- -- ----------,347178.62499994226,347177.7849999489,346722.074,346732.51999996137,346738.752,347188.751,,13,federal
screen,html.Screen,2_3_1_0_1_14,2021-04-26T10:42:58.981Z,,,,,,,,,,,,,,,,,51,,,,,,,,,,,,,,464.13899991026847,,response,,,,13,A,,,,,,Space,keypress(Space),,,,silence,,,,-------- -------- --- --- ---- --- --- ------ -- --------<br>---- --------- --- ------- government's ---------- ---------<br>--- ---------- ------- ---------- ------- -- -------- ----<br>---- --- ------ ----- ------ -- ---- --- ----- -- - -------<br>-------- -- --- --- -- ----- ----------- ----- -----------<br>---- --- ---------- --- ---- --- -- ----------,347653.72499998193,347652.88999991026,347172.081,347178.86999994516,347188.751,347655.427,,14,government's
screen,html.Screen,2_3_1_0_1_15,2021-04-26T10:42:59.785Z,,,,,,,,,,,,,,,,,51,,,,,,,,,,,,,,801.8129999014782,,response,,,,13,A,,,,,,Space,keypress(Space),,,,silence,,,,-------- -------- --- --- ---- --- --- ------ -- --------<br>---- --------- --- ------- ------------ regulatory ---------<br>--- ---------- ------- ---------- ------- -- -------- ----<br>---- --- ------ ----- ------ -- ---- --- ----- -- - -------<br>-------- -- --- --- -- ----- ----------- ----- -----------<br>---- --- ---------- --- ---- --- -- ----------,348458.11000000685,348457.2399999015,347638.759,347653.96499994677,347655.427,348472.111,,15,regulatory
screen,html.Screen,2_3_1_0_1_16,2021-04-26T10:43:00.640Z,,,,,,,,,,,,,,,,,51,,,,,,,,,,,,,,840.5539999758475,,response,,,,13,A,,,,,,Space,keypress(Space),,,,silence,,,,-------- -------- --- --- ---- --- --- ------ -- --------<br>---- --------- --- ------- ------------ ---------- apparatus<br>--- ---------- ------- ---------- ------- -- -------- ----<br>---- --- ------ ----- ------ -- ---- --- ----- -- - -------<br>-------- -- --- --- -- ----- ----------- ----- -----------<br>---- --- ---------- --- ---- --- -- ----------,349313.4849999333,349312.6649999758,348455.441,348458.3449999336,348472.111,349322.134,,16,apparatus
screen,html.Screen,2_3_1_0_1_17,2021-04-26T10:43:01.737Z,,,,,,,,,,,,,,,,,51,,,,,,,,,,,,,,1087.585999995994,,response,,,,13,A,,,,,,Space,keypress(Space),,,,silence,,,,-------- -------- --- --- ---- --- --- ------ -- --------<br>---- --------- --- ------- ------------ ---------- ---------<br>may ---------- ------- ---------- ------- -- -------- ----<br>---- --- ------ ----- ------ -- ---- --- ----- -- - -------<br>-------- -- --- --- -- ----- ----------- ----- -----------<br>---- --- ---------- --- ---- --- -- ----------,350410.5699999491,350409.719999996,349305.477,349313.7299999362,349322.134,350422.149,,17,may
screen,html.Screen,2_3_1_0_1_18,2021-04-26T10:43:02.310Z,,,,,,,,,,,,,,,,,51,,,,,,,,,,,,,,560.3610000016633,,response,,,,13,A,,,,,,Space,keypress(Space),,,,silence,,,,-------- -------- --- --- ---- --- --- ------ -- --------<br>---- --------- --- ------- ------------ ---------- ---------<br>--- profoundly ------- ---------- ------- -- -------- ----<br>---- --- ------ ----- ------ -- ---- --- ----- -- - -------<br>-------- -- --- --- -- ----- ----------- ----- -----------<br>---- --- ---------- --- ---- --- -- ----------,350983.324999921,350982.51000000164,350405.481,350410.8099999139,350422.149,350988.834,,18,profoundly
screen,html.Screen,2_3_1_0_1_19,2021-04-26T10:43:02.885Z,,,,,,,,,,,,,,,,,51,,,,,,,,,,,,,,568.6609999572975,,response,,,,13,A,,,,,,Space,keypress(Space),,,,silence,,,,-------- -------- --- --- ---- --- --- ------ -- --------<br>---- --------- --- ------- ------------ ---------- ---------<br>--- ---------- improve ---------- ------- -- -------- ----<br>---- --- ------ ----- ------ -- ---- --- ----- -- - -------<br>-------- -- --- --- -- ----- ----------- ----- -----------<br>---- --- ---------- --- ---- --- -- ----------,351558.34499991033,351557.4949999573,350972.163,350983.6199999554,350988.834,351572.176,,19,improve
screen,html.Screen,2_3_1_0_1_20,2021-04-26T10:43:03.509Z,,,,,,,,,,,,,,,,,51,,,,,,,,,,,,,,608.7639999911189,,response,,,,13,A,,,,,,Space,keypress(Space),,,,silence,,,,-------- -------- --- --- ---- --- --- ------ -- --------<br>---- --------- --- ------- ------------ ---------- ---------<br>--- ---------- ------- companies' ------- -- -------- ----<br>---- --- ------ ----- ------ -- ---- --- ----- -- - -------<br>-------- -- --- --- -- ----- ----------- ----- -----------<br>---- --- ---------- --- ---- --- -- ----------,352181.81999993976,352180.9399999911,351555.507,351558.5849999916,351572.176,352188.842,,20,companies'
screen,html.Screen,2_3_1_0_1_21,2021-04-26T10:43:04.081Z,,,,,,,,,,,,,,,,,51,,,,,,,,,,,,,,564.5279999330523,,response,,,,13,A,,,,,,Space,keypress(Space),,,,silence,,,,-------- -------- --- --- ---- --- --- ------ -- --------<br>---- --------- --- ------- ------------ ---------- ---------<br>--- ---------- ------- ---------- ability -- -------- ----<br>---- --- ------ ----- ------ -- ---- --- ----- -- - -------<br>-------- -- --- --- -- ----- ----------- ----- -----------<br>---- --- ---------- --- ---- --- -- ----------,352754.239999922,352753.36999993306,352172.183,352182.0599999046,352188.842,352778.938,,21,ability
screen,html.Screen,2_3_1_0_1_22,2021-04-26T10:43:04.566Z,,,,,,,,,,,,,,,,,51,,,,,,,,,,,,,,459.66699996223906,,response,,,,13,A,,,,,,Space,keypress(Space),,,,silence,,,,-------- -------- --- --- ---- --- --- ------ -- --------<br>---- --------- --- ------- ------------ ---------- ---------<br>--- ---------- ------- ---------- ------- to -------- ----<br>---- --- ------ ----- ------ -- ---- --- ----- -- - -------<br>-------- -- --- --- -- ----- ----------- ----- -----------<br>---- --- ---------- --- ---- --- -- ----------,353239.4449999556,353238.60499996226,352738.856,352754.48999996297,352778.938,353255.544,,22,to
screen,html.Screen,2_3_1_0_1_23,2021-04-26T10:43:05.007Z,,,,,,,,,,,,,,,,,51,,,,,,,,,,,,,,423.70599992829375,,response,,,,13,A,,,,,,Space,keypress(Space),,,,silence,,,,-------- -------- --- --- ---- --- --- ------ -- --------<br>---- --------- --- ------- ------------ ---------- ---------<br>--- ---------- ------- ---------- ------- -- survive. ----<br>---- --- ------ ----- ------ -- ---- --- ----- -- - -------<br>-------- -- --- --- -- ----- ----------- ----- -----------<br>---- --- ---------- --- ---- --- -- ----------,353680.1049999194,353679.2499999283,353238.863,353239.6899999585,353255.544,353688.876,,23,survive.
screen,html.Screen,2_3_1_0_1_24,2021-04-26T10:43:06.162Z,,,,,,,,,,,,,,,,,51,,,,,,,,,,,,,,1145.0339999284479,,response,,,,13,A,,,,,,Space,keypress(Space),,,,silence,,,,-------- -------- --- --- ---- --- --- ------ -- --------<br>---- --------- --- ------- ------------ ---------- ---------<br>--- ---------- ------- ---------- ------- -- -------- This<br>---- --- ------ ----- ------ -- ---- --- ----- -- - -------<br>-------- -- --- --- -- ----- ----------- ----- -----------<br>---- --- ---------- --- ---- --- -- ----------,354834.7749999957,354833.90999992844,353672.212,353680.34500000067,353688.876,354838.909,,24,This
screen,html.Screen,2_3_1_0_1_25,2021-04-26T10:43:06.586Z,,,,,,,,,,,,,,,,,51,,,,,,,,,,,,,,419.89599999040365,,response,,,,13,A,,,,,,Space,keypress(Space),,,,silence,,,,-------- -------- --- --- ---- --- --- ------ -- --------<br>---- --------- --- ------- ------------ ---------- ---------<br>--- ---------- ------- ---------- ------- -- -------- ----<br>week --- ------ ----- ------ -- ---- --- ----- -- - -------<br>-------- -- --- --- -- ----- ----------- ----- -----------<br>---- --- ---------- --- ---- --- -- ----------,355259.6499999054,355258.8049999904,354822.235,354835.0199999986,354838.909,355272.248,,25,week
screen,html.Screen,2_3_1_0_1_26,2021-04-26T10:43:07.016Z,,,,,,,,,,,,,,,,,51,,,,,,,,,,,,,,416.17199990397785,,response,,,,13,A,,,,,,Space,keypress(Space),,,,silence,,,,-------- -------- --- --- ---- --- --- ------ -- --------<br>---- --------- --- ------- ------------ ---------- ---------<br>--- ---------- ------- ---------- ------- -- -------- ----<br>---- the ------ ----- ------ -- ---- --- ----- -- - -------<br>-------- -- --- --- -- ----- ----------- ----- -----------<br>---- --- ---------- --- ---- --- -- ----------,355689.294999931,355688.419999904,355255.575,355259.8899999866,355272.248,355705.61,,26,the
screen,html.Screen,2_3_1_0_1_27,2021-04-26T10:43:07.545Z,,,,,,,,,,,,,,,,,51,,,,,,,,,,,,,,512.0899999210378,,response,,,,13,A,,,,,,Space,keypress(Space),,,,silence,,,,-------- -------- --- --- ---- --- --- ------ -- --------<br>---- --------- --- ------- ------------ ---------- ---------<br>--- ---------- ------- ---------- ------- -- -------- ----<br>---- --- Senate ----- ------ -- ---- --- ----- -- - -------<br>-------- -- --- --- -- ----- ----------- ----- -----------<br>---- --- ---------- --- ---- --- -- ----------,356218.5649999883,356217.699999921,355688.918,355689.5299999742,355705.61,356222.269,,27,Senate
screen,html.Screen,2_3_1_0_1_28,2021-04-26T10:43:07.993Z,,,,,,,,,,,,,,,,,51,,,,,,,,,,,,,,443.34099990909453,,response,,,,13,A,,,,,,Space,keypress(Space),,,,silence,,,,-------- -------- --- --- ---- --- --- ------ -- --------<br>---- --------- --- ------- ------------ ---------- ---------<br>--- ---------- ------- ---------- ------- -- -------- ----<br>---- --- ------ seems ------ -- ---- --- ----- -- - -------<br>-------- -- --- --- -- ----- ----------- ----- -----------<br>---- --- ---------- --- ---- --- -- ----------,356666.479999898,356665.60999990907,356205.588,356218.80499995314,356222.269,356672.283,,28,seems
screen,html.Screen,2_3_1_0_1_29,2021-04-26T10:43:08.526Z,,,,,,,,,,,,,,,,,51,,,,,,,,,,,,,,526.0819999601808,,response,,,,13,A,,,,,,Space,keypress(Space),,,,silence,,,,-------- -------- --- --- ---- --- --- ------ -- --------<br>---- --------- --- ------- ------------ ---------- ---------<br>--- ---------- ------- ---------- ------- -- -------- ----<br>---- --- ------ ----- poised -- ---- --- ----- -- - -------<br>-------- -- --- --- -- ----- ----------- ----- -----------<br>---- --- ---------- --- ---- --- -- ----------,357199.19999991544,357198.3649999602,356655.6,356666.7149999412,356672.283,357205.62,,29,poised
screen,html.Screen,2_3_1_0_1_30,2021-04-26T10:43:09.369Z,,,,,,,,,,,,,,,,,51,,,,,,,,,,,,,,835.534999984433,,response,,,,13,A,,,,,,Space,keypress(Space),,,,silence,,,,-------- -------- --- --- ---- --- --- ------ -- --------<br>---- --------- --- ------- ------------ ---------- ---------<br>--- ---------- ------- ---------- ------- -- -------- ----<br>---- --- ------ ----- ------ to ---- --- ----- -- - -------<br>-------- -- --- --- -- ----- ----------- ----- -----------<br>---- --- ---------- --- ---- --- -- ----------,358042.03999997117,358041.1549999844,357188.947,357199.4549999945,357205.62,358055.632,,30,to
screen,html.Screen,2_3_1_0_1_31,2021-04-26T10:43:09.858Z,,,,,,,,,,,,,,,,,51,,,,,,,,,,,,,,475.14799991366453,,response,,,,13,A,,,,,,Space,keypress(Space),,,,silence,,,,-------- -------- --- --- ---- --- --- ------ -- --------<br>---- --------- --- ------- ------------ ---------- ---------<br>--- ---------- ------- ---------- ------- -- -------- ----<br>---- --- ------ ----- ------ -- join --- ----- -- - -------<br>-------- -- --- --- -- ----- ----------- ----- -----------<br>---- --- ---------- --- ---- --- -- ----------,358531.6499999026,358530.77999991365,358038.963,358042.28999989573,358055.632,358538.973,,31,join
screen,html.Screen,2_3_1_0_1_32,2021-04-26T10:43:10.331Z,,,,,,,,,,,,,,,,,51,,,,,,,,,,,,,,464.8169999879319,,response,,,,13,A,,,,,,Space,keypress(Space),,,,silence,,,,-------- -------- --- --- ---- --- --- ------ -- --------<br>---- --------- --- ------- ------------ ---------- ---------<br>--- ---------- ------- ---------- ------- -- -------- ----<br>---- --- ------ ----- ------ -- ---- the ----- -- - -------<br>-------- -- --- --- -- ----- ----------- ----- -----------<br>---- --- ---------- --- ---- --- -- ----------,359004.6349999029,359003.78999998793,358522.305,358531.88499994576,358538.973,359023.29,,32,the
screen,html.Screen,2_3_1_0_1_33,2021-04-26T10:43:10.739Z,,,,,,,,,,,,,,,,,51,,,,,,,,,,,,,,387.53999994980404,,response,,,,13,A,,,,,,Space,keypress(Space),,,,silence,,,,-------- -------- --- --- ---- --- --- ------ -- --------<br>---- --------- --- ------- ------------ ---------- ---------<br>--- ---------- ------- ---------- ------- -- -------- ----<br>---- --- ------ ----- ------ -- ---- --- House -- - -------<br>-------- -- --- --- -- ----- ----------- ----- -----------<br>---- --- ---------- --- ---- --- -- ----------,359411.6999999387,359410.8299999498,358988.973,359004.87499998417,359023.29,359422.323,,33,House
screen,html.Screen,2_3_1_0_1_34,2021-04-26T10:43:11.060Z,,,,,,,,,,,,,,,,,51,,,,,,,,,,,,,,310.35199997748714,,response,,,,13,A,,,,,,Space,keypress(Space),,,,silence,,,,-------- -------- --- --- ---- --- --- ------ -- --------<br>---- --------- --- ------- ------------ ---------- ---------<br>--- ---------- ------- ---------- ------- -- -------- ----<br>---- --- ------ ----- ------ -- ---- --- ----- in - -------<br>-------- -- --- --- -- ----- ----------- ----- -----------<br>---- --- ---------- --- ---- --- -- ----------,359733.4849999752,359732.67499997746,359405.663,359411.9449999416,359422.323,359739,,34,in
screen,html.Screen,2_3_1_0_1_35,2021-04-26T10:43:11.555Z,,,,,,,,,,,,,,,,,51,,,,,,,,,,,,,,488.42999996989965,,response,,,,13,A,,,,,,Space,keypress(Space),,,,silence,,,,-------- -------- --- --- ---- --- --- ------ -- --------<br>---- --------- --- ------- ------------ ---------- ---------<br>--- ---------- ------- ---------- ------- -- -------- ----<br>---- --- ------ ----- ------ -- ---- --- ----- -- a -------<br>-------- -- --- --- -- ----- ----------- ----- -----------<br>---- --- ---------- --- ---- --- -- ----------,360228.26999996323,360227.4299999699,359722.325,359733.77999989316,359739,360239.008,,35,a
screen,html.Screen,2_3_1_0_1_36,2021-04-26T10:43:11.979Z,,,,,,,,,,,,,,,,,51,,,,,,,,,,,,,,412.03199990972644,,response,,,,13,A,,,,,,Space,keypress(Space),,,,silence,,,,-------- -------- --- --- ---- --- --- ------ -- --------<br>---- --------- --- ------- ------------ ---------- ---------<br>--- ---------- ------- ---------- ------- -- -------- ----<br>---- --- ------ ----- ------ -- ---- --- ----- -- - massive<br>-------- -- --- --- -- ----- ----------- ----- -----------<br>---- --- ---------- --- ---- --- -- ----------,360651.8699999433,360651.0399999097,360222.336,360228.51499996614,360239.008,360655.691,,36,massive
screen,html.Screen,2_3_1_0_1_37,2021-04-26T10:43:13.050Z,,,,,,,,,,,,,,,,,51,,,,,,,,,,,,,,1066.953999972553,,response,,,,13,A,,,,,,Space,keypress(Space),,,,silence,,,,-------- -------- --- --- ---- --- --- ------ -- --------<br>---- --------- --- ------- ------------ ---------- ---------<br>--- ---------- ------- ---------- ------- -- -------- ----<br>---- --- ------ ----- ------ -- ---- --- ----- -- - -------<br>overhaul -- --- --- -- ----- ----------- ----- -----------<br>---- --- ---------- --- ---- --- -- ----------,361723.4949999256,361722.64499997254,360639.017,360652.10999990813,360655.691,361739.034,,37,overhaul
