sender,sender_type,sender_id,timestamp,meta,,Blues,Classical,Country,Dance,Electronic,Folk,Gospel,Hip-Hop,Jazz,Latin,Musical/Film,New-age,Pop,Prolific_id,Provo_ID,R&B,Rap,Reggae,Religious,Rock,Soul,Swing,Traditional,age,artist_name,correct,correctResponse,distraction,duration,education,ended_on,familiarity,gender,headphone_check_performance,item,list,music_frequency,offensiveness,pleasantness,position_correct,preference,response,response_action,snippet_file,song_name,song_rating,sound,stimulus_1,stimulus_2,stimulus_3,text,time_commit,time_end,time_render,time_run,time_show,time_switch,url,word,word_ID
Prolific ID,html.Form,0,2021-04-24T18:08:02.935Z,"{""labjs_version"":""20.2.2"",""labjs_build"":{""flavor"":""production"",""commit"":""a25486e0c714a0ae2ce03ff94b7bb6896854dcfa""},""location"":""https://run.pavlovia.org/mvasilev/prolific_music_e/"",""userAgent"":""Mozilla/5.0 (Windows NT 10.0; Win64; x64) AppleWebKit/537.36 (KHTML, like Gecko) Chrome/90.0.4430.85 Safari/537.36"",""platform"":""Win32"",""language"":""en-GB"",""locale"":""en-GB"",""timeZone"":""Europe/London"",""timezoneOffset"":-60,""screen_width"":1280,""screen_height"":720,""scroll_width"":1270,""scroll_height"":600,""window_innerWidth"":1270,""window_innerHeight"":600,""devicePixelRatio"":2.5}",,,,,,,,,,,,,,,572f526c3c27e7000e0b8aaa,,,,,,,,,,,,,,,6565.167000011046,,form submission,,,,,,,,,,,,,,,,,,,,,44395.905000012135,44393.860000011045,37782.917,37789.25000000163,37828.693,44426.271,{},,
Introduction,html.Screen,1_0,2021-04-24T18:08:11.956Z,,,,,,,,,,,,,,,,,,,,,,,,,,,,,,,8984.574000005792,,response,,,,,,,,,,,continue,click button,,,,,,,,,53417.48999999254,53410.84500000579,44392.933,44396.704999991925,44426.271,53431.954,,,
Volume calibration,html.Screen,1_1,2021-04-24T18:08:51.885Z,,,,,,,,,,,,,,,,,,,,,,,,,,,,,,,39906.78600000651,,response,,,,,,,,,,,continue,click button,,,,,,,,,93346.0999999952,93338.74000000651,53410.465,53417.77999998885,53431.954,93357.16,,,
Task instructions,html.Screen,1_2,2021-04-24T18:09:12.207Z,,,,,,,,,,,,,,,,,,,,,,,,,,,,,,,20305.55000000415,,response,,,,,,,,,,,continue,click button,,,,,,,,,113667.92499998701,113662.71000000415,93335.471,93346.30500001367,93357.16,113682.822,,,
Sounds,html.Screen,1_3_0_0,2021-04-24T18:09:16.453Z,,,,,,,,,,,,,,,,,,,,,,,,,,,,,,,4242.334000000003,,timeout,,,,,,,,,1,,,,,,,,S,I,O,,117914.61000000709,117908.481,113648.838,113668.59499999555,113682.822,117925.156,,,
Judgement,html.Screen,1_3_0_1,2021-04-24T18:09:21.714Z,,,,,,,,,,,,,,,,,,,,,,,,,,,,true,1,,5246.418999985748,,response,,,,,,,,,1,,1,click #choice-1,,,,,S,I,O,,123176.29500001203,123171.57499998575,117908.481,117915.04500000156,117925.156,123176.728,,,
Trial,flow.Sequence,1_3_0,2021-04-24T18:09:21.719Z,,,,,,,,,,,,,,,,,,,,,,,,,,,,,,,9488.75299998575,,completion,,,,,,,,,1,,,,,,,,S,I,O,,123180.67000000156,123171.57499998575,113648.838,113668.44999999739,113682.822,123176.728,,,
Sounds,html.Screen,1_3_1_0,2021-04-24T18:09:25.950Z,,,,,,,,,,,,,,,,,,,,,,,,,,,,,,,4251.101999999999,,timeout,,,,,,,,,3,,,,,,,,I,O,S,,127412.39000001224,127411.321,123171.77,123181.1400000006,123176.728,127427.83,,,
Judgement,html.Screen,1_3_1_1,2021-04-24T18:09:26.921Z,,,,,,,,,,,,,,,,,,,,,,,,,,,,true,3,,950.9499999990949,,response,,,,,,,,,3,,3,click #choice-3,,,,,I,O,S,,128383.38499999372,128378.7799999991,127411.321,127412.72500000196,127427.83,128382.356,,,
Trial,flow.Sequence,1_3_1,2021-04-24T18:09:26.923Z,,,,,,,,,,,,,,,,,,,,,,,,,,,,,,,5202.051999999094,,completion,,,,,,,,,3,,,,,,,,I,O,S,,128384.63499999489,128378.7799999991,123171.77,123181.00499999127,123176.728,128382.356,,,
Sounds,html.Screen,1_3_2_0,2021-04-24T18:09:31.158Z,,,,,,,,,,,,,,,,,,,,,,,,,,,,,,,4253.0869999999995,,timeout,,,,,,,,,1,,,,,,,,S,O,I,,132620.1749999891,132618.856,128378.273,128385.14999998733,128382.356,132635.443,,,
Judgement,html.Screen,1_3_2_1,2021-04-24T18:09:32.539Z,,,,,,,,,,,,,,,,,,,,,,,,,,,,false,1,,1360.892000003456,,response,,,,,,,,,1,,2,click #choice-2,,,,,S,O,I,,134000.52999999025,133996.33500000346,132618.856,132620.66499999491,132635.443,134009.479,,,
Trial,flow.Sequence,1_3_2,2021-04-24T18:09:32.539Z,,,,,,,,,,,,,,,,,,,,,,,,,,,,,,,5613.979000003455,,completion,,,,,,,,,1,,,,,,,,S,O,I,,134001.04999999166,133996.33500000346,128378.273,128385.00999999815,128382.356,134009.479,,,
Sounds,html.Screen,1_3_3_0,2021-04-24T18:09:36.785Z,,,,,,,,,,,,,,,,,,,,,,,,,,,,,,,4253.194000000018,,timeout,,,,,,,,,2,,,,,,,,I,S,O,,138246.91499999608,138246.038,133985.835,134001.4300000039,134009.479,138262.673,,,
Judgement,html.Screen,1_3_3_1,2021-04-24T18:09:38.738Z,,,,,,,,,,,,,,,,,,,,,,,,,,,,true,2,,1931.8870000035386,,response,,,,,,,,,2,,2,click #choice-2,,,,,I,S,O,,140199.42499999888,140194.56000000355,138246.038,138247.11500000558,138262.673,140197.891,,,
Trial,flow.Sequence,1_3_3,2021-04-24T18:09:38.738Z,,,,,,,,,,,,,,,,,,,,,,,,,,,,,,,6185.081000003556,,completion,,,,,,,,,2,,,,,,,,I,S,O,,140199.95499998913,140194.56000000355,133985.835,134001.30000000354,134009.479,140197.891,,,
Sounds,html.Screen,1_3_4_0,2021-04-24T18:09:42.977Z,,,,,,,,,,,,,,,,,,,,,,,,,,,,,,,4256.902999999991,,timeout,,,,,,,,,3,,,,,,,,O,I,S,,144439.30500000715,144438.158,140196.496,140200.2999999968,140197.891,144454.794,,,
Judgement,html.Screen,1_3_4_1,2021-04-24T18:09:43.774Z,,,,,,,,,,,,,,,,,,,,,,,,,,,,true,3,,776.6559999920428,,response,,,,,,,,,3,,3,click #choice-3,,,,,O,I,S,,145235.85999998613,145231.44999999204,144438.158,144439.6049999923,144454.794,145244.273,,,
Trial,flow.Sequence,1_3_4,2021-04-24T18:09:43.774Z,,,,,,,,,,,,,,,,,,,,,,,,,,,,,,,5033.558999992034,,completion,,,,,,,,,3,,,,,,,,O,I,S,,145236.37500000768,145231.44999999204,140196.496,140200.205000001,140197.891,145244.273,,,
Sounds,html.Screen,1_3_5_0,2021-04-24T18:09:48.012Z,,,,,,,,,,,,,,,,,,,,,,,,,,,,,,,4244.58600000001,,timeout,,,,,,,,,2,,,,,,,,O,S,I,,149473.49000000395,149472.302,145221.654,145236.71999998624,145244.273,149488.859,,,
Judgement,html.Screen,1_3_5_1,2021-04-24T18:09:48.731Z,,,,,,,,,,,,,,,,,,,,,,,,,,,,true,2,,699.6310000004596,,response,,,,,,,,,2,,2,click #choice-2,,,,,O,S,I,,150193.30000001355,150188.49000000046,149472.302,149474.07500000554,149488.859,150208.999,,,
Trial,flow.Sequence,1_3_5,2021-04-24T18:09:48.733Z,,,,,,,,,,,,,,,,,,,,,,,,,,,,,,,4944.21700000047,,completion,,,,,,,,,2,,,,,,,,O,S,I,,150194.51000000117,150188.49000000046,145221.654,145236.62499999045,145244.273,150208.999,,,
Task,flow.Loop,1_3,2021-04-24T18:09:48.744Z,,,,,,,,,,,,,,,,,,,,,,,,,,,,,,,36505.668000000456,,completion,,,0.8333333333333334,,,,,,,,,,,,,,,,,,150206.05499998783,150188.49000000046,113648.838,113668.28499999247,113682.822,150208.999,,,
Trap,html.Screen,1_4,2021-04-24T18:09:48.748Z,,,,,,,,,,,,,,,,,,,,,,,,,,,,,,,NaN,,skipped,,,,,,,,,,,,,,,,,,,,,150210.25999999256,150188.49000000046,,150209.68999998877,,150208.999,,,
Thanks,html.Screen,1_5,2021-04-24T18:09:54.617Z,,,,,,,,,,,,,,,,,,,,,,,,,,,,,,,5865.53100001259,,response,,,,,,,,,,,continue,click button,,,,,,,,,156078.78000001074,156074.5300000126,150189.063,150210.83500000532,150208.999,166817.398,,,
Headphone screening,flow.Sequence,1,2021-04-24T18:09:54.617Z,,,,,,,,,,,,,,,,,,,,,,,,,,,,,,,111648.2590000126,,completion,,,,,,,,,,,,,,,,,,,,,156079.25499998964,156074.5300000126,44392.933,44396.61500000511,44426.271,166817.398,,,
Instructions,html.Page,2_0,2021-04-24T18:10:32.768Z,,,,,,,,,,,,,,,,,,,,,,,,,,,,,,,27411.196999993233,,form submission,,,,,,,,,,,,,,,,,,,,,194229.20000000158,194228.59499999322,166650.548,166690.00999999116,166817.398,194231.663,,,
Holding screen,html.Screen,2_1_0_0,2021-04-24T18:10:42.750Z,,,,,,,,,,,,,,,,,,,,,,,,,,,,,,,10044.969000000012,,timeout,,,,,,,,,,,,,,,,,,,,,204210.9449999989,204209.996,194212.571,194229.72500001197,194231.663,204276.632,,,
screen,html.Screen,2_1_0_1_0,2021-04-24T18:10:45.704Z,,,,,,,,,,,,,,,,,53,,,,,,,,,,,,,,2882.2680000094406,,response,,,,99,,,,,,,Space,keypress(Space),,,,,,,,When -- ----- -- ------ - ------- --- ----------<br>------------- ------ ------ ---- ---- ------- ----- -- ----<br>-------- ------- -- ---------- --- - --- ----- ----- ----<br>---- --- --- ----- --- ---- ---- ------- ----- ---- -------<br>--- --- -- ----- -- --- ---- -- --- ---- -- ------ ------<br>--- ----- -- ----,207164.66499998933,207158.90000000945,204209.996,204211.52499999152,204276.632,207171.082,,0,When
screen,html.Screen,2_1_0_1_1,2021-04-24T18:10:46.467Z,,,,,,,,,,,,,,,,,53,,,,,,,,,,,,,,755.7079999977141,,response,,,,99,,,,,,,Space,keypress(Space),,,,,,,,---- it ----- -- ------ - ------- --- ----------<br>------------- ------ ------ ---- ---- ------- ----- -- ----<br>-------- ------- -- ---------- --- - --- ----- ----- ----<br>---- --- --- ----- --- ---- ---- ------- ----- ---- -------<br>--- --- -- ----- -- --- ---- -- --- ---- -- ------ ------<br>--- ----- -- ----,207927.90499998955,207926.7899999977,207160.994,207165.04500000156,207171.082,207934.224,,1,it
screen,html.Screen,2_1_0_1_2,2021-04-24T18:10:46.975Z,,,,,,,,,,,,,,,,,53,,,,,,,,,,,,,,501.0410000073607,,response,,,,99,,,,,,,Space,keypress(Space),,,,,,,,---- -- comes -- ------ - ------- --- ----------<br>------------- ------ ------ ---- ---- ------- ----- -- ----<br>-------- ------- -- ---------- --- - --- ----- ----- ----<br>---- --- --- ----- --- ---- ---- ------- ----- ---- -------<br>--- --- -- ----- -- --- ---- -- --- ---- -- ------ ------<br>--- ----- -- ----,208436.30999999004,208435.26500000735,207921.456,207928.2050000038,207934.224,208442.646,,2,comes
screen,html.Screen,2_1_0_1_3,2021-04-24T18:10:47.480Z,,,,,,,,,,,,,,,,,53,,,,,,,,,,,,,,497.27400000434136,,response,,,,99,,,,,,,Space,keypress(Space),,,,,,,,---- -- ----- to ------ - ------- --- ----------<br>------------- ------ ------ ---- ---- ------- ----- -- ----<br>-------- ------- -- ---------- --- - --- ----- ----- ----<br>---- --- --- ----- --- ---- ---- ------- ----- ---- -------<br>--- --- -- ----- -- --- ---- -- --- ---- -- ------ ------<br>--- ----- -- ----,208941.01000000956,208939.92000000435,208434.513,208436.6250000021,208442.646,208947.387,,3,to
screen,html.Screen,2_1_0_1_4,2021-04-24T18:10:48.061Z,,,,,,,,,,,,,,,,,53,,,,,,,,,,,,,,573.5429999987828,,response,,,,99,,,,,,,Space,keypress(Space),,,,,,,,---- -- ----- -- having - ------- --- ----------<br>------------- ------ ------ ---- ---- ------- ----- -- ----<br>-------- ------- -- ---------- --- - --- ----- ----- ----<br>---- --- --- ----- --- ---- ---- ------- ----- ---- -------<br>--- --- -- ----- -- --- ---- -- --- ---- -- ------ ------<br>--- ----- -- ----,209522.07000000635,209520.92999999877,208926.242,208941.31500000367,208947.387,209528.394,,4,having
screen,html.Screen,2_1_0_1_5,2021-04-24T18:10:48.513Z,,,,,,,,,,,,,,,,,53,,,,,,,,,,,,,,444.7860000008659,,response,,,,99,,,,,,,Space,keypress(Space),,,,,,,,---- -- ----- -- ------ a ------- --- ----------<br>------------- ------ ------ ---- ---- ------- ----- -- ----<br>-------- ------- -- ---------- --- - --- ----- ----- ----<br>---- --- --- ----- --- ---- ---- ------- ----- ---- -------<br>--- --- -- ----- -- --- ---- -- --- ---- -- ------ ------<br>--- ----- -- ----,209974.25500000827,209973.18000000087,209514.35,209522.36500001163,209528.394,209980.583,,5,a
screen,html.Screen,2_1_0_1_6,2021-04-24T18:10:49.778Z,,,,,,,,,,,,,,,,,53,,,,,,,,,,,,,,1257.7669999996142,,response,,,,99,,,,,,,Space,keypress(Space),,,,,,,,---- -- ----- -- ------ - lasting --- ----------<br>------------- ------ ------ ---- ---- ------- ----- -- ----<br>-------- ------- -- ---------- --- - --- ----- ----- ----<br>---- --- --- ----- --- ---- ---- ------- ----- ---- -------<br>--- --- -- ----- -- --- ---- -- --- ---- -- ------ ------<br>--- ----- -- ----,211239.3699999957,211238.34999999963,209961.963,209974.56000000238,209980.583,211245.758,,6,lasting
screen,html.Screen,2_1_0_1_7,2021-04-24T18:10:50.397Z,,,,,,,,,,,,,,,,,53,,,,,,,,,,,,,,611.7169999970647,,response,,,,99,,,,,,,Space,keypress(Space),,,,,,,,---- -- ----- -- ------ - ------- and ----------<br>------------- ------ ------ ---- ---- ------- ----- -- ----<br>-------- ------- -- ---------- --- - --- ----- ----- ----<br>---- --- --- ----- --- ---- ---- ------- ----- ---- -------<br>--- --- -- ----- -- --- ---- -- --- ---- -- ------ ------<br>--- ----- -- ----,211858.52000000887,211857.47499999707,211231.006,211239.70000000554,211245.758,211875.506,,7,and
screen,html.Screen,2_1_0_1_8,2021-04-24T18:10:51.104Z,,,,,,,,,,,,,,,,,53,,,,,,,,,,,,,,688.6190000044298,,response,,,,99,,,,,,,Space,keypress(Space),,,,,,,,---- -- ----- -- ------ - ------- --- fulfilling<br>------------- ------ ------ ---- ---- ------- ----- -- ----<br>-------- ------- -- ---------- --- - --- ----- ----- ----<br>---- --- --- ----- --- ---- ---- ------- ----- ---- -------<br>--- --- -- ----- -- --- ---- -- --- ---- -- ------ ------<br>--- ----- -- ----,212565.19500000286,212564.12500000442,211846.054,211858.8349999918,211875.506,212571.598,,8,fulfilling
screen,html.Screen,2_1_0_1_9,2021-04-24T18:10:51.728Z,,,,,,,,,,,,,,,,,53,,,,,,,,,,,,,,616.5370000039693,,response,,,,99,,,,,,,Space,keypress(Space),,,,,,,,"---- -- ----- -- ------ - ------- --- ----------<br>relationship, ------ ------ ---- ---- ------- ----- -- ----<br>-------- ------- -- ---------- --- - --- ----- ----- ----<br>---- --- --- ----- --- ---- ---- ------- ----- ---- -------<br>--- --- -- ----- -- --- ---- -- --- ---- -- ------ ------<br>--- ----- -- ----",213189.2050000024,213188.13500000397,212559.071,212565.5099999858,212571.598,213195.531,,9,"relationship,"
screen,html.Screen,2_1_0_1_10,2021-04-24T18:10:52.363Z,,,,,,,,,,,,,,,,,53,,,,,,,,,,,,,,628.1239999856043,,response,,,,99,,,,,,,Space,keypress(Space),,,,,,,,---- -- ----- -- ------ - ------- --- ----------<br>------------- common ------ ---- ---- ------- ----- -- ----<br>-------- ------- -- ---------- --- - --- ----- ----- ----<br>---- --- --- ----- --- ---- ---- ------- ----- ---- -------<br>--- --- -- ----- -- --- ---- -- --- ---- -- ------ ------<br>--- ----- -- ----,213824.44999998552,213823.6549999856,213188.482,213189.5150000055,213195.531,213832.23,,10,common
screen,html.Screen,2_1_0_1_11,2021-04-24T18:10:52.892Z,,,,,,,,,,,,,,,,,53,,,,,,,,,,,,,,520.3399999881804,,response,,,,99,,,,,,,Space,keypress(Space),,,,,,,,---- -- ----- -- ------ - ------- --- ----------<br>------------- ------ wisdom ---- ---- ------- ----- -- ----<br>-------- ------- -- ---------- --- - --- ----- ----- ----<br>---- --- --- ----- --- ---- ---- ------- ----- ---- -------<br>--- --- -- ----- -- --- ---- -- --- ---- -- ------ ------<br>--- ----- -- ----,214353.65000000456,214352.5699999882,213812.432,213824.77999999537,213832.23,214359.947,,11,wisdom
screen,html.Screen,2_1_0_1_12,2021-04-24T18:10:53.507Z,,,,,,,,,,,,,,,,,53,,,,,,,,,,,,,,607.2079999911948,,response,,,,99,,,,,,,Space,keypress(Space),,,,,,,,---- -- ----- -- ------ - ------- --- ----------<br>------------- ------ ------ says ---- ------- ----- -- ----<br>-------- ------- -- ---------- --- - --- ----- ----- ----<br>---- --- --- ----- --- ---- ---- ------- ----- ---- -------<br>--- --- -- ----- -- --- ---- -- --- ---- -- ------ ------<br>--- ----- -- ----,214968.1799999962,214967.15499999118,214348.996,214353.95499999868,214359.947,214974.583,,12,says
screen,html.Screen,2_1_0_1_13,2021-04-24T18:10:54.075Z,,,,,,,,,,,,,,,,,53,,,,,,,,,,,,,,560.9969999961031,,response,,,,99,,,,,,,Space,keypress(Space),,,,,,,,---- -- ----- -- ------ - ------- --- ----------<br>------------- ------ ------ ---- that ------- ----- -- ----<br>-------- ------- -- ---------- --- - --- ----- ----- ----<br>---- --- --- ----- --- ---- ---- ------- ----- ---- -------<br>--- --- -- ----- -- --- ---- -- --- ---- -- ------ ------<br>--- ----- -- ----,215536.5800000145,215535.57999999612,214960.245,214968.53000001283,214974.583,215542.958,,13,that
screen,html.Screen,2_1_0_1_14,2021-04-24T18:10:54.631Z,,,,,,,,,,,,,,,,,53,,,,,,,,,,,,,,548.0919999881589,,response,,,,99,,,,,,,Space,keypress(Space),,,,,,,,---- -- ----- -- ------ - ------- --- ----------<br>------------- ------ ------ ---- ---- feeling ----- -- ----<br>-------- ------- -- ---------- --- - --- ----- ----- ----<br>---- --- --- ----- --- ---- ---- ------- ----- ---- -------<br>--- --- -- ----- -- --- ---- -- --- ---- -- ------ ------<br>--- ----- -- ----,216092.089999991,216091.04999998817,215524.806,215536.90000000643,215542.958,216115.254,,14,feeling
screen,html.Screen,2_1_0_1_15,2021-04-24T18:10:55.344Z,,,,,,,,,,,,,,,,,53,,,,,,,,,,,,,,689.1259999868635,,response,,,,99,,,,,,,Space,keypress(Space),,,,,,,,---- -- ----- -- ------ - ------- --- ----------<br>------------- ------ ------ ---- ---- ------- close -- ----<br>-------- ------- -- ---------- --- - --- ----- ----- ----<br>---- --- --- ----- --- ---- ---- ------- ----- ---- -------<br>--- --- -- ----- -- --- ---- -- --- ---- -- ------ ------<br>--- ----- -- ----,216805.4650000122,216804.37999998685,216098.634,216092.40500000305,216115.254,216811.807,,15,close
screen,html.Screen,2_1_0_1_16,2021-04-24T18:10:55.735Z,,,,,,,,,,,,,,,,,53,,,,,,,,,,,,,,382.6130000143603,,response,,,,99,,,,,,,Space,keypress(Space),,,,,,,,---- -- ----- -- ------ - ------- --- ----------<br>------------- ------ ------ ---- ---- ------- ----- to ----<br>-------- ------- -- ---------- --- - --- ----- ----- ----<br>---- --- --- ----- --- ---- ---- ------- ----- ---- -------<br>--- --- -- ----- -- --- ---- -- --- ---- -- ------ ------<br>--- ----- -- ----,217195.7800000091,217194.42000001436,216798.812,216805.77499998617,216811.807,217202.185,,16,to
screen,html.Screen,2_1_0_1_17,2021-04-24T18:10:56.260Z,,,,,,,,,,,,,,,,,53,,,,,,,,,,,,,,517.6700000030105,,response,,,,99,,,,,,,Space,keypress(Space),,,,,,,,---- -- ----- -- ------ - ------- --- ----------<br>------------- ------ ------ ---- ---- ------- ----- -- your<br>-------- ------- -- ---------- --- - --- ----- ----- ----<br>---- --- --- ----- --- ---- ---- ------- ----- ---- -------<br>--- --- -- ----- -- --- ---- -- --- ---- -- ------ ------<br>--- ----- -- ----,217720.96499998588,217719.855000003,217195.387,217196.179999999,217202.185,217732.9,,17,your
screen,html.Screen,2_1_0_1_18,2021-04-24T18:10:56.881Z,,,,,,,,,,,,,,,,,53,,,,,,,,,,,,,,608.6699999895936,,response,,,,99,,,,,,,Space,keypress(Space),,,,,,,,---- -- ----- -- ------ - ------- --- ----------<br>------------- ------ ------ ---- ---- ------- ----- -- ----<br>romantic ------- -- ---------- --- - --- ----- ----- ----<br>---- --- --- ----- --- ---- ---- ------- ----- ---- -------<br>--- --- -- ----- -- --- ---- -- --- ---- -- ------ ------<br>--- ----- -- ----,218342.6000000036,218341.5699999896,217719.017,217721.54999998747,217732.9,218348.948,,18,romantic
screen,html.Screen,2_1_0_1_19,2021-04-24T18:10:57.354Z,,,,,,,,,,,,,,,,,53,,,,,,,,,,,,,,465.19700001119054,,response,,,,99,,,,,,,Space,keypress(Space),,,,,,,,---- -- ----- -- ------ - ------- --- ----------<br>------------- ------ ------ ---- ---- ------- ----- -- ----<br>-------- partner -- ---------- --- - --- ----- ----- ----<br>---- --- --- ----- --- ---- ---- ------- ----- ---- -------<br>--- --- -- ----- -- --- ---- -- --- ---- -- ------ ------<br>--- ----- -- ----,218815.2199999895,218814.1450000112,218333.119,218342.9199999955,218348.948,218821.849,,19,partner
screen,html.Screen,2_1_0_1_20,2021-04-24T18:10:57.825Z,,,,,,,,,,,,,,,,,53,,,,,,,,,,,,,,463.3859999884735,,response,,,,99,,,,,,,Space,keypress(Space),,,,,,,,---- -- ----- -- ------ - ------- --- ----------<br>------------- ------ ------ ---- ---- ------- ----- -- ----<br>-------- ------- is ---------- --- - --- ----- ----- ----<br>---- --- --- ----- --- ---- ---- ------- ----- ---- -------<br>--- --- -- ----- -- --- ---- -- --- ---- -- ------ ------<br>--- ----- -- ----,219286.2749999913,219285.23499998846,218815.903,218815.76500000665,218821.849,219292.583,,20,is
screen,html.Screen,2_1_0_1_21,2021-04-24T18:10:58.345Z,,,,,,,,,,,,,,,,,53,,,,,,,,,,,,,,512.3069999994186,,response,,,,99,,,,,,,Space,keypress(Space),,,,,,,,---- -- ----- -- ------ - ------- --- ----------<br>------------- ------ ------ ---- ---- ------- ----- -- ----<br>-------- ------- -- paramount. --- - --- ----- ----- ----<br>---- --- --- ----- --- ---- ---- ------- ----- ---- -------<br>--- --- -- ----- -- --- ---- -- --- ---- -- ------ ------<br>--- ----- -- ----,219806.02499999804,219804.88999999943,219271.973,219286.5800000145,219292.583,219812.367,,21,paramount.
screen,html.Screen,2_1_0_1_22,2021-04-24T18:10:59.009Z,,,,,,,,,,,,,,,,,53,,,,,,,,,,,,,,656.4629999979807,,response,,,,99,,,,,,,Space,keypress(Space),,,,,,,,---- -- ----- -- ------ - ------- --- ----------<br>------------- ------ ------ ---- ---- ------- ----- -- ----<br>-------- ------- -- ---------- But - --- ----- ----- ----<br>---- --- --- ----- --- ---- ---- ------- ----- ---- -------<br>--- --- -- ----- -- --- ---- -- --- ---- -- ------ ------<br>--- ----- -- ----,220470.1950000017,220468.82999999798,219792.78,219806.3400000101,219812.367,220476.953,,22,But
screen,html.Screen,2_1_0_1_23,2021-04-24T18:10:59.483Z,,,,,,,,,,,,,,,,,53,,,,,,,,,,,,,,466.51699999833363,,response,,,,99,,,,,,,Space,keypress(Space),,,,,,,,---- -- ----- -- ------ - ------- --- ----------<br>------------- ------ ------ ---- ---- ------- ----- -- ----<br>-------- ------- -- ---------- --- a --- ----- ----- ----<br>---- --- --- ----- --- ---- ---- ------- ----- ---- -------<br>--- --- -- ----- -- --- ---- -- --- ---- -- ------ ------<br>--- ----- -- ----,220944.1850000003,220943.46999999834,220462.61,220470.73999998975,220476.953,220948.583,,23,a
screen,html.Screen,2_1_0_1_24,2021-04-24T18:10:59.969Z,,,,,,,,,,,,,,,,,53,,,,,,,,,,,,,,480.5970000064408,,response,,,,99,,,,,,,Space,keypress(Space),,,,,,,,---- -- ----- -- ------ - ------- --- ----------<br>------------- ------ ------ ---- ---- ------- ----- -- ----<br>-------- ------- -- ---------- --- - new ----- ----- ----<br>---- --- --- ----- --- ---- ---- ------- ----- ---- -------<br>--- --- -- ----- -- --- ---- -- --- ---- -- ------ ------<br>--- ----- -- ----,221430.43999999645,221429.18000000645,220943.967,220944.38000000082,220948.583,221436.782,,24,new
screen,html.Screen,2_1_0_1_25,2021-04-24T18:11:00.586Z,,,,,,,,,,,,,,,,,53,,,,,,,,,,,,,,609.6280000099214,,response,,,,99,,,,,,,Space,keypress(Space),,,,,,,,---- -- ----- -- ------ - ------- --- ----------<br>------------- ------ ------ ---- ---- ------- ----- -- ----<br>-------- ------- -- ---------- --- - --- study ----- ----<br>---- --- --- ----- --- ---- ---- ------- ----- ---- -------<br>--- --- -- ----- -- --- ---- -- --- ---- -- ------ ------<br>--- ----- -- ----,222047.60499999975,222046.41000000993,221415.395,221430.76499999734,221436.782,222062.999,,25,study
screen,html.Screen,2_1_0_1_26,2021-04-24T18:11:01.266Z,,,,,,,,,,,,,,,,,53,,,,,,,,,,,,,,662.965999990527,,response,,,,99,,,,,,,Space,keypress(Space),,,,,,,,---- -- ----- -- ------ - ------- --- ----------<br>------------- ------ ------ ---- ---- ------- ----- -- ----<br>-------- ------- -- ---------- --- - --- ----- finds ----<br>---- --- --- ----- --- ---- ---- ------- ----- ---- -------<br>--- --- -- ----- -- --- ---- -- --- ---- -- ------ ------<br>--- ----- -- ----,222726.79499999504,222725.96499999054,222036.937,222048.060000001,222062.999,222732.951,,26,finds
screen,html.Screen,2_1_0_1_27,2021-04-24T18:11:01.899Z,,,,,,,,,,,,,,,,,53,,,,,,,,,,,,,,626.0690000035102,,response,,,,99,,,,,,,Space,keypress(Space),,,,,,,,---- -- ----- -- ------ - ------- --- ----------<br>------------- ------ ------ ---- ---- ------- ----- -- ----<br>-------- ------- -- ---------- --- - --- ----- ----- that<br>---- --- --- ----- --- ---- ---- ------- ----- ---- -------<br>--- --- -- ----- -- --- ---- -- --- ---- -- ------ ------<br>--- ----- -- ----,223360.17999998876,223359.0200000035,222713.184,222727.09000000032,222732.951,223366.468,,27,that
screen,html.Screen,2_1_0_1_28,2021-04-24T18:11:02.719Z,,,,,,,,,,,,,,,,,53,,,,,,,,,,,,,,811.9719999887748,,response,,,,99,,,,,,,Space,keypress(Space),,,,,,,,---- -- ----- -- ------ - ------- --- ----------<br>------------- ------ ------ ---- ---- ------- ----- -- ----<br>-------- ------- -- ---------- --- - --- ----- ----- ----<br>it's --- --- ----- --- ---- ---- ------- ----- ---- -------<br>--- --- -- ----- -- --- ---- -- --- ---- -- ------ ------<br>--- ----- -- ----,224179.85499999486,224178.43999998877,223349.753,223360.50000000978,223366.468,224187.164,,28,it's
screen,html.Screen,2_1_0_1_29,2021-04-24T18:11:03.252Z,,,,,,,,,,,,,,,,,53,,,,,,,,,,,,,,524.7410000037635,,response,,,,99,,,,,,,Space,keypress(Space),,,,,,,,---- -- ----- -- ------ - ------- --- ----------<br>------------- ------ ------ ---- ---- ------- ----- -- ----<br>-------- ------- -- ---------- --- - --- ----- ----- ----<br>---- not --- ----- --- ---- ---- ------- ----- ---- -------<br>--- --- -- ----- -- --- ---- -- --- ---- -- ------ ------<br>--- ----- -- ----,224713.31500000088,224711.90500000375,224166.706,224180.3249999939,224187.164,224720.203,,29,not
screen,html.Screen,2_1_0_1_30,2021-04-24T18:11:03.754Z,,,,,,,,,,,,,,,,,53,,,,,,,,,,,,,,493.78200000940706,,response,,,,99,,,,,,,Space,keypress(Space),,,,,,,,---- -- ----- -- ------ - ------- --- ----------<br>------------- ------ ------ ---- ---- ------- ----- -- ----<br>-------- ------- -- ---------- --- - --- ----- ----- ----<br>---- --- how ----- --- ---- ---- ------- ----- ---- -------<br>--- --- -- ----- -- --- ---- -- --- ---- -- ------ ------<br>--- ----- -- ----,225215.28999999282,225213.98500000942,224703.612,224713.7550000043,224720.203,225222.054,,30,how
screen,html.Screen,2_1_0_1_31,2021-04-24T18:11:04.317Z,,,,,,,,,,,,,,,,,53,,,,,,,,,,,,,,555.025999999838,,response,,,,99,,,,,,,Space,keypress(Space),,,,,,,,---- -- ----- -- ------ - ------- --- ----------<br>------------- ------ ------ ---- ---- ------- ----- -- ----<br>-------- ------- -- ---------- --- - --- ----- ----- ----<br>---- --- --- close --- ---- ---- ------- ----- ---- -------<br>--- --- -- ----- -- --- ---- -- --- ---- -- ------ ------<br>--- ----- -- ----,225778.29499999643,225777.07999999984,225203.645,225215.99500000593,225222.054,225784.622,,31,close
screen,html.Screen,2_1_0_1_32,2021-04-24T18:11:04.797Z,,,,,,,,,,,,,,,,,53,,,,,,,,,,,,,,472.38800000117044,,response,,,,99,,,,,,,Space,keypress(Space),,,,,,,,---- -- ----- -- ------ - ------- --- ----------<br>------------- ------ ------ ---- ---- ------- ----- -- ----<br>-------- ------- -- ---------- --- - --- ----- ----- ----<br>---- --- --- ----- you ---- ---- ------- ----- ---- -------<br>--- --- -- ----- -- --- ---- -- --- ---- -- ------ ------<br>--- ----- -- ----,226258.0350000062,226257.01000000117,225772.176,225778.60499999952,225784.622,226264.375,,32,you
screen,html.Screen,2_1_0_1_33,2021-04-24T18:11:05.255Z,,,,,,,,,,,,,,,,,53,,,,,,,,,,,,,,450.8799999882467,,response,,,,99,,,,,,,Space,keypress(Space),,,,,,,,---- -- ----- -- ------ - ------- --- ----------<br>------------- ------ ------ ---- ---- ------- ----- -- ----<br>-------- ------- -- ---------- --- - --- ----- ----- ----<br>---- --- --- ----- --- feel ---- ------- ----- ---- -------<br>--- --- -- ----- -- --- ---- -- --- ---- -- ------ ------<br>--- ----- -- ----,226716.38999998686,226715.25499998825,226251.424,226258.34500000929,226264.375,226722.744,,33,feel
screen,html.Screen,2_1_0_1_34,2021-04-24T18:11:05.703Z,,,,,,,,,,,,,,,,,53,,,,,,,,,,,,,,439.7560000058147,,response,,,,99,,,,,,,Space,keypress(Space),,,,,,,,---- -- ----- -- ------ - ------- --- ----------<br>------------- ------ ------ ---- ---- ------- ----- -- ----<br>-------- ------- -- ---------- --- - --- ----- ----- ----<br>---- --- --- ----- --- ---- that ------- ----- ---- -------<br>--- --- -- ----- -- --- ---- -- --- ---- -- ------ ------<br>--- ----- -- ----,227164.00499999872,227162.50000000582,226714.609,226716.71499998774,226722.744,227177.524,,34,that
screen,html.Screen,2_1_0_1_35,2021-04-24T18:11:06.265Z,,,,,,,,,,,,,,,,,53,,,,,,,,,,,,,,547.6159999950032,,response,,,,99,,,,,,,Space,keypress(Space),,,,,,,,---- -- ----- -- ------ - ------- --- ----------<br>------------- ------ ------ ---- ---- ------- ----- -- ----<br>-------- ------- -- ---------- --- - --- ----- ----- ----<br>---- --- --- ----- --- ---- ---- matters ----- ---- -------<br>--- --- -- ----- -- --- ---- -- --- ---- -- ------ ------<br>--- ----- -- ----,227726.25499998685,227725.139999995,227156.324,227164.40000000875,227177.524,227734.145,,35,matters
screen,html.Screen,2_1_0_1_36,2021-04-24T18:11:07.260Z,,,,,,,,,,,,,,,,,53,,,,,,,,,,,,,,985.2949999862176,,response,,,,99,,,,,,,Space,keypress(Space),,,,,,,,"---- -- ----- -- ------ - ------- --- ----------<br>------------- ------ ------ ---- ---- ------- ----- -- ----<br>-------- ------- -- ---------- --- - --- ----- ----- ----<br>---- --- --- ----- --- ---- ---- ------- most, ---- -------<br>--- --- -- ----- -- --- ---- -- --- ---- -- ------ ------<br>--- ----- -- ----",228720.90499999467,228719.4399999862,227727.505,227728.16500000772,227734.145,228727.272,,36,"most,"
screen,html.Screen,2_1_0_1_37,2021-04-24T18:11:07.801Z,,,,,,,,,,,,,,,,,53,,,,,,,,,,,,,,533.6429999916581,,response,,,,99,,,,,,,Space,keypress(Space),,,,,,,,---- -- ----- -- ------ - ------- --- ----------<br>------------- ------ ------ ---- ---- ------- ----- -- ----<br>-------- ------- -- ---------- --- - --- ----- ----- ----<br>---- --- --- ----- --- ---- ---- ------- ----- it's -------<br>--- --- -- ----- -- --- ---- -- --- ---- -- ------ ------<br>--- ----- -- ----,229261.94500000565,229260.91499999166,228717.886,228721.27999999793,228727.272,229268.273,,37,it's
screen,html.Screen,2_1_0_1_38,2021-04-24T18:11:08.480Z,,,,,,,,,,,,,,,,,53,,,,,,,,,,,,,,671.9920000120183,,response,,,,99,,,,,,,Space,keypress(Space),,,,,,,,---- -- ----- -- ------ - ------- --- ----------<br>------------- ------ ------ ---- ---- ------- ----- -- ----<br>-------- ------- -- ---------- --- - --- ----- ----- ----<br>---- --- --- ----- --- ---- ---- ------- ----- ---- whether<br>--- --- -- ----- -- --- ---- -- --- ---- -- ------ ------<br>--- ----- -- ----,229941.30000000587,229940.265000012,229260.903,229262.2599999886,229268.273,229947.633,,38,whether
screen,html.Screen,2_1_0_1_39,2021-04-24T18:11:09.219Z,,,,,,,,,,,,,,,,,53,,,,,,,,,,,,,,731.6470000112022,,response,,,,99,,,,,,,Space,keypress(Space),,,,,,,,---- -- ----- -- ------ - ------- --- ----------<br>------------- ------ ------ ---- ---- ------- ----- -- ----<br>-------- ------- -- ---------- --- - --- ----- ----- ----<br>---- --- --- ----- --- ---- ---- ------- ----- ---- -------<br>you --- -- ----- -- --- ---- -- --- ---- -- ------ ------<br>--- ----- -- ----,230680.31500000507,230679.2800000112,229935.116,229941.599999991,229947.633,230703.517,,39,you
screen,html.Screen,2_1_0_1_40,2021-04-24T18:11:09.797Z,,,,,,,,,,,,,,,,,53,,,,,,,,,,,,,,553.1530000024941,,response,,,,99,,,,,,,Space,keypress(Space),,,,,,,,---- -- ----- -- ------ - ------- --- ----------<br>------------- ------ ------ ---- ---- ------- ----- -- ----<br>-------- ------- -- ---------- --- - --- ----- ----- ----<br>---- --- --- ----- --- ---- ---- ------- ----- ---- -------<br>--- are -- ----- -- --- ---- -- --- ---- -- ------ ------<br>--- ----- -- ----,231257.71000000532,231256.6700000025,230686.793,230680.60500000138,230703.517,231267.474,,40,are
screen,html.Screen,2_1_0_1_41,2021-04-24T18:11:10.359Z,,,,,,,,,,,,,,,,,53,,,,,,,,,,,,,,551.7810000094469,,response,,,,99,,,,,,,Space,keypress(Space),,,,,,,,---- -- ----- -- ------ - ------- --- ----------<br>------------- ------ ------ ---- ---- ------- ----- -- ----<br>-------- ------- -- ---------- --- - --- ----- ----- ----<br>---- --- --- ----- --- ---- ---- ------- ----- ---- -------<br>--- --- as ----- -- --- ---- -- --- ---- -- ------ ------<br>--- ----- -- ----,231820.5050000106,231819.25500000943,231253.549,231258.00999999046,231267.474,231827.084,,41,as
screen,html.Screen,2_1_0_1_42,2021-04-24T18:11:10.908Z,,,,,,,,,,,,,,,,,53,,,,,,,,,,,,,,540.8110000030429,,response,,,,99,,,,,,,Space,keypress(Space),,,,,,,,---- -- ----- -- ------ - ------- --- ----------<br>------------- ------ ------ ---- ---- ------- ----- -- ----<br>-------- ------- -- ---------- --- - --- ----- ----- ----<br>---- --- --- ----- --- ---- ---- ------- ----- ---- -------<br>--- --- -- close -- --- ---- -- --- ---- -- ------ ------<br>--- ----- -- ----,232368.96500000148,232367.89500000305,231817.705,231821.0100000142,231827.084,232375.264,,42,close
screen,html.Screen,2_1_0_1_43,2021-04-24T18:11:11.445Z,,,,,,,,,,,,,,,,,53,,,,,,,,,,,,,,529.6659999896947,,response,,,,99,,,,,,,Space,keypress(Space),,,,,,,,---- -- ----- -- ------ - ------- --- ----------<br>------------- ------ ------ ---- ---- ------- ----- -- ----<br>-------- ------- -- ---------- --- - --- ----- ----- ----<br>---- --- --- ----- --- ---- ---- ------- ----- ---- -------<br>--- --- -- ----- as --- ---- -- --- ---- -- ------ ------<br>--- ----- -- ----,232905.96500001266,232904.9299999897,232360.734,232369.24999998882,232375.264,232912.468,,43,as
screen,html.Screen,2_1_0_1_44,2021-04-24T18:11:11.922Z,,,,,,,,,,,,,,,,,53,,,,,,,,,,,,,,469.25700001383666,,response,,,,99,,,,,,,Space,keypress(Space),,,,,,,,---- -- ----- -- ------ - ------- --- ----------<br>------------- ------ ------ ---- ---- ------- ----- -- ----<br>-------- ------- -- ---------- --- - --- ----- ----- ----<br>---- --- --- ----- --- ---- ---- ------- ----- ---- -------<br>--- --- -- ----- -- you ---- -- --- ---- -- ------ ------<br>--- ----- -- ----,233382.74000000092,233381.72500001383,232892.185,232906.29000001354,232912.468,233389.038,,44,you
screen,html.Screen,2_1_0_1_45,2021-04-24T18:11:12.525Z,,,,,,,,,,,,,,,,,53,,,,,,,,,,,,,,595.1419999994687,,response,,,,99,,,,,,,Space,keypress(Space),,,,,,,,---- -- ----- -- ------ - ------- --- ----------<br>------------- ------ ------ ---- ---- ------- ----- -- ----<br>-------- ------- -- ---------- --- - --- ----- ----- ----<br>---- --- --- ----- --- ---- ---- ------- ----- ---- -------<br>--- --- -- ----- -- --- want -- --- ---- -- ------ ------<br>--- ----- -- ----,233985.66999999457,233984.17999999947,233379.198,233383.0350000062,233389.038,233992.27,,45,want
screen,html.Screen,2_1_0_1_46,2021-04-24T18:11:12.967Z,,,,,,,,,,,,,,,,,53,,,,,,,,,,,,,,434.48499999314663,,response,,,,99,,,,,,,Space,keypress(Space),,,,,,,,---- -- ----- -- ------ - ------- --- ----------<br>------------- ------ ------ ---- ---- ------- ----- -- ----<br>-------- ------- -- ---------- --- - --- ----- ----- ----<br>---- --- --- ----- --- ---- ---- ------- ----- ---- -------<br>--- --- -- ----- -- --- ---- to --- ---- -- ------ ------<br>--- ----- -- ----,234427.87499999395,234426.75499999314,233972.729,233986.03999998886,233992.27,234434.184,,46,to
screen,html.Screen,2_1_0_1_47,2021-04-24T18:11:13.437Z,,,,,,,,,,,,,,,,,53,,,,,,,,,,,,,,463.39100000995677,,response,,,,99,,,,,,,Space,keypress(Space),,,,,,,,"---- -- ----- -- ------ - ------- --- ----------<br>------------- ------ ------ ---- ---- ------- ----- -- ----<br>-------- ------- -- ---------- --- - --- ----- ----- ----<br>---- --- --- ----- --- ---- ---- ------- ----- ---- -------<br>--- --- -- ----- -- --- ---- -- be, ---- -- ------ ------<br>--- ----- -- ----",234898.61999999266,234897.57500000997,234425.557,234428.1750000082,234434.184,234904.848,,47,"be,"
screen,html.Screen,2_1_0_1_48,2021-04-24T18:11:13.992Z,,,,,,,,,,,,,,,,,53,,,,,,,,,,,,,,547.2770000107121,,response,,,,99,,,,,,,Space,keypress(Space),,,,,,,,---- -- ----- -- ------ - ------- --- ----------<br>------------- ------ ------ ---- ---- ------- ----- -- ----<br>-------- ------- -- ---------- --- - --- ----- ----- ----<br>---- --- --- ----- --- ---- ---- ------- ----- ---- -------<br>--- --- -- ----- -- --- ---- -- --- even -- ------ ------<br>--- ----- -- ----,235453.13499998883,235452.1250000107,234884.439,234898.8900000113,234904.848,235459.456,,48,even
screen,html.Screen,2_1_0_1_49,2021-04-24T18:11:14.462Z,,,,,,,,,,,,,,,,,53,,,,,,,,,,,,,,462.4789999912027,,response,,,,99,,,,,,,Space,keypress(Space),,,,,,,,---- -- ----- -- ------ - ------- --- ----------<br>------------- ------ ------ ---- ---- ------- ----- -- ----<br>-------- ------- -- ---------- --- - --- ----- ----- ----<br>---- --- --- ----- --- ---- ---- ------- ----- ---- -------<br>--- --- -- ----- -- --- ---- -- --- ---- if ------ ------<br>--- ----- -- ----,235922.9650000052,235921.9349999912,235438.481,235453.42000000528,235459.456,235929.276,,49,if
screen,html.Screen,2_1_0_1_50,2021-04-24T18:11:14.973Z,,,,,,,,,,,,,,,,,53,,,,,,,,,,,,,,504.00399999745423,,response,,,,99,,,,,,,Space,keypress(Space),,,,,,,,---- -- ----- -- ------ - ------- --- ----------<br>------------- ------ ------ ---- ---- ------- ----- -- ----<br>-------- ------- -- ---------- --- - --- ----- ----- ----<br>---- --- --- ----- --- ---- ---- ------- ----- ---- -------<br>--- --- -- ----- -- --- ---- -- --- ---- -- that's ------<br>--- ----- -- ----,236434.2900000047,236433.27999999747,235909.54,235923.24500001268,235929.276,236440.853,,50,that's
screen,html.Screen,2_1_0_1_51,2021-04-24T18:11:15.764Z,,,,,,,,,,,,,,,,,53,,,,,,,,,,,,,,783.0970000141533,,response,,,,99,,,,,,,Space,keypress(Space),,,,,,,,---- -- ----- -- ------ - ------- --- ----------<br>------------- ------ ------ ---- ---- ------- ----- -- ----<br>-------- ------- -- ---------- --- - --- ----- ----- ----<br>---- --- --- ----- --- ---- ---- ------- ----- ---- -------<br>--- --- -- ----- -- --- ---- -- --- ---- -- ------ really<br>--- ----- -- ----,237225.1099999994,237223.95000001416,236429.532,236434.73999999696,236440.853,237231.405,,51,really
screen,html.Screen,2_1_0_1_52,2021-04-24T18:11:16.348Z,,,,,,,,,,,,,,,,,53,,,,,,,,,,,,,,576.3150000116148,,response,,,,99,,,,,,,Space,keypress(Space),,,,,,,,---- -- ----- -- ------ - ------- --- ----------<br>------------- ------ ------ ---- ---- ------- ----- -- ----<br>-------- ------- -- ---------- --- - --- ----- ----- ----<br>---- --- --- ----- --- ---- ---- ------- ----- ---- -------<br>--- --- -- ----- -- --- ---- -- --- ---- -- ------ ------<br>not ----- -- ----,237808.77000000328,237807.7200000116,237224.44,237225.39499998675,237231.405,237815.105,,52,not
screen,html.Screen,2_1_0_1_53,2021-04-24T18:11:17.028Z,,,,,,,,,,,,,,,,,53,,,,,,,,,,,,,,673.4349999911792,,response,,,,99,,,,,,,Space,keypress(Space),,,,,,,,---- -- ----- -- ------ - ------- --- ----------<br>------------- ------ ------ ---- ---- ------- ----- -- ----<br>-------- ------- -- ---------- --- - --- ----- ----- ----<br>---- --- --- ----- --- ---- ---- ------- ----- ---- -------<br>--- --- -- ----- -- --- ---- -- --- ---- -- ------ ------<br>--- close -- ----,238489.54999999842,238488.5399999912,237798.254,237809.06999998842,237815.105,238495.847,,53,close
screen,html.Screen,2_1_0_1_54,2021-04-24T18:11:17.672Z,,,,,,,,,,,,,,,,,53,,,,,,,,,,,,,,636.5829999978305,,response,,,,99,,,,,,,Space,keypress(Space),,,,,,,,---- -- ----- -- ------ - ------- --- ----------<br>------------- ------ ------ ---- ---- ------- ----- -- ----<br>-------- ------- -- ---------- --- - --- ----- ----- ----<br>---- --- --- ----- --- ---- ---- ------- ----- ---- -------<br>--- --- -- ----- -- --- ---- -- --- ---- -- ------ ------<br>--- ----- at ----,239133.42500000726,239132.42999999784,238482.039,238489.83499998576,238495.847,239140.042,,54,at
screen,html.Screen,2_1_0_1_55,2021-04-24T18:11:19.049Z,,,,,,,,,,,,,,,,,53,,,,,,,,,,,,,,1369.548000001494,,response,,,,99,,,,,,,Space,keypress(Space),,,,,,,,---- -- ----- -- ------ - ------- --- ----------<br>------------- ------ ------ ---- ---- ------- ----- -- ----<br>-------- ------- -- ---------- --- - --- ----- ----- ----<br>---- --- --- ----- --- ---- ---- ------- ----- ---- -------<br>--- --- -- ----- -- --- ---- -- --- ---- -- ------ ------<br>--- ----- -- all.,240510.60499998857,240509.59000000148,239129.481,239133.91500001308,239140.042,240517.759,,55,all.
Item 99,flow.Loop,2_1_0_1,2021-04-24T18:11:19.050Z,,,,,,,,,,,,,,,,,,,,,,,,,,,,,,,36232.95800000147,,completion,,,,,E,,,,,,,,,,,silence,,,,,240511.1549999856,240509.59000000148,204209.996,204211.34000000893,204276.632,240517.759,,,
Question 1,html.Screen,2_1_0_2,2021-04-24T18:11:30.084Z,,,,,,,,,,,,,,,,,,,,,,,,,,,,true,FALSE,,11024.520999994216,,response,,,,99,E,,,,,,FALSE,click #choice-2,,,,silence,,,,,251545.13499999302,251542.2799999942,240507.236,240511.42500000424,240517.759,251575.367,,,
Question 2,html.Screen,2_1_0_3,2021-04-24T18:11:37.535Z,,,,,,,,,,,,,,,,,,,,,,,,,,,,true,TRUE,,7416.328000004258,,response,,,,99,E,,,,,,TRUE,click #choice-1,,,,silence,,,,,258995.77000000863,258991.69500000426,251558.737,251545.32999999356,251575.367,259005.726,,,
Item 99,flow.Sequence,2_1_0,2021-04-24T18:11:37.535Z,,,,,,,,,,,,,,,,,,,,,,,,,,,,,,,64760.032000004256,,completion,,,,,,,,,,,,,,,,,,,,,258996.21499999193,258991.69500000426,194212.571,194229.645000014,194231.663,259005.726,,,
Holding screen,html.Screen,2_1_1_0,2021-04-24T18:11:47.532Z,,,,,,,,,,,,,,,,,,,,,,,,,,,,,,,10003.544000000024,,timeout,,,,,,,,,,,,,,,,,,,,,268993.3899999887,268992.562,258990.286,258996.530000004,259005.726,269009.27,,,
screen,html.Screen,2_1_1_1_0,2021-04-24T18:11:50.185Z,,,,,,,,,,,,,,,,,54,,,,,,,,,,,,,,2636.000000008149,,response,,,,100,,,,,,,Space,keypress(Space),,,,,,,,At --- ---- --- ------ ----- ------- ---- -- --- ------- --<br>------- ---------- ------ -- ----- -- ----- -- ---- ------<br>--- ----- --- --- ------ -------- ----- --- ------ ----- --<br>----- ----- ---------- --- --- ------ ------ ---- -- ------<br>------- --- ------ ----- --- ---- ------- -- ---- --- --<br>------- ------,271646.13499998813,271645.27000000817,268992.562,268993.7299999874,269009.27,271652.316,,0,At
screen,html.Screen,2_1_1_1_1,2021-04-24T18:11:50.684Z,,,,,,,,,,,,,,,,,54,,,,,,,,,,,,,,492.3639999976149,,response,,,,100,,,,,,,Space,keypress(Space),,,,,,,,-- the ---- --- ------ ----- ------- ---- -- --- ------- --<br>------- ---------- ------ -- ----- -- ----- -- ---- ------<br>--- ----- --- --- ------ -------- ----- --- ------ ----- --<br>----- ----- ---------- --- --- ------ ------ ---- -- ------<br>------- --- ------ ----- --- ---- ------- -- ---- --- --<br>------- ------,272145.4199999862,272144.6799999976,271643.242,271646.4900000137,271652.316,272151.416,,1,the
screen,html.Screen,2_1_1_1_2,2021-04-24T18:11:51.184Z,,,,,,,,,,,,,,,,,54,,,,,,,,,,,,,,492.77900000073714,,response,,,,100,,,,,,,Space,keypress(Space),,,,,,,,-- --- time --- ------ ----- ------- ---- -- --- ------- --<br>------- ---------- ------ -- ----- -- ----- -- ---- ------<br>--- ----- --- --- ------ -------- ----- --- ------ ----- --<br>----- ----- ---------- --- --- ------ ------ ---- -- ------<br>------- --- ------ ----- --- ---- ------- -- ---- --- --<br>------- ------,272645.1750000124,272644.19500000076,272135.79,272145.6499999913,272151.416,272651.475,,2,time
screen,html.Screen,2_1_1_1_3,2021-04-24T18:11:51.715Z,,,,,,,,,,,,,,,,,54,,,,,,,,,,,,,,523.1950000076322,,response,,,,100,,,,,,,Space,keypress(Space),,,,,,,,-- --- ---- the ------ ----- ------- ---- -- --- ------- --<br>------- ---------- ------ -- ----- -- ----- -- ---- ------<br>--- ----- --- --- ------ -------- ----- --- ------ ----- --<br>----- ----- ---------- --- --- ------ ------ ---- -- ------<br>------- --- ------ ----- --- ---- ------- -- ---- --- --<br>------- ------,273175.9200000088,273174.6700000076,272634.854,272645.45999999973,272651.475,273188.963,,3,the
screen,html.Screen,2_1_1_1_4,2021-04-24T18:11:52.233Z,,,,,,,,,,,,,,,,,54,,,,,,,,,,,,,,504.30699998885393,,response,,,,100,,,,,,,Space,keypress(Space),,,,,,,,-- --- ---- --- French ----- ------- ---- -- --- ------- --<br>------- ---------- ------ -- ----- -- ----- -- ---- ------<br>--- ----- --- --- ------ -------- ----- --- ------ ----- --<br>----- ----- ---------- --- --- ------ ------ ---- -- ------<br>------- --- ------ ----- --- ---- ------- -- ---- --- --<br>------- ------,273694.45000000997,273693.26999998884,273168.428,273177.80000000494,273188.963,273700.735,,4,French
screen,html.Screen,2_1_1_1_5,2021-04-24T18:11:52.682Z,,,,,,,,,,,,,,,,,54,,,,,,,,,,,,,,440.965000007418,,response,,,,100,,,,,,,Space,keypress(Space),,,,,,,,-- --- ---- --- ------ crown ------- ---- -- --- ------- --<br>------- ---------- ------ -- ----- -- ----- -- ---- ------<br>--- ----- --- --- ------ -------- ----- --- ------ ----- --<br>----- ----- ---------- --- --- ------ ------ ---- -- ------<br>------- --- ------ ----- --- ---- ------- -- ---- --- --<br>------- ------,274142.69000000786,274141.7000000074,273689.046,273694.72999998834,273700.735,274148.982,,5,crown
screen,html.Screen,2_1_1_1_6,2021-04-24T18:11:53.742Z,,,,,,,,,,,,,,,,,54,,,,,,,,,,,,,,1052.9179999854532,,response,,,,100,,,,,,,Space,keypress(Space),,,,,,,,-- --- ---- --- ------ ----- secured ---- -- --- ------- --<br>------- ---------- ------ -- ----- -- ----- -- ---- ------<br>--- ----- --- --- ------ -------- ----- --- ------ ----- --<br>----- ----- ---------- --- --- ------ ------ ---- -- ------<br>------- --- ------ ----- --- ---- ------- -- ---- --- --<br>------- ------,275203.00999999745,275201.8999999855,274134.315,274142.9749999952,274148.982,275209.343,,6,secured
screen,html.Screen,2_1_1_1_7,2021-04-24T18:11:54.559Z,,,,,,,,,,,,,,,,,54,,,,,,,,,,,,,,809.8920000143116,,response,,,,100,,,,,,,Space,keypress(Space),,,,,,,,-- --- ---- --- ------ ----- ------- much -- --- ------- --<br>------- ---------- ------ -- ----- -- ----- -- ---- ------<br>--- ----- --- --- ------ -------- ----- --- ------ ----- --<br>----- ----- ---------- --- --- ------ ------ ---- -- ------<br>------- --- ------ ----- --- ---- ------- -- ---- --- --<br>------- ------,276020.2350000036,276019.2350000143,275199.375,275203.2900000049,275209.343,276026.888,,7,much
screen,html.Screen,2_1_1_1_8,2021-04-24T18:11:55.141Z,,,,,,,,,,,,,,,,,54,,,,,,,,,,,,,,573.9270000125398,,response,,,,100,,,,,,,Space,keypress(Space),,,,,,,,-- --- ---- --- ------ ----- ------- ---- of --- ------- --<br>------- ---------- ------ -- ----- -- ----- -- ---- ------<br>--- ----- --- --- ------ -------- ----- --- ------ ----- --<br>----- ----- ---------- --- --- ------ ------ ---- -- ------<br>------- --- ------ ----- --- ---- ------- -- ---- --- --<br>------- ------,276602.02500000014,276600.8150000125,276009.546,276020.5150000111,276026.888,276608.336,,8,of
screen,html.Screen,2_1_1_1_9,2021-04-24T18:11:55.600Z,,,,,,,,,,,,,,,,,54,,,,,,,,,,,,,,451.30900000117254,,response,,,,100,,,,,,,Space,keypress(Space),,,,,,,,-- --- ---- --- ------ ----- ------- ---- -- its ------- --<br>------- ---------- ------ -- ----- -- ----- -- ---- ------<br>--- ----- --- --- ------ -------- ----- --- ------ ----- --<br>----- ----- ---------- --- --- ------ ------ ---- -- ------<br>------- --- ------ ----- --- ---- ------- -- ---- --- --<br>------- ------,277060.6250000128,277059.6450000012,276593.86,276602.31499999645,276608.336,277077.008,,9,its
screen,html.Screen,2_1_1_1_10,2021-04-24T18:11:56.486Z,,,,,,,,,,,,,,,,,54,,,,,,,,,,,,,,868.4419999992824,,response,,,,100,,,,,,,Space,keypress(Space),,,,,,,,-- --- ---- --- ------ ----- ------- ---- -- --- revenue --<br>------- ---------- ------ -- ----- -- ----- -- ---- ------<br>--- ----- --- --- ------ -------- ----- --- ------ ----- --<br>----- ----- ---------- --- --- ------ ------ ---- -- ------<br>------- --- ------ ----- --- ---- ------- -- ---- --- --<br>------- ------,277946.5799999889,277945.44999999925,277058.458,277060.9049999912,277077.008,277952.898,,10,revenue
screen,html.Screen,2_1_1_1_11,2021-04-24T18:11:57.094Z,,,,,,,,,,,,,,,,,54,,,,,,,,,,,,,,601.0619999901974,,response,,,,100,,,,,,,Space,keypress(Space),,,,,,,,-- --- ---- --- ------ ----- ------- ---- -- --- ------- by<br>------- ---------- ------ -- ----- -- ----- -- ---- ------<br>--- ----- --- --- ------ -------- ----- --- ------ ----- --<br>----- ----- ---------- --- --- ------ ------ ---- -- ------<br>------- --- ------ ----- --- ---- ------- -- ---- --- --<br>------- ------,278554.9699999974,278553.9599999902,277943.736,277946.8599999964,277952.898,278561.281,,11,by
screen,html.Screen,2_1_1_1_12,2021-04-24T18:11:58.032Z,,,,,,,,,,,,,,,,,54,,,,,,,,,,,,,,930.2089999857708,,response,,,,100,,,,,,,Space,keypress(Space),,,,,,,,-- --- ---- --- ------ ----- ------- ---- -- --- ------- --<br>issuing ---------- ------ -- ----- -- ----- -- ---- ------<br>--- ----- --- --- ------ -------- ----- --- ------ ----- --<br>----- ----- ---------- --- --- ------ ------ ---- -- ------<br>------- --- ------ ----- --- ---- ------- -- ---- --- --<br>------- ------,279492.54000000656,279491.4899999858,278553.176,278555.2749999915,278561.281,279498.805,,12,issuing
screen,html.Screen,2_1_1_1_13,2021-04-24T18:11:58.800Z,,,,,,,,,,,,,,,,,54,,,,,,,,,,,,,,760.8400000128313,,response,,,,100,,,,,,,Space,keypress(Space),,,,,,,,-- --- ---- --- ------ ----- ------- ---- -- --- ------- --<br>------- government ------ -- ----- -- ----- -- ---- ------<br>--- ----- --- --- ------ -------- ----- --- ------ ----- --<br>----- ----- ---------- --- --- ------ ------ ---- -- ------<br>------- --- ------ ----- --- ---- ------- -- ---- --- --<br>------- ------,280260.6950000045,280259.6450000128,279478.167,279492.8099999961,279498.805,280266.973,,13,government
screen,html.Screen,2_1_1_1_14,2021-04-24T18:11:59.424Z,,,,,,,,,,,,,,,,,54,,,,,,,,,,,,,,617.162000000244,,response,,,,100,,,,,,,Space,keypress(Space),,,,,,,,-- --- ---- --- ------ ----- ------- ---- -- --- ------- --<br>------- ---------- bonds. -- ----- -- ----- -- ---- ------<br>--- ----- --- --- ------ -------- ----- --- ------ ----- --<br>----- ----- ---------- --- --- ------ ------ ---- -- ------<br>------- --- ------ ----- --- ---- ------- -- ---- --- --<br>------- ------,280885.1600000053,280884.13500000024,280249.156,280260.970000003,280266.973,280891.455,,14,bonds.
screen,html.Screen,2_1_1_1_15,2021-04-24T18:12:00.098Z,,,,,,,,,,,,,,,,,54,,,,,,,,,,,,,,666.4900000077323,,response,,,,100,,,,,,,Space,keypress(Space),,,,,,,,-- --- ---- --- ------ ----- ------- ---- -- --- ------- --<br>------- ---------- ------ In ----- -- ----- -- ---- ------<br>--- ----- --- --- ------ -------- ----- --- ------ ----- --<br>----- ----- ---------- --- --- ------ ------ ---- -- ------<br>------- --- ------ ----- --- ---- ------- -- ---- --- --<br>------- ------,281558.9050000126,281557.94500000775,280883.958,280885.44000001275,280891.455,281565.161,,15,In
screen,html.Screen,2_1_1_1_16,2021-04-24T18:12:01.005Z,,,,,,,,,,,,,,,,,54,,,,,,,,,,,,,,900.2690000110888,,response,,,,100,,,,,,,Space,keypress(Space),,,,,,,,"-- --- ---- --- ------ ----- ------- ---- -- --- ------- --<br>------- ---------- ------ -- 1727, -- ----- -- ---- ------<br>--- ----- --- --- ------ -------- ----- --- ------ ----- --<br>----- ----- ---------- --- --- ------ ------ ---- -- ------<br>------- --- ------ ----- --- ---- ------- -- ---- --- --<br>------- ------",282466.459999996,282465.4300000111,281558.365,281559.184999991,281565.161,282472.754,,16,"1727,"
screen,html.Screen,2_1_1_1_17,2021-04-24T18:12:01.699Z,,,,,,,,,,,,,,,,,54,,,,,,,,,,,,,,686.5709999859682,,response,,,,100,,,,,,,Space,keypress(Space),,,,,,,,-- --- ---- --- ------ ----- ------- ---- -- --- ------- --<br>------- ---------- ------ -- ----- in ----- -- ---- ------<br>--- ----- --- --- ------ -------- ----- --- ------ ----- --<br>----- ----- ---------- --- --- ------ ------ ---- -- ------<br>------- --- ------ ----- --- ---- ------- -- ---- --- --<br>------- ------,283160.355,283159.324999986,282465.535,282466.7349999945,282472.754,283164.504,,17,in
screen,html.Screen,2_1_1_1_18,2021-04-24T18:12:02.369Z,,,,,,,,,,,,,,,,,54,,,,,,,,,,,,,,664.9060000057216,,response,,,,100,,,,,,,Space,keypress(Space),,,,,,,,-- --- ---- --- ------ ----- ------- ---- -- --- ------- --<br>------- ---------- ------ -- ----- -- order -- ---- ------<br>--- ----- --- --- ------ -------- ----- --- ------ ----- --<br>----- ----- ---------- --- --- ------ ------ ---- -- ------<br>------- --- ------ ----- --- ---- ------- -- ---- --- --<br>------- ------,283830.43500001077,283829.41000000574,283156.404,283160.6449999963,283164.504,283853.509,,18,order
screen,html.Screen,2_1_1_1_19,2021-04-24T18:12:02.927Z,,,,,,,,,,,,,,,,,54,,,,,,,,,,,,,,533.6660000107368,,response,,,,100,,,,,,,Space,keypress(Space),,,,,,,,-- --- ---- --- ------ ----- ------- ---- -- --- ------- --<br>------- ---------- ------ -- ----- -- ----- to ---- ------<br>--- ----- --- --- ------ -------- ----- --- ------ ----- --<br>----- ----- ---------- --- --- ------ ------ ---- -- ------<br>------- --- ------ ----- --- ---- ------- -- ---- --- --<br>------- ------,284388.31499998923,284387.17500001076,283836.943,283830.72999998694,283853.509,284394.648,,19,to
screen,html.Screen,2_1_1_1_20,2021-04-24T18:12:03.745Z,,,,,,,,,,,,,,,,,54,,,,,,,,,,,,,,810.0520000020624,,response,,,,100,,,,,,,Space,keypress(Space),,,,,,,,-- --- ---- --- ------ ----- ------- ---- -- --- ------- --<br>------- ---------- ------ -- ----- -- ----- -- save ------<br>--- ----- --- --- ------ -------- ----- --- ------ ----- --<br>----- ----- ---------- --- --- ------ ------ ---- -- ------<br>------- --- ------ ----- --- ---- ------- -- ---- --- --<br>------- ------,285205.76000001165,285204.70000000205,284386.912,284388.6099999945,284394.648,285218.241,,20,save
screen,html.Screen,2_1_1_1_21,2021-04-24T18:12:04.220Z,,,,,,,,,,,,,,,,,54,,,,,,,,,,,,,,461.518999999098,,response,,,,100,,,,,,,Space,keypress(Space),,,,,,,,"-- --- ---- --- ------ ----- ------- ---- -- --- ------- --<br>------- ---------- ------ -- ----- -- ----- -- ---- money,<br>--- ----- --- --- ------ -------- ----- --- ------ ----- --<br>----- ----- ---------- --- --- ------ ------ ---- -- ------<br>------- --- ------ ----- --- ---- ------- -- ---- --- --<br>------- ------",285680.75999998837,285679.7599999991,285194.938,285206.03999999,285218.241,285686.995,,21,"money,"
screen,html.Screen,2_1_1_1_22,2021-04-24T18:12:04.980Z,,,,,,,,,,,,,,,,,54,,,,,,,,,,,,,,753.1200000048848,,response,,,,100,,,,,,,Space,keypress(Space),,,,,,,,-- --- ---- --- ------ ----- ------- ---- -- --- ------- --<br>------- ---------- ------ -- ----- -- ----- -- ---- ------<br>the ----- --- --- ------ -------- ----- --- ------ ----- --<br>----- ----- ---------- --- --- ------ ------ ---- -- ------<br>------- --- ------ ----- --- ---- ------- -- ---- --- --<br>------- ------,286441.13500000094,286440.1150000049,285668.281,285681.030000007,285686.995,286447.393,,22,the
screen,html.Screen,2_1_1_1_23,2021-04-24T18:12:05.727Z,,,,,,,,,,,,,,,,,54,,,,,,,,,,,,,,740.0470000088098,,response,,,,100,,,,,,,Space,keypress(Space),,,,,,,,-- --- ---- --- ------ ----- ------- ---- -- --- ------- --<br>------- ---------- ------ -- ----- -- ----- -- ---- ------<br>--- state --- --- ------ -------- ----- --- ------ ----- --<br>----- ----- ---------- --- --- ------ ------ ---- -- ------<br>------- --- ------ ----- --- ---- ------- -- ---- --- --<br>------- ------,287188.4699999937,287187.4400000088,286437.337,286441.4199999883,286447.393,287202.529,,23,state
screen,html.Screen,2_1_1_1_24,2021-04-24T18:12:06.349Z,,,,,,,,,,,,,,,,,54,,,,,,,,,,,,,,605.98100000259,,response,,,,100,,,,,,,Space,keypress(Space),,,,,,,,-- --- ---- --- ------ ----- ------- ---- -- --- ------- --<br>------- ---------- ------ -- ----- -- ----- -- ---- ------<br>--- ----- cut --- ------ -------- ----- --- ------ ----- --<br>----- ----- ---------- --- --- ------ ------ ---- -- ------<br>------- --- ------ ----- --- ---- ------- -- ---- --- --<br>------- ------,287809.5350000076,287808.51000000257,287181.109,287188.75999999,287202.529,287815.852,,24,cut
screen,html.Screen,2_1_1_1_25,2021-04-24T18:12:06.838Z,,,,,,,,,,,,,,,,,54,,,,,,,,,,,,,,482.57299998629605,,response,,,,100,,,,,,,Space,keypress(Space),,,,,,,,-- --- ---- --- ------ ----- ------- ---- -- --- ------- --<br>------- ---------- ------ -- ----- -- ----- -- ---- ------<br>--- ----- --- the ------ -------- ----- --- ------ ----- --<br>----- ----- ---------- --- --- ------ ------ ---- -- ------<br>------- --- ------ ----- --- ---- ------- -- ---- --- --<br>------- ------,288299.4999999937,288298.4249999863,287802.618,287809.814999986,287815.852,288304.936,,25,the
screen,html.Screen,2_1_1_1_26,2021-04-24T18:12:08.097Z,,,,,,,,,,,,,,,,,54,,,,,,,,,,,,,,1251.8540000023786,,response,,,,100,,,,,,,Space,keypress(Space),,,,,,,,-- --- ---- --- ------ ----- ------- ---- -- --- ------- --<br>------- ---------- ------ -- ----- -- ----- -- ---- ------<br>--- ----- --- --- bonds' -------- ----- --- ------ ----- --<br>----- ----- ---------- --- --- ------ ------ ---- -- ------<br>------- --- ------ ----- --- ---- ------- -- ---- --- --<br>------- ------,289557.81999998726,289556.79000000237,288299.434,288299.7749999922,288304.936,289564.151,,26,bonds'
screen,html.Screen,2_1_1_1_27,2021-04-24T18:12:08.857Z,,,,,,,,,,,,,,,,,54,,,,,,,,,,,,,,752.6340000026976,,response,,,,100,,,,,,,Space,keypress(Space),,,,,,,,-- --- ---- --- ------ ----- ------- ---- -- --- ------- --<br>------- ---------- ------ -- ----- -- ----- -- ---- ------<br>--- ----- --- --- ------ interest ----- --- ------ ----- --<br>----- ----- ---------- --- --- ------ ------ ---- -- ------<br>------- --- ------ ----- --- ---- ------- -- ---- --- --<br>------- ------,290318.1399999885,290316.7850000027,289555.358,289558.1050000037,289564.151,290323.435,,27,interest
screen,html.Screen,2_1_1_1_28,2021-04-24T18:12:09.483Z,,,,,,,,,,,,,,,,,54,,,,,,,,,,,,,,619.2349999894504,,response,,,,100,,,,,,,Space,keypress(Space),,,,,,,,-- --- ---- --- ------ ----- ------- ---- -- --- ------- --<br>------- ---------- ------ -- ----- -- ----- -- ---- ------<br>--- ----- --- --- ------ -------- rate. --- ------ ----- --<br>----- ----- ---------- --- --- ------ ------ ---- -- ------<br>------- --- ------ ----- --- ---- ------- -- ---- --- --<br>------- ------,290943.75999999465,290942.66999998945,290314.455,290318.43499999377,290323.435,290950.088,,28,rate.
screen,html.Screen,2_1_1_1_29,2021-04-24T18:12:10.466Z,,,,,,,,,,,,,,,,,54,,,,,,,,,,,,,,975.8269999998156,,response,,,,100,,,,,,,Space,keypress(Space),,,,,,,,-- --- ---- --- ------ ----- ------- ---- -- --- ------- --<br>------- ---------- ------ -- ----- -- ----- -- ---- ------<br>--- ----- --- --- ------ -------- ----- The ------ ----- --<br>----- ----- ---------- --- --- ------ ------ ---- -- ------<br>------- --- ------ ----- --- ---- ------- -- ---- --- --<br>------- ------,291926.9299999869,291925.9149999998,290940.204,290944.04000000213,290950.088,291933.215,,29,The
screen,html.Screen,2_1_1_1_30,2021-04-24T18:12:11.176Z,,,,,,,,,,,,,,,,,54,,,,,,,,,,,,,,702.9650000013062,,response,,,,100,,,,,,,Space,keypress(Space),,,,,,,,-- --- ---- --- ------ ----- ------- ---- -- --- ------- --<br>------- ---------- ------ -- ----- -- ----- -- ---- ------<br>--- ----- --- --- ------ -------- ----- --- market ----- --<br>----- ----- ---------- --- --- ------ ------ ---- -- ------<br>------- --- ------ ----- --- ---- ------- -- ---- --- --<br>------- ------,292637.20500000636,292636.18000000133,291917.132,291927.21500000334,291933.215,292643.485,,30,market
screen,html.Screen,2_1_1_1_31,2021-04-24T18:12:11.965Z,,,,,,,,,,,,,,,,,54,,,,,,,,,,,,,,781.8549999870593,,response,,,,100,,,,,,,Space,keypress(Space),,,,,,,,-- --- ---- --- ------ ----- ------- ---- -- --- ------- --<br>------- ---------- ------ -- ----- -- ----- -- ---- ------<br>--- ----- --- --- ------ -------- ----- --- ------ value --<br>----- ----- ---------- --- --- ------ ------ ---- -- ------<br>------- --- ------ ----- --- ---- ------- -- ---- --- --<br>------- ------,293426.38499999885,293425.33999998705,292633.434,292637.48500001384,292643.485,293438.708,,31,value
screen,html.Screen,2_1_1_1_32,2021-04-24T18:12:12.547Z,,,,,,,,,,,,,,,,,54,,,,,,,,,,,,,,568.1819999896688,,response,,,,100,,,,,,,Space,keypress(Space),,,,,,,,-- --- ---- --- ------ ----- ------- ---- -- --- ------- --<br>------- ---------- ------ -- ----- -- ----- -- ---- ------<br>--- ----- --- --- ------ -------- ----- --- ------ ----- of<br>----- ----- ---------- --- --- ------ ------ ---- -- ------<br>------- --- ------ ----- --- ---- ------- -- ---- --- --<br>------- ------,294007.9149999947,294006.88999998965,293433.53,293426.67499999516,293438.708,294014.226,,32,of
screen,html.Screen,2_1_1_1_33,2021-04-24T18:12:13.146Z,,,,,,,,,,,,,,,,,54,,,,,,,,,,,,,,592.1390000141691,,response,,,,100,,,,,,,Space,keypress(Space),,,,,,,,-- --- ---- --- ------ ----- ------- ---- -- --- ------- --<br>------- ---------- ------ -- ----- -- ----- -- ---- ------<br>--- ----- --- --- ------ -------- ----- --- ------ ----- --<br>these ----- ---------- --- --- ------ ------ ---- -- ------<br>------- --- ------ ----- --- ---- ------- -- ---- --- --<br>------- ------,294607.50499999267,294606.3650000142,294005.693,294008.20000001113,294014.226,294613.83,,33,these
screen,html.Screen,2_1_1_1_34,2021-04-24T18:12:13.797Z,,,,,,,,,,,,,,,,,54,,,,,,,,,,,,,,642.700000013283,,response,,,,100,,,,,,,Space,keypress(Space),,,,,,,,-- --- ---- --- ------ ----- ------- ---- -- --- ------- --<br>------- ---------- ------ -- ----- -- ----- -- ---- ------<br>--- ----- --- --- ------ -------- ----- --- ------ ----- --<br>----- bonds ---------- --- --- ------ ------ ---- -- ------<br>------- --- ------ ----- --- ---- ------- -- ---- --- --<br>------- ------,295257.5549999892,295256.5300000133,294597.714,294607.81499999575,294613.83,295263.821,,34,bonds
screen,html.Screen,2_1_1_1_35,2021-04-24T18:12:14.504Z,,,,,,,,,,,,,,,,,54,,,,,,,,,,,,,,700.0990000092424,,response,,,,100,,,,,,,Space,keypress(Space),,,,,,,,"-- --- ---- --- ------ ----- ------- ---- -- --- ------- --<br>------- ---------- ------ -- ----- -- ----- -- ---- ------<br>--- ----- --- --- ------ -------- ----- --- ------ ----- --<br>----- ----- plummeted, --- --- ------ ------ ---- -- ------<br>------- --- ------ ----- --- ---- ------- -- ---- --- --<br>------- ------",295964.9750000099,295963.92000000924,295247.448,295257.8400000057,295263.821,295971.425,,35,"plummeted,"
screen,html.Screen,2_1_1_1_36,2021-04-24T18:12:15.627Z,,,,,,,,,,,,,,,,,54,,,,,,,,,,,,,,1115.7250000066706,,response,,,,100,,,,,,,Space,keypress(Space),,,,,,,,-- --- ---- --- ------ ----- ------- ---- -- --- ------- --<br>------- ---------- ------ -- ----- -- ----- -- ---- ------<br>--- ----- --- --- ------ -------- ----- --- ------ ----- --<br>----- ----- ---------- and --- ------ ------ ---- -- ------<br>------- --- ------ ----- --- ---- ------- -- ---- --- --<br>------- ------,297088.14999999595,297087.15000000666,295964.151,295965.3249999974,295971.425,297094.466,,36,and
screen,html.Screen,2_1_1_1_37,2021-04-24T18:12:16.139Z,,,,,,,,,,,,,,,,,54,,,,,,,,,,,,,,504.2289999932982,,response,,,,100,,,,,,,Space,keypress(Space),,,,,,,,-- --- ---- --- ------ ----- ------- ---- -- --- ------- --<br>------- ---------- ------ -- ----- -- ----- -- ---- ------<br>--- ----- --- --- ------ -------- ----- --- ------ ----- --<br>----- ----- ---------- --- the ------ ------ ---- -- ------<br>------- --- ------ ----- --- ---- ------- -- ---- --- --<br>------- ------,297599.69000000274,297598.6949999933,297088.443,297088.4350000124,297094.466,297605.995,,37,the
screen,html.Screen,2_1_1_1_38,2021-04-24T18:12:16.646Z,,,,,,,,,,,,,,,,,54,,,,,,,,,,,,,,499.4250000071479,,response,,,,100,,,,,,,Space,keypress(Space),,,,,,,,-- --- ---- --- ------ ----- ------- ---- -- --- ------- --<br>------- ---------- ------ -- ----- -- ----- -- ---- ------<br>--- ----- --- --- ------ -------- ----- --- ------ ----- --<br>----- ----- ---------- --- --- market ------ ---- -- ------<br>------- --- ------ ----- --- ---- ------- -- ---- --- --<br>------- ------,298106.5499999968,298105.42000000714,297594.721,297599.9700000102,297605.995,298112.841,,38,market
screen,html.Screen,2_1_1_1_39,2021-04-24T18:12:17.330Z,,,,,,,,,,,,,,,,,54,,,,,,,,,,,,,,677.5340000113938,,response,,,,100,,,,,,,Space,keypress(Space),,,,,,,,-- --- ---- --- ------ ----- ------- ---- -- --- ------- --<br>------- ---------- ------ -- ----- -- ----- -- ---- ------<br>--- ----- --- --- ------ -------- ----- --- ------ ----- --<br>----- ----- ---------- --- --- ------ became ---- -- ------<br>------- --- ------ ----- --- ---- ------- -- ---- --- --<br>------- ------,298791.39500000747,298790.3750000114,298106.241,298106.83000000427,298112.841,298797.695,,39,became
screen,html.Screen,2_1_1_1_40,2021-04-24T18:12:18.092Z,,,,,,,,,,,,,,,,,54,,,,,,,,,,,,,,754.5649999967427,,response,,,,100,,,,,,,Space,keypress(Space),,,,,,,,-- --- ---- --- ------ ----- ------- ---- -- --- ------- --<br>------- ---------- ------ -- ----- -- ----- -- ---- ------<br>--- ----- --- --- ------ -------- ----- --- ------ ----- --<br>----- ----- ---------- --- --- ------ ------ wary -- ------<br>------- --- ------ ----- --- ---- ------- -- ---- --- --<br>------- ------,299553.264999995,299552.25999999675,298779.796,298791.67499998584,298797.695,299559.524,,40,wary
screen,html.Screen,2_1_1_1_41,2021-04-24T18:12:18.602Z,,,,,,,,,,,,,,,,,54,,,,,,,,,,,,,,502.27599999587983,,response,,,,100,,,,,,,Space,keypress(Space),,,,,,,,-- --- ---- --- ------ ----- ------- ---- -- --- ------- --<br>------- ---------- ------ -- ----- -- ----- -- ---- ------<br>--- ----- --- --- ------ -------- ----- --- ------ ----- --<br>----- ----- ---------- --- --- ------ ------ ---- of ------<br>------- --- ------ ----- --- ---- ------- -- ---- --- --<br>------- ------,300062.8499999875,300061.79999999586,299548.041,299553.5450000025,299559.524,300069.146,,41,of
screen,html.Screen,2_1_1_1_42,2021-04-24T18:12:19.243Z,,,,,,,,,,,,,,,,,54,,,,,,,,,,,,,,634.0940000025439,,response,,,,100,,,,,,,Space,keypress(Space),,,,,,,,-- --- ---- --- ------ ----- ------- ---- -- --- ------- --<br>------- ---------- ------ -- ----- -- ----- -- ---- ------<br>--- ----- --- --- ------ -------- ----- --- ------ ----- --<br>----- ----- ---------- --- --- ------ ------ ---- -- French<br>------- --- ------ ----- --- ---- ------- -- ---- --- --<br>------- ------,300704.3199999898,300703.24000000255,300059.812,300063.13500000397,300069.146,300710.545,,42,French
screen,html.Screen,2_1_1_1_43,2021-04-24T18:12:20.299Z,,,,,,,,,,,,,,,,,54,,,,,,,,,,,,,,1048.3299999995506,,response,,,,100,,,,,,,Space,keypress(Space),,,,,,,,-- --- ---- --- ------ ----- ------- ---- -- --- ------- --<br>------- ---------- ------ -- ----- -- ----- -- ---- ------<br>--- ----- --- --- ------ -------- ----- --- ------ ----- --<br>----- ----- ---------- --- --- ------ ------ ---- -- ------<br>credit. --- ------ ----- --- ---- ------- -- ---- --- --<br>------- ------,301759.8749999888,301758.87499999953,300702.753,300704.59000000847,300710.545,301783.131,,43,credit.
screen,html.Screen,2_1_1_1_44,2021-04-24T18:12:20.875Z,,,,,,,,,,,,,,,,,54,,,,,,,,,,,,,,551.9839999944088,,response,,,,100,,,,,,,Space,keypress(Space),,,,,,,,-- --- ---- --- ------ ----- ------- ---- -- --- ------- --<br>------- ---------- ------ -- ----- -- ----- -- ---- ------<br>--- ----- --- --- ------ -------- ----- --- ------ ----- --<br>----- ----- ---------- --- --- ------ ------ ---- -- ------<br>------- The ------ ----- --- ---- ------- -- ---- --- --<br>------- ------,302336.14999998827,302335.1149999944,301766.361,301760.1549999963,301783.131,302342.502,,44,The
screen,html.Screen,2_1_1_1_45,2021-04-24T18:12:21.684Z,,,,,,,,,,,,,,,,,54,,,,,,,,,,,,,,801.8479999877745,,response,,,,100,,,,,,,Space,keypress(Space),,,,,,,,-- --- ---- --- ------ ----- ------- ---- -- --- ------- --<br>------- ---------- ------ -- ----- -- ----- -- ---- ------<br>--- ----- --- --- ------ -------- ----- --- ------ ----- --<br>----- ----- ---------- --- --- ------ ------ ---- -- ------<br>------- --- French ----- --- ---- ------- -- ---- --- --<br>------- ------,303145.3749999928,303144.34999998775,302332.978,302336.4350000047,302342.502,303151.67,,45,French
screen,html.Screen,2_1_1_1_46,2021-04-24T18:12:22.347Z,,,,,,,,,,,,,,,,,54,,,,,,,,,,,,,,655.7499999973807,,response,,,,100,,,,,,,Space,keypress(Space),,,,,,,,-- --- ---- --- ------ ----- ------- ---- -- --- ------- --<br>------- ---------- ------ -- ----- -- ----- -- ---- ------<br>--- ----- --- --- ------ -------- ----- --- ------ ----- --<br>----- ----- ---------- --- --- ------ ------ ---- -- ------<br>------- --- ------ state --- ---- ------- -- ---- --- --<br>------- ------,303808.38999999105,303807.41999999736,303142.825,303145.6499999913,303151.67,303814.687,,46,state
screen,html.Screen,2_1_1_1_47,2021-04-24T18:12:22.744Z,,,,,,,,,,,,,,,,,54,,,,,,,,,,,,,,388.84299999888754,,response,,,,100,,,,,,,Space,keypress(Space),,,,,,,,-- --- ---- --- ------ ----- ------- ---- -- --- ------- --<br>------- ---------- ------ -- ----- -- ----- -- ---- ------<br>--- ----- --- --- ------ -------- ----- --- ------ ----- --<br>----- ----- ---------- --- --- ------ ------ ---- -- ------<br>------- --- ------ ----- was ---- ------- -- ---- --- --<br>------- ------,304204.52999998815,304203.52999999886,303801.943,303808.6699999985,303814.687,304210.853,,47,was
screen,html.Screen,2_1_1_1_48,2021-04-24T18:12:23.246Z,,,,,,,,,,,,,,,,,54,,,,,,,,,,,,,,495.44200001086574,,response,,,,100,,,,,,,Space,keypress(Space),,,,,,,,-- --- ---- --- ------ ----- ------- ---- -- --- ------- --<br>------- ---------- ------ -- ----- -- ----- -- ---- ------<br>--- ----- --- --- ------ -------- ----- --- ------ ----- --<br>----- ----- ---------- --- --- ------ ------ ---- -- ------<br>------- --- ------ ----- --- left ------- -- ---- --- --<br>------- ------,304707.4849999917,304706.29500001087,304198.209,304204.8150000046,304210.853,304713.964,,48,left
screen,html.Screen,2_1_1_1_49,2021-04-24T18:12:23.711Z,,,,,,,,,,,,,,,,,54,,,,,,,,,,,,,,457.12599998892983,,response,,,,100,,,,,,,Space,keypress(Space),,,,,,,,-- --- ---- --- ------ ----- ------- ---- -- --- ------- --<br>------- ---------- ------ -- ----- -- ----- -- ---- ------<br>--- ----- --- --- ------ -------- ----- --- ------ ----- --<br>----- ----- ---------- --- --- ------ ------ ---- -- ------<br>------- --- ------ ----- --- ---- without -- ---- --- --<br>------- ------,305172.1050000051,305171.0899999889,304694.366,304707.7649999992,304713.964,305178.331,,49,without
screen,html.Screen,2_1_1_1_50,2021-04-24T18:12:24.167Z,,,,,,,,,,,,,,,,,54,,,,,,,,,,,,,,448.3689999934286,,response,,,,100,,,,,,,Space,keypress(Space),,,,,,,,-- --- ---- --- ------ ----- ------- ---- -- --- ------- --<br>------- ---------- ------ -- ----- -- ----- -- ---- ------<br>--- ----- --- --- ------ -------- ----- --- ------ ----- --<br>----- ----- ---------- --- --- ------ ------ ---- -- ------<br>------- --- ------ ----- --- ---- ------- an ---- --- --<br>------- ------,305627.7349999873,305626.69999999343,305164.027,305172.3800000036,305178.331,305649.949,,50,an
screen,html.Screen,2_1_1_1_51,2021-04-24T18:12:24.729Z,,,,,,,,,,,,,,,,,54,,,,,,,,,,,,,,538.9559999881312,,response,,,,100,,,,,,,Space,keypress(Space),,,,,,,,-- --- ---- --- ------ ----- ------- ---- -- --- ------- --<br>------- ---------- ------ -- ----- -- ----- -- ---- ------<br>--- ----- --- --- ------ -------- ----- --- ------ ----- --<br>----- ----- ---------- --- --- ------ ------ ---- -- ------<br>------- --- ------ ----- --- ---- ------- -- easy --- --<br>------- ------,306189.9400000111,306188.90499998815,305633.218,305628.0250000127,305649.949,306196.224,,51,easy
screen,html.Screen,2_1_1_1_52,2021-04-24T18:12:25.251Z,,,,,,,,,,,,,,,,,54,,,,,,,,,,,,,,515.1109999999753,,response,,,,100,,,,,,,Space,keypress(Space),,,,,,,,-- --- ---- --- ------ ----- ------- ---- -- --- ------- --<br>------- ---------- ------ -- ----- -- ----- -- ---- ------<br>--- ----- --- --- ------ -------- ----- --- ------ ----- --<br>----- ----- ---------- --- --- ------ ------ ---- -- ------<br>------- --- ------ ----- --- ---- ------- -- ---- way --<br>------- ------,306712.3450000072,306711.33499999996,306183.36,306190.21500000963,306196.224,306735.441,,52,way
screen,html.Screen,2_1_1_1_53,2021-04-24T18:12:25.877Z,,,,,,,,,,,,,,,,,54,,,,,,,,,,,,,,601.6689999931259,,response,,,,100,,,,,,,Space,keypress(Space),,,,,,,,-- --- ---- --- ------ ----- ------- ---- -- --- ------- --<br>------- ---------- ------ -- ----- -- ----- -- ---- ------<br>--- ----- --- --- ------ -------- ----- --- ------ ----- --<br>----- ----- ---------- --- --- ------ ------ ---- -- ------<br>------- --- ------ ----- --- ---- ------- -- ---- --- of<br>------- ------,307338.4300000034,307337.1099999931,306718.853,306712.6050000079,306735.441,307344.682,,53,of
screen,html.Screen,2_1_1_1_54,2021-04-24T18:12:26.590Z,,,,,,,,,,,,,,,,,54,,,,,,,,,,,,,,705.7229999872507,,response,,,,100,,,,,,,Space,keypress(Space),,,,,,,,-- --- ---- --- ------ ----- ------- ---- -- --- ------- --<br>------- ---------- ------ -- ----- -- ----- -- ---- ------<br>--- ----- --- --- ------ -------- ----- --- ------ ----- --<br>----- ----- ---------- --- --- ------ ------ ---- -- ------<br>------- --- ------ ----- --- ---- ------- -- ---- --- --<br>raising ------,308051.4400000102,308050.4049999872,307335.563,307338.70500000194,307344.682,308057.72,,54,raising
screen,html.Screen,2_1_1_1_55,2021-04-24T18:12:27.666Z,,,,,,,,,,,,,,,,,54,,,,,,,,,,,,,,1068.370000005234,,response,,,,100,,,,,,,Space,keypress(Space),,,,,,,,-- --- ---- --- ------ ----- ------- ---- -- --- ------- --<br>------- ---------- ------ -- ----- -- ----- -- ---- ------<br>--- ----- --- --- ------ -------- ----- --- ------ ----- --<br>----- ----- ---------- --- --- ------ ------ ---- -- ------<br>------- --- ------ ----- --- ---- ------- -- ---- --- --<br>------- money.,309127.11000000127,309126.0900000052,308045.004,308051.72499999753,308057.72,309134.064,,55,money.
Item 100,flow.Loop,2_1_1_1,2021-04-24T18:12:27.667Z,,,,,,,,,,,,,,,,,,,,,,,,,,,,,,,40116.82000000519,,completion,,,,,E,,,,,,,,,,,silence,,,,,309127.5800000003,309126.0900000052,268992.562,268993.6349999916,269009.27,309134.064,,,
Question 1,html.Screen,2_1_1_2,2021-04-24T18:12:31.808Z,,,,,,,,,,,,,,,,,,,,,,,,,,,,true,TRUE,,4132.721000014339,,response,,,,100,E,,,,,,TRUE,click #choice-1,,,,silence,,,,,313269.254999992,313266.78500001435,309124.68,309127.80499999644,309134.064,313274.747,,,
Question 2,html.Screen,2_1_1_3,2021-04-24T18:12:34.903Z,,,,,,,,,,,,,,,,,,,,,,,,,,,,true,FALSE,,3084.6680000135675,,response,,,,100,E,,,,,,FALSE,click #choice-2,,,,silence,,,,,316363.83499999647,316359.41500001354,313258.212,313269.42500000587,313274.747,316363.292,,,
Item 100,flow.Sequence,2_1_1,2021-04-24T18:12:34.903Z,,,,,,,,,,,,,,,,,,,,,,,,,,,,,,,57353.689000013546,,completion,,,,,,,,,,,,,,,,,,,,,316364.4949999871,316359.41500001354,258990.286,258996.43999998807,259005.726,316363.292,,,
End of Practice,html.Page,2_1_2,2021-04-24T18:12:54.883Z,,,,,,,,,,,,,,,,,,,,,,,,,,,,,,,19996.599999999977,,timeout,,,,,,,,,,,,,,,,,,,,,336343.8150000002,336343.199,316346.739,316364.74499999895,316363.292,336359.892,,,
Practice,flow.Sequence,2_1,2021-04-24T18:12:54.883Z,,,,,,,,,,,,,,,,,,,,,,,,,,,,,,,142111.53600000002,,completion,,,,,,,,,,,,,,,,,,,,,336344.16000000783,336343.199,194212.571,194229.5349999913,194231.663,336359.892,,,
Trap_instruction,html.Page,2_2_0,2021-04-24T18:13:14.878Z,,,,,,,,,,,,,,,,,,,,,,,,,,,,,,,20011.22100000002,,timeout,,,,,,,,,,,,,,,,,,,,,356338.98000000045,356337.9,336343.199,336344.43500000634,336359.892,356371.113,,,
trap_trial,html.Screen,2_2_1,2021-04-24T18:13:21.426Z,,,,,,,,,,,,,,,,,,,,,,,,,,,,true,1,,6513.402000012458,,response,,,,,,,,,,,1,click #choice-1,,,,,,,,,362886.7650000029,362884.51500001247,356337.9,356339.29999999236,356371.113,362888.677,,,
end of trap trial,html.Page,2_2_2,2021-04-24T18:13:25.687Z,,,,,,,,,,,,,,,,,,,,,,,,,,,,,,,4258.707999989274,,form submission,,,,,,,,,,,,,,,,,,,,,367147.8300000017,367147.3849999893,362885.474,362886.9399999967,362888.677,367154.775,,,
Trap 1,flow.Sequence,2_2,2021-04-24T18:13:25.687Z,,,,,,,,,,,,,,,,,,,,,,,,,,,,,,,30787.492999989307,,completion,,,,,,,,,,,,,,,,,,,,,367148.3400000143,367147.3849999893,336343.199,336344.3149999948,336359.892,367154.775,,,
Standby,html.Page,2_3_0,2021-04-24T18:13:33.675Z,,,,,,,,,,,,,,,,,,,,,,,,,,,,,,,7996.322999999975,,timeout,,,,,,,,,,,,,,,,,,,,,375135.6000000087,375134.534,367129.777,367148.6950000108,367154.775,375151.098,,,
Holding screen,html.Screen,2_3_1_0_0,2021-04-24T18:13:40.670Z,,,,,,,,,,,,,,,,,,,,,,,,,,,,,,,6996.4220000000205,,timeout,,,,,,,,,,,,,,,,,,,,,382131.8949999986,382131.03,375134.534,375136.19499999913,375151.098,382147.52,,,
screen,html.Screen,2_3_1_0_1_0,2021-04-24T18:13:42.397Z,,,,,,,,,,,,,,,,,48,,,,,,,,,,,,,,1709.2950000064448,,response,,,,10,E,,,,,,Space,keypress(Space),,,,lyrical,,,,As -- --- ------ ------- --------- ----------- --------<br>--------- -------- --- ------- -- ------- ---- -- ------<br>-- --- -------- -------- ---------- ---- ---- ---- ------<br>-- --------- -- ---- -- --- -- --- ------- -- - -----<br>---------- -- -- -- ---- ----- -- ------ -- --- ------<br>-------,383858.16999999224,383856.81500000646,382131.03,382132.2949999885,382147.52,383864.514,,0,As
screen,html.Screen,2_3_1_0_1_1,2021-04-24T18:13:42.856Z,,,,,,,,,,,,,,,,,48,,,,,,,,,,,,,,451.7710000080406,,response,,,,10,E,,,,,,Space,keypress(Space),,,,lyrical,,,,-- in --- ------ ------- --------- ----------- --------<br>--------- -------- --- ------- -- ------- ---- -- ------<br>-- --- -------- -------- ---------- ---- ---- ---- ------<br>-- --------- -- ---- -- --- -- --- ------- -- - -----<br>---------- -- -- -- ---- ----- -- ------ -- --- ------<br>-------,384317.45500001125,384316.28500000807,383848.012,383858.4949999931,383864.514,384323.865,,1,in
screen,html.Screen,2_3_1_0_1_2,2021-04-24T18:13:43.274Z,,,,,,,,,,,,,,,,,48,,,,,,,,,,,,,,410.8799999943003,,response,,,,10,E,,,,,,Space,keypress(Space),,,,lyrical,,,,-- -- the ------ ------- --------- ----------- --------<br>--------- -------- --- ------- -- ------- ---- -- ------<br>-- --- -------- -------- ---------- ---- ---- ---- ------<br>-- --------- -- ---- -- --- -- --- ------- -- - -----<br>---------- -- -- -- ---- ----- -- ------ -- --- ------<br>-------,384735.77999998815,384734.7449999943,384314.628,384317.8349999944,384323.865,384742.041,,2,the
screen,html.Screen,2_3_1_0_1_3,2021-04-24T18:13:44.028Z,,,,,,,,,,,,,,,,,48,,,,,,,,,,,,,,746.0739999855286,,response,,,,10,E,,,,,,Space,keypress(Space),,,,lyrical,,,,-- -- --- United ------- --------- ----------- --------<br>--------- -------- --- ------- -- ------- ---- -- ------<br>-- --- -------- -------- ---------- ---- ---- ---- ------<br>-- --------- -- ---- -- --- -- --- ------- -- - -----<br>---------- -- -- -- ---- ----- -- ------ -- --- ------<br>-------,385489.2000000109,385488.11499998556,384724.13,384736.05499998666,384742.041,385495.454,,3,United
screen,html.Screen,2_3_1_0_1_4,2021-04-24T18:13:45.249Z,,,,,,,,,,,,,,,,,48,,,,,,,,,,,,,,1214.175999997533,,response,,,,10,E,,,,,,Space,keypress(Space),,,,lyrical,,,,"-- -- --- ------ States, --------- ----------- --------<br>--------- -------- --- ------- -- ------- ---- -- ------<br>-- --- -------- -------- ---------- ---- ---- ---- ------<br>-- --------- -- ---- -- --- -- --- ------- -- - -----<br>---------- -- -- -- ---- ----- -- ------ -- --- ------<br>-------",386710.694999987,386709.62999999756,385475.708,385489.47000000044,385495.454,386716.981,,4,"States,"
screen,html.Screen,2_3_1_0_1_5,2021-04-24T18:13:46.092Z,,,,,,,,,,,,,,,,,48,,,,,,,,,,,,,,835.6290000133449,,response,,,,10,E,,,,,,Space,keypress(Space),,,,lyrical,,,,-- -- --- ------ ------- Colombian ----------- --------<br>--------- -------- --- ------- -- ------- ---- -- ------<br>-- --- -------- -------- ---------- ---- ---- ---- ------<br>-- --------- -- ---- -- --- -- --- ------- -- - -----<br>---------- -- -- -- ---- ----- -- ------ -- --- ------<br>-------,387553.67500000284,387552.6100000134,386695.792,386710.9650000057,386716.981,387559.983,,5,Colombian
screen,html.Screen,2_3_1_0_1_6,2021-04-24T18:13:46.698Z,,,,,,,,,,,,,,,,,48,,,,,,,,,,,,,,598.3269999988843,,response,,,,10,E,,,,,,Space,keypress(Space),,,,lyrical,,,,-- -- --- ------ ------- --------- legislation --------<br>--------- -------- --- ------- -- ------- ---- -- ------<br>-- --- -------- -------- ---------- ---- ---- ---- ------<br>-- --------- -- ---- -- --- -- --- ------- -- - -----<br>---------- -- -- -- ---- ----- -- ------ -- --- ------<br>-------,388159.3099999882,388158.3099999989,387550.694,387553.95000000135,387559.983,388165.591,,6,legislation
screen,html.Screen,2_3_1_0_1_7,2021-04-24T18:13:47.561Z,,,,,,,,,,,,,,,,,48,,,,,,,,,,,,,,855.3790000122972,,response,,,,10,E,,,,,,Space,keypress(Space),,,,lyrical,,,,-- -- --- ------ ------- --------- ----------- requires<br>--------- -------- --- ------- -- ------- ---- -- ------<br>-- --- -------- -------- ---------- ---- ---- ---- ------<br>-- --------- -- ---- -- --- -- --- ------- -- - -----<br>---------- -- -- -- ---- ----- -- ------ -- --- ------<br>-------,389022.02500001295,389020.9700000123,388143.657,388159.5800000068,388165.591,389030.964,,7,requires
screen,html.Screen,2_3_1_0_1_8,2021-04-24T18:13:48.510Z,,,,,,,,,,,,,,,,,48,,,,,,,,,,,,,,939.2759999951231,,response,,,,10,E,,,,,,Space,keypress(Space),,,,lyrical,,,,-- -- --- ------ ------- --------- ----------- --------<br>travelers -------- --- ------- -- ------- ---- -- ------<br>-- --- -------- -------- ---------- ---- ---- ---- ------<br>-- --------- -- ---- -- --- -- --- ------- -- - -----<br>---------- -- -- -- ---- ----- -- ------ -- --- ------<br>-------,389971.26500000013,389970.2399999951,389015.939,389022.30000001146,389030.964,389977.609,,8,travelers
screen,html.Screen,2_3_1_0_1_9,2021-04-24T18:13:49.429Z,,,,,,,,,,,,,,,,,48,,,,,,,,,,,,,,911.7659999988391,,response,,,,10,E,,,,,,Space,keypress(Space),,,,lyrical,,,,-- -- --- ------ ------- --------- ----------- --------<br>--------- entering --- ------- -- ------- ---- -- ------<br>-- --- -------- -------- ---------- ---- ---- ---- ------<br>-- --------- -- ---- -- --- -- --- ------- -- - -----<br>---------- -- -- -- ---- ----- -- ------ -- --- ------<br>-------,390890.4099999927,390889.37499999884,389964.714,389971.5450000076,389977.609,390896.873,,9,entering
screen,html.Screen,2_3_1_0_1_10,2021-04-24T18:13:49.955Z,,,,,,,,,,,,,,,,,48,,,,,,,,,,,,,,518.827000012272,,response,,,,10,E,,,,,,Space,keypress(Space),,,,lyrical,,,,-- -- --- ------ ------- --------- ----------- --------<br>--------- -------- the ------- -- ------- ---- -- ------<br>-- --- -------- -------- ---------- ---- ---- ---- ------<br>-- --------- -- ---- -- --- -- --- ------- -- - -----<br>---------- -- -- -- ---- ----- -- ------ -- --- ------<br>-------,391416.7000000016,391415.7000000123,390877.954,390890.6900000002,390896.873,391423.042,,10,the
screen,html.Screen,2_3_1_0_1_11,2021-04-24T18:13:50.723Z,,,,,,,,,,,,,,,,,48,,,,,,,,,,,,,,760.0980000082636,,response,,,,10,E,,,,,,Space,keypress(Space),,,,lyrical,,,,-- -- --- ------ ------- --------- ----------- --------<br>--------- -------- --- country -- ------- ---- -- ------<br>-- --- -------- -------- ---------- ---- ---- ---- ------<br>-- --------- -- ---- -- --- -- --- ------- -- - -----<br>---------- -- -- -- ---- ----- -- ------ -- --- ------<br>-------,392184.184999991,392183.1400000083,391413.611,391416.9849999889,391423.042,392195.439,,11,country
screen,html.Screen,2_3_1_0_1_12,2021-04-24T18:13:55.635Z,,,,,,,,,,,,,,,,,48,,,,,,,,,,,,,,4899.761000010651,,response,,,,10,E,,,,,,Space,keypress(Space),,,,lyrical,,,,-- -- --- ------ ------- --------- ----------- --------<br>--------- -------- --- ------- to ------- ---- -- ------<br>-- --- -------- -------- ---------- ---- ---- ---- ------<br>-- --------- -- ---- -- --- -- --- ------- -- - -----<br>---------- -- -- -- ---- ----- -- ------ -- --- ------<br>-------,397096.19999999995,397095.20000001066,392173.353,392184.46499999845,392195.439,397102.547,,12,to
screen,html.Screen,2_3_1_0_1_13,2021-04-24T18:13:56.195Z,,,,,,,,,,,,,,,,,48,,,,,,,,,,,,,,552.6729999859817,,response,,,,10,E,,,,,,Space,keypress(Space),,,,lyrical,,,,-- -- --- ------ ------- --------- ----------- --------<br>--------- -------- --- ------- -- declare ---- -- ------<br>-- --- -------- -------- ---------- ---- ---- ---- ------<br>-- --------- -- ---- -- --- -- --- ------- -- - -----<br>---------- -- -- -- ---- ----- -- ------ -- --- ------<br>-------,397656.29000001354,397655.219999986,397096.731,397096.4849999873,397102.547,397662.658,,13,declare
screen,html.Screen,2_3_1_0_1_14,2021-04-24T18:13:57.168Z,,,,,,,,,,,,,,,,,48,,,,,,,,,,,,,,965.2320000033942,,response,,,,10,E,,,,,,Space,keypress(Space),,,,lyrical,,,,-- -- --- ------ ------- --------- ----------- --------<br>--------- -------- --- ------- -- ------- cash -- ------<br>-- --- -------- -------- ---------- ---- ---- ---- ------<br>-- --------- -- ---- -- --- -- --- ------- -- - -----<br>---------- -- -- -- ---- ----- -- ------ -- --- ------<br>-------,398629.0849999932,398627.8900000034,397652.695,397656.56500001205,397662.658,398641.13,,14,cash
screen,html.Screen,2_3_1_0_1_15,2021-04-24T18:13:57.645Z,,,,,,,,,,,,,,,,,48,,,,,,,,,,,,,,464.22999998682644,,response,,,,10,E,,,,,,Space,keypress(Space),,,,lyrical,,,,-- -- --- ------ ------- --------- ----------- --------<br>--------- -------- --- ------- -- ------- ---- in ------<br>-- --- -------- -------- ---------- ---- ---- ---- ------<br>-- --------- -- ---- -- --- -- --- ------- -- - -----<br>---------- -- -- -- ---- ----- -- ------ -- --- ------<br>-------,399106.09499999555,399105.35999998683,398629.765,398629.3650000007,398641.13,399112.114,,15,in
screen,html.Screen,2_3_1_0_1_16,2021-04-24T18:13:58.605Z,,,,,,,,,,,,,,,,,48,,,,,,,,,,,,,,953.5259999861591,,response,,,,10,E,,,,,,Space,keypress(Space),,,,lyrical,,,,-- -- --- ------ ------- --------- ----------- --------<br>--------- -------- --- ------- -- ------- ---- -- excess<br>-- --- -------- -------- ---------- ---- ---- ---- ------<br>-- --------- -- ---- -- --- -- --- ------- -- - -----<br>---------- -- -- -- ---- ----- -- ------ -- --- ------<br>-------,400066.48999999743,400065.63999998616,399091.299,399106.28000000725,399112.114,400072.63,,16,excess
screen,html.Screen,2_3_1_0_1_17,2021-04-24T18:13:59.088Z,,,,,,,,,,,,,,,,,48,,,,,,,,,,,,,,475.28500000282656,,response,,,,10,E,,,,,,Space,keypress(Space),,,,lyrical,,,,-- -- --- ------ ------- --------- ----------- --------<br>--------- -------- --- ------- -- ------- ---- -- ------<br>of --- -------- -------- ---------- ---- ---- ---- ------<br>-- --------- -- ---- -- --- -- --- ------- -- - -----<br>---------- -- -- -- ---- ----- -- ------ -- --- ------<br>-------,400549.18500001077,400547.91500000283,400062.441,400066.79499999154,400072.63,400552.967,,17,of
screen,html.Screen,2_3_1_0_1_18,2021-04-24T18:14:00.197Z,,,,,,,,,,,,,,,,,48,,,,,,,,,,,,,,1104.4929999876185,,response,,,,10,E,,,,,,Space,keypress(Space),,,,lyrical,,,,-- -- --- ------ ------- --------- ----------- --------<br>--------- -------- --- ------- -- ------- ---- -- ------<br>-- ten -------- -------- ---------- ---- ---- ---- ------<br>-- --------- -- ---- -- --- -- --- ------- -- - -----<br>---------- -- -- -- ---- ----- -- ------ -- --- ------<br>-------,401658.2599999965,401657.4599999876,400539.421,400549.59999999846,400552.967,401664.233,,18,ten
screen,html.Screen,2_3_1_0_1_19,2021-04-24T18:14:00.701Z,,,,,,,,,,,,,,,,,48,,,,,,,,,,,,,,497.87199999578297,,response,,,,10,E,,,,,,Space,keypress(Space),,,,lyrical,,,,-- -- --- ------ ------- --------- ----------- --------<br>--------- -------- --- ------- -- ------- ---- -- ------<br>-- --- thousand -------- ---------- ---- ---- ---- ------<br>-- --------- -- ---- -- --- -- --- ------- -- - -----<br>---------- -- -- -- ---- ----- -- ------ -- --- ------<br>-------,402162.8700000001,402162.1049999958,401653.321,401658.46999999485,401664.233,402173.034,,19,thousand
screen,html.Screen,2_3_1_0_1_20,2021-04-24T18:14:02.139Z,,,,,,,,,,,,,,,,,48,,,,,,,,,,,,,,1426.381000004243,,response,,,,10,E,,,,,,Space,keypress(Space),,,,lyrical,,,,-- -- --- ------ ------- --------- ----------- --------<br>--------- -------- --- ------- -- ------- ---- -- ------<br>-- --- -------- dollars. ---------- ---- ---- ---- ------<br>-- --------- -- ---- -- --- -- --- ------- -- - -----<br>---------- -- -- -- ---- ----- -- ------ -- --- ------<br>-------,403600.45500000706,403599.4150000042,402147.651,402163.0749999895,402173.034,403617.415,,20,dollars.
screen,html.Screen,2_3_1_0_1_21,2021-04-24T18:14:02.659Z,,,,,,,,,,,,,,,,,48,,,,,,,,,,,,,,502.4349999882397,,response,,,,10,E,,,,,,Space,keypress(Space),,,,lyrical,,,,-- -- --- ------ ------- --------- ----------- --------<br>--------- -------- --- ------- -- ------- ---- -- ------<br>-- --- -------- -------- Concealing ---- ---- ---- ------<br>-- --------- -- ---- -- --- -- --- ------- -- - -----<br>---------- -- -- -- ---- ----- -- ------ -- --- ------<br>-------,404120.98499998683,404119.8499999882,403590.035,403600.7450000034,403617.415,404127.318,,21,Concealing
screen,html.Screen,2_3_1_0_1_22,2021-04-24T18:14:03.574Z,,,,,,,,,,,,,,,,,48,,,,,,,,,,,,,,906.7669999920181,,response,,,,10,E,,,,,,Space,keypress(Space),,,,lyrical,,,,-- -- --- ------ ------- --------- ----------- --------<br>--------- -------- --- ------- -- ------- ---- -- ------<br>-- --- -------- -------- ---------- more ---- ---- ------<br>-- --------- -- ---- -- --- -- --- ------- -- - -----<br>---------- -- -- -- ---- ----- -- ------ -- --- ------<br>-------,405035.195000004,405034.08499999205,404117.348,404121.2649999943,404127.318,405046.315,,22,more
screen,html.Screen,2_3_1_0_1_23,2021-04-24T18:14:04.049Z,,,,,,,,,,,,,,,,,48,,,,,,,,,,,,,,462.6699999931152,,response,,,,10,E,,,,,,Space,keypress(Space),,,,lyrical,,,,-- -- --- ------ ------- --------- ----------- --------<br>--------- -------- --- ------- -- ------- ---- -- ------<br>-- --- -------- -------- ---------- ---- than ---- ------<br>-- --------- -- ---- -- --- -- --- ------- -- - -----<br>---------- -- -- -- ---- ----- -- ------ -- --- ------<br>-------,405510.1549999963,405508.9849999931,405027.627,405035.4900000093,405046.315,405516.461,,23,than
screen,html.Screen,2_3_1_0_1_24,2021-04-24T18:14:04.563Z,,,,,,,,,,,,,,,,,48,,,,,,,,,,,,,,507.10899999027606,,response,,,,10,E,,,,,,Space,keypress(Space),,,,lyrical,,,,-- -- --- ------ ------- --------- ----------- --------<br>--------- -------- --- ------- -- ------- ---- -- ------<br>-- --- -------- -------- ---------- ---- ---- that ------<br>-- --------- -- ---- -- --- -- --- ------- -- - -----<br>---------- -- -- -- ---- ----- -- ------ -- --- ------<br>-------,406024.70000000903,406023.5699999903,405496.537,405510.4449999926,405516.461,406030.944,,24,that
screen,html.Screen,2_3_1_0_1_25,2021-04-24T18:14:05.029Z,,,,,,,,,,,,,,,,,48,,,,,,,,,,,,,,458.83099999453407,,response,,,,10,E,,,,,,Space,keypress(Space),,,,lyrical,,,,-- -- --- ------ ------- --------- ----------- --------<br>--------- -------- --- ------- -- ------- ---- -- ------<br>-- --- -------- -------- ---------- ---- ---- ---- amount<br>-- --------- -- ---- -- --- -- --- ------- -- - -----<br>---------- -- -- -- ---- ----- -- ------ -- --- ------<br>-------,406490.7850000018,406489.77499999455,406016.689,406024.9799999874,406030.944,406497.091,,25,amount
screen,html.Screen,2_3_1_0_1_26,2021-04-24T18:14:05.648Z,,,,,,,,,,,,,,,,,48,,,,,,,,,,,,,,611.643999987049,,response,,,,10,E,,,,,,Space,keypress(Space),,,,lyrical,,,,-- -- --- ------ ------- --------- ----------- --------<br>--------- -------- --- ------- -- ------- ---- -- ------<br>-- --- -------- -------- ---------- ---- ---- ---- ------<br>to --------- -- ---- -- --- -- --- ------- -- - -----<br>---------- -- -- -- ---- ----- -- ------ -- --- ------<br>-------,407109.80000000563,407108.73499998706,406481.229,406491.06500000926,406497.091,407116.123,,26,to
screen,html.Screen,2_3_1_0_1_27,2021-04-24T18:14:06.286Z,,,,,,,,,,,,,,,,,48,,,,,,,,,,,,,,629.952000002726,,response,,,,10,E,,,,,,Space,keypress(Space),,,,lyrical,,,,-- -- --- ------ ------- --------- ----------- --------<br>--------- -------- --- ------- -- ------- ---- -- ------<br>-- --- -------- -------- ---------- ---- ---- ---- ------<br>-- transport -- ---- -- --- -- --- ------- -- - -----<br>---------- -- -- -- ---- ----- -- ------ -- --- ------<br>-------,407747.1150000056,407746.07500000275,407097.366,407110.0699999952,407116.123,407753.737,,27,transport
screen,html.Screen,2_3_1_0_1_28,2021-04-24T18:14:06.767Z,,,,,,,,,,,,,,,,,48,,,,,,,,,,,,,,473.50799998728326,,response,,,,10,E,,,,,,Space,keypress(Space),,,,lyrical,,,,-- -- --- ------ ------- --------- ----------- --------<br>--------- -------- --- ------- -- ------- ---- -- ------<br>-- --- -------- -------- ---------- ---- ---- ---- ------<br>-- --------- it ---- -- --- -- --- ------- -- - -----<br>---------- -- -- -- ---- ----- -- ------ -- --- ------<br>-------,408228.460000013,408227.2449999873,407733.112,407747.6449999958,407753.737,408234.76,,28,it
screen,html.Screen,2_3_1_0_1_29,2021-04-24T18:14:07.536Z,,,,,,,,,,,,,,,,,48,,,,,,,,,,,,,,761.3200000117067,,response,,,,10,E,,,,,,Space,keypress(Space),,,,lyrical,,,,-- -- --- ------ ------- --------- ----------- --------<br>--------- -------- --- ------- -- ------- ---- -- ------<br>-- --- -------- -------- ---------- ---- ---- ---- ------<br>-- --------- -- into -- --- -- --- ------- -- - -----<br>---------- -- -- -- ---- ----- -- ------ -- --- ------<br>-------,408997.24500000593,408996.0800000117,408220.545,408228.74500000034,408234.76,409003.715,,29,into
screen,html.Screen,2_3_1_0_1_30,2021-04-24T18:14:07.982Z,,,,,,,,,,,,,,,,,48,,,,,,,,,,,,,,438.8949999982142,,response,,,,10,E,,,,,,Space,keypress(Space),,,,lyrical,,,,-- -- --- ------ ------- --------- ----------- --------<br>--------- -------- --- ------- -- ------- ---- -- ------<br>-- --- -------- -------- ---------- ---- ---- ---- ------<br>-- --------- -- ---- or --- -- --- ------- -- - -----<br>---------- -- -- -- ---- ----- -- ------ -- --- ------<br>-------,409443.62000000547,409442.60999999824,408984.978,408997.67000001157,409003.715,409452.873,,30,or
screen,html.Screen,2_3_1_0_1_31,2021-04-24T18:14:08.934Z,,,,,,,,,,,,,,,,,48,,,,,,,,,,,,,,941.2719999983674,,response,,,,10,E,,,,,,Space,keypress(Space),,,,lyrical,,,,-- -- --- ------ ------- --------- ----------- --------<br>--------- -------- --- ------- -- ------- ---- -- ------<br>-- --- -------- -------- ---------- ---- ---- ---- ------<br>-- --------- -- ---- -- out -- --- ------- -- - -----<br>---------- -- -- -- ---- ----- -- ------ -- --- ------<br>-------,410395.359999995,410394.1449999984,409437.152,409443.9199999906,409452.873,410401.636,,31,out
screen,html.Screen,2_3_1_0_1_32,2021-04-24T18:14:09.332Z,,,,,,,,,,,,,,,,,48,,,,,,,,,,,,,,391.0890000066138,,response,,,,10,E,,,,,,Space,keypress(Space),,,,lyrical,,,,-- -- --- ------ ------- --------- ----------- --------<br>--------- -------- --- ------- -- ------- ---- -- ------<br>-- --- -------- -------- ---------- ---- ---- ---- ------<br>-- --------- -- ---- -- --- of --- ------- -- - -----<br>---------- -- -- -- ---- ----- -- ------ -- --- ------<br>-------,410793.7399999937,410792.7250000066,410386.615,410395.6450000114,410401.636,410800.018,,32,of
screen,html.Screen,2_3_1_0_1_33,2021-04-24T18:14:09.860Z,,,,,,,,,,,,,,,,,48,,,,,,,,,,,,,,520.0869999916176,,response,,,,10,E,,,,,,Space,keypress(Space),,,,lyrical,,,,-- -- --- ------ ------- --------- ----------- --------<br>--------- -------- --- ------- -- ------- ---- -- ------<br>-- --- -------- -------- ---------- ---- ---- ---- ------<br>-- --------- -- ---- -- --- -- the ------- -- - -----<br>---------- -- -- -- ---- ----- -- ------ -- --- ------<br>-------,411321.17000001017,411320.1049999916,410785.223,410794.02999999,410800.018,411327.466,,33,the
screen,html.Screen,2_3_1_0_1_34,2021-04-24T18:14:10.953Z,,,,,,,,,,,,,,,,,48,,,,,,,,,,,,,,1086.2390000135638,,response,,,,10,E,,,,,,Space,keypress(Space),,,,lyrical,,,,-- -- --- ------ ------- --------- ----------- --------<br>--------- -------- --- ------- -- ------- ---- -- ------<br>-- --- -------- -------- ---------- ---- ---- ---- ------<br>-- --------- -- ---- -- --- -- --- country -- - -----<br>---------- -- -- -- ---- ----- -- ------ -- --- ------<br>-------,412414.75500000524,412413.7050000136,411317.016,411321.4450000087,411327.466,412421.018,,34,country
screen,html.Screen,2_3_1_0_1_35,2021-04-24T18:14:11.452Z,,,,,,,,,,,,,,,,,48,,,,,,,,,,,,,,491.4569999900996,,response,,,,10,E,,,,,,Space,keypress(Space),,,,lyrical,,,,-- -- --- ------ ------- --------- ----------- --------<br>--------- -------- --- ------- -- ------- ---- -- ------<br>-- --- -------- -------- ---------- ---- ---- ---- ------<br>-- --------- -- ---- -- --- -- --- ------- is - -----<br>---------- -- -- -- ---- ----- -- ------ -- --- ------<br>-------,412913.49499998614,412912.4749999901,412411.222,412415.0399999926,412421.018,412919.863,,35,is
screen,html.Screen,2_3_1_0_1_36,2021-04-24T18:14:11.851Z,,,,,,,,,,,,,,,,,48,,,,,,,,,,,,,,391.42200000339653,,response,,,,10,E,,,,,,Space,keypress(Space),,,,lyrical,,,,-- -- --- ------ ------- --------- ----------- --------<br>--------- -------- --- ------- -- ------- ---- -- ------<br>-- --- -------- -------- ---------- ---- ---- ---- ------<br>-- --------- -- ---- -- --- -- --- ------- -- a -----<br>---------- -- -- -- ---- ----- -- ------ -- --- ------<br>-------,413312.345000013,413311.2850000034,412904.647,412913.77000001376,412919.863,413318.645,,36,a
screen,html.Screen,2_3_1_0_1_37,2021-04-24T18:14:12.666Z,,,,,,,,,,,,,,,,,48,,,,,,,,,,,,,,807.9099999952596,,response,,,,10,E,,,,,,Space,keypress(Space),,,,lyrical,,,,-- -- --- ------ ------- --------- ----------- --------<br>--------- -------- --- ------- -- ------- ---- -- ------<br>-- --- -------- -------- ---------- ---- ---- ---- ------<br>-- --------- -- ---- -- --- -- --- ------- -- - crime<br>---------- -- -- -- ---- ----- -- ------ -- --- ------<br>-------,414127.72499999846,414126.5549999953,413303.417,413312.6350000093,413318.645,414134.035,,37,crime
screen,html.Screen,2_3_1_0_1_38,2021-04-24T18:14:13.330Z,,,,,,,,,,,,,,,,,48,,,,,,,,,,,,,,656.4899999894551,,response,,,,10,E,,,,,,Space,keypress(Space),,,,lyrical,,,,-- -- --- ------ ------- --------- ----------- --------<br>--------- -------- --- ------- -- ------- ---- -- ------<br>-- --- -------- -------- ---------- ---- ---- ---- ------<br>-- --------- -- ---- -- --- -- --- ------- -- - -----<br>punishable -- -- -- ---- ----- -- ------ -- --- ------<br>-------,414791.6400000104,414790.52499998943,414118.981,414127.999999997,414134.035,414797.98,,38,punishable
screen,html.Screen,2_3_1_0_1_39,2021-04-24T18:14:14.399Z,,,,,,,,,,,,,,,,,48,,,,,,,,,,,,,,1060.9999999899883,,response,,,,10,E,,,,,,Space,keypress(Space),,,,lyrical,,,,-- -- --- ------ ------- --------- ----------- --------<br>--------- -------- --- ------- -- ------- ---- -- ------<br>-- --- -------- -------- ---------- ---- ---- ---- ------<br>-- --------- -- ---- -- --- -- --- ------- -- - -----<br>---------- by -- -- ---- ----- -- ------ -- --- ------<br>-------,415860.01000000397,415858.97999998997,414784.208,414791.91999998875,414797.98,415866.283,,39,by
screen,html.Screen,2_3_1_0_1_40,2021-04-24T18:14:14.786Z,,,,,,,,,,,,,,,,,48,,,,,,,,,,,,,,380.202000010584,,response,,,,10,E,,,,,,Space,keypress(Space),,,,lyrical,,,,-- -- --- ------ ------- --------- ----------- --------<br>--------- -------- --- ------- -- ------- ---- -- ------<br>-- --- -------- -------- ---------- ---- ---- ---- ------<br>-- --------- -- ---- -- --- -- --- ------- -- - -----<br>---------- -- up -- ---- ----- -- ------ -- --- ------<br>-------,416247.68500000937,416246.4850000106,415848.247,415860.3000000003,415866.283,416254.142,,40,up
