sender,sender_type,sender_id,timestamp,meta,,Blues,Classical,Country,Dance,Electronic,Folk,Gospel,Hip-Hop,Jazz,Latin,Musical/Film,New-age,Pop,Prolific_id,Provo_ID,R&B,Rap,Reggae,Religious,Rock,Soul,Swing,Traditional,age,artist_name,correct,correctResponse,distraction,duration,education,ended_on,familiarity,gender,headphone_check_performance,item,list,music_frequency,offensiveness,pleasantness,position_correct,preference,response,response_action,snippet_file,song_name,song_rating,sound,stimulus_1,stimulus_2,stimulus_3,text,time_commit,time_end,time_render,time_run,time_show,time_switch,url,word,word_ID
Prolific ID,html.Form,0,2021-04-30T10:42:29.054Z,"{""labjs_version"":""20.2.2"",""labjs_build"":{""flavor"":""production"",""commit"":""a25486e0c714a0ae2ce03ff94b7bb6896854dcfa""},""location"":""https://run.pavlovia.org/mvasilev/prolific_music_c/"",""userAgent"":""Mozilla/5.0 (Macintosh; Intel Mac OS X 10_15_7) AppleWebKit/537.36 (KHTML, like Gecko) Chrome/90.0.4430.93 Safari/537.36"",""platform"":""MacIntel"",""language"":""en-GB"",""locale"":""en-GB"",""timeZone"":""Europe/London"",""timezoneOffset"":-60,""screen_width"":1440,""screen_height"":900,""scroll_width"":1311,""scroll_height"":682,""window_innerWidth"":1311,""window_innerHeight"":730,""devicePixelRatio"":2}",,,,,,,,,,,,,,,604b859f965723dde6768f6c,,,,,,,,,,,,,,,12147.29499999806,,form submission,,,,,,,,,,,,,,,,,,,,,18752.46000000334,18752.16499999806,6588.203,6593.249999990803,6604.87,18755.246,{},,
Introduction,html.Screen,1_0,2021-04-30T10:42:33.877Z,,,,,,,,,,,,,,,,,,,,,,,,,,,,,,,4815.393999990818,,response,,,,,,,,,,,continue,click button,,,,,,,,,23575.539999990724,23570.639999990817,18738.579,18752.71000000066,18755.246,23588.676,,,
Volume calibration,html.Screen,1_1,2021-04-30T10:43:19.788Z,,,,,,,,,,,,,,,,,,,,,,,,,,,,,,,45890.13400000052,,response,,,,,,,,,,,continue,click button,,,,,,,,,69487.91999999958,69478.81000000052,23572.009,23575.834999996005,23588.676,69489.819,,,
Task instructions,html.Screen,1_2,2021-04-30T10:43:25.662Z,,,,,,,,,,,,,,,,,,,,,,,,,,,,,,,5869.075999997571,,response,,,,,,,,,,,continue,click button,,,,,,,,,75362.00500000268,75358.89499999757,69473.152,69488.41999999422,69489.819,75373.27,,,
Sounds,html.Screen,1_3_0_0,2021-04-30T10:43:29.909Z,,,,,,,,,,,,,,,,,,,,,,,,,,,,,,,4250.084999999992,,timeout,,,,,,,,,3,,,,,,,,I,O,S,,79609.87499999464,79606.688,75356.603,75363.33500000183,75373.27,79623.355,,,
Judgement,html.Screen,1_3_0_1,2021-04-30T10:43:30.924Z,,,,,,,,,,,,,,,,,,,,,,,,,,,,true,3,,996.5849999895872,,response,,,,,,,,,3,,3,click #choice-3,,,,,I,O,S,,80624.12999999651,80619.93999998958,79606.688,79610.004999995,79623.355,80640.103,,,
Trial,flow.Sequence,1_3_0,2021-04-30T10:43:30.924Z,,,,,,,,,,,,,,,,,,,,,,,,,,,,,,,5246.669999989579,,completion,,,,,,,,,3,,,,,,,,I,O,S,,80624.54499999876,80619.93999998958,75356.603,75363.20999999589,75373.27,80640.103,,,
Sounds,html.Screen,1_3_1_0,2021-04-30T10:43:35.175Z,,,,,,,,,,,,,,,,,,,,,,,,,,,,,,,4250.084999999992,,timeout,,,,,,,,,2,,,,,,,,O,S,I,,84875.99999998929,84873.521,80623.436,80624.66999999015,80640.103,84890.188,,,
Judgement,html.Screen,1_3_1_1,2021-04-30T10:43:36.969Z,,,,,,,,,,,,,,,,,,,,,,,,,,,,true,2,,1776.1019999937562,,response,,,,,,,,,2,,2,click #choice-2,,,,,O,S,I,,86669.28999999072,86666.28999999375,84873.521,84876.33499999356,84890.188,86673.557,,,
Trial,flow.Sequence,1_3_1,2021-04-30T10:43:36.969Z,,,,,,,,,,,,,,,,,,,,,,,,,,,,,,,6026.186999993748,,completion,,,,,,,,,2,,,,,,,,O,S,I,,86669.71000000194,86666.28999999375,80623.436,80624.62499999674,80640.103,86673.557,,,
Sounds,html.Screen,1_3_2_0,2021-04-30T10:43:41.209Z,,,,,,,,,,,,,,,,,,,,,,,,,,,,,,,4250.085000000006,,timeout,,,,,,,,,2,,,,,,,,I,S,O,,90909.37500000291,90906.975,86656.89,86669.92000000027,86673.557,90923.642,,,
Judgement,html.Screen,1_3_2_1,2021-04-30T10:43:41.647Z,,,,,,,,,,,,,,,,,,,,,,,,,,,,true,2,,421.6779999930732,,response,,,,,,,,,2,,2,click #choice-2,,,,,I,S,O,,91348.29500000342,91345.31999999308,90906.975,90909.58500000124,90923.642,91356.984,,,
Trial,flow.Sequence,1_3_2,2021-04-30T10:43:41.648Z,,,,,,,,,,,,,,,,,,,,,,,,,,,,,,,4671.76299999308,,completion,,,,,,,,,2,,,,,,,,I,S,O,,91348.7499999901,91345.31999999308,86656.89,86669.83499999333,86673.557,91356.984,,,
Sounds,html.Screen,1_3_3_0,2021-04-30T10:43:45.892Z,,,,,,,,,,,,,,,,,,,,,,,,,,,,,,,4250.150999999998,,timeout,,,,,,,,,1,,,,,,,,S,I,O,,95592.8350000031,95590.468,91340.317,91349.04000000097,91356.984,95607.135,,,
Judgement,html.Screen,1_3_3_1,2021-04-30T10:43:46.279Z,,,,,,,,,,,,,,,,,,,,,,,,,,,,true,1,,369.15499999142776,,response,,,,,,,,,1,,1,click #choice-1,,,,,S,I,O,,95980.3799999936,95976.28999999142,95590.468,95592.99999999348,95607.135,95990.476,,,
Trial,flow.Sequence,1_3_3,2021-04-30T10:43:46.280Z,,,,,,,,,,,,,,,,,,,,,,,,,,,,,,,4619.305999991426,,completion,,,,,,,,,1,,,,,,,,S,I,O,,95980.71000000346,95976.28999999142,91340.317,91348.91499999503,91356.984,95990.476,,,
Sounds,html.Screen,1_3_4_0,2021-04-30T10:43:50.525Z,,,,,,,,,,,,,,,,,,,,,,,,,,,,,,,4250.085000000006,,timeout,,,,,,,,,1,,,,,,,,S,O,I,,100226.20999999344,100223.894,95973.809,95980.92000000179,95990.476,100240.561,,,
Judgement,html.Screen,1_3_4_1,2021-04-30T10:43:50.916Z,,,,,,,,,,,,,,,,,,,,,,,,,,,,true,1,,373.80899999568646,,response,,,,,,,,,1,,1,click #choice-1,,,,,S,O,I,,100617.25499999011,100614.36999999569,100223.894,100226.5849999967,100240.561,100623.902,,,
Trial,flow.Sequence,1_3_4,2021-04-30T10:43:50.917Z,,,,,,,,,,,,,,,,,,,,,,,,,,,,,,,4623.893999995693,,completion,,,,,,,,,1,,,,,,,,S,O,I,,100617.62999999337,100614.36999999569,95973.809,95980.83499999484,95990.476,100623.902,,,
Sounds,html.Screen,1_3_5_0,2021-04-30T10:43:55.158Z,,,,,,,,,,,,,,,,,,,,,,,,,,,,,,,4250.084999999992,,timeout,,,,,,,,,3,,,,,,,,O,I,S,,104859.16500000167,104857.32,100607.235,100617.87499999627,100623.902,104873.987,,,
Judgement,html.Screen,1_3_5_1,2021-04-30T10:43:55.717Z,,,,,,,,,,,,,,,,,,,,,,,,,,,,true,3,,540.7580000018643,,response,,,,,,,,,3,,3,click #choice-3,,,,,O,I,S,,105417.78999999224,105414.74500000186,104857.32,104859.29500000202,104873.987,105423.998,,,
Trial,flow.Sequence,1_3_5,2021-04-30T10:43:55.717Z,,,,,,,,,,,,,,,,,,,,,,,,,,,,,,,4790.843000001856,,completion,,,,,,,,,3,,,,,,,,O,I,S,,105418.12499999651,105414.74500000186,100607.235,100617.83499999729,100623.902,105423.998,,,
Task,flow.Loop,1_3,2021-04-30T10:43:55.725Z,,,,,,,,,,,,,,,,,,,,,,,,,,,,,,,30041.475000001854,,completion,,,1,,,,,,,,,,,,,,,,,,105426.20999999053,105414.74500000186,75356.603,75362.28999999003,75373.27,105423.998,,,
Trap,html.Screen,1_4,2021-04-30T10:43:55.732Z,,,,,,,,,,,,,,,,,,,,,,,,,,,,,,,NaN,,skipped,,,,,,,,,,,,,,,,,,,,,105432.79500000062,105414.74500000186,,105432.70999999368,,105423.998,,,
Thanks,html.Screen,1_5,2021-04-30T10:43:57.759Z,,,,,,,,,,,,,,,,,,,,,,,,,,,,,,,2033.786999991411,,response,,,,,,,,,,,continue,click button,,,,,,,,,107460.12499999779,107457.78499999142,105407.331,105432.91499999759,105423.998,111174.167,,,
Headphone screening,flow.Sequence,1,2021-04-30T10:43:57.759Z,,,,,,,,,,,,,,,,,,,,,,,,,,,,,,,88702.53899999142,,completion,,,,,,,,,,,,,,,,,,,,,107460.33499999612,107457.78499999142,18738.579,18752.67000000167,18755.246,111174.167,,,
Instructions,html.Page,2_0,2021-04-30T10:44:08.019Z,,,,,,,,,,,,,,,,,,,,,,,,,,,,,,,6545.338000000935,,form submission,,,,,,,,,,,,,,,,,,,,,117720.70999999414,117719.50500000094,111140.833,111168.95999999542,111174.167,117724.298,,,
Holding screen,html.Screen,2_1_0_0,2021-04-30T10:44:18.008Z,,,,,,,,,,,,,,,,,,,,,,,,,,,,,,,10016.950000000012,,timeout,,,,,,,,,,,,,,,,,,,,,127710.24999998917,127707.914,117707.631,117721.83499998937,117724.298,127741.248,,,
screen,html.Screen,2_1_0_1_0,2021-04-30T10:44:20.067Z,,,,,,,,,,,,,,,,,53,,,,,,,,,,,,,,2013.9319999928266,,response,,,,99,,,,,,,Space,keypress(Space),,,,,,,,When -- ----- -- ------ - ------- --- ----------<br>------------- ------ ------ ---- ---- ------- ----- -- ----<br>-------- ------- -- ---------- --- - --- ----- ----- ----<br>---- --- --- ----- --- ---- ---- ------- ----- ---- -------<br>--- --- -- ----- -- --- ---- -- --- ---- -- ------ ------<br>--- ----- -- ----,129769.12499999162,129755.17999999283,127707.914,127711.71000000322,127741.248,129774.622,,0,When
screen,html.Screen,2_1_0_1_1,2021-04-30T10:44:20.466Z,,,,,,,,,,,,,,,,,53,,,,,,,,,,,,,,385.3029999999271,,response,,,,99,,,,,,,Space,keypress(Space),,,,,,,,---- it ----- -- ------ - ------- --- ----------<br>------------- ------ ------ ---- ---- ------- ----- -- ----<br>-------- ------- -- ---------- --- - --- ----- ----- ----<br>---- --- --- ----- --- ---- ---- ------- ----- ---- -------<br>--- --- -- ----- -- --- ---- -- --- ---- -- ------ ------<br>--- ----- -- ----,130168.37499999383,130159.92499999993,129757.955,129769.37999999791,129774.622,130174.673,,1,it
screen,html.Screen,2_1_0_1_2,2021-04-30T10:44:20.850Z,,,,,,,,,,,,,,,,,53,,,,,,,,,,,,,,370.99199999783013,,response,,,,99,,,,,,,Space,keypress(Space),,,,,,,,---- -- comes -- ------ - ------- --- ----------<br>------------- ------ ------ ---- ---- ------- ----- -- ----<br>-------- ------- -- ---------- --- - --- ----- ----- ----<br>---- --- --- ----- --- ---- ---- ------- ----- ---- -------<br>--- --- -- ----- -- --- ---- -- --- ---- -- ------ ------<br>--- ----- -- ----,130551.5849999938,130545.66499999783,130158.006,130168.58499999216,130174.673,130558.014,,2,comes
screen,html.Screen,2_1_0_1_3,2021-04-30T10:44:21.209Z,,,,,,,,,,,,,,,,,53,,,,,,,,,,,,,,347.8459999989427,,response,,,,99,,,,,,,Space,keypress(Space),,,,,,,,---- -- ----- to ------ - ------- --- ----------<br>------------- ------ ------ ---- ---- ------- ----- -- ----<br>-------- ------- -- ---------- --- - --- ----- ----- ----<br>---- --- --- ----- --- ---- ---- ------- ----- ---- -------<br>--- --- -- ----- -- --- ---- -- --- ---- -- ------ ------<br>--- ----- -- ----,130911.2899999891,130905.85999999894,130541.347,130551.74999999872,130558.014,130924.688,,3,to
screen,html.Screen,2_1_0_1_4,2021-04-30T10:44:21.536Z,,,,,,,,,,,,,,,,,53,,,,,,,,,,,,,,307.14699999868753,,response,,,,99,,,,,,,Space,keypress(Space),,,,,,,,---- -- ----- -- having - ------- --- ----------<br>------------- ------ ------ ---- ---- ------- ----- -- ----<br>-------- ------- -- ---------- --- - --- ----- ----- ----<br>---- --- --- ----- --- ---- ---- ------- ----- ---- -------<br>--- --- -- ----- -- --- ---- -- --- ---- -- ------ ------<br>--- ----- -- ----,131237.45999998937,131231.83499999868,130908.021,130913.37499998917,130924.688,131241.361,,4,having
screen,html.Screen,2_1_0_1_5,2021-04-30T10:44:21.904Z,,,,,,,,,,,,,,,,,53,,,,,,,,,,,,,,359.0590000024822,,response,,,,99,,,,,,,Space,keypress(Space),,,,,,,,---- -- ----- -- ------ a ------- --- ----------<br>------------- ------ ------ ---- ---- ------- ----- -- ----<br>-------- ------- -- ---------- --- - --- ----- ----- ----<br>---- --- --- ----- --- ---- ---- ------- ----- ---- -------<br>--- --- -- ----- -- --- ---- -- --- ---- -- ------ ------<br>--- ----- -- ----,131606.08499999216,131600.4200000025,131224.694,131238.54500000016,131241.361,131608.035,,5,a
screen,html.Screen,2_1_0_1_6,2021-04-30T10:44:22.244Z,,,,,,,,,,,,,,,,,53,,,,,,,,,,,,,,332.2000000018452,,response,,,,99,,,,,,,Space,keypress(Space),,,,,,,,---- -- ----- -- ------ - lasting --- ----------<br>------------- ------ ------ ---- ---- ------- ----- -- ----<br>-------- ------- -- ---------- --- - --- ----- ----- ----<br>---- --- --- ----- --- ---- ---- ------- ----- ---- -------<br>--- --- -- ----- -- --- ---- -- --- ---- -- ------ ------<br>--- ----- -- ----,131946.41499999852,131940.23500000185,131591.368,131606.33499998949,131608.035,131958.042,,6,lasting
screen,html.Screen,2_1_0_1_7,2021-04-30T10:44:22.536Z,,,,,,,,,,,,,,,,,53,,,,,,,,,,,,,,274.38799998912145,,response,,,,99,,,,,,,Space,keypress(Space),,,,,,,,---- -- ----- -- ------ - ------- and ----------<br>------------- ------ ------ ---- ---- ------- ----- -- ----<br>-------- ------- -- ---------- --- - --- ----- ----- ----<br>---- --- --- ----- --- ---- ---- ------- ----- ---- -------<br>--- --- -- ----- -- --- ---- -- --- ---- -- ------ ------<br>--- ----- -- ----,132237.78999999922,132232.4299999891,131941.375,131946.62499999686,131958.042,132241.381,,7,and
screen,html.Screen,2_1_0_1_8,2021-04-30T10:44:22.737Z,,,,,,,,,,,,,,,,,53,,,,,,,,,,,,,,192.7789999897941,,response,,,,99,,,,,,,Space,keypress(Space),,,,,,,,---- -- ----- -- ------ - ------- --- fulfilling<br>------------- ------ ------ ---- ---- ------- ----- -- ----<br>-------- ------- -- ---------- --- - --- ----- ----- ----<br>---- --- --- ----- --- ---- ---- ------- ----- ---- -------<br>--- --- -- ----- -- --- ---- -- --- ---- -- ------ ------<br>--- ----- -- ----,132439.20999999682,132434.1599999898,132224.714,132238.1699999969,132241.381,132441.385,,8,fulfilling
screen,html.Screen,2_1_0_1_9,2021-04-30T10:44:23.299Z,,,,,,,,,,,,,,,,,53,,,,,,,,,,,,,,554.0799999999581,,response,,,,99,,,,,,,Space,keypress(Space),,,,,,,,"---- -- ----- -- ------ - ------- --- ----------<br>relationship, ------ ------ ---- ---- ------- ----- -- ----<br>-------- ------- -- ---------- --- - --- ----- ----- ----<br>---- --- --- ----- --- ---- ---- ------- ----- ---- -------<br>--- --- -- ----- -- --- ---- -- --- ---- -- ------ ------<br>--- ----- -- ----",133000.70999999298,132995.46499999997,132424.718,132439.8349999974,132441.385,133008.063,,9,"relationship,"
screen,html.Screen,2_1_0_1_10,2021-04-30T10:44:23.664Z,,,,,,,,,,,,,,,,,53,,,,,,,,,,,,,,351.93700000058743,,response,,,,99,,,,,,,Space,keypress(Space),,,,,,,,---- -- ----- -- ------ - ------- --- ----------<br>------------- common ------ ---- ---- ------- ----- -- ----<br>-------- ------- -- ---------- --- - --- ----- ----- ----<br>---- --- --- ----- --- ---- ---- ------- ----- ---- -------<br>--- --- -- ----- -- --- ---- -- --- ---- -- ------ ------<br>--- ----- -- ----,133365.8349999896,133360.00000000058,132991.396,133000.9149999969,133008.063,133374.737,,10,common
screen,html.Screen,2_1_0_1_11,2021-04-30T10:44:23.997Z,,,,,,,,,,,,,,,,,53,,,,,,,,,,,,,,319.1129999960249,,response,,,,99,,,,,,,Space,keypress(Space),,,,,,,,---- -- ----- -- ------ - ------- --- ----------<br>------------- ------ wisdom ---- ---- ------- ----- -- ----<br>-------- ------- -- ---------- --- - --- ----- ----- ----<br>---- --- --- ----- --- ---- ---- ------- ----- ---- -------<br>--- --- -- ----- -- --- ---- -- --- ---- -- ------ ------<br>--- ----- -- ----,133699.0850000002,133693.84999999602,133358.07,133366.16999999387,133374.737,133708.077,,11,wisdom
screen,html.Screen,2_1_0_1_12,2021-04-30T10:44:24.347Z,,,,,,,,,,,,,,,,,53,,,,,,,,,,,,,,335.16299999906914,,response,,,,99,,,,,,,Space,keypress(Space),,,,,,,,---- -- ----- -- ------ - ------- --- ----------<br>------------- ------ ------ says ---- ------- ----- -- ----<br>-------- ------- -- ---------- --- - --- ----- ----- ----<br>---- --- --- ----- --- ---- ---- ------- ----- ---- -------<br>--- --- -- ----- -- --- ---- -- --- ---- -- ------ ------<br>--- ----- -- ----,134048.58499999682,134043.23999999906,133691.41,133699.46000000346,133708.077,134058.084,,12,says
screen,html.Screen,2_1_0_1_13,2021-04-30T10:44:24.610Z,,,,,,,,,,,,,,,,,53,,,,,,,,,,,,,,250.8710000004212,,response,,,,99,,,,,,,Space,keypress(Space),,,,,,,,---- -- ----- -- ------ - ------- --- ----------<br>------------- ------ ------ ---- that ------- ----- -- ----<br>-------- ------- -- ---------- --- - --- ----- ----- ----<br>---- --- --- ----- --- ---- ---- ------- ----- ---- -------<br>--- --- -- ----- -- --- ---- -- --- ---- -- ------ ------<br>--- ----- -- ----,134311.7099999945,134308.95500000042,134041.417,134048.87499999313,134058.084,134324.756,,13,that
screen,html.Screen,2_1_0_1_14,2021-04-30T10:44:24.892Z,,,,,,,,,,,,,,,,,53,,,,,,,,,,,,,,264.6739999927231,,response,,,,99,,,,,,,Space,keypress(Space),,,,,,,,---- -- ----- -- ------ - ------- --- ----------<br>------------- ------ ------ ---- ---- feeling ----- -- ----<br>-------- ------- -- ---------- --- - --- ----- ----- ----<br>---- --- --- ----- --- ---- ---- ------- ----- ---- -------<br>--- --- -- ----- -- --- ---- -- --- ---- -- ------ ------<br>--- ----- -- ----,134593.75499999442,134589.42999999272,134308.089,134311.78999999247,134324.756,134608.095,,14,feeling
screen,html.Screen,2_1_0_1_15,2021-04-30T10:44:25.294Z,,,,,,,,,,,,,,,,,53,,,,,,,,,,,,,,382.2399999949557,,response,,,,99,,,,,,,Space,keypress(Space),,,,,,,,---- -- ----- -- ------ - ------- --- ----------<br>------------- ------ ------ ---- ---- ------- close -- ----<br>-------- ------- -- ---------- --- - --- ----- ----- ----<br>---- --- --- ----- --- ---- ---- ------- ----- ---- -------<br>--- --- -- ----- -- --- ---- -- --- ---- -- ------ ------<br>--- ----- -- ----,134995.99999999919,134990.33499999496,134591.428,134593.91499999037,134608.095,135008.103,,15,close
screen,html.Screen,2_1_0_1_16,2021-04-30T10:44:25.616Z,,,,,,,,,,,,,,,,,53,,,,,,,,,,,,,,304.7119999974966,,response,,,,99,,,,,,,Space,keypress(Space),,,,,,,,---- -- ----- -- ------ - ------- --- ----------<br>------------- ------ ------ ---- ---- ------- ----- to ----<br>-------- ------- -- ---------- --- - --- ----- ----- ----<br>---- --- --- ----- --- ---- ---- ------- ----- ---- -------<br>--- --- -- ----- -- --- ---- -- --- ---- -- ------ ------<br>--- ----- -- ----,135318.49999999395,135312.8149999975,134991.436,134996.33500000346,135008.103,135324.776,,16,to
screen,html.Screen,2_1_0_1_17,2021-04-30T10:44:25.947Z,,,,,,,,,,,,,,,,,53,,,,,,,,,,,,,,318.57899999286747,,response,,,,99,,,,,,,Space,keypress(Space),,,,,,,,---- -- ----- -- ------ - ------- --- ----------<br>------------- ------ ------ ---- ---- ------- ----- -- your<br>-------- ------- -- ---------- --- - --- ----- ----- ----<br>---- --- --- ----- --- ---- ---- ------- ----- ---- -------<br>--- --- -- ----- -- --- ---- -- --- ---- -- ------ ------<br>--- ----- -- ----,135649.03999998933,135643.35499999288,135308.109,135318.78999999026,135324.776,135658.116,,17,your
screen,html.Screen,2_1_0_1_18,2021-04-30T10:44:26.235Z,,,,,,,,,,,,,,,,,53,,,,,,,,,,,,,,274.81899998980225,,response,,,,99,,,,,,,Space,keypress(Space),,,,,,,,---- -- ----- -- ------ - ------- --- ----------<br>------------- ------ ------ ---- ---- ------- ----- -- ----<br>romantic ------- -- ---------- --- - --- ----- ----- ----<br>---- --- --- ----- --- ---- ---- ------- ----- ---- -------<br>--- --- -- ----- -- --- ---- -- --- ---- -- ------ ------<br>--- ----- -- ----,135937.460000001,135932.9349999898,135641.449,135649.29499999562,135658.116,135941.455,,18,romantic
screen,html.Screen,2_1_0_1_19,2021-04-30T10:44:26.585Z,,,,,,,,,,,,,,,,,53,,,,,,,,,,,,,,339.8549999912211,,response,,,,99,,,,,,,Space,keypress(Space),,,,,,,,---- -- ----- -- ------ - ------- --- ----------<br>------------- ------ ------ ---- ---- ------- ----- -- ----<br>-------- partner -- ---------- --- - --- ----- ----- ----<br>---- --- --- ----- --- ---- ---- ------- ----- ---- -------<br>--- --- -- ----- -- --- ---- -- --- ---- -- ------ ------<br>--- ----- -- ----,136287.24999999395,136281.3099999912,135924.788,135937.62499999139,135941.455,136291.462,,19,partner
screen,html.Screen,2_1_0_1_20,2021-04-30T10:44:26.894Z,,,,,,,,,,,,,,,,,53,,,,,,,,,,,,,,300.0729999995674,,response,,,,99,,,,,,,Space,keypress(Space),,,,,,,,---- -- ----- -- ------ - ------- --- ----------<br>------------- ------ ------ ---- ---- ------- ----- -- ----<br>-------- ------- is ---------- --- - --- ----- ----- ----<br>---- --- --- ----- --- ---- ---- ------- ----- ---- -------<br>--- --- -- ----- -- --- ---- -- --- ---- -- ------ ------<br>--- ----- -- ----,136596.1699999898,136591.53499999957,136274.795,136287.54499999923,136291.462,136608.135,,20,is
screen,html.Screen,2_1_0_1_21,2021-04-30T10:44:27.215Z,,,,,,,,,,,,,,,,,53,,,,,,,,,,,,,,304.32499999227,,response,,,,99,,,,,,,Space,keypress(Space),,,,,,,,---- -- ----- -- ------ - ------- --- ----------<br>------------- ------ ------ ---- ---- ------- ----- -- ----<br>-------- ------- -- paramount. --- - --- ----- ----- ----<br>---- --- --- ----- --- ---- ---- ------- ----- ---- -------<br>--- --- -- ----- -- --- ---- -- --- ---- -- ------ ------<br>--- ----- -- ----,136917.45999999694,136912.45999999228,136591.468,136596.3749999937,136608.135,136924.808,,21,paramount.
screen,html.Screen,2_1_0_1_22,2021-04-30T10:44:27.542Z,,,,,,,,,,,,,,,,,53,,,,,,,,,,,,,,314.92699999557226,,response,,,,99,,,,,,,Space,keypress(Space),,,,,,,,---- -- ----- -- ------ - ------- --- ----------<br>------------- ------ ------ ---- ---- ------- ----- -- ----<br>-------- ------- -- ---------- But - --- ----- ----- ----<br>---- --- --- ----- --- ---- ---- ------- ----- ---- -------<br>--- --- -- ----- -- --- ---- -- --- ---- -- ------ ------<br>--- ----- -- ----,137244.29000000237,137239.73499999556,136908.141,136917.7950000012,136924.808,137258.148,,22,But
screen,html.Screen,2_1_0_1_23,2021-04-30T10:44:27.823Z,,,,,,,,,,,,,,,,,53,,,,,,,,,,,,,,261.66699999239063,,response,,,,99,,,,,,,Space,keypress(Space),,,,,,,,---- -- ----- -- ------ - ------- --- ----------<br>------------- ------ ------ ---- ---- ------- ----- -- ----<br>-------- ------- -- ---------- --- a --- ----- ----- ----<br>---- --- --- ----- --- ---- ---- ------- ----- ---- -------<br>--- --- -- ----- -- --- ---- -- --- ---- -- ------ ------<br>--- ----- -- ----,137525.41999999085,137519.81499999238,137241.481,137244.5849999931,137258.148,137541.487,,23,a
screen,html.Screen,2_1_0_1_24,2021-04-30T10:44:28.127Z,,,,,,,,,,,,,,,,,53,,,,,,,,,,,,,,284.68799999469775,,response,,,,99,,,,,,,Space,keypress(Space),,,,,,,,---- -- ----- -- ------ - ------- --- ----------<br>------------- ------ ------ ---- ---- ------- ----- -- ----<br>-------- ------- -- ---------- --- - new ----- ----- ----<br>---- --- --- ----- --- ---- ---- ------- ----- ---- -------<br>--- --- -- ----- -- --- ---- -- --- ---- -- ------ ------<br>--- ----- -- ----,137828.62499999464,137826.1749999947,137524.82,137525.7500000007,137541.487,137841.493,,24,new
screen,html.Screen,2_1_0_1_25,2021-04-30T10:44:28.480Z,,,,,,,,,,,,,,,,,53,,,,,,,,,,,,,,338.0719999985595,,response,,,,99,,,,,,,Space,keypress(Space),,,,,,,,---- -- ----- -- ------ - ------- --- ----------<br>------------- ------ ------ ---- ---- ------- ----- -- ----<br>-------- ------- -- ---------- --- - --- study ----- ----<br>---- --- --- ----- --- ---- ---- ------- ----- ---- -------<br>--- --- -- ----- -- --- ---- -- --- ---- -- ------ ------<br>--- ----- -- ----,138181.83499999577,138179.56499999855,137824.826,137828.754999995,137841.493,138191.5,,25,study
screen,html.Screen,2_1_0_1_26,2021-04-30T10:44:28.779Z,,,,,,,,,,,,,,,,,53,,,,,,,,,,,,,,286.8549999992829,,response,,,,99,,,,,,,Space,keypress(Space),,,,,,,,---- -- ----- -- ------ - ------- --- ----------<br>------------- ------ ------ ---- ---- ------- ----- -- ----<br>-------- ------- -- ---------- --- - --- ----- finds ----<br>---- --- --- ----- --- ---- ---- ------- ----- ---- -------<br>--- --- -- ----- -- --- ---- -- --- ---- -- ------ ------<br>--- ----- -- ----,138480.99999999977,138478.35499999928,138174.833,138182.24999999802,138191.5,138491.596,,26,finds
screen,html.Screen,2_1_0_1_27,2021-04-30T10:44:29.027Z,,,,,,,,,,,,,,,,,53,,,,,,,,,,,,,,233.04899999478948,,response,,,,99,,,,,,,Space,keypress(Space),,,,,,,,---- -- ----- -- ------ - ------- --- ----------<br>------------- ------ ------ ---- ---- ------- ----- -- ----<br>-------- ------- -- ---------- --- - --- ----- ----- that<br>---- --- --- ----- --- ---- ---- ------- ----- ---- -------<br>--- --- -- ----- -- --- ---- -- --- ---- -- ------ ------<br>--- ----- -- ----,138729.33499999635,138724.64499999478,138474.929,138481.12499999115,138491.596,138741.601,,27,that
screen,html.Screen,2_1_0_1_28,2021-04-30T10:44:29.341Z,,,,,,,,,,,,,,,,,53,,,,,,,,,,,,,,292.9440000022587,,response,,,,99,,,,,,,Space,keypress(Space),,,,,,,,---- -- ----- -- ------ - ------- --- ----------<br>------------- ------ ------ ---- ---- ------- ----- -- ----<br>-------- ------- -- ---------- --- - --- ----- ----- ----<br>it's --- --- ----- --- ---- ---- ------- ----- ---- -------<br>--- --- -- ----- -- --- ---- -- --- ---- -- ------ ------<br>--- ----- -- ----,139043.50499999418,139034.54500000225,138724.934,138729.58499999368,138741.601,139058.274,,28,it's
screen,html.Screen,2_1_0_1_29,2021-04-30T10:44:29.613Z,,,,,,,,,,,,,,,,,53,,,,,,,,,,,,,,250.88099999536644,,response,,,,99,,,,,,,Space,keypress(Space),,,,,,,,---- -- ----- -- ------ - ------- --- ----------<br>------------- ------ ------ ---- ---- ------- ----- -- ----<br>-------- ------- -- ---------- --- - --- ----- ----- ----<br>---- not --- ----- --- ---- ---- ------- ----- ---- -------<br>--- --- -- ----- -- --- ---- -- --- ---- -- ------ ------<br>--- ----- -- ----,139315.6250000029,139309.15499999537,139041.607,139044.33499999868,139058.274,139324.946,,29,not
screen,html.Screen,2_1_0_1_30,2021-04-30T10:44:29.886Z,,,,,,,,,,,,,,,,,53,,,,,,,,,,,,,,258.5289999921806,,response,,,,99,,,,,,,Space,keypress(Space),,,,,,,,---- -- ----- -- ------ - ------- --- ----------<br>------------- ------ ------ ---- ---- ------- ----- -- ----<br>-------- ------- -- ---------- --- - --- ----- ----- ----<br>---- --- how ----- --- ---- ---- ------- ----- ---- -------<br>--- --- -- ----- -- --- ---- -- --- ---- -- ------ ------<br>--- ----- -- ----,139588.45999999903,139583.47499999218,139308.279,139315.87500000023,139324.946,139591.618,,30,how
screen,html.Screen,2_1_0_1_31,2021-04-30T10:44:30.141Z,,,,,,,,,,,,,,,,,53,,,,,,,,,,,,,,246.81699999785633,,response,,,,99,,,,,,,Space,keypress(Space),,,,,,,,---- -- ----- -- ------ - ------- --- ----------<br>------------- ------ ------ ---- ---- ------- ----- -- ----<br>-------- ------- -- ---------- --- - --- ----- ----- ----<br>---- --- --- close --- ---- ---- ------- ----- ---- -------<br>--- --- -- ----- -- --- ---- -- --- ---- -- ------ ------<br>--- ----- -- ----,139842.9599999945,139838.43499999784,139574.951,139588.58499999042,139591.618,139858.29,,31,close
screen,html.Screen,2_1_0_1_32,2021-04-30T10:44:30.413Z,,,,,,,,,,,,,,,,,53,,,,,,,,,,,,,,254.9449999970675,,response,,,,99,,,,,,,Space,keypress(Space),,,,,,,,---- -- ----- -- ------ - ------- --- ----------<br>------------- ------ ------ ---- ---- ------- ----- -- ----<br>-------- ------- -- ---------- --- - --- ----- ----- ----<br>---- --- --- ----- you ---- ---- ------- ----- ---- -------<br>--- --- -- ----- -- --- ---- -- --- ---- -- ------ ------<br>--- ----- -- ----,140115.66499999026,140113.23499999708,139841.623,139843.2099999918,139858.29,140124.962,,32,you
screen,html.Screen,2_1_0_1_33,2021-04-30T10:44:30.692Z,,,,,,,,,,,,,,,,,53,,,,,,,,,,,,,,262.01300000125775,,response,,,,99,,,,,,,Space,keypress(Space),,,,,,,,---- -- ----- -- ------ - ------- --- ----------<br>------------- ------ ------ ---- ---- ------- ----- -- ----<br>-------- ------- -- ---------- --- - --- ----- ----- ----<br>---- --- --- ----- --- feel ---- ------- ----- ---- -------<br>--- --- -- ----- -- --- ---- -- --- ---- -- ------ ------<br>--- ----- -- ----,140394.03999999922,140386.97500000126,140108.295,140118.87999999453,140124.962,140408.301,,33,feel
screen,html.Screen,2_1_0_1_34,2021-04-30T10:44:30.973Z,,,,,,,,,,,,,,,,,53,,,,,,,,,,,,,,261.44900000092457,,response,,,,99,,,,,,,Space,keypress(Space),,,,,,,,---- -- ----- -- ------ - ------- --- ----------<br>------------- ------ ------ ---- ---- ------- ----- -- ----<br>-------- ------- -- ---------- --- - --- ----- ----- ----<br>---- --- --- ----- --- ---- that ------- ----- ---- -------<br>--- --- -- ----- -- --- ---- -- --- ---- -- ------ ------<br>--- ----- -- ----,140674.78999999003,140669.75000000093,140391.634,140394.24999999756,140408.301,140691.64,,34,that
screen,html.Screen,2_1_0_1_35,2021-04-30T10:44:31.252Z,,,,,,,,,,,,,,,,,53,,,,,,,,,,,,,,257.9650000015972,,response,,,,99,,,,,,,Space,keypress(Space),,,,,,,,---- -- ----- -- ------ - ------- --- ----------<br>------------- ------ ------ ---- ---- ------- ----- -- ----<br>-------- ------- -- ---------- --- - --- ----- ----- ----<br>---- --- --- ----- --- ---- ---- matters ----- ---- -------<br>--- --- -- ----- -- --- ---- -- --- ---- -- ------ ------<br>--- ----- -- ----,140954.33500000217,140949.6050000016,140674.973,140675.04499999632,140691.64,140958.312,,35,matters
screen,html.Screen,2_1_0_1_36,2021-04-30T10:44:31.541Z,,,,,,,,,,,,,,,,,53,,,,,,,,,,,,,,279.6429999895918,,response,,,,99,,,,,,,Space,keypress(Space),,,,,,,,"---- -- ----- -- ------ - ------- --- ----------<br>------------- ------ ------ ---- ---- ------- ----- -- ----<br>-------- ------- -- ---------- --- - --- ----- ----- ----<br>---- --- --- ----- --- ---- ---- ------- most, ---- -------<br>--- --- -- ----- -- --- ---- -- --- ---- -- ------ ------<br>--- ----- -- ----",141243.53999999585,141237.9549999896,140941.645,140955.66999999573,140958.312,141258.318,,36,"most,"
screen,html.Screen,2_1_0_1_37,2021-04-30T10:44:31.818Z,,,,,,,,,,,,,,,,,53,,,,,,,,,,,,,,258.48699999201926,,response,,,,99,,,,,,,Space,keypress(Space),,,,,,,,---- -- ----- -- ------ - ------- --- ----------<br>------------- ------ ------ ---- ---- ------- ----- -- ----<br>-------- ------- -- ---------- --- - --- ----- ----- ----<br>---- --- --- ----- --- ---- ---- ------- ----- it's -------<br>--- --- -- ----- -- --- ---- -- --- ---- -- ------ ------<br>--- ----- -- ----,141520.3349999938,141516.80499999202,141241.651,141243.83500000113,141258.318,141524.99,,37,it's
screen,html.Screen,2_1_0_1_38,2021-04-30T10:44:32.169Z,,,,,,,,,,,,,,,,,53,,,,,,,,,,,,,,341.60999999393243,,response,,,,99,,,,,,,Space,keypress(Space),,,,,,,,---- -- ----- -- ------ - ------- --- ----------<br>------------- ------ ------ ---- ---- ------- ----- -- ----<br>-------- ------- -- ---------- --- - --- ----- ----- ----<br>---- --- --- ----- --- ---- ---- ------- ----- ---- whether<br>--- --- -- ----- -- --- ---- -- --- ---- -- ------ ------<br>--- ----- -- ----,141871.12999999954,141866.59999999392,141508.323,141520.45999999973,141524.99,141874.997,,38,whether
screen,html.Screen,2_1_0_1_39,2021-04-30T10:44:32.456Z,,,,,,,,,,,,,,,,,53,,,,,,,,,,,,,,278.43299999120063,,response,,,,99,,,,,,,Space,keypress(Space),,,,,,,,---- -- ----- -- ------ - ------- --- ----------<br>------------- ------ ------ ---- ---- ------- ----- -- ----<br>-------- ------- -- ---------- --- - --- ----- ----- ----<br>---- --- --- ----- --- ---- ---- ------- ----- ---- -------<br>you --- -- ----- -- --- ---- -- --- ---- -- ------ ------<br>--- ----- -- ----,142158.33500000008,142153.4299999912,141858.33,141871.41999999585,141874.997,142175.003,,39,you
screen,html.Screen,2_1_0_1_40,2021-04-30T10:44:32.747Z,,,,,,,,,,,,,,,,,53,,,,,,,,,,,,,,271.747000002797,,response,,,,99,,,,,,,Space,keypress(Space),,,,,,,,---- -- ----- -- ------ - ------- --- ----------<br>------------- ------ ------ ---- ---- ------- ----- -- ----<br>-------- ------- -- ---------- --- - --- ----- ----- ----<br>---- --- --- ----- --- ---- ---- ------- ----- ---- -------<br>--- are -- ----- -- --- ---- -- --- ---- -- ------ ------<br>--- ----- -- ----,142449.33499999752,142446.7500000028,142158.336,142158.66499999538,142175.003,142458.342,,40,are
screen,html.Screen,2_1_0_1_41,2021-04-30T10:44:32.971Z,,,,,,,,,,,,,,,,,53,,,,,,,,,,,,,,209.28300000185845,,response,,,,99,,,,,,,Space,keypress(Space),,,,,,,,---- -- ----- -- ------ - ------- --- ----------<br>------------- ------ ------ ---- ---- ------- ----- -- ----<br>-------- ------- -- ---------- --- - --- ----- ----- ----<br>---- --- --- ----- --- ---- ---- ------- ----- ---- -------<br>--- --- as ----- -- --- ---- -- --- ---- -- ------ ------<br>--- ----- -- ----,142672.7949999913,142667.62500000186,142441.675,142449.46000000346,142458.342,142675.013,,41,as
screen,html.Screen,2_1_0_1_42,2021-04-30T10:44:33.265Z,,,,,,,,,,,,,,,,,53,,,,,,,,,,,,,,287.8169999894744,,response,,,,99,,,,,,,Space,keypress(Space),,,,,,,,---- -- ----- -- ------ - ------- --- ----------<br>------------- ------ ------ ---- ---- ------- ----- -- ----<br>-------- ------- -- ---------- --- - --- ----- ----- ----<br>---- --- --- ----- --- ---- ---- ------- ----- ---- -------<br>--- --- -- close -- --- ---- -- --- ---- -- ------ ------<br>--- ----- -- ----,142966.91999999166,142962.82999998948,142658.346,142673.16999999457,142675.013,142975.019,,42,close
screen,html.Screen,2_1_0_1_43,2021-04-30T10:44:33.486Z,,,,,,,,,,,,,,,,,53,,,,,,,,,,,,,,210.7460000019928,,response,,,,99,,,,,,,Space,keypress(Space),,,,,,,,---- -- ----- -- ------ - ------- --- ----------<br>------------- ------ ------ ---- ---- ------- ----- -- ----<br>-------- ------- -- ---------- --- - --- ----- ----- ----<br>---- --- --- ----- --- ---- ---- ------- ----- ---- -------<br>--- --- -- ----- as --- ---- -- --- ---- -- ------ ------<br>--- ----- -- ----,143188.3749999979,143185.765000002,142958.352,142967.12499999558,142975.019,143191.69,,43,as
screen,html.Screen,2_1_0_1_44,2021-04-30T10:44:33.786Z,,,,,,,,,,,,,,,,,53,,,,,,,,,,,,,,293.04999999987194,,response,,,,99,,,,,,,Space,keypress(Space),,,,,,,,---- -- ----- -- ------ - ------- --- ----------<br>------------- ------ ------ ---- ---- ------- ----- -- ----<br>-------- ------- -- ---------- --- - --- ----- ----- ----<br>---- --- --- ----- --- ---- ---- ------- ----- ---- -------<br>--- --- -- ----- -- you ---- -- --- ---- -- ------ ------<br>--- ----- -- ----,143487.9149999906,143484.73999999987,143175.023,143188.4999999893,143191.69,143491.696,,44,you
screen,html.Screen,2_1_0_1_45,2021-04-30T10:44:34.017Z,,,,,,,,,,,,,,,,,53,,,,,,,,,,,,,,220.97399999352638,,response,,,,99,,,,,,,Space,keypress(Space),,,,,,,,---- -- ----- -- ------ - ------- --- ----------<br>------------- ------ ------ ---- ---- ------- ----- -- ----<br>-------- ------- -- ---------- --- - --- ----- ----- ----<br>---- --- --- ----- --- ---- ---- ------- ----- ---- -------<br>--- --- -- ----- -- --- want -- --- ---- -- ------ ------<br>--- ----- -- ----,143719.24999999464,143712.66999999352,143475.029,143487.99999999756,143491.696,143725.034,,45,want
screen,html.Screen,2_1_0_1_46,2021-04-30T10:44:34.474Z,,,,,,,,,,,,,,,,,53,,,,,,,,,,,,,,446.73600000081933,,response,,,,99,,,,,,,Space,keypress(Space),,,,,,,,---- -- ----- -- ------ - ------- --- ----------<br>------------- ------ ------ ---- ---- ------- ----- -- ----<br>-------- ------- -- ---------- --- - --- ----- ----- ----<br>---- --- --- ----- --- ---- ---- ------- ----- ---- -------<br>--- --- -- ----- -- --- ---- to --- ---- -- ------ ------<br>--- ----- -- ----,144176.74999999872,144171.77000000083,143708.367,143719.49999999197,143725.034,144191.71,,46,to
screen,html.Screen,2_1_0_1_47,2021-04-30T10:44:34.726Z,,,,,,,,,,,,,,,,,53,,,,,,,,,,,,,,232.1349999975355,,response,,,,99,,,,,,,Space,keypress(Space),,,,,,,,"---- -- ----- -- ------ - ------- --- ----------<br>------------- ------ ------ ---- ---- ------- ----- -- ----<br>-------- ------- -- ---------- --- - --- ----- ----- ----<br>---- --- --- ----- --- ---- ---- ------- ----- ---- -------<br>--- --- -- ----- -- --- ---- -- be, ---- -- ------ ------<br>--- ----- -- ----",144428.45999999554,144423.84499999753,144175.043,144176.99999999604,144191.71,144441.715,,47,"be,"
screen,html.Screen,2_1_0_1_48,2021-04-30T10:44:34.948Z,,,,,,,,,,,,,,,,,53,,,,,,,,,,,,,,204.14499998962856,,response,,,,99,,,,,,,Space,keypress(Space),,,,,,,,---- -- ----- -- ------ - ------- --- ----------<br>------------- ------ ------ ---- ---- ------- ----- -- ----<br>-------- ------- -- ---------- --- - --- ----- ----- ----<br>---- --- --- ----- --- ---- ---- ------- ----- ---- -------<br>--- --- -- ----- -- --- ---- -- --- even -- ------ ------<br>--- ----- -- ----,144650.7500000007,144645.85999998963,144425.048,144428.66999999387,144441.715,144658.386,,48,even
screen,html.Screen,2_1_0_1_49,2021-04-30T10:44:35.150Z,,,,,,,,,,,,,,,,,53,,,,,,,,,,,,,,191.1240000000107,,response,,,,99,,,,,,,Space,keypress(Space),,,,,,,,---- -- ----- -- ------ - ------- --- ----------<br>------------- ------ ------ ---- ---- ------- ----- -- ----<br>-------- ------- -- ---------- --- - --- ----- ----- ----<br>---- --- --- ----- --- ---- ---- ------- ----- ---- -------<br>--- --- -- ----- -- --- ---- -- --- ---- if ------ ------<br>--- ----- -- ----,144852.3750000022,144849.51,144641.719,144653.91999999702,144658.386,144858.39,,49,if
screen,html.Screen,2_1_0_1_50,2021-04-30T10:44:35.352Z,,,,,,,,,,,,,,,,,53,,,,,,,,,,,,,,189.609999995213,,response,,,,99,,,,,,,Space,keypress(Space),,,,,,,,---- -- ----- -- ------ - ------- --- ----------<br>------------- ------ ------ ---- ---- ------- ----- -- ----<br>-------- ------- -- ---------- --- - --- ----- ----- ----<br>---- --- --- ----- --- ---- ---- ------- ----- ---- -------<br>--- --- -- ----- -- --- ---- -- --- ---- -- that's ------<br>--- ----- -- ----,145053.91499999678,145047.99999999523,144841.723,144852.7899999899,144858.39,145058.394,,50,that's
screen,html.Screen,2_1_0_1_51,2021-04-30T10:44:35.764Z,,,,,,,,,,,,,,,,,53,,,,,,,,,,,,,,403.0659999913478,,response,,,,99,,,,,,,Space,keypress(Space),,,,,,,,---- -- ----- -- ------ - ------- --- ----------<br>------------- ------ ------ ---- ---- ------- ----- -- ----<br>-------- ------- -- ---------- --- - --- ----- ----- ----<br>---- --- --- ----- --- ---- ---- ------- ----- ---- -------<br>--- --- -- ----- -- --- ---- -- --- ---- -- ------ really<br>--- ----- -- ----,145466.33499999007,145461.45999999135,145041.727,145054.21000000206,145058.394,145475.069,,51,really
screen,html.Screen,2_1_0_1_52,2021-04-30T10:44:36.224Z,,,,,,,,,,,,,,,,,53,,,,,,,,,,,,,,446.07600000026287,,response,,,,99,,,,,,,Space,keypress(Space),,,,,,,,---- -- ----- -- ------ - ------- --- ----------<br>------------- ------ ------ ---- ---- ------- ----- -- ----<br>-------- ------- -- ---------- --- - --- ----- ----- ----<br>---- --- --- ----- --- ---- ---- ------- ----- ---- -------<br>--- --- -- ----- -- --- ---- -- --- ---- -- ------ ------<br>not ----- -- ----,145926.5849999938,145921.14500000025,145458.402,145466.54500000295,145475.069,145941.745,,52,not
screen,html.Screen,2_1_0_1_53,2021-04-30T10:44:36.531Z,,,,,,,,,,,,,,,,,53,,,,,,,,,,,,,,286.70499999506865,,response,,,,99,,,,,,,Space,keypress(Space),,,,,,,,---- -- ----- -- ------ - ------- --- ----------<br>------------- ------ ------ ---- ---- ------- ----- -- ----<br>-------- ------- -- ---------- --- - --- ----- ----- ----<br>---- --- --- ----- --- ---- ---- ------- ----- ---- -------<br>--- --- -- ----- -- --- ---- -- --- ---- -- ------ ------<br>--- close -- ----,146233.33499999717,146228.44999999506,145925.078,145926.83499999112,145941.745,146241.751,,53,close
screen,html.Screen,2_1_0_1_54,2021-04-30T10:44:36.824Z,,,,,,,,,,,,,,,,,53,,,,,,,,,,,,,,282.4789999954519,,response,,,,99,,,,,,,Space,keypress(Space),,,,,,,,---- -- ----- -- ------ - ------- --- ----------<br>------------- ------ ------ ---- ---- ------- ----- -- ----<br>-------- ------- -- ---------- --- - --- ----- ----- ----<br>---- --- --- ----- --- ---- ---- ------- ----- ---- -------<br>--- --- -- ----- -- --- ---- -- --- ---- -- ------ ------<br>--- ----- at ----,146526.669999992,146524.22999999544,146225.084,146233.5449999955,146241.751,146541.757,,54,at
screen,html.Screen,2_1_0_1_55,2021-04-30T10:44:37.075Z,,,,,,,,,,,,,,,,,53,,,,,,,,,,,,,,231.51799999954528,,response,,,,99,,,,,,,Space,keypress(Space),,,,,,,,---- -- ----- -- ------ - ------- --- ----------<br>------------- ------ ------ ---- ---- ------- ----- -- ----<br>-------- ------- -- ---------- --- - --- ----- ----- ----<br>---- --- --- ----- --- ---- ---- ------- ----- ---- -------<br>--- --- -- ----- -- --- ---- -- --- ---- -- ------ ------<br>--- ----- -- all.,146777.4999999965,146773.27499999956,146525.09,146526.75499999896,146541.757,146791.762,,55,all.
Item 99,flow.Loop,2_1_0_1,2021-04-30T10:44:37.076Z,,,,,,,,,,,,,,,,,,,,,,,,,,,,,,,19032.02699999955,,completion,,,,,C,,,,,,,,,,,silence,,,,,146777.87499999977,146773.27499999956,127707.914,127710.67000000039,127741.248,146791.762,,,
Question 1,html.Screen,2_1_0_2,2021-04-30T10:44:39.987Z,,,,,,,,,,,,,,,,,,,,,,,,,,,,true,FALSE,,2894.712999994983,,response,,,,99,C,,,,,,FALSE,click #choice-2,,,,silence,,,,,149689.33500000276,149686.47499999497,146775.095,146779.5849999966,146791.762,149691.809,,,
Question 2,html.Screen,2_1_0_3,2021-04-30T10:44:45.014Z,,,,,,,,,,,,,,,,,,,,,,,,,,,,true,TRUE,,5022.4310000011465,,response,,,,99,C,,,,,,TRUE,click #choice-1,,,,silence,,,,,154716.28999999666,154714.24000000115,149675.142,149689.58500000008,149691.809,154725.243,,,
Item 99,flow.Sequence,2_1_0,2021-04-30T10:44:45.014Z,,,,,,,,,,,,,,,,,,,,,,,,,,,,,,,36989.94200000116,,completion,,,,,,,,,,,,,,,,,,,,,154716.58500000194,154714.24000000115,117707.631,117721.74999999697,117724.298,154725.243,,,
Holding screen,html.Screen,2_1_1_0,2021-04-30T10:44:55.008Z,,,,,,,,,,,,,,,,,,,,,,,,,,,,,,,10000.25,,timeout,,,,,,,,,,,,,,,,,,,,,164710.83499999077,164708.826,154708.576,154718.33499999775,154725.243,164725.493,,,
screen,html.Screen,2_1_1_1_0,2021-04-30T10:44:55.666Z,,,,,,,,,,,,,,,,,54,,,,,,,,,,,,,,635.6719999948109,,response,,,,100,,,,,,,Space,keypress(Space),,,,,,,,At --- ---- --- ------ ----- ------- ---- -- --- ------- --<br>------- ---------- ------ -- ----- -- ----- -- ---- ------<br>--- ----- --- --- ------ -------- ----- --- ------ ----- --<br>----- ----- ---------- --- --- ------ ------ ---- -- ------<br>------- --- ------ ----- --- ---- ------- -- ---- --- --<br>------- ------,165369.33499999577,165361.1649999948,164708.826,164711.08500000264,164725.493,165375.506,,0,At
screen,html.Screen,2_1_1_1_1,2021-04-30T10:44:55.985Z,,,,,,,,,,,,,,,,,54,,,,,,,,,,,,,,307.3989999942132,,response,,,,100,,,,,,,Space,keypress(Space),,,,,,,,-- the ---- --- ------ ----- ------- ---- -- --- ------- --<br>------- ---------- ------ -- ----- -- ----- -- ---- ------<br>--- ----- --- --- ------ -------- ----- --- ------ ----- --<br>----- ----- ---------- --- --- ------ ------ ---- -- ------<br>------- --- ------ ----- --- ---- ------- -- ---- --- --<br>------- ------,165687.91500000225,165682.9049999942,165358.839,165369.67000000004,165375.506,165692.179,,1,the
screen,html.Screen,2_1_1_1_2,2021-04-30T10:44:56.225Z,,,,,,,,,,,,,,,,,54,,,,,,,,,,,,,,229.97599999292288,,response,,,,100,,,,,,,Space,keypress(Space),,,,,,,,-- --- time --- ------ ----- ------- ---- -- --- ------- --<br>------- ---------- ------ -- ----- -- ----- -- ---- ------<br>--- ----- --- --- ------ -------- ----- --- ------ ----- --<br>----- ----- ---------- --- --- ------ ------ ---- -- ------<br>------- --- ------ ----- --- ---- ------- -- ---- --- --<br>------- ------,165927.4999999907,165922.15499999293,165675.512,165688.16499999957,165692.179,165942.184,,2,time
screen,html.Screen,2_1_1_1_3,2021-04-30T10:44:56.419Z,,,,,,,,,,,,,,,,,54,,,,,,,,,,,,,,174.6659999912372,,response,,,,100,,,,,,,Space,keypress(Space),,,,,,,,-- --- ---- the ------ ----- ------- ---- -- --- ------- --<br>------- ---------- ------ -- ----- -- ----- -- ---- ------<br>--- ----- --- --- ------ -------- ----- --- ------ ----- --<br>----- ----- ---------- --- --- ------ ------ ---- -- ------<br>------- --- ------ ----- --- ---- ------- -- ---- --- --<br>------- ------,166121.62499999977,166116.84999999125,165925.517,165927.87499999395,165942.184,166125.521,,3,the
screen,html.Screen,2_1_1_1_4,2021-04-30T10:44:56.688Z,,,,,,,,,,,,,,,,,54,,,,,,,,,,,,,,260.7989999905112,,response,,,,100,,,,,,,Space,keypress(Space),,,,,,,,-- --- ---- --- French ----- ------- ---- -- --- ------- --<br>------- ---------- ------ -- ----- -- ----- -- ---- ------<br>--- ----- --- --- ------ -------- ----- --- ------ ----- --<br>----- ----- ---------- --- --- ------ ------ ---- -- ------<br>------- --- ------ ----- --- ---- ------- -- ---- --- --<br>------- ------,166391.294999994,166386.31999999052,166108.854,166121.91499999608,166125.521,166408.86,,4,French
screen,html.Screen,2_1_1_1_5,2021-04-30T10:44:56.940Z,,,,,,,,,,,,,,,,,54,,,,,,,,,,,,,,229.4950000027893,,response,,,,100,,,,,,,Space,keypress(Space),,,,,,,,-- --- ---- --- ------ crown ------- ---- -- --- ------- --<br>------- ---------- ------ -- ----- -- ----- -- ---- ------<br>--- ----- --- --- ------ -------- ----- --- ------ ----- --<br>----- ----- ---------- --- --- ------ ------ ---- -- ------<br>------- --- ------ ----- --- ---- ------- -- ---- --- --<br>------- ------,166643.37499999965,166638.35500000278,166392.193,166391.6249999893,166408.86,166658.865,,5,crown
screen,html.Screen,2_1_1_1_6,2021-04-30T10:44:57.184Z,,,,,,,,,,,,,,,,,54,,,,,,,,,,,,,,223.04999999084976,,response,,,,100,,,,,,,Space,keypress(Space),,,,,,,,-- --- ---- --- ------ ----- secured ---- -- --- ------- --<br>------- ---------- ------ -- ----- -- ----- -- ---- ------<br>--- ----- --- --- ------ -------- ----- --- ------ ----- --<br>----- ----- ---------- --- --- ------ ------ ---- -- ------<br>------- --- ------ ----- --- ---- ------- -- ---- --- --<br>------- ------,166886.79499999853,166881.91499999084,166642.198,166643.70999998937,166658.865,166892.203,,6,secured
screen,html.Screen,2_1_1_1_7,2021-04-30T10:44:57.395Z,,,,,,,,,,,,,,,,,54,,,,,,,,,,,,,,200.89199998925324,,response,,,,100,,,,,,,Space,keypress(Space),,,,,,,,-- --- ---- --- ------ ----- ------- much -- --- ------- --<br>------- ---------- ------ -- ----- -- ----- -- ---- ------<br>--- ----- --- --- ------ -------- ----- --- ------ ----- --<br>----- ----- ---------- --- --- ------ ------ ---- -- ------<br>------- --- ------ ----- --- ---- ------- -- ---- --- --<br>------- ------,167097.62499999488,167093.09499998926,166875.536,166887.00000000244,166892.203,167108.874,,7,much
screen,html.Screen,2_1_1_1_8,2021-04-30T10:44:57.717Z,,,,,,,,,,,,,,,,,54,,,,,,,,,,,,,,305.8209999994724,,response,,,,100,,,,,,,Space,keypress(Space),,,,,,,,-- --- ---- --- ------ ----- ------- ---- of --- ------- --<br>------- ---------- ------ -- ----- -- ----- -- ---- ------<br>--- ----- --- --- ------ -------- ----- --- ------ ----- --<br>----- ----- ---------- --- --- ------ ------ ---- -- ------<br>------- --- ------ ----- --- ---- ------- -- ---- --- --<br>------- ------,167419.50499999803,167414.69499999948,167092.207,167097.8749999922,167108.874,167425.547,,8,of
screen,html.Screen,2_1_1_1_9,2021-04-30T10:44:57.961Z,,,,,,,,,,,,,,,,,54,,,,,,,,,,,,,,233.74799999038805,,response,,,,100,,,,,,,Space,keypress(Space),,,,,,,,-- --- ---- --- ------ ----- ------- ---- -- its ------- --<br>------- ---------- ------ -- ----- -- ----- -- ---- ------<br>--- ----- --- --- ------ -------- ----- --- ------ ----- --<br>----- ----- ---------- --- --- ------ ------ ---- -- ------<br>------- --- ------ ----- --- ---- ------- -- ---- --- --<br>------- ------,167663.83499999938,167659.29499999038,167408.88,167419.75499999535,167425.547,167675.552,,9,its
screen,html.Screen,2_1_1_1_10,2021-04-30T10:44:58.141Z,,,,,,,,,,,,,,,,,54,,,,,,,,,,,,,,163.50799999843002,,response,,,,100,,,,,,,Space,keypress(Space),,,,,,,,-- --- ---- --- ------ ----- ------- ---- -- --- revenue --<br>------- ---------- ------ -- ----- -- ----- -- ---- ------<br>--- ----- --- --- ------ -------- ----- --- ------ ----- --<br>----- ----- ---------- --- --- ------ ------ ---- -- ------<br>------- --- ------ ----- --- ---- ------- -- ---- --- --<br>------- ------,167843.7949999934,167839.05999999843,167658.885,167664.1249999957,167675.552,167858.889,,10,revenue
screen,html.Screen,2_1_1_1_11,2021-04-30T10:44:58.414Z,,,,,,,,,,,,,,,,,54,,,,,,,,,,,,,,252.71599999823957,,response,,,,100,,,,,,,Space,keypress(Space),,,,,,,,-- --- ---- --- ------ ----- ------- ---- -- --- ------- by<br>------- ---------- ------ -- ----- -- ----- -- ---- ------<br>--- ----- --- --- ------ -------- ----- --- ------ ----- --<br>----- ----- ---------- --- --- ------ ------ ---- -- ------<br>------- --- ------ ----- --- ---- ------- -- ---- --- --<br>------- ------,168116.45999999018,168111.60499999824,167842.222,167844.08499998972,167858.889,168125.561,,11,by
screen,html.Screen,2_1_1_1_12,2021-04-30T10:44:58.686Z,,,,,,,,,,,,,,,,,54,,,,,,,,,,,,,,259.10399999050424,,response,,,,100,,,,,,,Space,keypress(Space),,,,,,,,-- --- ---- --- ------ ----- ------- ---- -- --- ------- --<br>issuing ---------- ------ -- ----- -- ----- -- ---- ------<br>--- ----- --- --- ------ -------- ----- --- ------ ----- --<br>----- ----- ---------- --- --- ------ ------ ---- -- ------<br>------- --- ------ ----- --- ---- ------- -- ---- --- --<br>------- ------,168389.08500000252,168384.6649999905,168108.894,168116.75000000105,168125.561,168392.233,,12,issuing
screen,html.Screen,2_1_1_1_13,2021-04-30T10:44:58.916Z,,,,,,,,,,,,,,,,,54,,,,,,,,,,,,,,221.95699999295175,,response,,,,100,,,,,,,Space,keypress(Space),,,,,,,,-- --- ---- --- ------ ----- ------- ---- -- --- ------- --<br>------- government ------ -- ----- -- ----- -- ---- ------<br>--- ----- --- --- ------ -------- ----- --- ------ ----- --<br>----- ----- ---------- --- --- ------ ------ ---- -- ------<br>------- --- ------ ----- --- ---- ------- -- ---- --- --<br>------- ------,168619.41499999375,168614.18999999296,168375.566,168389.25500000187,168392.233,168625.571,,13,government
screen,html.Screen,2_1_1_1_14,2021-04-30T10:44:59.244Z,,,,,,,,,,,,,,,,,54,,,,,,,,,,,,,,316.998999999254,,response,,,,100,,,,,,,Space,keypress(Space),,,,,,,,-- --- ---- --- ------ ----- ------- ---- -- --- ------- --<br>------- ---------- bonds. -- ----- -- ----- -- ---- ------<br>--- ----- --- --- ------ -------- ----- --- ------ ----- --<br>----- ----- ---------- --- --- ------ ------ ---- -- ------<br>------- --- ------ ----- --- ---- ------- -- ---- --- --<br>------- ------,168946.91499999317,168942.56999999925,168608.904,168619.66499999107,168625.571,168958.911,,14,bonds.
screen,html.Screen,2_1_1_1_15,2021-04-30T10:44:59.652Z,,,,,,,,,,,,,,,,,54,,,,,,,,,,,,,,390.848999997339,,response,,,,100,,,,,,,Space,keypress(Space),,,,,,,,-- --- ---- --- ------ ----- ------- ---- -- --- ------- --<br>------- ---------- ------ In ----- -- ----- -- ---- ------<br>--- ----- --- --- ------ -------- ----- --- ------ ----- --<br>----- ----- ---------- --- --- ------ ------ ---- -- ------<br>------- --- ------ ----- --- ---- ------- -- ---- --- --<br>------- ------,169354.7499999986,169349.75999999733,168942.244,168947.16999999946,168958.911,169358.919,,15,In
screen,html.Screen,2_1_1_1_16,2021-04-30T10:45:00.171Z,,,,,,,,,,,,,,,,,54,,,,,,,,,,,,,,512.6309999962104,,response,,,,100,,,,,,,Space,keypress(Space),,,,,,,,"-- --- ---- --- ------ ----- ------- ---- -- --- ------- --<br>------- ---------- ------ -- 1727, -- ----- -- ---- ------<br>--- ----- --- --- ------ -------- ----- --- ------ ----- --<br>----- ----- ---------- --- --- ------ ------ ---- -- ------<br>------- --- ------ ----- --- ---- ------- -- ---- --- --<br>------- ------",169873.74999999884,169871.5499999962,169342.252,169354.95999999694,169358.919,169875.685,,16,"1727,"
screen,html.Screen,2_1_1_1_17,2021-04-30T10:45:00.646Z,,,,,,,,,,,,,,,,,54,,,,,,,,,,,,,,471.8349999957136,,response,,,,100,,,,,,,Space,keypress(Space),,,,,,,,-- --- ---- --- ------ ----- ------- ---- -- --- ------- --<br>------- ---------- ------ -- ----- in ----- -- ---- ------<br>--- ----- --- --- ------ -------- ----- --- ------ ----- --<br>----- ----- ---------- --- --- ------ ------ ---- -- ------<br>------- --- ------ ----- --- ---- ------- -- ---- --- --<br>------- ------,170349.12499999336,170347.5199999957,169859.018,169873.78999999783,169875.685,170359.028,,17,in
screen,html.Screen,2_1_1_1_18,2021-04-30T10:45:01.114Z,,,,,,,,,,,,,,,,,54,,,,,,,,,,,,,,454.01199999364326,,response,,,,100,,,,,,,Space,keypress(Space),,,,,,,,-- --- ---- --- ------ ----- ------- ---- -- --- ------- --<br>------- ---------- ------ -- ----- -- order -- ---- ------<br>--- ----- --- --- ------ -------- ----- --- ------ ----- --<br>----- ----- ---------- --- --- ------ ------ ---- -- ------<br>------- --- ------ ----- --- ---- ------- -- ---- --- --<br>------- ------,170817.29500000074,170813.03999999363,170342.361,170349.16499999235,170359.028,170825.704,,18,order
screen,html.Screen,2_1_1_1_19,2021-04-30T10:45:01.362Z,,,,,,,,,,,,,,,,,54,,,,,,,,,,,,,,235.0559999930265,,response,,,,100,,,,,,,Space,keypress(Space),,,,,,,,-- --- ---- --- ------ ----- ------- ---- -- --- ------- --<br>------- ---------- ------ -- ----- -- ----- to ---- ------<br>--- ----- --- --- ------ -------- ----- --- ------ ----- --<br>----- ----- ---------- --- --- ------ ------ ---- -- ------<br>------- --- ------ ----- --- ---- ------- -- ---- --- --<br>------- ------,171064.8749999964,171060.75999999302,170809.037,170817.54499999806,170825.704,171075.709,,19,to
screen,html.Screen,2_1_1_1_20,2021-04-30T10:45:01.556Z,,,,,,,,,,,,,,,,,54,,,,,,,,,,,,,,178.29100000081235,,response,,,,100,,,,,,,Space,keypress(Space),,,,,,,,-- --- ---- --- ------ ----- ------- ---- -- --- ------- --<br>------- ---------- ------ -- ----- -- ----- -- save ------<br>--- ----- --- --- ------ -------- ----- --- ------ ----- --<br>----- ----- ---------- --- --- ------ ------ ---- -- ------<br>------- --- ------ ----- --- ---- ------- -- ---- --- --<br>------- ------,171259.0399999899,171254.00000000081,171059.042,171066.5849999932,171075.709,171275.713,,20,save
screen,html.Screen,2_1_1_1_21,2021-04-30T10:45:01.861Z,,,,,,,,,,,,,,,,,54,,,,,,,,,,,,,,286.0719999980647,,response,,,,100,,,,,,,Space,keypress(Space),,,,,,,,"-- --- ---- --- ------ ----- ------- ---- -- --- ------- --<br>------- ---------- ------ -- ----- -- ----- -- ---- money,<br>--- ----- --- --- ------ -------- ----- --- ------ ----- --<br>----- ----- ---------- --- --- ------ ------ ---- -- ------<br>------- --- ------ ----- --- ---- ------- -- ---- --- --<br>------- ------",171564.45999999414,171561.78499999805,171259.046,171259.41499999317,171275.713,171575.719,,21,"money,"
screen,html.Screen,2_1_1_1_22,2021-04-30T10:45:02.199Z,,,,,,,,,,,,,,,,,54,,,,,,,,,,,,,,321.3659999895899,,response,,,,100,,,,,,,Space,keypress(Space),,,,,,,,-- --- ---- --- ------ ----- ------- ---- -- --- ------- --<br>------- ---------- ------ -- ----- -- ----- -- ---- ------<br>the ----- --- --- ------ -------- ----- --- ------ ----- --<br>----- ----- ---------- --- --- ------ ------ ---- -- ------<br>------- --- ------ ----- --- ---- ------- -- ---- --- --<br>------- ------,171902.1700000012,171897.0849999896,171559.052,171564.53999999212,171575.719,171909.059,,22,the
screen,html.Screen,2_1_1_1_23,2021-04-30T10:45:02.697Z,,,,,,,,,,,,,,,,,54,,,,,,,,,,,,,,486.1510000023991,,response,,,,100,,,,,,,Space,keypress(Space),,,,,,,,-- --- ---- --- ------ ----- ------- ---- -- --- ------- --<br>------- ---------- ------ -- ----- -- ----- -- ---- ------<br>--- state --- --- ------ -------- ----- --- ------ ----- --<br>----- ----- ---------- --- --- ------ ------ ---- -- ------<br>------- --- ------ ----- --- ---- ------- -- ---- --- --<br>------- ------,172400.41499999643,172395.2100000024,171892.392,171902.41999999853,171909.059,172409.069,,23,state
screen,html.Screen,2_1_1_1_24,2021-04-30T10:45:03.026Z,,,,,,,,,,,,,,,,,54,,,,,,,,,,,,,,315.26099999729195,,response,,,,100,,,,,,,Space,keypress(Space),,,,,,,,-- --- ---- --- ------ ----- ------- ---- -- --- ------- --<br>------- ---------- ------ -- ----- -- ----- -- ---- ------<br>--- ----- cut --- ------ -------- ----- --- ------ ----- --<br>----- ----- ---------- --- --- ------ ------ ---- -- ------<br>------- --- ------ ----- --- ---- ------- -- ---- --- --<br>------- ------,172729.4600000023,172724.32999999728,172392.402,172402.2100000002,172409.069,172742.409,,24,cut
screen,html.Screen,2_1_1_1_25,2021-04-30T10:45:03.354Z,,,,,,,,,,,,,,,,,54,,,,,,,,,,,,,,309.5359999992361,,response,,,,100,,,,,,,Space,keypress(Space),,,,,,,,-- --- ---- --- ------ ----- ------- ---- -- --- ------- --<br>------- ---------- ------ -- ----- -- ----- -- ---- ------<br>--- ----- --- the ------ -------- ----- --- ------ ----- --<br>----- ----- ---------- --- --- ------ ------ ---- -- ------<br>------- --- ------ ----- --- ---- ------- -- ---- --- --<br>------- ------,173056.83499999577,173051.94499999925,172725.742,172731.2099999981,172742.409,173059.082,,25,the
screen,html.Screen,2_1_1_1_26,2021-04-30T10:45:03.595Z,,,,,,,,,,,,,,,,,54,,,,,,,,,,,,,,233.99800000310643,,response,,,,100,,,,,,,Space,keypress(Space),,,,,,,,-- --- ---- --- ------ ----- ------- ---- -- --- ------- --<br>------- ---------- ------ -- ----- -- ----- -- ---- ------<br>--- ----- --- --- bonds' -------- ----- --- ------ ----- --<br>----- ----- ---------- --- --- ------ ------ ---- -- ------<br>------- --- ------ ----- --- ---- ------- -- ---- --- --<br>------- ------,173297.62499999197,173293.0800000031,173042.415,173057.0399999997,173059.082,173309.087,,26,bonds'
screen,html.Screen,2_1_1_1_27,2021-04-30T10:45:03.917Z,,,,,,,,,,,,,,,,,54,,,,,,,,,,,,,,306.06299999781186,,response,,,,100,,,,,,,Space,keypress(Space),,,,,,,,-- --- ---- --- ------ ----- ------- ---- -- --- ------- --<br>------- ---------- ------ -- ----- -- ----- -- ---- ------<br>--- ----- --- --- ------ interest ----- --- ------ ----- --<br>----- ----- ---------- --- --- ------ ------ ---- -- ------<br>------- --- ------ ----- --- ---- ------- -- ---- --- --<br>------- ------,173620.29500000062,173615.1499999978,173292.42,173297.8749999893,173309.087,173625.76,,27,interest
screen,html.Screen,2_1_1_1_28,2021-04-30T10:45:04.106Z,,,,,,,,,,,,,,,,,54,,,,,,,,,,,,,,178.84499999752734,,response,,,,100,,,,,,,Space,keypress(Space),,,,,,,,-- --- ---- --- ------ ----- ------- ---- -- --- ------- --<br>------- ---------- ------ -- ----- -- ----- -- ---- ------<br>--- ----- --- --- ------ -------- rate. --- ------ ----- --<br>----- ----- ---------- --- --- ------ ------ ---- -- ------<br>------- --- ------ ----- --- ---- ------- -- ---- --- --<br>------- ------,173809.4199999905,173804.60499999754,173609.093,173620.58499999694,173625.76,173825.764,,28,rate.
screen,html.Screen,2_1_1_1_29,2021-04-30T10:45:04.291Z,,,,,,,,,,,,,,,,,54,,,,,,,,,,,,,,164.15099999829545,,response,,,,100,,,,,,,Space,keypress(Space),,,,,,,,-- --- ---- --- ------ ----- ------- ---- -- --- ------- --<br>------- ---------- ------ -- ----- -- ----- -- ---- ------<br>--- ----- --- --- ------ -------- ----- The ------ ----- --<br>----- ----- ---------- --- --- ------ ------ ---- -- ------<br>------- --- ------ ----- --- ---- ------- -- ---- --- --<br>------- ------,173993.83500000113,173989.9149999983,173809.097,173809.67000000237,173825.764,174009.101,,29,The
screen,html.Screen,2_1_1_1_30,2021-04-30T10:45:04.711Z,,,,,,,,,,,,,,,,,54,,,,,,,,,,,,,,398.8189999978349,,response,,,,100,,,,,,,Space,keypress(Space),,,,,,,,-- --- ---- --- ------ ----- ------- ---- -- --- ------- --<br>------- ---------- ------ -- ----- -- ----- -- ---- ------<br>--- ----- --- --- ------ -------- ----- --- market ----- --<br>----- ----- ---------- --- --- ------ ------ ---- -- ------<br>------- --- ------ ----- --- ---- ------- -- ---- --- --<br>------- ------,174414.49999999895,174407.91999999783,173992.434,173994.08499999845,174009.101,174425.776,,30,market
screen,html.Screen,2_1_1_1_31,2021-04-30T10:45:04.925Z,,,,,,,,,,,,,,,,,54,,,,,,,,,,,,,,200.6839999994845,,response,,,,100,,,,,,,Space,keypress(Space),,,,,,,,-- --- ---- --- ------ ----- ------- ---- -- --- ------- --<br>------- ---------- ------ -- ----- -- ----- -- ---- ------<br>--- ----- --- --- ------ -------- ----- --- ------ value --<br>----- ----- ---------- --- --- ------ ------ ---- -- ------<br>------- --- ------ ----- --- ---- ------- -- ---- --- --<br>------- ------,174628.1650000019,174626.4599999995,174409.109,174414.74999999627,174425.776,174642.447,,31,value
screen,html.Screen,2_1_1_1_32,2021-04-30T10:45:05.245Z,,,,,,,,,,,,,,,,,54,,,,,,,,,,,,,,299.8279999939841,,response,,,,100,,,,,,,Space,keypress(Space),,,,,,,,-- --- ---- --- ------ ----- ------- ---- -- --- ------- --<br>------- ---------- ------ -- ----- -- ----- -- ---- ------<br>--- ----- --- --- ------ -------- ----- --- ------ ----- of<br>----- ----- ---------- --- --- ------ ------ ---- -- ------<br>------- --- ------ ----- --- ---- ------- -- ---- --- --<br>------- ------,174947.7099999931,174942.27499999397,174625.78,174628.2099999953,174642.447,174959.12,,32,of
screen,html.Screen,2_1_1_1_33,2021-04-30T10:45:05.458Z,,,,,,,,,,,,,,,,,54,,,,,,,,,,,,,,197.40499999851454,,response,,,,100,,,,,,,Space,keypress(Space),,,,,,,,-- --- ---- --- ------ ----- ------- ---- -- --- ------- --<br>------- ---------- ------ -- ----- -- ----- -- ---- ------<br>--- ----- --- --- ------ -------- ----- --- ------ ----- --<br>these ----- ---------- --- --- ------ ------ ---- -- ------<br>------- --- ------ ----- --- ---- ------- -- ---- --- --<br>------- ------,175160.74999999546,175156.5249999985,174942.453,174947.95999999042,174959.12,175175.791,,33,these
screen,html.Screen,2_1_1_1_34,2021-04-30T10:45:05.690Z,,,,,,,,,,,,,,,,,54,,,,,,,,,,,,,,211.07900000209338,,response,,,,100,,,,,,,Space,keypress(Space),,,,,,,,-- --- ---- --- ------ ----- ------- ---- -- --- ------- --<br>------- ---------- ------ -- ----- -- ----- -- ---- ------<br>--- ----- --- --- ------ -------- ----- --- ------ ----- --<br>----- bonds ---------- --- --- ------ ------ ---- -- ------<br>------- --- ------ ----- --- ---- ------- -- ---- --- --<br>------- ------,175392.9599999974,175386.8700000021,175159.124,175160.99999999278,175175.791,175409.129,,34,bonds
screen,html.Screen,2_1_1_1_35,2021-04-30T10:45:05.935Z,,,,,,,,,,,,,,,,,54,,,,,,,,,,,,,,224.0660000021744,,response,,,,100,,,,,,,Space,keypress(Space),,,,,,,,"-- --- ---- --- ------ ----- ------- ---- -- --- ------- --<br>------- ---------- ------ -- ----- -- ----- -- ---- ------<br>--- ----- --- --- ------ -------- ----- --- ------ ----- --<br>----- ----- plummeted, --- --- ------ ------ ---- -- ------<br>------- --- ------ ----- --- ---- ------- -- ---- --- --<br>------- ------",175638.1299999921,175633.19500000216,175392.462,175393.12500000233,175409.129,175642.467,,35,"plummeted,"
screen,html.Screen,2_1_1_1_36,2021-04-30T10:45:06.275Z,,,,,,,,,,,,,,,,,54,,,,,,,,,,,,,,330.7479999908828,,response,,,,100,,,,,,,Space,keypress(Space),,,,,,,,-- --- ---- --- ------ ----- ------- ---- -- --- ------- --<br>------- ---------- ------ -- ----- -- ----- -- ---- ------<br>--- ----- --- --- ------ -------- ----- --- ------ ----- --<br>----- ----- ---------- and --- ------ ------ ---- -- ------<br>------- --- ------ ----- --- ---- ------- -- ---- --- --<br>------- ------,175978.45999999845,175973.2149999909,175625.8,175638.42000000295,175642.467,175992.474,,36,and
screen,html.Screen,2_1_1_1_37,2021-04-30T10:45:06.627Z,,,,,,,,,,,,,,,,,54,,,,,,,,,,,,,,332.3459999943734,,response,,,,100,,,,,,,Space,keypress(Space),,,,,,,,-- --- ---- --- ------ ----- ------- ---- -- --- ------- --<br>------- ---------- ------ -- ----- -- ----- -- ---- ------<br>--- ----- --- --- ------ -------- ----- --- ------ ----- --<br>----- ----- ---------- --- the ------ ------ ---- -- ------<br>------- --- ------ ----- --- ---- ------- -- ---- --- --<br>------- ------,176329.83499999682,176324.81999999436,175975.807,175978.70999999577,175992.474,176342.481,,37,the
screen,html.Screen,2_1_1_1_38,2021-04-30T10:45:06.984Z,,,,,,,,,,,,,,,,,54,,,,,,,,,,,,,,339.33899999796995,,response,,,,100,,,,,,,Space,keypress(Space),,,,,,,,-- --- ---- --- ------ ----- ------- ---- -- --- ------- --<br>------- ---------- ------ -- ----- -- ----- -- ---- ------<br>--- ----- --- --- ------ -------- ----- --- ------ ----- --<br>----- ----- ---------- --- --- market ------ ---- -- ------<br>------- --- ------ ----- --- ---- ------- -- ---- --- --<br>------- ------,176687.25000000268,176681.81999999797,176325.814,176330.08499999414,176342.481,176692.488,,38,market
screen,html.Screen,2_1_1_1_39,2021-04-30T10:45:07.226Z,,,,,,,,,,,,,,,,,54,,,,,,,,,,,,,,232.45199999713805,,response,,,,100,,,,,,,Space,keypress(Space),,,,,,,,-- --- ---- --- ------ ----- ------- ---- -- --- ------- --<br>------- ---------- ------ -- ----- -- ----- -- ---- ------<br>--- ----- --- --- ------ -------- ----- --- ------ ----- --<br>----- ----- ---------- --- --- ------ became ---- -- ------<br>------- --- ------ ----- --- ---- ------- -- ---- --- --<br>------- ------,176928.8749999978,176924.93999999715,176675.821,176687.5,176692.488,176942.493,,39,became
screen,html.Screen,2_1_1_1_40,2021-04-30T10:45:07.540Z,,,,,,,,,,,,,,,,,54,,,,,,,,,,,,,,295.30700000262004,,response,,,,100,,,,,,,Space,keypress(Space),,,,,,,,-- --- ---- --- ------ ----- ------- ---- -- --- ------- --<br>------- ---------- ------ -- ----- -- ----- -- ---- ------<br>--- ----- --- --- ------ -------- ----- --- ------ ----- --<br>----- ----- ---------- --- --- ------ ------ wary -- ------<br>------- --- ------ ----- --- ---- ------- -- ---- --- --<br>------- ------,177242.96000000322,177237.8000000026,176925.826,176929.08499999612,176942.493,177259.166,,40,wary
screen,html.Screen,2_1_1_1_41,2021-04-30T10:45:07.728Z,,,,,,,,,,,,,,,,,54,,,,,,,,,,,,,,167.68400000347174,,response,,,,100,,,,,,,Space,keypress(Space),,,,,,,,-- --- ---- --- ------ ----- ------- ---- -- --- ------- --<br>------- ---------- ------ -- ----- -- ----- -- ---- ------<br>--- ----- --- --- ------ -------- ----- --- ------ ----- --<br>----- ----- ---------- --- --- ------ ------ ---- of ------<br>------- --- ------ ----- --- ---- ------- -- ---- --- --<br>------- ------,177431.28999999317,177426.85000000347,177242.499,177243.24999999953,177259.166,177442.503,,41,of
screen,html.Screen,2_1_1_1_42,2021-04-30T10:45:07.885Z,,,,,,,,,,,,,,,,,54,,,,,,,,,,,,,,141.37199999662698,,response,,,,100,,,,,,,Space,keypress(Space),,,,,,,,-- --- ---- --- ------ ----- ------- ---- -- --- ------- --<br>------- ---------- ------ -- ----- -- ----- -- ---- ------<br>--- ----- --- --- ------ -------- ----- --- ------ ----- --<br>----- ----- ---------- --- --- ------ ------ ---- -- French<br>------- --- ------ ----- --- ---- ------- -- ---- --- --<br>------- ------,177588.00000000338,177583.87499999662,177425.836,177431.58499999845,177442.503,177592.506,,42,French
screen,html.Screen,2_1_1_1_43,2021-04-30T10:45:08.061Z,,,,,,,,,,,,,,,,,54,,,,,,,,,,,,,,167.39899999898626,,response,,,,100,,,,,,,Space,keypress(Space),,,,,,,,-- --- ---- --- ------ ----- ------- ---- -- --- ------- --<br>------- ---------- ------ -- ----- -- ----- -- ---- ------<br>--- ----- --- --- ------ -------- ----- --- ------ ----- --<br>----- ----- ---------- --- --- ------ ------ ---- -- ------<br>credit. --- ------ ----- --- ---- ------- -- ---- --- --<br>------- ------,177764.37999999325,177759.90499999898,177575.839,177588.2949999941,177592.506,177775.843,,43,credit.
screen,html.Screen,2_1_1_1_44,2021-04-30T10:45:08.575Z,,,,,,,,,,,,,,,,,54,,,,,,,,,,,,,,496.91699999256525,,response,,,,100,,,,,,,Space,keypress(Space),,,,,,,,-- --- ---- --- ------ ----- ------- ---- -- --- ------- --<br>------- ---------- ------ -- ----- -- ----- -- ---- ------<br>--- ----- --- --- ------ -------- ----- --- ------ ----- --<br>----- ----- ---------- --- --- ------ ------ ---- -- ------<br>------- The ------ ----- --- ---- ------- -- ---- --- --<br>------- ------,178278.33499999542,178272.75999999256,177759.176,177764.66499999515,177775.843,178292.52,,44,The
screen,html.Screen,2_1_1_1_45,2021-04-30T10:45:09.040Z,,,,,,,,,,,,,,,,,54,,,,,,,,,,,,,,445.82999999963795,,response,,,,100,,,,,,,Space,keypress(Space),,,,,,,,-- --- ---- --- ------ ----- ------- ---- -- --- ------- --<br>------- ---------- ------ -- ----- -- ----- -- ---- ------<br>--- ----- --- --- ------ -------- ----- --- ------ ----- --<br>----- ----- ---------- --- --- ------ ------ ---- -- ------<br>------- --- French ----- --- ---- ------- -- ---- --- --<br>------- ------,178743.66500000178,178738.34999999963,178275.853,178278.58499999274,178292.52,178759.196,,45,French
screen,html.Screen,2_1_1_1_46,2021-04-30T10:45:09.317Z,,,,,,,,,,,,,,,,,54,,,,,,,,,,,,,,256.3839999920456,,response,,,,100,,,,,,,Space,keypress(Space),,,,,,,,-- --- ---- --- ------ ----- ------- ---- -- --- ------- --<br>------- ---------- ------ -- ----- -- ----- -- ---- ------<br>--- ----- --- --- ------ -------- ----- --- ------ ----- --<br>----- ----- ---------- --- --- ------ ------ ---- -- ------<br>------- --- ------ state --- ---- ------- -- ---- --- --<br>------- ------,179020.54499999213,179015.57999999204,178742.529,178743.9599999925,178759.196,179025.868,,46,state
screen,html.Screen,2_1_1_1_47,2021-04-30T10:45:10.072Z,,,,,,,,,,,,,,,,,54,,,,,,,,,,,,,,746.2269999929995,,response,,,,100,,,,,,,Space,keypress(Space),,,,,,,,-- --- ---- --- ------ ----- ------- ---- -- --- ------- --<br>------- ---------- ------ -- ----- -- ----- -- ---- ------<br>--- ----- --- --- ------ -------- ----- --- ------ ----- --<br>----- ----- ---------- --- --- ------ ------ ---- -- ------<br>------- --- ------ ----- was ---- ------- -- ---- --- --<br>------- ------,179775.62499999476,179772.094999993,179009.201,179020.835000003,179025.868,179792.55,,47,was
screen,html.Screen,2_1_1_1_48,2021-04-30T10:45:10.567Z,,,,,,,,,,,,,,,,,54,,,,,,,,,,,,,,473.085000003397,,response,,,,100,,,,,,,Space,keypress(Space),,,,,,,,-- --- ---- --- ------ ----- ------- ---- -- --- ------- --<br>------- ---------- ------ -- ----- -- ----- -- ---- ------<br>--- ----- --- --- ------ -------- ----- --- ------ ----- --<br>----- ----- ---------- --- --- ------ ------ ---- -- ------<br>------- --- ------ ----- --- left ------- -- ---- --- --<br>------- ------,180270.58499999112,180265.63500000339,179775.883,179775.7500000007,179792.55,180275.941,,48,left
screen,html.Screen,2_1_1_1_49,2021-04-30T10:45:10.775Z,,,,,,,,,,,,,,,,,54,,,,,,,,,,,,,,198.59899999562185,,response,,,,100,,,,,,,Space,keypress(Space),,,,,,,,-- --- ---- --- ------ ----- ------- ---- -- --- ------- --<br>------- ---------- ------ -- ----- -- ----- -- ---- ------<br>--- ----- --- --- ------ -------- ----- --- ------ ----- --<br>----- ----- ---------- --- --- ------ ------ ---- -- ------<br>------- --- ------ ----- --- ---- without -- ---- --- --<br>------- ------,180478.62500000338,180474.5399999956,180259.274,180270.91999999539,180275.941,180492.612,,49,without
screen,html.Screen,2_1_1_1_50,2021-04-30T10:45:10.977Z,,,,,,,,,,,,,,,,,54,,,,,,,,,,,,,,183.94799999261159,,response,,,,100,,,,,,,Space,keypress(Space),,,,,,,,-- --- ---- --- ------ ----- ------- ---- -- --- ------- --<br>------- ---------- ------ -- ----- -- ----- -- ---- ------<br>--- ----- --- --- ------ -------- ----- --- ------ ----- --<br>----- ----- ---------- --- --- ------ ------ ---- -- ------<br>------- --- ------ ----- --- ---- ------- an ---- --- --<br>------- ------,180680.039999992,180676.5599999926,180475.945,180478.79500000272,180492.612,180692.616,,50,an
screen,html.Screen,2_1_1_1_51,2021-04-30T10:45:11.374Z,,,,,,,,,,,,,,,,,54,,,,,,,,,,,,,,380.4739999907615,,response,,,,100,,,,,,,Space,keypress(Space),,,,,,,,-- --- ---- --- ------ ----- ------- ---- -- --- ------- --<br>------- ---------- ------ -- ----- -- ----- -- ---- ------<br>--- ----- --- --- ------ -------- ----- --- ------ ----- --<br>----- ----- ---------- --- --- ------ ------ ---- -- ------<br>------- --- ------ ----- --- ---- ------- -- easy --- --<br>------- ------,181077.83499998914,181073.08999999077,180675.949,180680.24999999034,180692.616,181092.624,,51,easy
screen,html.Screen,2_1_1_1_52,2021-04-30T10:45:11.549Z,,,,,,,,,,,,,,,,,54,,,,,,,,,,,,,,155.24599999195198,,response,,,,100,,,,,,,Space,keypress(Space),,,,,,,,-- --- ---- --- ------ ----- ------- ---- -- --- ------- --<br>------- ---------- ------ -- ----- -- ----- -- ---- ------<br>--- ----- --- --- ------ -------- ----- --- ------ ----- --<br>----- ----- ---------- --- --- ------ ------ ---- -- ------<br>------- --- ------ ----- --- ---- ------- -- ---- way --<br>------- ------,181252.12499999907,181247.86999999196,181075.957,181077.95999999507,181092.624,181259.294,,52,way
screen,html.Screen,2_1_1_1_53,2021-04-30T10:45:11.883Z,,,,,,,,,,,,,,,,,54,,,,,,,,,,,,,,321.39600000251085,,response,,,,100,,,,,,,Space,keypress(Space),,,,,,,,-- --- ---- --- ------ ----- ------- ---- -- --- ------- --<br>------- ---------- ------ -- ----- -- ----- -- ---- ------<br>--- ----- --- --- ------ -------- ----- --- ------ ----- --<br>----- ----- ---------- --- --- ------ ------ ---- -- ------<br>------- --- ------ ----- --- ---- ------- -- ---- --- of<br>------- ------,181586.24999999302,181580.6900000025,181242.627,181252.4199999898,181259.294,181592.634,,53,of
screen,html.Screen,2_1_1_1_54,2021-04-30T10:45:12.173Z,,,,,,,,,,,,,,,,,54,,,,,,,,,,,,,,278.93600000298466,,response,,,,100,,,,,,,Space,keypress(Space),,,,,,,,-- --- ---- --- ------ ----- ------- ---- -- --- ------- --<br>------- ---------- ------ -- ----- -- ----- -- ---- ------<br>--- ----- --- --- ------ -------- ----- --- ------ ----- --<br>----- ----- ---------- --- --- ------ ------ ---- -- ------<br>------- --- ------ ----- --- ---- ------- -- ---- --- --<br>raising ------,181876.21000000217,181871.57000000298,181575.967,181586.45999999135,181592.634,181892.64,,54,raising
screen,html.Screen,2_1_1_1_55,2021-04-30T10:45:12.373Z,,,,,,,,,,,,,,,,,54,,,,,,,,,,,,,,179.28000000212342,,response,,,,100,,,,,,,Space,keypress(Space),,,,,,,,-- --- ---- --- ------ ----- ------- ---- -- --- ------- --<br>------- ---------- ------ -- ----- -- ----- -- ---- ------<br>--- ----- --- --- ------ -------- ----- --- ------ ----- --<br>----- ----- ---------- --- --- ------ ------ ---- -- ------<br>------- --- ------ ----- --- ---- ------- -- ---- --- --<br>------- money.,182076.6650000005,182071.92000000214,181875.973,181876.4999999985,181892.64,182092.644,,55,money.
Item 100,flow.Loop,2_1_1_1,2021-04-30T10:45:12.374Z,,,,,,,,,,,,,,,,,,,,,,,,,,,,,,,17346.42700000215,,completion,,,,,C,,,,,,,,,,,silence,,,,,182077.2549999965,182071.92000000214,164708.826,164710.9999999957,164725.493,182092.644,,,
Question 1,html.Screen,2_1_1_2,2021-04-30T10:45:14.330Z,,,,,,,,,,,,,,,,,,,,,,,,,,,,true,TRUE,,1937.1759999961068,,response,,,,100,C,,,,,,TRUE,click #choice-1,,,,silence,,,,,184033.0399999948,184029.8199999961,182075.977,182077.37499999348,182092.644,184042.683,,,
Question 2,html.Screen,2_1_1_3,2021-04-30T10:45:16.038Z,,,,,,,,,,,,,,,,,,,,,,,,,,,,true,FALSE,,1696.1969999898865,,response,,,,100,C,,,,,,FALSE,click #choice-2,,,,silence,,,,,185740.95999999554,185738.87999998988,184026.016,184033.2950000011,184042.683,185742.717,,,
Item 100,flow.Sequence,2_1_1,2021-04-30T10:45:16.038Z,,,,,,,,,,,,,,,,,,,,,,,,,,,,,,,31013.63699998989,,completion,,,,,,,,,,,,,,,,,,,,,185741.20999999286,185738.87999998988,154708.576,154716.66999999434,154725.243,185742.717,,,
End of Practice,html.Page,2_1_2,2021-04-30T10:45:18.571Z,,,,,,,,,,,,,,,,,,,,,,,,,,,,,,,2530.948000000615,,form submission,,,,,,,,,,,,,,,,,,,,,188274.70999999787,188273.66500000062,185726.05,185741.2949999998,185742.717,188276.101,,,
Practice,flow.Sequence,2_1,2021-04-30T10:45:18.571Z,,,,,,,,,,,,,,,,,,,,,,,,,,,,,,,70549.36700000062,,completion,,,,,,,,,,,,,,,,,,,,,188274.9599999952,188273.66500000062,117707.631,117720.91999999247,117724.298,188276.101,,,
Trap_instruction,html.Page,2_2_0,2021-04-30T10:45:22.128Z,,,,,,,,,,,,,,,,,,,,,,,,,,,,,,,3554.5689999957394,,form submission,,,,,,,,,,,,,,,,,,,,,191831.41499999329,191830.66999999573,188259.434,188275.12500000012,188276.101,191842.839,,,
trap_trial,html.Screen,2_2_1,2021-04-30T10:45:25.369Z,,,,,,,,,,,,,,,,,,,,,,,,,,,,true,1,,3226.736000001343,,response,,,,,,,,,,,1,click #choice-1,,,,,,,,,195072.9999999894,195069.57500000135,191826.172,191831.62499999162,191842.839,195076.314,,,
end of trap trial,html.Page,2_2_2,2021-04-30T10:45:27.662Z,,,,,,,,,,,,,,,,,,,,,,,,,,,,,,,2289.5209999895887,,form submission,,,,,,,,,,,,,,,,,,,,,197365.95999999554,197365.8349999896,195059.647,195073.29000000027,195076.314,197376.36,,,
Trap 1,flow.Sequence,2_2,2021-04-30T10:45:27.662Z,,,,,,,,,,,,,,,,,,,,,,,,,,,,,,,9089.733999989607,,completion,,,,,,,,,,,,,,,,,,,,,197366.0450000025,197365.8349999896,188259.434,188275.08500000113,188276.101,197376.36,,,
Standby,html.Page,2_3_0,2021-04-30T10:45:35.658Z,,,,,,,,,,,,,,,,,,,,,,,,,,,,,,,8000.1600000000035,,timeout,,,,,,,,,,,,,,,,,,,,,205361.9999999937,205359.853,197359.693,197366.08500000148,197376.36,205376.52,,,
Holding screen,html.Screen,2_3_1_0_0,2021-04-30T10:45:42.658Z,,,,,,,,,,,,,,,,,,,,,,,,,,,,,,,7000.203000000009,,timeout,,,,,,,,,,,,,,,,,,,,,212362.5849999953,212360.056,205359.853,205362.41999999038,205376.52,212376.723,,,
screen,html.Screen,2_3_1_0_1_0,2021-04-30T10:45:44.075Z,,,,,,,,,,,,,,,,,15,,,,,,,,,,,,,,1396.3719999968307,,response,,,,7,C,,,,,,Space,keypress(Space),,,,instrumental,,,,Greg --------- ---------- - --- ------- -- --- ------------<br>----- -- -------- ------- ---- ------ - -------- ---- -----<br>--- ------- ---- -- --- -------- --- - ----- ------ ---- --<br>-------- --- -------- -------- --- -------- ---- -- ----- -<br>-------- ---- --- ---------- --------- -- ------- ------ -<br>--------- ----- -----,213779.24999999232,213773.09499999683,212360.056,212363.04499999096,212376.723,213793.418,,0,Greg
screen,html.Screen,2_3_1_0_1_1,2021-04-30T10:45:44.447Z,,,,,,,,,,,,,,,,,15,,,,,,,,,,,,,,352.33199999603676,,response,,,,7,C,,,,,,Space,keypress(Space),,,,instrumental,,,,"---- Anderson, ---------- - --- ------- -- --- ------------<br>----- -- -------- ------- ---- ------ - -------- ---- -----<br>--- ------- ---- -- --- -------- --- - ----- ------ ---- --<br>-------- --- -------- -------- --- -------- ---- -- ----- -<br>-------- ---- --- ---------- --------- -- ------- ------ -<br>--------- ----- -----",214151.53999999166,214145.74999999604,213776.751,213779.41999999166,213793.418,214160.092,,1,"Anderson,"
screen,html.Screen,2_3_1_0_1_2,2021-04-30T10:45:44.875Z,,,,,,,,,,,,,,,,,15,,,,,,,,,,,,,,414.1429999927641,,response,,,,7,C,,,,,,Space,keypress(Space),,,,instrumental,,,,---- --------- considered - --- ------- -- --- ------------<br>----- -- -------- ------- ---- ------ - -------- ---- -----<br>--- ------- ---- -- --- -------- --- - ----- ------ ---- --<br>-------- --- -------- -------- --- -------- ---- -- ----- -<br>-------- ---- --- ---------- --------- -- ------- ------ -<br>--------- ----- -----,214579.37500000116,214574.23499999277,214143.425,214151.74999999,214160.092,214593.434,,2,considered
screen,html.Screen,2_3_1_0_1_3,2021-04-30T10:45:45.358Z,,,,,,,,,,,,,,,,,15,,,,,,,,,,,,,,464.5509999921778,,response,,,,7,C,,,,,,Space,keypress(Space),,,,instrumental,,,,---- --------- ---------- a --- ------- -- --- ------------<br>----- -- -------- ------- ---- ------ - -------- ---- -----<br>--- ------- ---- -- --- -------- --- - ----- ------ ---- --<br>-------- --- -------- -------- --- -------- ---- -- ----- -<br>-------- ---- --- ---------- --------- -- ------- ------ -<br>--------- ----- -----,215062.08499999775,215057.9849999922,214576.767,214579.6249999985,214593.434,215076.777,,3,a
screen,html.Screen,2_3_1_0_1_4,2021-04-30T10:45:46.030Z,,,,,,,,,,,,,,,,,15,,,,,,,,,,,,,,651.947999993572,,response,,,,7,C,,,,,,Space,keypress(Space),,,,instrumental,,,,---- --------- ---------- - key ------- -- --- ------------<br>----- -- -------- ------- ---- ------ - -------- ---- -----<br>--- ------- ---- -- --- -------- --- - ----- ------ ---- --<br>-------- --- -------- -------- --- -------- ---- -- ----- -<br>-------- ---- --- ---------- --------- -- ------- ------ -<br>--------- ----- -----,215734.1299999971,215728.72499999357,215060.11,215062.5,215076.777,215743.457,,4,key
screen,html.Screen,2_3_1_0_1_5,2021-04-30T10:45:46.483Z,,,,,,,,,,,,,,,,,15,,,,,,,,,,,,,,441.40299999393756,,response,,,,7,C,,,,,,Space,keypress(Space),,,,instrumental,,,,---- --------- ---------- - --- witness -- --- ------------<br>----- -- -------- ------- ---- ------ - -------- ---- -----<br>--- ------- ---- -- --- -------- --- - ----- ------ ---- --<br>-------- --- -------- -------- --- -------- ---- -- ----- -<br>-------- ---- --- ---------- --------- -- ------- ------ -<br>--------- ----- -----,216187.66499999037,216184.85999999393,215726.79,215734.53999999037,215743.457,216193.466,,5,witness
screen,html.Screen,2_3_1_0_1_6,2021-04-30T10:45:46.810Z,,,,,,,,,,,,,,,,,15,,,,,,,,,,,,,,316.85899999566027,,response,,,,7,C,,,,,,Space,keypress(Space),,,,instrumental,,,,---- --------- ---------- - --- ------- by --- ------------<br>----- -- -------- ------- ---- ------ - -------- ---- -----<br>--- ------- ---- -- --- -------- --- - ----- ------ ---- --<br>-------- --- -------- -------- --- -------- ---- -- ----- -<br>-------- ---- --- ---------- --------- -- ------- ------ -<br>--------- ----- -----,216514.41499999783,216510.32499999565,216176.799,216187.74999999732,216193.466,216526.807,,6,by
screen,html.Screen,2_3_1_0_1_7,2021-04-30T10:45:47.073Z,,,,,,,,,,,,,,,,,15,,,,,,,,,,,,,,245.5579999970796,,response,,,,7,C,,,,,,Space,keypress(Space),,,,instrumental,,,,---- --------- ---------- - --- ------- -- the ------------<br>----- -- -------- ------- ---- ------ - -------- ---- -----<br>--- ------- ---- -- --- -------- --- - ----- ------ ---- --<br>-------- --- -------- -------- --- -------- ---- -- ----- -<br>-------- ---- --- ---------- --------- -- ------- ------ -<br>--------- ----- -----,216777.4999999965,216772.36499999708,216510.14,216514.62499999616,216526.807,216793.479,,7,the
screen,html.Screen,2_3_1_0_1_8,2021-04-30T10:45:47.375Z,,,,,,,,,,,,,,,,,15,,,,,,,,,,,,,,282.8060000028345,,response,,,,7,C,,,,,,Space,keypress(Space),,,,instrumental,,,,"---- --------- ---------- - --- ------- -- --- prosecution,<br>----- -- -------- ------- ---- ------ - -------- ---- -----<br>--- ------- ---- -- --- -------- --- - ----- ------ ---- --<br>-------- --- -------- -------- --- -------- ---- -- ----- -<br>-------- ---- --- ---------- --------- -- ------- ------ -<br>--------- ----- -----",217079.45999999356,217076.28500000283,216776.812,216777.70999999484,216793.479,217093.485,,8,"prosecution,"
screen,html.Screen,2_3_1_0_1_9,2021-04-30T10:45:47.699Z,,,,,,,,,,,,,,,,,15,,,,,,,,,,,,,,304.7699999928009,,response,,,,7,C,,,,,,Space,keypress(Space),,,,instrumental,,,,---- --------- ---------- - --- ------- -- --- ------------<br>vowed -- -------- ------- ---- ------ - -------- ---- -----<br>--- ------- ---- -- --- -------- --- - ----- ------ ---- --<br>-------- --- -------- -------- --- -------- ---- -- ----- -<br>-------- ---- --- ---------- --------- -- ------- ------ -<br>--------- ----- -----,217403.79499999108,217398.2549999928,217076.818,217079.5849999995,217093.485,217410.158,,9,vowed
screen,html.Screen,2_3_1_0_1_10,2021-04-30T10:45:48.059Z,,,,,,,,,,,,,,,,,15,,,,,,,,,,,,,,347.842000001634,,response,,,,7,C,,,,,,Space,keypress(Space),,,,instrumental,,,,---- --------- ---------- - --- ------- -- --- ------------<br>----- he -------- ------- ---- ------ - -------- ---- -----<br>--- ------- ---- -- --- -------- --- - ----- ------ ---- --<br>-------- --- -------- -------- --- -------- ---- -- ----- -<br>-------- ---- --- ---------- --------- -- ------- ------ -<br>--------- ----- -----,217762.83500000136,217758.00000000163,217393.491,217403.999999995,217410.158,217776.832,,10,he
screen,html.Screen,2_3_1_0_1_11,2021-04-30T10:45:48.273Z,,,,,,,,,,,,,,,,,15,,,,,,,,,,,,,,195.72300000028918,,response,,,,7,C,,,,,,Space,keypress(Space),,,,instrumental,,,,---- --------- ---------- - --- ------- -- --- ------------<br>----- -- wouldn't ------- ---- ------ - -------- ---- -----<br>--- ------- ---- -- --- -------- --- - ----- ------ ---- --<br>-------- --- -------- -------- --- -------- ---- -- ----- -<br>-------- ---- --- ---------- --------- -- ------- ------ -<br>--------- ----- -----,217977.5399999926,217972.55500000028,217760.165,217763.08499999868,217776.832,217993.503,,11,wouldn't
screen,html.Screen,2_3_1_0_1_12,2021-04-30T10:45:48.534Z,,,,,,,,,,,,,,,,,15,,,,,,,,,,,,,,239.75199999919278,,response,,,,7,C,,,,,,Space,keypress(Space),,,,instrumental,,,,---- --------- ---------- - --- ------- -- --- ------------<br>----- -- -------- testify ---- ------ - -------- ---- -----<br>--- ------- ---- -- --- -------- --- - ----- ------ ---- --<br>-------- --- -------- -------- --- -------- ---- -- ----- -<br>-------- ---- --- ---------- --------- -- ------- ------ -<br>--------- ----- -----,218238.5399999912,218233.2549999992,217976.836,217977.74999999092,217993.503,218243.508,,12,testify
screen,html.Screen,2_3_1_0_1_13,2021-04-30T10:45:48.769Z,,,,,,,,,,,,,,,,,15,,,,,,,,,,,,,,227.61200000197277,,response,,,,7,C,,,,,,Space,keypress(Space),,,,instrumental,,,,---- --------- ---------- - --- ------- -- --- ------------<br>----- -- -------- ------- when ------ - -------- ---- -----<br>--- ------- ---- -- --- -------- --- - ----- ------ ---- --<br>-------- --- -------- -------- --- -------- ---- -- ----- -<br>-------- ---- --- ---------- --------- -- ------- ------ -<br>--------- ----- -----,218473.75499999907,218471.12000000197,218226.841,218238.79499999748,218243.508,218476.846,,13,when
screen,html.Screen,2_3_1_0_1_14,2021-04-30T10:45:49.052Z,,,,,,,,,,,,,,,,,15,,,,,,,,,,,,,,274.22899999286165,,response,,,,7,C,,,,,,Space,keypress(Space),,,,instrumental,,,,---- --------- ---------- - --- ------- -- --- ------------<br>----- -- -------- ------- ---- served - -------- ---- -----<br>--- ------- ---- -- --- -------- --- - ----- ------ ---- --<br>-------- --- -------- -------- --- -------- ---- -- ----- -<br>-------- ---- --- ---------- --------- -- ------- ------ -<br>--------- ----- -----,218755.99999999395,218751.07499999285,218460.179,218473.83499999705,218476.846,218760.185,,14,served
screen,html.Screen,2_3_1_0_1_15,2021-04-30T10:45:49.355Z,,,,,,,,,,,,,,,,,15,,,,,,,,,,,,,,293.4599999926868,,response,,,,7,C,,,,,,Space,keypress(Space),,,,instrumental,,,,---- --------- ---------- - --- ------- -- --- ------------<br>----- -- -------- ------- ---- ------ a -------- ---- -----<br>--- ------- ---- -- --- -------- --- - ----- ------ ---- --<br>-------- --- -------- -------- --- -------- ---- -- ----- -<br>-------- ---- --- ---------- --------- -- ------- ------ -<br>--------- ----- -----,219058.87500000244,219053.64499999268,218743.518,218756.4599999896,218760.185,219060.191,,15,a
screen,html.Screen,2_3_1_0_1_16,2021-04-30T10:45:49.578Z,,,,,,,,,,,,,,,,,15,,,,,,,,,,,,,,217.1189999904018,,response,,,,7,C,,,,,,Space,keypress(Space),,,,instrumental,,,,---- --------- ---------- - --- ------- -- --- ------------<br>----- -- -------- ------- ---- ------ - subpoena ---- -----<br>--- ------- ---- -- --- -------- --- - ----- ------ ---- --<br>-------- --- -------- -------- --- -------- ---- -- ----- -<br>-------- ---- --- ---------- --------- -- ------- ------ -<br>--------- ----- -----,219282.29000000283,219277.3099999904,219043.524,219059.08500000078,219060.191,219293.529,,16,subpoena
screen,html.Screen,2_3_1_0_1_17,2021-04-30T10:45:50.050Z,,,,,,,,,,,,,,,,,15,,,,,,,,,,,,,,455.2009999920556,,response,,,,7,C,,,,,,Space,keypress(Space),,,,instrumental,,,,---- --------- ---------- - --- ------- -- --- ------------<br>----- -- -------- ------- ---- ------ - -------- last -----<br>--- ------- ---- -- --- -------- --- - ----- ------ ---- --<br>-------- --- -------- -------- --- -------- ---- -- ----- -<br>-------- ---- --- ---------- --------- -- ------- ------ -<br>--------- ----- -----,219754.0849999932,219748.72999999207,219276.862,219282.54499999457,219293.529,219760.205,,17,last
screen,html.Screen,2_3_1_0_1_18,2021-04-30T10:45:50.329Z,,,,,,,,,,,,,,,,,15,,,,,,,,,,,,,,268.97999999215244,,response,,,,7,C,,,,,,Space,keypress(Space),,,,instrumental,,,,---- --------- ---------- - --- ------- -- --- ------------<br>----- -- -------- ------- ---- ------ - -------- ---- week.<br>--- ------- ---- -- --- -------- --- - ----- ------ ---- --<br>-------- --- -------- -------- --- -------- ---- -- ----- -<br>-------- ---- --- ---------- --------- -- ------- ------ -<br>--------- ----- -----,220033.79499999573,220029.18499999214,219743.538,219754.37499998952,219760.205,220043.544,,18,week.
screen,html.Screen,2_3_1_0_1_19,2021-04-30T10:45:50.671Z,,,,,,,,,,,,,,,,,15,,,,,,,,,,,,,,326.54100000229664,,response,,,,7,C,,,,,,Space,keypress(Space),,,,instrumental,,,,---- --------- ---------- - --- ------- -- --- ------------<br>----- -- -------- ------- ---- ------ - -------- ---- -----<br>His ------- ---- -- --- -------- --- - ----- ------ ---- --<br>-------- --- -------- -------- --- -------- ---- -- ----- -<br>-------- ---- --- ---------- --------- -- ------- ------ -<br>--------- ----- -----,220375.2899999963,220370.0850000023,220026.877,220033.99999999965,220043.544,220376.884,,19,His
screen,html.Screen,2_3_1_0_1_20,2021-04-30T10:45:51.169Z,,,,,,,,,,,,,,,,,15,,,,,,,,,,,,,,491.70599999823025,,response,,,,7,C,,,,,,Space,keypress(Space),,,,instrumental,,,,---- --------- ---------- - --- ------- -- --- ------------<br>----- -- -------- ------- ---- ------ - -------- ---- -----<br>--- lawyers ---- -- --- -------- --- - ----- ------ ---- --<br>-------- --- -------- -------- --- -------- ---- -- ----- -<br>-------- ---- --- ---------- --------- -- ------- ------ -<br>--------- ----- -----,220873.46000000252,220868.58999999822,220360.217,220375.5450000026,220376.884,220876.894,,20,lawyers
screen,html.Screen,2_3_1_0_1_21,2021-04-30T10:45:51.709Z,,,,,,,,,,,,,,,,,15,,,,,,,,,,,,,,530.9560000032361,,response,,,,7,C,,,,,,Space,keypress(Space),,,,instrumental,,,,---- --------- ---------- - --- ------- -- --- ------------<br>----- -- -------- ------- ---- ------ - -------- ---- -----<br>--- ------- said -- --- -------- --- - ----- ------ ---- --<br>-------- --- -------- -------- --- -------- ---- -- ----- -<br>-------- ---- --- ---------- --------- -- ------- ------ -<br>--------- ----- -----,221413.54500000307,221407.85000000324,220860.227,220873.74999999884,220876.894,221426.905,,21,said
screen,html.Screen,2_3_1_0_1_22,2021-04-30T10:45:52.055Z,,,,,,,,,,,,,,,,,15,,,,,,,,,,,,,,326.7899999921501,,response,,,,7,C,,,,,,Space,keypress(Space),,,,instrumental,,,,---- --------- ---------- - --- ------- -- --- ------------<br>----- -- -------- ------- ---- ------ - -------- ---- -----<br>--- ------- ---- he --- -------- --- - ----- ------ ---- --<br>-------- --- -------- -------- --- -------- ---- -- ----- -<br>-------- ---- --- ---------- --------- -- ------- ------ -<br>--------- ----- -----,221759.37499999418,221753.69499999215,221410.238,221413.74999999243,221426.905,221776.912,,22,he
screen,html.Screen,2_3_1_0_1_23,2021-04-30T10:45:52.261Z,,,,,,,,,,,,,,,,,15,,,,,,,,,,,,,,183.58299999206793,,response,,,,7,C,,,,,,Space,keypress(Space),,,,instrumental,,,,---- --------- ---------- - --- ------- -- --- ------------<br>----- -- -------- ------- ---- ------ - -------- ---- -----<br>--- ------- ---- -- was -------- --- - ----- ------ ---- --<br>-------- --- -------- -------- --- -------- ---- -- ----- -<br>-------- ---- --- ---------- --------- -- ------- ------ -<br>--------- ----- -----,221964.9999999965,221960.49499999208,221760.245,221759.70999999845,221776.912,221976.916,,23,was
screen,html.Screen,2_3_1_0_1_24,2021-04-30T10:45:52.511Z,,,,,,,,,,,,,,,,,15,,,,,,,,,,,,,,233.3240000003425,,response,,,,7,C,,,,,,Space,keypress(Space),,,,instrumental,,,,---- --------- ---------- - --- ------- -- --- ------------<br>----- -- -------- ------- ---- ------ - -------- ---- -----<br>--- ------- ---- -- --- prepared --- - ----- ------ ---- --<br>-------- --- -------- -------- --- -------- ---- -- ----- -<br>-------- ---- --- ---------- --------- -- ------- ------ -<br>--------- ----- -----,222215.41499999876,222210.24000000034,221960.249,221965.2950000018,221976.916,222226.921,,24,prepared
screen,html.Screen,2_3_1_0_1_25,2021-04-30T10:45:52.841Z,,,,,,,,,,,,,,,,,15,,,,,,,,,,,,,,312.4039999906381,,response,,,,7,C,,,,,,Space,keypress(Space),,,,instrumental,,,,---- --------- ---------- - --- ------- -- --- ------------<br>----- -- -------- ------- ---- ------ - -------- ---- -----<br>--- ------- ---- -- --- -------- for - ----- ------ ---- --<br>-------- --- -------- -------- --- -------- ---- -- ----- -<br>-------- ---- --- ---------- --------- -- ------- ------ -<br>--------- ----- -----,222545.04499999166,222539.32499999064,222210.254,222215.70999998949,222226.921,222560.261,,25,for
screen,html.Screen,2_3_1_0_1_26,2021-04-30T10:45:53.183Z,,,,,,,,,,,,,,,,,15,,,,,,,,,,,,,,321.6440000020084,,response,,,,7,C,,,,,,Space,keypress(Space),,,,instrumental,,,,---- --------- ---------- - --- ------- -- --- ------------<br>----- -- -------- ------- ---- ------ - -------- ---- -----<br>--- ------- ---- -- --- -------- --- a ----- ------ ---- --<br>-------- --- -------- -------- --- -------- ---- -- ----- -<br>-------- ---- --- ---------- --------- -- ------- ------ -<br>--------- ----- -----,222887.83500000136,222881.905000002,222543.594,222545.4599999939,222560.261,222893.601,,26,a
screen,html.Screen,2_3_1_0_1_27,2021-04-30T10:45:53.346Z,,,,,,,,,,,,,,,,,15,,,,,,,,,,,,,,151.93399999747635,,response,,,,7,C,,,,,,Space,keypress(Space),,,,instrumental,,,,---- --------- ---------- - --- ------- -- --- ------------<br>----- -- -------- ------- ---- ------ - -------- ---- -----<br>--- ------- ---- -- --- -------- --- - third ------ ---- --<br>-------- --- -------- -------- --- -------- ---- -- ----- -<br>-------- ---- --- ---------- --------- -- ------- ------ -<br>--------- ----- -----,223050.91999999422,223045.53499999747,222876.934,222888.334999996,222893.601,223060.271,,27,third
screen,html.Screen,2_3_1_0_1_28,2021-04-30T10:45:53.597Z,,,,,,,,,,,,,,,,,15,,,,,,,,,,,,,,235.8090000000666,,response,,,,7,C,,,,,,Space,keypress(Space),,,,instrumental,,,,---- --------- ---------- - --- ------- -- --- ------------<br>----- -- -------- ------- ---- ------ - -------- ---- -----<br>--- ------- ---- -- --- -------- --- - ----- prison ---- --<br>-------- --- -------- -------- --- -------- ---- -- ----- -<br>-------- ---- --- ---------- --------- -- ------- ------ -<br>--------- ----- -----,223301.16499999713,223296.08000000007,223043.604,223051.16999999154,223060.271,223310.276,,28,prison
screen,html.Screen,2_3_1_0_1_29,2021-04-30T10:45:53.866Z,,,,,,,,,,,,,,,,,15,,,,,,,,,,,,,,256.9739999927697,,response,,,,7,C,,,,,,Space,keypress(Space),,,,instrumental,,,,---- --------- ---------- - --- ------- -- --- ------------<br>----- -- -------- ------- ---- ------ - -------- ---- -----<br>--- ------- ---- -- --- -------- --- - ----- ------ stay --<br>-------- --- -------- -------- --- -------- ---- -- ----- -<br>-------- ---- --- ---------- --------- -- ------- ------ -<br>--------- ----- -----,223570.0450000004,223567.24999999278,223293.609,223301.42000000342,223310.276,223576.948,,29,stay
screen,html.Screen,2_3_1_0_1_30,2021-04-30T10:45:54.044Z,,,,,,,,,,,,,,,,,15,,,,,,,,,,,,,,168.60700000132783,,response,,,,7,C,,,,,,Space,keypress(Space),,,,instrumental,,,,---- --------- ---------- - --- ------- -- --- ------------<br>----- -- -------- ------- ---- ------ - -------- ---- -----<br>--- ------- ---- -- --- -------- --- - ----- ------ ---- to<br>-------- --- -------- -------- --- -------- ---- -- ----- -<br>-------- ---- --- ---------- --------- -- ------- ------ -<br>--------- ----- -----,223748.5849999939,223745.55500000133,223560.281,223570.12499999837,223576.948,223760.285,,30,to
screen,html.Screen,2_3_1_0_1_31,2021-04-30T10:45:54.216Z,,,,,,,,,,,,,,,,,15,,,,,,,,,,,,,,154.81999999276013,,response,,,,7,C,,,,,,Space,keypress(Space),,,,instrumental,,,,---- --------- ---------- - --- ------- -- --- ------------<br>----- -- -------- ------- ---- ------ - -------- ---- -----<br>--- ------- ---- -- --- -------- --- - ----- ------ ---- --<br>maintain --- -------- -------- --- -------- ---- -- ----- -<br>-------- ---- --- ---------- --------- -- ------- ------ -<br>--------- ----- -----,223920.58499999985,223915.10499999276,223743.618,223748.70999999985,223760.285,223926.955,,31,maintain
screen,html.Screen,2_3_1_0_1_32,2021-04-30T10:45:54.388Z,,,,,,,,,,,,,,,,,15,,,,,,,,,,,,,,160.49499999181717,,response,,,,7,C,,,,,,Space,keypress(Space),,,,instrumental,,,,---- --------- ---------- - --- ------- -- --- ------------<br>----- -- -------- ------- ---- ------ - -------- ---- -----<br>--- ------- ---- -- --- -------- --- - ----- ------ ---- --<br>-------- his -------- -------- --- -------- ---- -- ----- -<br>-------- ---- --- ---------- --------- -- ------- ------ -<br>--------- ----- -----,224092.4149999919,224087.4499999918,223910.288,223920.83499999717,223926.955,224093.625,,32,his
screen,html.Screen,2_3_1_0_1_33,2021-04-30T10:45:54.583Z,,,,,,,,,,,,,,,,,15,,,,,,,,,,,,,,188.43499999772757,,response,,,,7,C,,,,,,Space,keypress(Space),,,,instrumental,,,,---- --------- ---------- - --- ------- -- --- ------------<br>----- -- -------- ------- ---- ------ - -------- ---- -----<br>--- ------- ---- -- --- -------- --- - ----- ------ ---- --<br>-------- --- silence. -------- --- -------- ---- -- ----- -<br>-------- ---- --- ---------- --------- -- ------- ------ -<br>--------- ----- -----,224287.2950000019,224282.05999999773,224076.958,224092.62499999022,224093.625,224293.629,,33,silence.
screen,html.Screen,2_3_1_0_1_34,2021-04-30T10:45:54.769Z,,,,,,,,,,,,,,,,,15,,,,,,,,,,,,,,174.99099999965983,,response,,,,7,C,,,,,,Space,keypress(Space),,,,instrumental,,,,---- --------- ---------- - --- ------- -- --- ------------<br>----- -- -------- ------- ---- ------ - -------- ---- -----<br>--- ------- ---- -- --- -------- --- - ----- ------ ---- --<br>-------- --- -------- Anderson --- -------- ---- -- ----- -<br>-------- ---- --- ---------- --------- -- ------- ------ -<br>--------- ----- -----,224473.70999999112,224468.61999999965,224276.962,224287.58499999822,224293.629,224476.966,,34,Anderson
screen,html.Screen,2_3_1_0_1_35,2021-04-30T10:45:55.087Z,,,,,,,,,,,,,,,,,15,,,,,,,,,,,,,,310.14399999022135,,response,,,,7,C,,,,,,Space,keypress(Space),,,,instrumental,,,,---- --------- ---------- - --- ------- -- --- ------------<br>----- -- -------- ------- ---- ------ - -------- ---- -----<br>--- ------- ---- -- --- -------- --- - ----- ------ ---- --<br>-------- --- -------- -------- was -------- ---- -- ----- -<br>-------- ---- --- ---------- --------- -- ------- ------ -<br>--------- ----- -----,224791.83499999635,224787.1099999902,224460.299,224474.00000000198,224476.966,224793.639,,35,was
screen,html.Screen,2_3_1_0_1_36,2021-04-30T10:45:55.268Z,,,,,,,,,,,,,,,,,15,,,,,,,,,,,,,,173.8109999964654,,response,,,,7,C,,,,,,Space,keypress(Space),,,,instrumental,,,,---- --------- ---------- - --- ------- -- --- ------------<br>----- -- -------- ------- ---- ------ - -------- ---- -----<br>--- ------- ---- -- --- -------- --- - ----- ------ ---- --<br>-------- --- -------- -------- --- released ---- -- ----- -<br>-------- ---- --- ---------- --------- -- ------- ------ -<br>--------- ----- -----,224972.54000000248,224967.44999999646,224776.972,224792.0049999957,224793.639,224976.976,,36,released
screen,html.Screen,2_3_1_0_1_37,2021-04-30T10:45:55.519Z,,,,,,,,,,,,,,,,,15,,,,,,,,,,,,,,241.50899999032845,,response,,,,7,C,,,,,,Space,keypress(Space),,,,instrumental,,,,---- --------- ---------- - --- ------- -- --- ------------<br>----- -- -------- ------- ---- ------ - -------- ---- -----<br>--- ------- ---- -- --- -------- --- - ----- ------ ---- --<br>-------- --- -------- -------- --- -------- July -- ----- -<br>-------- ---- --- ---------- --------- -- ------- ------ -<br>--------- ----- -----,225223.4199999948,225218.48499999032,224960.309,224972.8349999932,224976.976,225226.981,,37,July
screen,html.Screen,2_3_1_0_1_38,2021-04-30T10:45:55.885Z,,,,,,,,,,,,,,,,,15,,,,,,,,,,,,,,356.543999994552,,response,,,,7,C,,,,,,Space,keypress(Space),,,,instrumental,,,,---- --------- ---------- - --- ------- -- --- ------------<br>----- -- -------- ------- ---- ------ - -------- ---- -----<br>--- ------- ---- -- --- -------- --- - ----- ------ ---- --<br>-------- --- -------- -------- --- -------- ---- 20 ----- -<br>-------- ---- --- ---------- --------- -- ------- ------ -<br>--------- ----- -----,225589.12999999302,225583.52499999455,225210.314,225223.66999999213,225226.981,225593.655,,38,20
