sender,sender_type,sender_id,timestamp,meta,,Blues,Classical,Country,Dance,Electronic,Folk,Gospel,Hip-Hop,Jazz,Latin,Musical/Film,New-age,Pop,Prolific_id,Provo_ID,R&B,Rap,Reggae,Religious,Rock,Soul,Swing,Traditional,age,artist_name,correct,correctResponse,distraction,duration,education,ended_on,familiarity,gender,headphone_check_performance,item,list,music_frequency,offensiveness,pleasantness,position_correct,preference,response,response_action,snippet_file,song_name,song_rating,sound,stimulus_1,stimulus_2,stimulus_3,text,time_commit,time_end,time_render,time_run,time_show,time_switch,url,word,word_ID
Prolific ID,html.Form,0,2021-04-24T16:03:20.646Z,"{""labjs_version"":""20.2.2"",""labjs_build"":{""flavor"":""production"",""commit"":""a25486e0c714a0ae2ce03ff94b7bb6896854dcfa""},""location"":""https://run.pavlovia.org/mvasilev/prolific_music_d/"",""userAgent"":""Mozilla/5.0 (Windows NT 10.0; Win64; x64) AppleWebKit/537.36 (KHTML, like Gecko) Chrome/90.0.4430.85 Safari/537.36"",""platform"":""Win32"",""language"":""en-US"",""locale"":""en-US"",""timeZone"":""Europe/London"",""timezoneOffset"":-60,""screen_width"":1440,""screen_height"":960,""scroll_width"":1800,""scroll_height"":1014,""window_innerWidth"":1800,""window_innerHeight"":1062,""devicePixelRatio"":1.2000000476837158}",,,,,,,,,,,,,,,5cf42528e7c1d1001b527bbc,,,,,,,,,,,,,,,8020.156999991506,,form submission,,,,,,,,,,,,,,,,,,,,,23577.264999999898,23575.004999991506,15488.082,15498.514999999315,15554.848,23594.193,{},,
Introduction,html.Screen,1_0,2021-04-24T16:03:32.300Z,,,,,,,,,,,,,,,,,,,,,,,,,,,,,,,11633.926999999763,,response,,,,,,,,,,,continue,click button,,,,,,,,,35231.749999991735,35228.11999999976,23560.853,23580.564999996568,23594.193,35252.927,,,
Volume calibration,html.Screen,1_1,2021-04-24T16:04:15.340Z,,,,,,,,,,,,,,,,,,,,,,,,,,,,,,,43012.937999993934,,response,,,,,,,,,,,continue,click button,,,,,,,,,78270.50499999314,78265.86499999394,35236.297,35232.05999999482,35252.927,78268.456,,,
Task instructions,html.Screen,1_2,2021-04-24T16:04:24.017Z,,,,,,,,,,,,,,,,,,,,,,,,,,,,,,,8675.729000000283,,response,,,,,,,,,,,continue,click button,,,,,,,,,86947.3799999978,86944.18500000029,78251.862,78270.73499999824,78268.456,86958.285,,,
Sounds,html.Screen,1_3_0_0,2021-04-24T16:04:28.267Z,,,,,,,,,,,,,,,,,,,,,,,,,,,,,,,4253.1449999999895,,timeout,,,,,,,,,1,,,,,,,,S,O,I,,91198.21499999671,91194.889,86941.719,86948.85499999509,86958.285,91211.43,,,
Judgement,html.Screen,1_3_0_1,2021-04-24T16:04:33.838Z,,,,,,,,,,,,,,,,,,,,,,,,,,,,true,1,,5553.410000003467,,response,,,,,,,,,1,,1,click #choice-1,,,,,S,O,I,,96768.45999999205,96764.84000000346,91194.889,91198.4850000008,91211.43,96782.447,,,
Trial,flow.Sequence,1_3_0,2021-04-24T16:04:33.844Z,,,,,,,,,,,,,,,,,,,,,,,,,,,,,,,9806.555000003456,,completion,,,,,,,,,1,,,,,,,,S,O,I,,96775.18499999132,96764.84000000346,86941.719,86948.69999999355,86958.285,96782.447,,,
Sounds,html.Screen,1_3_1_0,2021-04-24T16:04:38.089Z,,,,,,,,,,,,,,,,,,,,,,,,,,,,,,,4253.048999999999,,timeout,,,,,,,,,2,,,,,,,,I,S,O,,101019.87000000372,101018.836,96765.717,96775.93999999226,96782.447,101035.496,,,
Judgement,html.Screen,1_3_1_1,2021-04-24T16:04:38.917Z,,,,,,,,,,,,,,,,,,,,,,,,,,,,true,2,,811.0039999996516,,response,,,,,,,,,2,,2,click #choice-2,,,,,I,S,O,,101847.71000000183,101846.49999999965,101018.836,101020.09499999986,101035.496,101852.765,,,
Trial,flow.Sequence,1_3_1,2021-04-24T16:04:38.917Z,,,,,,,,,,,,,,,,,,,,,,,,,,,,,,,5064.052999999651,,completion,,,,,,,,,2,,,,,,,,I,S,O,,101848.10000000289,101846.49999999965,96765.717,96775.72999999393,96782.447,101852.765,,,
Sounds,html.Screen,1_3_2_0,2021-04-24T16:04:43.159Z,,,,,,,,,,,,,,,,,,,,,,,,,,,,,,,4253.206999999995,,timeout,,,,,,,,,1,,,,,,,,S,I,O,,106090.2849999984,106089.335,101836.18,101848.35000000021,101852.765,106105.972,,,
Judgement,html.Screen,1_3_2_1,2021-04-24T16:04:47.640Z,,,,,,,,,,,,,,,,,,,,,,,,,,,,true,1,,4462.078000001682,,response,,,,,,,,,1,,1,click #choice-1,,,,,S,I,O,,110571.06999999087,110568.05000000168,106089.335,106090.49999999115,106105.972,110576.076,,,
Trial,flow.Sequence,1_3_2,2021-04-24T16:04:47.641Z,,,,,,,,,,,,,,,,,,,,,,,,,,,,,,,8715.285000001677,,completion,,,,,,,,,1,,,,,,,,S,I,O,,110571.94500000332,110568.05000000168,101836.18,101848.27499999665,101852.765,110576.076,,,
Sounds,html.Screen,1_3_3_0,2021-04-24T16:04:51.883Z,,,,,,,,,,,,,,,,,,,,,,,,,,,,,,,4253.050000000003,,timeout,,,,,,,,,3,,,,,,,,O,I,S,,114813.33499999892,114812.564,110559.3,110572.58500000171,110576.076,114829.126,,,
Judgement,html.Screen,1_3_3_1,2021-04-24T16:04:52.405Z,,,,,,,,,,,,,,,,,,,,,,,,,,,,true,3,,503.82899999075744,,response,,,,,,,,,3,,3,click #choice-3,,,,,O,I,S,,115335.52999999665,115332.95499999076,114812.564,114813.54499999725,114829.126,115346.289,,,
Trial,flow.Sequence,1_3_3,2021-04-24T16:04:52.405Z,,,,,,,,,,,,,,,,,,,,,,,,,,,,,,,4756.87899999076,,completion,,,,,,,,,3,,,,,,,,O,I,S,,115336.33499999996,115332.95499999076,110559.3,110572.38499999221,110576.076,115346.289,,,
Sounds,html.Screen,1_3_4_0,2021-04-24T16:04:56.653Z,,,,,,,,,,,,,,,,,,,,,,,,,,,,,,,4253.11099999999,,timeout,,,,,,,,,3,,,,,,,,I,O,S,,119583.72500000405,119582.776,115329.606,115336.92999999039,115346.289,119599.4,,,
Judgement,html.Screen,1_3_4_1,2021-04-24T16:04:57.247Z,,,,,,,,,,,,,,,,,,,,,,,,,,,,true,3,,575.8100000012491,,response,,,,,,,,,3,,3,click #choice-3,,,,,I,O,S,,120178.16999999923,120175.21000000124,119582.776,119583.93500000238,119599.4,120183.256,,,
Trial,flow.Sequence,1_3_4,2021-04-24T16:04:57.248Z,,,,,,,,,,,,,,,,,,,,,,,,,,,,,,,4828.921000001239,,completion,,,,,,,,,3,,,,,,,,I,O,S,,120178.96999999357,120175.21000000124,115329.606,115336.76500000001,115346.289,120183.256,,,
Sounds,html.Screen,1_3_5_0,2021-04-24T16:05:01.490Z,,,,,,,,,,,,,,,,,,,,,,,,,,,,,,,4253.08600000001,,timeout,,,,,,,,,2,,,,,,,,O,S,I,,124420.50500000187,124419.715,120166.587,120179.56499999855,120183.256,124436.342,,,
Judgement,html.Screen,1_3_5_1,2021-04-24T16:05:01.912Z,,,,,,,,,,,,,,,,,,,,,,,,,,,,true,2,,402.9829999935464,,response,,,,,,,,,2,,2,click #choice-2,,,,,O,S,I,,124842.9199999955,124839.32499999355,124419.715,124420.79000000376,124436.342,124869.98,,,
Trial,flow.Sequence,1_3_5,2021-04-24T16:05:01.913Z,,,,,,,,,,,,,,,,,,,,,,,,,,,,,,,4656.068999993557,,completion,,,,,,,,,2,,,,,,,,O,S,I,,124844.17499999108,124839.32499999355,120166.587,120179.3949999992,120183.256,124869.98,,,
Task,flow.Loop,1_3,2021-04-24T16:05:01.933Z,,,,,,,,,,,,,,,,,,,,,,,,,,,,,,,37881.03999999355,,completion,,,1,,,,,,,,,,,,,,,,,,124863.73499999172,124839.32499999355,86941.719,86948.24499999231,86958.285,124869.98,,,
Trap,html.Screen,1_4,2021-04-24T16:05:01.938Z,,,,,,,,,,,,,,,,,,,,,,,,,,,,,,,NaN,,skipped,,,,,,,,,,,,,,,,,,,,,124869.16499999643,124839.32499999355,,124868.40500000108,,124869.98,,,
Thanks,html.Screen,1_5,2021-04-24T16:05:10.567Z,,,,,,,,,,,,,,,,,,,,,,,,,,,,,,,8625.414999990826,,response,,,,,,,,,,,continue,click button,,,,,,,,,133497.88499998976,133495.39499999082,124836.884,124869.51000000408,124869.98,142099.585,,,
Headphone screening,flow.Sequence,1,2021-04-24T16:05:10.568Z,,,,,,,,,,,,,,,,,,,,,,,,,,,,,,,109901.20199999082,,completion,,,,,,,,,,,,,,,,,,,,,133498.68499999866,133495.39499999082,23560.853,23580.359999992652,23594.193,142099.585,,,
Instructions,html.Page,2_0,2021-04-24T16:05:39.247Z,,,,,,,,,,,,,,,,,,,,,,,,,,,,,,,20077.089999995165,,form submission,,,,,,,,,,,,,,,,,,,,,162177.7199999924,162176.67499999516,142083.026,142095.8149999933,142099.585,162181.421,,,
Holding screen,html.Screen,2_1_0_0,2021-04-24T16:05:49.242Z,,,,,,,,,,,,,,,,,,,,,,,,,,,,,,,10007.399999999994,,timeout,,,,,,,,,,,,,,,,,,,,,172172.82500000147,172172.168,162164.671,162178.6199999915,162181.421,172188.821,,,
screen,html.Screen,2_1_0_1_0,2021-04-24T16:05:50.496Z,,,,,,,,,,,,,,,,,53,,,,,,,,,,,,,,1229.3289999976987,,response,,,,99,,,,,,,Space,keypress(Space),,,,,,,,When -- ----- -- ------ - ------- --- ----------<br>------------- ------ ------ ---- ---- ------- ----- -- ----<br>-------- ------- -- ---------- --- - --- ----- ----- ----<br>---- --- --- ----- --- ---- ---- ------- ----- ---- -------<br>--- --- -- ----- -- --- ---- -- --- ---- -- ------ ------<br>--- ----- -- ----,173426.44999999902,173418.1499999977,172172.168,172173.12999999558,172188.821,173423.1,,0,When
screen,html.Screen,2_1_0_1_1,2021-04-24T16:05:51.056Z,,,,,,,,,,,,,,,,,53,,,,,,,,,,,,,,561.7150000034308,,response,,,,99,,,,,,,Space,keypress(Space),,,,,,,,---- it ----- -- ------ - ------- --- ----------<br>------------- ------ ------ ---- ---- ------- ----- -- ----<br>-------- ------- -- ---------- --- - --- ----- ----- ----<br>---- --- --- ----- --- ---- ---- ------- ----- ---- -------<br>--- --- -- ----- -- --- ---- -- --- ---- -- ------ ------<br>--- ----- -- ----,173986.4649999945,173984.81500000344,173406.428,173430.09999999776,173423.1,173990.215,,1,it
screen,html.Screen,2_1_0_1_2,2021-04-24T16:05:51.553Z,,,,,,,,,,,,,,,,,53,,,,,,,,,,,,,,491.4600000027276,,response,,,,99,,,,,,,Space,keypress(Space),,,,,,,,---- -- comes -- ------ - ------- --- ----------<br>------------- ------ ------ ---- ---- ------- ----- -- ----<br>-------- ------- -- ---------- --- - --- ----- ----- ----<br>---- --- --- ----- --- ---- ---- ------- ----- ---- -------<br>--- --- -- ----- -- --- ---- -- --- ---- -- ------ ------<br>--- ----- -- ----,174483.2549999992,174481.67500000272,173973.554,173986.94499999692,173990.215,174490.479,,2,comes
screen,html.Screen,2_1_0_1_3,2021-04-24T16:05:52.040Z,,,,,,,,,,,,,,,,,53,,,,,,,,,,,,,,478.6009999953094,,response,,,,99,,,,,,,Space,keypress(Space),,,,,,,,---- -- ----- to ------ - ------- --- ----------<br>------------- ------ ------ ---- ---- ------- ----- -- ----<br>-------- ------- -- ---------- --- - --- ----- ----- ----<br>---- --- --- ----- --- ---- ---- ------- ----- ---- -------<br>--- --- -- ----- -- --- ---- -- --- ---- -- ------ ------<br>--- ----- -- ----,174970.73999998975,174969.0799999953,174474.032,174483.76499999722,174490.479,174974.292,,3,to
screen,html.Screen,2_1_0_1_4,2021-04-24T16:05:52.521Z,,,,,,,,,,,,,,,,,53,,,,,,,,,,,,,,475.2679999936663,,response,,,,99,,,,,,,Space,keypress(Space),,,,,,,,---- -- ----- -- having - ------- --- ----------<br>------------- ------ ------ ---- ---- ------- ----- -- ----<br>-------- ------- -- ---------- --- - --- ----- ----- ----<br>---- --- --- ----- --- ---- ---- ------- ----- ---- -------<br>--- --- -- ----- -- --- ---- -- --- ---- -- ------ ------<br>--- ----- -- ----,175451.26000000164,175449.55999999365,174957.511,174971.22500000114,174974.292,175458.021,,4,having
screen,html.Screen,2_1_0_1_5,2021-04-24T16:05:53.002Z,,,,,,,,,,,,,,,,,53,,,,,,,,,,,,,,472.9839999912656,,response,,,,99,,,,,,,Space,keypress(Space),,,,,,,,---- -- ----- -- ------ a ------- --- ----------<br>------------- ------ ------ ---- ---- ------- ----- -- ----<br>-------- ------- -- ---------- --- - --- ----- ----- ----<br>---- --- --- ----- --- ---- ---- ------- ----- ---- -------<br>--- --- -- ----- -- --- ---- -- --- ---- -- ------ ------<br>--- ----- -- ----,175932.6349999901,175931.00499999127,175441.219,175451.75999999628,175458.021,175941.654,,5,a
screen,html.Screen,2_1_0_1_6,2021-04-24T16:05:53.552Z,,,,,,,,,,,,,,,,,53,,,,,,,,,,,,,,539.4159999943513,,response,,,,99,,,,,,,Space,keypress(Space),,,,,,,,---- -- ----- -- ------ - lasting --- ----------<br>------------- ------ ------ ---- ---- ------- ----- -- ----<br>-------- ------- -- ---------- --- - --- ----- ----- ----<br>---- --- --- ----- --- ---- ---- ------- ----- ---- -------<br>--- --- -- ----- -- --- ---- -- --- ---- -- ------ ------<br>--- ----- -- ----,176482.61999999522,176481.06999999436,175924.967,175933.1349999993,175941.654,176492.07,,6,lasting
screen,html.Screen,2_1_0_1_7,2021-04-24T16:05:56.041Z,,,,,,,,,,,,,,,,,53,,,,,,,,,,,,,,2477.7049999904702,,response,,,,99,,,,,,,Space,keypress(Space),,,,,,,,---- -- ----- -- ------ - ------- and ----------<br>------------- ------ ------ ---- ---- ------- ----- -- ----<br>-------- ------- -- ---------- --- - --- ----- ----- ----<br>---- --- --- ----- --- ---- ---- ------- ----- ---- -------<br>--- --- -- ----- -- --- ---- -- --- ---- -- ------ ------<br>--- ----- -- ----,178971.55999999086,178969.77499999048,176475.374,176483.11000000103,176492.07,178977.284,,7,and
screen,html.Screen,2_1_0_1_8,2021-04-24T16:05:56.831Z,,,,,,,,,,,,,,,,,53,,,,,,,,,,,,,,783.2409999905794,,response,,,,99,,,,,,,Space,keypress(Space),,,,,,,,---- -- ----- -- ------ - ------- --- fulfilling<br>------------- ------ ------ ---- ---- ------- ----- -- ----<br>-------- ------- -- ---------- --- - --- ----- ----- ----<br>---- --- --- ----- --- ---- ---- ------- ----- ---- -------<br>--- --- -- ----- -- --- ---- -- --- ---- -- ------ ------<br>--- ----- -- ----,179762.1849999996,179760.5249999906,178960.552,178972.06499999447,178977.284,179777.857,,8,fulfilling
screen,html.Screen,2_1_0_1_9,2021-04-24T16:05:57.743Z,,,,,,,,,,,,,,,,,53,,,,,,,,,,,,,,894.1179999902088,,response,,,,99,,,,,,,Space,keypress(Space),,,,,,,,"---- -- ----- -- ------ - ------- --- ----------<br>relationship, ------ ------ ---- ---- ------- ----- -- ----<br>-------- ------- -- ---------- --- - --- ----- ----- ----<br>---- --- --- ----- --- ---- ---- ------- ----- ---- -------<br>--- --- -- ----- -- --- ---- -- --- ---- -- ------ ------<br>--- ----- -- ----",180673.71499999717,180671.9749999902,179761.168,179762.67499999085,179777.857,180678.58,,9,"relationship,"
screen,html.Screen,2_1_0_1_10,2021-04-24T16:05:58.431Z,,,,,,,,,,,,,,,,,53,,,,,,,,,,,,,,681.2649999990535,,response,,,,99,,,,,,,Space,keypress(Space),,,,,,,,---- -- ----- -- ------ - ------- --- ----------<br>------------- common ------ ---- ---- ------- ----- -- ----<br>-------- ------- -- ---------- --- - --- ----- ----- ----<br>---- --- --- ----- --- ---- ---- ------- ----- ---- -------<br>--- --- -- ----- -- --- ---- -- --- ---- -- ------ ------<br>--- ----- -- ----,181361.7099999974,181359.84499999904,180661.846,180674.21499999182,180678.58,181379.236,,10,common
screen,html.Screen,2_1_0_1_11,2021-04-24T16:05:58.942Z,,,,,,,,,,,,,,,,,53,,,,,,,,,,,,,,491.79900000375346,,response,,,,99,,,,,,,Space,keypress(Space),,,,,,,,---- -- ----- -- ------ - ------- --- ----------<br>------------- ------ wisdom ---- ---- ------- ----- -- ----<br>-------- ------- -- ---------- --- - --- ----- ----- ----<br>---- --- --- ----- --- ---- ---- ------- ----- ---- -------<br>--- --- -- ----- -- --- ---- -- --- ---- -- ------ ------<br>--- ----- -- ----,181872.73000000278,181871.03500000376,181362.319,181362.33499999798,181379.236,181879.446,,11,wisdom
screen,html.Screen,2_1_0_1_12,2021-04-24T16:05:59.407Z,,,,,,,,,,,,,,,,,53,,,,,,,,,,,,,,457.3190000000177,,response,,,,99,,,,,,,Space,keypress(Space),,,,,,,,---- -- ----- -- ------ - ------- --- ----------<br>------------- ------ ------ says ---- ------- ----- -- ----<br>-------- ------- -- ---------- --- - --- ----- ----- ----<br>---- --- --- ----- --- ---- ---- ------- ----- ---- -------<br>--- --- -- ----- -- --- ---- -- --- ---- -- ------ ------<br>--- ----- -- ----,182338.56999999261,182336.765,181862.742,181873.23499999184,181879.446,182346.481,,12,says
screen,html.Screen,2_1_0_1_13,2021-04-24T16:05:59.896Z,,,,,,,,,,,,,,,,,53,,,,,,,,,,,,,,478.3840000023192,,response,,,,99,,,,,,,Space,keypress(Space),,,,,,,,---- -- ----- -- ------ - ------- --- ----------<br>------------- ------ ------ ---- that ------- ----- -- ----<br>-------- ------- -- ---------- --- - --- ----- ----- ----<br>---- --- --- ----- --- ---- ---- ------- ----- ---- -------<br>--- --- -- ----- -- --- ---- -- --- ---- -- ------ ------<br>--- ----- -- ----,182826.9100000034,182824.86500000232,182329.759,182339.0700000018,182346.481,182830.138,,13,that
screen,html.Screen,2_1_0_1_14,2021-04-24T16:06:00.912Z,,,,,,,,,,,,,,,,,53,,,,,,,,,,,,,,1011.3719999983732,,response,,,,99,,,,,,,Space,keypress(Space),,,,,,,,---- -- ----- -- ------ - ------- --- ----------<br>------------- ------ ------ ---- ---- feeling ----- -- ----<br>-------- ------- -- ---------- --- - --- ----- ----- ----<br>---- --- --- ----- --- ---- ---- ------- ----- ---- -------<br>--- --- -- ----- -- --- ---- -- --- ---- -- ------ ------<br>--- ----- -- ----,183843.20000000298,183841.50999999838,182813.453,182827.77499999793,182830.138,183847.608,,14,feeling
screen,html.Screen,2_1_0_1_15,2021-04-24T16:06:01.510Z,,,,,,,,,,,,,,,,,53,,,,,,,,,,,,,,592.276999999769,,response,,,,99,,,,,,,Space,keypress(Space),,,,,,,,---- -- ----- -- ------ - ------- --- ----------<br>------------- ------ ------ ---- ---- ------- close -- ----<br>-------- ------- -- ---------- --- - --- ----- ----- ----<br>---- --- --- ----- --- ---- ---- ------- ----- ---- -------<br>--- --- -- ----- -- --- ---- -- --- ---- -- ------ ------<br>--- ----- -- ----,184441.60499999998,184439.88499999978,183830.882,183843.70499999204,183847.608,184448.001,,15,close
screen,html.Screen,2_1_0_1_16,2021-04-24T16:06:01.945Z,,,,,,,,,,,,,,,,,53,,,,,,,,,,,,,,426.26399999129353,,response,,,,99,,,,,,,Space,keypress(Space),,,,,,,,---- -- ----- -- ------ - ------- --- ----------<br>------------- ------ ------ ---- ---- ------- ----- to ----<br>-------- ------- -- ---------- --- - --- ----- ----- ----<br>---- --- --- ----- --- ---- ---- ------- ----- ---- -------<br>--- --- -- ----- -- --- ---- -- --- ---- -- ------ ------<br>--- ----- -- ----,184876.01500000164,184874.26499999128,184431.3,184442.10499999463,184448.001,184881.658,,16,to
screen,html.Screen,2_1_0_1_17,2021-04-24T16:06:03.016Z,,,,,,,,,,,,,,,,,53,,,,,,,,,,,,,,1064.2970000028727,,response,,,,99,,,,,,,Space,keypress(Space),,,,,,,,---- -- ----- -- ------ - ------- --- ----------<br>------------- ------ ------ ---- ---- ------- ----- -- your<br>-------- ------- -- ---------- --- - --- ----- ----- ----<br>---- --- --- ----- --- ---- ---- ------- ----- ---- -------<br>--- --- -- ----- -- --- ---- -- --- ---- -- ------ ------<br>--- ----- -- ----,185947.54999999714,185945.95500000287,184864.989,184876.55000000086,184881.658,185982.502,,17,your
screen,html.Screen,2_1_0_1_18,2021-04-24T16:06:03.672Z,,,,,,,,,,,,,,,,,53,,,,,,,,,,,,,,619.0879999911122,,response,,,,99,,,,,,,Space,keypress(Space),,,,,,,,---- -- ----- -- ------ - ------- --- ----------<br>------------- ------ ------ ---- ---- ------- ----- -- ----<br>romantic ------- -- ---------- --- - --- ----- ----- ----<br>---- --- --- ----- --- ---- ---- ------- ----- ---- -------<br>--- --- -- ----- -- --- ---- -- --- ---- -- ------ ------<br>--- ----- -- ----,186603.13499999756,186601.58999999112,185972.766,185948.07499999297,185982.502,186616.33,,18,romantic
screen,html.Screen,2_1_0_1_19,2021-04-24T16:06:04.232Z,,,,,,,,,,,,,,,,,53,,,,,,,,,,,,,,545.3599999935541,,response,,,,99,,,,,,,Space,keypress(Space),,,,,,,,---- -- ----- -- ------ - ------- --- ----------<br>------------- ------ ------ ---- ---- ------- ----- -- ----<br>-------- partner -- ---------- --- - --- ----- ----- ----<br>---- --- --- ----- --- ---- ---- ------- ----- ---- -------<br>--- --- -- ----- -- --- ---- -- --- ---- -- ------ ------<br>--- ----- -- ----,187163.36999999476,187161.68999999354,186599.622,186603.6299999978,186616.33,187166.744,,19,partner
screen,html.Screen,2_1_0_1_20,2021-04-24T16:06:04.694Z,,,,,,,,,,,,,,,,,53,,,,,,,,,,,,,,457.1759999981732,,response,,,,99,,,,,,,Space,keypress(Space),,,,,,,,---- -- ----- -- ------ - ------- --- ----------<br>------------- ------ ------ ---- ---- ------- ----- -- ----<br>-------- ------- is ---------- --- - --- ----- ----- ----<br>---- --- --- ----- --- ---- ---- ------- ----- ---- -------<br>--- --- -- ----- -- --- ---- -- --- ---- -- ------ ------<br>--- ----- -- ----,187625.63500000397,187623.91999999818,187149.983,187163.8549999916,187166.744,187633.755,,20,is
screen,html.Screen,2_1_0_1_21,2021-04-24T16:06:06.032Z,,,,,,,,,,,,,,,,,53,,,,,,,,,,,,,,1327.9950000022072,,response,,,,99,,,,,,,Space,keypress(Space),,,,,,,,---- -- ----- -- ------ - ------- --- ----------<br>------------- ------ ------ ---- ---- ------- ----- -- ----<br>-------- ------- -- paramount. --- - --- ----- ----- ----<br>---- --- --- ----- --- ---- ---- ------- ----- ---- -------<br>--- --- -- ----- -- --- ---- -- --- ---- -- ------ ------<br>--- ----- -- ----,188963.38499999547,188961.7500000022,187617.052,187626.1499999964,187633.755,188968.086,,21,paramount.
screen,html.Screen,2_1_0_1_22,2021-04-24T16:06:06.567Z,,,,,,,,,,,,,,,,,53,,,,,,,,,,,,,,528.6739999945275,,response,,,,99,,,,,,,Space,keypress(Space),,,,,,,,---- -- ----- -- ------ - ------- --- ----------<br>------------- ------ ------ ---- ---- ------- ----- -- ----<br>-------- ------- -- ---------- But - --- ----- ----- ----<br>---- --- --- ----- --- ---- ---- ------- ----- ---- -------<br>--- --- -- ----- -- --- ---- -- --- ---- -- ------ ------<br>--- ----- -- ----,189498.5000000015,189496.75999999454,188951.582,188963.87500000128,188968.086,189501.81,,22,But
screen,html.Screen,2_1_0_1_23,2021-04-24T16:06:07.016Z,,,,,,,,,,,,,,,,,53,,,,,,,,,,,,,,443.3299999961746,,response,,,,99,,,,,,,Space,keypress(Space),,,,,,,,---- -- ----- -- ------ - ------- --- ----------<br>------------- ------ ------ ---- ---- ------- ----- -- ----<br>-------- ------- -- ---------- --- a --- ----- ----- ----<br>---- --- --- ----- --- ---- ---- ------- ----- ---- -------<br>--- --- -- ----- -- --- ---- -- --- ---- -- ------ ------<br>--- ----- -- ----,189946.73499999044,189945.13999999617,189485.115,189499.04999999853,189501.81,189952.157,,23,a
screen,html.Screen,2_1_0_1_24,2021-04-24T16:06:07.423Z,,,,,,,,,,,,,,,,,53,,,,,,,,,,,,,,400.06799999508075,,response,,,,99,,,,,,,Space,keypress(Space),,,,,,,,---- -- ----- -- ------ - ------- --- ----------<br>------------- ------ ------ ---- ---- ------- ----- -- ----<br>-------- ------- -- ---------- --- - new ----- ----- ----<br>---- --- --- ----- --- ---- ---- ------- ----- ---- -------<br>--- --- -- ----- -- --- ---- -- --- ---- -- ------ ------<br>--- ----- -- ----,190353.83999999613,190352.2249999951,189935.451,189947.23999999405,189952.157,190369.183,,24,new
screen,html.Screen,2_1_0_1_25,2021-04-24T16:06:07.847Z,,,,,,,,,,,,,,,,,53,,,,,,,,,,,,,,407.77700000288314,,response,,,,99,,,,,,,Space,keypress(Space),,,,,,,,---- -- ----- -- ------ - ------- --- ----------<br>------------- ------ ------ ---- ---- ------- ----- -- ----<br>-------- ------- -- ---------- --- - --- study ----- ----<br>---- --- --- ----- --- ---- ---- ------- ----- ---- -------<br>--- --- -- ----- -- --- ---- -- --- ---- -- ------ ------<br>--- ----- -- ----,190778.63499999512,190776.96000000287,190352.433,190354.33000000194,190369.183,190786.027,,25,study
screen,html.Screen,2_1_0_1_26,2021-04-24T16:06:08.273Z,,,,,,,,,,,,,,,,,53,,,,,,,,,,,,,,416.54299999400973,,response,,,,99,,,,,,,Space,keypress(Space),,,,,,,,---- -- ----- -- ------ - ------- --- ----------<br>------------- ------ ------ ---- ---- ------- ----- -- ----<br>-------- ------- -- ---------- --- - --- ----- finds ----<br>---- --- --- ----- --- ---- ---- ------- ----- ---- -------<br>--- --- -- ----- -- --- ---- -- --- ---- -- ------ ------<br>--- ----- -- ----,191204.34999999998,191202.569999994,190769.478,190779.08500000194,190786.027,191219.937,,26,finds
screen,html.Screen,2_1_0_1_27,2021-04-24T16:06:08.743Z,,,,,,,,,,,,,,,,,53,,,,,,,,,,,,,,452.8730000036594,,response,,,,99,,,,,,,Space,keypress(Space),,,,,,,,---- -- ----- -- ------ - ------- --- ----------<br>------------- ------ ------ ---- ---- ------- ----- -- ----<br>-------- ------- -- ---------- --- - --- ----- ----- that<br>---- --- --- ----- --- ---- ---- ------- ----- ---- -------<br>--- --- -- ----- -- --- ---- -- --- ---- -- ------ ------<br>--- ----- -- ----,191674.39000000013,191672.81000000366,191203.07,191204.899999997,191219.937,191686.773,,27,that
screen,html.Screen,2_1_0_1_28,2021-04-24T16:06:09.328Z,,,,,,,,,,,,,,,,,53,,,,,,,,,,,,,,570.4119999949471,,response,,,,99,,,,,,,Space,keypress(Space),,,,,,,,---- -- ----- -- ------ - ------- --- ----------<br>------------- ------ ------ ---- ---- ------- ----- -- ----<br>-------- ------- -- ---------- --- - --- ----- ----- ----<br>it's --- --- ----- --- ---- ---- ------- ----- ---- -------<br>--- --- -- ----- -- --- ---- -- --- ---- -- ------ ------<br>--- ----- -- ----,192258.90000000072,192257.18499999493,191670.076,191674.8799999914,191686.773,192270.476,,28,it's
screen,html.Screen,2_1_0_1_29,2021-04-24T16:06:09.968Z,,,,,,,,,,,,,,,,,53,,,,,,,,,,,,,,627.4239999963029,,response,,,,99,,,,,,,Space,keypress(Space),,,,,,,,---- -- ----- -- ------ - ------- --- ----------<br>------------- ------ ------ ---- ---- ------- ----- -- ----<br>-------- ------- -- ---------- --- - --- ----- ----- ----<br>---- not --- ----- --- ---- ---- ------- ----- ---- -------<br>--- --- -- ----- -- --- ---- -- --- ---- -- ------ ------<br>--- ----- -- ----,192899.42000000156,192897.8999999963,192253.853,192259.40499998978,192270.476,192904.319,,29,not
screen,html.Screen,2_1_0_1_30,2021-04-24T16:06:10.261Z,,,,,,,,,,,,,,,,,53,,,,,,,,,,,,,,287.04099999708706,,response,,,,99,,,,,,,Space,keypress(Space),,,,,,,,---- -- ----- -- ------ - ------- --- ----------<br>------------- ------ ------ ---- ---- ------- ----- -- ----<br>-------- ------- -- ---------- --- - --- ----- ----- ----<br>---- --- how ----- --- ---- ---- ------- ----- ---- -------<br>--- --- -- ----- -- --- ---- -- --- ---- -- ------ ------<br>--- ----- -- ----,193192.06999999005,193191.35999999708,192887.625,192899.92499999062,192904.319,193204.595,,30,how
screen,html.Screen,2_1_0_1_31,2021-04-24T16:06:10.528Z,,,,,,,,,,,,,,,,,53,,,,,,,,,,,,,,252.73999999914668,,response,,,,99,,,,,,,Space,keypress(Space),,,,,,,,---- -- ----- -- ------ - ------- --- ----------<br>------------- ------ ------ ---- ---- ------- ----- -- ----<br>-------- ------- -- ---------- --- - --- ----- ----- ----<br>---- --- --- close --- ---- ---- ------- ----- ---- -------<br>--- --- -- ----- -- --- ---- -- --- ---- -- ------ ------<br>--- ----- -- ----,193459.12499999395,193457.33499999915,193187.895,193193.75999999465,193204.595,193471.544,,31,close
screen,html.Screen,2_1_0_1_32,2021-04-24T16:06:10.800Z,,,,,,,,,,,,,,,,,53,,,,,,,,,,,,,,258.5560000006808,,response,,,,99,,,,,,,Space,keypress(Space),,,,,,,,---- -- ----- -- ------ - ------- --- ----------<br>------------- ------ ------ ---- ---- ------- ----- -- ----<br>-------- ------- -- ---------- --- - --- ----- ----- ----<br>---- --- --- ----- you ---- ---- ------- ----- ---- -------<br>--- --- -- ----- -- --- ---- -- --- ---- -- ------ ------<br>--- ----- -- ----,193731.67999999714,193730.10000000068,193454.755,193459.62999999756,193471.544,193738.283,,32,you
screen,html.Screen,2_1_0_1_33,2021-04-24T16:06:11.152Z,,,,,,,,,,,,,,,,,53,,,,,,,,,,,,,,343.2319999980391,,response,,,,99,,,,,,,Space,keypress(Space),,,,,,,,---- -- ----- -- ------ - ------- --- ----------<br>------------- ------ ------ ---- ---- ------- ----- -- ----<br>-------- ------- -- ---------- --- - --- ----- ----- ----<br>---- --- --- ----- --- feel ---- ------- ----- ---- -------<br>--- --- -- ----- -- --- ---- -- --- ---- -- ------ ------<br>--- ----- -- ----,194083.09000000008,194081.51499999803,193721.628,193732.1799999918,193738.283,194088.541,,33,feel
screen,html.Screen,2_1_0_1_34,2021-04-24T16:06:11.402Z,,,,,,,,,,,,,,,,,53,,,,,,,,,,,,,,242.85400000106893,,response,,,,99,,,,,,,Space,keypress(Space),,,,,,,,---- -- ----- -- ------ - ------- --- ----------<br>------------- ------ ------ ---- ---- ------- ----- -- ----<br>-------- ------- -- ---------- --- - --- ----- ----- ----<br>---- --- --- ----- --- ---- that ------- ----- ---- -------<br>--- --- -- ----- -- --- ---- -- --- ---- -- ------ ------<br>--- ----- -- ----,194333.49999999336,194331.39500000107,194072.038,194083.5700000025,194088.541,194338.832,,34,that
screen,html.Screen,2_1_0_1_35,2021-04-24T16:06:12.064Z,,,,,,,,,,,,,,,,,53,,,,,,,,,,,,,,654.7229999936535,,response,,,,99,,,,,,,Space,keypress(Space),,,,,,,,---- -- ----- -- ------ - ------- --- ----------<br>------------- ------ ------ ---- ---- ------- ----- -- ----<br>-------- ------- -- ---------- --- - --- ----- ----- ----<br>---- --- --- ----- --- ---- ---- matters ----- ---- -------<br>--- --- -- ----- -- --- ---- -- --- ---- -- ------ ------<br>--- ----- -- ----,194995.23000000045,194993.55499999365,194322.011,194334.02999999817,194338.832,195005.973,,35,matters
screen,html.Screen,2_1_0_1_36,2021-04-24T16:06:12.672Z,,,,,,,,,,,,,,,,,53,,,,,,,,,,,,,,595.0870000008726,,response,,,,99,,,,,,,Space,keypress(Space),,,,,,,,"---- -- ----- -- ------ - ------- --- ----------<br>------------- ------ ------ ---- ---- ------- ----- -- ----<br>-------- ------- -- ---------- --- - --- ----- ----- ----<br>---- --- --- ----- --- ---- ---- ------- most, ---- -------<br>--- --- -- ----- -- --- ---- -- --- ---- -- ------ ------<br>--- ----- -- ----",195602.74999999092,195601.06000000087,194989.275,194997.080000001,195005.973,195606.388,,36,"most,"
screen,html.Screen,2_1_0_1_37,2021-04-24T16:06:13.577Z,,,,,,,,,,,,,,,,,53,,,,,,,,,,,,,,899.9369999948249,,response,,,,99,,,,,,,Space,keypress(Space),,,,,,,,---- -- ----- -- ------ - ------- --- ----------<br>------------- ------ ------ ---- ---- ------- ----- -- ----<br>-------- ------- -- ---------- --- - --- ----- ----- ----<br>---- --- --- ----- --- ---- ---- ------- ----- it's -------<br>--- --- -- ----- -- --- ---- -- --- ---- -- ------ ------<br>--- ----- -- ----,196508.1099999952,196506.32499999483,195589.683,195603.21999998996,195606.388,196523.827,,37,it's
screen,html.Screen,2_1_0_1_38,2021-04-24T16:06:13.854Z,,,,,,,,,,,,,,,,,53,,,,,,,,,,,,,,260.1879999974626,,response,,,,99,,,,,,,Space,keypress(Space),,,,,,,,---- -- ----- -- ------ - ------- --- ----------<br>------------- ------ ------ ---- ---- ------- ----- -- ----<br>-------- ------- -- ---------- --- - --- ----- ----- ----<br>---- --- --- ----- --- ---- ---- ------- ----- ---- whether<br>--- --- -- ----- -- --- ---- -- --- ---- -- ------ ------<br>--- ----- -- ----,196785.68000000087,196784.01499999745,196506.973,196508.64499999443,196523.827,196790.675,,38,whether
screen,html.Screen,2_1_0_1_39,2021-04-24T16:06:16.314Z,,,,,,,,,,,,,,,,,53,,,,,,,,,,,,,,2452.8249999968684,,response,,,,99,,,,,,,Space,keypress(Space),,,,,,,,---- -- ----- -- ------ - ------- --- ----------<br>------------- ------ ------ ---- ---- ------- ----- -- ----<br>-------- ------- -- ---------- --- - --- ----- ----- ----<br>---- --- --- ----- --- ---- ---- ------- ----- ---- -------<br>you --- -- ----- -- --- ---- -- --- ---- -- ------ ------<br>--- ----- -- ----,199245.16500000027,199243.49999999686,196774.063,196786.15499999432,196790.675,199259.245,,39,you
screen,html.Screen,2_1_0_1_40,2021-04-24T16:06:16.855Z,,,,,,,,,,,,,,,,,53,,,,,,,,,,,,,,525.8350000014761,,response,,,,99,,,,,,,Space,keypress(Space),,,,,,,,---- -- ----- -- ------ - ------- --- ----------<br>------------- ------ ------ ---- ---- ------- ----- -- ----<br>-------- ------- -- ---------- --- - --- ----- ----- ----<br>---- --- --- ----- --- ---- ---- ------- ----- ---- -------<br>--- are -- ----- -- --- ---- -- --- ---- -- ------ ------<br>--- ----- -- ----,199786.57999999996,199785.08000000147,199242.388,199245.6499999971,199259.245,199792.867,,40,are
screen,html.Screen,2_1_0_1_41,2021-04-24T16:06:17.175Z,,,,,,,,,,,,,,,,,53,,,,,,,,,,,,,,311.93799999539624,,response,,,,99,,,,,,,Space,keypress(Space),,,,,,,,---- -- ----- -- ------ - ------- --- ----------<br>------------- ------ ------ ---- ---- ------- ----- -- ----<br>-------- ------- -- ---------- --- - --- ----- ----- ----<br>---- --- --- ----- --- ---- ---- ------- ----- ---- -------<br>--- --- as ----- -- --- ---- -- --- ---- -- ------ ------<br>--- ----- -- ----,200106.31499999727,200104.8049999954,199776.15,199787.05499999342,199792.867,200109.759,,41,as
screen,html.Screen,2_1_0_1_42,2021-04-24T16:06:17.512Z,,,,,,,,,,,,,,,,,53,,,,,,,,,,,,,,331.4859999945329,,response,,,,99,,,,,,,Space,keypress(Space),,,,,,,,---- -- ----- -- ------ - ------- --- ----------<br>------------- ------ ------ ---- ---- ------- ----- -- ----<br>-------- ------- -- ---------- --- - --- ----- ----- ----<br>---- --- --- ----- --- ---- ---- ------- ----- ---- -------<br>--- --- -- close -- --- ---- -- --- ---- -- ------ ------<br>--- ----- -- ----,200443.0549999961,200441.24499999452,200093.09,200106.8099999975,200109.759,200460.175,,42,close
screen,html.Screen,2_1_0_1_43,2021-04-24T16:06:17.839Z,,,,,,,,,,,,,,,,,53,,,,,,,,,,,,,,308.74500000226544,,response,,,,99,,,,,,,Space,keypress(Space),,,,,,,,---- -- ----- -- ------ - ------- --- ----------<br>------------- ------ ------ ---- ---- ------- ----- -- ----<br>-------- ------- -- ---------- --- - --- ----- ----- ----<br>---- --- --- ----- --- ---- ---- ------- ----- ---- -------<br>--- --- -- ----- as --- ---- -- --- ---- -- ------ ------<br>--- ----- -- ----,200770.66999999806,200768.92000000225,200443.474,200443.69000000006,200460.175,200776.921,,43,as
screen,html.Screen,2_1_0_1_44,2021-04-24T16:06:18.207Z,,,,,,,,,,,,,,,,,53,,,,,,,,,,,,,,359.30900000370457,,response,,,,99,,,,,,,Space,keypress(Space),,,,,,,,---- -- ----- -- ------ - ------- --- ----------<br>------------- ------ ------ ---- ---- ------- ----- -- ----<br>-------- ------- -- ---------- --- - --- ----- ----- ----<br>---- --- --- ----- --- ---- ---- ------- ----- ---- -------<br>--- --- -- ----- -- you ---- -- --- ---- -- ------ ------<br>--- ----- -- ----,201137.7649999922,201136.2300000037,200760.222,200771.1399999971,200776.921,201143.856,,44,you
screen,html.Screen,2_1_0_1_45,2021-04-24T16:06:20.531Z,,,,,,,,,,,,,,,,,53,,,,,,,,,,,,,,2313.189000002836,,response,,,,99,,,,,,,Space,keypress(Space),,,,,,,,---- -- ----- -- ------ - ------- --- ----------<br>------------- ------ ------ ---- ---- ------- ----- -- ----<br>-------- ------- -- ---------- --- - --- ----- ----- ----<br>---- --- --- ----- --- ---- ---- ------- ----- ---- -------<br>--- --- -- ----- -- --- want -- --- ---- -- ------ ------<br>--- ----- -- ----,203462.4899999908,203457.04500000284,201127.163,201138.22999999684,201143.856,203478.881,,45,want
screen,html.Screen,2_1_0_1_46,2021-04-24T16:06:20.936Z,,,,,,,,,,,,,,,,,53,,,,,,,,,,,,,,386.3690000025672,,response,,,,99,,,,,,,Space,keypress(Space),,,,,,,,---- -- ----- -- ------ - ------- --- ----------<br>------------- ------ ------ ---- ---- ------- ----- -- ----<br>-------- ------- -- ---------- --- - --- ----- ----- ----<br>---- --- --- ----- --- ---- ---- ------- ----- ---- -------<br>--- --- -- ----- -- --- ---- to --- ---- -- ------ ------<br>--- ----- -- ----,203866.79499999445,203865.25000000256,203462.226,203463.0749999924,203478.881,203879.184,,46,to
screen,html.Screen,2_1_0_1_47,2021-04-24T16:06:21.337Z,,,,,,,,,,,,,,,,,53,,,,,,,,,,,,,,387.69100000115577,,response,,,,99,,,,,,,Space,keypress(Space),,,,,,,,"---- -- ----- -- ------ - ------- --- ----------<br>------------- ------ ------ ---- ---- ------- ----- -- ----<br>-------- ------- -- ---------- --- - --- ----- ----- ----<br>---- --- --- ----- --- ---- ---- ------- ----- ---- -------<br>--- --- -- ----- -- --- ---- -- be, ---- -- ------ ------<br>--- ----- -- ----",204268.41999999306,204266.87500000116,203862.517,203867.29999999807,203879.184,204279.476,,47,"be,"
screen,html.Screen,2_1_0_1_48,2021-04-24T16:06:21.817Z,,,,,,,,,,,,,,,,,53,,,,,,,,,,,,,,466.7639999931271,,response,,,,99,,,,,,,Space,keypress(Space),,,,,,,,---- -- ----- -- ------ - ------- --- ----------<br>------------- ------ ------ ---- ---- ------- ----- -- ----<br>-------- ------- -- ---------- --- - --- ----- ----- ----<br>---- --- --- ----- --- ---- ---- ------- ----- ---- -------<br>--- --- -- ----- -- --- ---- -- --- even -- ------ ------<br>--- ----- -- ----,204747.93499999214,204746.23999999312,204262.886,204268.86999999988,204279.476,204763.251,,48,even
screen,html.Screen,2_1_0_1_49,2021-04-24T16:06:23.304Z,,,,,,,,,,,,,,,,,53,,,,,,,,,,,,,,1470.5340000040014,,response,,,,99,,,,,,,Space,keypress(Space),,,,,,,,---- -- ----- -- ------ - ------- --- ----------<br>------------- ------ ------ ---- ---- ------- ----- -- ----<br>-------- ------- -- ---------- --- - --- ----- ----- ----<br>---- --- --- ----- --- ---- ---- ------- ----- ---- -------<br>--- --- -- ----- -- --- ---- -- --- ---- if ------ ------<br>--- ----- -- ----,206235.40499999945,206233.785000004,204746.504,204748.39500000235,204763.251,206247.687,,49,if
screen,html.Screen,2_1_0_1_50,2021-04-24T16:06:24.032Z,,,,,,,,,,,,,,,,,53,,,,,,,,,,,,,,714.0179999942484,,response,,,,99,,,,,,,Space,keypress(Space),,,,,,,,---- -- ----- -- ------ - ------- --- ----------<br>------------- ------ ------ ---- ---- ------- ----- -- ----<br>-------- ------- -- ---------- --- - --- ----- ----- ----<br>---- --- --- ----- --- ---- ---- ------- ----- ---- -------<br>--- --- -- ----- -- --- ---- -- --- ---- -- that's ------<br>--- ----- -- ----,206963.2899999997,206961.70499999425,206231.01,206235.91000000306,206247.687,206998.201,,50,that's
screen,html.Screen,2_1_0_1_51,2021-04-24T16:06:24.832Z,,,,,,,,,,,,,,,,,53,,,,,,,,,,,,,,763.088999994914,,response,,,,99,,,,,,,Space,keypress(Space),,,,,,,,---- -- ----- -- ------ - ------- --- ----------<br>------------- ------ ------ ---- ---- ------- ----- -- ----<br>-------- ------- -- ---------- --- - --- ----- ----- ----<br>---- --- --- ----- --- ---- ---- ------- ----- ---- -------<br>--- --- -- ----- -- --- ---- -- --- ---- -- ------ really<br>--- ----- -- ----,207762.9500000039,207761.28999999491,206993.509,206963.74500000093,206998.201,207765.483,,51,really
screen,html.Screen,2_1_0_1_52,2021-04-24T16:06:25.386Z,,,,,,,,,,,,,,,,,53,,,,,,,,,,,,,,549.756999996258,,response,,,,99,,,,,,,Space,keypress(Space),,,,,,,,---- -- ----- -- ------ - ------- --- ----------<br>------------- ------ ------ ---- ---- ------- ----- -- ----<br>-------- ------- -- ---------- --- - --- ----- ----- ----<br>---- --- --- ----- --- ---- ---- ------- ----- ---- -------<br>--- --- -- ----- -- --- ---- -- --- ---- -- ------ ------<br>not ----- -- ----,208317.21500000276,208315.23999999627,207748.786,207763.39500000176,207765.483,208332.504,,52,not
screen,html.Screen,2_1_0_1_53,2021-04-24T16:06:25.880Z,,,,,,,,,,,,,,,,,53,,,,,,,,,,,,,,477.0110000008426,,response,,,,99,,,,,,,Space,keypress(Space),,,,,,,,---- -- ----- -- ------ - ------- --- ----------<br>------------- ------ ------ ---- ---- ------- ----- -- ----<br>-------- ------- -- ---------- --- - --- ----- ----- ----<br>---- --- --- ----- --- ---- ---- ------- ----- ---- -------<br>--- --- -- ----- -- --- ---- -- --- ---- -- ------ ------<br>--- close -- ----,208811.23999999545,208809.51500000083,208315.785,208317.66499999503,208332.504,208816.233,,53,close
screen,html.Screen,2_1_0_1_54,2021-04-24T16:06:26.463Z,,,,,,,,,,,,,,,,,53,,,,,,,,,,,,,,576.5420000002487,,response,,,,99,,,,,,,Space,keypress(Space),,,,,,,,---- -- ----- -- ------ - ------- --- ----------<br>------------- ------ ------ ---- ---- ------- ----- -- ----<br>-------- ------- -- ---------- --- - --- ----- ----- ----<br>---- --- --- ----- --- ---- ---- ------- ----- ---- -------<br>--- --- -- ----- -- --- ---- -- --- ---- -- ------ ------<br>--- ----- at ----,209394.26499999536,209392.77500000026,208799.514,208811.6849999933,208816.233,209400.022,,54,at
screen,html.Screen,2_1_0_1_55,2021-04-24T16:06:27.200Z,,,,,,,,,,,,,,,,,53,,,,,,,,,,,,,,729.2579999937443,,response,,,,99,,,,,,,Space,keypress(Space),,,,,,,,---- -- ----- -- ------ - ------- --- ----------<br>------------- ------ ------ ---- ---- ------- ----- -- ----<br>-------- ------- -- ---------- --- - --- ----- ----- ----<br>---- --- --- ----- --- ---- ---- ------- ----- ---- -------<br>--- --- -- ----- -- --- ---- -- --- ---- -- ------ ------<br>--- ----- -- all.,210130.95500000054,210129.27999999374,209383.343,209394.76999999897,209400.022,210163.577,,55,all.
Item 99,flow.Loop,2_1_0_1,2021-04-24T16:06:27.201Z,,,,,,,,,,,,,,,,,,,,,,,,,,,,,,,37940.458999993745,,completion,,,,,D,,,,,,,,,,,silence,,,,,210131.85999999405,210129.27999999374,172172.168,172173.0349999998,172188.821,210163.577,,,
Question 1,html.Screen,2_1_0_2,2021-04-24T16:06:45.678Z,,,,,,,,,,,,,,,,,,,,,,,,,,,,true,FALSE,,18443.65800000314,,response,,,,99,D,,,,,,FALSE,click #choice-2,,,,silence,,,,,228609.1999999917,228607.23500000313,210117.205,210132.29999999749,210163.577,228614.325,,,
Question 2,html.Screen,2_1_0_3,2021-04-24T16:06:53.500Z,,,,,,,,,,,,,,,,,,,,,,,,,,,,true,TRUE,,7814.195000001288,,response,,,,99,D,,,,,,TRUE,click #choice-1,,,,silence,,,,,236431.1149999994,236428.5200000013,228597.725,228609.414999999,228614.325,236436.985,,,
Item 99,flow.Sequence,2_1_0,2021-04-24T16:06:53.501Z,,,,,,,,,,,,,,,,,,,,,,,,,,,,,,,74247.0990000013,,completion,,,,,,,,,,,,,,,,,,,,,236431.84999999357,236428.5200000013,162164.671,162178.47499999334,162181.421,236436.985,,,
Holding screen,html.Screen,2_1_1_0,2021-04-24T16:07:03.498Z,,,,,,,,,,,,,,,,,,,,,,,,,,,,,,,10007.393000000011,,timeout,,,,,,,,,,,,,,,,,,,,,246429.4050000026,246427.897,236420.25,236432.39499999618,236436.985,246444.378,,,
screen,html.Screen,2_1_1_1_0,2021-04-24T16:07:04.778Z,,,,,,,,,,,,,,,,,54,,,,,,,,,,,,,,1262.6769999916723,,response,,,,100,,,,,,,Space,keypress(Space),,,,,,,,At --- ---- --- ------ ----- ------- ---- -- --- ------- --<br>------- ---------- ------ -- ----- -- ----- -- ---- ------<br>--- ----- --- --- ------ -------- ----- --- ------ ----- --<br>----- ----- ---------- --- --- ------ ------ ---- -- ------<br>------- --- ------ ----- --- ---- ------- -- ---- --- --<br>------- ------,247709.2100000009,247707.05499999167,246427.897,246430.039999992,246444.378,247712.071,,0,At
screen,html.Screen,2_1_1_1_1,2021-04-24T16:07:05.177Z,,,,,,,,,,,,,,,,,54,,,,,,,,,,,,,,394.3589999998221,,response,,,,100,,,,,,,Space,keypress(Space),,,,,,,,-- the ---- --- ------ ----- ------- ---- -- --- ------- --<br>------- ---------- ------ -- ----- -- ----- -- ---- ------<br>--- ----- --- --- ------ -------- ----- --- ------ ----- --<br>----- ----- ---------- --- --- ------ ------ ---- -- ------<br>------- --- ------ ----- --- ---- ------- -- ---- --- --<br>------- ------,248107.91999999492,248106.42999999982,247695.34,247709.66999999655,247712.071,248112.251,,1,the
screen,html.Screen,2_1_1_1_2,2021-04-24T16:07:05.576Z,,,,,,,,,,,,,,,,,54,,,,,,,,,,,,,,394.0040000002482,,response,,,,100,,,,,,,Space,keypress(Space),,,,,,,,-- --- time --- ------ ----- ------- ---- -- --- ------- --<br>------- ---------- ------ -- ----- -- ----- -- ---- ------<br>--- ----- --- --- ------ -------- ----- --- ------ ----- --<br>----- ----- ---------- --- --- ------ ------ ---- -- ------<br>------- --- ------ ----- --- ---- ------- -- ---- --- --<br>------- ------,248507.76999999653,248506.25500000024,248095.652,248108.38499999954,248112.251,248512.671,,2,time
screen,html.Screen,2_1_1_1_3,2021-04-24T16:07:05.976Z,,,,,,,,,,,,,,,,,54,,,,,,,,,,,,,,393.56899999661255,,response,,,,100,,,,,,,Space,keypress(Space),,,,,,,,-- --- ---- the ------ ----- ------- ---- -- --- ------- --<br>------- ---------- ------ -- ----- -- ----- -- ---- ------<br>--- ----- --- --- ------ -------- ----- --- ------ ----- --<br>----- ----- ---------- --- --- ------ ------ ---- -- ------<br>------- --- ------ ----- --- ---- ------- -- ---- --- --<br>------- ------,248907.7249999973,248906.23999999661,248495.963,248508.22999999218,248512.671,248912.967,,3,the
screen,html.Screen,2_1_1_1_4,2021-04-24T16:07:06.441Z,,,,,,,,,,,,,,,,,54,,,,,,,,,,,,,,457.74300000286894,,response,,,,100,,,,,,,Space,keypress(Space),,,,,,,,-- --- ---- --- French ----- ------- ---- -- --- ------- --<br>------- ---------- ------ -- ----- -- ----- -- ---- ------<br>--- ----- --- --- ------ -------- ----- --- ------ ----- --<br>----- ----- ---------- --- --- ------ ------ ---- -- ------<br>------- --- ------ ----- --- ---- ------- -- ---- --- --<br>------- ------,249372.3900000041,249370.71000000287,248896.282,248908.18499999295,248912.967,249379.967,,4,French
screen,html.Screen,2_1_1_1_5,2021-04-24T16:07:06.872Z,,,,,,,,,,,,,,,,,54,,,,,,,,,,,,,,422.02800000162097,,response,,,,100,,,,,,,Space,keypress(Space),,,,,,,,-- --- ---- --- ------ crown ------- ---- -- --- ------- --<br>------- ---------- ------ -- ----- -- ----- -- ---- ------<br>--- ----- --- --- ------ -------- ----- --- ------ ----- --<br>----- ----- ---------- --- --- ------ ------ ---- -- ------<br>------- --- ------ ----- --- ---- ------- -- ---- --- --<br>------- ------,249803.44999999215,249801.99500000163,249363.384,249372.86000000313,249379.967,249813.612,,5,crown
screen,html.Screen,2_1_1_1_6,2021-04-24T16:07:07.267Z,,,,,,,,,,,,,,,,,54,,,,,,,,,,,,,,383.26800000315416,,response,,,,100,,,,,,,Space,keypress(Space),,,,,,,,-- --- ---- --- ------ ----- secured ---- -- --- ------- --<br>------- ---------- ------ -- ----- -- ----- -- ---- ------<br>--- ----- --- --- ------ -------- ----- --- ------ ----- --<br>----- ----- ---------- --- --- ------ ------ ---- -- ------<br>------- --- ------ ----- --- ---- ------- -- ---- --- --<br>------- ------,250198.5249999998,250196.88000000315,249796.927,249803.9049999934,249813.612,250213.818,,6,secured
screen,html.Screen,2_1_1_1_7,2021-04-24T16:07:07.714Z,,,,,,,,,,,,,,,,,54,,,,,,,,,,,,,,430.3469999906083,,response,,,,100,,,,,,,Space,keypress(Space),,,,,,,,-- --- ---- --- ------ ----- ------- much -- --- ------- --<br>------- ---------- ------ -- ----- -- ----- -- ---- ------<br>--- ----- --- --- ------ -------- ----- --- ------ ----- --<br>----- ----- ---------- --- --- ------ ------ ---- -- ------<br>------- --- ------ ----- --- ---- ------- -- ---- --- --<br>------- ------,250645.73999999266,250644.1649999906,250197.223,250198.97499999206,250213.818,250666.292,,7,much
screen,html.Screen,2_1_1_1_8,2021-04-24T16:07:08.184Z,,,,,,,,,,,,,,,,,54,,,,,,,,,,,,,,447.6280000034312,,response,,,,100,,,,,,,Space,keypress(Space),,,,,,,,-- --- ---- --- ------ ----- ------- ---- of --- ------- --<br>------- ---------- ------ -- ----- -- ----- -- ---- ------<br>--- ----- --- --- ------ -------- ----- --- ------ ----- --<br>----- ----- ---------- --- --- ------ ------ ---- -- ------<br>------- --- ------ ----- --- ---- ------- -- ---- --- --<br>------- ------,251115.64000000362,251113.92000000342,250630.786,250646.1799999961,250666.292,251131.446,,8,of
screen,html.Screen,2_1_1_1_9,2021-04-24T16:07:08.488Z,,,,,,,,,,,,,,,,,54,,,,,,,,,,,,,,286.38399999123067,,response,,,,100,,,,,,,Space,keypress(Space),,,,,,,,-- --- ---- --- ------ ----- ------- ---- -- its ------- --<br>------- ---------- ------ -- ----- -- ----- -- ---- ------<br>--- ----- --- --- ------ -------- ----- --- ------ ----- --<br>----- ----- ---------- --- --- ------ ------ ---- -- ------<br>------- --- ------ ----- --- ---- ------- -- ---- --- --<br>------- ------,251419.45000000123,251417.82999999123,251114.766,251116.1049999937,251131.446,251431.522,,9,its
screen,html.Screen,2_1_1_1_10,2021-04-24T16:07:08.938Z,,,,,,,,,,,,,,,,,54,,,,,,,,,,,,,,435.74800000246614,,response,,,,100,,,,,,,Space,keypress(Space),,,,,,,,-- --- ---- --- ------ ----- ------- ---- -- --- revenue --<br>------- ---------- ------ -- ----- -- ----- -- ---- ------<br>--- ----- --- --- ------ -------- ----- --- ------ ----- --<br>----- ----- ---------- --- --- ------ ------ ---- -- ------<br>------- --- ------ ----- --- ---- ------- -- ---- --- --<br>------- ------,251868.78499999875,251867.27000000246,251414.815,251419.9549999903,251431.522,251881.947,,10,revenue
screen,html.Screen,2_1_1_1_11,2021-04-24T16:07:09.329Z,,,,,,,,,,,,,,,,,54,,,,,,,,,,,,,,376.45800000050804,,response,,,,100,,,,,,,Space,keypress(Space),,,,,,,,-- --- ---- --- ------ ----- ------- ---- -- --- ------- by<br>------- ---------- ------ -- ----- -- ----- -- ---- ------<br>--- ----- --- --- ------ -------- ----- --- ------ ----- --<br>----- ----- ---------- --- --- ------ ------ ---- -- ------<br>------- --- ------ ----- --- ---- ------- -- ---- --- --<br>------- ------,252259.98999999138,252258.4050000005,251865.108,251869.23499999102,251881.947,252265.463,,11,by
screen,html.Screen,2_1_1_1_12,2021-04-24T16:07:09.801Z,,,,,,,,,,,,,,,,,54,,,,,,,,,,,,,,465.4719999996014,,response,,,,100,,,,,,,Space,keypress(Space),,,,,,,,-- --- ---- --- ------ ----- ------- ---- -- --- ------- --<br>issuing ---------- ------ -- ----- -- ----- -- ---- ------<br>--- ----- --- --- ------ -------- ----- --- ------ ----- --<br>----- ----- ---------- --- --- ------ ------ ---- -- ------<br>------- --- ------ ----- --- ---- ------- -- ---- --- --<br>------- ------,252732.51999999047,252730.9349999996,252248.755,252260.4399999982,252265.463,252749.225,,12,issuing
screen,html.Screen,2_1_1_1_13,2021-04-24T16:07:10.160Z,,,,,,,,,,,,,,,,,54,,,,,,,,,,,,,,340.3249999896798,,response,,,,100,,,,,,,Space,keypress(Space),,,,,,,,-- --- ---- --- ------ ----- ------- ---- -- --- ------- --<br>------- government ------ -- ----- -- ----- -- ---- ------<br>--- ----- --- --- ------ -------- ----- --- ------ ----- --<br>----- ----- ---------- --- --- ------ ------ ---- -- ------<br>------- --- ------ ----- --- ---- ------- -- ---- --- --<br>------- ------,253091.24500000325,253089.5499999897,252732.5,252732.9849999951,252749.225,253099.432,,13,government
screen,html.Screen,2_1_1_1_14,2021-04-24T16:07:10.473Z,,,,,,,,,,,,,,,,,54,,,,,,,,,,,,,,302.872999995976,,response,,,,100,,,,,,,Space,keypress(Space),,,,,,,,-- --- ---- --- ------ ----- ------- ---- -- --- ------- --<br>------- ---------- bonds. -- ----- -- ----- -- ---- ------<br>--- ----- --- --- ------ -------- ----- --- ------ ----- --<br>----- ----- ---------- --- --- ------ ------ ---- -- ------<br>------- --- ------ ----- --- ---- ------- -- ---- --- --<br>------- ------,253403.85499999684,253402.30499999598,253082.759,253091.69999998994,253099.432,253416.379,,14,bonds.
screen,html.Screen,2_1_1_1_15,2021-04-24T16:07:11.402Z,,,,,,,,,,,,,,,,,54,,,,,,,,,,,,,,914.8060000027472,,response,,,,100,,,,,,,Space,keypress(Space),,,,,,,,-- --- ---- --- ------ ----- ------- ---- -- --- ------- --<br>------- ---------- ------ In ----- -- ----- -- ---- ------<br>--- ----- --- --- ------ -------- ----- --- ------ ----- --<br>----- ----- ---------- --- --- ------ ------ ---- -- ------<br>------- --- ------ ----- --- ---- ------- -- ---- --- --<br>------- ------,254332.779999997,254331.18500000273,253399.622,253404.32000000146,253416.379,254350.318,,15,In
screen,html.Screen,2_1_1_1_16,2021-04-24T16:07:11.976Z,,,,,,,,,,,,,,,,,54,,,,,,,,,,,,,,555.3619999962102,,response,,,,100,,,,,,,Space,keypress(Space),,,,,,,,"-- --- ---- --- ------ ----- ------- ---- -- --- ------- --<br>------- ---------- ------ -- 1727, -- ----- -- ---- ------<br>--- ----- --- --- ------ -------- ----- --- ------ ----- --<br>----- ----- ---------- --- --- ------ ------ ---- -- ------<br>------- --- ------ ----- --- ---- ------- -- ---- --- --<br>------- ------",254907.32499999285,254905.6799999962,254333.654,254333.3549999952,254350.318,254917.445,,16,"1727,"
screen,html.Screen,2_1_1_1_17,2021-04-24T16:07:12.352Z,,,,,,,,,,,,,,,,,54,,,,,,,,,,,,,,364.66500000009546,,response,,,,100,,,,,,,Space,keypress(Space),,,,,,,,-- --- ---- --- ------ ----- ------- ---- -- --- ------- --<br>------- ---------- ------ -- ----- in ----- -- ---- ------<br>--- ----- --- --- ------ -------- ----- --- ------ ----- --<br>----- ----- ---------- --- --- ------ ------ ---- -- ------<br>------- --- ------ ----- --- ---- ------- -- ---- --- --<br>------- ------,255283.6299999908,255282.1100000001,254900.688,254907.80000000086,254917.445,255301.24,,17,in
screen,html.Screen,2_1_1_1_18,2021-04-24T16:07:12.682Z,,,,,,,,,,,,,,,,,54,,,,,,,,,,,,,,310.1899999899324,,response,,,,100,,,,,,,Space,keypress(Space),,,,,,,,-- --- ---- --- ------ ----- ------- ---- -- --- ------- --<br>------- ---------- ------ -- ----- -- order -- ---- ------<br>--- ----- --- --- ------ -------- ----- --- ------ ----- --<br>----- ----- ---------- --- --- ------ ------ ---- -- ------<br>------- --- ------ ----- --- ---- ------- -- ---- --- --<br>------- ------,255612.98499999975,255611.42999998992,255284.273,255284.10499999882,255301.24,255618.008,,18,order
screen,html.Screen,2_1_1_1_19,2021-04-24T16:07:13.297Z,,,,,,,,,,,,,,,,,54,,,,,,,,,,,,,,608.391999999556,,response,,,,100,,,,,,,Space,keypress(Space),,,,,,,,-- --- ---- --- ------ ----- ------- ---- -- --- ------- --<br>------- ---------- ------ -- ----- -- ----- to ---- ------<br>--- ----- --- --- ------ -------- ----- --- ------ ----- --<br>----- ----- ---------- --- --- ------ ------ ---- -- ------<br>------- --- ------ ----- --- ---- ------- -- ---- --- --<br>------- ------,256228.00999999163,256226.39999999956,255601.265,255613.4250000032,255618.008,256235.089,,19,to
screen,html.Screen,2_1_1_1_20,2021-04-24T16:07:13.626Z,,,,,,,,,,,,,,,,,54,,,,,,,,,,,,,,320.07100000351784,,response,,,,100,,,,,,,Space,keypress(Space),,,,,,,,-- --- ---- --- ------ ----- ------- ---- -- --- ------- --<br>------- ---------- ------ -- ----- -- ----- -- save ------<br>--- ----- --- --- ------ -------- ----- --- ------ ----- --<br>----- ----- ---------- --- --- ------ ------ ---- -- ------<br>------- --- ------ ----- --- ---- ------- -- ---- --- --<br>------- ------,256556.8249999924,256555.16000000353,256218.415,256228.47000000183,256235.089,256568.559,,20,save
screen,html.Screen,2_1_1_1_21,2021-04-24T16:07:13.941Z,,,,,,,,,,,,,,,,,54,,,,,,,,,,,,,,303.4410000030184,,response,,,,100,,,,,,,Space,keypress(Space),,,,,,,,"-- --- ---- --- ------ ----- ------- ---- -- --- ------- --<br>------- ---------- ------ -- ----- -- ----- -- ---- money,<br>--- ----- --- --- ------ -------- ----- --- ------ ----- --<br>----- ----- ---------- --- --- ------ ------ ---- -- ------<br>------- --- ------ ----- --- ---- ------- -- ---- --- --<br>------- ------",256872.6900000038,256872.00000000303,256552.161,256557.3000000004,256568.559,256885.579,,21,"money,"
screen,html.Screen,2_1_1_1_22,2021-04-24T16:07:14.399Z,,,,,,,,,,,,,,,,,54,,,,,,,,,,,,,,443.57599999944796,,response,,,,100,,,,,,,Space,keypress(Space),,,,,,,,-- --- ---- --- ------ ----- ------- ---- -- --- ------- --<br>------- ---------- ------ -- ----- -- ----- -- ---- ------<br>the ----- --- --- ------ -------- ----- --- ------ ----- --<br>----- ----- ---------- --- --- ------ ------ ---- -- ------<br>------- --- ------ ----- --- ---- ------- -- ---- --- --<br>------- ------,257330.5149999942,257329.15499999945,256868.889,256872.89499999315,256885.579,257335.934,,22,the
screen,html.Screen,2_1_1_1_23,2021-04-24T16:07:14.773Z,,,,,,,,,,,,,,,,,54,,,,,,,,,,,,,,366.75099999655504,,response,,,,100,,,,,,,Space,keypress(Space),,,,,,,,-- --- ---- --- ------ ----- ------- ---- -- --- ------- --<br>------- ---------- ------ -- ----- -- ----- -- ---- ------<br>--- state --- --- ------ -------- ----- --- ------ ----- --<br>----- ----- ---------- --- --- ------ ------ ---- -- ------<br>------- --- ------ ----- --- ---- ------- -- ---- --- --<br>------- ------,257704.2450000008,257702.68499999656,257319.224,257331.0899999924,257335.934,257719.84,,23,state
screen,html.Screen,2_1_1_1_24,2021-04-24T16:07:15.138Z,,,,,,,,,,,,,,,,,54,,,,,,,,,,,,,,348.92500000362634,,response,,,,100,,,,,,,Space,keypress(Space),,,,,,,,-- --- ---- --- ------ ----- ------- ---- -- --- ------- --<br>------- ---------- ------ -- ----- -- ----- -- ---- ------<br>--- ----- cut --- ------ -------- ----- --- ------ ----- --<br>----- ----- ---------- --- --- ------ ------ ---- -- ------<br>------- --- ------ ----- --- ---- ------- -- ---- --- --<br>------- ------,258069.7199999995,258068.76500000362,257702.881,257704.73499999207,257719.84,258086.434,,24,cut
screen,html.Screen,2_1_1_1_25,2021-04-24T16:07:15.553Z,,,,,,,,,,,,,,,,,54,,,,,,,,,,,,,,396.5710000018589,,response,,,,100,,,,,,,Space,keypress(Space),,,,,,,,-- --- ---- --- ------ ----- ------- ---- -- --- ------- --<br>------- ---------- ------ -- ----- -- ----- -- ---- ------<br>--- ----- --- the ------ -------- ----- --- ------ ----- --<br>----- ----- ---------- --- --- ------ ------ ---- -- ------<br>------- --- ------ ----- --- ---- ------- -- ---- --- --<br>------- ------,258484.68500000308,258483.00500000187,258069.821,258069.91500000004,258086.434,258515.773,,25,the
screen,html.Screen,2_1_1_1_26,2021-04-24T16:07:17.105Z,,,,,,,,,,,,,,,,,54,,,,,,,,,,,,,,1519.051999995194,,response,,,,100,,,,,,,Space,keypress(Space),,,,,,,,-- --- ---- --- ------ ----- ------- ---- -- --- ------- --<br>------- ---------- ------ -- ----- -- ----- -- ---- ------<br>--- ----- --- --- bonds' -------- ----- --- ------ ----- --<br>----- ----- ---------- --- --- ------ ------ ---- -- ------<br>------- --- ------ ----- --- ---- ------- -- ---- --- --<br>------- ------,260036.34999999485,260034.82499999518,258470.016,258485.14999999315,258515.773,260071.297,,26,bonds'
screen,html.Screen,2_1_1_1_27,2021-04-24T16:07:17.593Z,,,,,,,,,,,,,,,,,54,,,,,,,,,,,,,,451.32300000338,,response,,,,100,,,,,,,Space,keypress(Space),,,,,,,,-- --- ---- --- ------ ----- ------- ---- -- --- ------- --<br>------- ---------- ------ -- ----- -- ----- -- ---- ------<br>--- ----- --- --- ------ interest ----- --- ------ ----- --<br>----- ----- ---------- --- --- ------ ------ ---- -- ------<br>------- --- ------ ----- --- ---- ------- -- ---- --- --<br>------- ------,260524.29999999003,260522.62000000337,260061.32,260036.82999999728,260071.297,260538.536,,27,interest
screen,html.Screen,2_1_1_1_28,2021-04-24T16:07:18.025Z,,,,,,,,,,,,,,,,,54,,,,,,,,,,,,,,416.0090000005148,,response,,,,100,,,,,,,Space,keypress(Space),,,,,,,,-- --- ---- --- ------ ----- ------- ---- -- --- ------- --<br>------- ---------- ------ -- ----- -- ----- -- ---- ------<br>--- ----- --- --- ------ -------- rate. --- ------ ----- --<br>----- ----- ---------- --- --- ------ ------ ---- -- ------<br>------- --- ------ ----- --- ---- ------- -- ---- --- --<br>------- ------,260956.38000000326,260954.5450000005,260521.619,260524.76000000024,260538.536,260972.096,,28,rate.
screen,html.Screen,2_1_1_1_29,2021-04-24T16:07:24.969Z,,,,,,,,,,,,,,,,,54,,,,,,,,,,,,,,6926.804000000149,,response,,,,100,,,,,,,Space,keypress(Space),,,,,,,,-- --- ---- --- ------ ----- ------- ---- -- --- ------- --<br>------- ---------- ------ -- ----- -- ----- -- ---- ------<br>--- ----- --- --- ------ -------- ----- The ------ ----- --<br>----- ----- ---------- --- --- ------ ------ ---- -- ------<br>------- --- ------ ----- --- ---- ------- -- ---- --- --<br>------- ------,267900.4249999998,267898.90000000014,260955.434,260956.82999999553,260972.096,267910.403,,29,The
screen,html.Screen,2_1_1_1_30,2021-04-24T16:07:25.475Z,,,,,,,,,,,,,,,,,54,,,,,,,,,,,,,,493.83199999452336,,response,,,,100,,,,,,,Space,keypress(Space),,,,,,,,-- --- ---- --- ------ ----- ------- ---- -- --- ------- --<br>------- ---------- ------ -- ----- -- ----- -- ---- ------<br>--- ----- --- --- ------ -------- ----- --- market ----- --<br>----- ----- ---------- --- --- ------ ------ ---- -- ------<br>------- --- ------ ----- --- ---- ------- -- ---- --- --<br>------- ------,268405.8950000035,268404.2349999945,267893.733,267900.8899999899,267910.403,268410.913,,30,market
screen,html.Screen,2_1_1_1_31,2021-04-24T16:07:25.785Z,,,,,,,,,,,,,,,,,54,,,,,,,,,,,,,,303.7269999910495,,response,,,,100,,,,,,,Space,keypress(Space),,,,,,,,-- --- ---- --- ------ ----- ------- ---- -- --- ------- --<br>------- ---------- ------ -- ----- -- ----- -- ---- ------<br>--- ----- --- --- ------ -------- ----- --- ------ value --<br>----- ----- ---------- --- --- ------ ------ ---- -- ------<br>------- --- ------ ----- --- ---- ------- -- ---- --- --<br>------- ------,268716.1999999953,268714.63999999105,268394.075,268406.35499999917,268410.913,268728.14,,31,value
screen,html.Screen,2_1_1_1_32,2021-04-24T16:07:26.160Z,,,,,,,,,,,,,,,,,54,,,,,,,,,,,,,,361.70499999495223,,response,,,,100,,,,,,,Space,keypress(Space),,,,,,,,-- --- ---- --- ------ ----- ------- ---- -- --- ------- --<br>------- ---------- ------ -- ----- -- ----- -- ---- ------<br>--- ----- --- --- ------ -------- ----- --- ------ ----- of<br>----- ----- ---------- --- --- ------ ------ ---- -- ------<br>------- --- ------ ----- --- ---- ------- -- ---- --- --<br>------- ------,269091.459999996,269089.84499999497,268711.083,268716.6500000021,268728.14,269094.679,,32,of
screen,html.Screen,2_1_1_1_33,2021-04-24T16:07:27.362Z,,,,,,,,,,,,,,,,,54,,,,,,,,,,,,,,1196.4460000033723,,response,,,,100,,,,,,,Space,keypress(Space),,,,,,,,-- --- ---- --- ------ ----- ------- ---- -- --- ------- --<br>------- ---------- ------ -- ----- -- ----- -- ---- ------<br>--- ----- --- --- ------ -------- ----- --- ------ ----- --<br>these ----- ---------- --- --- ------ ------ ---- -- ------<br>------- --- ------ ----- --- ---- ------- -- ---- --- --<br>------- ------,270292.80499999004,270291.1250000034,269078.029,269092.015000002,269094.679,270295.638,,33,these
screen,html.Screen,2_1_1_1_34,2021-04-24T16:07:27.778Z,,,,,,,,,,,,,,,,,54,,,,,,,,,,,,,,411.05199999181787,,response,,,,100,,,,,,,Space,keypress(Space),,,,,,,,-- --- ---- --- ------ ----- ------- ---- -- --- ------- --<br>------- ---------- ------ -- ----- -- ----- -- ---- ------<br>--- ----- --- --- ------ -------- ----- --- ------ ----- --<br>----- bonds ---------- --- --- ------ ------ ---- -- ------<br>------- --- ------ ----- --- ---- ------- -- ---- --- --<br>------- ------,270709.554999994,270706.6899999918,270278.919,270293.25000000244,270295.638,270729.415,,34,bonds
screen,html.Screen,2_1_1_1_35,2021-04-24T16:07:28.145Z,,,,,,,,,,,,,,,,,54,,,,,,,,,,,,,,344.9099999941536,,response,,,,100,,,,,,,Space,keypress(Space),,,,,,,,"-- --- ---- --- ------ ----- ------- ---- -- --- ------- --<br>------- ---------- ------ -- ----- -- ----- -- ---- ------<br>--- ----- --- --- ------ -------- ----- --- ------ ----- --<br>----- ----- plummeted, --- --- ------ ------ ---- -- ------<br>------- --- ------ ----- --- ---- ------- -- ---- --- --<br>------- ------",271076.01999999315,271074.32499999413,270695.852,270710.2500000037,270729.415,271079.564,,35,"plummeted,"
screen,html.Screen,2_1_1_1_36,2021-04-24T16:07:28.465Z,,,,,,,,,,,,,,,,,54,,,,,,,,,,,,,,315.4059999939054,,response,,,,100,,,,,,,Space,keypress(Space),,,,,,,,-- --- ---- --- ------ ----- ------- ---- -- --- ------- --<br>------- ---------- ------ -- ----- -- ----- -- ---- ------<br>--- ----- --- --- ------ -------- ----- --- ------ ----- --<br>----- ----- ---------- and --- ------ ------ ---- -- ------<br>------- --- ------ ----- --- ---- ------- -- ---- --- --<br>------- ------,271396.63499999733,271394.9699999939,271062.856,271076.49500000116,271079.564,271413.367,,36,and
screen,html.Screen,2_1_1_1_37,2021-04-24T16:07:28.835Z,,,,,,,,,,,,,,,,,54,,,,,,,,,,,,,,350.6829999979236,,response,,,,100,,,,,,,Space,keypress(Space),,,,,,,,-- --- ---- --- ------ ----- ------- ---- -- --- ------- --<br>------- ---------- ------ -- ----- -- ----- -- ---- ------<br>--- ----- --- --- ------ -------- ----- --- ------ ----- --<br>----- ----- ---------- --- the ------ ------ ---- -- ------<br>------- --- ------ ----- --- ---- ------- -- ---- --- --<br>------- ------,271765.83999999275,271764.04999999795,271396.427,271397.10000000196,271413.367,271779.929,,37,the
screen,html.Screen,2_1_1_1_38,2021-04-24T16:07:29.210Z,,,,,,,,,,,,,,,,,54,,,,,,,,,,,,,,359.86100000108127,,response,,,,100,,,,,,,Space,keypress(Space),,,,,,,,-- --- ---- --- ------ ----- ------- ---- -- --- ------- --<br>------- ---------- ------ -- ----- -- ----- -- ---- ------<br>--- ----- --- --- ------ -------- ----- --- ------ ----- --<br>----- ----- ---------- --- --- market ------ ---- -- ------<br>------- --- ------ ----- --- ---- ------- -- ---- --- --<br>------- ------,272141.4950000035,272139.7900000011,271763.4,271766.42499999434,271779.929,272147.004,,38,market
screen,html.Screen,2_1_1_1_39,2021-04-24T16:07:29.562Z,,,,,,,,,,,,,,,,,54,,,,,,,,,,,,,,344.82099999004276,,response,,,,100,,,,,,,Space,keypress(Space),,,,,,,,-- --- ---- --- ------ ----- ------- ---- -- --- ------- --<br>------- ---------- ------ -- ----- -- ----- -- ---- ------<br>--- ----- --- --- ------ -------- ----- --- ------ ----- --<br>----- ----- ---------- --- --- ------ became ---- -- ------<br>------- --- ------ ----- --- ---- ------- -- ---- --- --<br>------- ------,272493.47499999567,272491.82499999006,272130.27,272141.95999999356,272147.004,272497.293,,39,became
screen,html.Screen,2_1_1_1_40,2021-04-24T16:07:29.906Z,,,,,,,,,,,,,,,,,54,,,,,,,,,,,,,,337.91699999017874,,response,,,,100,,,,,,,Space,keypress(Space),,,,,,,,-- --- ---- --- ------ ----- ------- ---- -- --- ------- --<br>------- ---------- ------ -- ----- -- ----- -- ---- ------<br>--- ----- --- --- ------ -------- ----- --- ------ ----- --<br>----- ----- ---------- --- --- ------ ------ wary -- ------<br>------- --- ------ ----- --- ---- ------- -- ---- --- --<br>------- ------,272837.1699999989,272835.2099999902,272480.584,272493.9250000025,272497.293,272847.527,,40,wary
screen,html.Screen,2_1_1_1_41,2021-04-24T16:07:30.266Z,,,,,,,,,,,,,,,,,54,,,,,,,,,,,,,,347.8579999990761,,response,,,,100,,,,,,,Space,keypress(Space),,,,,,,,-- --- ---- --- ------ ----- ------- ---- -- --- ------- --<br>------- ---------- ------ -- ----- -- ----- -- ---- ------<br>--- ----- --- --- ------ -------- ----- --- ------ ----- --<br>----- ----- ---------- --- --- ------ ------ ---- of ------<br>------- --- ------ ----- --- ---- ------- -- ---- --- --<br>------- ------,273196.90999999875,273195.3849999991,272830.983,272837.6399999979,272847.527,273214.684,,41,of
screen,html.Screen,2_1_1_1_42,2021-04-24T16:07:31.049Z,,,,,,,,,,,,,,,,,54,,,,,,,,,,,,,,764.2160000018775,,response,,,,100,,,,,,,Space,keypress(Space),,,,,,,,-- --- ---- --- ------ ----- ------- ---- -- --- ------- --<br>------- ---------- ------ -- ----- -- ----- -- ---- ------<br>--- ----- --- --- ------ -------- ----- --- ------ ----- --<br>----- ----- ---------- --- --- ------ ------ ---- -- French<br>------- --- ------ ----- --- ---- ------- -- ---- --- --<br>------- ------,273980.6349999999,273978.9000000019,273197.785,273197.39999999,273214.684,273998.524,,42,French
screen,html.Screen,2_1_1_1_43,2021-04-24T16:07:31.418Z,,,,,,,,,,,,,,,,,54,,,,,,,,,,,,,,348.6859999926528,,response,,,,100,,,,,,,Space,keypress(Space),,,,,,,,-- --- ---- --- ------ ----- ------- ---- -- --- ------- --<br>------- ---------- ------ -- ----- -- ----- -- ---- ------<br>--- ----- --- --- ------ -------- ----- --- ------ ----- --<br>----- ----- ---------- --- --- ------ ------ ---- -- ------<br>credit. --- ------ ----- --- ---- ------- -- ---- --- --<br>------- ------,274348.9899999986,274347.2099999926,273981.674,273981.09000000113,273998.524,274365.337,,43,credit.
screen,html.Screen,2_1_1_1_44,2021-04-24T16:07:31.786Z,,,,,,,,,,,,,,,,,54,,,,,,,,,,,,,,350.50299998983974,,response,,,,100,,,,,,,Space,keypress(Space),,,,,,,,-- --- ---- --- ------ ----- ------- ---- -- --- ------- --<br>------- ---------- ------ -- ----- -- ----- -- ---- ------<br>--- ----- --- --- ------ -------- ----- --- ------ ----- --<br>----- ----- ---------- --- --- ------ ------ ---- -- ------<br>------- The ------ ----- --- ---- ------- -- ---- --- --<br>------- ------,274717.44999999646,274715.83999998984,274348.667,274349.48999999324,274365.337,274732.369,,44,The
screen,html.Screen,2_1_1_1_45,2021-04-24T16:07:32.114Z,,,,,,,,,,,,,,,,,54,,,,,,,,,,,,,,310.74599999311613,,response,,,,100,,,,,,,Space,keypress(Space),,,,,,,,-- --- ---- --- ------ ----- ------- ---- -- --- ------- --<br>------- ---------- ------ -- ----- -- ----- -- ---- ------<br>--- ----- --- --- ------ -------- ----- --- ------ ----- --<br>----- ----- ---------- --- --- ------ ------ ---- -- ------<br>------- --- French ----- --- ---- ------- -- ---- --- --<br>------- ------,275044.8000000033,275043.1149999931,274715.587,274717.9150000011,274732.369,275049.195,,45,French
screen,html.Screen,2_1_1_1_46,2021-04-24T16:07:32.418Z,,,,,,,,,,,,,,,,,54,,,,,,,,,,,,,,298.50000000401633,,response,,,,100,,,,,,,Space,keypress(Space),,,,,,,,-- --- ---- --- ------ ----- ------- ---- -- --- ------- --<br>------- ---------- ------ -- ----- -- ----- -- ---- ------<br>--- ----- --- --- ------ -------- ----- --- ------ ----- --<br>----- ----- ---------- --- --- ------ ------ ---- -- ------<br>------- --- ------ state --- ---- ------- -- ---- --- --<br>------- ------,275349.4849999988,275347.695000004,275032.458,275045.4299999983,275049.195,275366.321,,46,state
screen,html.Screen,2_1_1_1_47,2021-04-24T16:07:32.713Z,,,,,,,,,,,,,,,,,54,,,,,,,,,,,,,,276.60399999283254,,response,,,,100,,,,,,,Space,keypress(Space),,,,,,,,-- --- ---- --- ------ ----- ------- ---- -- --- ------- --<br>------- ---------- ------ -- ----- -- ----- -- ---- ------<br>--- ----- --- --- ------ -------- ----- --- ------ ----- --<br>----- ----- ---------- --- --- ------ ------ ---- -- ------<br>------- --- ------ ----- was ---- ------- -- ---- --- --<br>------- ------,275644.4699999993,275642.9249999928,275349.545,275349.9749999901,275366.321,275649.603,,47,was
screen,html.Screen,2_1_1_1_48,2021-04-24T16:07:33.073Z,,,,,,,,,,,,,,,,,54,,,,,,,,,,,,,,352.9870000036899,,response,,,,100,,,,,,,Space,keypress(Space),,,,,,,,-- --- ---- --- ------ ----- ------- ---- -- --- ------- --<br>------- ---------- ------ -- ----- -- ----- -- ---- ------<br>--- ----- --- --- ------ -------- ----- --- ------ ----- --<br>----- ----- ---------- --- --- ------ ------ ---- -- ------<br>------- --- ------ ----- --- left ------- -- ---- --- --<br>------- ------,276004.11500000337,276002.5900000037,275632.935,275644.9149999971,275649.603,276016.517,,48,left
screen,html.Screen,2_1_1_1_49,2021-04-24T16:07:33.401Z,,,,,,,,,,,,,,,,,54,,,,,,,,,,,,,,314.0579999999609,,response,,,,100,,,,,,,Space,keypress(Space),,,,,,,,-- --- ---- --- ------ ----- ------- ---- -- --- ------- --<br>------- ---------- ------ -- ----- -- ----- -- ---- ------<br>--- ----- --- --- ------ -------- ----- --- ------ ----- --<br>----- ----- ---------- --- --- ------ ------ ---- -- ------<br>------- --- ------ ----- --- ---- without -- ---- --- --<br>------- ------,276332.15999999084,276330.57499999995,275999.876,276004.6100000036,276016.517,276366.924,,49,without
screen,html.Screen,2_1_1_1_50,2021-04-24T16:07:33.746Z,,,,,,,,,,,,,,,,,54,,,,,,,,,,,,,,308.50600000296254,,response,,,,100,,,,,,,Space,keypress(Space),,,,,,,,-- --- ---- --- ------ ----- ------- ---- -- --- ------- --<br>------- ---------- ------ -- ----- -- ----- -- ---- ------<br>--- ----- --- --- ------ -------- ----- --- ------ ----- --<br>----- ----- ---------- --- --- ------ ------ ---- -- ------<br>------- --- ------ ----- --- ---- ------- an ---- --- --<br>------- ------,276676.97000000044,276675.43000000296,276350.209,276332.63999999326,276366.924,276700.33,,50,an
screen,html.Screen,2_1_1_1_51,2021-04-24T16:07:34.043Z,,,,,,,,,,,,,,,,,54,,,,,,,,,,,,,,272.7899999950896,,response,,,,100,,,,,,,Space,keypress(Space),,,,,,,,-- --- ---- --- ------ ----- ------- ---- -- --- ------- --<br>------- ---------- ------ -- ----- -- ----- -- ---- ------<br>--- ----- --- --- ------ -------- ----- --- ------ ----- --<br>----- ----- ---------- --- --- ------ ------ ---- -- ------<br>------- --- ------ ----- --- ---- ------- -- easy --- --<br>------- ------,276974.62500000256,276973.1199999951,276667.084,276677.4299999961,276700.33,276983.987,,51,easy
screen,html.Screen,2_1_1_1_52,2021-04-24T16:07:34.331Z,,,,,,,,,,,,,,,,,54,,,,,,,,,,,,,,276.81799999804934,,response,,,,100,,,,,,,Space,keypress(Space),,,,,,,,-- --- ---- --- ------ ----- ------- ---- -- --- ------- --<br>------- ---------- ------ -- ----- -- ----- -- ---- ------<br>--- ----- --- --- ------ -------- ----- --- ------ ----- --<br>----- ----- ---------- --- --- ------ ------ ---- -- ------<br>------- --- ------ ----- --- ---- ------- -- ---- way --<br>------- ------,277262.4450000003,277260.8049999981,276967.248,276975.099999996,276983.987,277267.558,,52,way
screen,html.Screen,2_1_1_1_53,2021-04-24T16:07:34.642Z,,,,,,,,,,,,,,,,,54,,,,,,,,,,,,,,303.87699999072356,,response,,,,100,,,,,,,Space,keypress(Space),,,,,,,,-- --- ---- --- ------ ----- ------- ---- -- --- ------- --<br>------- ---------- ------ -- ----- -- ----- -- ---- ------<br>--- ----- --- --- ------ -------- ----- --- ------ ----- --<br>----- ----- ---------- --- --- ------ ------ ---- -- ------<br>------- --- ------ ----- --- ---- ------- -- ---- --- of<br>------- ------,277573.06999999855,277571.43499999074,277250.823,277262.89499999257,277267.558,277584.377,,53,of
screen,html.Screen,2_1_1_1_54,2021-04-24T16:07:34.961Z,,,,,,,,,,,,,,,,,54,,,,,,,,,,,,,,306.833000001614,,response,,,,100,,,,,,,Space,keypress(Space),,,,,,,,-- --- ---- --- ------ ----- ------- ---- -- --- ------- --<br>------- ---------- ------ -- ----- -- ----- -- ---- ------<br>--- ----- --- --- ------ -------- ----- --- ------ ----- --<br>----- ----- ---------- --- --- ------ ------ ---- -- ------<br>------- --- ------ ----- --- ---- ------- -- ---- --- --<br>raising ------,277892.7399999957,277891.2100000016,277567.712,277573.5199999908,277584.377,277901.221,,54,raising
screen,html.Screen,2_1_1_1_55,2021-04-24T16:07:35.417Z,,,,,,,,,,,,,,,,,54,,,,,,,,,,,,,,445.2789999996312,,response,,,,100,,,,,,,Space,keypress(Space),,,,,,,,-- --- ---- --- ------ ----- ------- ---- -- --- ------- --<br>------- ---------- ------ -- ----- -- ----- -- ---- ------<br>--- ----- --- --- ------ -------- ----- --- ------ ----- --<br>----- ----- ---------- --- --- ------ ------ ---- -- ------<br>------- --- ------ ----- --- ---- ------- -- ---- --- --<br>------- money.,278348.0600000039,278346.49999999965,277884.631,277893.2050000003,277901.221,278351.556,,55,money.
Item 100,flow.Loop,2_1_1_1,2021-04-24T16:07:35.418Z,,,,,,,,,,,,,,,,,,,,,,,,,,,,,,,31902.121999999654,,completion,,,,,D,,,,,,,,,,,silence,,,,,278348.79000000365,278346.49999999965,246427.897,246429.87500000163,246444.378,278351.556,,,
Question 1,html.Screen,2_1_1_2,2021-04-24T16:07:40.256Z,,,,,,,,,,,,,,,,,,,,,,,,,,,,true,TRUE,,4832.628999990993,,response,,,,100,D,,,,,,TRUE,click #choice-1,,,,silence,,,,,283187.13999999454,283184.184999991,278334.949,278348.954999994,278351.556,283205.339,,,
Question 2,html.Screen,2_1_1_3,2021-04-24T16:07:42.857Z,,,,,,,,,,,,,,,,,,,,,,,,,,,,true,FALSE,,2580.055999998993,,response,,,,100,D,,,,,,FALSE,click #choice-2,,,,silence,,,,,285788.10499999963,285785.39499999897,283172.063,283187.63499999477,283205.339,285790.579,,,
Item 100,flow.Sequence,2_1_1,2021-04-24T16:07:42.858Z,,,,,,,,,,,,,,,,,,,,,,,,,,,,,,,49348.409999998985,,completion,,,,,,,,,,,,,,,,,,,,,285789.0400000033,285785.39499999897,236420.25,236432.2450000036,236436.985,285790.579,,,
End of Practice,html.Page,2_1_2,2021-04-24T16:07:53.202Z,,,,,,,,,,,,,,,,,,,,,,,,,,,,,,,10341.991000001552,,form submission,,,,,,,,,,,,,,,,,,,,,296132.94999999925,296132.5700000016,285774.018,285789.4649999944,285790.579,296148.283,,,
Practice,flow.Sequence,2_1,2021-04-24T16:07:53.202Z,,,,,,,,,,,,,,,,,,,,,,,,,,,,,,,133951.14900000158,,completion,,,,,,,,,,,,,,,,,,,,,296133.24999999895,296132.5700000016,162164.671,162178.28500000178,162181.421,296148.283,,,
Trap_instruction,html.Page,2_2_0,2021-04-24T16:07:59.679Z,,,,,,,,,,,,,,,,,,,,,,,,,,,,,,,6461.377000001899,,form submission,,,,,,,,,,,,,,,,,,,,,302610.01000000397,302609.6600000019,296131.541,296133.45500000287,296148.283,302636.418,,,
trap_trial,html.Screen,2_2_1,2021-04-24T16:08:04.441Z,,,,,,,,,,,,,,,,,,,,,,,,,,,,true,1,,4734.961999996856,,response,,,,,,,,,,,1,click #choice-1,,,,,,,,,307372.4450000009,307371.37999999686,302603.055,302610.1950000011,302636.418,307373.266,,,
end of trap trial,html.Page,2_2_2,2021-04-24T16:08:08.217Z,,,,,,,,,,,,,,,,,,,,,,,,,,,,,,,3774.3439999999828,,form submission,,,,,,,,,,,,,,,,,,,,,311148.4550000023,311147.61,307356.706,307372.65999999363,307373.266,311159.521,,,
Trap 1,flow.Sequence,2_2,2021-04-24T16:08:08.218Z,,,,,,,,,,,,,,,,,,,,,,,,,,,,,,,14999.32699999999,,completion,,,,,,,,,,,,,,,,,,,,,311149.12000000186,311147.61,296131.541,296133.3949999971,296148.283,311159.521,,,
Standby,html.Page,2_3_0,2021-04-24T16:08:16.218Z,,,,,,,,,,,,,,,,,,,,,,,,,,,,,,,8005.973999999987,,timeout,,,,,,,,,,,,,,,,,,,,,319149.5399999985,319148.81,311142.874,311149.6299999999,311159.521,319165.495,,,
Holding screen,html.Screen,2_3_1_0_0,2021-04-24T16:08:23.224Z,,,,,,,,,,,,,,,,,,,,,,,,,,,,,,,7005.194000000018,,timeout,,,,,,,,,,,,,,,,,,,,,326155.31499999634,326154.125,319148.81,319149.8399999982,319165.495,326170.689,,,
screen,html.Screen,2_3_1_0_1_0,2021-04-24T16:08:26.499Z,,,,,,,,,,,,,,,,,2,,,,,,,,,,,,,,3257.5859999983804,,response,,,,1,D,,,,,,Space,keypress(Space),,,,silence,,,,Two ---- ------ --- ------- ---------- ------- ----------<br>--- --------- --- ----------- ------- ----- ------- ---<br>--------- ---- -- --- ---- -- --------- -- ---- -------<br>-- --------- ------ --- ----- ------ ---- --- --------- --<br>------ - ---- -- --- ----------- ------- ---- ----- -----<br>--- -------- - ------ ---- -- ----- ---- --- --- -----------<br>-- -------,329430.45499999425,329428.2749999984,326154.125,326155.5850000004,326170.689,329439.878,,0,Two
screen,html.Screen,2_3_1_0_1_1,2021-04-24T16:08:26.928Z,,,,,,,,,,,,,,,,,2,,,,,,,,,,,,,,418.3269999967888,,response,,,,1,D,,,,,,Space,keypress(Space),,,,silence,,,,--- days ------ --- ------- ---------- ------- ----------<br>--- --------- --- ----------- ------- ----- ------- ---<br>--------- ---- -- --- ---- -- --------- -- ---- -------<br>-- --------- ------ --- ----- ------ ---- --- --------- --<br>------ - ---- -- --- ----------- ------- ---- ----- -----<br>--- -------- - ------ ---- -- ----- ---- --- --- -----------<br>-- -------,329858.8699999964,329858.2049999968,329423.189,329430.9799999901,329439.878,329873.562,,1,days
screen,html.Screen,2_3_1_0_1_2,2021-04-24T16:08:27.315Z,,,,,,,,,,,,,,,,,2,,,,,,,,,,,,,,371.0479999943054,,response,,,,1,D,,,,,,Space,keypress(Space),,,,silence,,,,"--- ---- later, --- ------- ---------- ------- ----------<br>--- --------- --- ----------- ------- ----- ------- ---<br>--------- ---- -- --- ---- -- --------- -- ---- -------<br>-- --------- ------ --- ----- ------ ---- --- --------- --<br>------ - ---- -- --- ----------- ------- ---- ----- -----<br>--- -------- - ------ ---- -- ----- ---- --- --- -----------<br>-- -------",330246.13499999396,330244.6099999943,329856.813,329859.0649999969,329873.562,330257.296,,2,"later,"
screen,html.Screen,2_3_1_0_1_3,2021-04-24T16:08:27.732Z,,,,,,,,,,,,,,,,,2,,,,,,,,,,,,,,404.47900000051595,,response,,,,1,D,,,,,,Space,keypress(Space),,,,silence,,,,--- ---- ------ the ------- ---------- ------- ----------<br>--- --------- --- ----------- ------- ----- ------- ---<br>--------- ---- -- --- ---- -- --------- -- ---- -------<br>-- --------- ------ --- ----- ------ ---- --- --------- --<br>------ - ---- -- --- ----------- ------- ---- ----- -----<br>--- -------- - ------ ---- -- ----- ---- --- --- -----------<br>-- -------,330663.28500000236,330661.7750000005,330240.52,330246.5949999896,330257.296,330674.233,,3,the
screen,html.Screen,2_3_1_0_1_4,2021-04-24T16:08:28.106Z,,,,,,,,,,,,,,,,,2,,,,,,,,,,,,,,361.6769999914104,,response,,,,1,D,,,,,,Space,keypress(Space),,,,silence,,,,--- ---- ------ --- British ---------- ------- ----------<br>--- --------- --- ----------- ------- ----- ------- ---<br>--------- ---- -- --- ---- -- --------- -- ---- -------<br>-- --------- ------ --- ----- ------ ---- --- --------- --<br>------ - ---- -- --- ----------- ------- ---- ----- -----<br>--- -------- - ------ ---- -- ----- ---- --- --- -----------<br>-- -------,331037.5150000036,331035.9099999914,330657.472,330663.7400000036,330674.233,331041.121,,4,British
screen,html.Screen,2_3_1_0_1_5,2021-04-24T16:08:28.451Z,,,,,,,,,,,,,,,,,2,,,,,,,,,,,,,,339.0739999906509,,response,,,,1,D,,,,,,Space,keypress(Space),,,,silence,,,,--- ---- ------ --- ------- astronomer ------- ----------<br>--- --------- --- ----------- ------- ----- ------- ---<br>--------- ---- -- --- ---- -- --------- -- ---- -------<br>-- --------- ------ --- ----- ------ ---- --- --------- --<br>------ - ---- -- --- ----------- ------- ---- ----- -----<br>--- -------- - ------ ---- -- ----- ---- --- --- -----------<br>-- -------,331381.85999999405,331380.19499999064,331024.414,331037.9649999959,331041.121,331391.348,,5,astronomer
screen,html.Screen,2_3_1_0_1_6,2021-04-24T16:08:28.963Z,,,,,,,,,,,,,,,,,2,,,,,,,,,,,,,,501.6569999908097,,response,,,,1,D,,,,,,Space,keypress(Space),,,,silence,,,,--- ---- ------ --- ------- ---------- Richard ----------<br>--- --------- --- ----------- ------- ----- ------- ---<br>--------- ---- -- --- ---- -- --------- -- ---- -------<br>-- --------- ------ --- ----- ------ ---- --- --------- --<br>------ - ---- -- --- ----------- ------- ---- ----- -----<br>--- -------- - ------ ---- -- ----- ---- --- --- -----------<br>-- -------,331894.50500000385,331893.0049999908,331374.865,331382.3199999897,331391.348,331908.358,,6,Richard
screen,html.Screen,2_3_1_0_1_7,2021-04-24T16:08:29.739Z,,,,,,,,,,,,,,,,,2,,,,,,,,,,,,,,760.7020000001648,,response,,,,1,D,,,,,,Space,keypress(Space),,,,silence,,,,--- ---- ------ --- ------- ---------- ------- Carrington<br>--- --------- --- ----------- ------- ----- ------- ---<br>--------- ---- -- --- ---- -- --------- -- ---- -------<br>-- --------- ------ --- ----- ------ ---- --- --------- --<br>------ - ---- -- --- ----------- ------- ---- ----- -----<br>--- -------- - ------ ---- -- ----- ---- --- --- -----------<br>-- -------,332670.6799999956,332669.0600000002,331891.703,331894.9500000017,331908.358,332675.688,,7,Carrington
screen,html.Screen,2_3_1_0_1_8,2021-04-24T16:08:30.140Z,,,,,,,,,,,,,,,,,2,,,,,,,,,,,,,,394.2869999912218,,response,,,,1,D,,,,,,Space,keypress(Space),,,,silence,,,,--- ---- ------ --- ------- ---------- ------- ----------<br>was --------- --- ----------- ------- ----- ------- ---<br>--------- ---- -- --- ---- -- --------- -- ---- -------<br>-- --------- ------ --- ----- ------ ---- --- --------- --<br>------ - ---- -- --- ----------- ------- ---- ----- -----<br>--- -------- - ------ ---- -- ----- ---- --- --- -----------<br>-- -------,333071.5899999923,333069.97499999125,332659.13,332671.13000000245,332675.688,333075.981,,8,was
screen,html.Screen,2_3_1_0_1_9,2021-04-24T16:08:30.517Z,,,,,,,,,,,,,,,,,2,,,,,,,,,,,,,,370.3790000017034,,response,,,,1,D,,,,,,Space,keypress(Space),,,,silence,,,,--- ---- ------ --- ------- ---------- ------- ----------<br>--- observing --- ----------- ------- ----- ------- ---<br>--------- ---- -- --- ---- -- --------- -- ---- -------<br>-- --------- ------ --- ----- ------ ---- --- --------- --<br>------ - ---- -- --- ----------- ------- ---- ----- -----<br>--- -------- - ------ ---- -- ----- ---- --- --- -----------<br>-- -------,333448.1050000031,333446.36000000173,333059.268,333072.0549999969,333075.981,333459.633,,9,observing
screen,html.Screen,2_3_1_0_1_10,2021-04-24T16:08:30.829Z,,,,,,,,,,,,,,,,,2,,,,,,,,,,,,,,298.6469999945839,,response,,,,1,D,,,,,,Space,keypress(Space),,,,silence,,,,--- ---- ------ --- ------- ---------- ------- ----------<br>--- --------- the ----------- ------- ----- ------- ---<br>--------- ---- -- --- ---- -- --------- -- ---- -------<br>-- --------- ------ --- ----- ------ ---- --- --------- --<br>------ - ---- -- --- ----------- ------- ---- ----- -----<br>--- -------- - ------ ---- -- ----- ---- --- --- -----------<br>-- -------,333759.8449999932,333758.27999999456,333443.068,333448.5699999932,333459.633,333776.6,,10,the
screen,html.Screen,2_3_1_0_1_11,2021-04-24T16:08:31.317Z,,,,,,,,,,,,,,,,,2,,,,,,,,,,,,,,469.61499999195803,,response,,,,1,D,,,,,,Space,keypress(Space),,,,silence,,,,--- ---- ------ --- ------- ---------- ------- ----------<br>--- --------- --- interesting ------- ----- ------- ---<br>--------- ---- -- --- ---- -- --------- -- ---- -------<br>-- --------- ------ --- ----- ------ ---- --- --------- --<br>------ - ---- -- --- ----------- ------- ---- ----- -----<br>--- -------- - ------ ---- -- ----- ---- --- --- -----------<br>-- -------,334247.84999999974,334246.21499999193,333759.806,333760.29999999446,333776.6,334260.21,,11,interesting
screen,html.Screen,2_3_1_0_1_12,2021-04-24T16:08:31.716Z,,,,,,,,,,,,,,,,,2,,,,,,,,,,,,,,385.8649999969057,,response,,,,1,D,,,,,,Space,keypress(Space),,,,silence,,,,--- ---- ------ --- ------- ---------- ------- ----------<br>--- --------- --- ----------- sunspot ----- ------- ---<br>--------- ---- -- --- ---- -- --------- -- ---- -------<br>-- --------- ------ --- ----- ------ ---- --- --------- --<br>------ - ---- -- --- ----------- ------- ---- ----- -----<br>--- -------- - ------ ---- -- ----- ---- --- --- -----------<br>-- -------,334647.66000000236,334646.0749999969,334243.485,334248.3099999954,334260.21,334660.525,,12,sunspot
screen,html.Screen,2_3_1_0_1_13,2021-04-24T16:08:32.140Z,,,,,,,,,,,,,,,,,2,,,,,,,,,,,,,,409.1199999959208,,response,,,,1,D,,,,,,Space,keypress(Space),,,,silence,,,,--- ---- ------ --- ------- ---------- ------- ----------<br>--- --------- --- ----------- ------- group ------- ---<br>--------- ---- -- --- ---- -- --------- -- ---- -------<br>-- --------- ------ --- ----- ------ ---- --- --------- --<br>------ - ---- -- --- ----------- ------- ---- ----- -----<br>--- -------- - ------ ---- -- ----- ---- --- --- -----------<br>-- -------,335071.3049999904,335069.64499999594,334643.787,334648.12499999243,334660.525,335077.507,,13,group
screen,html.Screen,2_3_1_0_1_14,2021-04-24T16:08:32.598Z,,,,,,,,,,,,,,,,,2,,,,,,,,,,,,,,450.6780000028666,,response,,,,1,D,,,,,,Space,keypress(Space),,,,silence,,,,--- ---- ------ --- ------- ---------- ------- ----------<br>--- --------- --- ----------- ------- ----- through ---<br>--------- ---- -- --- ---- -- --------- -- ---- -------<br>-- --------- ------ --- ----- ------ ---- --- --------- --<br>------ - ---- -- --- ----------- ------- ---- ----- -----<br>--- -------- - ------ ---- -- ----- ---- --- --- -----------<br>-- -------,335529.69999999914,335528.18500000285,335060.76,335071.88000000315,335077.507,335544.487,,14,through
screen,html.Screen,2_3_1_0_1_15,2021-04-24T16:08:32.986Z,,,,,,,,,,,,,,,,,2,,,,,,,,,,,,,,371.5029999940307,,response,,,,1,D,,,,,,Space,keypress(Space),,,,silence,,,,--- ---- ------ --- ------- ---------- ------- ----------<br>--- --------- --- ----------- ------- ----- ------- his<br>--------- ---- -- --- ---- -- --------- -- ---- -------<br>-- --------- ------ --- ----- ------ ---- --- --------- --<br>------ - ---- -- --- ----------- ------- ---- ----- -----<br>--- -------- - ------ ---- -- ----- ---- --- --- -----------<br>-- -------,335917.65000000305,335915.98999999405,335527.772,335530.1749999926,335544.487,335928.073,,15,his
screen,html.Screen,2_3_1_0_1_16,2021-04-24T16:08:36.105Z,,,,,,,,,,,,,,,,,2,,,,,,,,,,,,,,3106.7169999906328,,response,,,,1,D,,,,,,Space,keypress(Space),,,,silence,,,,--- ---- ------ --- ------- ---------- ------- ----------<br>--- --------- --- ----------- ------- ----- ------- ---<br>telescope ---- -- --- ---- -- --------- -- ---- -------<br>-- --------- ------ --- ----- ------ ---- --- --------- --<br>------ - ---- -- --- ----------- ------- ---- ----- -----<br>--- -------- - ------ ---- -- ----- ---- --- --- -----------<br>-- -------,339036.36499999266,339034.7899999906,335911.408,335918.1249999965,335928.073,339047.066,,16,telescope
screen,html.Screen,2_3_1_0_1_17,2021-04-24T16:08:36.563Z,,,,,,,,,,,,,,,,,2,,,,,,,,,,,,,,445.35900000401307,,response,,,,1,D,,,,,,Space,keypress(Space),,,,silence,,,,--- ---- ------ --- ------- ---------- ------- ----------<br>--- --------- --- ----------- ------- ----- ------- ---<br>--------- when -- --- ---- -- --------- -- ---- -------<br>-- --------- ------ --- ----- ------ ---- --- --------- --<br>------ - ---- -- --- ----------- ------- ---- ----- -----<br>--- -------- - ------ ---- -- ----- ---- --- --- -----------<br>-- -------,339493.9599999925,339492.425000004,339030.393,339036.86500000185,339047.066,339497.452,,17,when
screen,html.Screen,2_3_1_0_1_18,2021-04-24T16:08:36.928Z,,,,,,,,,,,,,,,,,2,,,,,,,,,,,,,,361.3029999938444,,response,,,,1,D,,,,,,Space,keypress(Space),,,,silence,,,,--- ---- ------ --- ------- ---------- ------- ----------<br>--- --------- --- ----------- ------- ----- ------- ---<br>--------- ---- he --- ---- -- --------- -- ---- -------<br>-- --------- ------ --- ----- ------ ---- --- --------- --<br>------ - ---- -- --- ----------- ------- ---- ----- -----<br>--- -------- - ------ ---- -- ----- ---- --- --- -----------<br>-- -------,339859.4250000024,339858.75499999383,339480.747,339494.41499999375,339497.452,339864.364,,18,he
screen,html.Screen,2_3_1_0_1_19,2021-04-24T16:08:37.324Z,,,,,,,,,,,,,,,,,2,,,,,,,,,,,,,,389.2659999919706,,response,,,,1,D,,,,,,Space,keypress(Space),,,,silence,,,,--- ---- ------ --- ------- ---------- ------- ----------<br>--- --------- --- ----------- ------- ----- ------- ---<br>--------- ---- -- saw ---- -- --------- -- ---- -------<br>-- --------- ------ --- ----- ------ ---- --- --------- --<br>------ - ---- -- --- ----------- ------- ---- ----- -----<br>--- -------- - ------ ---- -- ----- ---- --- --- -----------<br>-- -------,340255.1899999962,340253.629999992,339847.648,339859.61499999394,339864.364,340264.695,,19,saw
screen,html.Screen,2_3_1_0_1_20,2021-04-24T16:08:37.660Z,,,,,,,,,,,,,,,,,2,,,,,,,,,,,,,,325.105000001553,,response,,,,1,D,,,,,,Space,keypress(Space),,,,silence,,,,--- ---- ------ --- ------- ---------- ------- ----------<br>--- --------- --- ----------- ------- ----- ------- ---<br>--------- ---- -- --- what -- --------- -- ---- -------<br>-- --------- ------ --- ----- ------ ---- --- --------- --<br>------ - ---- -- --- ----------- ------- ---- ----- -----<br>--- -------- - ------ ---- -- ----- ---- --- --- -----------<br>-- -------,340591.54500000295,340589.80000000156,340247.96,340255.62999999966,340264.695,340598.261,,20,what
screen,html.Screen,2_3_1_0_1_21,2021-04-24T16:08:38.003Z,,,,,,,,,,,,,,,,,2,,,,,,,,,,,,,,334.0939999971888,,response,,,,1,D,,,,,,Space,keypress(Space),,,,silence,,,,--- ---- ------ --- ------- ---------- ------- ----------<br>--- --------- --- ----------- ------- ----- ------- ---<br>--------- ---- -- --- ---- he --------- -- ---- -------<br>-- --------- ------ --- ----- ------ ---- --- --------- --<br>------ - ---- -- --- ----------- ------- ---- ----- -----<br>--- -------- - ------ ---- -- ----- ---- --- --- -----------<br>-- -------,340934.0399999928,340932.3549999972,340581.568,340592.009999993,340598.261,340948.522,,21,he
screen,html.Screen,2_3_1_0_1_22,2021-04-24T16:08:38.420Z,,,,,,,,,,,,,,,,,2,,,,,,,,,,,,,,400.64299999235664,,response,,,,1,D,,,,,,Space,keypress(Space),,,,silence,,,,--- ---- ------ --- ------- ---------- ------- ----------<br>--- --------- --- ----------- ------- ----- ------- ---<br>--------- ---- -- --- ---- -- described -- ---- -------<br>-- --------- ------ --- ----- ------ ---- --- --------- --<br>------ - ---- -- --- ----------- ------- ---- ----- -----<br>--- -------- - ------ ---- -- ----- ---- --- --- -----------<br>-- -------,341350.7649999956,341349.16499999235,340931.915,340934.48999999964,340948.522,341365.524,,22,described
screen,html.Screen,2_3_1_0_1_23,2021-04-24T16:08:38.742Z,,,,,,,,,,,,,,,,,2,,,,,,,,,,,,,,306.2009999928996,,response,,,,1,D,,,,,,Space,keypress(Space),,,,silence,,,,--- ---- ------ --- ------- ---------- ------- ----------<br>--- --------- --- ----------- ------- ----- ------- ---<br>--------- ---- -- --- ---- -- --------- as ---- -------<br>-- --------- ------ --- ----- ------ ---- --- --------- --<br>------ - ---- -- --- ----------- ------- ---- ----- -----<br>--- -------- - ------ ---- -- ----- ---- --- --- -----------<br>-- -------,341673.23000000033,341671.7249999929,341348.814,341351.24999999243,341365.524,341682.407,,23,as
screen,html.Screen,2_3_1_0_1_24,2021-04-24T16:08:39.074Z,,,,,,,,,,,,,,,,,2,,,,,,,,,,,,,,321.0629999960074,,response,,,,1,D,,,,,,Space,keypress(Space),,,,silence,,,,"--- ---- ------ --- ------- ---------- ------- ----------<br>--- --------- --- ----------- ------- ----- ------- ---<br>--------- ---- -- --- ---- -- --------- -- ""two -------<br>-- --------- ------ --- ----- ------ ---- --- --------- --<br>------ - ---- -- --- ----------- ------- ---- ----- -----<br>--- -------- - ------ ---- -- ----- ---- --- --- -----------<br>-- -------",342005.04499999806,342003.469999996,341665.862,341673.68500000157,341682.407,342016.004,,24,"""two"
screen,html.Screen,2_3_1_0_1_25,2021-04-24T16:08:39.653Z,,,,,,,,,,,,,,,,,2,,,,,,,,,,,,,,566.8959999939543,,response,,,,1,D,,,,,,Space,keypress(Space),,,,silence,,,,--- ---- ------ --- ------- ---------- ------- ----------<br>--- --------- --- ----------- ------- ----- ------- ---<br>--------- ---- -- --- ---- -- --------- -- ---- patches<br>-- --------- ------ --- ----- ------ ---- --- --------- --<br>------ - ---- -- --- ----------- ------- ---- ----- -----<br>--- -------- - ------ ---- -- ----- ---- --- --- -----------<br>-- -------,342584.4550000038,342582.89999999397,341999.304,342005.49499999033,342016.004,342599.796,,25,patches
screen,html.Screen,2_3_1_0_1_26,2021-04-24T16:08:39.995Z,,,,,,,,,,,,,,,,,2,,,,,,,,,,,,,,324.95399999106303,,response,,,,1,D,,,,,,Space,keypress(Space),,,,silence,,,,--- ---- ------ --- ------- ---------- ------- ----------<br>--- --------- --- ----------- ------- ----- ------- ---<br>--------- ---- -- --- ---- -- --------- -- ---- -------<br>of --------- ------ --- ----- ------ ---- --- --------- --<br>------ - ---- -- --- ----------- ------- ---- ----- -----<br>--- -------- - ------ ---- -- ----- ---- --- --- -----------<br>-- -------,342926.3249999931,342924.74999999104,342583.06,342584.9199999939,342599.796,342949.956,,26,of
screen,html.Screen,2_3_1_0_1_27,2021-04-24T16:08:40.418Z,,,,,,,,,,,,,,,,,2,,,,,,,,,,,,,,398.2139999974752,,response,,,,1,D,,,,,,Space,keypress(Space),,,,silence,,,,--- ---- ------ --- ------- ---------- ------- ----------<br>--- --------- --- ----------- ------- ----- ------- ---<br>--------- ---- -- --- ---- -- --------- -- ---- -------<br>-- intensely ------ --- ----- ------ ---- --- --------- --<br>------ - ---- -- --- ----------- ------- ---- ----- -----<br>--- -------- - ------ ---- -- ----- ---- --- --- -----------<br>-- -------,343348.83999999147,343348.1699999975,342916.74,342926.7749999999,342949.956,343370.03,,27,intensely
screen,html.Screen,2_3_1_0_1_28,2021-04-24T16:08:40.812Z,,,,,,,,,,,,,,,,,2,,,,,,,,,,,,,,371.78999999561347,,response,,,,1,D,,,,,,Space,keypress(Space),,,,silence,,,,--- ---- ------ --- ------- ---------- ------- ----------<br>--- --------- --- ----------- ------- ----- ------- ---<br>--------- ---- -- --- ---- -- --------- -- ---- -------<br>-- --------- bright --- ----- ------ ---- --- --------- --<br>------ - ---- -- --- ----------- ------- ---- ----- -----<br>--- -------- - ------ ---- -- ----- ---- --- --- -----------<br>-- -------,343743.54999999923,343741.81999999564,343333.571,343349.0299999976,343370.03,343767.307,,28,bright
screen,html.Screen,2_3_1_0_1_29,2021-04-24T16:08:41.260Z,,,,,,,,,,,,,,,,,2,,,,,,,,,,,,,,421.837999996671,,response,,,,1,D,,,,,,Space,keypress(Space),,,,silence,,,,--- ---- ------ --- ------- ---------- ------- ----------<br>--- --------- --- ----------- ------- ----- ------- ---<br>--------- ---- -- --- ---- -- --------- -- ---- -------<br>-- --------- ------ and ----- ------ ---- --- --------- --<br>------ - ---- -- --- ----------- ------- ---- ----- -----<br>--- -------- - ------ ---- -- ----- ---- --- --- -----------<br>-- -------,344190.89499999245,344189.14499999664,343733.941,343744.0099999949,343767.307,344201.75,,29,and
screen,html.Screen,2_3_1_0_1_30,2021-04-24T16:08:41.668Z,,,,,,,,,,,,,,,,,2,,,,,,,,,,,,,,396.19500000134576,,response,,,,1,D,,,,,,Space,keypress(Space),,,,silence,,,,--- ---- ------ --- ------- ---------- ------- ----------<br>--- --------- --- ----------- ------- ----- ------- ---<br>--------- ---- -- --- ---- -- --------- -- ---- -------<br>-- --------- ------ --- white ------ ---- --- --------- --<br>------ - ---- -- --- ----------- ------- ---- ----- -----<br>--- -------- - ------ ---- -- ----- ---- --- --- -----------<br>-- -------,344599.5299999922,344597.94500000135,344184.407,344191.35500000266,344201.75,344631.678,,30,white
screen,html.Screen,2_3_1_0_1_31,2021-04-24T16:08:42.027Z,,,,,,,,,,,,,,,,,2,,,,,,,,,,,,,,325.1769999967073,,response,,,,1,D,,,,,,Space,keypress(Space),,,,silence,,,,"--- ---- ------ --- ------- ---------- ------- ----------<br>--- --------- --- ----------- ------- ----- ------- ---<br>--------- ---- -- --- ---- -- --------- -- ---- -------<br>-- --------- ------ --- ----- light"" ---- --- --------- --<br>------ - ---- -- --- ----------- ------- ---- ----- -----<br>--- -------- - ------ ---- -- ----- ---- --- --- -----------<br>-- -------",344958.41500000097,344956.8549999967,344584.505,344599.97999999905,344631.678,344968.206,,31,"light"""
screen,html.Screen,2_3_1_0_1_32,2021-04-24T16:08:42.491Z,,,,,,,,,,,,,,,,,2,,,,,,,,,,,,,,452.52899999241345,,response,,,,1,D,,,,,,Space,keypress(Space),,,,silence,,,,--- ---- ------ --- ------- ---------- ------- ----------<br>--- --------- --- ----------- ------- ----- ------- ---<br>--------- ---- -- --- ---- -- --------- -- ---- -------<br>-- --------- ------ --- ----- ------ over --- --------- --<br>------ - ---- -- --- ----------- ------- ---- ----- -----<br>--- -------- - ------ ---- -- ----- ---- --- --- -----------<br>-- -------,345422.51000000397,345420.7349999924,344951.506,344958.86499999324,344968.206,345435.184,,32,over
screen,html.Screen,2_3_1_0_1_33,2021-04-24T16:08:42.851Z,,,,,,,,,,,,,,,,,2,,,,,,,,,,,,,,345.48099999839906,,response,,,,1,D,,,,,,Space,keypress(Space),,,,silence,,,,--- ---- ------ --- ------- ---------- ------- ----------<br>--- --------- --- ----------- ------- ----- ------- ---<br>--------- ---- -- --- ---- -- --------- -- ---- -------<br>-- --------- ------ --- ----- ------ ---- the --------- --<br>------ - ---- -- --- ----------- ------- ---- ----- -----<br>--- -------- - ------ ---- -- ----- ---- --- --- -----------<br>-- -------,345782.355000003,345780.6649999984,345418.604,345422.980000003,345435.184,345785.488,,33,the
screen,html.Screen,2_3_1_0_1_34,2021-04-24T16:08:43.154Z,,,,,,,,,,,,,,,,,2,,,,,,,,,,,,,,298.64200000290293,,response,,,,1,D,,,,,,Space,keypress(Space),,,,silence,,,,--- ---- ------ --- ------- ---------- ------- ----------<br>--- --------- --- ----------- ------- ----- ------- ---<br>--------- ---- -- --- ---- -- --------- -- ---- -------<br>-- --------- ------ --- ----- ------ ---- --- sunspots. --<br>------ - ---- -- --- ----------- ------- ---- ----- -----<br>--- -------- - ------ ---- -- ----- ---- --- --- -----------<br>-- -------,346085.699999996,346084.1300000029,345768.786,345782.81499999866,345785.488,346102.395,,34,sunspots.
screen,html.Screen,2_3_1_0_1_35,2021-04-24T16:08:43.556Z,,,,,,,,,,,,,,,,,2,,,,,,,,,,,,,,382.91999999806285,,response,,,,1,D,,,,,,Space,keypress(Space),,,,silence,,,,--- ---- ------ --- ------- ---------- ------- ----------<br>--- --------- --- ----------- ------- ----- ------- ---<br>--------- ---- -- --- ---- -- --------- -- ---- -------<br>-- --------- ------ --- ----- ------ ---- --- --------- He<br>------ - ---- -- --- ----------- ------- ---- ----- -----<br>--- -------- - ------ ---- -- ----- ---- --- --- -----------<br>-- -------,346487.0549999905,346485.3149999981,346085.689,346086.1500000028,346102.395,346502.788,,35,He
screen,html.Screen,2_3_1_0_1_36,2021-04-24T16:08:43.899Z,,,,,,,,,,,,,,,,,2,,,,,,,,,,,,,,325.6119999985094,,response,,,,1,D,,,,,,Space,keypress(Space),,,,silence,,,,--- ---- ------ --- ------- ---------- ------- ----------<br>--- --------- --- ----------- ------- ----- ------- ---<br>--------- ---- -- --- ---- -- --------- -- ---- -------<br>-- --------- ------ --- ----- ------ ---- --- --------- --<br>jotted - ---- -- --- ----------- ------- ---- ----- -----<br>--- -------- - ------ ---- -- ----- ---- --- --- -----------<br>-- -------,346829.96000000276,346828.3999999985,346485.996,346487.4899999995,346502.788,346836.265,,36,jotted
