sender,sender_type,sender_id,timestamp,meta,,Blues,Classical,Country,Dance,Electronic,Folk,Gospel,Hip-Hop,Jazz,Latin,Musical/Film,New-age,Pop,Prolific_id,Provo_ID,R&B,Rap,Reggae,Religious,Rock,Soul,Swing,Traditional,age,artist_name,correct,correctResponse,distraction,duration,education,ended_on,familiarity,gender,headphone_check_performance,item,list,music_frequency,offensiveness,pleasantness,position_correct,preference,response,response_action,snippet_file,song_name,song_rating,sound,stimulus_1,stimulus_2,stimulus_3,text,time_commit,time_end,time_render,time_run,time_show,time_switch,url,word,word_ID
Prolific ID,html.Form,0,2021-04-26T14:24:03.139Z,"{""labjs_version"":""20.2.2"",""labjs_build"":{""flavor"":""production"",""commit"":""a25486e0c714a0ae2ce03ff94b7bb6896854dcfa""},""location"":""https://run.pavlovia.org/mvasilev/prolific_music_c/"",""userAgent"":""Mozilla/5.0 (Windows NT 10.0; Win64; x64) AppleWebKit/537.36 (KHTML, like Gecko) Chrome/90.0.4430.85 Safari/537.36"",""platform"":""Win32"",""language"":""en-GB"",""locale"":""en-GB"",""timeZone"":""Europe/London"",""timezoneOffset"":-60,""screen_width"":1280,""screen_height"":720,""scroll_width"":1280,""scroll_height"":562,""window_innerWidth"":1280,""window_innerHeight"":610,""devicePixelRatio"":1.5}",,,,,,,,,,,,,,,603e14a5a9a789dbce4ae50b,,,,,,,,,,,,,,,83431.08400001055,,form submission,,,,,,,,,,,,,,,,,,,,,93104.82500001672,93104.20500001055,9658.824,9667.090000002645,9673.121,93107.964,{},,
Introduction,html.Screen,1_0,2021-04-26T14:24:06.322Z,,,,,,,,,,,,,,,,,,,,,,,,,,,,,,,3176.331000019476,,response,,,,,,,,,,,continue,click button,,,,,,,,,96287.42000000784,96284.29500001948,93091.612,93105.27000000002,93107.964,96287.392,,,
Volume calibration,html.Screen,1_1,2021-04-26T14:24:18.615Z,,,,,,,,,,,,,,,,,,,,,,,,,,,,,,,12288.708000005674,,response,,,,,,,,,,,continue,click button,,,,,,,,,108580.8300000208,108576.10000000568,96270.812,96287.72000002209,96287.392,108578.184,,,
Task instructions,html.Screen,1_2,2021-04-26T14:24:27.174Z,,,,,,,,,,,,,,,,,,,,,,,,,,,,,,,8560.360999994344,,response,,,,,,,,,,,continue,click button,,,,,,,,,117139.43500001915,117138.54499999434,108561.543,108581.12499999697,108578.184,117147.947,,,
Sounds,html.Screen,1_3_0_0,2021-04-26T14:24:31.423Z,,,,,,,,,,,,,,,,,,,,,,,,,,,,,,,4253.903999999995,,timeout,,,,,,,,,1,,,,,,,,S,I,O,,121388.85499999742,121385.201,117131.235,117139.76000002003,117147.947,121401.851,,,
Judgement,html.Screen,1_3_0_1,2021-04-26T14:24:34.131Z,,,,,,,,,,,,,,,,,,,,,,,,,,,,true,1,,2694.1890000040003,,response,,,,,,,,,1,,1,click #choice-1,,,,,S,I,O,,124096.86499999953,124096.040000004,121385.201,121389.06499999575,121401.851,124108.449,,,
Trial,flow.Sequence,1_3_0,2021-04-26T14:24:34.133Z,,,,,,,,,,,,,,,,,,,,,,,,,,,,,,,6948.093000003995,,completion,,,,,,,,,1,,,,,,,,S,I,O,,124098.56500002206,124096.040000004,117131.235,117139.68000002205,117147.947,124108.449,,,
Sounds,html.Screen,1_3_1_0,2021-04-26T14:24:38.376Z,,,,,,,,,,,,,,,,,,,,,,,,,,,,,,,4249.114000000001,,timeout,,,,,,,,,1,,,,,,,,S,O,I,,128341.62500000093,128340.852,124091.598,124098.67500001565,124108.449,128357.563,,,
Judgement,html.Screen,1_3_1_1,2021-04-26T14:24:38.771Z,,,,,,,,,,,,,,,,,,,,,,,,,,,,true,1,,378.23200001506484,,response,,,,,,,,,1,,1,click #choice-1,,,,,S,O,I,,128736.52000000584,128735.79500001506,128340.852,128341.78000001702,128357.563,128746.087,,,
Trial,flow.Sequence,1_3_1,2021-04-26T14:24:38.771Z,,,,,,,,,,,,,,,,,,,,,,,,,,,,,,,4627.346000015066,,completion,,,,,,,,,1,,,,,,,,S,O,I,,128736.6500000062,128735.79500001506,124091.598,124098.64500002004,124108.449,128746.087,,,
Sounds,html.Screen,1_3_2_0,2021-04-26T14:24:43.008Z,,,,,,,,,,,,,,,,,,,,,,,,,,,,,,,4242.5899999999965,,timeout,,,,,,,,,3,,,,,,,,O,I,S,,132972.8849999956,132972.188,128729.438,128736.73500001314,128746.087,132988.677,,,
Judgement,html.Screen,1_3_2_1,2021-04-26T14:24:43.362Z,,,,,,,,,,,,,,,,,,,,,,,,,,,,true,3,,337.8480000113195,,response,,,,,,,,,3,,3,click #choice-3,,,,,O,I,S,,133327.6500000211,133326.52500001132,132972.188,132973.27000001678,132988.677,133360.223,,,
Trial,flow.Sequence,1_3_2,2021-04-26T14:24:43.363Z,,,,,,,,,,,,,,,,,,,,,,,,,,,,,,,4580.438000011316,,completion,,,,,,,,,3,,,,,,,,O,I,S,,133327.8949999949,133326.52500001132,128729.438,128736.70500001754,128746.087,133360.223,,,
Sounds,html.Screen,1_3_3_0,2021-04-26T14:24:47.626Z,,,,,,,,,,,,,,,,,,,,,,,,,,,,,,,4246.905999999988,,timeout,,,,,,,,,3,,,,,,,,I,O,S,,137591.57499999856,137590.518,133311.417,133328.0650000088,133360.223,137607.129,,,
Judgement,html.Screen,1_3_3_1,2021-04-26T14:24:47.954Z,,,,,,,,,,,,,,,,,,,,,,,,,,,,true,3,,311.6760000229988,,response,,,,,,,,,3,,3,click #choice-3,,,,,I,O,S,,137919.79499999434,137918.80500002299,137590.518,137591.81000001263,137607.129,137928.344,,,
Trial,flow.Sequence,1_3_3,2021-04-26T14:24:47.955Z,,,,,,,,,,,,,,,,,,,,,,,,,,,,,,,4558.582000022987,,completion,,,,,,,,,3,,,,,,,,I,O,S,,137920.0450000062,137918.80500002299,133311.417,133328.00999999745,133360.223,137928.344,,,
Sounds,html.Screen,1_3_4_0,2021-04-26T14:24:52.195Z,,,,,,,,,,,,,,,,,,,,,,,,,,,,,,,4247.84699999998,,timeout,,,,,,,,,2,,,,,,,,O,S,I,,142160.70999999647,142159.348,137911.732,137920.2000000223,137928.344,142176.191,,,
Judgement,html.Screen,1_3_4_1,2021-04-26T14:24:52.608Z,,,,,,,,,,,,,,,,,,,,,,,,,,,,true,2,,396.4190000029048,,response,,,,,,,,,2,,2,click #choice-2,,,,,O,S,I,,142573.59000001452,142572.6100000029,142159.348,142161.02500000852,142176.191,142605.801,,,
Trial,flow.Sequence,1_3_4,2021-04-26T14:24:52.608Z,,,,,,,,,,,,,,,,,,,,,,,,,,,,,,,4644.2660000028845,,completion,,,,,,,,,2,,,,,,,,O,S,I,,142573.8399999973,142572.6100000029,137911.732,137920.1549999998,137928.344,142605.801,,,
Sounds,html.Screen,1_3_5_0,2021-04-26T14:24:56.878Z,,,,,,,,,,,,,,,,,,,,,,,,,,,,,,,4253.547999999981,,timeout,,,,,,,,,2,,,,,,,,I,S,O,,146843.58499999507,146842.688,142557.574,142574.01500002015,142605.801,146859.349,,,
Judgement,html.Screen,1_3_5_1,2021-04-26T14:24:57.234Z,,,,,,,,,,,,,,,,,,,,,,,,,,,,true,2,,339.2809999989695,,response,,,,,,,,,2,,2,click #choice-2,,,,,I,S,O,,147199.50499999686,147198.62999999896,146842.688,146843.8100000203,146859.349,147207.604,,,
Trial,flow.Sequence,1_3_5,2021-04-26T14:24:57.234Z,,,,,,,,,,,,,,,,,,,,,,,,,,,,,,,4592.82899999895,,completion,,,,,,,,,2,,,,,,,,I,S,O,,147199.7600000177,147198.62999999896,142557.574,142573.96500001778,142605.801,147207.604,,,
Task,flow.Loop,1_3,2021-04-26T14:24:57.239Z,,,,,,,,,,,,,,,,,,,,,,,,,,,,,,,30050.682999998957,,completion,,,1,,,,,,,,,,,,,,,,,,147204.859999998,147198.62999999896,117131.235,117139.60500000394,117147.947,147207.604,,,
Trap,html.Screen,1_4,2021-04-26T14:24:57.241Z,,,,,,,,,,,,,,,,,,,,,,,,,,,,,,,NaN,,skipped,,,,,,,,,,,,,,,,,,,,,147206.36000001105,147198.62999999896,,147206.20499999495,,147207.604,,,
Thanks,html.Screen,1_5,2021-04-26T14:25:00.982Z,,,,,,,,,,,,,,,,,,,,,,,,,,,,,,,3738.596000005782,,response,,,,,,,,,,,continue,click button,,,,,,,,,150946.96000000113,150946.20000000577,147191.036,147206.49500002037,147207.604,153242.54,,,
Headphone screening,flow.Sequence,1,2021-04-26T14:25:00.982Z,,,,,,,,,,,,,,,,,,,,,,,,,,,,,,,57838.23600000577,,completion,,,,,,,,,,,,,,,,,,,,,150947.17500000843,150946.20000000577,93091.612,93105.21500001778,93107.964,153242.54,,,
Instructions,html.Page,2_0,2021-04-26T14:25:11.372Z,,,,,,,,,,,,,,,,,,,,,,,,,,,,,,,8094.650000020192,,form submission,,,,,,,,,,,,,,,,,,,,,161337.62500001467,161337.1900000202,153226.068,153242.40499999723,153242.54,161355.684,,,
Holding screen,html.Screen,2_1_0_0,2021-04-26T14:25:21.366Z,,,,,,,,,,,,,,,,,,,,,,,,,,,,,,,9991.321999999986,,timeout,,,,,,,,,,,,,,,,,,,,,171331.45500000683,171330.662,161320.894,161338.0950000137,161355.684,171347.006,,,
screen,html.Screen,2_1_0_1_0,2021-04-26T14:25:22.105Z,,,,,,,,,,,,,,,,,53,,,,,,,,,,,,,,717.3540000185021,,response,,,,99,,,,,,,Space,keypress(Space),,,,,,,,When -- ----- -- ------ - ------- --- ----------<br>------------- ------ ------ ---- ---- ------- ----- -- ----<br>-------- ------- -- ---------- --- - --- ----- ----- ----<br>---- --- --- ----- --- ---- ---- ------- ----- ---- -------<br>--- --- -- ----- -- --- ---- -- --- ---- -- ------ ------<br>--- ----- -- ----,172069.8750000156,172064.3600000185,171330.662,171331.74500000314,171347.006,172076.63,,0,When
screen,html.Screen,2_1_0_1_1,2021-04-26T14:25:22.671Z,,,,,,,,,,,,,,,,,53,,,,,,,,,,,,,,559.0599999955157,,response,,,,99,,,,,,,Space,keypress(Space),,,,,,,,---- it ----- -- ------ - ------- --- ----------<br>------------- ------ ------ ---- ---- ------- ----- -- ----<br>-------- ------- -- ---------- --- - --- ----- ----- ----<br>---- --- --- ----- --- ---- ---- ------- ----- ---- -------<br>--- --- -- ----- -- --- ---- -- --- ---- -- ------ ------<br>--- ----- -- ----,172636.46999999764,172635.68999999552,172063.247,172070.13000000734,172076.63,172640.275,,1,it
screen,html.Screen,2_1_0_1_2,2021-04-26T14:25:23.138Z,,,,,,,,,,,,,,,,,53,,,,,,,,,,,,,,461.62500000876025,,response,,,,99,,,,,,,Space,keypress(Space),,,,,,,,---- -- comes -- ------ - ------- --- ----------<br>------------- ------ ------ ---- ---- ------- ----- -- ----<br>-------- ------- -- ---------- --- - --- ----- ----- ----<br>---- --- --- ----- --- ---- ---- ------- ----- ---- -------<br>--- --- -- ----- -- --- ---- -- --- ---- -- ------ ------<br>--- ----- -- ----,173103.10000000754,173101.90000000875,172626.151,172636.6750000161,172640.275,173109.649,,2,comes
screen,html.Screen,2_1_0_1_3,2021-04-26T14:25:23.475Z,,,,,,,,,,,,,,,,,53,,,,,,,,,,,,,,329.85600001664716,,response,,,,99,,,,,,,Space,keypress(Space),,,,,,,,---- -- ----- to ------ - ------- --- ----------<br>------------- ------ ------ ---- ---- ------- ----- -- ----<br>-------- ------- -- ---------- --- - --- ----- ----- ----<br>---- --- --- ----- --- ---- ---- ------- ----- ---- -------<br>--- --- -- ----- -- --- ---- -- --- ---- -- ------ ------<br>--- ----- -- ----,173440.47000000137,173439.50500001665,173089.994,173103.4000000218,173109.649,173447.019,,3,to
screen,html.Screen,2_1_0_1_4,2021-04-26T14:25:23.760Z,,,,,,,,,,,,,,,,,53,,,,,,,,,,,,,,277.4510000155715,,response,,,,99,,,,,,,Space,keypress(Space),,,,,,,,---- -- ----- -- having - ------- --- ----------<br>------------- ------ ------ ---- ---- ------- ----- -- ----<br>-------- ------- -- ---------- --- - --- ----- ----- ----<br>---- --- --- ----- --- ---- ---- ------- ----- ---- -------<br>--- --- -- ----- -- --- ---- -- --- ---- -- ------ ------<br>--- ----- -- ----,173725.47500001383,173724.47000001557,173426.349,173440.75000000885,173447.019,173732.116,,4,having
screen,html.Screen,2_1_0_1_5,2021-04-26T14:25:24.065Z,,,,,,,,,,,,,,,,,53,,,,,,,,,,,,,,296.9440000007453,,response,,,,99,,,,,,,Space,keypress(Space),,,,,,,,---- -- ----- -- ------ a ------- --- ----------<br>------------- ------ ------ ---- ---- ------- ----- -- ----<br>-------- ------- -- ---------- --- - --- ----- ----- ----<br>---- --- --- ----- --- ---- ---- ------- ----- ---- -------<br>--- --- -- ----- -- --- ---- -- --- ---- -- ------ ------<br>--- ----- -- ----,174029.99000001,174029.06000000075,173713.815,173725.76000000117,173732.116,174037.413,,5,a
screen,html.Screen,2_1_0_1_6,2021-04-26T14:25:24.427Z,,,,,,,,,,,,,,,,,53,,,,,,,,,,,,,,353.8919999973732,,response,,,,99,,,,,,,Space,keypress(Space),,,,,,,,---- -- ----- -- ------ - lasting --- ----------<br>------------- ------ ------ ---- ---- ------- ----- -- ----<br>-------- ------- -- ---------- --- - --- ----- ----- ----<br>---- --- --- ----- --- ---- ---- ------- ----- ---- -------<br>--- --- -- ----- -- --- ---- -- --- ---- -- ------ ------<br>--- ----- -- ----,174392.39000002271,174391.30499999737,174015.27,174030.21500000614,174037.413,174399.348,,6,lasting
screen,html.Screen,2_1_0_1_7,2021-04-26T14:25:24.770Z,,,,,,,,,,,,,,,,,53,,,,,,,,,,,,,,334.5470000121277,,response,,,,99,,,,,,,Space,keypress(Space),,,,,,,,---- -- ----- -- ------ - ------- and ----------<br>------------- ------ ------ ---- ---- ------- ----- -- ----<br>-------- ------- -- ---------- --- - --- ----- ----- ----<br>---- --- --- ----- --- ---- ---- ------- ----- ---- -------<br>--- --- -- ----- -- --- ---- -- --- ---- -- ------ ------<br>--- ----- -- ----,174735.4350000096,174733.89500001213,174387.159,174392.71000001463,174399.348,174742.307,,7,and
screen,html.Screen,2_1_0_1_8,2021-04-26T14:25:25.113Z,,,,,,,,,,,,,,,,,53,,,,,,,,,,,,,,334.84299999734503,,response,,,,99,,,,,,,Space,keypress(Space),,,,,,,,---- -- ----- -- ------ - ------- --- fulfilling<br>------------- ------ ------ ---- ---- ------- ----- -- ----<br>-------- ------- -- ---------- --- - --- ----- ----- ----<br>---- --- --- ----- --- ---- ---- ------- ----- ---- -------<br>--- --- -- ----- -- --- ---- -- --- ---- -- ------ ------<br>--- ----- -- ----,175077.93500000844,175077.14999999735,174732.602,174735.91499999748,174742.307,175084.377,,8,fulfilling
screen,html.Screen,2_1_0_1_9,2021-04-26T14:25:25.621Z,,,,,,,,,,,,,,,,,53,,,,,,,,,,,,,,500.80800000354066,,response,,,,99,,,,,,,Space,keypress(Space),,,,,,,,"---- -- ----- -- ------ - ------- --- ----------<br>relationship, ------ ------ ---- ---- ------- ----- -- ----<br>-------- ------- -- ---------- --- - --- ----- ----- ----<br>---- --- --- ----- --- ---- ---- ------- ----- ---- -------<br>--- --- -- ----- -- --- ---- -- --- ---- -- ------ ------<br>--- ----- -- ----",175586.1600000062,175585.18500000355,175075.43,175078.14500000677,175084.377,175592.656,,9,"relationship,"
screen,html.Screen,2_1_0_1_10,2021-04-26T14:25:26.172Z,,,,,,,,,,,,,,,,,53,,,,,,,,,,,,,,544.4639999994251,,response,,,,99,,,,,,,Space,keypress(Space),,,,,,,,---- -- ----- -- ------ - ------- --- ----------<br>------------- common ------ ---- ---- ------- ----- -- ----<br>-------- ------- -- ---------- --- - --- ----- ----- ----<br>---- --- --- ----- --- ---- ---- ------- ----- ---- -------<br>--- --- -- ----- -- --- ---- -- --- ---- -- ------ ------<br>--- ----- -- ----,176137.8300000215,176137.1199999994,175584.054,175586.39500002027,175592.656,176144.309,,10,common
screen,html.Screen,2_1_0_1_11,2021-04-26T14:25:26.679Z,,,,,,,,,,,,,,,,,53,,,,,,,,,,,,,,498.6810000221012,,response,,,,99,,,,,,,Space,keypress(Space),,,,,,,,---- -- ----- -- ------ - ------- --- ----------<br>------------- ------ wisdom ---- ---- ------- ----- -- ----<br>-------- ------- -- ---------- --- - --- ----- ----- ----<br>---- --- --- ----- --- ---- ---- ------- ----- ---- -------<br>--- --- -- ----- -- --- ---- -- --- ---- -- ------ ------<br>--- ----- -- ----,176644.01000001817,176642.9900000221,176125.591,176138.0449999997,176144.309,176650.72,,11,wisdom
screen,html.Screen,2_1_0_1_12,2021-04-26T14:25:27.081Z,,,,,,,,,,,,,,,,,53,,,,,,,,,,,,,,394.38000001755427,,response,,,,99,,,,,,,Space,keypress(Space),,,,,,,,---- -- ----- -- ------ - ------- --- ----------<br>------------- ------ ------ says ---- ------- ----- -- ----<br>-------- ------- -- ---------- --- - --- ----- ----- ----<br>---- --- --- ----- --- ---- ---- ------- ----- ---- -------<br>--- --- -- ----- -- --- ---- -- --- ---- -- ------ ------<br>--- ----- -- ----,177046.00500001106,177045.10000001756,176644.057,176644.32000002125,176650.72,177052.709,,12,says
screen,html.Screen,2_1_0_1_13,2021-04-26T14:25:27.531Z,,,,,,,,,,,,,,,,,53,,,,,,,,,,,,,,442.801000007923,,response,,,,99,,,,,,,Space,keypress(Space),,,,,,,,---- -- ----- -- ------ - ------- --- ----------<br>------------- ------ ------ ---- that ------- ----- -- ----<br>-------- ------- -- ---------- --- - --- ----- ----- ----<br>---- --- --- ----- --- ---- ---- ------- ----- ---- -------<br>--- --- -- ----- -- --- ---- -- --- ---- -- ------ ------<br>--- ----- -- ----,177496.24000000767,177495.51000000793,177033.99,177046.2750000006,177052.709,177502.735,,13,that
screen,html.Screen,2_1_0_1_14,2021-04-26T14:25:27.981Z,,,,,,,,,,,,,,,,,53,,,,,,,,,,,,,,442.1750000201864,,response,,,,99,,,,,,,Space,keypress(Space),,,,,,,,---- -- ----- -- ------ - ------- --- ----------<br>------------- ------ ------ ---- ---- feeling ----- -- ----<br>-------- ------- -- ---------- --- - --- ----- ----- ----<br>---- --- --- ----- --- ---- ---- ------- ----- ---- -------<br>--- --- -- ----- -- --- ---- -- --- ---- -- ------ ------<br>--- ----- -- ----,177946.40499999514,177944.91000002017,177485.67,177496.47000001278,177502.735,177953.19,,14,feeling
screen,html.Screen,2_1_0_1_15,2021-04-26T14:25:28.414Z,,,,,,,,,,,,,,,,,53,,,,,,,,,,,,,,425.91000002011424,,response,,,,99,,,,,,,Space,keypress(Space),,,,,,,,---- -- ----- -- ------ - ------- --- ----------<br>------------- ------ ------ ---- ---- ------- close -- ----<br>-------- ------- -- ---------- --- - --- ----- ----- ----<br>---- --- --- ----- --- ---- ---- ------- ----- ---- -------<br>--- --- -- ----- -- --- ---- -- --- ---- -- ------ ------<br>--- ----- -- ----,178379.5500000124,178379.10000002012,177935.868,177946.74000001396,177953.19,178385.671,,15,close
screen,html.Screen,2_1_0_1_16,2021-04-26T14:25:28.813Z,,,,,,,,,,,,,,,,,53,,,,,,,,,,,,,,391.5039999956207,,response,,,,99,,,,,,,Space,keypress(Space),,,,,,,,---- -- ----- -- ------ - ------- --- ----------<br>------------- ------ ------ ---- ---- ------- ----- to ----<br>-------- ------- -- ---------- --- - --- ----- ----- ----<br>---- --- --- ----- --- ---- ---- ------- ----- ---- -------<br>--- --- -- ----- -- --- ---- -- --- ---- -- ------ ------<br>--- ----- -- ----,178777.9300000111,178777.17499999562,178369.614,178379.63500001933,178385.671,178782.848,,16,to
screen,html.Screen,2_1_0_1_17,2021-04-26T14:25:29.256Z,,,,,,,,,,,,,,,,,53,,,,,,,,,,,,,,437.87700002104975,,response,,,,99,,,,,,,Space,keypress(Space),,,,,,,,---- -- ----- -- ------ - ------- --- ----------<br>------------- ------ ------ ---- ---- ------- ----- -- your<br>-------- ------- -- ---------- --- - --- ----- ----- ----<br>---- --- --- ----- --- ---- ---- ------- ----- ---- -------<br>--- --- -- ----- -- --- ---- -- --- ---- -- ------ ------<br>--- ----- -- ----,179221.3300000003,179220.72500002105,178766.226,178778.12500001164,178782.848,179227.573,,17,your
screen,html.Screen,2_1_0_1_18,2021-04-26T14:25:29.725Z,,,,,,,,,,,,,,,,,53,,,,,,,,,,,,,,461.87199999633594,,response,,,,99,,,,,,,Space,keypress(Space),,,,,,,,---- -- ----- -- ------ - ------- --- ----------<br>------------- ------ ------ ---- ---- ------- ----- -- ----<br>romantic ------- -- ---------- --- - --- ----- ----- ----<br>---- --- --- ----- --- ---- ---- ------- ----- ---- -------<br>--- --- -- ----- -- --- ---- -- --- ---- -- ------ ------<br>--- ----- -- ----,179690.14000002062,179689.44499999634,179216.068,179221.48999999627,179227.573,179696.588,,18,romantic
screen,html.Screen,2_1_0_1_19,2021-04-26T14:25:30.157Z,,,,,,,,,,,,,,,,,53,,,,,,,,,,,,,,425.14700002246536,,response,,,,99,,,,,,,Space,keypress(Space),,,,,,,,---- -- ----- -- ------ - ------- --- ----------<br>------------- ------ ------ ---- ---- ------- ----- -- ----<br>-------- partner -- ---------- --- - --- ----- ----- ----<br>---- --- --- ----- --- ---- ---- ------- ----- ---- -------<br>--- --- -- ----- -- --- ---- -- --- ---- -- ------ ------<br>--- ----- -- ----,180122.83000000753,180121.73500002245,179677.34,179690.33500002115,179696.588,180129.352,,19,partner
screen,html.Screen,2_1_0_1_20,2021-04-26T14:25:30.550Z,,,,,,,,,,,,,,,,,53,,,,,,,,,,,,,,385.1930000127177,,response,,,,99,,,,,,,Space,keypress(Space),,,,,,,,---- -- ----- -- ------ - ------- --- ----------<br>------------- ------ ------ ---- ---- ------- ----- -- ----<br>-------- ------- is ---------- --- - --- ----- ----- ----<br>---- --- --- ----- --- ---- ---- ------- ----- ---- -------<br>--- --- -- ----- -- --- ---- -- --- ---- -- ------ ------<br>--- ----- -- ----,180515.1950000145,180514.54500001273,180113.193,180123.10500000603,180129.352,180521.549,,20,is
screen,html.Screen,2_1_0_1_21,2021-04-26T14:25:31.285Z,,,,,,,,,,,,,,,,,53,,,,,,,,,,,,,,727.4259999949718,,response,,,,99,,,,,,,Space,keypress(Space),,,,,,,,---- -- ----- -- ------ - ------- --- ----------<br>------------- ------ ------ ---- ---- ------- ----- -- ----<br>-------- ------- -- paramount. --- - --- ----- ----- ----<br>---- --- --- ----- --- ---- ---- ------- ----- ---- -------<br>--- --- -- ----- -- --- ---- -- --- ---- -- ------ ------<br>--- ----- -- ----,181250.00500000897,181248.97499999497,180512.424,180515.37500001723,180521.549,181256.905,,21,paramount.
screen,html.Screen,2_1_0_1_22,2021-04-26T14:25:31.722Z,,,,,,,,,,,,,,,,,53,,,,,,,,,,,,,,429.2350000052538,,response,,,,99,,,,,,,Space,keypress(Space),,,,,,,,---- -- ----- -- ------ - ------- --- ----------<br>------------- ------ ------ ---- ---- ------- ----- -- ----<br>-------- ------- -- ---------- But - --- ----- ----- ----<br>---- --- --- ----- --- ---- ---- ------- ----- ---- -------<br>--- --- -- ----- -- --- ---- -- --- ---- -- ------ ------<br>--- ----- -- ----,181687.23500001943,181686.14000000525,181237.757,181250.32000002102,181256.905,181694.056,,22,But
screen,html.Screen,2_1_0_1_23,2021-04-26T14:25:32.118Z,,,,,,,,,,,,,,,,,53,,,,,,,,,,,,,,387.8639999968873,,response,,,,99,,,,,,,Space,keypress(Space),,,,,,,,---- -- ----- -- ------ - ------- --- ----------<br>------------- ------ ------ ---- ---- ------- ----- -- ----<br>-------- ------- -- ---------- --- a --- ----- ----- ----<br>---- --- --- ----- --- ---- ---- ------- ----- ---- -------<br>--- --- -- ----- -- --- ---- -- --- ---- -- ------ ------<br>--- ----- -- ----,182082.95500001987,182081.9199999969,181673.473,181687.51000001794,181694.056,182089.795,,23,a
screen,html.Screen,2_1_0_1_24,2021-04-26T14:25:32.515Z,,,,,,,,,,,,,,,,,53,,,,,,,,,,,,,,389.5050000063202,,response,,,,99,,,,,,,Space,keypress(Space),,,,,,,,---- -- ----- -- ------ - ------- --- ----------<br>------------- ------ ------ ---- ---- ------- ----- -- ----<br>-------- ------- -- ---------- --- - new ----- ----- ----<br>---- --- --- ----- --- ---- ---- ------- ----- ---- -------<br>--- --- -- ----- -- --- ---- -- --- ---- -- ------ ------<br>--- ----- -- ----,182480.2900000068,182479.30000000633,182076.949,182083.28500000061,182089.795,182486.753,,24,new
screen,html.Screen,2_1_0_1_25,2021-04-26T14:25:32.958Z,,,,,,,,,,,,,,,,,53,,,,,,,,,,,,,,436.0470000002824,,response,,,,99,,,,,,,Space,keypress(Space),,,,,,,,---- -- ----- -- ------ - ------- --- ----------<br>------------- ------ ------ ---- ---- ------- ----- -- ----<br>-------- ------- -- ---------- --- - --- study ----- ----<br>---- --- --- ----- --- ---- ---- ------- ----- ---- -------<br>--- --- -- ----- -- --- ---- -- --- ---- -- ------ ------<br>--- ----- -- ----,182923.66000000038,182922.80000000028,182472.884,182480.47999999835,182486.753,182930.18,,25,study
screen,html.Screen,2_1_0_1_26,2021-04-26T14:25:33.327Z,,,,,,,,,,,,,,,,,53,,,,,,,,,,,,,,361.3200000211946,,response,,,,99,,,,,,,Space,keypress(Space),,,,,,,,---- -- ----- -- ------ - ------- --- ----------<br>------------- ------ ------ ---- ---- ------- ----- -- ----<br>-------- ------- -- ---------- --- - --- ----- finds ----<br>---- --- --- ----- --- ---- ---- ------- ----- ---- -------<br>--- --- -- ----- -- --- ---- -- --- ---- -- ------ ------<br>--- ----- -- ----,183292.50500001945,183291.5000000212,182919.743,182923.87500000768,182930.18,183299.192,,26,finds
screen,html.Screen,2_1_0_1_27,2021-04-26T14:25:33.708Z,,,,,,,,,,,,,,,,,53,,,,,,,,,,,,,,373.7230000028212,,response,,,,99,,,,,,,Space,keypress(Space),,,,,,,,---- -- ----- -- ------ - ------- --- ----------<br>------------- ------ ------ ---- ---- ------- ----- -- ----<br>-------- ------- -- ---------- --- - --- ----- ----- that<br>---- --- --- ----- --- ---- ---- ------- ----- ---- -------<br>--- --- -- ----- -- --- ---- -- --- ---- -- ------ ------<br>--- ----- -- ----,183673.73000000953,183672.91500000283,183280.121,183292.8050000046,183299.192,183680.281,,27,that
screen,html.Screen,2_1_0_1_28,2021-04-26T14:25:34.139Z,,,,,,,,,,,,,,,,,53,,,,,,,,,,,,,,422.70400000500376,,response,,,,99,,,,,,,Space,keypress(Space),,,,,,,,---- -- ----- -- ------ - ------- --- ----------<br>------------- ------ ------ ---- ---- ------- ----- -- ----<br>-------- ------- -- ---------- --- - --- ----- ----- ----<br>it's --- --- ----- --- ---- ---- ------- ----- ---- -------<br>--- --- -- ----- -- --- ---- -- --- ---- -- ------ ------<br>--- ----- -- ----,184104.09999999683,184102.985000005,183665.587,183673.99000001024,183680.281,184111.069,,28,it's
screen,html.Screen,2_1_0_1_29,2021-04-26T14:25:34.470Z,,,,,,,,,,,,,,,,,53,,,,,,,,,,,,,,323.7110000105167,,response,,,,99,,,,,,,Space,keypress(Space),,,,,,,,---- -- ----- -- ------ - ------- --- ----------<br>------------- ------ ------ ---- ---- ------- ----- -- ----<br>-------- ------- -- ---------- --- - --- ----- ----- ----<br>---- not --- ----- --- ---- ---- ------- ----- ---- -------<br>--- --- -- ----- -- --- ---- -- --- ---- -- ------ ------<br>--- ----- -- ----,184435.58499999926,184434.7800000105,184096.819,184104.53000001144,184111.069,184442.032,,29,not
screen,html.Screen,2_1_0_1_30,2021-04-26T14:25:34.833Z,,,,,,,,,,,,,,,,,53,,,,,,,,,,,,,,354.0330000022659,,response,,,,99,,,,,,,Space,keypress(Space),,,,,,,,---- -- ----- -- ------ - ------- --- ----------<br>------------- ------ ------ ---- ---- ------- ----- -- ----<br>-------- ------- -- ---------- --- - --- ----- ----- ----<br>---- --- how ----- --- ---- ---- ------- ----- ---- -------<br>--- --- -- ----- -- --- ---- -- --- ---- -- ------ ------<br>--- ----- -- ----,184797.88500000723,184796.06500000227,184427.469,184435.82000001334,184442.032,184804.733,,30,how
screen,html.Screen,2_1_0_1_31,2021-04-26T14:25:35.209Z,,,,,,,,,,,,,,,,,53,,,,,,,,,,,,,,368.6120000174269,,response,,,,99,,,,,,,Space,keypress(Space),,,,,,,,---- -- ----- -- ------ - ------- --- ----------<br>------------- ------ ------ ---- ---- ------- ----- -- ----<br>-------- ------- -- ---------- --- - --- ----- ----- ----<br>---- --- --- close --- ---- ---- ------- ----- ---- -------<br>--- --- -- ----- -- --- ---- -- --- ---- -- ------ ------<br>--- ----- -- ----,185174.37500000233,185173.34500001743,184791.847,184798.2750000083,184804.733,185180.845,,31,close
screen,html.Screen,2_1_0_1_32,2021-04-26T14:25:35.530Z,,,,,,,,,,,,,,,,,53,,,,,,,,,,,,,,313.3000000042084,,response,,,,99,,,,,,,Space,keypress(Space),,,,,,,,---- -- ----- -- ------ - ------- --- ----------<br>------------- ------ ------ ---- ---- ------- ----- -- ----<br>-------- ------- -- ---------- --- - --- ----- ----- ----<br>---- --- --- ----- you ---- ---- ------- ----- ---- -------<br>--- --- -- ----- -- --- ---- -- --- ---- -- ------ ------<br>--- ----- -- ----,185495.0550000067,185494.1450000042,185171.002,185174.59000000963,185180.845,185501.733,,32,you
screen,html.Screen,2_1_0_1_33,2021-04-26T14:25:35.874Z,,,,,,,,,,,,,,,,,53,,,,,,,,,,,,,,336.44200001168065,,response,,,,99,,,,,,,Space,keypress(Space),,,,,,,,---- -- ----- -- ------ - ------- --- ----------<br>------------- ------ ------ ---- ---- ------- ----- -- ----<br>-------- ------- -- ---------- --- - --- ----- ----- ----<br>---- --- --- ----- --- feel ---- ------- ----- ---- -------<br>--- --- -- ----- -- --- ---- -- --- ---- -- ------ ------<br>--- ----- -- ----,185839.59499999764,185838.1750000117,185480.588,185495.30500001856,185501.733,185846.478,,33,feel
screen,html.Screen,2_1_0_1_34,2021-04-26T14:25:36.183Z,,,,,,,,,,,,,,,,,53,,,,,,,,,,,,,,301.2019999945769,,response,,,,99,,,,,,,Space,keypress(Space),,,,,,,,---- -- ----- -- ------ - ------- --- ----------<br>------------- ------ ------ ---- ---- ------- ----- -- ----<br>-------- ------- -- ---------- --- - --- ----- ----- ----<br>---- --- --- ----- --- ---- that ------- ----- ---- -------<br>--- --- -- ----- -- --- ---- -- --- ---- -- ------ ------<br>--- ----- -- ----,186148.40500001446,186147.67999999458,185834.746,185839.9849999987,185846.478,186154.991,,34,that
screen,html.Screen,2_1_0_1_35,2021-04-26T14:25:36.466Z,,,,,,,,,,,,,,,,,53,,,,,,,,,,,,,,275.32900001402595,,response,,,,99,,,,,,,Space,keypress(Space),,,,,,,,---- -- ----- -- ------ - ------- --- ----------<br>------------- ------ ------ ---- ---- ------- ----- -- ----<br>-------- ------- -- ---------- --- - --- ----- ----- ----<br>---- --- --- ----- --- ---- ---- matters ----- ---- -------<br>--- --- -- ----- -- --- ---- -- --- ---- -- ------ ------<br>--- ----- -- ----,186431.55000000843,186430.32000001404,186146.438,186148.60499999486,186154.991,186439.438,,35,matters
screen,html.Screen,2_1_0_1_36,2021-04-26T14:25:36.770Z,,,,,,,,,,,,,,,,,53,,,,,,,,,,,,,,294.3519999984128,,response,,,,99,,,,,,,Space,keypress(Space),,,,,,,,"---- -- ----- -- ------ - ------- --- ----------<br>------------- ------ ------ ---- ---- ------- ----- -- ----<br>-------- ------- -- ---------- --- - --- ----- ----- ----<br>---- --- --- ----- --- ---- ---- ------- most, ---- -------<br>--- --- -- ----- -- --- ---- -- --- ---- -- ------ ------<br>--- ----- -- ----",186735.44499999844,186733.7899999984,186421.476,186433.09500001487,186439.438,186744.283,,36,"most,"
screen,html.Screen,2_1_0_1_37,2021-04-26T14:25:37.475Z,,,,,,,,,,,,,,,,,53,,,,,,,,,,,,,,695.0920000163023,,response,,,,99,,,,,,,Space,keypress(Space),,,,,,,,---- -- ----- -- ------ - ------- --- ----------<br>------------- ------ ------ ---- ---- ------- ----- -- ----<br>-------- ------- -- ---------- --- - --- ----- ----- ----<br>---- --- --- ----- --- ---- ---- ------- ----- it's -------<br>--- --- -- ----- -- --- ---- -- --- ---- -- ------ ------<br>--- ----- -- ----,187440.06000002264,187439.3750000163,186722.518,186735.69000000134,186744.283,187446.412,,37,it's
screen,html.Screen,2_1_0_1_38,2021-04-26T14:25:37.831Z,,,,,,,,,,,,,,,,,53,,,,,,,,,,,,,,349.0280000162311,,response,,,,99,,,,,,,Space,keypress(Space),,,,,,,,---- -- ----- -- ------ - ------- --- ----------<br>------------- ------ ------ ---- ---- ------- ----- -- ----<br>-------- ------- -- ---------- --- - --- ----- ----- ----<br>---- --- --- ----- --- ---- ---- ------- ----- ---- whether<br>--- --- -- ----- -- --- ---- -- --- ---- -- ------ ------<br>--- ----- -- ----,187796.28500001854,187795.44000001624,187427.079,187440.23999999627,187446.412,187802.961,,38,whether
screen,html.Screen,2_1_0_1_39,2021-04-26T14:25:38.255Z,,,,,,,,,,,,,,,,,53,,,,,,,,,,,,,,416.47400000633206,,response,,,,99,,,,,,,Space,keypress(Space),,,,,,,,---- -- ----- -- ------ - ------- --- ----------<br>------------- ------ ------ ---- ---- ------- ----- -- ----<br>-------- ------- -- ---------- --- - --- ----- ----- ----<br>---- --- --- ----- --- ---- ---- ------- ----- ---- -------<br>you --- -- ----- -- --- ---- -- --- ---- -- ------ ------<br>--- ----- -- ----,188219.96000001673,188219.43500000634,187796.41,187796.5200000035,187802.961,188226.191,,39,you
screen,html.Screen,2_1_0_1_40,2021-04-26T14:25:38.604Z,,,,,,,,,,,,,,,,,53,,,,,,,,,,,,,,342.1440000181319,,response,,,,99,,,,,,,Space,keypress(Space),,,,,,,,---- -- ----- -- ------ - ------- --- ----------<br>------------- ------ ------ ---- ---- ------- ----- -- ----<br>-------- ------- -- ---------- --- - --- ----- ----- ----<br>---- --- --- ----- --- ---- ---- ------- ----- ---- -------<br>--- are -- ----- -- --- ---- -- --- ---- -- ------ ------<br>--- ----- -- ----,188569.42000001436,188568.33500001812,188219.219,188220.09000001708,188226.191,188576.359,,40,are
screen,html.Screen,2_1_0_1_41,2021-04-26T14:25:39.235Z,,,,,,,,,,,,,,,,,53,,,,,,,,,,,,,,623.2210000149789,,response,,,,99,,,,,,,Space,keypress(Space),,,,,,,,---- -- ----- -- ------ - ------- --- ----------<br>------------- ------ ------ ---- ---- ------- ----- -- ----<br>-------- ------- -- ---------- --- - --- ----- ----- ----<br>---- --- --- ----- --- ---- ---- ------- ----- ---- -------<br>--- --- as ----- -- --- ---- -- --- ---- -- ------ ------<br>--- ----- -- ----,189200.68999999785,189199.58000001498,188559.333,188569.72500000848,188576.359,189207.511,,41,as
screen,html.Screen,2_1_0_1_42,2021-04-26T14:25:39.530Z,,,,,,,,,,,,,,,,,53,,,,,,,,,,,,,,286.75400001573144,,response,,,,99,,,,,,,Space,keypress(Space),,,,,,,,---- -- ----- -- ------ - ------- --- ----------<br>------------- ------ ------ ---- ---- ------- ----- -- ----<br>-------- ------- -- ---------- --- - --- ----- ----- ----<br>---- --- --- ----- --- ---- ---- ------- ----- ---- -------<br>--- --- -- close -- --- ---- -- --- ---- -- ------ ------<br>--- ----- -- ----,189495.23000000045,189494.26500001573,189192.607,189201.02500001667,189207.511,189502.118,,42,close
screen,html.Screen,2_1_0_1_43,2021-04-26T14:25:39.763Z,,,,,,,,,,,,,,,,,53,,,,,,,,,,,,,,225.42700000156765,,response,,,,99,,,,,,,Space,keypress(Space),,,,,,,,---- -- ----- -- ------ - ------- --- ----------<br>------------- ------ ------ ---- ---- ------- ----- -- ----<br>-------- ------- -- ---------- --- - --- ----- ----- ----<br>---- --- --- ----- --- ---- ---- ------- ----- ---- -------<br>--- --- -- ----- as --- ---- -- --- ---- -- ------ ------<br>--- ----- -- ----,189728.65500001353,189727.54500000156,189490.703,189495.54000000353,189502.118,189735.519,,43,as
screen,html.Screen,2_1_0_1_44,2021-04-26T14:25:40.168Z,,,,,,,,,,,,,,,,,53,,,,,,,,,,,,,,397.0210000205261,,response,,,,99,,,,,,,Space,keypress(Space),,,,,,,,---- -- ----- -- ------ - ------- --- ----------<br>------------- ------ ------ ---- ---- ------- ----- -- ----<br>-------- ------- -- ---------- --- - --- ----- ----- ----<br>---- --- --- ----- --- ---- ---- ------- ----- ---- -------<br>--- --- -- ----- -- you ---- -- --- ---- -- ------ ------<br>--- ----- -- ----,190133.47000000067,190132.54000002053,189718.556,189728.97500000545,189735.519,190142.922,,44,you
screen,html.Screen,2_1_0_1_45,2021-04-26T14:25:40.472Z,,,,,,,,,,,,,,,,,53,,,,,,,,,,,,,,293.7830000000831,,response,,,,99,,,,,,,Space,keypress(Space),,,,,,,,---- -- ----- -- ------ - ------- --- ----------<br>------------- ------ ------ ---- ---- ------- ----- -- ----<br>-------- ------- -- ---------- --- - --- ----- ----- ----<br>---- --- --- ----- --- ---- ---- ------- ----- ---- -------<br>--- --- -- ----- -- --- want -- --- ---- -- ------ ------<br>--- ----- -- ----,190437.38000001758,190436.70500000007,190135.276,190136.5850000002,190142.922,190444.164,,45,want
screen,html.Screen,2_1_0_1_46,2021-04-26T14:25:40.794Z,,,,,,,,,,,,,,,,,53,,,,,,,,,,,,,,314.8260000020964,,response,,,,99,,,,,,,Space,keypress(Space),,,,,,,,---- -- ----- -- ------ - ------- --- ----------<br>------------- ------ ------ ---- ---- ------- ----- -- ----<br>-------- ------- -- ---------- --- - --- ----- ----- ----<br>---- --- --- ----- --- ---- ---- ------- ----- ---- -------<br>--- --- -- ----- -- --- ---- to --- ---- -- ------ ------<br>--- ----- -- ----,190759.79000001098,190758.9900000021,190426.065,190437.5,190444.164,190766.334,,46,to
screen,html.Screen,2_1_0_1_47,2021-04-26T14:25:41.103Z,,,,,,,,,,,,,,,,,53,,,,,,,,,,,,,,301.2660000094038,,response,,,,99,,,,,,,Space,keypress(Space),,,,,,,,"---- -- ----- -- ------ - ------- --- ----------<br>------------- ------ ------ ---- ---- ------- ----- -- ----<br>-------- ------- -- ---------- --- - --- ----- ----- ----<br>---- --- --- ----- --- ---- ---- ------- ----- ---- -------<br>--- --- -- ----- -- --- ---- -- be, ---- -- ------ ------<br>--- ----- -- ----",191068.63500000327,191067.6000000094,190744.291,190760.02000001608,190766.334,191075.473,,47,"be,"
screen,html.Screen,2_1_0_1_48,2021-04-26T14:25:41.675Z,,,,,,,,,,,,,,,,,53,,,,,,,,,,,,,,564.362000009045,,response,,,,99,,,,,,,Space,keypress(Space),,,,,,,,---- -- ----- -- ------ - ------- --- ----------<br>------------- ------ ------ ---- ---- ------- ----- -- ----<br>-------- ------- -- ---------- --- - --- ----- ----- ----<br>---- --- --- ----- --- ---- ---- ------- ----- ---- -------<br>--- --- -- ----- -- --- ---- -- --- even -- ------ ------<br>--- ----- -- ----,191640.6399999978,191639.83500000904,191066.18,191068.92000001972,191075.473,191664.007,,48,even
screen,html.Screen,2_1_0_1_49,2021-04-26T14:25:41.944Z,,,,,,,,,,,,,,,,,53,,,,,,,,,,,,,,244.4329999992333,,response,,,,99,,,,,,,Space,keypress(Space),,,,,,,,---- -- ----- -- ------ - ------- --- ----------<br>------------- ------ ------ ---- ---- ------- ----- -- ----<br>-------- ------- -- ---------- --- - --- ----- ----- ----<br>---- --- --- ----- --- ---- ---- ------- ----- ---- -------<br>--- --- -- ----- -- --- ---- -- --- ---- if ------ ------<br>--- ----- -- ----,191909.13499999442,191908.43999999925,191647.351,191641.100000008,191664.007,191915.419,,49,if
screen,html.Screen,2_1_0_1_50,2021-04-26T14:25:42.228Z,,,,,,,,,,,,,,,,,53,,,,,,,,,,,,,,276.7610000127461,,response,,,,99,,,,,,,Space,keypress(Space),,,,,,,,---- -- ----- -- ------ - ------- --- ----------<br>------------- ------ ------ ---- ---- ------- ----- -- ----<br>-------- ------- -- ---------- --- - --- ----- ----- ----<br>---- --- --- ----- --- ---- ---- ------- ----- ---- -------<br>--- --- -- ----- -- --- ---- -- --- ---- -- that's ------<br>--- ----- -- ----,192192.9700000037,192192.18000001274,191897.317,191909.30500000832,191915.419,192199.588,,50,that's
screen,html.Screen,2_1_0_1_51,2021-04-26T14:25:42.509Z,,,,,,,,,,,,,,,,,53,,,,,,,,,,,,,,273.5170000118669,,response,,,,99,,,,,,,Space,keypress(Space),,,,,,,,---- -- ----- -- ------ - ------- --- ----------<br>------------- ------ ------ ---- ---- ------- ----- -- ----<br>-------- ------- -- ---------- --- - --- ----- ----- ----<br>---- --- --- ----- --- ---- ---- ------- ----- ---- -------<br>--- --- -- ----- -- --- ---- -- --- ---- -- ------ really<br>--- ----- -- ----,192474.04500000994,192473.10500001186,192182.292,192193.19000001997,192199.588,192480.704,,51,really
screen,html.Screen,2_1_0_1_52,2021-04-26T14:25:42.973Z,,,,,,,,,,,,,,,,,53,,,,,,,,,,,,,,457.0209999961371,,response,,,,99,,,,,,,Space,keypress(Space),,,,,,,,---- -- ----- -- ------ - ------- --- ----------<br>------------- ------ ------ ---- ---- ------- ----- -- ----<br>-------- ------- -- ---------- --- - --- ----- ----- ----<br>---- --- --- ----- --- ---- ---- ------- ----- ---- -------<br>--- --- -- ----- -- --- ---- -- --- ---- -- ------ ------<br>not ----- -- ----,192938.17999999737,192937.72499999614,192466.115,192474.30500001065,192480.704,192944.199,,52,not
screen,html.Screen,2_1_0_1_53,2021-04-26T14:25:43.264Z,,,,,,,,,,,,,,,,,53,,,,,,,,,,,,,,284.4760000203096,,response,,,,99,,,,,,,Space,keypress(Space),,,,,,,,---- -- ----- -- ------ - ------- --- ----------<br>------------- ------ ------ ---- ---- ------- ----- -- ----<br>-------- ------- -- ---------- --- - --- ----- ----- ----<br>---- --- --- ----- --- ---- ---- ------- ----- ---- -------<br>--- --- -- ----- -- --- ---- -- --- ---- -- ------ ------<br>--- close -- ----,193229.565000016,193228.6750000203,192930.398,192938.28000000212,192944.199,193236.053,,53,close
screen,html.Screen,2_1_0_1_54,2021-04-26T14:25:43.581Z,,,,,,,,,,,,,,,,,53,,,,,,,,,,,,,,309.5520000211545,,response,,,,99,,,,,,,Space,keypress(Space),,,,,,,,---- -- ----- -- ------ - ------- --- ----------<br>------------- ------ ------ ---- ---- ------- ----- -- ----<br>-------- ------- -- ---------- --- - --- ----- ----- ----<br>---- --- --- ----- --- ---- ---- ------- ----- ---- -------<br>--- --- -- ----- -- --- ---- -- --- ---- -- ------ ------<br>--- ----- at ----,193546.45500000333,193545.60500002117,193227.608,193229.77000000537,193236.053,193553.008,,54,at
screen,html.Screen,2_1_0_1_55,2021-04-26T14:25:44.124Z,,,,,,,,,,,,,,,,,53,,,,,,,,,,,,,,535.3170000188111,,response,,,,99,,,,,,,Space,keypress(Space),,,,,,,,---- -- ----- -- ------ - ------- --- ----------<br>------------- ------ ------ ---- ---- ------- ----- -- ----<br>-------- ------- -- ---------- --- - --- ----- ----- ----<br>---- --- --- ----- --- ---- ---- ------- ----- ---- -------<br>--- --- -- ----- -- --- ---- -- --- ---- -- ------ ------<br>--- ----- -- all.,194088.92999999807,194088.3250000188,193536.003,193546.67999999947,193553.008,194095.566,,55,all.
Item 99,flow.Loop,2_1_0_1,2021-04-26T14:25:44.124Z,,,,,,,,,,,,,,,,,,,,,,,,,,,,,,,22741.31900001882,,completion,,,,,C,,,,,,,,,,,silence,,,,,194089.20499999658,194088.3250000188,171330.662,171331.66500000516,171347.006,194095.566,,,
Question 1,html.Screen,2_1_0_2,2021-04-26T14:25:47.612Z,,,,,,,,,,,,,,,,,,,,,,,,,,,,true,FALSE,,3480.539000014658,,response,,,,99,C,,,,,,FALSE,click #choice-2,,,,silence,,,,,197576.8800000078,197576.10500001465,194085.97,194089.33499999694,194095.566,197598.679,,,
Question 2,html.Screen,2_1_0_3,2021-04-26T14:25:51.168Z,,,,,,,,,,,,,,,,,,,,,,,,,,,,true,TRUE,,3533.5260000017006,,response,,,,99,C,,,,,,TRUE,click #choice-1,,,,silence,,,,,201133.0650000018,201132.2050000017,197560.859,197577.0049999992,197598.679,201134.212,,,
Item 99,flow.Sequence,2_1_0,2021-04-26T14:25:51.168Z,,,,,,,,,,,,,,,,,,,,,,,,,,,,,,,39776.521000001696,,completion,,,,,,,,,,,,,,,,,,,,,201133.27500000014,201132.2050000017,161320.894,161338.0500000203,161355.684,201134.212,,,
Holding screen,html.Screen,2_1_1_0,2021-04-26T14:26:01.149Z,,,,,,,,,,,,,,,,,,,,,,,,,,,,,,,9996.128999999986,,timeout,,,,,,,,,,,,,,,,,,,,,211114.67999999877,211113.748,201117.722,201133.42500000726,201134.212,211130.341,,,
screen,html.Screen,2_1_1_1_0,2021-04-26T14:26:01.829Z,,,,,,,,,,,,,,,,,54,,,,,,,,,,,,,,662.8339999988966,,response,,,,100,,,,,,,Space,keypress(Space),,,,,,,,At --- ---- --- ------ ----- ------- ---- -- --- ------- --<br>------- ---------- ------ -- ----- -- ----- -- ---- ------<br>--- ----- --- --- ------ -------- ----- --- ------ ----- --<br>----- ----- ---------- --- --- ------ ------ ---- -- ------<br>------- --- ------ ----- --- ---- ------- -- ---- --- --<br>------- ------,211794.03000001912,211793.17499999888,211113.748,211114.985000022,211130.341,211800.61,,0,At
screen,html.Screen,2_1_1_1_1,2021-04-26T14:26:02.154Z,,,,,,,,,,,,,,,,,54,,,,,,,,,,,,,,318.0650000051828,,response,,,,100,,,,,,,Space,keypress(Space),,,,,,,,-- the ---- --- ------ ----- ------- ---- -- --- ------- --<br>------- ---------- ------ -- ----- -- ----- -- ---- ------<br>--- ----- --- --- ------ -------- ----- --- ------ ----- --<br>----- ----- ---------- --- --- ------ ------ ---- -- ------<br>------- --- ------ ----- --- ---- ------- -- ---- --- --<br>------- ------,212119.38499999815,212118.67500000517,211780.112,211794.2650000041,211800.61,212126.34,,1,the
screen,html.Screen,2_1_1_1_2,2021-04-26T14:26:02.438Z,,,,,,,,,,,,,,,,,54,,,,,,,,,,,,,,276.5200000019686,,response,,,,100,,,,,,,Space,keypress(Space),,,,,,,,-- --- time --- ------ ----- ------- ---- -- --- ------- --<br>------- ---------- ------ -- ----- -- ----- -- ---- ------<br>--- ----- --- --- ------ -------- ----- --- ------ ----- --<br>----- ----- ---------- --- --- ------ ------ ---- -- ------<br>------- --- ------ ----- --- ---- ------- -- ---- --- --<br>------- ------,212403.6699999997,212402.86000000197,212117.206,212119.57999999868,212126.34,212410.407,,2,time
screen,html.Screen,2_1_1_1_3,2021-04-26T14:26:02.783Z,,,,,,,,,,,,,,,,,54,,,,,,,,,,,,,,336.62299999862444,,response,,,,100,,,,,,,Space,keypress(Space),,,,,,,,-- --- ---- the ------ ----- ------- ---- -- --- ------- --<br>------- ---------- ------ -- ----- -- ----- -- ---- ------<br>--- ----- --- --- ------ -------- ----- --- ------ ----- --<br>----- ----- ---------- --- --- ------ ------ ---- -- ------<br>------- --- ------ ----- --- ---- ------- -- ---- --- --<br>------- ------,212748.0950000172,212747.02999999863,212392.215,212403.89499999583,212410.407,212754.843,,3,the
screen,html.Screen,2_1_1_1_4,2021-04-26T14:26:03.270Z,,,,,,,,,,,,,,,,,54,,,,,,,,,,,,,,479.5270000201417,,response,,,,100,,,,,,,Space,keypress(Space),,,,,,,,-- --- ---- --- French ----- ------- ---- -- --- ------- --<br>------- ---------- ------ -- ----- -- ----- -- ---- ------<br>--- ----- --- --- ------ -------- ----- --- ------ ----- --<br>----- ----- ---------- --- --- ------ ------ ---- -- ------<br>------- --- ------ ----- --- ---- ------- -- ---- --- --<br>------- ------,213235.480000003,213234.37000002014,212743.387,212748.41500000912,212754.843,213242.207,,4,French
screen,html.Screen,2_1_1_1_5,2021-04-26T14:26:03.595Z,,,,,,,,,,,,,,,,,54,,,,,,,,,,,,,,316.87300000636606,,response,,,,100,,,,,,,Space,keypress(Space),,,,,,,,-- --- ---- --- ------ crown ------- ---- -- --- ------- --<br>------- ---------- ------ -- ----- -- ----- -- ---- ------<br>--- ----- --- --- ------ -------- ----- --- ------ ----- --<br>----- ----- ---------- --- --- ------ ------ ---- -- ------<br>------- --- ------ ----- --- ---- ------- -- ---- --- --<br>------- ------,213560.41500001447,213559.08000000636,213221.217,213235.76999999932,213242.207,213567.47,,5,crown
screen,html.Screen,2_1_1_1_6,2021-04-26T14:26:03.919Z,,,,,,,,,,,,,,,,,54,,,,,,,,,,,,,,316.7900000207301,,response,,,,100,,,,,,,Space,keypress(Space),,,,,,,,-- --- ---- --- ------ ----- secured ---- -- --- ------- --<br>------- ---------- ------ -- ----- -- ----- -- ---- ------<br>--- ----- --- --- ------ -------- ----- --- ------ ----- --<br>----- ----- ---------- --- --- ------ ------ ---- -- ------<br>------- --- ------ ----- --- ---- ------- -- ---- --- --<br>------- ------,213884.82000000658,213884.26000002073,213558.634,213560.8700000157,213567.47,213890.988,,6,secured
screen,html.Screen,2_1_1_1_7,2021-04-26T14:26:04.295Z,,,,,,,,,,,,,,,,,54,,,,,,,,,,,,,,368.68700000841636,,response,,,,100,,,,,,,Space,keypress(Space),,,,,,,,-- --- ---- --- ------ ----- ------- much -- --- ------- --<br>------- ---------- ------ -- ----- -- ----- -- ---- ------<br>--- ----- --- --- ------ -------- ----- --- ------ ----- --<br>----- ----- ---------- --- --- ------ ------ ---- -- ------<br>------- --- ------ ----- --- ---- ------- -- ---- --- --<br>------- ------,214260.75000001583,214259.67500000843,213883.878,213884.96500000474,213890.988,214267.597,,7,much
screen,html.Screen,2_1_1_1_8,2021-04-26T14:26:04.774Z,,,,,,,,,,,,,,,,,54,,,,,,,,,,,,,,471.4329999969923,,response,,,,100,,,,,,,Space,keypress(Space),,,,,,,,-- --- ---- --- ------ ----- ------- ---- of --- ------- --<br>------- ---------- ------ -- ----- -- ----- -- ---- ------<br>--- ----- --- --- ------ -------- ----- --- ------ ----- --<br>----- ----- ---------- --- --- ------ ------ ---- -- ------<br>------- --- ------ ----- --- ---- ------- -- ---- --- --<br>------- ------,214739.9049999949,214739.029999997,214257.527,214261.07999999658,214267.597,214742.515,,8,of
screen,html.Screen,2_1_1_1_9,2021-04-26T14:26:05.100Z,,,,,,,,,,,,,,,,,54,,,,,,,,,,,,,,321.50999999966007,,response,,,,100,,,,,,,Space,keypress(Space),,,,,,,,-- --- ---- --- ------ ----- ------- ---- -- its ------- --<br>------- ---------- ------ -- ----- -- ----- -- ---- ------<br>--- ----- --- --- ------ -------- ----- --- ------ ----- --<br>----- ----- ---------- --- --- ------ ------ ---- -- ------<br>------- --- ------ ----- --- ---- ------- -- ---- --- --<br>------- ------,215065.15000000945,215064.02499999967,214733.898,214740.13000002014,214742.515,215072.168,,9,its
screen,html.Screen,2_1_1_1_10,2021-04-26T14:26:05.426Z,,,,,,,,,,,,,,,,,54,,,,,,,,,,,,,,318.00700000772486,,response,,,,100,,,,,,,Space,keypress(Space),,,,,,,,-- --- ---- --- ------ ----- ------- ---- -- --- revenue --<br>------- ---------- ------ -- ----- -- ----- -- ---- ------<br>--- ----- --- --- ------ -------- ----- --- ------ ----- --<br>----- ----- ---------- --- --- ------ ------ ---- -- ------<br>------- --- ------ ----- --- ---- ------- -- ---- --- --<br>------- ------,215391.1300000036,215390.17500000773,215058.984,215065.5900000129,215072.168,215397.753,,10,revenue
screen,html.Screen,2_1_1_1_11,2021-04-26T14:26:05.981Z,,,,,,,,,,,,,,,,,54,,,,,,,,,,,,,,547.3370000229042,,response,,,,100,,,,,,,Space,keypress(Space),,,,,,,,-- --- ---- --- ------ ----- ------- ---- -- --- ------- by<br>------- ---------- ------ -- ----- -- ----- -- ---- ------<br>--- ----- --- --- ------ -------- ----- --- ------ ----- --<br>----- ----- ---------- --- --- ------ ------ ---- -- ------<br>------- --- ------ ----- --- ---- ------- -- ---- --- --<br>------- ------,215946.12500001676,215945.0900000229,215388.577,215391.36000000872,215397.753,215952.841,,11,by
screen,html.Screen,2_1_1_1_12,2021-04-26T14:26:06.356Z,,,,,,,,,,,,,,,,,54,,,,,,,,,,,,,,367.2490000229154,,response,,,,100,,,,,,,Space,keypress(Space),,,,,,,,-- --- ---- --- ------ ----- ------- ---- -- --- ------- --<br>issuing ---------- ------ -- ----- -- ----- -- ---- ------<br>--- ----- --- --- ------ -------- ----- --- ------ ----- --<br>----- ----- ---------- --- --- ------ ------ ---- -- ------<br>------- --- ------ ----- --- ---- ------- -- ---- --- --<br>------- ------,216321.03000002098,216320.0900000229,215930.64,215946.4250000019,215952.841,216327.854,,12,issuing
screen,html.Screen,2_1_1_1_13,2021-04-26T14:26:06.874Z,,,,,,,,,,,,,,,,,54,,,,,,,,,,,,,,510.22100000694627,,response,,,,100,,,,,,,Space,keypress(Space),,,,,,,,-- --- ---- --- ------ ----- ------- ---- -- --- ------- --<br>------- government ------ -- ----- -- ----- -- ---- ------<br>--- ----- --- --- ------ -------- ----- --- ------ ----- --<br>----- ----- ---------- --- --- ------ ------ ---- -- ------<br>------- --- ------ ----- --- ---- ------- -- ---- --- --<br>------- ------,216838.95000000484,216838.07500000694,216319.299,216321.2900000217,216327.854,216845.429,,13,government
screen,html.Screen,2_1_1_1_14,2021-04-26T14:26:07.380Z,,,,,,,,,,,,,,,,,54,,,,,,,,,,,,,,499.23600001144223,,response,,,,100,,,,,,,Space,keypress(Space),,,,,,,,-- --- ---- --- ------ ----- ------- ---- -- --- ------- --<br>------- ---------- bonds. -- ----- -- ----- -- ---- ------<br>--- ----- --- --- ------ -------- ----- --- ------ ----- --<br>----- ----- ---------- --- --- ------ ------ ---- -- ------<br>------- --- ------ ----- --- ---- ------- -- ---- --- --<br>------- ------,217345.88000000804,217344.66500001145,216827.395,216839.1700000211,216845.429,217352.9,,14,bonds.
screen,html.Screen,2_1_1_1_15,2021-04-26T14:26:07.928Z,,,,,,,,,,,,,,,,,54,,,,,,,,,,,,,,539.535000016127,,response,,,,100,,,,,,,Space,keypress(Space),,,,,,,,-- --- ---- --- ------ ----- ------- ---- -- --- ------- --<br>------- ---------- ------ In ----- -- ----- -- ---- ------<br>--- ----- --- --- ------ -------- ----- --- ------ ----- --<br>----- ----- ---------- --- --- ------ ------ ---- -- ------<br>------- --- ------ ----- --- ---- ------- -- ---- --- --<br>------- ------,217893.4350000054,217892.43500001612,217345.09,217346.2100000179,217352.9,217900.208,,15,In
screen,html.Screen,2_1_1_1_16,2021-04-26T14:26:08.326Z,,,,,,,,,,,,,,,,,54,,,,,,,,,,,,,,390.6119999946968,,response,,,,100,,,,,,,Space,keypress(Space),,,,,,,,"-- --- ---- --- ------ ----- ------- ---- -- --- ------- --<br>------- ---------- ------ -- 1727, -- ----- -- ---- ------<br>--- ----- --- --- ------ -------- ----- --- ------ ----- --<br>----- ----- ---------- --- --- ------ ------ ---- -- ------<br>------- --- ------ ----- --- ---- ------- -- ---- --- --<br>------- ------",218291.66000001715,218290.8199999947,217885.928,217893.72500000172,217900.208,218298.335,,16,"1727,"
screen,html.Screen,2_1_1_1_17,2021-04-26T14:26:08.835Z,,,,,,,,,,,,,,,,,54,,,,,,,,,,,,,,501.26000001860666,,response,,,,100,,,,,,,Space,keypress(Space),,,,,,,,-- --- ---- --- ------ ----- ------- ---- -- --- ------- --<br>------- ---------- ------ -- ----- in ----- -- ---- ------<br>--- ----- --- --- ------ -------- ----- --- ------ ----- --<br>----- ----- ---------- --- --- ------ ------ ---- -- ------<br>------- --- ------ ----- --- ---- ------- -- ---- --- --<br>------- ------,218800.23500000243,218799.5950000186,218283.253,218291.8950000021,218298.335,218804.184,,17,in
screen,html.Screen,2_1_1_1_18,2021-04-26T14:26:09.279Z,,,,,,,,,,,,,,,,,54,,,,,,,,,,,,,,439.5310000187019,,response,,,,100,,,,,,,Space,keypress(Space),,,,,,,,-- --- ---- --- ------ ----- ------- ---- -- --- ------- --<br>------- ---------- ------ -- ----- -- order -- ---- ------<br>--- ----- --- --- ------ -------- ----- --- ------ ----- --<br>----- ----- ---------- --- --- ------ ------ ---- -- ------<br>------- --- ------ ----- --- ---- ------- -- ---- --- --<br>------- ------,219244.75000001257,219243.7150000187,218797.901,218800.41500000516,218804.184,219251.802,,18,order
screen,html.Screen,2_1_1_1_19,2021-04-26T14:26:09.728Z,,,,,,,,,,,,,,,,,54,,,,,,,,,,,,,,440.99300000994117,,response,,,,100,,,,,,,Space,keypress(Space),,,,,,,,-- --- ---- --- ------ ----- ------- ---- -- --- ------- --<br>------- ---------- ------ -- ----- -- ----- to ---- ------<br>--- ----- --- --- ------ -------- ----- --- ------ ----- --<br>----- ----- ---------- --- --- ------ ------ ---- -- ------<br>------- --- ------ ----- --- ---- ------- -- ---- --- --<br>------- ------,219693.660000019,219692.79500000994,219237.288,219245.04500001785,219251.802,219700.249,,19,to
screen,html.Screen,2_1_1_1_20,2021-04-26T14:26:10.158Z,,,,,,,,,,,,,,,,,54,,,,,,,,,,,,,,422.2710000044317,,response,,,,100,,,,,,,Space,keypress(Space),,,,,,,,-- --- ---- --- ------ ----- ------- ---- -- --- ------- --<br>------- ---------- ------ -- ----- -- ----- -- save ------<br>--- ----- --- --- ------ -------- ----- --- ------ ----- --<br>----- ----- ---------- --- --- ------ ------ ---- -- ------<br>------- --- ------ ----- --- ---- ------- -- ---- --- --<br>------- ------,220123.43000000692,220122.52000000444,219684.8,219693.889999995,219700.249,220129.863,,20,save
screen,html.Screen,2_1_1_1_21,2021-04-26T14:26:10.531Z,,,,,,,,,,,,,,,,,54,,,,,,,,,,,,,,365.3920000161743,,response,,,,100,,,,,,,Space,keypress(Space),,,,,,,,"-- --- ---- --- ------ ----- ------- ---- -- --- ------- --<br>------- ---------- ------ -- ----- -- ----- -- ---- money,<br>--- ----- --- --- ------ -------- ----- --- ------ ----- --<br>----- ----- ---------- --- --- ------ ------ ---- -- ------<br>------- --- ------ ----- --- ---- ------- -- ---- --- --<br>------- ------",220496.0350000183,220495.2550000162,220116.826,220123.61500001862,220129.863,220502.29,,21,"money,"
screen,html.Screen,2_1_1_1_22,2021-04-26T14:26:10.970Z,,,,,,,,,,,,,,,,,54,,,,,,,,,,,,,,431.9650000001129,,response,,,,100,,,,,,,Space,keypress(Space),,,,,,,,-- --- ---- --- ------ ----- ------- ---- -- --- ------- --<br>------- ---------- ------ -- ----- -- ----- -- ---- ------<br>the ----- --- --- ------ -------- ----- --- ------ ----- --<br>----- ----- ---------- --- --- ------ ------ ---- -- ------<br>------- --- ------ ----- --- ---- ------- -- ---- --- --<br>------- ------,220935.0100000156,220934.25500000012,220496.305,220496.21500002104,220502.29,220942.321,,22,the
screen,html.Screen,2_1_1_1_23,2021-04-26T14:26:11.358Z,,,,,,,,,,,,,,,,,54,,,,,,,,,,,,,,380.4440000189934,,response,,,,100,,,,,,,Space,keypress(Space),,,,,,,,-- --- ---- --- ------ ----- ------- ---- -- --- ------- --<br>------- ---------- ------ -- ----- -- ----- -- ---- ------<br>--- state --- --- ------ -------- ----- --- ------ ----- --<br>----- ----- ---------- --- --- ------ ------ ---- -- ------<br>------- --- ------ ----- --- ---- ------- -- ---- --- --<br>------- ------,221323.76500000828,221322.765000019,220935.449,220935.23500001174,220942.321,221330.773,,23,state
screen,html.Screen,2_1_1_1_24,2021-04-26T14:26:11.753Z,,,,,,,,,,,,,,,,,54,,,,,,,,,,,,,,386.2670000177459,,response,,,,100,,,,,,,Space,keypress(Space),,,,,,,,-- --- ---- --- ------ ----- ------- ---- -- --- ------- --<br>------- ---------- ------ -- ----- -- ----- -- ---- ------<br>--- ----- cut --- ------ -------- ----- --- ------ ----- --<br>----- ----- ---------- --- --- ------ ------ ---- -- ------<br>------- --- ------ ----- --- ---- ------- -- ---- --- --<br>------- ------,221718.05500000482,221717.04000001773,221324.6,221324.04999999562,221330.773,221724.852,,24,cut
screen,html.Screen,2_1_1_1_25,2021-04-26T14:26:12.153Z,,,,,,,,,,,,,,,,,54,,,,,,,,,,,,,,392.69799999537645,,response,,,,100,,,,,,,Space,keypress(Space),,,,,,,,-- --- ---- --- ------ ----- ------- ---- -- --- ------- --<br>------- ---------- ------ -- ----- -- ----- -- ---- ------<br>--- ----- --- the ------ -------- ----- --- ------ ----- --<br>----- ----- ---------- --- --- ------ ------ ---- -- ------<br>------- --- ------ ----- --- ---- ------- -- ---- --- --<br>------- ------,222118.46500000684,222117.5499999954,221713.786,221718.34500000114,221724.852,222128.33,,25,the
screen,html.Screen,2_1_1_1_26,2021-04-26T14:26:12.524Z,,,,,,,,,,,,,,,,,54,,,,,,,,,,,,,,360.3000000071188,,response,,,,100,,,,,,,Space,keypress(Space),,,,,,,,-- --- ---- --- ------ ----- ------- ---- -- --- ------- --<br>------- ---------- ------ -- ----- -- ----- -- ---- ------<br>--- ----- --- --- bonds' -------- ----- --- ------ ----- --<br>----- ----- ---------- --- --- ------ ------ ---- -- ------<br>------- --- ------ ----- --- ---- ------- -- ---- --- --<br>------- ------,222489.6149999986,222488.6300000071,222107.878,222118.7300000165,222128.33,222496.472,,26,bonds'
screen,html.Screen,2_1_1_1_27,2021-04-26T14:26:12.931Z,,,,,,,,,,,,,,,,,54,,,,,,,,,,,,,,398.9379999973462,,response,,,,100,,,,,,,Space,keypress(Space),,,,,,,,-- --- ---- --- ------ ----- ------- ---- -- --- ------- --<br>------- ---------- ------ -- ----- -- ----- -- ---- ------<br>--- ----- --- --- ------ interest ----- --- ------ ----- --<br>----- ----- ---------- --- --- ------ ------ ---- -- ------<br>------- --- ------ ----- --- ---- ------- -- ---- --- --<br>------- ------,222896.3250000088,222895.40999999736,222478.342,222489.9049999949,222496.472,222903.409,,27,interest
screen,html.Screen,2_1_1_1_28,2021-04-26T14:26:13.358Z,,,,,,,,,,,,,,,,,54,,,,,,,,,,,,,,419.0710000025283,,response,,,,100,,,,,,,Space,keypress(Space),,,,,,,,-- --- ---- --- ------ ----- ------- ---- -- --- ------- --<br>------- ---------- ------ -- ----- -- ----- -- ---- ------<br>--- ----- --- --- ------ -------- rate. --- ------ ----- --<br>----- ----- ---------- --- --- ------ ------ ---- -- ------<br>------- --- ------ ----- --- ---- ------- -- ---- --- --<br>------- ------,223323.4100000118,223322.48000000254,222896.136,222896.6000000073,222903.409,223330.119,,28,rate.
screen,html.Screen,2_1_1_1_29,2021-04-26T14:26:13.982Z,,,,,,,,,,,,,,,,,54,,,,,,,,,,,,,,617.1210000085994,,response,,,,100,,,,,,,Space,keypress(Space),,,,,,,,-- --- ---- --- ------ ----- ------- ---- -- --- ------- --<br>------- ---------- ------ -- ----- -- ----- -- ---- ------<br>--- ----- --- --- ------ -------- ----- The ------ ----- --<br>----- ----- ---------- --- --- ------ ------ ---- -- ------<br>------- --- ------ ----- --- ---- ------- -- ---- --- --<br>------- ------,223947.74000000325,223947.2400000086,223319.681,223323.6550000147,223330.119,223953.917,,29,The
screen,html.Screen,2_1_1_1_30,2021-04-26T14:26:14.407Z,,,,,,,,,,,,,,,,,54,,,,,,,,,,,,,,417.83300002026954,,response,,,,100,,,,,,,Space,keypress(Space),,,,,,,,-- --- ---- --- ------ ----- ------- ---- -- --- ------- --<br>------- ---------- ------ -- ----- -- ----- -- ---- ------<br>--- ----- --- --- ------ -------- ----- --- market ----- --<br>----- ----- ---------- --- --- ------ ------ ---- -- ------<br>------- --- ------ ----- --- ---- ------- -- ---- --- --<br>------- ------,224372.77000001632,224371.75000002026,223946.277,223947.86000001477,223953.917,224379.119,,30,market
screen,html.Screen,2_1_1_1_31,2021-04-26T14:26:14.842Z,,,,,,,,,,,,,,,,,54,,,,,,,,,,,,,,427.31099999690196,,response,,,,100,,,,,,,Space,keypress(Space),,,,,,,,-- --- ---- --- ------ ----- ------- ---- -- --- ------- --<br>------- ---------- ------ -- ----- -- ----- -- ---- ------<br>--- ----- --- --- ------ -------- ----- --- ------ value --<br>----- ----- ---------- --- --- ------ ------ ---- -- ------<br>------- --- ------ ----- --- ---- ------- -- ---- --- --<br>------- ------,224807.45500000194,224806.4299999969,224370.516,224372.9549999989,224379.119,224814.245,,31,value
screen,html.Screen,2_1_1_1_32,2021-04-26T14:26:15.252Z,,,,,,,,,,,,,,,,,54,,,,,,,,,,,,,,402.57500000146683,,response,,,,100,,,,,,,Space,keypress(Space),,,,,,,,-- --- ---- --- ------ ----- ------- ---- -- --- ------- --<br>------- ---------- ------ -- ----- -- ----- -- ---- ------<br>--- ----- --- --- ------ -------- ----- --- ------ ----- of<br>----- ----- ---------- --- --- ------ ------ ---- -- ------<br>------- --- ------ ----- --- ---- ------- -- ---- --- --<br>------- ------,225217.564999999,225216.82000000146,224795.524,224807.74499999825,224814.245,225224,,32,of
screen,html.Screen,2_1_1_1_33,2021-04-26T14:26:15.672Z,,,,,,,,,,,,,,,,,54,,,,,,,,,,,,,,412.5700000023935,,response,,,,100,,,,,,,Space,keypress(Space),,,,,,,,-- --- ---- --- ------ ----- ------- ---- -- --- ------- --<br>------- ---------- ------ -- ----- -- ----- -- ---- ------<br>--- ----- --- --- ------ -------- ----- --- ------ ----- --<br>these ----- ---------- --- --- ------ ------ ---- -- ------<br>------- --- ------ ----- --- ---- ------- -- ---- --- --<br>------- ------,225637.5350000162,225636.5700000024,225214.061,225217.7650000085,225224,225644.648,,33,these
screen,html.Screen,2_1_1_1_34,2021-04-26T14:26:16.112Z,,,,,,,,,,,,,,,,,54,,,,,,,,,,,,,,431.4370000078925,,response,,,,100,,,,,,,Space,keypress(Space),,,,,,,,-- --- ---- --- ------ ----- ------- ---- -- --- ------- --<br>------- ---------- ------ -- ----- -- ----- -- ---- ------<br>--- ----- --- --- ------ -------- ----- --- ------ ----- --<br>----- bonds ---------- --- --- ------ ------ ---- -- ------<br>------- --- ------ ----- --- ---- ------- -- ---- --- --<br>------- ------,226077.1250000107,226076.08500000788,225623.714,225637.8149999946,225644.648,226083.85,,34,bonds
screen,html.Screen,2_1_1_1_35,2021-04-26T14:26:16.538Z,,,,,,,,,,,,,,,,,54,,,,,,,,,,,,,,418.86500000962405,,response,,,,100,,,,,,,Space,keypress(Space),,,,,,,,"-- --- ---- --- ------ ----- ------- ---- -- --- ------- --<br>------- ---------- ------ -- ----- -- ----- -- ---- ------<br>--- ----- --- --- ------ -------- ----- --- ------ ----- --<br>----- ----- plummeted, --- --- ------ ------ ---- -- ------<br>------- --- ------ ----- --- ---- ------- -- ---- --- --<br>------- ------",226503.48500002292,226502.71500000963,226077.634,226077.36500000465,226083.85,226509.6,,35,"plummeted,"
screen,html.Screen,2_1_1_1_36,2021-04-26T14:26:17.281Z,,,,,,,,,,,,,,,,,54,,,,,,,,,,,,,,736.6550000054704,,response,,,,100,,,,,,,Space,keypress(Space),,,,,,,,-- --- ---- --- ------ ----- ------- ---- -- --- ------- --<br>------- ---------- ------ -- ----- -- ----- -- ---- ------<br>--- ----- --- --- ------ -------- ----- --- ------ ----- --<br>----- ----- ---------- and --- ------ ------ ---- -- ------<br>------- --- ------ ----- --- ---- ------- -- ---- --- --<br>------- ------,227246.7750000069,227246.25500000548,226499.952,226503.5800000187,226509.6,227252.971,,36,and
screen,html.Screen,2_1_1_1_37,2021-04-26T14:26:17.617Z,,,,,,,,,,,,,,,,,54,,,,,,,,,,,,,,328.66900001853355,,response,,,,100,,,,,,,Space,keypress(Space),,,,,,,,-- --- ---- --- ------ ----- ------- ---- -- --- ------- --<br>------- ---------- ------ -- ----- -- ----- -- ---- ------<br>--- ----- --- --- ------ -------- ----- --- ------ ----- --<br>----- ----- ---------- --- the ------ ------ ---- -- ------<br>------- --- ------ ----- --- ---- ------- -- ---- --- --<br>------- ------,227582.78500000597,227581.64000001852,227242.687,227246.8950000184,227252.971,227589.927,,37,the
screen,html.Screen,2_1_1_1_38,2021-04-26T14:26:17.843Z,,,,,,,,,,,,,,,,,54,,,,,,,,,,,,,,217.58800002225325,,response,,,,100,,,,,,,Space,keypress(Space),,,,,,,,-- --- ---- --- ------ ----- ------- ---- -- --- ------- --<br>------- ---------- ------ -- ----- -- ----- -- ---- ------<br>--- ----- --- --- ------ -------- ----- --- ------ ----- --<br>----- ----- ---------- --- --- market ------ ---- -- ------<br>------- --- ------ ----- --- ---- ------- -- ---- --- --<br>------- ------,227808.7349999987,227807.51500002225,227569.459,227583.07000002242,227589.927,227815.488,,38,market
screen,html.Screen,2_1_1_1_39,2021-04-26T14:26:18.357Z,,,,,,,,,,,,,,,,,54,,,,,,,,,,,,,,506.6020000014687,,response,,,,100,,,,,,,Space,keypress(Space),,,,,,,,-- --- ---- --- ------ ----- ------- ---- -- --- ------- --<br>------- ---------- ------ -- ----- -- ----- -- ---- ------<br>--- ----- --- --- ------ -------- ----- --- ------ ----- --<br>----- ----- ---------- --- --- ------ became ---- -- ------<br>------- --- ------ ----- --- ---- ------- -- ---- --- --<br>------- ------,228322.765000019,228322.09000000148,227806.196,227809.03500001295,227815.488,228327.876,,39,became
screen,html.Screen,2_1_1_1_40,2021-04-26T14:26:18.725Z,,,,,,,,,,,,,,,,,54,,,,,,,,,,,,,,362.0790000089328,,response,,,,100,,,,,,,Space,keypress(Space),,,,,,,,-- --- ---- --- ------ ----- ------- ---- -- --- ------- --<br>------- ---------- ------ -- ----- -- ----- -- ---- ------<br>--- ----- --- --- ------ -------- ----- --- ------ ----- --<br>----- ----- ---------- --- --- ------ ------ wary -- ------<br>------- --- ------ ----- --- ---- ------- -- ---- --- --<br>------- ------,228690.85500002257,228689.95500000892,228315.211,228322.9299999948,228327.876,228697.471,,40,wary
screen,html.Screen,2_1_1_1_41,2021-04-26T14:26:19.047Z,,,,,,,,,,,,,,,,,54,,,,,,,,,,,,,,314.1990000071528,,response,,,,100,,,,,,,Space,keypress(Space),,,,,,,,-- --- ---- --- ------ ----- ------- ---- -- --- ------- --<br>------- ---------- ------ -- ----- -- ----- -- ---- ------<br>--- ----- --- --- ------ -------- ----- --- ------ ----- --<br>----- ----- ---------- --- --- ------ ------ ---- of ------<br>------- --- ------ ----- --- ---- ------- -- ---- --- --<br>------- ------,229012.4000000069,229011.67000000714,228677.655,228691.1100000143,228697.471,229018.766,,41,of
screen,html.Screen,2_1_1_1_42,2021-04-26T14:26:19.398Z,,,,,,,,,,,,,,,,,54,,,,,,,,,,,,,,343.4340000032098,,response,,,,100,,,,,,,Space,keypress(Space),,,,,,,,-- --- ---- --- ------ ----- ------- ---- -- --- ------- --<br>------- ---------- ------ -- ----- -- ----- -- ---- ------<br>--- ----- --- --- ------ -------- ----- --- ------ ----- --<br>----- ----- ---------- --- --- ------ ------ ---- -- French<br>------- --- ------ ----- --- ---- ------- -- ---- --- --<br>------- ------,229363.2300000172,229362.2000000032,228997.283,229012.56500001182,229018.766,229370,,42,French
screen,html.Screen,2_1_1_1_43,2021-04-26T14:26:19.885Z,,,,,,,,,,,,,,,,,54,,,,,,,,,,,,,,479.05499999877065,,response,,,,100,,,,,,,Space,keypress(Space),,,,,,,,-- --- ---- --- ------ ----- ------- ---- -- --- ------- --<br>------- ---------- ------ -- ----- -- ----- -- ---- ------<br>--- ----- --- --- ------ -------- ----- --- ------ ----- --<br>----- ----- ---------- --- --- ------ ------ ---- -- ------<br>credit. --- ------ ----- --- ---- ------- -- ---- --- --<br>------- ------,229850.03000000142,229849.05499999877,229351.812,229363.51500000455,229370,229856.688,,43,credit.
screen,html.Screen,2_1_1_1_44,2021-04-26T14:26:20.454Z,,,,,,,,,,,,,,,,,54,,,,,,,,,,,,,,561.2770000005548,,response,,,,100,,,,,,,Space,keypress(Space),,,,,,,,-- --- ---- --- ------ ----- ------- ---- -- --- ------- --<br>------- ---------- ------ -- ----- -- ----- -- ---- ------<br>--- ----- --- --- ------ -------- ----- --- ------ ----- --<br>----- ----- ---------- --- --- ------ ------ ---- -- ------<br>------- The ------ ----- --- ---- ------- -- ---- --- --<br>------- ------,230419.01500002132,230417.96500000055,229836.457,229850.2800000133,229856.688,230425.871,,44,The
screen,html.Screen,2_1_1_1_45,2021-04-26T14:26:20.693Z,,,,,,,,,,,,,,,,,54,,,,,,,,,,,,,,232.33400001426344,,response,,,,100,,,,,,,Space,keypress(Space),,,,,,,,-- --- ---- --- ------ ----- ------- ---- -- --- ------- --<br>------- ---------- ------ -- ----- -- ----- -- ---- ------<br>--- ----- --- --- ------ -------- ----- --- ------ ----- --<br>----- ----- ---------- --- --- ------ ------ ---- -- ------<br>------- --- French ----- --- ---- ------- -- ---- --- --<br>------- ------,230658.9099999983,230658.20500001428,230406.332,230419.30500001763,230425.871,230665.282,,45,French
screen,html.Screen,2_1_1_1_46,2021-04-26T14:26:20.931Z,,,,,,,,,,,,,,,,,54,,,,,,,,,,,,,,230.1580000220565,,response,,,,100,,,,,,,Space,keypress(Space),,,,,,,,-- --- ---- --- ------ ----- ------- ---- -- --- ------- --<br>------- ---------- ------ -- ----- -- ----- -- ---- ------<br>--- ----- --- --- ------ -------- ----- --- ------ ----- --<br>----- ----- ---------- --- --- ------ ------ ---- -- ------<br>------- --- ------ state --- ---- ------- -- ---- --- --<br>------- ------,230896.52000000933,230895.44000002206,230659.187,230659.10000001895,230665.282,230903.164,,46,state
screen,html.Screen,2_1_1_1_47,2021-04-26T14:26:21.537Z,,,,,,,,,,,,,,,,,54,,,,,,,,,,,,,,599.0909999994328,,response,,,,100,,,,,,,Space,keypress(Space),,,,,,,,-- --- ---- --- ------ ----- ------- ---- -- --- ------- --<br>------- ---------- ------ -- ----- -- ----- -- ---- ------<br>--- ----- --- --- ------ -------- ----- --- ------ ----- --<br>----- ----- ---------- --- --- ------ ------ ---- -- ------<br>------- --- ------ ----- was ---- ------- -- ---- --- --<br>------- ------,231502.7500000142,231502.25499999942,230881.977,230896.78000001004,230903.164,231508.932,,47,was
screen,html.Screen,2_1_1_1_48,2021-04-26T14:26:21.922Z,,,,,,,,,,,,,,,,,54,,,,,,,,,,,,,,378.1580000038084,,response,,,,100,,,,,,,Space,keypress(Space),,,,,,,,-- --- ---- --- ------ ----- ------- ---- -- --- ------- --<br>------- ---------- ------ -- ----- -- ----- -- ---- ------<br>--- ----- --- --- ------ -------- ----- --- ------ ----- --<br>----- ----- ---------- --- --- ------ ------ ---- -- ------<br>------- --- ------ ----- --- left ------- -- ---- --- --<br>------- ------,231887.5200000184,231887.0900000038,231502.745,231502.86500001675,231508.932,231893.647,,48,left
screen,html.Screen,2_1_1_1_49,2021-04-26T14:26:22.289Z,,,,,,,,,,,,,,,,,54,,,,,,,,,,,,,,358.983000002685,,response,,,,100,,,,,,,Space,keypress(Space),,,,,,,,-- --- ---- --- ------ ----- ------- ---- -- --- ------- --<br>------- ---------- ------ -- ----- -- ----- -- ---- ------<br>--- ----- --- --- ------ -------- ----- --- ------ ----- --<br>----- ----- ---------- --- --- ------ ------ ---- -- ------<br>------- --- ------ ----- --- ---- without -- ---- --- --<br>------- ------,232254.65000001714,232252.63000000268,231875.416,231887.60499999626,231893.647,232261.914,,49,without
screen,html.Screen,2_1_1_1_50,2021-04-26T14:26:22.586Z,,,,,,,,,,,,,,,,,54,,,,,,,,,,,,,,289.1609999957727,,response,,,,100,,,,,,,Space,keypress(Space),,,,,,,,-- --- ---- --- ------ ----- ------- ---- -- --- ------- --<br>------- ---------- ------ -- ----- -- ----- -- ---- ------<br>--- ----- --- --- ------ -------- ----- --- ------ ----- --<br>----- ----- ---------- --- --- ------ ------ ---- -- ------<br>------- --- ------ ----- --- ---- ------- an ---- --- --<br>------- ------,232551.81000000448,232551.07499999576,232243.483,232255.28000001214,232261.914,232558.148,,50,an
screen,html.Screen,2_1_1_1_51,2021-04-26T14:26:22.913Z,,,,,,,,,,,,,,,,,54,,,,,,,,,,,,,,319.54700000287266,,response,,,,100,,,,,,,Space,keypress(Space),,,,,,,,-- --- ---- --- ------ ----- ------- ---- -- --- ------- --<br>------- ---------- ------ -- ----- -- ----- -- ---- ------<br>--- ----- --- --- ------ -------- ----- --- ------ ----- --<br>----- ----- ---------- --- --- ------ ------ ---- -- ------<br>------- --- ------ ----- --- ---- ------- -- easy --- --<br>------- ------,232878.38500001817,232877.69500000286,232544.927,232552.005000005,232558.148,232884.927,,51,easy
screen,html.Screen,2_1_1_1_52,2021-04-26T14:26:23.233Z,,,,,,,,,,,,,,,,,54,,,,,,,,,,,,,,312.53299999577575,,response,,,,100,,,,,,,Space,keypress(Space),,,,,,,,-- --- ---- --- ------ ----- ------- ---- -- --- ------- --<br>------- ---------- ------ -- ----- -- ----- -- ---- ------<br>--- ----- --- --- ------ -------- ----- --- ------ ----- --<br>----- ----- ---------- --- --- ------ ------ ---- -- ------<br>------- --- ------ ----- --- ---- ------- -- ---- way --<br>------- ------,233198.5450000211,233197.45999999577,232874.71,232878.56000001193,232884.927,233205.426,,52,way
screen,html.Screen,2_1_1_1_53,2021-04-26T14:26:23.527Z,,,,,,,,,,,,,,,,,54,,,,,,,,,,,,,,286.3090000177908,,response,,,,100,,,,,,,Space,keypress(Space),,,,,,,,-- --- ---- --- ------ ----- ------- ---- -- --- ------- --<br>------- ---------- ------ -- ----- -- ----- -- ---- ------<br>--- ----- --- --- ------ -------- ----- --- ------ ----- --<br>----- ----- ---------- --- --- ------ ------ ---- -- ------<br>------- --- ------ ----- --- ---- ------- -- ---- --- of<br>------- ------,233492.75500001386,233491.7350000178,233184.841,233198.86000000406,233205.426,233499.444,,53,of
screen,html.Screen,2_1_1_1_54,2021-04-26T14:26:23.882Z,,,,,,,,,,,,,,,,,54,,,,,,,,,,,,,,347.40100002186955,,response,,,,100,,,,,,,Space,keypress(Space),,,,,,,,-- --- ---- --- ------ ----- ------- ---- -- --- ------- --<br>------- ---------- ------ -- ----- -- ----- -- ---- ------<br>--- ----- --- --- ------ -------- ----- --- ------ ----- --<br>----- ----- ---------- --- --- ------ ------ ---- -- ------<br>------- --- ------ ----- --- ---- ------- -- ---- --- --<br>raising ------,233847.46000001905,233846.84500002186,233488.542,233493.05000001914,233499.444,233863.386,,54,raising
screen,html.Screen,2_1_1_1_55,2021-04-26T14:26:24.212Z,,,,,,,,,,,,,,,,,54,,,,,,,,,,,,,,312.7440000071074,,response,,,,100,,,,,,,Space,keypress(Space),,,,,,,,-- --- ---- --- ------ ----- ------- ---- -- --- ------- --<br>------- ---------- ------ -- ----- -- ----- -- ---- ------<br>--- ----- --- --- ------ -------- ----- --- ------ ----- --<br>----- ----- ---------- --- --- ------ ------ ---- -- ------<br>------- --- ------ ----- --- ---- ------- -- ---- --- --<br>------- money.,234177.04000000958,234176.1300000071,233832.779,233847.62499999488,233863.386,234184.37,,55,money.
Item 100,flow.Loop,2_1_1_1,2021-04-26T14:26:24.212Z,,,,,,,,,,,,,,,,,,,,,,,,,,,,,,,23045.78900000712,,completion,,,,,C,,,,,,,,,,,silence,,,,,234177.49500001082,234176.1300000071,211113.748,211114.9049999949,211130.341,234184.37,,,
Question 1,html.Screen,2_1_1_2,2021-04-26T14:26:26.563Z,,,,,,,,,,,,,,,,,,,,,,,,,,,,true,TRUE,,2343.630000020261,,response,,,,100,C,,,,,,TRUE,click #choice-1,,,,silence,,,,,236528.86500000022,236528.00000002026,234163.295,234177.69500002032,234184.37,236534.72,,,
Question 2,html.Screen,2_1_1_3,2021-04-26T14:26:28.149Z,,,,,,,,,,,,,,,,,,,,,,,,,,,,true,FALSE,,1579.275000021531,,response,,,,100,C,,,,,,FALSE,click #choice-2,,,,silence,,,,,238114.90000001504,238113.99500002153,236518.136,236529.00999999838,236534.72,238120.356,,,
Item 100,flow.Sequence,2_1_1,2021-04-26T14:26:28.150Z,,,,,,,,,,,,,,,,,,,,,,,,,,,,,,,36979.78300002153,,completion,,,,,,,,,,,,,,,,,,,,,238115.15500000678,238113.99500002153,201117.722,201133.38000001386,201134.212,238120.356,,,
End of Practice,html.Page,2_1_2,2021-04-26T14:26:31.564Z,,,,,,,,,,,,,,,,,,,,,,,,,,,,,,,3408.7240000075253,,form submission,,,,,,,,,,,,,,,,,,,,,241529.34000000823,241529.08000000753,238103.901,238115.26500000036,238120.356,241535.46,,,
Practice,flow.Sequence,2_1,2021-04-26T14:26:31.564Z,,,,,,,,,,,,,,,,,,,,,,,,,,,,,,,80173.39600000752,,completion,,,,,,,,,,,,,,,,,,,,,241529.59499999997,241529.08000000753,161320.894,161337.94500000658,161355.684,241535.46,,,
Trap_instruction,html.Page,2_2_0,2021-04-26T14:26:34.257Z,,,,,,,,,,,,,,,,,,,,,,,,,,,,,,,2686.4300000152725,,form submission,,,,,,,,,,,,,,,,,,,,,244222.38000002108,244221.89000001526,241518.839,241529.75000001607,241535.46,244237.967,,,
trap_trial,html.Screen,2_2_1,2021-04-26T14:26:36.667Z,,,,,,,,,,,,,,,,,,,,,,,,,,,,true,1,,2394.1529999947525,,response,,,,,,,,,,,1,click #choice-1,,,,,,,,,246632.90500000585,246632.11999999476,244221.302,244222.5299999991,244237.967,246646.397,,,
end of trap trial,html.Page,2_2_2,2021-04-26T14:26:38.062Z,,,,,,,,,,,,,,,,,,,,,,,,,,,,,,,1380.5430000106571,,form submission,,,,,,,,,,,,,,,,,,,,,248027.1650000068,248026.94000001065,246629.869,246633.050000004,246646.397,248028.958,,,
Trap 1,flow.Sequence,2_2,2021-04-26T14:26:38.062Z,,,,,,,,,,,,,,,,,,,,,,,,,,,,,,,6491.4800000106625,,completion,,,,,,,,,,,,,,,,,,,,,248027.36999999615,248026.94000001065,241518.839,241529.70500002266,241535.46,248028.958,,,
Standby,html.Page,2_3_0,2021-04-26T14:26:46.044Z,,,,,,,,,,,,,,,,,,,,,,,,,,,,,,,7995.727999999974,,timeout,,,,,,,,,,,,,,,,,,,,,256008.96000000648,256007.998,248012.324,248027.50500000548,248028.958,256024.686,,,
Holding screen,html.Screen,2_3_1_0_0,2021-04-26T14:26:53.042Z,,,,,,,,,,,,,,,,,,,,,,,,,,,,,,,6998.339000000036,,timeout,,,,,,,,,,,,,,,,,,,,,263007.2400000063,263006.352,256007.998,256009.35000000754,256024.686,263023.025,,,
screen,html.Screen,2_3_1_0_1_0,2021-04-26T14:26:53.708Z,,,,,,,,,,,,,,,,,48,,,,,,,,,,,,,,649.6850000134436,,response,,,,10,C,,,,,,Space,keypress(Space),,,,instrumental,,,,As -- --- ------ ------- --------- ----------- --------<br>--------- -------- --- ------- -- ------- ---- -- ------<br>-- --- -------- -------- ---------- ---- ---- ---- ------<br>-- --------- -- ---- -- --- -- --- ------- -- - -----<br>---------- -- -- -- ---- ----- -- ------ -- --- ------<br>-------,263673.57000001357,263672.71000001347,263006.352,263007.57000001613,263023.025,263679.23,,0,As
screen,html.Screen,2_3_1_0_1_1,2021-04-26T14:26:54.019Z,,,,,,,,,,,,,,,,,48,,,,,,,,,,,,,,303.94500000122935,,response,,,,10,C,,,,,,Space,keypress(Space),,,,instrumental,,,,-- in --- ------ ------- --------- ----------- --------<br>--------- -------- --- ------- -- ------- ---- -- ------<br>-- --- -------- -------- ---------- ---- ---- ---- ------<br>-- --------- -- ---- -- --- -- --- ------- -- - -----<br>---------- -- -- -- ---- ----- -- ------ -- --- ------<br>-------,263984.0950000216,263983.1750000012,263672.621,263673.7850000209,263679.23,263990.712,,1,in
screen,html.Screen,2_3_1_0_1_2,2021-04-26T14:26:54.307Z,,,,,,,,,,,,,,,,,48,,,,,,,,,,,,,,280.94799999851966,,response,,,,10,C,,,,,,Space,keypress(Space),,,,instrumental,,,,-- -- the ------ ------- --------- ----------- --------<br>--------- -------- --- ------- -- ------- ---- -- ------<br>-- --- -------- -------- ---------- ---- ---- ---- ------<br>-- --------- -- ---- -- --- -- --- ------- -- - -----<br>---------- -- -- -- ---- ----- -- ------ -- --- ------<br>-------,264272.7050000103,264271.6599999985,263978.88,263984.3300000066,263990.712,264279.44,,2,the
screen,html.Screen,2_3_1_0_1_3,2021-04-26T14:26:54.595Z,,,,,,,,,,,,,,,,,48,,,,,,,,,,,,,,280.2349999967846,,response,,,,10,C,,,,,,Space,keypress(Space),,,,instrumental,,,,-- -- --- United ------- --------- ----------- --------<br>--------- -------- --- ------- -- ------- ---- -- ------<br>-- --- -------- -------- ---------- ---- ---- ---- ------<br>-- --------- -- ---- -- --- -- --- ------- -- - -----<br>---------- -- -- -- ---- ----- -- ------ -- --- ------<br>-------,264560.14000001596,264559.6749999968,264257.143,264273.0000000156,264279.44,264566.086,,3,United
screen,html.Screen,2_3_1_0_1_4,2021-04-26T14:26:54.905Z,,,,,,,,,,,,,,,,,48,,,,,,,,,,,,,,303.76400001731236,,response,,,,10,C,,,,,,Space,keypress(Space),,,,instrumental,,,,"-- -- --- ------ States, --------- ----------- --------<br>--------- -------- --- ------- -- ------- ---- -- ------<br>-- --- -------- -------- ---------- ---- ---- ---- ------<br>-- --------- -- ---- -- --- -- --- ------- -- - -----<br>---------- -- -- -- ---- ----- -- ------ -- --- ------<br>-------",264870.6550000061,264869.8500000173,264546.082,264560.23500001174,264566.086,264877.224,,4,"States,"
screen,html.Screen,2_3_1_0_1_5,2021-04-26T14:26:55.387Z,,,,,,,,,,,,,,,,,48,,,,,,,,,,,,,,474.3810000034864,,response,,,,10,C,,,,,,Space,keypress(Space),,,,instrumental,,,,-- -- --- ------ ------- Colombian ----------- --------<br>--------- -------- --- ------- -- ------- ---- -- ------<br>-- --- -------- -------- ---------- ---- ---- ---- ------<br>-- --------- -- ---- -- --- -- --- ------- -- - -----<br>---------- -- -- -- ---- ----- -- ------ -- --- ------<br>-------,265352.63999999734,265351.6050000035,264866.142,264870.8500000066,264877.224,265359.406,,5,Colombian
screen,html.Screen,2_3_1_0_1_6,2021-04-26T14:26:55.780Z,,,,,,,,,,,,,,,,,48,,,,,,,,,,,,,,385.6690000134404,,response,,,,10,C,,,,,,Space,keypress(Space),,,,instrumental,,,,-- -- --- ------ ------- --------- legislation --------<br>--------- -------- --- ------- -- ------- ---- -- ------<br>-- --- -------- -------- ---------- ---- ---- ---- ------<br>-- --------- -- ---- -- --- -- --- ------- -- - -----<br>---------- -- -- -- ---- ----- -- ------ -- --- ------<br>-------,265745.82999999984,265745.07500001346,265343.634,265352.9200000048,265359.406,265752.344,,6,legislation
screen,html.Screen,2_3_1_0_1_7,2021-04-26T14:26:56.220Z,,,,,,,,,,,,,,,,,48,,,,,,,,,,,,,,431.9210000180756,,response,,,,10,C,,,,,,Space,keypress(Space),,,,instrumental,,,,-- -- --- ------ ------- --------- ----------- requires<br>--------- -------- --- ------- -- ------- ---- -- ------<br>-- --- -------- -------- ---------- ---- ---- ---- ------<br>-- --------- -- ---- -- --- -- --- ------- -- - -----<br>---------- -- -- -- ---- ----- -- ------ -- --- ------<br>-------,266184.95500000427,266184.26500001806,265742.675,265746.01500001154,265752.344,266191.446,,7,requires
screen,html.Screen,2_3_1_0_1_8,2021-04-26T14:26:56.602Z,,,,,,,,,,,,,,,,,48,,,,,,,,,,,,,,375.1340000133496,,response,,,,10,C,,,,,,Space,keypress(Space),,,,instrumental,,,,-- -- --- ------ ------- --------- ----------- --------<br>travelers -------- --- ------- -- ------- ---- -- ------<br>-- --- -------- -------- ---------- ---- ---- ---- ------<br>-- --------- -- ---- -- --- -- --- ------- -- - -----<br>---------- -- -- -- ---- ----- -- ------ -- --- ------<br>-------,266567.68500001635,266566.58000001335,266185.258,266185.1650000026,266191.446,266574.368,,8,travelers
screen,html.Screen,2_3_1_0_1_9,2021-04-26T14:26:56.962Z,,,,,,,,,,,,,,,,,48,,,,,,,,,,,,,,352.5170000225771,,response,,,,10,C,,,,,,Space,keypress(Space),,,,instrumental,,,,-- -- --- ------ ------- --------- ----------- --------<br>--------- entering --- ------- -- ------- ---- -- ------<br>-- --- -------- -------- ---------- ---- ---- ---- ------<br>-- --------- -- ---- -- --- -- --- ------- -- - -----<br>---------- -- -- -- ---- ----- -- ------ -- --- ------<br>-------,266927.73500000476,266926.8850000226,266558.012,266567.9850000015,266574.368,266934.41,,9,entering
screen,html.Screen,2_3_1_0_1_10,2021-04-26T14:26:57.358Z,,,,,,,,,,,,,,,,,48,,,,,,,,,,,,,,388.18500000511995,,response,,,,10,C,,,,,,Space,keypress(Space),,,,instrumental,,,,-- -- --- ------ ------- --------- ----------- --------<br>--------- -------- the ------- -- ------- ---- -- ------<br>-- --- -------- -------- ---------- ---- ---- ---- ------<br>-- --------- -- ---- -- --- -- --- ------- -- - -----<br>---------- -- -- -- ---- ----- -- ------ -- --- ------<br>-------,267323.2850000204,267322.5950000051,266924.096,266927.96500000986,266934.41,267329.703,,10,the
screen,html.Screen,2_3_1_0_1_11,2021-04-26T14:26:57.722Z,,,,,,,,,,,,,,,,,48,,,,,,,,,,,,,,357.146999998251,,response,,,,10,C,,,,,,Space,keypress(Space),,,,instrumental,,,,-- -- --- ------ ------- --------- ----------- --------<br>--------- -------- --- country -- ------- ---- -- ------<br>-- --- -------- -------- ---------- ---- ---- ---- ------<br>-- --------- -- ---- -- --- -- --- ------- -- - -----<br>---------- -- -- -- ---- ----- -- ------ -- --- ------<br>-------,267687.7500000119,267686.84999999823,267317.369,267323.46000001417,267329.703,267694.381,,11,country
screen,html.Screen,2_3_1_0_1_12,2021-04-26T14:26:58.052Z,,,,,,,,,,,,,,,,,48,,,,,,,,,,,,,,321.37400000035996,,response,,,,10,C,,,,,,Space,keypress(Space),,,,instrumental,,,,-- -- --- ------ ------- --------- ----------- --------<br>--------- -------- --- ------- to ------- ---- -- ------<br>-- --- -------- -------- ---------- ---- ---- ---- ------<br>-- --------- -- ---- -- --- -- --- ------- -- - -----<br>---------- -- -- -- ---- ----- -- ------ -- --- ------<br>-------,268017.1649999975,268015.75500000035,267679.503,267688.0200000014,267694.381,268024.359,,12,to
screen,html.Screen,2_3_1_0_1_13,2021-04-26T14:26:58.357Z,,,,,,,,,,,,,,,,,48,,,,,,,,,,,,,,297.3110000048182,,response,,,,10,C,,,,,,Space,keypress(Space),,,,instrumental,,,,-- -- --- ------ ------- --------- ----------- --------<br>--------- -------- --- ------- -- declare ---- -- ------<br>-- --- -------- -------- ---------- ---- ---- ---- ------<br>-- --------- -- ---- -- --- -- --- ------- -- - -----<br>---------- -- -- -- ---- ----- -- ------ -- --- ------<br>-------,268322.3500000022,268321.6700000048,268011.036,268017.6349999965,268024.359,268328.888,,13,declare
screen,html.Screen,2_3_1_0_1_14,2021-04-26T14:26:58.686Z,,,,,,,,,,,,,,,,,48,,,,,,,,,,,,,,322.0770000080229,,response,,,,10,C,,,,,,Space,keypress(Space),,,,instrumental,,,,-- -- --- ------ ------- --------- ----------- --------<br>--------- -------- --- ------- -- ------- cash -- ------<br>-- --- -------- -------- ---------- ---- ---- ---- ------<br>-- --------- -- ---- -- --- -- --- ------- -- - -----<br>---------- -- -- -- ---- ----- -- ------ -- --- ------<br>-------,268651.4700000116,268650.965000008,268307.442,268322.5050000183,268328.888,268657.823,,14,cash
screen,html.Screen,2_3_1_0_1_15,2021-04-26T14:26:59.018Z,,,,,,,,,,,,,,,,,48,,,,,,,,,,,,,,325.0970000094967,,response,,,,10,C,,,,,,Space,keypress(Space),,,,instrumental,,,,-- -- --- ------ ------- --------- ----------- --------<br>--------- -------- --- ------- -- ------- ---- in ------<br>-- --- -------- -------- ---------- ---- ---- ---- ------<br>-- --------- -- ---- -- --- -- --- ------- -- - -----<br>---------- -- -- -- ---- ----- -- ------ -- --- ------<br>-------,268983.84500000975,268982.9200000095,268645.193,268651.58500001417,268657.823,268990.521,,15,in
screen,html.Screen,2_3_1_0_1_16,2021-04-26T14:26:59.334Z,,,,,,,,,,,,,,,,,48,,,,,,,,,,,,,,308.298999996332,,response,,,,10,C,,,,,,Space,keypress(Space),,,,instrumental,,,,-- -- --- ------ ------- --------- ----------- --------<br>--------- -------- --- ------- -- ------- ---- -- excess<br>-- --- -------- -------- ---------- ---- ---- ---- ------<br>-- --------- -- ---- -- --- -- --- ------- -- - -----<br>---------- -- -- -- ---- ----- -- ------ -- --- ------<br>-------,269299.46500001824,269298.81999999634,268974.206,268984.1000000015,268990.521,269306.054,,16,excess
screen,html.Screen,2_3_1_0_1_17,2021-04-26T14:26:59.855Z,,,,,,,,,,,,,,,,,48,,,,,,,,,,,,,,513.5410000081174,,response,,,,10,C,,,,,,Space,keypress(Space),,,,instrumental,,,,-- -- --- ------ ------- --------- ----------- --------<br>--------- -------- --- ------- -- ------- ---- -- ------<br>of --- -------- -------- ---------- ---- ---- ---- ------<br>-- --------- -- ---- -- --- -- --- ------- -- - -----<br>---------- -- -- -- ---- ----- -- ------ -- --- ------<br>-------,269820.63500001095,269819.5950000081,269290.501,269299.640000012,269306.054,269828.02,,17,of
screen,html.Screen,2_3_1_0_1_18,2021-04-26T14:27:00.275Z,,,,,,,,,,,,,,,,,48,,,,,,,,,,,,,,411.38000002037734,,response,,,,10,C,,,,,,Space,keypress(Space),,,,instrumental,,,,-- -- --- ------ ------- --------- ----------- --------<br>--------- -------- --- ------- -- ------- ---- -- ------<br>-- ten -------- -------- ---------- ---- ---- ---- ------<br>-- --------- -- ---- -- --- -- --- ------- -- - -----<br>---------- -- -- -- ---- ----- -- ------ -- --- ------<br>-------,270240.46500000986,270239.4000000204,269805.727,269820.96000001184,269828.02,270249.913,,18,ten
screen,html.Screen,2_3_1_0_1_19,2021-04-26T14:27:00.691Z,,,,,,,,,,,,,,,,,48,,,,,,,,,,,,,,406.02699999691686,,response,,,,10,C,,,,,,Space,keypress(Space),,,,instrumental,,,,-- -- --- ------ ------- --------- ----------- --------<br>--------- -------- --- ------- -- ------- ---- -- ------<br>-- --- thousand -------- ---------- ---- ---- ---- ------<br>-- --------- -- ---- -- --- -- --- ------- -- - -----<br>---------- -- -- -- ---- ----- -- ------ -- --- ------<br>-------,270656.9900000177,270655.9399999969,270227.421,270240.7550000062,270249.913,270665.891,,19,thousand
screen,html.Screen,2_3_1_0_1_20,2021-04-26T14:27:01.494Z,,,,,,,,,,,,,,,,,48,,,,,,,,,,,,,,793.2940000142553,,response,,,,10,C,,,,,,Space,keypress(Space),,,,instrumental,,,,-- -- --- ------ ------- --------- ----------- --------<br>--------- -------- --- ------- -- ------- ---- -- ------<br>-- --- -------- dollars. ---------- ---- ---- ---- ------<br>-- --------- -- ---- -- --- -- --- ------- -- - -----<br>---------- -- -- -- ---- ----- -- ------ -- --- ------<br>-------,271460.2250000171,271459.18500001426,270649.639,270657.28500002297,270665.891,271466.862,,20,dollars.
screen,html.Screen,2_3_1_0_1_21,2021-04-26T14:27:02.132Z,,,,,,,,,,,,,,,,,48,,,,,,,,,,,,,,630.26300000021,,response,,,,10,C,,,,,,Space,keypress(Space),,,,instrumental,,,,-- -- --- ------ ------- --------- ----------- --------<br>--------- -------- --- ------- -- ------- ---- -- ------<br>-- --- -------- -------- Concealing ---- ---- ---- ------<br>-- --------- -- ---- -- --- -- --- ------- -- - -----<br>---------- -- -- -- ---- ----- -- ------ -- --- ------<br>-------,272098.2850000146,272097.12500000023,271448.6,271460.48999999766,271466.862,272106.653,,21,Concealing
screen,html.Screen,2_3_1_0_1_22,2021-04-26T14:27:02.800Z,,,,,,,,,,,,,,,,,48,,,,,,,,,,,,,,657.7070000010426,,response,,,,10,C,,,,,,Space,keypress(Space),,,,instrumental,,,,-- -- --- ------ ------- --------- ----------- --------<br>--------- -------- --- ------- -- ------- ---- -- ------<br>-- --- -------- -------- ---------- more ---- ---- ------<br>-- --------- -- ---- -- --- -- --- ------- -- - -----<br>---------- -- -- -- ---- ----- -- ------ -- --- ------<br>-------,272765.5000000086,272764.36000000103,272083.194,272098.56500002206,272106.653,272772.14,,22,more
screen,html.Screen,2_3_1_0_1_23,2021-04-26T14:27:03.198Z,,,,,,,,,,,,,,,,,48,,,,,,,,,,,,,,390.98000001197215,,response,,,,10,C,,,,,,Space,keypress(Space),,,,instrumental,,,,-- -- --- ------ ------- --------- ----------- --------<br>--------- -------- --- ------- -- ------- ---- -- ------<br>-- --- -------- -------- ---------- ---- than ---- ------<br>-- --------- -- ---- -- --- -- --- ------- -- - -----<br>---------- -- -- -- ---- ----- -- ------ -- --- ------<br>-------,273164.09500001464,273163.120000012,272761.622,272765.83499999833,272772.14,273170.773,,23,than
screen,html.Screen,2_3_1_0_1_24,2021-04-26T14:27:03.580Z,,,,,,,,,,,,,,,,,48,,,,,,,,,,,,,,373.4719999973313,,response,,,,10,C,,,,,,Space,keypress(Space),,,,instrumental,,,,-- -- --- ------ ------- --------- ----------- --------<br>--------- -------- --- ------- -- ------- ---- -- ------<br>-- --- -------- -------- ---------- ---- ---- that ------<br>-- --------- -- ---- -- --- -- --- ------- -- - -----<br>---------- -- -- -- ---- ----- -- ------ -- --- ------<br>-------,273545.4500000051,273544.2449999973,273155.279,273164.3500000064,273170.773,273552.107,,24,that
screen,html.Screen,2_3_1_0_1_25,2021-04-26T14:27:04.219Z,,,,,,,,,,,,,,,,,48,,,,,,,,,,,,,,631.793000003614,,response,,,,10,C,,,,,,Space,keypress(Space),,,,instrumental,,,,-- -- --- ------ ------- --------- ----------- --------<br>--------- -------- --- ------- -- ------- ---- -- ------<br>-- --- -------- -------- ---------- ---- ---- ---- amount<br>-- --------- -- ---- -- --- -- --- ------- -- - -----<br>---------- -- -- -- ---- ----- -- ------ -- --- ------<br>-------,274185.4400000011,274183.90000000363,273537.165,273545.76000000816,273552.107,274192.442,,25,amount
screen,html.Screen,2_3_1_0_1_26,2021-04-26T14:27:04.625Z,,,,,,,,,,,,,,,,,48,,,,,,,,,,,,,,397.38800001173513,,response,,,,10,C,,,,,,Space,keypress(Space),,,,instrumental,,,,-- -- --- ------ ------- --------- ----------- --------<br>--------- -------- --- ------- -- ------- ---- -- ------<br>-- --- -------- -------- ---------- ---- ---- ---- ------<br>to --------- -- ---- -- --- -- --- ------- -- - -----<br>---------- -- -- -- ---- ----- -- ------ -- --- ------<br>-------,274590.4900000023,274589.8300000117,274185.053,274185.9050000203,274192.442,274597.004,,26,to
screen,html.Screen,2_3_1_0_1_27,2021-04-26T14:27:04.961Z,,,,,,,,,,,,,,,,,48,,,,,,,,,,,,,,329.09600001148647,,response,,,,10,C,,,,,,Space,keypress(Space),,,,instrumental,,,,-- -- --- ------ ------- --------- ----------- --------<br>--------- -------- --- ------- -- ------- ---- -- ------<br>-- --- -------- -------- ---------- ---- ---- ---- ------<br>-- transport -- ---- -- --- -- --- ------- -- - -----<br>---------- -- -- -- ---- ----- -- ------ -- --- ------<br>-------,274927.1000000008,274926.1000000115,274575.527,274590.6600000162,274597.004,274933.736,,27,transport
screen,html.Screen,2_3_1_0_1_28,2021-04-26T14:27:05.266Z,,,,,,,,,,,,,,,,,48,,,,,,,,,,,,,,298.1190000200295,,response,,,,10,C,,,,,,Space,keypress(Space),,,,instrumental,,,,-- -- --- ------ ------- --------- ----------- --------<br>--------- -------- --- ------- -- ------- ---- -- ------<br>-- --- -------- -------- ---------- ---- ---- ---- ------<br>-- --------- it ---- -- --- -- --- ------- -- - -----<br>---------- -- -- -- ---- ----- -- ------ -- --- ------<br>-------,275232.4099999969,275231.85500002,274913.648,274927.3600000015,274933.736,275238.654,,28,it
screen,html.Screen,2_3_1_0_1_29,2021-04-26T14:27:05.571Z,,,,,,,,,,,,,,,,,48,,,,,,,,,,,,,,297.38600000634324,,response,,,,10,C,,,,,,Space,keypress(Space),,,,instrumental,,,,-- -- --- ------ ------- --------- ----------- --------<br>--------- -------- --- ------- -- ------- ---- -- ------<br>-- --- -------- -------- ---------- ---- ---- ---- ------<br>-- --------- -- into -- --- -- --- ------- -- - -----<br>---------- -- -- -- ---- ----- -- ------ -- --- ------<br>-------,275536.6250000079,275536.0400000063,275216.964,275232.52499999944,275238.654,275542.866,,29,into
screen,html.Screen,2_3_1_0_1_30,2021-04-26T14:27:05.842Z,,,,,,,,,,,,,,,,,48,,,,,,,,,,,,,,264.60399999975925,,response,,,,10,C,,,,,,Space,keypress(Space),,,,instrumental,,,,-- -- --- ------ ------- --------- ----------- --------<br>--------- -------- --- ------- -- ------- ---- -- ------<br>-- --- -------- -------- ---------- ---- ---- ---- ------<br>-- --------- -- ---- or --- -- --- ------- -- - -----<br>---------- -- -- -- ---- ----- -- ------ -- --- ------<br>-------,275808.43500001356,275807.46999999974,275521.92,275536.77500001504,275542.866,275815.091,,30,or
screen,html.Screen,2_3_1_0_1_31,2021-04-26T14:27:06.129Z,,,,,,,,,,,,,,,,,48,,,,,,,,,,,,,,279.2140000059735,,response,,,,10,C,,,,,,Space,keypress(Space),,,,instrumental,,,,-- -- --- ------ ------- --------- ----------- --------<br>--------- -------- --- ------- -- ------- ---- -- ------<br>-- --- -------- -------- ---------- ---- ---- ---- ------<br>-- --------- -- ---- -- out -- --- ------- -- - -----<br>---------- -- -- -- ---- ----- -- ------ -- --- ------<br>-------,276095.3950000112,276094.305000006,275792.919,275808.69500001427,275815.091,276098.841,,31,out
screen,html.Screen,2_3_1_0_1_32,2021-04-26T14:27:06.439Z,,,,,,,,,,,,,,,,,48,,,,,,,,,,,,,,305.10399999818765,,response,,,,10,C,,,,,,Space,keypress(Space),,,,instrumental,,,,-- -- --- ------ ------- --------- ----------- --------<br>--------- -------- --- ------- -- ------- ---- -- ------<br>-- --- -------- -------- ---------- ---- ---- ---- ------<br>-- --------- -- ---- -- --- of --- ------- -- - -----<br>---------- -- -- -- ---- ----- -- ------ -- --- ------<br>-------,276404.8800000164,276403.9449999982,276081.502,276095.6850000075,276098.841,276411.506,,32,of
screen,html.Screen,2_3_1_0_1_33,2021-04-26T14:27:06.697Z,,,,,,,,,,,,,,,,,48,,,,,,,,,,,,,,250.66900000494206,,response,,,,10,C,,,,,,Space,keypress(Space),,,,instrumental,,,,-- -- --- ------ ------- --------- ----------- --------<br>--------- -------- --- ------- -- ------- ---- -- ------<br>-- --- -------- -------- ---------- ---- ---- ---- ------<br>-- --------- -- ---- -- --- -- the ------- -- - -----<br>---------- -- -- -- ---- ----- -- ------ -- --- ------<br>-------,276662.63500001514,276662.17500000494,276398.772,276405.13500000816,276411.506,276668.748,,33,the
screen,html.Screen,2_3_1_0_1_34,2021-04-26T14:27:06.932Z,,,,,,,,,,,,,,,,,48,,,,,,,,,,,,,,228.2270000105491,,response,,,,10,C,,,,,,Space,keypress(Space),,,,instrumental,,,,-- -- --- ------ ------- --------- ----------- --------<br>--------- -------- --- ------- -- ------- ---- -- ------<br>-- --- -------- -------- ---------- ---- ---- ---- ------<br>-- --------- -- ---- -- --- -- --- country -- - -----<br>---------- -- -- -- ---- ----- -- ------ -- --- ------<br>-------,276898.1550000026,276896.97500001057,276661.285,276662.71000000415,276668.748,276904.889,,34,country
screen,html.Screen,2_3_1_0_1_35,2021-04-26T14:27:07.152Z,,,,,,,,,,,,,,,,,48,,,,,,,,,,,,,,212.17599999852246,,response,,,,10,C,,,,,,Space,keypress(Space),,,,instrumental,,,,-- -- --- ------ ------- --------- ----------- --------<br>--------- -------- --- ------- -- ------- ---- -- ------<br>-- --- -------- -------- ---------- ---- ---- ---- ------<br>-- --------- -- ---- -- --- -- --- ------- is - -----<br>---------- -- -- -- ---- ----- -- ------ -- --- ------<br>-------,277117.9500000144,277117.06499999855,276885.259,276898.4449999989,276904.889,277124.744,,35,is
screen,html.Screen,2_3_1_0_1_36,2021-04-26T14:27:07.386Z,,,,,,,,,,,,,,,,,48,,,,,,,,,,,,,,225.84100000740727,,response,,,,10,C,,,,,,Space,keypress(Space),,,,instrumental,,,,-- -- --- ------ ------- --------- ----------- --------<br>--------- -------- --- ------- -- ------- ---- -- ------<br>-- --- -------- -------- ---------- ---- ---- ---- ------<br>-- --------- -- ---- -- --- -- --- ------- -- a -----<br>---------- -- -- -- ---- ----- -- ------ -- --- ------<br>-------,277351.55000002123,277350.5850000074,277104.785,277118.1950000173,277124.744,277358.243,,36,a
screen,html.Screen,2_3_1_0_1_37,2021-04-26T14:27:07.609Z,,,,,,,,,,,,,,,,,48,,,,,,,,,,,,,,215.74199999542907,,response,,,,10,C,,,,,,Space,keypress(Space),,,,instrumental,,,,-- -- --- ------ ------- --------- ----------- --------<br>--------- -------- --- ------- -- ------- ---- -- ------<br>-- --- -------- -------- ---------- ---- ---- ---- ------<br>-- --------- -- ---- -- --- -- --- ------- -- - crime<br>---------- -- -- -- ---- ----- -- ------ -- --- ------<br>-------,277574.5900000038,277573.98499999545,277341.061,277351.7850000062,277358.243,277580.816,,37,crime
screen,html.Screen,2_3_1_0_1_38,2021-04-26T14:27:07.886Z,,,,,,,,,,,,,,,,,48,,,,,,,,,,,,,,270.44399999582674,,response,,,,10,C,,,,,,Space,keypress(Space),,,,instrumental,,,,-- -- --- ------ ------- --------- ----------- --------<br>--------- -------- --- ------- -- ------- ---- -- ------<br>-- --- -------- -------- ---------- ---- ---- ---- ------<br>-- --------- -- ---- -- --- -- --- ------- -- - -----<br>punishable -- -- -- ---- ----- -- ------ -- --- ------<br>-------,277852.07000002265,277851.2599999958,277574.639,277574.7300000221,277580.816,277858.68,,38,punishable
screen,html.Screen,2_3_1_0_1_39,2021-04-26T14:27:08.144Z,,,,,,,,,,,,,,,,,48,,,,,,,,,,,,,,250.17000001872657,,response,,,,10,C,,,,,,Space,keypress(Space),,,,instrumental,,,,-- -- --- ------ ------- --------- ----------- --------<br>--------- -------- --- ------- -- ------- ---- -- ------<br>-- --- -------- -------- ---------- ---- ---- ---- ------<br>-- --------- -- ---- -- --- -- --- ------- -- - -----<br>---------- by -- -- ---- ----- -- ------ -- --- ------<br>-------,278109.85999999684,278108.8500000187,277847.277,277852.29999999865,277858.68,278116.801,,39,by
screen,html.Screen,2_3_1_0_1_40,2021-04-26T14:27:08.350Z,,,,,,,,,,,,,,,,,48,,,,,,,,,,,,,,197.94900001958013,,response,,,,10,C,,,,,,Space,keypress(Space),,,,instrumental,,,,-- -- --- ------ ------- --------- ----------- --------<br>--------- -------- --- ------- -- ------- ---- -- ------<br>-- --- -------- -------- ---------- ---- ---- ---- ------<br>-- --------- -- ---- -- --- -- --- ------- -- - -----<br>---------- -- up -- ---- ----- -- ------ -- --- ------<br>-------,278315.64499999513,278314.75000001956,278108.653,278110.1750000089,278116.801,278322.248,,40,up
