sender,sender_type,sender_id,timestamp,meta,,Blues,Classical,Country,Dance,Electronic,Folk,Gospel,Hip-Hop,Jazz,Latin,Musical/Film,New-age,Pop,Prolific_id,Provo_ID,R&B,Rap,Reggae,Religious,Rock,Soul,Swing,Traditional,age,artist_name,correct,correctResponse,distraction,duration,education,ended_on,familiarity,gender,headphone_check_performance,item,list,music_frequency,offensiveness,pleasantness,position_correct,preference,response,response_action,snippet_file,song_name,song_rating,sound,stimulus_1,stimulus_2,stimulus_3,text,time_commit,time_end,time_render,time_run,time_show,time_switch,url,word,word_ID
Prolific ID,html.Form,0,2021-04-28T20:06:03.763Z,"{""labjs_version"":""20.2.2"",""labjs_build"":{""flavor"":""production"",""commit"":""a25486e0c714a0ae2ce03ff94b7bb6896854dcfa""},""location"":""https://run.pavlovia.org/mvasilev/prolific_music_b/"",""userAgent"":""Mozilla/5.0 (Macintosh; Intel Mac OS X 10_15_7) AppleWebKit/537.36 (KHTML, like Gecko) Chrome/90.0.4430.93 Safari/537.36"",""platform"":""MacIntel"",""language"":""en-GB"",""locale"":""en-GB"",""timeZone"":""Europe/London"",""timezoneOffset"":-60,""screen_width"":1440,""screen_height"":900,""scroll_width"":1441,""scroll_height"":635,""window_innerWidth"":1441,""window_innerHeight"":683,""devicePixelRatio"":2}",,,,,,,,,,,,,,,5d35989e71b4880017d5cc81,,,,,,,,,,,,,,,55366.468000010245,,form submission,,,,,,,,,,,,,,,,,,,,,84946.12500001676,84945.37500001024,29562.24,29561.91500002751,29578.907,84946.218,{},,
Introduction,html.Screen,1_0,2021-04-28T20:06:24.265Z,,,,,,,,,,,,,,,,,,,,,,,,,,,,,,,20496.947000004235,,response,,,,,,,,,,,continue,click button,,,,,,,,,105448.33000004292,105443.16500000423,84929.551,84946.87500002328,84946.218,105463.2,,,
Volume calibration,html.Screen,1_1,2021-04-28T20:06:40.135Z,,,,,,,,,,,,,,,,,,,,,,,,,,,,,,,15849.93500000397,,response,,,,,,,,,,,continue,click button,,,,,,,,,121318.66500002798,121313.13500000397,105446.533,105448.62000003923,105463.2,121330.025,,,
Task instructions,html.Screen,1_2,2021-04-28T20:06:45.256Z,,,,,,,,,,,,,,,,,,,,,,,,,,,,,,,5106.465000050986,,response,,,,,,,,,,,continue,click button,,,,,,,,,126439.66500001261,126436.49000005098,121313.358,121318.79000004847,121330.025,126446.794,,,
Sounds,html.Screen,1_3_0_0,2021-04-28T20:06:49.499Z,,,,,,,,,,,,,,,,,,,,,,,,,,,,,,,4249.998000000007,,timeout,,,,,,,,,1,,,,,,,,S,O,I,,130682.70500004292,130680.125,126430.127,126439.95500000892,126446.794,130696.792,,,
Judgement,html.Screen,1_3_0_1,2021-04-28T20:06:50.826Z,,,,,,,,,,,,,,,,,,,,,,,,,,,,true,1,,1311.4630000515754,,response,,,,,,,,,1,,1,click #choice-1,,,,,S,O,I,,132010.16500004334,132008.25500005158,130680.125,130682.8300000052,130696.792,132013.485,,,
Trial,flow.Sequence,1_3_0,2021-04-28T20:06:50.826Z,,,,,,,,,,,,,,,,,,,,,,,,,,,,,,,5561.461000051582,,completion,,,,,,,,,1,,,,,,,,S,O,I,,132010.5400000466,132008.25500005158,126430.127,126439.91500005359,126446.794,132013.485,,,
Sounds,html.Screen,1_3_1_0,2021-04-28T20:06:55.064Z,,,,,,,,,,,,,,,,,,,,,,,,,,,,,,,4250.085000000021,,timeout,,,,,,,,,1,,,,,,,,S,I,O,,136247.955000028,136246.903,131996.818,132010.70500002243,132013.485,136263.57,,,
Judgement,html.Screen,1_3_1_1,2021-04-28T20:06:55.662Z,,,,,,,,,,,,,,,,,,,,,,,,,,,,true,1,,581.46500000573,,response,,,,,,,,,1,,1,click #choice-1,,,,,S,I,O,,136846.70500003267,136845.03500000574,136246.903,136248.04000003496,136263.57,136846.915,,,
Trial,flow.Sequence,1_3_1,2021-04-28T20:06:55.663Z,,,,,,,,,,,,,,,,,,,,,,,,,,,,,,,4831.550000005751,,completion,,,,,,,,,1,,,,,,,,S,I,O,,136846.95500001544,136845.03500000574,131996.818,132010.62000001548,132013.485,136846.915,,,
Sounds,html.Screen,1_3_2_0,2021-04-28T20:06:59.898Z,,,,,,,,,,,,,,,,,,,,,,,,,,,,,,,4250.008000000002,,timeout,,,,,,,,,3,,,,,,,,I,O,S,,141082.33000000473,141080.256,136830.248,136847.08000003593,136846.915,141096.923,,,
Judgement,html.Screen,1_3_2_1,2021-04-28T20:07:00.396Z,,,,,,,,,,,,,,,,,,,,,,,,,,,,true,3,,482.4019999987795,,response,,,,,,,,,3,,3,click #choice-3,,,,,I,O,S,,141580.8750000433,141579.3249999988,141080.256,141082.50000001863,141096.923,141596.933,,,
Trial,flow.Sequence,1_3_2,2021-04-28T20:07:00.397Z,,,,,,,,,,,,,,,,,,,,,,,,,,,,,,,4732.409999998781,,completion,,,,,,,,,3,,,,,,,,I,O,S,,141581.04000001913,141579.3249999988,136830.248,136847.0400000224,136846.915,141596.933,,,
Sounds,html.Screen,1_3_3_0,2021-04-28T20:07:04.647Z,,,,,,,,,,,,,,,,,,,,,,,,,,,,,,,4250.085000000021,,timeout,,,,,,,,,2,,,,,,,,O,S,I,,145831.995000015,145830.351,141580.266,141581.16500003962,141596.933,145847.018,,,
Judgement,html.Screen,1_3_3_1,2021-04-28T20:07:05.620Z,,,,,,,,,,,,,,,,,,,,,,,,,,,,false,2,,955.4970000466856,,response,,,,,,,,,2,,1,click #choice-1,,,,,O,S,I,,146804.33000001358,146802.5150000467,145830.351,145832.1650000289,145847.018,146813.704,,,
Trial,flow.Sequence,1_3_3,2021-04-28T20:07:05.620Z,,,,,,,,,,,,,,,,,,,,,,,,,,,,,,,5205.5820000467065,,completion,,,,,,,,,2,,,,,,,,O,S,I,,146804.54000004102,146802.5150000467,141580.266,141581.12500002608,141596.933,146813.704,,,
Sounds,html.Screen,1_3_4_0,2021-04-28T20:07:09.864Z,,,,,,,,,,,,,,,,,,,,,,,,,,,,,,,4250.130000000005,,timeout,,,,,,,,,3,,,,,,,,O,I,S,,151048.37000003317,151047.167,146797.037,146804.6650000033,146813.704,151063.834,,,
Judgement,html.Screen,1_3_4_1,2021-04-28T20:07:10.308Z,,,,,,,,,,,,,,,,,,,,,,,,,,,,true,3,,427.6110000505869,,response,,,,,,,,,3,,3,click #choice-3,,,,,O,I,S,,151492.62000003364,151491.4450000506,151047.167,151048.45500004012,151063.834,151497.176,,,
Trial,flow.Sequence,1_3_4,2021-04-28T20:07:10.308Z,,,,,,,,,,,,,,,,,,,,,,,,,,,,,,,4677.7410000505915,,completion,,,,,,,,,3,,,,,,,,O,I,S,,151492.79000004753,151491.4450000506,146797.037,146804.6200000099,146813.704,151497.176,,,
Sounds,html.Screen,1_3_5_0,2021-04-28T20:07:14.547Z,,,,,,,,,,,,,,,,,,,,,,,,,,,,,,,4250.084999999992,,timeout,,,,,,,,,2,,,,,,,,I,S,O,,155732.29000001447,155730.594,151480.509,151492.8700000164,151497.176,155747.261,,,
Judgement,html.Screen,1_3_5_1,2021-04-28T20:07:14.973Z,,,,,,,,,,,,,,,,,,,,,,,,,,,,true,2,,409.2240000431775,,response,,,,,,,,,2,,2,click #choice-2,,,,,I,S,O,,156158.33000000566,156156.48500004318,155730.594,155732.37500002142,155747.261,156163.936,,,
Trial,flow.Sequence,1_3_5,2021-04-28T20:07:14.974Z,,,,,,,,,,,,,,,,,,,,,,,,,,,,,,,4659.309000043169,,completion,,,,,,,,,2,,,,,,,,I,S,O,,156158.5400000331,156156.48500004318,151480.509,151492.83000000287,151497.176,156163.936,,,
Task,flow.Loop,1_3,2021-04-28T20:07:14.978Z,,,,,,,,,,,,,,,,,,,,,,,,,,,,,,,29709.69100004318,,completion,,,0.8333333333333334,,,,,,,,,,,,,,,,,,156162.45500004152,156156.48500004318,126430.127,126439.8350000265,126446.794,156163.936,,,
Trap,html.Screen,1_4,2021-04-28T20:07:14.981Z,,,,,,,,,,,,,,,,,,,,,,,,,,,,,,,NaN,,skipped,,,,,,,,,,,,,,,,,,,,,156165.58500000974,156156.48500004318,,156165.4550000094,,156163.936,,,
Thanks,html.Screen,1_5,2021-04-28T20:07:17.923Z,,,,,,,,,,,,,,,,,,,,,,,,,,,,,,,2941.7040000234265,,response,,,,,,,,,,,continue,click button,,,,,,,,,159107.87500004517,159105.6400000234,156147.269,156165.70500005037,156163.936,163097.397,,,
Headphone screening,flow.Sequence,1,2021-04-28T20:07:17.923Z,,,,,,,,,,,,,,,,,,,,,,,,,,,,,,,74159.42200002342,,completion,,,,,,,,,,,,,,,,,,,,,159108.12500002794,159105.6400000234,84929.551,84946.83000002988,84946.218,163097.397,,,
Instructions,html.Page,2_0,2021-04-28T20:07:38.623Z,,,,,,,,,,,,,,,,,,,,,,,,,,,,,,,16710.643000032636,,form submission,,,,,,,,,,,,,,,,,,,,,179808.4150000359,179808.04000003263,163080.73,163084.5800000243,163097.397,179814.427,,,
Holding screen,html.Screen,2_1_0_0,2021-04-28T20:07:48.614Z,,,,,,,,,,,,,,,,,,,,,,,,,,,,,,,10000.200000000012,,timeout,,,,,,,,,,,,,,,,,,,,,189800.0400000019,189797.96,179797.76,179808.62000002526,179814.427,189814.627,,,
screen,html.Screen,2_1_0_1_0,2021-04-28T20:07:51.691Z,,,,,,,,,,,,,,,,,53,,,,,,,,,,,,,,3055.208000019513,,response,,,,99,,,,,,,Space,keypress(Space),,,,,,,,When -- ----- -- ------ - ------- --- ----------<br>------------- ------ ------ ---- ---- ------- ----- -- ----<br>-------- ------- -- ---------- --- - --- ----- ----- ----<br>---- --- --- ----- --- ---- ---- ------- ----- ---- -------<br>--- --- -- ----- -- --- ---- -- --- ---- -- ------ ------<br>--- ----- -- ----,192877.04000005033,192869.83500001952,189797.96,189800.3299999982,189814.627,192881.355,,0,When
screen,html.Screen,2_1_0_1_1,2021-04-28T20:07:52.421Z,,,,,,,,,,,,,,,,,53,,,,,,,,,,,,,,720.6400000336289,,response,,,,99,,,,,,,Space,keypress(Space),,,,,,,,---- it ----- -- ------ - ------- --- ----------<br>------------- ------ ------ ---- ---- ------- ----- -- ----<br>-------- ------- -- ---------- --- - --- ----- ----- ----<br>---- --- --- ----- --- ---- ---- ------- ----- ---- -------<br>--- --- -- ----- -- --- ---- -- --- ---- -- ------ ------<br>--- ----- -- ----,193607.330000028,193601.99500003364,192864.688,192877.2900000331,192881.355,193614.617,,1,it
screen,html.Screen,2_1_0_1_2,2021-04-28T20:07:52.938Z,,,,,,,,,,,,,,,,,53,,,,,,,,,,,,,,503.77300001782714,,response,,,,99,,,,,,,Space,keypress(Space),,,,,,,,---- -- comes -- ------ - ------- --- ----------<br>------------- ------ ------ ---- ---- ------- ----- -- ----<br>-------- ------- -- ---------- --- - --- ----- ----- ----<br>---- --- --- ----- --- ---- ---- ------- ----- ---- -------<br>--- --- -- ----- -- --- ---- -- --- ---- -- ------ ------<br>--- ----- -- ----,194124.04000002425,194118.39000001783,193597.95,193607.49500000384,193614.617,194131.294,,2,comes
screen,html.Screen,2_1_0_1_3,2021-04-28T20:07:53.397Z,,,,,,,,,,,,,,,,,53,,,,,,,,,,,,,,448.5460000203457,,response,,,,99,,,,,,,Space,keypress(Space),,,,,,,,---- -- ----- to ------ - ------- --- ----------<br>------------- ------ ------ ---- ---- ------- ----- -- ----<br>-------- ------- -- ---------- --- - --- ----- ----- ----<br>---- --- --- ----- --- ---- ---- ------- ----- ---- -------<br>--- --- -- ----- -- --- ---- -- --- ---- -- ------ ------<br>--- ----- -- ----,194582.95500004897,194579.84000002034,194114.627,194124.24500001362,194131.294,194597.97,,3,to
screen,html.Screen,2_1_0_1_4,2021-04-28T20:07:53.860Z,,,,,,,,,,,,,,,,,53,,,,,,,,,,,,,,443.27000004958245,,response,,,,99,,,,,,,Space,keypress(Space),,,,,,,,---- -- ----- -- having - ------- --- ----------<br>------------- ------ ------ ---- ---- ------- ----- -- ----<br>-------- ------- -- ---------- --- - --- ----- ----- ----<br>---- --- --- ----- --- ---- ---- ------- ----- ---- -------<br>--- --- -- ----- -- --- ---- -- --- ---- -- ------ ------<br>--- ----- -- ----,195046.08000000007,195041.24000004958,194581.303,194583.08000001125,194597.97,195047.979,,4,having
screen,html.Screen,2_1_0_1_5,2021-04-28T20:07:54.241Z,,,,,,,,,,,,,,,,,53,,,,,,,,,,,,,,375.6309999980149,,response,,,,99,,,,,,,Space,keypress(Space),,,,,,,,---- -- ----- -- ------ a ------- --- ----------<br>------------- ------ ------ ---- ---- ------- ----- -- ----<br>-------- ------- -- ---------- --- - --- ----- ----- ----<br>---- --- --- ----- --- ---- ---- ------- ----- ---- -------<br>--- --- -- ----- -- --- ---- -- --- ---- -- ------ ------<br>--- ----- -- ----,195426.95500003174,195423.609999998,195031.312,195046.25000001397,195047.979,195431.32,,5,a
screen,html.Screen,2_1_0_1_6,2021-04-28T20:07:54.680Z,,,,,,,,,,,,,,,,,53,,,,,,,,,,,,,,430.85500001657056,,response,,,,99,,,,,,,Space,keypress(Space),,,,,,,,---- -- ----- -- ------ - lasting --- ----------<br>------------- ------ ------ ---- ---- ------- ----- -- ----<br>-------- ------- -- ---------- --- - --- ----- ----- ----<br>---- --- --- ----- --- ---- ---- ------- ----- ---- -------<br>--- --- -- ----- -- --- ---- -- --- ---- -- ------ ------<br>--- ----- -- ----,195865.8300000243,195862.17500001658,195414.653,195427.16500000097,195431.32,195881.329,,6,lasting
screen,html.Screen,2_1_0_1_7,2021-04-28T20:07:55.076Z,,,,,,,,,,,,,,,,,53,,,,,,,,,,,,,,374.7810000166355,,response,,,,99,,,,,,,Space,keypress(Space),,,,,,,,---- -- ----- -- ------ - ------- and ----------<br>------------- ------ ------ ---- ---- ------- ----- -- ----<br>-------- ------- -- ---------- --- - --- ----- ----- ----<br>---- --- --- ----- --- ---- ---- ------- ----- ---- -------<br>--- --- -- ----- -- --- ---- -- --- ---- -- ------ ------<br>--- ----- -- ----,196261.4150000154,196256.11000001663,195864.662,195865.95500004478,195881.329,196264.67,,7,and
screen,html.Screen,2_1_0_1_8,2021-04-28T20:07:55.512Z,,,,,,,,,,,,,,,,,53,,,,,,,,,,,,,,430.2500000380969,,response,,,,99,,,,,,,Space,keypress(Space),,,,,,,,---- -- ----- -- ------ - ------- --- fulfilling<br>------------- ------ ------ ---- ---- ------- ----- -- ----<br>-------- ------- -- ---------- --- - --- ----- ----- ----<br>---- --- --- ----- --- ---- ---- ------- ----- ---- -------<br>--- --- -- ----- -- --- ---- -- --- ---- -- ------ ------<br>--- ----- -- ----,196697.9950000532,196694.9200000381,196248.003,196261.66499999817,196264.67,196714.679,,8,fulfilling
screen,html.Screen,2_1_0_1_9,2021-04-28T20:07:55.875Z,,,,,,,,,,,,,,,,,53,,,,,,,,,,,,,,340.8660000101663,,response,,,,99,,,,,,,Space,keypress(Space),,,,,,,,"---- -- ----- -- ------ - ------- --- ----------<br>relationship, ------ ------ ---- ---- ------- ----- -- ----<br>-------- ------- -- ---------- --- - --- ----- ----- ----<br>---- --- --- ----- --- ---- ---- ------- ----- ---- -------<br>--- --- -- ----- -- --- ---- -- --- ---- -- ------ ------<br>--- ----- -- ----",197061.08000001404,197055.54500001017,196698.012,196698.16500000888,196714.679,197064.686,,9,"relationship,"
screen,html.Screen,2_1_0_1_10,2021-04-28T20:07:56.244Z,,,,,,,,,,,,,,,,,53,,,,,,,,,,,,,,361.57400003657676,,response,,,,99,,,,,,,Space,keypress(Space),,,,,,,,---- -- ----- -- ------ - ------- --- ----------<br>------------- common ------ ---- ---- ------- ----- -- ----<br>-------- ------- -- ---------- --- - --- ----- ----- ----<br>---- --- --- ----- --- ---- ---- ------- ----- ---- -------<br>--- --- -- ----- -- --- ---- -- --- ---- -- ------ ------<br>--- ----- -- ----,197429.75000001024,197426.26000003656,197048.019,197061.41500000376,197064.686,197431.36,,10,common
screen,html.Screen,2_1_0_1_11,2021-04-28T20:07:56.547Z,,,,,,,,,,,,,,,,,53,,,,,,,,,,,,,,297.8850000532111,,response,,,,99,,,,,,,Space,keypress(Space),,,,,,,,---- -- ----- -- ------ - ------- --- ----------<br>------------- ------ wisdom ---- ---- ------- ----- -- ----<br>-------- ------- -- ---------- --- - --- ----- ----- ----<br>---- --- --- ----- --- ---- ---- ------- ----- ---- -------<br>--- --- -- ----- -- --- ---- -- --- ---- -- ------ ------<br>--- ----- -- ----,197733.12000004807,197729.2450000532,197414.693,197429.91500004428,197431.36,197748.033,,11,wisdom
screen,html.Screen,2_1_0_1_12,2021-04-28T20:07:57.030Z,,,,,,,,,,,,,,,,,53,,,,,,,,,,,,,,465.06200001371326,,response,,,,99,,,,,,,Space,keypress(Space),,,,,,,,---- -- ----- -- ------ - ------- --- ----------<br>------------- ------ ------ says ---- ------- ----- -- ----<br>-------- ------- -- ---------- --- - --- ----- ----- ----<br>---- --- --- ----- --- ---- ---- ------- ----- ---- -------<br>--- --- -- ----- -- --- ---- -- --- ---- -- ------ ------<br>--- ----- -- ----,198216.16500004893,198213.0950000137,197731.366,197733.29000000376,197748.033,198231.376,,12,says
screen,html.Screen,2_1_0_1_13,2021-04-28T20:07:57.372Z,,,,,,,,,,,,,,,,,53,,,,,,,,,,,,,,320.53400003834395,,response,,,,99,,,,,,,Space,keypress(Space),,,,,,,,---- -- ----- -- ------ - ------- --- ----------<br>------------- ------ ------ ---- that ------- ----- -- ----<br>-------- ------- -- ---------- --- - --- ----- ----- ----<br>---- --- --- ----- --- ---- ---- ------- ----- ---- -------<br>--- --- -- ----- -- --- ---- -- --- ---- -- ------ ------<br>--- ----- -- ----,198557.87000001874,198551.91000003833,198214.709,198216.33000002475,198231.376,198564.716,,13,that
screen,html.Screen,2_1_0_1_14,2021-04-28T20:07:57.796Z,,,,,,,,,,,,,,,,,53,,,,,,,,,,,,,,413.8990000291087,,response,,,,99,,,,,,,Space,keypress(Space),,,,,,,,---- -- ----- -- ------ - ------- --- ----------<br>------------- ------ ------ ---- ---- feeling ----- -- ----<br>-------- ------- -- ---------- --- - --- ----- ----- ----<br>---- --- --- ----- --- ---- ---- ------- ----- ---- -------<br>--- --- -- ----- -- --- ---- -- --- ---- -- ------ ------<br>--- ----- -- ----,198982.330000028,198978.6150000291,198548.049,198558.16500005312,198564.716,198998.058,,14,feeling
screen,html.Screen,2_1_0_1_15,2021-04-28T20:07:58.146Z,,,,,,,,,,,,,,,,,53,,,,,,,,,,,,,,330.22200001610327,,response,,,,99,,,,,,,Space,keypress(Space),,,,,,,,---- -- ----- -- ------ - ------- --- ----------<br>------------- ------ ------ ---- ---- ------- close -- ----<br>-------- ------- -- ---------- --- - --- ----- ----- ----<br>---- --- --- ----- --- ---- ---- ------- ----- ---- -------<br>--- --- -- ----- -- --- ---- -- --- ---- -- ------ ------<br>--- ----- -- ----,199332.1200000355,199328.2800000161,198981.391,198982.53999999724,198998.058,199348.065,,15,close
screen,html.Screen,2_1_0_1_16,2021-04-28T20:07:58.461Z,,,,,,,,,,,,,,,,,53,,,,,,,,,,,,,,295.5800000037416,,response,,,,99,,,,,,,Space,keypress(Space),,,,,,,,---- -- ----- -- ------ - ------- --- ----------<br>------------- ------ ------ ---- ---- ------- ----- to ----<br>-------- ------- -- ---------- --- - --- ----- ----- ----<br>---- --- --- ----- --- ---- ---- ------- ----- ---- -------<br>--- --- -- ----- -- --- ---- -- --- ---- -- ------ ------<br>--- ----- -- ----,199647.16500003124,199643.64500000374,199331.398,199332.45500002522,199348.065,199664.738,,16,to
screen,html.Screen,2_1_0_1_17,2021-04-28T20:07:58.830Z,,,,,,,,,,,,,,,,,53,,,,,,,,,,,,,,348.1070000192849,,response,,,,99,,,,,,,Space,keypress(Space),,,,,,,,---- -- ----- -- ------ - ------- --- ----------<br>------------- ------ ------ ---- ---- ------- ----- -- your<br>-------- ------- -- ---------- --- - --- ----- ----- ----<br>---- --- --- ----- --- ---- ---- ------- ----- ---- -------<br>--- --- -- ----- -- --- ---- -- --- ---- -- ------ ------<br>--- ----- -- ----,200015.79000003403,200012.8450000193,199648.071,199647.5400000345,199664.738,200031.412,,17,your
screen,html.Screen,2_1_0_1_18,2021-04-28T20:07:59.124Z,,,,,,,,,,,,,,,,,53,,,,,,,,,,,,,,275.0330000529066,,response,,,,99,,,,,,,Space,keypress(Space),,,,,,,,---- -- ----- -- ------ - ------- --- ----------<br>------------- ------ ------ ---- ---- ------- ----- -- ----<br>romantic ------- -- ---------- --- - --- ----- ----- ----<br>---- --- --- ----- --- ---- ---- ------- ----- ---- -------<br>--- --- -- ----- -- --- ---- -- --- ---- -- ------ ------<br>--- ----- -- ----,200309.62500005262,200306.44500005292,200014.745,200015.95500000985,200031.412,200314.751,,18,romantic
screen,html.Screen,2_1_0_1_19,2021-04-28T20:07:59.486Z,,,,,,,,,,,,,,,,,53,,,,,,,,,,,,,,351.7290000144276,,response,,,,99,,,,,,,Space,keypress(Space),,,,,,,,---- -- ----- -- ------ - ------- --- ----------<br>------------- ------ ------ ---- ---- ------- ----- -- ----<br>-------- partner -- ---------- --- - --- ----- ----- ----<br>---- --- --- ----- --- ---- ---- ------- ----- ---- -------<br>--- --- -- ----- -- --- ---- -- --- ---- -- ------ ------<br>--- ----- -- ----,200672.12500004098,200666.48000001442,200298.084,200309.79000002844,200314.751,200681.471,,19,partner
screen,html.Screen,2_1_0_1_20,2021-04-28T20:07:59.832Z,,,,,,,,,,,,,,,,,53,,,,,,,,,,,,,,332.7740000275953,,response,,,,99,,,,,,,Space,keypress(Space),,,,,,,,---- -- ----- -- ------ - ------- --- ----------<br>------------- ------ ------ ---- ---- ------- ----- -- ----<br>-------- ------- is ---------- --- - --- ----- ----- ----<br>---- --- --- ----- --- ---- ---- ------- ----- ---- -------<br>--- --- -- ----- -- --- ---- -- --- ---- -- ------ ------<br>--- ----- -- ----,201018.3300000499,201014.2450000276,200664.804,200672.53999999957,200681.471,201031.478,,20,is
screen,html.Screen,2_1_0_1_21,2021-04-28T20:08:00.194Z,,,,,,,,,,,,,,,,,53,,,,,,,,,,,,,,344.1120000105584,,response,,,,99,,,,,,,Space,keypress(Space),,,,,,,,---- -- ----- -- ------ - ------- --- ----------<br>------------- ------ ------ ---- ---- ------- ----- -- ----<br>-------- ------- -- paramount. --- - --- ----- ----- ----<br>---- --- --- ----- --- ---- ---- ------- ----- ---- -------<br>--- --- -- ----- -- --- ---- -- --- ---- -- ------ ------<br>--- ----- -- ----,201380.455000035,201375.59000001056,201014.811,201018.58000003267,201031.478,201381.485,,21,paramount.
screen,html.Screen,2_1_0_1_22,2021-04-28T20:08:00.644Z,,,,,,,,,,,,,,,,,53,,,,,,,,,,,,,,444.455000009737,,response,,,,99,,,,,,,Space,keypress(Space),,,,,,,,---- -- ----- -- ------ - ------- --- ----------<br>------------- ------ ------ ---- ---- ------- ----- -- ----<br>-------- ------- -- ---------- But - --- ----- ----- ----<br>---- --- --- ----- --- ---- ---- ------- ----- ---- -------<br>--- --- -- ----- -- --- ---- -- --- ---- -- ------ ------<br>--- ----- -- ----,201830.2900000126,201825.94000000972,201364.818,201380.66500000423,201381.485,201831.494,,22,But
screen,html.Screen,2_1_0_1_23,2021-04-28T20:08:00.979Z,,,,,,,,,,,,,,,,,53,,,,,,,,,,,,,,330.55100000457605,,response,,,,99,,,,,,,Space,keypress(Space),,,,,,,,---- -- ----- -- ------ - ------- --- ----------<br>------------- ------ ------ ---- ---- ------- ----- -- ----<br>-------- ------- -- ---------- --- a --- ----- ----- ----<br>---- --- --- ----- --- ---- ---- ------- ----- ---- -------<br>--- --- -- ----- -- --- ---- -- --- ---- -- ------ ------<br>--- ----- -- ----,202165.62500002328,202162.04500000458,201814.827,201830.49500000197,201831.494,202181.501,,23,a
screen,html.Screen,2_1_0_1_24,2021-04-28T20:08:01.530Z,,,,,,,,,,,,,,,,,53,,,,,,,,,,,,,,531.5540000001783,,response,,,,99,,,,,,,Space,keypress(Space),,,,,,,,---- -- ----- -- ------ - ------- --- ----------<br>------------- ------ ------ ---- ---- ------- ----- -- ----<br>-------- ------- -- ---------- --- - new ----- ----- ----<br>---- --- --- ----- --- ---- ---- ------- ----- ---- -------<br>--- --- -- ----- -- --- ---- -- --- ---- -- ------ ------<br>--- ----- -- ----,202716.0000000149,202713.05500000017,202164.834,202165.95500003314,202181.501,202731.512,,24,new
screen,html.Screen,2_1_0_1_25,2021-04-28T20:08:01.779Z,,,,,,,,,,,,,,,,,53,,,,,,,,,,,,,,230.27300005045254,,response,,,,99,,,,,,,Space,keypress(Space),,,,,,,,---- -- ----- -- ------ - ------- --- ----------<br>------------- ------ ------ ---- ---- ------- ----- -- ----<br>-------- ------- -- ---------- --- - --- study ----- ----<br>---- --- --- ----- --- ---- ---- ------- ----- ---- -------<br>--- --- -- ----- -- --- ---- -- --- ---- -- ------ ------<br>--- ----- -- ----,202965.29000002192,202961.78500005044,202714.845,202716.20500000427,202731.512,202981.517,,25,study
screen,html.Screen,2_1_0_1_26,2021-04-28T20:08:02.041Z,,,,,,,,,,,,,,,,,53,,,,,,,,,,,,,,239.57800004445016,,response,,,,99,,,,,,,Space,keypress(Space),,,,,,,,---- -- ----- -- ------ - ------- --- ----------<br>------------- ------ ------ ---- ---- ------- ----- -- ----<br>-------- ------- -- ---------- --- - --- ----- finds ----<br>---- --- --- ----- --- ---- ---- ------- ----- ---- -------<br>--- --- -- ----- -- --- ---- -- --- ---- -- ------ ------<br>--- ----- -- ----,203226.6650000238,203221.09500004444,202964.85,202965.4150000424,202981.517,203231.522,,26,finds
screen,html.Screen,2_1_0_1_27,2021-04-28T20:08:02.330Z,,,,,,,,,,,,,,,,,53,,,,,,,,,,,,,,281.16800000320654,,response,,,,99,,,,,,,Space,keypress(Space),,,,,,,,---- -- ----- -- ------ - ------- --- ----------<br>------------- ------ ------ ---- ---- ------- ----- -- ----<br>-------- ------- -- ---------- --- - --- ----- ----- that<br>---- --- --- ----- --- ---- ---- ------- ----- ---- -------<br>--- --- -- ----- -- --- ---- -- --- ---- -- ------ ------<br>--- ----- -- ----,203516.12500002375,203512.6900000032,203214.855,203226.87000001315,203231.522,203531.528,,27,that
screen,html.Screen,2_1_0_1_28,2021-04-28T20:08:02.692Z,,,,,,,,,,,,,,,,,53,,,,,,,,,,,,,,341.22700001852354,,response,,,,99,,,,,,,Space,keypress(Space),,,,,,,,---- -- ----- -- ------ - ------- --- ----------<br>------------- ------ ------ ---- ---- ------- ----- -- ----<br>-------- ------- -- ---------- --- - --- ----- ----- ----<br>it's --- --- ----- --- ---- ---- ------- ----- ---- -------<br>--- --- -- ----- -- --- ---- -- --- ---- -- ------ ------<br>--- ----- -- ----,203878.20500001544,203872.75500001851,203514.861,203516.500000027,203531.528,203881.535,,28,it's
screen,html.Screen,2_1_0_1_29,2021-04-28T20:08:02.952Z,,,,,,,,,,,,,,,,,53,,,,,,,,,,,,,,250.96500000698143,,response,,,,99,,,,,,,Space,keypress(Space),,,,,,,,---- -- ----- -- ------ - ------- --- ----------<br>------------- ------ ------ ---- ---- ------- ----- -- ----<br>-------- ------- -- ---------- --- - --- ----- ----- ----<br>---- not --- ----- --- ---- ---- ------- ----- ---- -------<br>--- --- -- ----- -- --- ---- -- --- ---- -- ------ ------<br>--- ----- -- ----,204138.2900000317,204132.50000000698,203864.868,203878.41500004288,203881.535,204148.207,,29,not
screen,html.Screen,2_1_0_1_30,2021-04-28T20:08:03.210Z,,,,,,,,,,,,,,,,,53,,,,,,,,,,,,,,242.57300001609838,,response,,,,99,,,,,,,Space,keypress(Space),,,,,,,,---- -- ----- -- ------ - ------- --- ----------<br>------------- ------ ------ ---- ---- ------- ----- -- ----<br>-------- ------- -- ---------- --- - --- ----- ----- ----<br>---- --- how ----- --- ---- ---- ------- ----- ---- -------<br>--- --- -- ----- -- --- ---- -- --- ---- -- ------ ------<br>--- ----- -- ----,204395.75000002515,204390.7800000161,204131.54,204138.54000001447,204148.207,204398.212,,30,how
screen,html.Screen,2_1_0_1_31,2021-04-28T20:08:03.468Z,,,,,,,,,,,,,,,,,53,,,,,,,,,,,,,,251.12300002371194,,response,,,,99,,,,,,,Space,keypress(Space),,,,,,,,---- -- ----- -- ------ - ------- --- ----------<br>------------- ------ ------ ---- ---- ------- ----- -- ----<br>-------- ------- -- ---------- --- - --- ----- ----- ----<br>---- --- --- close --- ---- ---- ------- ----- ---- -------<br>--- --- -- ----- -- --- ---- -- --- ---- -- ------ ------<br>--- ----- -- ----,204654.66500003822,204649.3350000237,204381.545,204395.91500000097,204398.212,204664.884,,31,close
screen,html.Screen,2_1_0_1_32,2021-04-28T20:08:03.781Z,,,,,,,,,,,,,,,,,53,,,,,,,,,,,,,,298.1760000382492,,response,,,,99,,,,,,,Space,keypress(Space),,,,,,,,---- -- ----- -- ------ - ------- --- ----------<br>------------- ------ ------ ---- ---- ------- ----- -- ----<br>-------- ------- -- ---------- --- - --- ----- ----- ----<br>---- --- --- ----- you ---- ---- ------- ----- ---- -------<br>--- --- -- ----- -- --- ---- -- --- ---- -- ------ ------<br>--- ----- -- ----,204967.04000001773,204963.06000003824,204648.217,204654.95500003453,204664.884,204981.557,,32,you
screen,html.Screen,2_1_0_1_33,2021-04-28T20:08:04.062Z,,,,,,,,,,,,,,,,,53,,,,,,,,,,,,,,263.7330000498623,,response,,,,99,,,,,,,Space,keypress(Space),,,,,,,,---- -- ----- -- ------ - ------- --- ----------<br>------------- ------ ------ ---- ---- ------- ----- -- ----<br>-------- ------- -- ---------- --- - --- ----- ----- ----<br>---- --- --- ----- --- feel ---- ------- ----- ---- -------<br>--- --- -- ----- -- --- ---- -- --- ---- -- ------ ------<br>--- ----- -- ----,205248.37500002468,205245.29000004986,204964.89,204969.0399999963,204981.557,205264.896,,33,feel
screen,html.Screen,2_1_0_1_34,2021-04-28T20:08:04.332Z,,,,,,,,,,,,,,,,,53,,,,,,,,,,,,,,250.29400000552414,,response,,,,99,,,,,,,Space,keypress(Space),,,,,,,,---- -- ----- -- ------ - ------- --- ----------<br>------------- ------ ------ ---- ---- ------- ----- -- ----<br>-------- ------- -- ---------- --- - --- ----- ----- ----<br>---- --- --- ----- --- ---- that ------- ----- ---- -------<br>--- --- -- ----- -- --- ---- -- --- ---- -- ------ ------<br>--- ----- -- ----,205518.5000000056,205515.19000000553,205248.229,205248.5400000005,205264.896,205531.568,,34,that
screen,html.Screen,2_1_0_1_35,2021-04-28T20:08:04.593Z,,,,,,,,,,,,,,,,,53,,,,,,,,,,,,,,242.44700003179605,,response,,,,99,,,,,,,Space,keypress(Space),,,,,,,,---- -- ----- -- ------ - ------- --- ----------<br>------------- ------ ------ ---- ---- ------- ----- -- ----<br>-------- ------- -- ---------- --- - --- ----- ----- ----<br>---- --- --- ----- --- ---- ---- matters ----- ---- -------<br>--- --- -- ----- -- --- ---- -- --- ---- -- ------ ------<br>--- ----- -- ----,205779.3300000485,205774.0150000318,205514.901,205518.70500005316,205531.568,205781.573,,35,matters
screen,html.Screen,2_1_0_1_36,2021-04-28T20:08:04.895Z,,,,,,,,,,,,,,,,,53,,,,,,,,,,,,,,296.1720000168716,,response,,,,99,,,,,,,Space,keypress(Space),,,,,,,,"---- -- ----- -- ------ - ------- --- ----------<br>------------- ------ ------ ---- ---- ------- ----- -- ----<br>-------- ------- -- ---------- --- - --- ----- ----- ----<br>---- --- --- ----- --- ---- ---- ------- most, ---- -------<br>--- --- -- ----- -- --- ---- -- --- ---- -- ------ ------<br>--- ----- -- ----",206081.20500005316,206077.74500001688,205764.906,205780.16500000376,205781.573,206098.246,,36,"most,"
screen,html.Screen,2_1_0_1_37,2021-04-28T20:08:05.224Z,,,,,,,,,,,,,,,,,53,,,,,,,,,,,,,,306.88400002827984,,response,,,,99,,,,,,,Space,keypress(Space),,,,,,,,---- -- ----- -- ------ - ------- --- ----------<br>------------- ------ ------ ---- ---- ------- ----- -- ----<br>-------- ------- -- ---------- --- - --- ----- ----- ----<br>---- --- --- ----- --- ---- ---- ------- ----- it's -------<br>--- --- -- ----- -- --- ---- -- --- ---- -- ------ ------<br>--- ----- -- ----,206410.7050000457,206405.1300000283,206081.579,206081.4150000224,206098.246,206414.919,,37,it's
screen,html.Screen,2_1_0_1_38,2021-04-28T20:08:05.606Z,,,,,,,,,,,,,,,,,53,,,,,,,,,,,,,,371.4410000273492,,response,,,,99,,,,,,,Space,keypress(Space),,,,,,,,---- -- ----- -- ------ - ------- --- ----------<br>------------- ------ ------ ---- ---- ------- ----- -- ----<br>-------- ------- -- ---------- --- - --- ----- ----- ----<br>---- --- --- ----- --- ---- ---- ------- ----- ---- whether<br>--- --- -- ----- -- --- ---- -- --- ---- -- ------ ------<br>--- ----- -- ----,206792.12500003632,206786.36000002734,206398.252,206411.08000004897,206414.919,206798.26,,38,whether
screen,html.Screen,2_1_0_1_39,2021-04-28T20:08:05.922Z,,,,,,,,,,,,,,,,,53,,,,,,,,,,,,,,304.1500000504311,,response,,,,99,,,,,,,Space,keypress(Space),,,,,,,,---- -- ----- -- ------ - ------- --- ----------<br>------------- ------ ------ ---- ---- ------- ----- -- ----<br>-------- ------- -- ---------- --- - --- ----- ----- ----<br>---- --- --- ----- --- ---- ---- ------- ----- ---- -------<br>you --- -- ----- -- --- ---- -- --- ---- -- ------ ------<br>--- ----- -- ----,207108.08000003453,207102.41000005044,206781.593,206792.3750000191,206798.26,207114.933,,39,you
screen,html.Screen,2_1_0_1_40,2021-04-28T20:08:06.246Z,,,,,,,,,,,,,,,,,53,,,,,,,,,,,,,,313.5970000337984,,response,,,,99,,,,,,,Space,keypress(Space),,,,,,,,---- -- ----- -- ------ - ------- --- ----------<br>------------- ------ ------ ---- ---- ------- ----- -- ----<br>-------- ------- -- ---------- --- - --- ----- ----- ----<br>---- --- --- ----- --- ---- ---- ------- ----- ---- -------<br>--- are -- ----- -- --- ---- -- --- ---- -- ------ ------<br>--- ----- -- ----,207432.2900000261,207428.5300000338,207098.266,207108.29000000376,207114.933,207448.273,,40,are
screen,html.Screen,2_1_0_1_41,2021-04-28T20:08:06.527Z,,,,,,,,,,,,,,,,,53,,,,,,,,,,,,,,260.55200003791833,,response,,,,99,,,,,,,Space,keypress(Space),,,,,,,,---- -- ----- -- ------ - ------- --- ----------<br>------------- ------ ------ ---- ---- ------- ----- -- ----<br>-------- ------- -- ---------- --- - --- ----- ----- ----<br>---- --- --- ----- --- ---- ---- ------- ----- ---- -------<br>--- --- as ----- -- --- ---- -- --- ---- -- ------ ------<br>--- ----- -- ----,207713.08499999577,207708.8250000379,207431.606,207432.54000000888,207448.273,207714.945,,41,as
screen,html.Screen,2_1_0_1_42,2021-04-28T20:08:06.821Z,,,,,,,,,,,,,,,,,53,,,,,,,,,,,,,,286.4300000507501,,response,,,,99,,,,,,,Space,keypress(Space),,,,,,,,---- -- ----- -- ------ - ------- --- ----------<br>------------- ------ ------ ---- ---- ------- ----- -- ----<br>-------- ------- -- ---------- --- - --- ----- ----- ----<br>---- --- --- ----- --- ---- ---- ------- ----- ---- -------<br>--- --- -- close -- --- ---- -- --- ---- -- ------ ------<br>--- ----- -- ----,208007.16500001727,208001.37500005076,207698.278,207713.2500000298,207714.945,208014.951,,42,close
screen,html.Screen,2_1_0_1_43,2021-04-28T20:08:07.145Z,,,,,,,,,,,,,,,,,53,,,,,,,,,,,,,,313.4690000343835,,response,,,,99,,,,,,,Space,keypress(Space),,,,,,,,---- -- ----- -- ------ - ------- --- ----------<br>------------- ------ ------ ---- ---- ------- ----- -- ----<br>-------- ------- -- ---------- --- - --- ----- ----- ----<br>---- --- --- ----- --- ---- ---- ------- ----- ---- -------<br>--- --- -- ----- as --- ---- -- --- ---- -- ------ ------<br>--- ----- -- ----,208331.70999999857,208328.42000003438,207998.284,208007.3750000447,208014.951,208348.291,,43,as
screen,html.Screen,2_1_0_1_44,2021-04-28T20:08:07.493Z,,,,,,,,,,,,,,,,,53,,,,,,,,,,,,,,327.6340000468481,,response,,,,99,,,,,,,Space,keypress(Space),,,,,,,,---- -- ----- -- ------ - ------- --- ----------<br>------------- ------ ------ ---- ---- ------- ----- -- ----<br>-------- ------- -- ---------- --- - --- ----- ----- ----<br>---- --- --- ----- --- ---- ---- ------- ----- ---- -------<br>--- --- -- ----- -- you ---- -- --- ---- -- ------ ------<br>--- ----- -- ----,208679.54000004102,208675.92500004685,208331.624,208331.91500004614,208348.291,208681.631,,44,you
screen,html.Screen,2_1_0_1_45,2021-04-28T20:08:07.764Z,,,,,,,,,,,,,,,,,53,,,,,,,,,,,,,,264.3539999984787,,response,,,,99,,,,,,,Space,keypress(Space),,,,,,,,---- -- ----- -- ------ - ------- --- ----------<br>------------- ------ ------ ---- ---- ------- ----- -- ----<br>-------- ------- -- ---------- --- - --- ----- ----- ----<br>---- --- --- ----- --- ---- ---- ------- ----- ---- -------<br>--- --- -- ----- -- --- want -- --- ---- -- ------ ------<br>--- ----- -- ----,208950.54000004893,208945.98499999847,208664.964,208679.6650000033,208681.631,208964.97,,45,want
screen,html.Screen,2_1_0_1_46,2021-04-28T20:08:08.058Z,,,,,,,,,,,,,,,,,53,,,,,,,,,,,,,,274.1749999995518,,response,,,,99,,,,,,,Space,keypress(Space),,,,,,,,---- -- ----- -- ------ - ------- --- ----------<br>------------- ------ ------ ---- ---- ------- ----- -- ----<br>-------- ------- -- ---------- --- - --- ----- ----- ----<br>---- --- --- ----- --- ---- ---- ------- ----- ---- -------<br>--- --- -- ----- -- --- ---- to --- ---- -- ------ ------<br>--- ----- -- ----,209244.54000004334,209239.14499999955,208948.303,208950.7900000317,208964.97,209248.309,,46,to
screen,html.Screen,2_1_0_1_47,2021-04-28T20:08:08.406Z,,,,,,,,,,,,,,,,,53,,,,,,,,,,,,,,339.87600000051316,,response,,,,99,,,,,,,Space,keypress(Space),,,,,,,,"---- -- ----- -- ------ - ------- --- ----------<br>------------- ------ ------ ---- ---- ------- ----- -- ----<br>-------- ------- -- ---------- --- - --- ----- ----- ----<br>---- --- --- ----- --- ---- ---- ------- ----- ---- -------<br>--- --- -- ----- -- --- ---- -- be, ---- -- ------ ------<br>--- ----- -- ----",209591.99500002433,209588.18500000052,209231.642,209244.9150000466,209248.309,209598.316,,47,"be,"
screen,html.Screen,2_1_0_1_48,2021-04-28T20:08:08.823Z,,,,,,,,,,,,,,,,,53,,,,,,,,,,,,,,405.6440000018338,,response,,,,99,,,,,,,Space,keypress(Space),,,,,,,,---- -- ----- -- ------ - ------- --- ----------<br>------------- ------ ------ ---- ---- ------- ----- -- ----<br>-------- ------- -- ---------- --- - --- ----- ----- ----<br>---- --- --- ----- --- ---- ---- ------- ----- ---- -------<br>--- --- -- ----- -- --- ---- -- --- even -- ------ ------<br>--- ----- -- ----,210009.50000004377,210003.96000000183,209581.649,209592.12500002468,209598.316,210014.991,,48,even
screen,html.Screen,2_1_0_1_49,2021-04-28T20:08:09.778Z,,,,,,,,,,,,,,,,,53,,,,,,,,,,,,,,945.3940000421426,,response,,,,99,,,,,,,Space,keypress(Space),,,,,,,,---- -- ----- -- ------ - ------- --- ----------<br>------------- ------ ------ ---- ---- ------- ----- -- ----<br>-------- ------- -- ---------- --- - --- ----- ----- ----<br>---- --- --- ----- --- ---- ---- ------- ----- ---- -------<br>--- --- -- ----- -- --- ---- -- --- ---- if ------ ------<br>--- ----- -- ----,210963.99499999825,210960.38500004215,209998.324,210009.75000002654,210014.991,210965.01,,49,if
screen,html.Screen,2_1_0_1_50,2021-04-28T20:08:10.095Z,,,,,,,,,,,,,,,,,53,,,,,,,,,,,,,,311.8749999993015,,response,,,,99,,,,,,,Space,keypress(Space),,,,,,,,---- -- ----- -- ------ - ------- --- ----------<br>------------- ------ ------ ---- ---- ------- ----- -- ----<br>-------- ------- -- ---------- --- - --- ----- ----- ----<br>---- --- --- ----- --- ---- ---- ------- ----- ---- -------<br>--- --- -- ----- -- --- ---- -- --- ---- -- that's ------<br>--- ----- -- ----,211281.04000003077,211276.8849999993,210948.343,210964.12000001874,210965.01,211281.683,,50,that's
screen,html.Screen,2_1_0_1_51,2021-04-28T20:08:10.463Z,,,,,,,,,,,,,,,,,53,,,,,,,,,,,,,,364.18200002770755,,response,,,,99,,,,,,,Space,keypress(Space),,,,,,,,---- -- ----- -- ------ - ------- --- ----------<br>------------- ------ ------ ---- ---- ------- ----- -- ----<br>-------- ------- -- ---------- --- - --- ----- ----- ----<br>---- --- --- ----- --- ---- ---- ------- ----- ---- -------<br>--- --- -- ----- -- --- ---- -- --- ---- -- ------ really<br>--- ----- -- ----,211649.25000001676,211645.8650000277,211265.016,211281.2050000066,211281.683,211665.013,,51,really
screen,html.Screen,2_1_0_1_52,2021-04-28T20:08:10.837Z,,,,,,,,,,,,,,,,,53,,,,,,,,,,,,,,352.8819999972184,,response,,,,99,,,,,,,Space,keypress(Space),,,,,,,,---- -- ----- -- ------ - ------- --- ----------<br>------------- ------ ------ ---- ---- ------- ----- -- ----<br>-------- ------- -- ---------- --- - --- ----- ----- ----<br>---- --- --- ----- --- ---- ---- ------- ----- ---- -------<br>--- --- -- ----- -- --- ---- -- --- ---- -- ------ ------<br>not ----- -- ----,212023.4150000033,212017.89499999722,211648.346,211649.45500000613,211665.013,212031.687,,52,not
screen,html.Screen,2_1_0_1_53,2021-04-28T20:08:11.478Z,,,,,,,,,,,,,,,,,53,,,,,,,,,,,,,,628.8380000138714,,response,,,,99,,,,,,,Space,keypress(Space),,,,,,,,---- -- ----- -- ------ - ------- --- ----------<br>------------- ------ ------ ---- ---- ------- ----- -- ----<br>-------- ------- -- ---------- --- - --- ----- ----- ----<br>---- --- --- ----- --- ---- ---- ------- ----- ---- -------<br>--- --- -- ----- -- --- ---- -- --- ---- -- ------ ------<br>--- close -- ----,212664.20500003733,212660.52500001388,212015.02,212023.62500003073,212031.687,212665.033,,53,close
screen,html.Screen,2_1_0_1_54,2021-04-28T20:08:11.771Z,,,,,,,,,,,,,,,,,53,,,,,,,,,,,,,,286.4420000089449,,response,,,,99,,,,,,,Space,keypress(Space),,,,,,,,---- -- ----- -- ------ - ------- --- ----------<br>------------- ------ ------ ---- ---- ------- ----- -- ----<br>-------- ------- -- ---------- --- - --- ----- ----- ----<br>---- --- --- ----- --- ---- ---- ------- ----- ---- -------<br>--- --- -- ----- -- --- ---- -- --- ---- -- ------ ------<br>--- ----- at ----,212957.25000003586,212951.47500000894,212648.366,212664.3299999996,212665.033,212965.039,,54,at
screen,html.Screen,2_1_0_1_55,2021-04-28T20:08:12.076Z,,,,,,,,,,,,,,,,,53,,,,,,,,,,,,,,291.5959999979241,,response,,,,99,,,,,,,Space,keypress(Space),,,,,,,,---- -- ----- -- ------ - ------- --- ----------<br>------------- ------ ------ ---- ---- ------- ----- -- ----<br>-------- ------- -- ---------- --- - --- ----- ----- ----<br>---- --- --- ----- --- ---- ---- ------- ----- ---- -------<br>--- --- -- ----- -- --- ---- -- --- ---- -- ------ ------<br>--- ----- -- all.,213262.45500001824,213256.6349999979,212948.372,212957.54000003217,212965.039,213265.045,,55,all.
Item 99,flow.Loop,2_1_0_1,2021-04-28T20:08:12.076Z,,,,,,,,,,,,,,,,,,,,,,,,,,,,,,,23442.007999997906,,completion,,,,,B,,,,,,,,,,,silence,,,,,213262.8750000149,213256.6349999979,189797.96,189800.24500004947,189814.627,213265.045,,,
Question 1,html.Screen,2_1_0_2,2021-04-28T20:08:17.537Z,,,,,,,,,,,,,,,,,,,,,,,,,,,,true,FALSE,,5455.945000001608,,response,,,,99,B,,,,,,FALSE,click #choice-2,,,,silence,,,,,218723.83000003174,218720.99000000162,213248.378,213263.04000004893,213265.045,218731.821,,,
Question 2,html.Screen,2_1_0_3,2021-04-28T20:08:21.017Z,,,,,,,,,,,,,,,,,,,,,,,,,,,,true,TRUE,,3469.319000019226,,response,,,,99,B,,,,,,TRUE,click #choice-1,,,,silence,,,,,222204.04000004055,222201.14000001922,218715.154,218724.04000000097,218731.821,222215.259,,,
Item 99,flow.Sequence,2_1_0,2021-04-28T20:08:21.018Z,,,,,,,,,,,,,,,,,,,,,,,,,,,,,,,42386.71300001923,,completion,,,,,,,,,,,,,,,,,,,,,222204.33000003686,222201.14000001922,179797.76,179808.62000002526,179814.427,222215.259,,,
Holding screen,html.Screen,2_1_1_0,2021-04-28T20:08:31.013Z,,,,,,,,,,,,,,,,,,,,,,,,,,,,,,,10000.200000000012,,timeout,,,,,,,,,,,,,,,,,,,,,232200.41500002844,232198.792,222198.592,222204.5400000061,222215.259,232215.459,,,
screen,html.Screen,2_1_1_1_0,2021-04-28T20:08:31.646Z,,,,,,,,,,,,,,,,,54,,,,,,,,,,,,,,614.3760000404727,,response,,,,100,,,,,,,Space,keypress(Space),,,,,,,,At --- ---- --- ------ ----- ------- ---- -- --- ------- --<br>------- ---------- ------ -- ----- -- ----- -- ---- ------<br>--- ----- --- --- ------ -------- ----- --- ------ ----- --<br>----- ----- ---------- --- --- ------ ------ ---- -- ------<br>------- --- ------ ----- --- ---- ------- -- ---- --- --<br>------- ------,232832.91500003543,232829.83500004048,232198.792,232200.83000004524,232215.459,232848.805,,0,At
screen,html.Screen,2_1_1_1_1,2021-04-28T20:08:32.054Z,,,,,,,,,,,,,,,,,54,,,,,,,,,,,,,,386.5150000361609,,response,,,,100,,,,,,,Space,keypress(Space),,,,,,,,-- the ---- --- ------ ----- ------- ---- -- --- ------- --<br>------- ---------- ------ -- ----- -- ----- -- ---- ------<br>--- ----- --- --- ------ -------- ----- --- ------ ----- --<br>----- ----- ---------- --- --- ------ ------ ---- -- ------<br>------- --- ------ ----- --- ---- ------- -- ---- --- --<br>------- ------,233241.04000005173,233235.32000003615,232832.138,232833.00000004238,232848.805,233248.853,,1,the
screen,html.Screen,2_1_1_1_2,2021-04-28T20:08:32.302Z,,,,,,,,,,,,,,,,,54,,,,,,,,,,,,,,234.02200004516635,,response,,,,100,,,,,,,Space,keypress(Space),,,,,,,,-- --- time --- ------ ----- ------- ---- -- --- ------- --<br>------- ---------- ------ -- ----- -- ----- -- ---- ------<br>--- ----- --- --- ------ -------- ----- --- ------ ----- --<br>----- ----- ---------- --- --- ------ ------ ---- -- ------<br>------- --- ------ ----- --- ---- ------- -- ---- --- --<br>------- ------,233489.25000004238,233482.87500004517,233232.186,233241.25000002095,233248.853,233498.858,,2,time
screen,html.Screen,2_1_1_1_3,2021-04-28T20:08:32.580Z,,,,,,,,,,,,,,,,,54,,,,,,,,,,,,,,264.587000047788,,response,,,,100,,,,,,,Space,keypress(Space),,,,,,,,-- --- ---- the ------ ----- ------- ---- -- --- ------- --<br>------- ---------- ------ -- ----- -- ----- -- ---- ------<br>--- ----- --- --- ------ -------- ----- --- ------ ----- --<br>----- ----- ---------- --- --- ------ ------ ---- -- ------<br>------- --- ------ ----- --- ---- ------- -- ---- --- --<br>------- ------,233766.9150000438,233763.4450000478,233482.191,233489.50000002515,233498.858,233782.197,,3,the
screen,html.Screen,2_1_1_1_4,2021-04-28T20:08:32.808Z,,,,,,,,,,,,,,,,,54,,,,,,,,,,,,,,207.2530000518891,,response,,,,100,,,,,,,Space,keypress(Space),,,,,,,,-- --- ---- --- French ----- ------- ---- -- --- ------- --<br>------- ---------- ------ -- ----- -- ----- -- ---- ------<br>--- ----- --- --- ------ -------- ----- --- ------ ----- --<br>----- ----- ---------- --- --- ------ ------ ---- -- ------<br>------- --- ------ ----- --- ---- ------- -- ---- --- --<br>------- ------,233994.83000003966,233989.45000005187,233765.53,233767.25000003353,233782.197,233998.868,,4,French
screen,html.Screen,2_1_1_1_5,2021-04-28T20:08:33.077Z,,,,,,,,,,,,,,,,,54,,,,,,,,,,,,,,260.3170000317332,,response,,,,100,,,,,,,Space,keypress(Space),,,,,,,,-- --- ---- --- ------ crown ------- ---- -- --- ------- --<br>------- ---------- ------ -- ----- -- ----- -- ---- ------<br>--- ----- --- --- ------ -------- ----- --- ------ ----- --<br>----- ----- ---------- --- --- ------ ------ ---- -- ------<br>------- --- ------ ----- --- ---- ------- -- ---- --- --<br>------- ------,234263.8750000042,234259.18500003172,233982.201,233995.04000000888,233998.868,234265.54,,5,crown
screen,html.Screen,2_1_1_1_6,2021-04-28T20:08:33.471Z,,,,,,,,,,,,,,,,,54,,,,,,,,,,,,,,387.3100000131235,,response,,,,100,,,,,,,Space,keypress(Space),,,,,,,,-- --- ---- --- ------ ----- secured ---- -- --- ------- --<br>------- ---------- ------ -- ----- -- ----- -- ---- ------<br>--- ----- --- --- ------ -------- ----- --- ------ ----- --<br>----- ----- ---------- --- --- ------ ------ ---- -- ------<br>------- --- ------ ----- --- ---- ------- -- ---- --- --<br>------- ------,234658.33000000566,234652.85000001313,234248.873,234264.00000002468,234265.54,234665.548,,6,secured
screen,html.Screen,2_1_1_1_7,2021-04-28T20:08:33.809Z,,,,,,,,,,,,,,,,,54,,,,,,,,,,,,,,324.8220000140718,,response,,,,100,,,,,,,Space,keypress(Space),,,,,,,,-- --- ---- --- ------ ----- ------- much -- --- ------- --<br>------- ---------- ------ -- ----- -- ----- -- ---- ------<br>--- ----- --- --- ------ -------- ----- --- ------ ----- --<br>----- ----- ---------- --- --- ------ ------ ---- -- ------<br>------- --- ------ ----- --- ---- ------- -- ---- --- --<br>------- ------,234995.70500000846,234990.37000001408,234648.881,234658.5400000331,234665.548,234998.888,,7,much
screen,html.Screen,2_1_1_1_8,2021-04-28T20:08:34.134Z,,,,,,,,,,,,,,,,,54,,,,,,,,,,,,,,317.2220000142988,,response,,,,100,,,,,,,Space,keypress(Space),,,,,,,,-- --- ---- --- ------ ----- ------- ---- of --- ------- --<br>------- ---------- ------ -- ----- -- ----- -- ---- ------<br>--- ----- --- --- ------ -------- ----- --- ------ ----- --<br>----- ----- ---------- --- --- ------ ------ ---- -- ------<br>------- --- ------ ----- --- ---- ------- -- ---- --- --<br>------- ------,235320.74500003364,235316.1100000143,234982.221,234995.83000002895,234998.888,235332.228,,8,of
screen,html.Screen,2_1_1_1_9,2021-04-28T20:08:34.407Z,,,,,,,,,,,,,,,,,54,,,,,,,,,,,,,,255.94200000271667,,response,,,,100,,,,,,,Space,keypress(Space),,,,,,,,-- --- ---- --- ------ ----- ------- ---- -- its ------- --<br>------- ---------- ------ -- ----- -- ----- -- ---- ------<br>--- ----- --- --- ------ -------- ----- --- ------ ----- --<br>----- ----- ---------- --- --- ------ ------ ---- -- ------<br>------- --- ------ ----- --- ---- ------- -- ---- --- --<br>------- ------,235593.66500005126,235588.17000000272,235315.561,235322.0399999991,235332.228,235598.9,,9,its
screen,html.Screen,2_1_1_1_10,2021-04-28T20:08:34.720Z,,,,,,,,,,,,,,,,,54,,,,,,,,,,,,,,302.76000003228546,,response,,,,100,,,,,,,Space,keypress(Space),,,,,,,,-- --- ---- --- ------ ----- ------- ---- -- --- revenue --<br>------- ---------- ------ -- ----- -- ----- -- ---- ------<br>--- ----- --- --- ------ -------- ----- --- ------ ----- --<br>----- ----- ---------- --- --- ------ ------ ---- -- ------<br>------- --- ------ ----- --- ---- ------- -- ---- --- --<br>------- ------,235907.04000002006,235901.66000003228,235582.233,235593.91500003403,235598.9,235915.573,,10,revenue
screen,html.Screen,2_1_1_1_11,2021-04-28T20:08:35.159Z,,,,,,,,,,,,,,,,,54,,,,,,,,,,,,,,426.572000002343,,response,,,,100,,,,,,,Space,keypress(Space),,,,,,,,-- --- ---- --- ------ ----- ------- ---- -- --- ------- by<br>------- ---------- ------ -- ----- -- ----- -- ---- ------<br>--- ----- --- --- ------ -------- ----- --- ------ ----- --<br>----- ----- ---------- --- --- ------ ------ ---- -- ------<br>------- --- ------ ----- --- ---- ------- -- ---- --- --<br>------- ------,236346.41500003636,236342.14500000235,235898.906,235907.20499999588,235915.573,236348.915,,11,by
screen,html.Screen,2_1_1_1_12,2021-04-28T20:08:35.428Z,,,,,,,,,,,,,,,,,54,,,,,,,,,,,,,,262.9899999979243,,response,,,,100,,,,,,,Space,keypress(Space),,,,,,,,-- --- ---- --- ------ ----- ------- ---- -- --- ------- --<br>issuing ---------- ------ -- ----- -- ----- -- ---- ------<br>--- ----- --- --- ------ -------- ----- --- ------ ----- --<br>----- ----- ---------- --- --- ------ ------ ---- -- ------<br>------- --- ------ ----- --- ---- ------- -- ---- --- --<br>------- ------,236615.2900000452,236611.90499999793,236332.248,236346.53999999864,236348.915,236632.254,,12,issuing
screen,html.Screen,2_1_1_1_13,2021-04-28T20:08:35.743Z,,,,,,,,,,,,,,,,,54,,,,,,,,,,,,,,293.83600002268213,,response,,,,100,,,,,,,Space,keypress(Space),,,,,,,,-- --- ---- --- ------ ----- ------- ---- -- --- ------- --<br>------- government ------ -- ----- -- ----- -- ---- ------<br>--- ----- --- --- ------ -------- ----- --- ------ ----- --<br>----- ----- ---------- --- --- ------ ------ ---- -- ------<br>------- --- ------ ----- --- ---- ------- -- ---- --- --<br>------- ------,236930.37499999627,236926.09000002267,236615.587,236615.4150000075,236632.254,236932.26,,13,government
screen,html.Screen,2_1_1_1_14,2021-04-28T20:08:36.261Z,,,,,,,,,,,,,,,,,54,,,,,,,,,,,,,,512.1300000187475,,response,,,,100,,,,,,,Space,keypress(Space),,,,,,,,-- --- ---- --- ------ ----- ------- ---- -- --- ------- --<br>------- ---------- bonds. -- ----- -- ----- -- ---- ------<br>--- ----- --- --- ------ -------- ----- --- ------ ----- --<br>----- ----- ---------- --- --- ------ ------ ---- -- ------<br>------- --- ------ ----- --- ---- ------- -- ---- --- --<br>------- ------,237447.66500004334,237444.39000001876,236915.593,236930.5400000303,236932.26,237448.937,,14,bonds.
screen,html.Screen,2_1_1_1_15,2021-04-28T20:08:36.723Z,,,,,,,,,,,,,,,,,54,,,,,,,,,,,,,,455.51800001077936,,response,,,,100,,,,,,,Space,keypress(Space),,,,,,,,-- --- ---- --- ------ ----- ------- ---- -- --- ------- --<br>------- ---------- ------ In ----- -- ----- -- ---- ------<br>--- ----- --- --- ------ -------- ----- --- ------ ----- --<br>----- ----- ---------- --- --- ------ ------ ---- -- ------<br>------- --- ------ ----- --- ---- ------- -- ---- --- --<br>------- ------,237909.8300000187,237904.45500001078,237432.27,237447.83000001917,237448.937,237915.613,,15,In
screen,html.Screen,2_1_1_1_16,2021-04-28T20:08:37.148Z,,,,,,,,,,,,,,,,,54,,,,,,,,,,,,,,416.5120000153547,,response,,,,100,,,,,,,Space,keypress(Space),,,,,,,,"-- --- ---- --- ------ ----- ------- ---- -- --- ------- --<br>------- ---------- ------ -- 1727, -- ----- -- ---- ------<br>--- ----- --- --- ------ -------- ----- --- ------ ----- --<br>----- ----- ---------- --- --- ------ ------ ---- -- ------<br>------- --- ------ ----- --- ---- ------- -- ---- --- --<br>------- ------",238335.4550000513,238332.12500001537,237898.946,237910.08000000147,237915.613,238348.955,,16,"1727,"
screen,html.Screen,2_1_1_1_17,2021-04-28T20:08:37.939Z,,,,,,,,,,,,,,,,,54,,,,,,,,,,,,,,771.6000000304484,,response,,,,100,,,,,,,Space,keypress(Space),,,,,,,,-- --- ---- --- ------ ----- ------- ---- -- --- ------- --<br>------- ---------- ------ -- ----- in ----- -- ---- ------<br>--- ----- --- --- ------ -------- ----- --- ------ ----- --<br>----- ----- ---------- --- --- ------ ------ ---- -- ------<br>------- --- ------ ----- --- ---- ------- -- ---- --- --<br>------- ------,239126.0000000475,239120.55500003044,238332.288,238335.66500002053,238348.955,239132.304,,17,in
screen,html.Screen,2_1_1_1_18,2021-04-28T20:08:38.434Z,,,,,,,,,,,,,,,,,54,,,,,,,,,,,,,,483.14100000308827,,response,,,,100,,,,,,,Space,keypress(Space),,,,,,,,-- --- ---- --- ------ ----- ------- ---- -- --- ------- --<br>------- ---------- ------ -- ----- -- order -- ---- ------<br>--- ----- --- --- ------ -------- ----- --- ------ ----- --<br>----- ----- ---------- --- --- ------ ------ ---- -- ------<br>------- --- ------ ----- --- ---- ------- -- ---- --- --<br>------- ------,239620.7900000154,239615.4450000031,239115.637,239126.33500003722,239132.304,239632.314,,18,order
screen,html.Screen,2_1_1_1_19,2021-04-28T20:08:38.915Z,,,,,,,,,,,,,,,,,54,,,,,,,,,,,,,,465.13100002123974,,response,,,,100,,,,,,,Space,keypress(Space),,,,,,,,-- --- ---- --- ------ ----- ------- ---- -- --- ------- --<br>------- ---------- ------ -- ----- -- ----- to ---- ------<br>--- ----- --- --- ------ -------- ----- --- ------ ----- --<br>----- ----- ---------- --- --- ------ ------ ---- -- ------<br>------- --- ------ ----- --- ---- ------- -- ---- --- --<br>------- ------,240101.79000004428,240097.44500002125,239615.647,239620.9600000293,239632.314,240115.657,,19,to
screen,html.Screen,2_1_1_1_20,2021-04-28T20:08:39.196Z,,,,,,,,,,,,,,,,,54,,,,,,,,,,,,,,264.69800003024284,,response,,,,100,,,,,,,Space,keypress(Space),,,,,,,,-- --- ---- --- ------ ----- ------- ---- -- --- ------- --<br>------- ---------- ------ -- ----- -- ----- -- save ------<br>--- ----- --- --- ------ -------- ----- --- ------ ----- --<br>----- ----- ---------- --- --- ------ ------ ---- -- ------<br>------- --- ------ ----- --- ---- ------- -- ---- --- --<br>------- ------,240383.4950000164,240380.35500003025,240098.99,240102.0800000406,240115.657,240398.996,,20,save
screen,html.Screen,2_1_1_1_21,2021-04-28T20:08:39.488Z,,,,,,,,,,,,,,,,,54,,,,,,,,,,,,,,272.38400001431,,response,,,,100,,,,,,,Space,keypress(Space),,,,,,,,"-- --- ---- --- ------ ----- ------- ---- -- --- ------- --<br>------- ---------- ------ -- ----- -- ----- -- ---- money,<br>--- ----- --- --- ------ -------- ----- --- ------ ----- --<br>----- ----- ---------- --- --- ------ ------ ---- -- ------<br>------- --- ------ ----- --- ---- ------- -- ---- --- --<br>------- ------",240675.29000004288,240671.38000001432,240382.329,240383.6650000303,240398.996,240682.335,,21,"money,"
screen,html.Screen,2_1_1_1_22,2021-04-28T20:08:39.804Z,,,,,,,,,,,,,,,,,54,,,,,,,,,,,,,,304.39000002431567,,response,,,,100,,,,,,,Space,keypress(Space),,,,,,,,-- --- ---- --- ------ ----- ------- ---- -- --- ------- --<br>------- ---------- ------ -- ----- -- ----- -- ---- ------<br>the ----- --- --- ------ -------- ----- --- ------ ----- --<br>----- ----- ---------- --- --- ------ ------ ---- -- ------<br>------- --- ------ ----- --- ---- ------- -- ---- --- --<br>------- ------,240991.54000001727,240986.7250000243,240665.668,240675.5000000121,240682.335,241015.675,,22,the
screen,html.Screen,2_1_1_1_23,2021-04-28T20:08:40.109Z,,,,,,,,,,,,,,,,,54,,,,,,,,,,,,,,276.0950000107405,,response,,,,100,,,,,,,Space,keypress(Space),,,,,,,,-- --- ---- --- ------ ----- ------- ---- -- --- ------- --<br>------- ---------- ------ -- ----- -- ----- -- ---- ------<br>--- state --- --- ------ -------- ----- --- ------ ----- --<br>----- ----- ---------- --- --- ------ ------ ---- -- ------<br>------- --- ------ ----- --- ---- ------- -- ---- --- --<br>------- ------,241296.16500000702,241291.77000001073,240999.008,240991.87500000698,241015.675,241315.681,,23,state
screen,html.Screen,2_1_1_1_24,2021-04-28T20:08:40.444Z,,,,,,,,,,,,,,,,,54,,,,,,,,,,,,,,312.5890000447107,,response,,,,100,,,,,,,Space,keypress(Space),,,,,,,,-- --- ---- --- ------ ----- ------- ---- -- --- ------- --<br>------- ---------- ------ -- ----- -- ----- -- ---- ------<br>--- ----- cut --- ------ -------- ----- --- ------ ----- --<br>----- ----- ---------- --- --- ------ ------ ---- -- ------<br>------- --- ------ ----- --- ---- ------- -- ---- --- --<br>------- ------,241631.3300000038,241628.27000004472,241299.014,241296.2900000275,241315.681,241632.354,,24,cut
screen,html.Screen,2_1_1_1_25,2021-04-28T20:08:40.638Z,,,,,,,,,,,,,,,,,54,,,,,,,,,,,,,,187.22100003046216,,response,,,,100,,,,,,,Space,keypress(Space),,,,,,,,-- --- ---- --- ------ ----- ------- ---- -- --- ------- --<br>------- ---------- ------ -- ----- -- ----- -- ---- ------<br>--- ----- --- the ------ -------- ----- --- ------ ----- --<br>----- ----- ---------- --- --- ------ ------ ---- -- ------<br>------- --- ------ ----- --- ---- ------- -- ---- --- --<br>------- ------,241825.08000003872,241819.57500003045,241615.687,241631.5000000177,241632.354,241832.358,,25,the
screen,html.Screen,2_1_1_1_26,2021-04-28T20:08:40.895Z,,,,,,,,,,,,,,,,,54,,,,,,,,,,,,,,246.85199999623,,response,,,,100,,,,,,,Space,keypress(Space),,,,,,,,-- --- ---- --- ------ ----- ------- ---- -- --- ------- --<br>------- ---------- ------ -- ----- -- ----- -- ---- ------<br>--- ----- --- --- bonds' -------- ----- --- ------ ----- --<br>----- ----- ---------- --- --- ------ ------ ---- -- ------<br>------- --- ------ ----- --- ---- ------- -- ---- --- --<br>------- ------,242082.54000003217,242079.20999999624,241815.691,241825.3300000215,241832.358,242099.03,,26,bonds'
screen,html.Screen,2_1_1_1_27,2021-04-28T20:08:41.189Z,,,,,,,,,,,,,,,,,54,,,,,,,,,,,,,,271.604999999312,,response,,,,100,,,,,,,Space,keypress(Space),,,,,,,,-- --- ---- --- ------ ----- ------- ---- -- --- ------- --<br>------- ---------- ------ -- ----- -- ----- -- ---- ------<br>--- ----- --- --- ------ interest ----- --- ------ ----- --<br>----- ----- ---------- --- --- ------ ------ ---- -- ------<br>------- --- ------ ----- --- ---- ------- -- ---- --- --<br>------- ------,242376.04000000283,242370.6349999993,242082.363,242082.83000002848,242099.03,242382.369,,27,interest
screen,html.Screen,2_1_1_1_28,2021-04-28T20:08:41.651Z,,,,,,,,,,,,,,,,,54,,,,,,,,,,,,,,450.1960000479012,,response,,,,100,,,,,,,Space,keypress(Space),,,,,,,,-- --- ---- --- ------ ----- ------- ---- -- --- ------- --<br>------- ---------- ------ -- ----- -- ----- -- ---- ------<br>--- ----- --- --- ------ -------- rate. --- ------ ----- --<br>----- ----- ---------- --- --- ------ ------ ---- -- ------<br>------- --- ------ ----- --- ---- ------- -- ---- --- --<br>------- ------,242838.5400000261,242832.5650000479,242365.702,242376.25000003027,242382.369,242849.045,,28,rate.
screen,html.Screen,2_1_1_1_29,2021-04-28T20:08:41.976Z,,,,,,,,,,,,,,,,,54,,,,,,,,,,,,,,310.4400000110327,,response,,,,100,,,,,,,Space,keypress(Space),,,,,,,,-- --- ---- --- ------ ----- ------- ---- -- --- ------- --<br>------- ---------- ------ -- ----- -- ----- -- ---- ------<br>--- ----- --- --- ------ -------- ----- The ------ ----- --<br>----- ----- ---------- --- --- ------ ------ ---- -- ------<br>------- --- ------ ----- --- ---- ------- -- ---- --- --<br>------- ------,243163.41500001727,243159.48500001105,242832.378,242838.74500001548,242849.045,243165.765,,29,The
screen,html.Screen,2_1_1_1_30,2021-04-28T20:08:42.278Z,,,,,,,,,,,,,,,,,54,,,,,,,,,,,,,,296.6250000005821,,response,,,,100,,,,,,,Space,keypress(Space),,,,,,,,-- --- ---- --- ------ ----- ------- ---- -- --- ------- --<br>------- ---------- ------ -- ----- -- ----- -- ---- ------<br>--- ----- --- --- ------ -------- ----- --- market ----- --<br>----- ----- ---------- --- --- ------ ------ ---- -- ------<br>------- --- ------ ----- --- ---- ------- -- ---- --- --<br>------- ------,243465.45499999775,243462.3900000006,243149.098,243163.54000003776,243165.765,243482.438,,30,market
screen,html.Screen,2_1_1_1_31,2021-04-28T20:08:42.585Z,,,,,,,,,,,,,,,,,54,,,,,,,,,,,,,,284.43200005040853,,response,,,,100,,,,,,,Space,keypress(Space),,,,,,,,-- --- ---- --- ------ ----- ------- ---- -- --- ------- --<br>------- ---------- ------ -- ----- -- ----- -- ---- ------<br>--- ----- --- --- ------ -------- ----- --- ------ value --<br>----- ----- ---------- --- --- ------ ------ ---- -- ------<br>------- --- ------ ----- --- ---- ------- -- ---- --- --<br>------- ------,243772.5400000345,243766.8700000504,243465.771,243465.62000003178,243482.438,243782.444,,31,value
screen,html.Screen,2_1_1_1_32,2021-04-28T20:08:42.862Z,,,,,,,,,,,,,,,,,54,,,,,,,,,,,,,,263.9259999963979,,response,,,,100,,,,,,,Space,keypress(Space),,,,,,,,-- --- ---- --- ------ ----- ------- ---- -- --- ------- --<br>------- ---------- ------ -- ----- -- ----- -- ---- ------<br>--- ----- --- --- ------ -------- ----- --- ------ ----- of<br>----- ----- ---------- --- --- ------ ------ ---- -- ------<br>------- --- ------ ----- --- ---- ------- -- ---- --- --<br>------- ------,244049.5800000499,244046.3699999964,243765.777,243772.79000001727,243782.444,244065.783,,32,of
screen,html.Screen,2_1_1_1_33,2021-04-28T20:08:43.191Z,,,,,,,,,,,,,,,,,54,,,,,,,,,,,,,,307.4920000199345,,response,,,,100,,,,,,,Space,keypress(Space),,,,,,,,-- --- ---- --- ------ ----- ------- ---- -- --- ------- --<br>------- ---------- ------ -- ----- -- ----- -- ---- ------<br>--- ----- --- --- ------ -------- ----- --- ------ ----- --<br>these ----- ---------- --- --- ------ ------ ---- -- ------<br>------- --- ------ ----- --- ---- ------- -- ---- --- --<br>------- ------,244378.54000000516,244373.27500001993,244049.116,244049.87500002608,244065.783,244382.456,,33,these
screen,html.Screen,2_1_1_1_34,2021-04-28T20:08:43.461Z,,,,,,,,,,,,,,,,,54,,,,,,,,,,,,,,262.0090000194032,,response,,,,100,,,,,,,Space,keypress(Space),,,,,,,,-- --- ---- --- ------ ----- ------- ---- -- --- ------- --<br>------- ---------- ------ -- ----- -- ----- -- ---- ------<br>--- ----- --- --- ------ -------- ----- --- ------ ----- --<br>----- bonds ---------- --- --- ------ ------ ---- -- ------<br>------- --- ------ ----- --- ---- ------- -- ---- --- --<br>------- ------,244648.32999999635,244644.4650000194,244365.789,244378.79000004614,244382.456,244649.128,,34,bonds
screen,html.Screen,2_1_1_1_35,2021-04-28T20:08:43.729Z,,,,,,,,,,,,,,,,,54,,,,,,,,,,,,,,263.7820000136562,,response,,,,100,,,,,,,Space,keypress(Space),,,,,,,,"-- --- ---- --- ------ ----- ------- ---- -- --- ------- --<br>------- ---------- ------ -- ----- -- ----- -- ---- ------<br>--- ----- --- --- ------ -------- ----- --- ------ ----- --<br>----- ----- plummeted, --- --- ------ ------ ---- -- ------<br>------- --- ------ ----- --- ---- ------- -- ---- --- --<br>------- ------",244916.2050000159,244912.91000001365,244632.461,244648.45500001684,244649.128,244932.467,,35,"plummeted,"
screen,html.Screen,2_1_1_1_36,2021-04-28T20:08:44.012Z,,,,,,,,,,,,,,,,,54,,,,,,,,,,,,,,263.43300004972843,,response,,,,100,,,,,,,Space,keypress(Space),,,,,,,,-- --- ---- --- ------ ----- ------- ---- -- --- ------- --<br>------- ---------- ------ -- ----- -- ----- -- ---- ------<br>--- ----- --- --- ------ -------- ----- --- ------ ----- --<br>----- ----- ---------- and --- ------ ------ ---- -- ------<br>------- --- ------ ----- --- ---- ------- -- ---- --- --<br>------- ------,245199.0400000359,245195.90000004973,244915.8,244916.33500001626,244932.467,245215.806,,36,and
screen,html.Screen,2_1_1_1_37,2021-04-28T20:08:44.318Z,,,,,,,,,,,,,,,,,54,,,,,,,,,,,,,,283.7740000033227,,response,,,,100,,,,,,,Space,keypress(Space),,,,,,,,-- --- ---- --- ------ ----- ------- ---- -- --- ------- --<br>------- ---------- ------ -- ----- -- ----- -- ---- ------<br>--- ----- --- --- ------ -------- ----- --- ------ ----- --<br>----- ----- ---------- --- the ------ ------ ---- -- ------<br>------- --- ------ ----- --- ---- ------- -- ---- --- --<br>------- ------,245505.20500005223,245499.58000000333,245199.139,245199.20500001172,245215.806,245515.812,,37,the
screen,html.Screen,2_1_1_1_38,2021-04-28T20:08:44.662Z,,,,,,,,,,,,,,,,,54,,,,,,,,,,,,,,330.9030000506027,,response,,,,100,,,,,,,Space,keypress(Space),,,,,,,,-- --- ---- --- ------ ----- ------- ---- -- --- ------- --<br>------- ---------- ------ -- ----- -- ----- -- ---- ------<br>--- ----- --- --- ------ -------- ----- --- ------ ----- --<br>----- ----- ---------- --- --- market ------ ---- -- ------<br>------- --- ------ ----- --- ---- ------- -- ---- --- --<br>------- ------,245849.62500003166,245846.7150000506,245499.145,245505.455000035,245515.812,245865.819,,38,market
screen,html.Screen,2_1_1_1_39,2021-04-28T20:08:44.892Z,,,,,,,,,,,,,,,,,54,,,,,,,,,,,,,,208.73599999924772,,response,,,,100,,,,,,,Space,keypress(Space),,,,,,,,-- --- ---- --- ------ ----- ------- ---- -- --- ------- --<br>------- ---------- ------ -- ----- -- ----- -- ---- ------<br>--- ----- --- --- ------ -------- ----- --- ------ ----- --<br>----- ----- ---------- --- --- ------ became ---- -- ------<br>------- --- ------ ----- --- ---- ------- -- ---- --- --<br>------- ------,246079.5400000061,246074.55499999924,245849.152,245849.74500001408,245865.819,246082.49,,39,became
screen,html.Screen,2_1_1_1_40,2021-04-28T20:08:45.127Z,,,,,,,,,,,,,,,,,54,,,,,,,,,,,,,,227.4500000064727,,response,,,,100,,,,,,,Space,keypress(Space),,,,,,,,-- --- ---- --- ------ ----- ------- ---- -- --- ------- --<br>------- ---------- ------ -- ----- -- ----- -- ---- ------<br>--- ----- --- --- ------ -------- ----- --- ------ ----- --<br>----- ----- ---------- --- --- ------ ------ wary -- ------<br>------- --- ------ ----- --- ---- ------- -- ---- --- --<br>------- ------,246313.9150000061,246309.94000000646,246065.823,246079.66500002658,246082.49,246315.828,,40,wary
screen,html.Screen,2_1_1_1_41,2021-04-28T20:08:45.409Z,,,,,,,,,,,,,,,,,54,,,,,,,,,,,,,,275.09200004601735,,response,,,,100,,,,,,,Space,keypress(Space),,,,,,,,-- --- ---- --- ------ ----- ------- ---- -- --- ------- --<br>------- ---------- ------ -- ----- -- ----- -- ---- ------<br>--- ----- --- --- ------ -------- ----- --- ------ ----- --<br>----- ----- ---------- --- --- ------ ------ ---- of ------<br>------- --- ------ ----- --- ---- ------- -- ---- --- --<br>------- ------,246596.00000001956,246590.92000004603,246299.161,246314.12500003353,246315.828,246599.167,,41,of
screen,html.Screen,2_1_1_1_42,2021-04-28T20:08:45.676Z,,,,,,,,,,,,,,,,,54,,,,,,,,,,,,,,260.1080000534712,,response,,,,100,,,,,,,Space,keypress(Space),,,,,,,,-- --- ---- --- ------ ----- ------- ---- -- --- ------- --<br>------- ---------- ------ -- ----- -- ----- -- ---- ------<br>--- ----- --- --- ------ -------- ----- --- ------ ----- --<br>----- ----- ---------- --- --- ------ ------ ---- -- French<br>------- --- ------ ----- --- ---- ------- -- ---- --- --<br>------- ------,246863.04000002565,246859.27500005346,246582.5,246596.20500000892,246599.167,246865.839,,42,French
screen,html.Screen,2_1_1_1_43,2021-04-28T20:08:45.993Z,,,,,,,,,,,,,,,,,54,,,,,,,,,,,,,,310.3610000453482,,response,,,,100,,,,,,,Space,keypress(Space),,,,,,,,-- --- ---- --- ------ ----- ------- ---- -- --- ------- --<br>------- ---------- ------ -- ----- -- ----- -- ---- ------<br>--- ----- --- --- ------ -------- ----- --- ------ ----- --<br>----- ----- ---------- --- --- ------ ------ ---- -- ------<br>credit. --- ------ ----- --- ---- ------- -- ---- --- --<br>------- ------,247180.29000004753,247176.20000004536,246849.172,246863.1250000326,246865.839,247199.179,,43,credit.
screen,html.Screen,2_1_1_1_44,2021-04-28T20:08:46.422Z,,,,,,,,,,,,,,,,,54,,,,,,,,,,,,,,404.37099999981,,response,,,,100,,,,,,,Space,keypress(Space),,,,,,,,-- --- ---- --- ------ ----- ------- ---- -- --- ------- --<br>------- ---------- ------ -- ----- -- ----- -- ---- ------<br>--- ----- --- --- ------ -------- ----- --- ------ ----- --<br>----- ----- ---------- --- --- ------ ------ ---- -- ------<br>------- The ------ ----- --- ---- ------- -- ---- --- --<br>------- ------,247609.08000002382,247603.5499999998,247182.512,247180.45500002336,247199.179,247615.854,,44,The
screen,html.Screen,2_1_1_1_45,2021-04-28T20:08:46.690Z,,,,,,,,,,,,,,,,,54,,,,,,,,,,,,,,257.6210000294377,,response,,,,100,,,,,,,Space,keypress(Space),,,,,,,,-- --- ---- --- ------ ----- ------- ---- -- --- ------- --<br>------- ---------- ------ -- ----- -- ----- -- ---- ------<br>--- ----- --- --- ------ -------- ----- --- ------ ----- --<br>----- ----- ---------- --- --- ------ ------ ---- -- ------<br>------- --- French ----- --- ---- ------- -- ---- --- --<br>------- ------,247877.1650000126,247873.47500002943,247599.187,247609.25000003772,247615.854,247882.526,,45,French
screen,html.Screen,2_1_1_1_46,2021-04-28T20:08:46.951Z,,,,,,,,,,,,,,,,,54,,,,,,,,,,,,,,249.4590000436292,,response,,,,100,,,,,,,Space,keypress(Space),,,,,,,,-- --- ---- --- ------ ----- ------- ---- -- --- ------- --<br>------- ---------- ------ -- ----- -- ----- -- ---- ------<br>--- ----- --- --- ------ -------- ----- --- ------ ----- --<br>----- ----- ---------- --- --- ------ ------ ---- -- ------<br>------- --- ------ state --- ---- ------- -- ---- --- --<br>------- ------,248137.91500002844,248131.98500004364,247865.859,247877.33000004664,247882.526,248149.198,,46,state
screen,html.Screen,2_1_1_1_47,2021-04-28T20:08:47.207Z,,,,,,,,,,,,,,,,,54,,,,,,,,,,,,,,241.54700004062033,,response,,,,100,,,,,,,Space,keypress(Space),,,,,,,,-- --- ---- --- ------ ----- ------- ---- -- --- ------- --<br>------- ---------- ------ -- ----- -- ----- -- ---- ------<br>--- ----- --- --- ------ -------- ----- --- ------ ----- --<br>----- ----- ---------- --- --- ------ ------ ---- -- ------<br>------- --- ------ ----- was ---- ------- -- ---- --- --<br>------- ------,248394.2500000121,248390.74500004062,248132.531,248138.1200000178,248149.198,248399.203,,47,was
screen,html.Screen,2_1_1_1_48,2021-04-28T20:08:47.501Z,,,,,,,,,,,,,,,,,54,,,,,,,,,,,,,,284.0720000175934,,response,,,,100,,,,,,,Space,keypress(Space),,,,,,,,-- --- ---- --- ------ ----- ------- ---- -- --- ------- --<br>------- ---------- ------ -- ----- -- ----- -- ---- ------<br>--- ----- --- --- ------ -------- ----- --- ------ ----- --<br>----- ----- ---------- --- --- ------ ------ ---- -- ------<br>------- --- ------ ----- --- left ------- -- ---- --- --<br>------- ------,248688.6200000299,248683.2750000176,248382.536,248394.41500004614,248399.203,248699.209,,48,left
screen,html.Screen,2_1_1_1_49,2021-04-28T20:08:47.779Z,,,,,,,,,,,,,,,,,54,,,,,,,,,,,,,,264.1060000008729,,response,,,,100,,,,,,,Space,keypress(Space),,,,,,,,-- --- ---- --- ------ ----- ------- ---- -- --- ------- --<br>------- ---------- ------ -- ----- -- ----- -- ---- ------<br>--- ----- --- --- ------ -------- ----- --- ------ ----- --<br>----- ----- ---------- --- --- ------ ------ ---- -- ------<br>------- --- ------ ----- --- ---- without -- ---- --- --<br>------- ------,248966.62000002107,248963.31500000088,248682.542,248688.82999999914,248699.209,248982.548,,49,without
screen,html.Screen,2_1_1_1_50,2021-04-28T20:08:48.007Z,,,,,,,,,,,,,,,,,54,,,,,,,,,,,,,,206.5419999998412,,response,,,,100,,,,,,,Space,keypress(Space),,,,,,,,-- --- ---- --- ------ ----- ------- ---- -- --- ------- --<br>------- ---------- ------ -- ----- -- ----- -- ---- ------<br>--- ----- --- --- ------ -------- ----- --- ------ ----- --<br>----- ----- ---------- --- --- ------ ------ ---- -- ------<br>------- --- ------ ----- --- ---- ------- an ---- --- --<br>------- ------,249194.04000003124,249189.08999999985,248965.881,248966.74500004156,248982.548,249199.219,,50,an
screen,html.Screen,2_1_1_1_51,2021-04-28T20:08:48.230Z,,,,,,,,,,,,,,,,,54,,,,,,,,,,,,,,214.2160000531294,,response,,,,100,,,,,,,Space,keypress(Space),,,,,,,,-- --- ---- --- ------ ----- ------- ---- -- --- ------- --<br>------- ---------- ------ -- ----- -- ----- -- ---- ------<br>--- ----- --- --- ------ -------- ----- --- ------ ----- --<br>----- ----- ---------- --- --- ------ ------ ---- -- ------<br>------- --- ------ ----- --- ---- ------- -- easy --- --<br>------- ------,249417.16500004986,249413.43500005314,249182.552,249194.2450000206,249199.219,249432.557,,51,easy
screen,html.Screen,2_1_1_1_52,2021-04-28T20:08:48.537Z,,,,,,,,,,,,,,,,,54,,,,,,,,,,,,,,286.27300002708216,,response,,,,100,,,,,,,Space,keypress(Space),,,,,,,,-- --- ---- --- ------ ----- ------- ---- -- --- ------- --<br>------- ---------- ------ -- ----- -- ----- -- ---- ------<br>--- ----- --- --- ------ -------- ----- --- ------ ----- --<br>----- ----- ---------- --- --- ------ ------ ---- -- ------<br>------- --- ------ ----- --- ---- ------- -- ---- way --<br>------- ------,249724.205000035,249718.83000002708,249415.89,249417.46000002604,249432.557,249732.563,,52,way
screen,html.Screen,2_1_1_1_53,2021-04-28T20:08:48.873Z,,,,,,,,,,,,,,,,,54,,,,,,,,,,,,,,322.422000053426,,response,,,,100,,,,,,,Space,keypress(Space),,,,,,,,-- --- ---- --- ------ ----- ------- ---- -- --- ------- --<br>------- ---------- ------ -- ----- -- ----- -- ---- ------<br>--- ----- --- --- ------ -------- ----- --- ------ ----- --<br>----- ----- ---------- --- --- ------ ------ ---- -- ------<br>------- --- ------ ----- --- ---- ------- -- ---- --- of<br>------- ------,250060.41500001447,250054.98500005342,249715.896,249724.3750000489,249732.563,250065.903,,53,of
screen,html.Screen,2_1_1_1_54,2021-04-28T20:08:49.189Z,,,,,,,,,,,,,,,,,54,,,,,,,,,,,,,,304.86700003774604,,response,,,,100,,,,,,,Space,keypress(Space),,,,,,,,-- --- ---- --- ------ ----- ------- ---- -- --- ------- --<br>------- ---------- ------ -- ----- -- ----- -- ---- ------<br>--- ----- --- --- ------ -------- ----- --- ------ ----- --<br>----- ----- ---------- --- --- ------ ------ ---- -- ------<br>------- --- ------ ----- --- ---- ------- -- ---- --- --<br>raising ------,250376.1200000299,250370.77000003774,250049.236,250060.74500002433,250065.903,250382.576,,54,raising
screen,html.Screen,2_1_1_1_55,2021-04-28T20:08:49.470Z,,,,,,,,,,,,,,,,,54,,,,,,,,,,,,,,269.2840000417782,,response,,,,100,,,,,,,Space,keypress(Space),,,,,,,,-- --- ---- --- ------ ----- ------- ---- -- --- ------- --<br>------- ---------- ------ -- ----- -- ----- -- ---- ------<br>--- ----- --- --- ------ -------- ----- --- ------ ----- --<br>----- ----- ---------- --- --- ------ ------ ---- -- ------<br>------- --- ------ ----- --- ---- ------- -- ---- --- --<br>------- money.,250657.5400000438,250651.86000004178,250365.909,250376.4150000061,250382.576,250665.915,,55,money.
Item 100,flow.Loop,2_1_1_1,2021-04-28T20:08:49.471Z,,,,,,,,,,,,,,,,,,,,,,,,,,,,,,,18436.401000041777,,completion,,,,,B,,,,,,,,,,,silence,,,,,250657.9999999958,250651.86000004178,232198.792,232200.6650000112,232215.459,250665.915,,,
Question 1,html.Screen,2_1_1_2,2021-04-28T20:08:52.465Z,,,,,,,,,,,,,,,,,,,,,,,,,,,,true,TRUE,,2983.950000043056,,response,,,,100,B,,,,,,TRUE,click #choice-1,,,,silence,,,,,253652.75000000838,253649.86500004306,250649.248,250658.1250000163,250665.915,253665.982,,,
Question 2,html.Screen,2_1_1_3,2021-04-28T20:08:54.415Z,,,,,,,,,,,,,,,,,,,,,,,,,,,,true,FALSE,,1934.2930000334454,,response,,,,100,B,,,,,,FALSE,click #choice-2,,,,silence,,,,,255602.79000003356,255600.27500003343,253649.315,253653.00000004936,253665.982,255616.021,,,
Item 100,flow.Sequence,2_1_1,2021-04-28T20:08:54.416Z,,,,,,,,,,,,,,,,,,,,,,,,,,,,,,,33385.01600003344,,completion,,,,,,,,,,,,,,,,,,,,,255603.16500003682,255600.27500003343,222198.592,222204.45499999914,222215.259,255616.021,,,
End of Practice,html.Page,2_1_2,2021-04-28T20:08:57.269Z,,,,,,,,,,,,,,,,,,,,,,,,,,,,,,,2840.184000053152,,form submission,,,,,,,,,,,,,,,,,,,,,258456.62500004983,258456.20500005316,255599.354,255603.2450000057,255616.021,258482.745,,,
Practice,flow.Sequence,2_1,2021-04-28T20:08:57.269Z,,,,,,,,,,,,,,,,,,,,,,,,,,,,,,,78641.77800005316,,completion,,,,,,,,,,,,,,,,,,,,,258456.83500001905,258456.20500005316,179797.76,179808.5850000498,179814.427,258482.745,,,
Trap_instruction,html.Page,2_2_0,2021-04-28T20:09:00.704Z,,,,,,,,,,,,,,,,,,,,,,,,,,,,,,,3408.5449999995762,,form submission,,,,,,,,,,,,,,,,,,,,,261891.70500001637,261891.28999999957,258466.078,258456.91500004614,258482.745,261899.48,,,
trap_trial,html.Screen,2_2_1,2021-04-28T20:09:03.771Z,,,,,,,,,,,,,,,,,,,,,,,,,,,,true,1,,3056.555000039254,,response,,,,,,,,,,,1,click #choice-1,,,,,,,,,264958.71000003535,264956.03500003926,261882.813,261891.8700000504,261899.48,264966.208,,,
end of trap trial,html.Page,2_2_2,2021-04-28T20:09:05.248Z,,,,,,,,,,,,,,,,,,,,,,,,,,,,,,,1469.4569999972591,,form submission,,,,,,,,,,,,,,,,,,,,,266436.08000001404,266435.66499999724,264949.541,264958.9150000247,264966.208,266449.612,,,
Trap 1,flow.Sequence,2_2,2021-04-28T20:09:05.248Z,,,,,,,,,,,,,,,,,,,,,,,,,,,,,,,7952.919999997248,,completion,,,,,,,,,,,,,,,,,,,,,266436.3299999968,266435.66499999724,258466.078,258456.91500004614,258482.745,266449.612,,,
Standby,html.Page,2_3_0,2021-04-28T20:09:13.247Z,,,,,,,,,,,,,,,,,,,,,,,,,,,,,,,8000.159999999974,,timeout,,,,,,,,,,,,,,,,,,,,,274434.9999999977,274433.105,266432.945,266436.49500003085,266449.612,274449.772,,,
Holding screen,html.Screen,2_3_1_0_0,2021-04-28T20:09:20.248Z,,,,,,,,,,,,,,,,,,,,,,,,,,,,,,,7000.180999999982,,timeout,,,,,,,,,,,,,,,,,,,,,281435.8700000448,281433.286,274433.105,274435.2900000522,274449.772,281449.953,,,
screen,html.Screen,2_3_1_0_1_0,2021-04-28T20:09:20.856Z,,,,,,,,,,,,,,,,,51,,,,,,,,,,,,,,589.9370000145864,,response,,,,13,B,,,,,,Space,keypress(Space),,,,lyrical,,,,American -------- --- --- ---- --- --- ------ -- --------<br>---- --------- --- ------- ------------ ---------- ---------<br>--- ---------- ------- ---------- ------- -- -------- ----<br>---- --- ------ ----- ------ -- ---- --- ----- -- - -------<br>-------- -- --- --- -- ----- ----------- ----- -----------<br>---- --- ---------- --- ---- --- -- ----------,282044.62500003865,282039.89000001457,281433.286,281436.2100000144,281449.953,282049.965,,0,American
screen,html.Screen,2_3_1_0_1_1,2021-04-28T20:09:21.181Z,,,,,,,,,,,,,,,,,51,,,,,,,,,,,,,,315.89999999973224,,response,,,,13,B,,,,,,Space,keypress(Space),,,,lyrical,,,,-------- industry --- --- ---- --- --- ------ -- --------<br>---- --------- --- ------- ------------ ---------- ---------<br>--- ---------- ------- ---------- ------- -- -------- ----<br>---- --- ------ ----- ------ -- ---- --- ----- -- - -------<br>-------- -- --- --- -- ----- ----------- ----- -----------<br>---- --- ---------- --- ---- --- -- ----------,282369.1650000401,282365.86499999976,282033.298,282044.7900000145,282049.965,282383.305,,1,industry
screen,html.Screen,2_3_1_0_1_2,2021-04-28T20:09:21.487Z,,,,,,,,,,,,,,,,,51,,,,,,,,,,,,,,288.0300000209245,,response,,,,13,B,,,,,,Space,keypress(Space),,,,lyrical,,,,-------- -------- may --- ---- --- --- ------ -- --------<br>---- --------- --- ------- ------------ ---------- ---------<br>--- ---------- ------- ---------- ------- -- -------- ----<br>---- --- ------ ----- ------ -- ---- --- ----- -- - -------<br>-------- -- --- --- -- ----- ----------- ----- -----------<br>---- --- ---------- --- ---- --- -- ----------,282675.41500000516,282671.3350000209,282366.638,282369.29000000237,282383.305,282683.311,,2,may
screen,html.Screen,2_3_1_0_1_3,2021-04-28T20:09:21.789Z,,,,,,,,,,,,,,,,,51,,,,,,,,,,,,,,290.0789999992121,,response,,,,13,B,,,,,,Space,keypress(Space),,,,lyrical,,,,-------- -------- --- not ---- --- --- ------ -- --------<br>---- --------- --- ------- ------------ ---------- ---------<br>--- ---------- ------- ---------- ------- -- -------- ----<br>---- --- ------ ----- ------ -- ---- --- ----- -- - -------<br>-------- -- --- --- -- ----- ----------- ----- -----------<br>---- --- ---------- --- ---- --- -- ----------,282977.50000003725,282973.3899999992,282666.644,282675.58500001905,282683.311,282983.317,,3,not
screen,html.Screen,2_3_1_0_1_4,2021-04-28T20:09:22.004Z,,,,,,,,,,,,,,,,,51,,,,,,,,,,,,,,205.74300000426592,,response,,,,13,B,,,,,,Space,keypress(Space),,,,lyrical,,,,-------- -------- --- --- know --- --- ------ -- --------<br>---- --------- --- ------- ------------ ---------- ---------<br>--- ---------- ------- ---------- ------- -- -------- ----<br>---- --- ------ ----- ------ -- ---- --- ----- -- - -------<br>-------- -- --- --- -- ----- ----------- ----- -----------<br>---- --- ---------- --- ---- --- -- ----------,283192.04000005266,283189.06000000425,282966.65,282977.6650000131,282983.317,283199.988,,4,know
screen,html.Screen,2_3_1_0_1_5,2021-04-28T20:09:22.319Z,,,,,,,,,,,,,,,,,51,,,,,,,,,,,,,,302.51700004038867,,response,,,,13,B,,,,,,Space,keypress(Space),,,,lyrical,,,,"-------- -------- --- --- ---- it, --- ------ -- --------<br>---- --------- --- ------- ------------ ---------- ---------<br>--- ---------- ------- ---------- ------- -- -------- ----<br>---- --- ------ ----- ------ -- ---- --- ----- -- - -------<br>-------- -- --- --- -- ----- ----------- ----- -----------<br>---- --- ---------- --- ---- --- -- ----------",283507.2500000242,283502.5050000404,283183.321,283192.2050000285,283199.988,283516.661,,5,"it,"
screen,html.Screen,2_3_1_0_1_6,2021-04-28T20:09:22.590Z,,,,,,,,,,,,,,,,,51,,,,,,,,,,,,,,255.99900001689093,,response,,,,13,B,,,,,,Space,keypress(Space),,,,lyrical,,,,-------- -------- --- --- ---- --- but ------ -- --------<br>---- --------- --- ------- ------------ ---------- ---------<br>--- ---------- ------- ---------- ------- -- -------- ----<br>---- --- ------ ----- ------ -- ---- --- ----- -- - -------<br>-------- -- --- --- -- ----- ----------- ----- -----------<br>---- --- ---------- --- ---- --- -- ----------,283777.9600000358,283772.6600000169,283499.994,283507.41500000004,283516.661,283783.333,,6,but
screen,html.Screen,2_3_1_0_1_7,2021-04-28T20:09:22.845Z,,,,,,,,,,,,,,,,,51,,,,,,,,,,,,,,247.51200000115205,,response,,,,13,B,,,,,,Space,keypress(Space),,,,lyrical,,,,-------- -------- --- --- ---- --- --- debate -- --------<br>---- --------- --- ------- ------------ ---------- ---------<br>--- ---------- ------- ---------- ------- -- -------- ----<br>---- --- ------ ----- ------ -- ---- --- ----- -- - -------<br>-------- -- --- --- -- ----- ----------- ----- -----------<br>---- --- ---------- --- ---- --- -- ----------,284033.8750000228,284030.84500000114,283766.666,283778.25000003213,283783.333,284050.005,,7,debate
screen,html.Screen,2_3_1_0_1_8,2021-04-28T20:09:23.127Z,,,,,,,,,,,,,,,,,51,,,,,,,,,,,,,,262.3100000465056,,response,,,,13,B,,,,,,Space,keypress(Space),,,,lyrical,,,,-------- -------- --- --- ---- --- --- ------ in --------<br>---- --------- --- ------- ------------ ---------- ---------<br>--- ---------- ------- ---------- ------- -- -------- ----<br>---- --- ------ ----- ------ -- ---- --- ----- -- - -------<br>-------- -- --- --- -- ----- ----------- ----- -----------<br>---- --- ---------- --- ---- --- -- ----------,284315.45500003267,284312.3150000465,284033.338,284034.1200000257,284050.005,284316.677,,8,in
screen,html.Screen,2_3_1_0_1_9,2021-04-28T20:09:23.333Z,,,,,,,,,,,,,,,,,51,,,,,,,,,,,,,,200.0930000456283,,response,,,,13,B,,,,,,Space,keypress(Space),,,,lyrical,,,,-------- -------- --- --- ---- --- --- ------ -- Congress<br>---- --------- --- ------- ------------ ---------- ---------<br>--- ---------- ------- ---------- ------- -- -------- ----<br>---- --- ------ ----- ------ -- ---- --- ----- -- - -------<br>-------- -- --- --- -- ----- ----------- ----- -----------<br>---- --- ---------- --- ---- --- -- ----------,284521.2900000042,284516.77000004565,284300.01,284315.58000005316,284316.677,284533.348,,9,Congress
screen,html.Screen,2_3_1_0_1_10,2021-04-28T20:09:23.545Z,,,,,,,,,,,,,,,,,51,,,,,,,,,,,,,,196.37200000300072,,response,,,,13,B,,,,,,Space,keypress(Space),,,,lyrical,,,,-------- -------- --- --- ---- --- --- ------ -- --------<br>over --------- --- ------- ------------ ---------- ---------<br>--- ---------- ------- ---------- ------- -- -------- ----<br>---- --- ------ ----- ------ -- ---- --- ----- -- - -------<br>-------- -- --- --- -- ----- ----------- ----- -----------<br>---- --- ---------- --- ---- --- -- ----------,284733.75000001397,284729.720000003,284516.681,284521.4150000247,284533.348,284750.019,,10,over
screen,html.Screen,2_3_1_0_1_11,2021-04-28T20:09:23.780Z,,,,,,,,,,,,,,,,,51,,,,,,,,,,,,,,214.5260000535054,,response,,,,13,B,,,,,,Space,keypress(Space),,,,lyrical,,,,-------- -------- --- --- ---- --- --- ------ -- --------<br>---- reforming --- ------- ------------ ---------- ---------<br>--- ---------- ------- ---------- ------- -- -------- ----<br>---- --- ------ ----- ------ -- ---- --- ----- -- - -------<br>-------- -- --- --- -- ----- ----------- ----- -----------<br>---- --- ---------- --- ---- --- -- ----------,284968.5800000443,284964.5450000535,284733.352,284733.9950000169,284750.019,284983.357,,11,reforming
screen,html.Screen,2_3_1_0_1_12,2021-04-28T20:09:24.243Z,,,,,,,,,,,,,,,,,51,,,,,,,,,,,,,,444.6730000100215,,response,,,,13,B,,,,,,Space,keypress(Space),,,,lyrical,,,,-------- -------- --- --- ---- --- --- ------ -- --------<br>---- --------- the ------- ------------ ---------- ---------<br>--- ---------- ------- ---------- ------- -- -------- ----<br>---- --- ------ ----- ------ -- ---- --- ----- -- - -------<br>-------- -- --- --- -- ----- ----------- ----- -----------<br>---- --- ---------- --- ---- --- -- ----------,285431.45500001265,285428.03000001004,284966.69,284968.79000001354,284983.357,285433.366,,12,the
screen,html.Screen,2_3_1_0_1_13,2021-04-28T20:09:24.512Z,,,,,,,,,,,,,,,,,51,,,,,,,,,,,,,,264.38900003017625,,response,,,,13,B,,,,,,Space,keypress(Space),,,,lyrical,,,,-------- -------- --- --- ---- --- --- ------ -- --------<br>---- --------- --- federal ------------ ---------- ---------<br>--- ---------- ------- ---------- ------- -- -------- ----<br>---- --- ------ ----- ------ -- ---- --- ----- -- - -------<br>-------- -- --- --- -- ----- ----------- ----- -----------<br>---- --- ---------- --- ---- --- -- ----------,285700.83000004524,285697.75500003016,285416.699,285431.58000003314,285433.366,285716.705,,13,federal
screen,html.Screen,2_3_1_0_1_14,2021-04-28T20:09:24.814Z,,,,,,,,,,,,,,,,,51,,,,,,,,,,,,,,281.8400000385591,,response,,,,13,B,,,,,,Space,keypress(Space),,,,lyrical,,,,-------- -------- --- --- ---- --- --- ------ -- --------<br>---- --------- --- ------- government's ---------- ---------<br>--- ---------- ------- ---------- ------- -- -------- ----<br>---- --- ------ ----- ------ -- ---- --- ----- -- - -------<br>-------- -- --- --- -- ----- ----------- ----- -----------<br>---- --- ---------- --- ---- --- -- ----------,286002.08000000566,285998.5450000386,285700.038,285700.9550000075,285716.705,286016.711,,14,government's
screen,html.Screen,2_3_1_0_1_15,2021-04-28T20:09:25.087Z,,,,,,,,,,,,,,,,,51,,,,,,,,,,,,,,253.60400003066752,,response,,,,13,B,,,,,,Space,keypress(Space),,,,lyrical,,,,-------- -------- --- --- ---- --- --- ------ -- --------<br>---- --------- --- ------- ------------ regulatory ---------<br>--- ---------- ------- ---------- ------- -- -------- ----<br>---- --- ------ ----- ------ -- ---- --- ----- -- - -------<br>-------- -- --- --- -- ----- ----------- ----- -----------<br>---- --- ---------- --- ---- --- -- ----------,286275.8299999987,286270.3150000307,286000.044,286002.2900000331,286016.711,286283.469,,15,regulatory
screen,html.Screen,2_3_1_0_1_16,2021-04-28T20:09:25.391Z,,,,,,,,,,,,,,,,,51,,,,,,,,,,,,,,292.12100002221996,,response,,,,13,B,,,,,,Space,keypress(Space),,,,lyrical,,,,-------- -------- --- --- ---- --- --- ------ -- --------<br>---- --------- --- ------- ------------ ---------- apparatus<br>--- ---------- ------- ---------- ------- -- -------- ----<br>---- --- ------ ----- ------ -- ---- --- ----- -- - -------<br>-------- -- --- --- -- ----- ----------- ----- -----------<br>---- --- ---------- --- ---- --- -- ----------,286579.7050000401,286575.5900000222,286266.802,286276.08000003966,286283.469,286583.475,,16,apparatus
screen,html.Screen,2_3_1_0_1_17,2021-04-28T20:09:25.872Z,,,,,,,,,,,,,,,,,51,,,,,,,,,,,,,,473.7499999968568,,response,,,,13,B,,,,,,Space,keypress(Space),,,,lyrical,,,,-------- -------- --- --- ---- --- --- ------ -- --------<br>---- --------- --- ------- ------------ ---------- ---------<br>may ---------- ------- ---------- ------- -- -------- ----<br>---- --- ------ ----- ------ -- ---- --- ----- -- - -------<br>-------- -- --- --- -- ----- ----------- ----- -----------<br>---- --- ---------- --- ---- --- -- ----------,287060.1200000383,287057.22499999683,286566.808,286579.91500000935,286583.475,287066.818,,17,may
screen,html.Screen,2_3_1_0_1_18,2021-04-28T20:09:26.132Z,,,,,,,,,,,,,,,,,51,,,,,,,,,,,,,,250.79200002731523,,response,,,,13,B,,,,,,Space,keypress(Space),,,,lyrical,,,,-------- -------- --- --- ---- --- --- ------ -- --------<br>---- --------- --- ------- ------------ ---------- ---------<br>--- profoundly ------- ---------- ------- -- -------- ----<br>---- --- ------ ----- ------ -- ---- --- ----- -- - -------<br>-------- -- --- --- -- ----- ----------- ----- -----------<br>---- --- ---------- --- ---- --- -- ----------,287320.79000002705,287317.61000002734,287050.151,287060.25000003865,287066.818,287333.49,,18,profoundly
screen,html.Screen,2_3_1_0_1_19,2021-04-28T20:09:26.425Z,,,,,,,,,,,,,,,,,51,,,,,,,,,,,,,,276.72000001347624,,response,,,,13,B,,,,,,Space,keypress(Space),,,,lyrical,,,,-------- -------- --- --- ---- --- --- ------ -- --------<br>---- --------- --- ------- ------------ ---------- ---------<br>--- ---------- improve ---------- ------- -- -------- ----<br>---- --- ------ ----- ------ -- ---- --- ----- -- - -------<br>-------- -- --- --- -- ----- ----------- ----- -----------<br>---- --- ---------- --- ---- --- -- ----------,287613.7500000186,287610.21000001347,287316.823,287320.9999999963,287333.49,287616.829,,19,improve
screen,html.Screen,2_3_1_0_1_20,2021-04-28T20:09:26.772Z,,,,,,,,,,,,,,,,,51,,,,,,,,,,,,,,340.40600003802683,,response,,,,13,B,,,,,,Space,keypress(Space),,,,lyrical,,,,-------- -------- --- --- ---- --- --- ------ -- --------<br>---- --------- --- ------- ------------ ---------- ---------<br>--- ---------- ------- companies' ------- -- -------- ----<br>---- --- ------ ----- ------ -- ---- --- ----- -- - -------<br>-------- -- --- --- -- ----- ----------- ----- -----------<br>---- --- ---------- --- ---- --- -- ----------,287960.7500000275,287957.23500003805,287600.162,287613.8300000457,287616.829,287966.836,,20,companies'
screen,html.Screen,2_3_1_0_1_21,2021-04-28T20:09:27.100Z,,,,,,,,,,,,,,,,,51,,,,,,,,,,,,,,316.17900005180854,,response,,,,13,B,,,,,,Space,keypress(Space),,,,lyrical,,,,-------- -------- --- --- ---- --- --- ------ -- --------<br>---- --------- --- ------- ------------ ---------- ---------<br>--- ---------- ------- ---------- ability -- -------- ----<br>---- --- ------ ----- ------ -- ---- --- ----- -- - -------<br>-------- -- --- --- -- ----- ----------- ----- -----------<br>---- --- ---------- --- ---- --- -- ----------,288288.41500001727,288283.0150000518,287950.169,287960.9150000033,287966.836,288300.176,,21,ability
screen,html.Screen,2_3_1_0_1_22,2021-04-28T20:09:27.392Z,,,,,,,,,,,,,,,,,51,,,,,,,,,,,,,,277.75900000846013,,response,,,,13,B,,,,,,Space,keypress(Space),,,,lyrical,,,,-------- -------- --- --- ---- --- --- ------ -- --------<br>---- --------- --- ------- ------------ ---------- ---------<br>--- ---------- ------- ---------- ------- to -------- ----<br>---- --- ------ ----- ------ -- ---- --- ----- -- - -------<br>-------- -- --- --- -- ----- ----------- ----- -----------<br>---- --- ---------- --- ---- --- -- ----------,288580.91499999864,288577.93500000844,288283.509,288288.5800000513,288300.176,288583.515,,22,to
screen,html.Screen,2_3_1_0_1_23,2021-04-28T20:09:27.730Z,,,,,,,,,,,,,,,,,51,,,,,,,,,,,,,,329.9950000421377,,response,,,,13,B,,,,,,Space,keypress(Space),,,,lyrical,,,,-------- -------- --- --- ---- --- --- ------ -- --------<br>---- --------- --- ------- ------------ ---------- ---------<br>--- ---------- ------- ---------- ------- -- survive. ----<br>---- --- ------ ----- ------ -- ---- --- ----- -- - -------<br>-------- -- --- --- -- ----- ----------- ----- -----------<br>---- --- ---------- --- ---- --- -- ----------,288918.04000001866,288913.51000004215,288566.848,288581.1200000462,288583.515,288933.522,,23,survive.
screen,html.Screen,2_3_1_0_1_24,2021-04-28T20:09:28.036Z,,,,,,,,,,,,,,,,,51,,,,,,,,,,,,,,286.0680000515422,,response,,,,13,B,,,,,,Space,keypress(Space),,,,lyrical,,,,-------- -------- --- --- ---- --- --- ------ -- --------<br>---- --------- --- ------- ------------ ---------- ---------<br>--- ---------- ------- ---------- ------- -- -------- This<br>---- --- ------ ----- ------ -- ---- --- ----- -- - -------<br>-------- -- --- --- -- ----- ----------- ----- -----------<br>---- --- ---------- --- ---- --- -- ----------,289224.9550000415,289219.59000005154,288916.855,288918.245000008,288933.522,289233.528,,24,This
screen,html.Screen,2_3_1_0_1_25,2021-04-28T20:09:28.325Z,,,,,,,,,,,,,,,,,51,,,,,,,,,,,,,,276.20200004888466,,response,,,,13,B,,,,,,Space,keypress(Space),,,,lyrical,,,,-------- -------- --- --- ---- --- --- ------ -- --------<br>---- --------- --- ------- ------------ ---------- ---------<br>--- ---------- ------- ---------- ------- -- -------- ----<br>week --- ------ ----- ------ -- ---- --- ----- -- - -------<br>-------- -- --- --- -- ----- ----------- ----- -----------<br>---- --- ---------- --- ---- --- -- ----------,289513.1249999977,289509.7300000489,289216.861,289225.1249999972,289233.528,289516.867,,25,week
screen,html.Screen,2_3_1_0_1_26,2021-04-28T20:09:28.607Z,,,,,,,,,,,,,,,,,51,,,,,,,,,,,,,,274.45799999829615,,response,,,,13,B,,,,,,Space,keypress(Space),,,,lyrical,,,,-------- -------- --- --- ---- --- --- ------ -- --------<br>---- --------- --- ------- ------------ ---------- ---------<br>--- ---------- ------- ---------- ------- -- -------- ----<br>---- the ------ ----- ------ -- ---- --- ----- -- - -------<br>-------- -- --- --- -- ----- ----------- ----- -----------<br>---- --- ---------- --- ---- --- -- ----------,289795.45500001404,289791.3249999983,289500.2,289513.2900000317,289516.867,289800.206,,26,the
screen,html.Screen,2_3_1_0_1_27,2021-04-28T20:09:28.885Z,,,,,,,,,,,,,,,,,51,,,,,,,,,,,,,,271.96399999945424,,response,,,,13,B,,,,,,Space,keypress(Space),,,,lyrical,,,,-------- -------- --- --- ---- --- --- ------ -- --------<br>---- --------- --- ------- ------------ ---------- ---------<br>--- ---------- ------- ---------- ------- -- -------- ----<br>---- --- Senate ----- ------ -- ---- --- ----- -- - -------<br>-------- -- --- --- -- ----- ----------- ----- -----------<br>---- --- ---------- --- ---- --- -- ----------,290073.7900000531,290072.16999999946,289783.539,289795.6200000481,289800.206,290083.545,,27,Senate
screen,html.Screen,2_3_1_0_1_28,2021-04-28T20:09:29.102Z,,,,,,,,,,,,,,,,,51,,,,,,,,,,,,,,203.20000004855683,,response,,,,13,B,,,,,,Space,keypress(Space),,,,lyrical,,,,-------- -------- --- --- ---- --- --- ------ -- --------<br>---- --------- --- ------- ------------ ---------- ---------<br>--- ---------- ------- ---------- ------- -- -------- ----<br>---- --- ------ seems ------ -- ---- --- ----- -- - -------<br>-------- -- --- --- -- ----- ----------- ----- -----------<br>---- --- ---------- --- ---- --- -- ----------,290290.25000002,290286.74500004854,290066.878,290073.83000000846,290083.545,290300.216,,28,seems
screen,html.Screen,2_3_1_0_1_29,2021-04-28T20:09:29.352Z,,,,,,,,,,,,,,,,,51,,,,,,,,,,,,,,233.90400002570823,,response,,,,13,B,,,,,,Space,keypress(Space),,,,lyrical,,,,-------- -------- --- --- ---- --- --- ------ -- --------<br>---- --------- --- ------- ------------ ---------- ---------<br>--- ---------- ------- ---------- ------- -- -------- ----<br>---- --- ------ ----- poised -- ---- --- ----- -- - -------<br>-------- -- --- --- -- ----- ----------- ----- -----------<br>---- --- ---------- --- ---- --- -- ----------,290540.12000001967,290534.1200000257,290283.549,290290.335000027,290300.216,290550.221,,29,poised
screen,html.Screen,2_3_1_0_1_30,2021-04-28T20:09:29.587Z,,,,,,,,,,,,,,,,,51,,,,,,,,,,,,,,220.19900001527276,,response,,,,13,B,,,,,,Space,keypress(Space),,,,lyrical,,,,-------- -------- --- --- ---- --- --- ------ -- --------<br>---- --------- --- ------- ------------ ---------- ---------<br>--- ---------- ------- ---------- ------- -- -------- ----<br>---- --- ------ ----- ------ to ---- --- ----- -- - -------<br>-------- -- --- --- -- ----- ----------- ----- -----------<br>---- --- ---------- --- ---- --- -- ----------,290775.2450000262,290770.4200000153,290533.554,290540.29000003356,290550.221,290783.559,,30,to
screen,html.Screen,2_3_1_0_1_31,2021-04-28T20:09:29.923Z,,,,,,,,,,,,,,,,,51,,,,,,,,,,,,,,324.2460000360152,,response,,,,13,B,,,,,,Space,keypress(Space),,,,lyrical,,,,-------- -------- --- --- ---- --- --- ------ -- --------<br>---- --------- --- ------- ------------ ---------- ---------<br>--- ---------- ------- ---------- ------- -- -------- ----<br>---- --- ------ ----- ------ -- join --- ----- -- - -------<br>-------- -- --- --- -- ----- ----------- ----- -----------<br>---- --- ---------- --- ---- --- -- ----------,291111.58000002615,291107.805000036,290766.892,290775.4150000401,290783.559,291116.899,,31,join
screen,html.Screen,2_3_1_0_1_32,2021-04-28T20:09:30.182Z,,,,,,,,,,,,,,,,,51,,,,,,,,,,,,,,249.15600004955195,,response,,,,13,B,,,,,,Space,keypress(Space),,,,lyrical,,,,-------- -------- --- --- ---- --- --- ------ -- --------<br>---- --------- --- ------- ------------ ---------- ---------<br>--- ---------- ------- ---------- ------- -- -------- ----<br>---- --- ------ ----- ------ -- ---- the ----- -- - -------<br>-------- -- --- --- -- ----- ----------- ----- -----------<br>---- --- ---------- --- ---- --- -- ----------,291370.6200000015,291366.0550000495,291100.232,291111.7900000536,291116.899,291383.571,,32,the
screen,html.Screen,2_3_1_0_1_33,2021-04-28T20:09:30.416Z,,,,,,,,,,,,,,,,,51,,,,,,,,,,,,,,218.79900003690273,,response,,,,13,B,,,,,,Space,keypress(Space),,,,lyrical,,,,-------- -------- --- --- ---- --- --- ------ -- --------<br>---- --------- --- ------- ------------ ---------- ---------<br>--- ---------- ------- ---------- ------- -- -------- ----<br>---- --- ------ ----- ------ -- ---- --- House -- - -------<br>-------- -- --- --- -- ----- ----------- ----- -----------<br>---- --- ---------- --- ---- --- -- ----------,291604.79000001214,291602.3700000369,291366.904,291370.7900000154,291383.571,291616.909,,33,House
screen,html.Screen,2_3_1_0_1_34,2021-04-28T20:09:30.665Z,,,,,,,,,,,,,,,,,51,,,,,,,,,,,,,,232.82599999615923,,response,,,,13,B,,,,,,Space,keypress(Space),,,,lyrical,,,,-------- -------- --- --- ---- --- --- ------ -- --------<br>---- --------- --- ------- ------------ ---------- ---------<br>--- ---------- ------- ---------- ------- -- -------- ----<br>---- --- ------ ----- ------ -- ---- --- ----- in - -------<br>-------- -- --- --- -- ----- ----------- ----- -----------<br>---- --- ---------- --- ---- --- -- ----------,291853.91500004334,291849.73499999614,291600.242,291604.8700000392,291616.909,291866.914,,34,in
screen,html.Screen,2_3_1_0_1_35,2021-04-28T20:09:30.890Z,,,,,,,,,,,,,,,,,51,,,,,,,,,,,,,,208.10600004752632,,response,,,,13,B,,,,,,Space,keypress(Space),,,,lyrical,,,,-------- -------- --- --- ---- --- --- ------ -- --------<br>---- --------- --- ------- ------------ ---------- ---------<br>--- ---------- ------- ---------- ------- -- -------- ----<br>---- --- ------ ----- ------ -- ---- --- ----- -- a -------<br>-------- -- --- --- -- ----- ----------- ----- -----------<br>---- --- ---------- --- ---- --- -- ----------,292078.58000003034,292075.0200000475,291850.247,291854.1250000126,291866.914,292083.585,,35,a
screen,html.Screen,2_3_1_0_1_36,2021-04-28T20:09:31.141Z,,,,,,,,,,,,,,,,,51,,,,,,,,,,,,,,240.87500003253808,,response,,,,13,B,,,,,,Space,keypress(Space),,,,lyrical,,,,-------- -------- --- --- ---- --- --- ------ -- --------<br>---- --------- --- ------- ------------ ---------- ---------<br>--- ---------- ------- ---------- ------- -- -------- ----<br>---- --- ------ ----- ------ -- ---- --- ----- -- - massive<br>-------- -- --- --- -- ----- ----------- ----- -----------<br>---- --- ---------- --- ---- --- -- ----------,292329.2500000098,292324.46000003256,292066.918,292078.70500005083,292083.585,292333.59,,36,massive
