sender,sender_type,sender_id,timestamp,meta,,Blues,Classical,Country,Dance,Electronic,Folk,Gospel,Hip-Hop,Jazz,Latin,Musical/Film,New-age,Pop,Prolific_id,Provo_ID,R&B,Rap,Reggae,Religious,Rock,Soul,Swing,Traditional,age,artist_name,correct,correctResponse,distraction,duration,education,ended_on,familiarity,gender,headphone_check_performance,item,list,music_frequency,offensiveness,pleasantness,position_correct,preference,response,response_action,snippet_file,song_name,song_rating,sound,stimulus_1,stimulus_2,stimulus_3,text,time_commit,time_end,time_render,time_run,time_show,time_switch,url,word,word_ID
Prolific ID,html.Form,0,2021-04-28T16:05:11.539Z,"{""labjs_version"":""20.2.2"",""labjs_build"":{""flavor"":""production"",""commit"":""a25486e0c714a0ae2ce03ff94b7bb6896854dcfa""},""location"":""https://run.pavlovia.org/mvasilev/prolific_music_a/"",""userAgent"":""Mozilla/5.0 (Macintosh; Intel Mac OS X 10_14_6) AppleWebKit/537.36 (KHTML, like Gecko) Chrome/90.0.4430.85 Safari/537.36"",""platform"":""MacIntel"",""language"":""en-GB"",""locale"":""en-GB"",""timeZone"":""Europe/London"",""timezoneOffset"":-60,""screen_width"":1920,""screen_height"":1080,""scroll_width"":1349,""scroll_height"":756,""window_innerWidth"":1349,""window_innerHeight"":804,""devicePixelRatio"":1}",,,,,,,,,,,,,,,5eb087d83d8745127270fb51,,,,,,,,,,,,,,,7019.39799999669,,form submission,,,,,,,,,,,,,,,,,,,,,13780.885000000126,13780.44499999669,6427.347,6740.189999996801,6761.047,13785.539,{},,
Introduction,html.Screen,1_0,2021-04-28T16:05:17.700Z,,,,,,,,,,,,,,,,,,,,,,,,,,,,,,,6154.276000005182,,response,,,,,,,,,,,continue,click button,,,,,,,,,19941.96500000544,19939.815000005183,13768.854,13781.14999999525,13785.539,19942.304,,,
Volume calibration,html.Screen,1_1,2021-04-28T16:05:50.889Z,,,,,,,,,,,,,,,,,,,,,,,,,,,,,,,33186.93599999475,,response,,,,,,,,,,,continue,click button,,,,,,,,,53132.41500000004,53129.23999999475,19925.619,19942.074999999022,19942.304,53146.074,,,
Task instructions,html.Screen,1_2,2021-04-28T16:05:57.086Z,,,,,,,,,,,,,,,,,,,,,,,,,,,,,,,6182.256000003916,,response,,,,,,,,,,,continue,click button,,,,,,,,,59329.710000005434,59328.330000003916,53129.389,53132.5050000014,53146.074,59336.41,,,
Sounds,html.Screen,1_3_0_0,2021-04-28T16:06:01.335Z,,,,,,,,,,,,,,,,,,,,,,,,,,,,,,,4254.674999999996,,timeout,,,,,,,,,1,,,,,,,,S,O,I,,63578.69999999821,63574.4,59319.725,59329.9149999948,59336.41,63591.085,,,
Judgement,html.Screen,1_3_0_1,2021-04-28T16:06:05.073Z,,,,,,,,,,,,,,,,,,,,,,,,,,,,true,1,,3724.9099999972022,,response,,,,,,,,,1,,1,click #choice-1,,,,,S,O,I,,67317.44500000787,67315.9949999972,63574.4,63578.81500000076,63591.085,67328.693,,,
Trial,flow.Sequence,1_3_0,2021-04-28T16:06:05.075Z,,,,,,,,,,,,,,,,,,,,,,,,,,,,,,,7979.584999997198,,completion,,,,,,,,,1,,,,,,,,S,O,I,,67318.67000000784,67315.9949999972,59319.725,59329.865000006976,59336.41,67328.693,,,
Sounds,html.Screen,1_3_1_0,2021-04-28T16:06:09.325Z,,,,,,,,,,,,,,,,,,,,,,,,,,,,,,,4254.675000000003,,timeout,,,,,,,,,2,,,,,,,,O,S,I,,71568.75500000024,71566.683,67312.008,67318.82000000041,67328.693,71583.368,,,
Judgement,html.Screen,1_3_1_1,2021-04-28T16:06:11.149Z,,,,,,,,,,,,,,,,,,,,,,,,,,,,true,2,,1808.167000002475,,response,,,,,,,,,2,,2,click #choice-2,,,,,O,S,I,,73393.00999999978,73391.53500000248,71566.683,71568.90500000736,71583.368,73402.033,,,
Trial,flow.Sequence,1_3_1,2021-04-28T16:06:11.149Z,,,,,,,,,,,,,,,,,,,,,,,,,,,,,,,6062.842000002478,,completion,,,,,,,,,2,,,,,,,,O,S,I,,73393.16500000132,73391.53500000248,67312.008,67318.77500000701,67328.693,73402.033,,,
Sounds,html.Screen,1_3_2_0,2021-04-28T16:06:15.398Z,,,,,,,,,,,,,,,,,,,,,,,,,,,,,,,4254.675000000003,,timeout,,,,,,,,,1,,,,,,,,S,I,O,,77642.21000000543,77640.023,73385.348,73393.28499999829,73402.033,77656.708,,,
Judgement,html.Screen,1_3_2_1,2021-04-28T16:06:16.256Z,,,,,,,,,,,,,,,,,,,,,,,,,,,,true,1,,842.6319999948464,,response,,,,,,,,,1,,1,click #choice-1,,,,,S,I,O,,78500.8150000067,78499.33999999485,77640.023,77642.3150000046,77656.708,78524.593,,,
Trial,flow.Sequence,1_3_2,2021-04-28T16:06:16.256Z,,,,,,,,,,,,,,,,,,,,,,,,,,,,,,,5097.306999994849,,completion,,,,,,,,,1,,,,,,,,S,I,O,,78500.95499999588,78499.33999999485,73385.348,73393.24000000488,73402.033,78524.593,,,
Sounds,html.Screen,1_3_3_0,2021-04-28T16:06:20.519Z,,,,,,,,,,,,,,,,,,,,,,,,,,,,,,,4254.675000000003,,timeout,,,,,,,,,2,,,,,,,,I,S,O,,82763.99999999558,82762.583,78507.908,78501.05999999505,78524.593,82779.268,,,
Judgement,html.Screen,1_3_3_1,2021-04-28T16:06:21.060Z,,,,,,,,,,,,,,,,,,,,,,,,,,,,true,2,,523.992000000595,,response,,,,,,,,,2,,2,click #choice-2,,,,,I,S,O,,83304.62999999872,83303.26000000059,82762.583,82764.0800000081,82779.268,83313.188,,,
Trial,flow.Sequence,1_3_3,2021-04-28T16:06:21.060Z,,,,,,,,,,,,,,,,,,,,,,,,,,,,,,,4778.667000000598,,completion,,,,,,,,,2,,,,,,,,I,S,O,,83304.77499999688,83303.26000000059,78507.908,78501.01999999606,78524.593,83313.188,,,
Sounds,html.Screen,1_3_4_0,2021-04-28T16:06:25.309Z,,,,,,,,,,,,,,,,,,,,,,,,,,,,,,,4254.675000000003,,timeout,,,,,,,,,3,,,,,,,,I,O,S,,87553.91000000236,87551.178,83296.503,83304.86000000383,83313.188,87567.863,,,
Judgement,html.Screen,1_3_4_1,2021-04-28T16:06:25.898Z,,,,,,,,,,,,,,,,,,,,,,,,,,,,true,3,,573.1720000078349,,response,,,,,,,,,3,,3,click #choice-3,,,,,I,O,S,,88142.44999999937,88141.03500000783,87551.178,87554.00499999814,87567.863,88152.028,,,
Trial,flow.Sequence,1_3_4,2021-04-28T16:06:25.898Z,,,,,,,,,,,,,,,,,,,,,,,,,,,,,,,4827.847000007838,,completion,,,,,,,,,3,,,,,,,,I,O,S,,88142.57999999973,88141.03500000783,83296.503,83304.83000000822,83313.188,88152.028,,,
Sounds,html.Screen,1_3_5_0,2021-04-28T16:06:30.147Z,,,,,,,,,,,,,,,,,,,,,,,,,,,,,,,4254.674999999988,,timeout,,,,,,,,,3,,,,,,,,O,I,S,,92391.77499999641,92390.018,88135.343,88142.6599999977,88152.028,92406.703,,,
Judgement,html.Screen,1_3_5_1,2021-04-28T16:06:30.623Z,,,,,,,,,,,,,,,,,,,,,,,,,,,,true,3,,459.6219999954192,,response,,,,,,,,,3,,3,click #choice-3,,,,,O,I,S,,92867.74499999592,92866.32499999541,92390.018,92391.86499999778,92406.703,92873.883,,,
Trial,flow.Sequence,1_3_5,2021-04-28T16:06:30.623Z,,,,,,,,,,,,,,,,,,,,,,,,,,,,,,,4714.2969999954075,,completion,,,,,,,,,3,,,,,,,,O,I,S,,92867.87499999627,92866.32499999541,88135.343,88142.63499999652,88152.028,92873.883,,,
Task,flow.Loop,1_3,2021-04-28T16:06:30.626Z,,,,,,,,,,,,,,,,,,,,,,,,,,,,,,,33529.91499999541,,completion,,,1,,,,,,,,,,,,,,,,,,92870.89500000002,92866.32499999541,59319.725,59329.8150000046,59336.41,92873.883,,,
Trap,html.Screen,1_4,2021-04-28T16:06:30.627Z,,,,,,,,,,,,,,,,,,,,,,,,,,,,,,,NaN,,skipped,,,,,,,,,,,,,,,,,,,,,92871.82499999471,92866.32499999541,,92871.68999999994,,92873.883,,,
Thanks,html.Screen,1_5,2021-04-28T16:06:33.739Z,,,,,,,,,,,,,,,,,,,,,,,,,,,,,,,3108.826999996585,,response,,,,,,,,,,,continue,click button,,,,,,,,,95984.11000000488,95982.70999999659,92857.198,92871.90500000725,92873.883,109442.29,,,
Headphone screening,flow.Sequence,1,2021-04-28T16:06:33.739Z,,,,,,,,,,,,,,,,,,,,,,,,,,,,,,,82197.17099999658,,completion,,,,,,,,,,,,,,,,,,,,,95984.23499999626,95982.70999999659,13768.854,13781.119999999646,13785.539,109442.29,,,
Instructions,html.Page,2_0,2021-04-28T16:07:02.326Z,,,,,,,,,,,,,,,,,,,,,,,,,,,,,,,15129.940000005226,,form submission,,,,,,,,,,,,,,,,,,,,,124572.43499999458,124572.23000000522,109425.605,109435.82500000775,109442.29,124575.585,,,
Holding screen,html.Screen,2_1_0_0,2021-04-28T16:07:12.308Z,,,,,,,,,,,,,,,,,,,,,,,,,,,,,,,9994.656000000003,,timeout,,,,,,,,,,,,,,,,,,,,,134555.1850000047,134553.556,124558.9,124572.57499999832,124575.585,134570.241,,,
screen,html.Screen,2_1_0_1_0,2021-04-28T16:07:13.387Z,,,,,,,,,,,,,,,,,53,,,,,,,,,,,,,,1060.0490000009595,,response,,,,99,,,,,,,Space,keypress(Space),,,,,,,,When -- ----- -- ------ - ------- --- ----------<br>------------- ------ ------ ---- ---- ------- ----- -- ----<br>-------- ------- -- ---------- --- - --- ----- ----- ----<br>---- --- --- ----- --- ---- ---- ------- ----- ---- -------<br>--- --- -- ----- -- --- ---- -- --- ---- -- ------ ------<br>--- ----- -- ----,135633.96000000648,135630.29000000097,134553.556,134555.34000000625,134570.241,135638.081,,0,When
screen,html.Screen,2_1_0_1_1,2021-04-28T16:07:13.761Z,,,,,,,,,,,,,,,,,53,,,,,,,,,,,,,,368.14400000462774,,response,,,,99,,,,,,,Space,keypress(Space),,,,,,,,---- it ----- -- ------ - ------- --- ----------<br>------------- ------ ------ ---- ---- ------- ----- -- ----<br>-------- ------- -- ---------- --- - --- ----- ----- ----<br>---- --- --- ----- --- ---- ---- ------- ----- ---- -------<br>--- --- -- ----- -- --- ---- -- --- ---- -- ------ ------<br>--- ----- -- ----,136008.2950000069,136006.22500000463,135621.396,135634.07000000007,135638.081,136021.916,,1,it
screen,html.Screen,2_1_0_1_2,2021-04-28T16:07:14.154Z,,,,,,,,,,,,,,,,,53,,,,,,,,,,,,,,376.40900000193506,,response,,,,99,,,,,,,Space,keypress(Space),,,,,,,,---- -- comes -- ------ - ------- --- ----------<br>------------- ------ ------ ---- ---- ------- ----- -- ----<br>-------- ------- -- ---------- --- - --- ----- ----- ----<br>---- --- --- ----- --- ---- ---- ------- ----- ---- -------<br>--- --- -- ----- -- --- ---- -- --- ---- -- ------ ------<br>--- ----- -- ----,136400.55000000575,136398.32500000193,136005.231,136008.9350000053,136021.916,136405.671,,2,comes
screen,html.Screen,2_1_0_1_3,2021-04-28T16:07:14.474Z,,,,,,,,,,,,,,,,,53,,,,,,,,,,,,,,312.6889999989362,,response,,,,99,,,,,,,Space,keypress(Space),,,,,,,,---- -- ----- to ------ - ------- --- ----------<br>------------- ------ ------ ---- ---- ------- ----- -- ----<br>-------- ------- -- ---------- --- - --- ----- ----- ----<br>---- --- --- ----- --- ---- ---- ------- ----- ---- -------<br>--- --- -- ----- -- --- ---- -- --- ---- -- ------ ------<br>--- ----- -- ----,136720.3850000078,136718.35999999894,136388.986,136400.64000000712,136405.671,136722.686,,3,to
screen,html.Screen,2_1_0_1_4,2021-04-28T16:07:14.786Z,,,,,,,,,,,,,,,,,53,,,,,,,,,,,,,,307.6890000021085,,response,,,,99,,,,,,,Space,keypress(Space),,,,,,,,---- -- ----- -- having - ------- --- ----------<br>------------- ------ ------ ---- ---- ------- ----- -- ----<br>-------- ------- -- ---------- --- - --- ----- ----- ----<br>---- --- --- ----- --- ---- ---- ------- ----- ---- -------<br>--- --- -- ----- -- --- ---- -- --- ---- -- ------ ------<br>--- ----- -- ----,137032.54499999457,137030.3750000021,136706.001,136720.4800000036,136722.686,137039.701,,4,having
screen,html.Screen,2_1_0_1_5,2021-04-28T16:07:15.066Z,,,,,,,,,,,,,,,,,53,,,,,,,,,,,,,,270.6789999953471,,response,,,,99,,,,,,,Space,keypress(Space),,,,,,,,---- -- ----- -- ------ a ------- --- ----------<br>------------- ------ ------ ---- ---- ------- ----- -- ----<br>-------- ------- -- ---------- --- - --- ----- ----- ----<br>---- --- --- ----- --- ---- ---- ------- ----- ---- -------<br>--- --- -- ----- -- --- ---- -- --- ---- -- ------ ------<br>--- ----- -- ----,137312.40500000422,137310.37999999535,137023.016,137032.64499999932,137039.701,137323.346,,5,a
screen,html.Screen,2_1_0_1_6,2021-04-28T16:07:15.354Z,,,,,,,,,,,,,,,,,53,,,,,,,,,,,,,,274.9539999978442,,response,,,,99,,,,,,,Space,keypress(Space),,,,,,,,---- -- ----- -- ------ - lasting --- ----------<br>------------- ------ ------ ---- ---- ------- ----- -- ----<br>-------- ------- -- ---------- --- - --- ----- ----- ----<br>---- --- --- ----- --- ---- ---- ------- ----- ---- -------<br>--- --- -- ----- -- --- ---- -- --- ---- -- ------ ------<br>--- ----- -- ----,137600.40500000468,137598.29999999783,137306.661,137312.50499999442,137323.346,137606.991,,6,lasting
screen,html.Screen,2_1_0_1_7,2021-04-28T16:07:15.665Z,,,,,,,,,,,,,,,,,53,,,,,,,,,,,,,,303.22399999623303,,response,,,,99,,,,,,,Space,keypress(Space),,,,,,,,---- -- ----- -- ------ - ------- and ----------<br>------------- ------ ------ ---- ---- ------- ----- -- ----<br>-------- ------- -- ---------- --- - --- ----- ----- ----<br>---- --- --- ----- --- ---- ---- ------- ----- ---- -------<br>--- --- -- ----- -- --- ---- -- --- ---- -- ------ ------<br>--- ----- -- ----,137912.27499999513,137910.21499999624,137590.306,137600.50000000047,137606.991,137924.006,,7,and
screen,html.Screen,2_1_0_1_8,2021-04-28T16:07:15.986Z,,,,,,,,,,,,,,,,,53,,,,,,,,,,,,,,306.35400000138907,,response,,,,99,,,,,,,Space,keypress(Space),,,,,,,,---- -- ----- -- ------ - ------- --- fulfilling<br>------------- ------ ------ ---- ---- ------- ----- -- ----<br>-------- ------- -- ---------- --- - --- ----- ----- ----<br>---- --- --- ----- --- ---- ---- ------- ----- ---- -------<br>--- --- -- ----- -- --- ---- -- --- ---- -- ------ ------<br>--- ----- -- ----,138232.44000000705,138230.36000000138,137907.321,137912.37000000547,137924.006,138241.021,,8,fulfilling
screen,html.Screen,2_1_0_1_9,2021-04-28T16:07:16.322Z,,,,,,,,,,,,,,,,,53,,,,,,,,,,,,,,325.34400000603637,,response,,,,99,,,,,,,Space,keypress(Space),,,,,,,,"---- -- ----- -- ------ - ------- --- ----------<br>relationship, ------ ------ ---- ---- ------- ----- -- ----<br>-------- ------- -- ---------- --- - --- ----- ----- ----<br>---- --- --- ----- --- ---- ---- ------- ----- ---- -------<br>--- --- -- ----- -- --- ---- -- --- ---- -- ------ ------<br>--- ----- -- ----",138568.5400000075,138566.36500000604,138224.336,138232.52499999944,138241.021,138574.721,,9,"relationship,"
screen,html.Screen,2_1_0_1_10,2021-04-28T16:07:16.641Z,,,,,,,,,,,,,,,,,53,,,,,,,,,,,,,,311.64399999848683,,response,,,,99,,,,,,,Space,keypress(Space),,,,,,,,---- -- ----- -- ------ - ------- --- ----------<br>------------- common ------ ---- ---- ------- ----- -- ----<br>-------- ------- -- ---------- --- - --- ----- ----- ----<br>---- --- --- ----- --- ---- ---- ------- ----- ---- -------<br>--- --- -- ----- -- --- ---- -- --- ---- -- ------ ------<br>--- ----- -- ----,138888.45500000753,138886.36499999848,138558.036,138568.6149999965,138574.721,138891.736,,10,common
screen,html.Screen,2_1_0_1_11,2021-04-28T16:07:16.961Z,,,,,,,,,,,,,,,,,53,,,,,,,,,,,,,,314.56899999969755,,response,,,,99,,,,,,,Space,keypress(Space),,,,,,,,---- -- ----- -- ------ - ------- --- ----------<br>------------- ------ wisdom ---- ---- ------- ----- -- ----<br>-------- ------- -- ---------- --- - --- ----- ----- ----<br>---- --- --- ----- --- ---- ---- ------- ----- ---- -------<br>--- --- -- ----- -- --- ---- -- --- ---- -- ------ ------<br>--- ----- -- ----,139208.45000000554,139206.3049999997,138875.051,138888.52999999654,138891.736,139225.436,,11,wisdom
screen,html.Screen,2_1_0_1_12,2021-04-28T16:07:17.305Z,,,,,,,,,,,,,,,,,53,,,,,,,,,,,,,,324.9140000049956,,response,,,,99,,,,,,,Space,keypress(Space),,,,,,,,---- -- ----- -- ------ - ------- --- ----------<br>------------- ------ ------ says ---- ------- ----- -- ----<br>-------- ------- -- ---------- --- - --- ----- ----- ----<br>---- --- --- ----- --- ---- ---- ------- ----- ---- -------<br>--- --- -- ----- -- --- ---- -- --- ---- -- ------ ------<br>--- ----- -- ----,139552.45000000286,139550.35000000498,139208.751,139208.5400000069,139225.436,139559.136,,12,says
screen,html.Screen,2_1_0_1_13,2021-04-28T16:07:17.617Z,,,,,,,,,,,,,,,,,53,,,,,,,,,,,,,,303.24400000594324,,response,,,,99,,,,,,,Space,keypress(Space),,,,,,,,---- -- ----- -- ------ - ------- --- ----------<br>------------- ------ ------ ---- that ------- ----- -- ----<br>-------- ------- -- ---------- --- - --- ----- ----- ----<br>---- --- --- ----- --- ---- ---- ------- ----- ---- -------<br>--- --- -- ----- -- --- ---- -- --- ---- -- ------ ------<br>--- ----- -- ----,139864.47000000044,139862.38000000594,139542.451,139552.52500000643,139559.136,139876.151,,13,that
screen,html.Screen,2_1_0_1_14,2021-04-28T16:07:17.921Z,,,,,,,,,,,,,,,,,53,,,,,,,,,,,,,,290.17399999831105,,response,,,,99,,,,,,,Space,keypress(Space),,,,,,,,---- -- ----- -- ------ - ------- --- ----------<br>------------- ------ ------ ---- ---- feeling ----- -- ----<br>-------- ------- -- ---------- --- - --- ----- ----- ----<br>---- --- --- ----- --- ---- ---- ------- ----- ---- -------<br>--- --- -- ----- -- --- ---- -- --- ---- -- ------ ------<br>--- ----- -- ----,140168.39000000618,140166.32499999832,139859.466,139864.545000004,139876.151,140176.481,,14,feeling
screen,html.Screen,2_1_0_1_15,2021-04-28T16:07:18.226Z,,,,,,,,,,,,,,,,,53,,,,,,,,,,,,,,293.894000004424,,response,,,,99,,,,,,,Space,keypress(Space),,,,,,,,---- -- ----- -- ------ - ------- --- ----------<br>------------- ------ ------ ---- ---- ------- close -- ----<br>-------- ------- -- ---------- --- - --- ----- ----- ----<br>---- --- --- ----- --- ---- ---- ------- ----- ---- -------<br>--- --- -- ----- -- --- ---- -- --- ---- -- ------ ------<br>--- ----- -- ----,140472.52500000468,140470.37500000442,140159.796,140168.47499999858,140176.481,140476.811,,15,close
screen,html.Screen,2_1_0_1_16,2021-04-28T16:07:18.545Z,,,,,,,,,,,,,,,,,53,,,,,,,,,,,,,,313.5389999956824,,response,,,,99,,,,,,,Space,keypress(Space),,,,,,,,---- -- ----- -- ------ - ------- --- ----------<br>------------- ------ ------ ---- ---- ------- ----- to ----<br>-------- ------- -- ---------- --- - --- ----- ----- ----<br>---- --- --- ----- --- ---- ---- ------- ----- ---- -------<br>--- --- -- ----- -- --- ---- -- --- ---- -- ------ ------<br>--- ----- -- ----,140792.47000000032,140790.34999999567,140460.126,140472.60000000824,140476.811,140793.826,,16,to
screen,html.Screen,2_1_0_1_17,2021-04-28T16:07:18.865Z,,,,,,,,,,,,,,,,,53,,,,,,,,,,,,,,316.4990000014659,,response,,,,99,,,,,,,Space,keypress(Space),,,,,,,,---- -- ----- -- ------ - ------- --- ----------<br>------------- ------ ------ ---- ---- ------- ----- -- your<br>-------- ------- -- ---------- --- - --- ----- ----- ----<br>---- --- --- ----- --- ---- ---- ------- ----- ---- -------<br>--- --- -- ----- -- --- ---- -- --- ---- -- ------ ------<br>--- ----- -- ----,141112.41499999596,141110.32500000147,140777.141,140792.5649999961,140793.826,141127.526,,17,your
screen,html.Screen,2_1_0_1_18,2021-04-28T16:07:19.217Z,,,,,,,,,,,,,,,,,53,,,,,,,,,,,,,,334.7239999968442,,response,,,,99,,,,,,,Space,keypress(Space),,,,,,,,---- -- ----- -- ------ - ------- --- ----------<br>------------- ------ ------ ---- ---- ------- ----- -- ----<br>romantic ------- -- ---------- --- - --- ----- ----- ----<br>---- --- --- ----- --- ---- ---- ------- ----- ---- -------<br>--- --- -- ----- -- --- ---- -- --- ---- -- ------ ------<br>--- ----- -- ----,141464.21499999997,141462.24999999686,141110.841,141112.51999999513,141127.526,141477.911,,18,romantic
screen,html.Screen,2_1_0_1_19,2021-04-28T16:07:19.545Z,,,,,,,,,,,,,,,,,53,,,,,,,,,,,,,,312.41900000345777,,response,,,,99,,,,,,,Space,keypress(Space),,,,,,,,---- -- ----- -- ------ - ------- --- ----------<br>------------- ------ ------ ---- ---- ------- ----- -- ----<br>-------- partner -- ---------- --- - --- ----- ----- ----<br>---- --- --- ----- --- ---- ---- ------- ----- ---- -------<br>--- --- -- ----- -- --- ---- -- --- ---- -- ------ ------<br>--- ----- -- ----,141792.36500000115,141790.33000000345,141461.226,141464.30999999575,141477.911,141794.926,,19,partner
screen,html.Screen,2_1_0_1_20,2021-04-28T16:07:19.857Z,,,,,,,,,,,,,,,,,53,,,,,,,,,,,,,,307.39400000541355,,response,,,,99,,,,,,,Space,keypress(Space),,,,,,,,---- -- ----- -- ------ - ------- --- ----------<br>------------- ------ ------ ---- ---- ------- ----- -- ----<br>-------- ------- is ---------- --- - --- ----- ----- ----<br>---- --- --- ----- --- ---- ---- ------- ----- ---- -------<br>--- --- -- ----- -- --- ---- -- --- ---- -- ------ ------<br>--- ----- -- ----,142104.48500000348,142102.32000000542,141778.241,141792.45500000252,141794.926,142111.941,,20,is
screen,html.Screen,2_1_0_1_21,2021-04-28T16:07:20.185Z,,,,,,,,,,,,,,,,,53,,,,,,,,,,,,,,318.3439999949187,,response,,,,99,,,,,,,Space,keypress(Space),,,,,,,,---- -- ----- -- ------ - ------- --- ----------<br>------------- ------ ------ ---- ---- ------- ----- -- ----<br>-------- ------- -- paramount. --- - --- ----- ----- ----<br>---- --- --- ----- --- ---- ---- ------- ----- ---- -------<br>--- --- -- ----- -- --- ---- -- --- ---- -- ------ ------<br>--- ----- -- ----,142432.2700000048,142430.2849999949,142095.256,142104.56000000704,142111.941,142445.641,,21,paramount.
screen,html.Screen,2_1_0_1_22,2021-04-28T16:07:20.881Z,,,,,,,,,,,,,,,,,53,,,,,,,,,,,,,,680.703999996942,,response,,,,99,,,,,,,Space,keypress(Space),,,,,,,,---- -- ----- -- ------ - ------- --- ----------<br>------------- ------ ------ ---- ---- ------- ----- -- ----<br>-------- ------- -- ---------- But - --- ----- ----- ----<br>---- --- --- ----- --- ---- ---- ------- ----- ---- -------<br>--- --- -- ----- -- --- ---- -- --- ---- -- ------ ------<br>--- ----- -- ----,143128.59000000753,143126.34499999695,142428.956,142432.3549999972,142445.641,143129.726,,22,But
screen,html.Screen,2_1_0_1_23,2021-04-28T16:07:21.233Z,,,,,,,,,,,,,,,,,53,,,,,,,,,,,,,,348.593999994715,,response,,,,99,,,,,,,Space,keypress(Space),,,,,,,,---- -- ----- -- ------ - ------- --- ----------<br>------------- ------ ------ ---- ---- ------- ----- -- ----<br>-------- ------- -- ---------- --- a --- ----- ----- ----<br>---- --- --- ----- --- ---- ---- ------- ----- ---- -------<br>--- --- -- ----- -- --- ---- -- --- ---- -- ------ ------<br>--- ----- -- ----,143480.48500000732,143478.3199999947,143113.041,143128.67499999993,143129.726,143496.796,,23,a
screen,html.Screen,2_1_0_1_24,2021-04-28T16:07:21.577Z,,,,,,,,,,,,,,,,,53,,,,,,,,,,,,,,325.514000003197,,response,,,,99,,,,,,,Space,keypress(Space),,,,,,,,---- -- ----- -- ------ - ------- --- ----------<br>------------- ------ ------ ---- ---- ------- ----- -- ----<br>-------- ------- -- ---------- --- - new ----- ----- ----<br>---- --- --- ----- --- ---- ---- ------- ----- ---- -------<br>--- --- -- ----- -- --- ---- -- --- ---- -- ------ ------<br>--- ----- -- ----,143824.64999999502,143822.3100000032,143480.111,143480.55999999633,143496.796,143830.496,,24,new
screen,html.Screen,2_1_0_1_25,2021-04-28T16:07:21.881Z,,,,,,,,,,,,,,,,,53,,,,,,,,,,,,,,295.8639999947336,,response,,,,99,,,,,,,Space,keypress(Space),,,,,,,,---- -- ----- -- ------ - ------- --- ----------<br>------------- ------ ------ ---- ---- ------- ----- -- ----<br>-------- ------- -- ---------- --- - --- study ----- ----<br>---- --- --- ----- --- ---- ---- ------- ----- ---- -------<br>--- --- -- ----- -- --- ---- -- --- ---- -- ------ ------<br>--- ----- -- ----,144128.40000000142,144126.35999999475,143813.811,143824.73999999638,143830.496,144130.826,,25,study
screen,html.Screen,2_1_0_1_26,2021-04-28T16:07:22.225Z,,,,,,,,,,,,,,,,,53,,,,,,,,,,,,,,339.5390000010375,,response,,,,99,,,,,,,Space,keypress(Space),,,,,,,,---- -- ----- -- ------ - ------- --- ----------<br>------------- ------ ------ ---- ---- ------- ----- -- ----<br>-------- ------- -- ---------- --- - --- ----- finds ----<br>---- --- --- ----- --- ---- ---- ------- ----- ---- -------<br>--- --- -- ----- -- --- ---- -- --- ---- -- ------ ------<br>--- ----- -- ----,144472.37499999756,144470.36500000104,144114.141,144128.5199999984,144130.826,144481.211,,26,finds
screen,html.Screen,2_1_0_1_27,2021-04-28T16:07:22.529Z,,,,,,,,,,,,,,,,,53,,,,,,,,,,,,,,293.13399999798276,,response,,,,99,,,,,,,Space,keypress(Space),,,,,,,,---- -- ----- -- ------ - ------- --- ----------<br>------------- ------ ------ ---- ---- ------- ----- -- ----<br>-------- ------- -- ---------- --- - --- ----- ----- that<br>---- --- --- ----- --- ---- ---- ------- ----- ---- -------<br>--- --- -- ----- -- --- ---- -- --- ---- -- ------ ------<br>--- ----- -- ----,144776.6249999986,144774.344999998,144464.526,144472.4700000079,144481.211,144781.541,,27,that
screen,html.Screen,2_1_0_1_28,2021-04-28T16:07:22.833Z,,,,,,,,,,,,,,,,,53,,,,,,,,,,,,,,296.83900000629365,,response,,,,99,,,,,,,Space,keypress(Space),,,,,,,,---- -- ----- -- ------ - ------- --- ----------<br>------------- ------ ------ ---- ---- ------- ----- -- ----<br>-------- ------- -- ---------- --- - --- ----- ----- ----<br>it's --- --- ----- --- ---- ---- ------- ----- ---- -------<br>--- --- -- ----- -- --- ---- -- --- ---- -- ------ ------<br>--- ----- -- ----,145080.4700000008,145078.3800000063,144764.856,144776.71999999438,144781.541,145081.871,,28,it's
screen,html.Screen,2_1_0_1_29,2021-04-28T16:07:23.129Z,,,,,,,,,,,,,,,,,53,,,,,,,,,,,,,,292.5039999994042,,response,,,,99,,,,,,,Space,keypress(Space),,,,,,,,---- -- ----- -- ------ - ------- --- ----------<br>------------- ------ ------ ---- ---- ------- ----- -- ----<br>-------- ------- -- ---------- --- - --- ----- ----- ----<br>---- not --- ----- --- ---- ---- ------- ----- ---- -------<br>--- --- -- ----- -- --- ---- -- --- ---- -- ------ ------<br>--- ----- -- ----,145376.44000000728,145374.37499999942,145065.186,145080.56499999657,145081.871,145382.398,,29,not
screen,html.Screen,2_1_0_1_30,2021-04-28T16:07:23.433Z,,,,,,,,,,,,,,,,,53,,,,,,,,,,,,,,295.96699999977136,,response,,,,99,,,,,,,Space,keypress(Space),,,,,,,,---- -- ----- -- ------ - ------- --- ----------<br>------------- ------ ------ ---- ---- ------- ----- -- ----<br>-------- ------- -- ---------- --- - --- ----- ----- ----<br>---- --- how ----- --- ---- ---- ------- ----- ---- -------<br>--- --- -- ----- -- --- ---- -- --- ---- -- ------ ------<br>--- ----- -- ----,145680.70500000613,145678.36499999976,145365.713,145376.53500000306,145382.398,145682.728,,30,how
screen,html.Screen,2_1_0_1_31,2021-04-28T16:07:23.737Z,,,,,,,,,,,,,,,,,53,,,,,,,,,,,,,,299.7020000036573,,response,,,,99,,,,,,,Space,keypress(Space),,,,,,,,---- -- ----- -- ------ - ------- --- ----------<br>------------- ------ ------ ---- ---- ------- ----- -- ----<br>-------- ------- -- ---------- --- - --- ----- ----- ----<br>---- --- --- close --- ---- ---- ------- ----- ---- -------<br>--- --- -- ----- -- --- ---- -- --- ---- -- ------ ------<br>--- ----- -- ----,145984.4449999946,145982.43000000366,145666.043,145680.8000000019,145682.728,145999.743,,31,close
screen,html.Screen,2_1_0_1_32,2021-04-28T16:07:24.033Z,,,,,,,,,,,,,,,,,53,,,,,,,,,,,,,,278.60199999882025,,response,,,,99,,,,,,,Space,keypress(Space),,,,,,,,---- -- ----- -- ------ - ------- --- ----------<br>------------- ------ ------ ---- ---- ------- ----- -- ----<br>-------- ------- -- ---------- --- - --- ----- ----- ----<br>---- --- --- ----- you ---- ---- ------- ----- ---- -------<br>--- --- -- ----- -- --- ---- -- --- ---- -- ------ ------<br>--- ----- -- ----,146280.73500000755,146278.3449999988,145983.058,145984.5500000083,145999.743,146283.388,,32,you
screen,html.Screen,2_1_0_1_33,2021-04-28T16:07:24.337Z,,,,,,,,,,,,,,,,,53,,,,,,,,,,,,,,299.0070000049018,,response,,,,99,,,,,,,Space,keypress(Space),,,,,,,,---- -- ----- -- ------ - ------- --- ----------<br>------------- ------ ------ ---- ---- ------- ----- -- ----<br>-------- ------- -- ---------- --- - --- ----- ----- ----<br>---- --- --- ----- --- feel ---- ------- ----- ---- -------<br>--- --- -- ----- -- --- ---- -- --- ---- -- ------ ------<br>--- ----- -- ----,146584.4700000016,146582.3950000049,146266.703,146280.83000000333,146283.388,146600.403,,33,feel
screen,html.Screen,2_1_0_1_34,2021-04-28T16:07:24.625Z,,,,,,,,,,,,,,,,,53,,,,,,,,,,,,,,269.921999996237,,response,,,,99,,,,,,,Space,keypress(Space),,,,,,,,---- -- ----- -- ------ - ------- --- ----------<br>------------- ------ ------ ---- ---- ------- ----- -- ----<br>-------- ------- -- ---------- --- - --- ----- ----- ----<br>---- --- --- ----- --- ---- that ------- ----- ---- -------<br>--- --- -- ----- -- --- ---- -- --- ---- -- ------ ------<br>--- ----- -- ----,146872.56499999785,146870.32499999623,146583.718,146585.9000000055,146600.403,146884.048,,34,that
screen,html.Screen,2_1_0_1_35,2021-04-28T16:07:24.897Z,,,,,,,,,,,,,,,,,53,,,,,,,,,,,,,,258.3170000069658,,response,,,,99,,,,,,,Space,keypress(Space),,,,,,,,---- -- ----- -- ------ - ------- --- ----------<br>------------- ------ ------ ---- ---- ------- ----- -- ----<br>-------- ------- -- ---------- --- - --- ----- ----- ----<br>---- --- --- ----- --- ---- ---- matters ----- ---- -------<br>--- --- -- ----- -- --- ---- -- --- ---- -- ------ ------<br>--- ----- -- ----,147144.51500000723,147142.36500000698,146867.363,146872.66000000818,146884.048,147151.008,,35,matters
screen,html.Screen,2_1_0_1_36,2021-04-28T16:07:25.201Z,,,,,,,,,,,,,,,,,53,,,,,,,,,,,,,,295.35699999614735,,response,,,,99,,,,,,,Space,keypress(Space),,,,,,,,"---- -- ----- -- ------ - ------- --- ----------<br>------------- ------ ------ ---- ---- ------- ----- -- ----<br>-------- ------- -- ---------- --- - --- ----- ----- ----<br>---- --- --- ----- --- ---- ---- ------- most, ---- -------<br>--- --- -- ----- -- --- ---- -- --- ---- -- ------ ------<br>--- ----- -- ----",147448.30000000366,147446.36499999615,147134.323,147144.9799999973,147151.008,147451.338,,36,"most,"
screen,html.Screen,2_1_0_1_37,2021-04-28T16:07:25.521Z,,,,,,,,,,,,,,,,,53,,,,,,,,,,,,,,315.04200000094716,,response,,,,99,,,,,,,Space,keypress(Space),,,,,,,,---- -- ----- -- ------ - ------- --- ----------<br>------------- ------ ------ ---- ---- ------- ----- -- ----<br>-------- ------- -- ---------- --- - --- ----- ----- ----<br>---- --- --- ----- --- ---- ---- ------- ----- it's -------<br>--- --- -- ----- -- --- ---- -- --- ---- -- ------ ------<br>--- ----- -- ----,147768.30999999947,147766.38000000094,147434.653,147448.39000000502,147451.338,147785.038,,37,it's
screen,html.Screen,2_1_0_1_38,2021-04-28T16:07:25.817Z,,,,,,,,,,,,,,,,,53,,,,,,,,,,,,,,277.3219999962603,,response,,,,99,,,,,,,Space,keypress(Space),,,,,,,,---- -- ----- -- ------ - ------- --- ----------<br>------------- ------ ------ ---- ---- ------- ----- -- ----<br>-------- ------- -- ---------- --- - --- ----- ----- ----<br>---- --- --- ----- --- ---- ---- ------- ----- ---- whether<br>--- --- -- ----- -- --- ---- -- --- ---- -- ------ ------<br>--- ----- -- ----,148064.34500000614,148062.35999999626,147768.353,147768.38500000304,147785.038,148068.683,,38,whether
screen,html.Screen,2_1_0_1_39,2021-04-28T16:07:26.121Z,,,,,,,,,,,,,,,,,53,,,,,,,,,,,,,,297.64199999542325,,response,,,,99,,,,,,,Space,keypress(Space),,,,,,,,---- -- ----- -- ------ - ------- --- ----------<br>------------- ------ ------ ---- ---- ------- ----- -- ----<br>-------- ------- -- ---------- --- - --- ----- ----- ----<br>---- --- --- ----- --- ---- ---- ------- ----- ---- -------<br>you --- -- ----- -- --- ---- -- --- ---- -- ------ ------<br>--- ----- -- ----,148368.3849999943,148366.3249999954,148051.998,148064.42500000412,148068.683,148369.013,,39,you
screen,html.Screen,2_1_0_1_40,2021-04-28T16:07:26.401Z,,,,,,,,,,,,,,,,,53,,,,,,,,,,,,,,277.3119999942428,,response,,,,99,,,,,,,Space,keypress(Space),,,,,,,,---- -- ----- -- ------ - ------- --- ----------<br>------------- ------ ------ ---- ---- ------- ----- -- ----<br>-------- ------- -- ---------- --- - --- ----- ----- ----<br>---- --- --- ----- --- ---- ---- ------- ----- ---- -------<br>--- are -- ----- -- --- ---- -- --- ---- -- ------ ------<br>--- ----- -- ----,148648.49000000686,148646.32499999425,148352.328,148368.45999999787,148369.013,148652.658,,40,are
screen,html.Screen,2_1_0_1_41,2021-04-28T16:07:26.689Z,,,,,,,,,,,,,,,,,53,,,,,,,,,,,,,,281.6570000058855,,response,,,,99,,,,,,,Space,keypress(Space),,,,,,,,---- -- ----- -- ------ - ------- --- ----------<br>------------- ------ ------ ---- ---- ------- ----- -- ----<br>-------- ------- -- ---------- --- - --- ----- ----- ----<br>---- --- --- ----- --- ---- ---- ------- ----- ---- -------<br>--- --- as ----- -- --- ---- -- --- ---- -- ------ ------<br>--- ----- -- ----,148936.394999997,148934.31500000588,148635.973,148648.57000000484,148652.658,148952.988,,41,as
screen,html.Screen,2_1_0_1_42,2021-04-28T16:07:27.001Z,,,,,,,,,,,,,,,,,53,,,,,,,,,,,,,,293.37699999904726,,response,,,,99,,,,,,,Space,keypress(Space),,,,,,,,---- -- ----- -- ------ - ------- --- ----------<br>------------- ------ ------ ---- ---- ------- ----- -- ----<br>-------- ------- -- ---------- --- - --- ----- ----- ----<br>---- --- --- ----- --- ---- ---- ------- ----- ---- -------<br>--- --- -- close -- --- ---- -- --- ---- -- ------ ------<br>--- ----- -- ----,149248.43000000692,149246.36499999906,148936.303,148936.47499999497,148952.988,149253.318,,42,close
screen,html.Screen,2_1_0_1_43,2021-04-28T16:07:27.369Z,,,,,,,,,,,,,,,,,53,,,,,,,,,,,,,,361.01199999669916,,response,,,,99,,,,,,,Space,keypress(Space),,,,,,,,---- -- ----- -- ------ - ------- --- ----------<br>------------- ------ ------ ---- ---- ------- ----- -- ----<br>-------- ------- -- ---------- --- - --- ----- ----- ----<br>---- --- --- ----- --- ---- ---- ------- ----- ---- -------<br>--- --- -- ----- as --- ---- -- --- ---- -- ------ ------<br>--- ----- -- ----,149616.44500000693,149614.3299999967,149236.633,149248.51499999932,149253.318,149620.388,,43,as
screen,html.Screen,2_1_0_1_44,2021-04-28T16:07:27.777Z,,,,,,,,,,,,,,,,,53,,,,,,,,,,,,,,401.9369999980845,,response,,,,99,,,,,,,Space,keypress(Space),,,,,,,,---- -- ----- -- ------ - ------- --- ----------<br>------------- ------ ------ ---- ---- ------- ----- -- ----<br>-------- ------- -- ---------- --- - --- ----- ----- ----<br>---- --- --- ----- --- ---- ---- ------- ----- ---- -------<br>--- --- -- ----- -- you ---- -- --- ---- -- ------ ------<br>--- ----- -- ----,150024.44000000833,150022.3249999981,149603.703,149616.5250000049,149620.388,150037.513,,44,you
screen,html.Screen,2_1_0_1_45,2021-04-28T16:07:28.113Z,,,,,,,,,,,,,,,,,53,,,,,,,,,,,,,,320.83200000054785,,response,,,,99,,,,,,,Space,keypress(Space),,,,,,,,---- -- ----- -- ------ - ------- --- ----------<br>------------- ------ ------ ---- ---- ------- ----- -- ----<br>-------- ------- -- ---------- --- - --- ----- ----- ----<br>---- --- --- ----- --- ---- ---- ------- ----- ---- -------<br>--- --- -- ----- -- --- want -- --- ---- -- ------ ------<br>--- ----- -- ----,150360.43000000063,150358.34500000055,150020.828,150024.51499999734,150037.513,150371.213,,45,want
screen,html.Screen,2_1_0_1_46,2021-04-28T16:07:28.417Z,,,,,,,,,,,,,,,,,53,,,,,,,,,,,,,,291.08699999633245,,response,,,,99,,,,,,,Space,keypress(Space),,,,,,,,---- -- ----- -- ------ - ------- --- ----------<br>------------- ------ ------ ---- ---- ------- ----- -- ----<br>-------- ------- -- ---------- --- - --- ----- ----- ----<br>---- --- --- ----- --- ---- ---- ------- ----- ---- -------<br>--- --- -- ----- -- --- ---- to --- ---- -- ------ ------<br>--- ----- -- ----,150664.25499999605,150662.29999999632,150354.528,150360.51500000758,150371.213,150671.543,,46,to
screen,html.Screen,2_1_0_1_47,2021-04-28T16:07:28.729Z,,,,,,,,,,,,,,,,,53,,,,,,,,,,,,,,302.8220000018482,,response,,,,99,,,,,,,Space,keypress(Space),,,,,,,,"---- -- ----- -- ------ - ------- --- ----------<br>------------- ------ ------ ---- ---- ------- ----- -- ----<br>-------- ------- -- ---------- --- - --- ----- ----- ----<br>---- --- --- ----- --- ---- ---- ------- ----- ---- -------<br>--- --- -- ----- -- --- ---- -- be, ---- -- ------ ------<br>--- ----- -- ----",150976.43999999855,150974.36500000185,150654.858,150664.33500000858,150671.543,150988.558,,47,"be,"
screen,html.Screen,2_1_0_1_48,2021-04-28T16:07:29.025Z,,,,,,,,,,,,,,,,,53,,,,,,,,,,,,,,281.8019999949902,,response,,,,99,,,,,,,Space,keypress(Space),,,,,,,,---- -- ----- -- ------ - ------- --- ----------<br>------------- ------ ------ ---- ---- ------- ----- -- ----<br>-------- ------- -- ---------- --- - --- ----- ----- ----<br>---- --- --- ----- --- ---- ---- ------- ----- ---- -------<br>--- --- -- ----- -- --- ---- -- --- even -- ------ ------<br>--- ----- -- ----,151272.5849999988,151270.35999999498,150971.873,150976.5150000021,150988.558,151288.888,,48,even
screen,html.Screen,2_1_0_1_49,2021-04-28T16:07:29.329Z,,,,,,,,,,,,,,,,,53,,,,,,,,,,,,,,285.4969999998866,,response,,,,99,,,,,,,Space,keypress(Space),,,,,,,,---- -- ----- -- ------ - ------- --- ----------<br>------------- ------ ------ ---- ---- ------- ----- -- ----<br>-------- ------- -- ---------- --- - --- ----- ----- ----<br>---- --- --- ----- --- ---- ---- ------- ----- ---- -------<br>--- --- -- ----- -- --- ---- -- --- ---- if ------ ------<br>--- ----- -- ----,151576.4199999976,151574.3849999999,151272.203,151272.66000000236,151288.888,151589.218,,49,if
screen,html.Screen,2_1_0_1_50,2021-04-28T16:07:29.609Z,,,,,,,,,,,,,,,,,53,,,,,,,,,,,,,,265.1419999975478,,response,,,,99,,,,,,,Space,keypress(Space),,,,,,,,---- -- ----- -- ------ - ------- --- ----------<br>------------- ------ ------ ---- ---- ------- ----- -- ----<br>-------- ------- -- ---------- --- - --- ----- ----- ----<br>---- --- --- ----- --- ---- ---- ------- ----- ---- -------<br>--- --- -- ----- -- --- ---- -- --- ---- -- that's ------<br>--- ----- -- ----,151856.455000001,151854.35999999754,151572.533,151576.49500000116,151589.218,151872.863,,50,that's
screen,html.Screen,2_1_0_1_51,2021-04-28T16:07:29.961Z,,,,,,,,,,,,,,,,,53,,,,,,,,,,,,,,333.5170000032522,,response,,,,99,,,,,,,Space,keypress(Space),,,,,,,,---- -- ----- -- ------ - ------- --- ----------<br>------------- ------ ------ ---- ---- ------- ----- -- ----<br>-------- ------- -- ---------- --- - --- ----- ----- ----<br>---- --- --- ----- --- ---- ---- ------- ----- ---- -------<br>--- --- -- ----- -- --- ---- -- --- ---- -- ------ really<br>--- ----- -- ----,152208.3500000008,152206.38000000326,151856.178,151856.53000000457,151872.863,152223.248,,51,really
screen,html.Screen,2_1_0_1_52,2021-04-28T16:07:30.313Z,,,,,,,,,,,,,,,,,53,,,,,,,,,,,,,,335.1119999954535,,response,,,,99,,,,,,,Space,keypress(Space),,,,,,,,---- -- ----- -- ------ - ------- --- ----------<br>------------- ------ ------ ---- ---- ------- ----- -- ----<br>-------- ------- -- ---------- --- - --- ----- ----- ----<br>---- --- --- ----- --- ---- ---- ------- ----- ---- -------<br>--- --- -- ----- -- --- ---- -- --- ---- -- ------ ------<br>not ----- -- ----,152560.5499999947,152558.35999999545,152206.563,152208.42500000435,152223.248,152573.633,,52,not
screen,html.Screen,2_1_0_1_53,2021-04-28T16:07:30.657Z,,,,,,,,,,,,,,,,,53,,,,,,,,,,,,,,328.6819999993604,,response,,,,99,,,,,,,Space,keypress(Space),,,,,,,,---- -- ----- -- ------ - ------- --- ----------<br>------------- ------ ------ ---- ---- ------- ----- -- ----<br>-------- ------- -- ---------- --- - --- ----- ----- ----<br>---- --- --- ----- --- ---- ---- ------- ----- ---- -------<br>--- --- -- ----- -- --- ---- -- --- ---- -- ------ ------<br>--- close -- ----,152904.41000000283,152902.31499999936,152556.948,152560.62000000384,152573.633,152907.333,,53,close
screen,html.Screen,2_1_0_1_54,2021-04-28T16:07:30.985Z,,,,,,,,,,,,,,,,,53,,,,,,,,,,,,,,323.0419999991718,,response,,,,99,,,,,,,Space,keypress(Space),,,,,,,,---- -- ----- -- ------ - ------- --- ----------<br>------------- ------ ------ ---- ---- ------- ----- -- ----<br>-------- ------- -- ---------- --- - --- ----- ----- ----<br>---- --- --- ----- --- ---- ---- ------- ----- ---- -------<br>--- --- -- ----- -- --- ---- -- --- ---- -- ------ ------<br>--- ----- at ----,153232.55000000063,153230.37499999919,152890.648,152904.4850000064,152907.333,153241.033,,54,at
screen,html.Screen,2_1_0_1_55,2021-04-28T16:07:31.553Z,,,,,,,,,,,,,,,,,53,,,,,,,,,,,,,,557.3319999951054,,response,,,,99,,,,,,,Space,keypress(Space),,,,,,,,---- -- ----- -- ------ - ------- --- ----------<br>------------- ------ ------ ---- ---- ------- ----- -- ----<br>-------- ------- -- ---------- --- - --- ----- ----- ----<br>---- --- --- ----- --- ---- ---- ------- ----- ---- -------<br>--- --- -- ----- -- --- ---- -- --- ---- -- ------ ------<br>--- ----- -- all.,153800.41500000516,153798.3649999951,153224.348,153232.65000000538,153241.033,153808.323,,55,all.
Item 99,flow.Loop,2_1_0_1,2021-04-28T16:07:31.553Z,,,,,,,,,,,,,,,,,,,,,,,,,,,,,,,19228.123999995092,,completion,,,,,A,,,,,,,,,,,silence,,,,,153800.5850000045,153798.3649999951,134553.556,134555.30000000726,134570.241,153808.323,,,
Question 1,html.Screen,2_1_0_2,2021-04-28T16:07:35.795Z,,,,,,,,,,,,,,,,,,,,,,,,,,,,false,FALSE,,4232.6820000064035,,response,,,,99,A,,,,,,TRUE,click #choice-1,,,,silence,,,,,158042.42500000692,158041.0050000064,153791.638,153800.6449999957,153808.323,158046.563,,,
Question 2,html.Screen,2_1_0_3,2021-04-28T16:07:39.462Z,,,,,,,,,,,,,,,,,,,,,,,,,,,,true,TRUE,,3662.0670000082755,,response,,,,99,A,,,,,,TRUE,click #choice-1,,,,silence,,,,,161710.0000000064,161708.63000000827,158029.878,158042.49999999593,158046.563,161717.263,,,
Item 99,flow.Sequence,2_1_0,2021-04-28T16:07:39.462Z,,,,,,,,,,,,,,,,,,,,,,,,,,,,,,,37133.045000008264,,completion,,,,,,,,,,,,,,,,,,,,,161710.11,161708.63000000827,124558.9,124572.5550000061,124575.585,161717.263,,,
Holding screen,html.Screen,2_1_1_0,2021-04-28T16:07:49.447Z,,,,,,,,,,,,,,,,,,,,,,,,,,,,,,,9994.478999999992,,timeout,,,,,,,,,,,,,,,,,,,,,171695.6449999998,171695.057,161700.578,161710.17999999458,161717.263,171711.742,,,
screen,html.Screen,2_1_1_1_0,2021-04-28T16:07:50.016Z,,,,,,,,,,,,,,,,,54,,,,,,,,,,,,,,550.4979999963834,,response,,,,100,,,,,,,Space,keypress(Space),,,,,,,,At --- ---- --- ------ ----- ------- ---- -- --- ------- --<br>------- ---------- ------ -- ----- -- ----- -- ---- ------<br>--- ----- --- --- ------ -------- ----- --- ------ ----- --<br>----- ----- ---------- --- --- ------ ------ ---- -- ------<br>------- --- ------ ----- --- ---- ------- -- ---- --- --<br>------- ------,172264.69999999972,172262.23999999638,171695.057,171695.75500000792,171711.742,172279.032,,0,At
screen,html.Screen,2_1_1_1_1,2021-04-28T16:07:50.384Z,,,,,,,,,,,,,,,,,54,,,,,,,,,,,,,,351.32799999555573,,response,,,,100,,,,,,,Space,keypress(Space),,,,,,,,-- the ---- --- ------ ----- ------- ---- -- --- ------- --<br>------- ---------- ------ -- ----- -- ----- -- ---- ------<br>--- ----- --- --- ------ -------- ----- --- ------ ----- --<br>----- ----- ---------- --- --- ------ ------ ---- -- ------<br>------- --- ------ ----- --- ---- ------- -- ---- --- --<br>------- ------,172632.44000000122,172630.35999999556,172262.347,172264.78500000667,172279.032,172646.102,,1,the
screen,html.Screen,2_1_1_1_2,2021-04-28T16:07:50.616Z,,,,,,,,,,,,,,,,,54,,,,,,,,,,,,,,216.24300000135554,,response,,,,100,,,,,,,Space,keypress(Space),,,,,,,,-- --- time --- ------ ----- ------- ---- -- --- ------- --<br>------- ---------- ------ -- ----- -- ----- -- ---- ------<br>--- ----- --- --- ------ -------- ----- --- ------ ----- --<br>----- ----- ---------- --- --- ------ ------ ---- -- ------<br>------- --- ------ ----- --- ---- ------- -- ---- --- --<br>------- ------,172864.47000000044,172862.34500000137,172629.417,172632.5150000048,172646.102,172879.692,,2,time
screen,html.Screen,2_1_1_1_3,2021-04-28T16:07:50.928Z,,,,,,,,,,,,,,,,,54,,,,,,,,,,,,,,294.6830000023183,,response,,,,100,,,,,,,Space,keypress(Space),,,,,,,,-- --- ---- the ------ ----- ------- ---- -- --- ------- --<br>------- ---------- ------ -- ----- -- ----- -- ---- ------<br>--- ----- --- --- ------ -------- ----- --- ------ ----- --<br>----- ----- ---------- --- --- ------ ------ ---- -- ------<br>------- --- ------ ----- --- ---- ------- -- ---- --- --<br>------- ------,173176.57999999938,173174.37500000233,172863.007,172864.54999999842,172879.692,173180.022,,3,the
screen,html.Screen,2_1_1_1_4,2021-04-28T16:07:51.232Z,,,,,,,,,,,,,,,,,54,,,,,,,,,,,,,,298.3329999992857,,response,,,,100,,,,,,,Space,keypress(Space),,,,,,,,-- --- ---- --- French ----- ------- ---- -- --- ------- --<br>------- ---------- ------ -- ----- -- ----- -- ---- ------<br>--- ----- --- --- ------ -------- ----- --- ------ ----- --<br>----- ----- ---------- --- --- ------ ------ ---- -- ------<br>------- --- ------ ----- --- ---- ------- -- ---- --- --<br>------- ------,173480.53499999514,173478.35499999928,173163.337,173176.65000000852,173180.022,173497.037,,4,French
screen,html.Screen,2_1_1_1_5,2021-04-28T16:07:51.504Z,,,,,,,,,,,,,,,,,54,,,,,,,,,,,,,,253.24300000746734,,response,,,,100,,,,,,,Space,keypress(Space),,,,,,,,-- --- ---- --- ------ crown ------- ---- -- --- ------- --<br>------- ---------- ------ -- ----- -- ----- -- ---- ------<br>--- ----- --- --- ------ -------- ----- --- ------ ----- --<br>----- ----- ---------- --- --- ------ ------ ---- -- ------<br>------- --- ------ ----- --- ---- ------- -- ---- --- --<br>------- ------,173752.34000000637,173750.28000000748,173480.352,173480.6050000043,173497.037,173763.997,,5,crown
screen,html.Screen,2_1_1_1_6,2021-04-28T16:07:51.848Z,,,,,,,,,,,,,,,,,54,,,,,,,,,,,,,,330.35800000836025,,response,,,,100,,,,,,,Space,keypress(Space),,,,,,,,-- --- ---- --- ------ ----- secured ---- -- --- ------- --<br>------- ---------- ------ -- ----- -- ----- -- ---- ------<br>--- ----- --- --- ------ -------- ----- --- ------ ----- --<br>----- ----- ---------- --- --- ------ ------ ---- -- ------<br>------- --- ------ ----- --- ---- ------- -- ---- --- --<br>------- ------,174096.44999999728,174094.35500000836,173747.312,173752.41000000096,173763.997,174097.697,,6,secured
screen,html.Screen,2_1_1_1_7,2021-04-28T16:07:52.184Z,,,,,,,,,,,,,,,,,54,,,,,,,,,,,,,,332.66299999848707,,response,,,,100,,,,,,,Space,keypress(Space),,,,,,,,-- --- ---- --- ------ ----- ------- much -- --- ------- --<br>------- ---------- ------ -- ----- -- ----- -- ---- ------<br>--- ----- --- --- ------ -------- ----- --- ------ ----- --<br>----- ----- ---------- --- --- ------ ------ ---- -- ------<br>------- --- ------ ----- --- ---- ------- -- ---- --- --<br>------- ------,174432.41999999736,174430.35999999847,174081.012,174096.52000000642,174097.697,174448.082,,7,much
screen,html.Screen,2_1_1_1_8,2021-04-28T16:07:52.480Z,,,,,,,,,,,,,,,,,54,,,,,,,,,,,,,,278.22300000378164,,response,,,,100,,,,,,,Space,keypress(Space),,,,,,,,-- --- ---- --- ------ ----- ------- ---- of --- ------- --<br>------- ---------- ------ -- ----- -- ----- -- ---- ------<br>--- ----- --- --- ------ -------- ----- --- ------ ----- --<br>----- ----- ---------- --- --- ------ ------ ---- -- ------<br>------- --- ------ ----- --- ---- ------- -- ---- --- --<br>------- ------,174728.47000000183,174726.30500000378,174431.397,174432.49500000093,174448.082,174731.727,,8,of
screen,html.Screen,2_1_1_1_9,2021-04-28T16:07:52.824Z,,,,,,,,,,,,,,,,,54,,,,,,,,,,,,,,338.64799999567913,,response,,,,100,,,,,,,Space,keypress(Space),,,,,,,,-- --- ---- --- ------ ----- ------- ---- -- its ------- --<br>------- ---------- ------ -- ----- -- ----- -- ---- ------<br>--- ----- --- --- ------ -------- ----- --- ------ ----- --<br>----- ----- ---------- --- --- ------ ------ ---- -- ------<br>------- --- ------ ----- --- ---- ------- -- ---- --- --<br>------- ------,175072.48499999696,175070.3749999957,174715.042,174728.99000000325,174731.727,175082.112,,9,its
screen,html.Screen,2_1_1_1_10,2021-04-28T16:07:53.120Z,,,,,,,,,,,,,,,,,54,,,,,,,,,,,,,,284.14799999524257,,response,,,,100,,,,,,,Space,keypress(Space),,,,,,,,-- --- ---- --- ------ ----- ------- ---- -- --- revenue --<br>------- ---------- ------ -- ----- -- ----- -- ---- ------<br>--- ----- --- --- ------ -------- ----- --- ------ ----- --<br>----- ----- ---------- --- --- ------ ------ ---- -- ------<br>------- --- ------ ----- --- ---- ------- -- ---- --- --<br>------- ------,175368.71999999858,175366.25999999524,175065.427,175072.56000000052,175082.112,175382.442,,10,revenue
screen,html.Screen,2_1_1_1_11,2021-04-28T16:07:53.464Z,,,,,,,,,,,,,,,,,54,,,,,,,,,,,,,,327.9029999994964,,response,,,,100,,,,,,,Space,keypress(Space),,,,,,,,-- --- ---- --- ------ ----- ------- ---- -- --- ------- by<br>------- ---------- ------ -- ----- -- ----- -- ---- ------<br>--- ----- --- --- ------ -------- ----- --- ------ ----- --<br>----- ----- ---------- --- --- ------ ------ ---- -- ------<br>------- --- ------ ----- --- ---- ------- -- ---- --- --<br>------- ------,175712.3350000038,175710.3449999995,175365.757,175368.80999999994,175382.442,175716.142,,11,by
screen,html.Screen,2_1_1_1_12,2021-04-28T16:07:53.760Z,,,,,,,,,,,,,,,,,54,,,,,,,,,,,,,,290.03799999668263,,response,,,,100,,,,,,,Space,keypress(Space),,,,,,,,-- --- ---- --- ------ ----- ------- ---- -- --- ------- --<br>issuing ---------- ------ -- ----- -- ----- -- ---- ------<br>--- ----- --- --- ------ -------- ----- --- ------ ----- --<br>----- ----- ---------- --- --- ------ ------ ---- -- ------<br>------- --- ------ ----- --- ---- ------- -- ---- --- --<br>------- ------,176008.06999999622,176006.17999999668,175699.457,175712.41500000178,175716.142,176016.472,,12,issuing
screen,html.Screen,2_1_1_1_13,2021-04-28T16:07:54.080Z,,,,,,,,,,,,,,,,,54,,,,,,,,,,,,,,309.9079999985988,,response,,,,100,,,,,,,Space,keypress(Space),,,,,,,,-- --- ---- --- ------ ----- ------- ---- -- --- ------- --<br>------- government ------ -- ----- -- ----- -- ---- ------<br>--- ----- --- --- ------ -------- ----- --- ------ ----- --<br>----- ----- ---------- --- --- ------ ------ ---- -- ------<br>------- --- ------ ----- --- ---- ------- -- ---- --- --<br>------- ------,176328.45000000088,176326.3799999986,175999.787,176008.18499999878,176016.472,176333.487,,13,government
screen,html.Screen,2_1_1_1_14,2021-04-28T16:07:54.424Z,,,,,,,,,,,,,,,,,54,,,,,,,,,,,,,,336.8129999979574,,response,,,,100,,,,,,,Space,keypress(Space),,,,,,,,-- --- ---- --- ------ ----- ------- ---- -- --- ------- --<br>------- ---------- bonds. -- ----- -- ----- -- ---- ------<br>--- ----- --- --- ------ -------- ----- --- ------ ----- --<br>----- ----- ---------- --- --- ------ ------ ---- -- ------<br>------- --- ------ ----- --- ---- ------- -- ---- --- --<br>------- ------,176672.31999999785,176670.29999999795,176316.802,176328.52500000445,176333.487,176684.134,,14,bonds.
screen,html.Screen,2_1_1_1_15,2021-04-28T16:07:54.952Z,,,,,,,,,,,,,,,,,54,,,,,,,,,,,,,,514.1459999968938,,response,,,,100,,,,,,,Space,keypress(Space),,,,,,,,-- --- ---- --- ------ ----- ------- ---- -- --- ------- --<br>------- ---------- ------ In ----- -- ----- -- ---- ------<br>--- ----- --- --- ------ -------- ----- --- ------ ----- --<br>----- ----- ---------- --- --- ------ ------ ---- -- ------<br>------- --- ------ ----- --- ---- ------- -- ---- --- --<br>------- ------,177200.28499999898,177198.27999999688,176667.449,176672.390000007,176684.134,177201.369,,15,In
screen,html.Screen,2_1_1_1_16,2021-04-28T16:07:55.272Z,,,,,,,,,,,,,,,,,54,,,,,,,,,,,,,,316.9510000028531,,response,,,,100,,,,,,,Space,keypress(Space),,,,,,,,"-- --- ---- --- ------ ----- ------- ---- -- --- ------- --<br>------- ---------- ------ -- 1727, -- ----- -- ---- ------<br>--- ----- --- --- ------ -------- ----- --- ------ ----- --<br>----- ----- ---------- --- --- ------ ------ ---- -- ------<br>------- --- ------ ----- --- ---- ------- -- ---- --- --<br>------- ------",177520.42000000074,177518.32000000286,177184.684,177200.35500000813,177201.369,177535.069,,16,"1727,"
screen,html.Screen,2_1_1_1_17,2021-04-28T16:07:55.664Z,,,,,,,,,,,,,,,,,54,,,,,,,,,,,,,,375.29600000337814,,response,,,,100,,,,,,,Space,keypress(Space),,,,,,,,-- --- ---- --- ------ ----- ------- ---- -- --- ------- --<br>------- ---------- ------ -- ----- in ----- -- ---- ------<br>--- ----- --- --- ------ -------- ----- --- ------ ----- --<br>----- ----- ---------- --- --- ------ ------ ---- -- ------<br>------- --- ------ ----- --- ---- ------- -- ---- --- --<br>------- ------,177912.40000000107,177910.36500000337,177518.384,177520.4950000043,177535.069,177918.824,,17,in
screen,html.Screen,2_1_1_1_18,2021-04-28T16:07:56.032Z,,,,,,,,,,,,,,,,,54,,,,,,,,,,,,,,359.4309999974503,,response,,,,100,,,,,,,Space,keypress(Space),,,,,,,,-- --- ---- --- ------ ----- ------- ---- -- --- ------- --<br>------- ---------- ------ -- ----- -- order -- ---- ------<br>--- ----- --- --- ------ -------- ----- --- ------ ----- --<br>----- ----- ---------- --- --- ------ ------ ---- -- ------<br>------- --- ------ ----- --- ---- ------- -- ---- --- --<br>------- ------,178280.24999999616,178278.25499999744,177902.139,177912.47999999905,177918.824,178285.894,,18,order
screen,html.Screen,2_1_1_1_19,2021-04-28T16:07:56.560Z,,,,,,,,,,,,,,,,,54,,,,,,,,,,,,,,520.4110000055225,,response,,,,100,,,,,,,Space,keypress(Space),,,,,,,,-- --- ---- --- ------ ----- ------- ---- -- --- ------- --<br>------- ---------- ------ -- ----- -- ----- to ---- ------<br>--- ----- --- --- ------ -------- ----- --- ------ ----- --<br>----- ----- ---------- --- --- ------ ------ ---- -- ------<br>------- --- ------ ----- --- ---- ------- -- ---- --- --<br>------- ------,178808.29000000085,178806.30500000552,178269.209,178280.3200000053,178285.894,178819.814,,19,to
screen,html.Screen,2_1_1_1_20,2021-04-28T16:07:57.016Z,,,,,,,,,,,,,,,,,54,,,,,,,,,,,,,,442.51599999773316,,response,,,,100,,,,,,,Space,keypress(Space),,,,,,,,-- --- ---- --- ------ ----- ------- ---- -- --- ------- --<br>------- ---------- ------ -- ----- -- ----- -- save ------<br>--- ----- --- --- ------ -------- ----- --- ------ ----- --<br>----- ----- ---------- --- --- ------ ------ ---- -- ------<br>------- --- ------ ----- --- ---- ------- -- ---- --- --<br>------- ------,179264.519999997,179262.32999999775,178803.129,178808.3650000044,178819.814,179270.309,,20,save
screen,html.Screen,2_1_1_1_21,2021-04-28T16:07:57.336Z,,,,,,,,,,,,,,,,,54,,,,,,,,,,,,,,312.065999998129,,response,,,,100,,,,,,,Space,keypress(Space),,,,,,,,"-- --- ---- --- ------ ----- ------- ---- -- --- ------- --<br>------- ---------- ------ -- ----- -- ----- -- ---- money,<br>--- ----- --- --- ------ -------- ----- --- ------ ----- --<br>----- ----- ---------- --- --- ------ ------ ---- -- ------<br>------- --- ------ ----- --- ---- ------- -- ---- --- --<br>------- ------",179584.35000000463,179582.37499999814,179253.624,179264.59500000055,179270.309,179587.324,,21,"money,"
screen,html.Screen,2_1_1_1_22,2021-04-28T16:07:57.632Z,,,,,,,,,,,,,,,,,54,,,,,,,,,,,,,,291.0310000080208,,response,,,,100,,,,,,,Space,keypress(Space),,,,,,,,-- --- ---- --- ------ ----- ------- ---- -- --- ------- --<br>------- ---------- ------ -- ----- -- ----- -- ---- ------<br>the ----- --- --- ------ -------- ----- --- ------ ----- --<br>----- ----- ---------- --- --- ------ ------ ---- -- ------<br>------- --- ------ ----- --- ---- ------- -- ---- --- --<br>------- ------,179880.4700000037,179878.355000008,179570.639,179584.4300000026,179587.324,179887.654,,22,the
screen,html.Screen,2_1_1_1_23,2021-04-28T16:07:57.944Z,,,,,,,,,,,,,,,,,54,,,,,,,,,,,,,,302.7210000055784,,response,,,,100,,,,,,,Space,keypress(Space),,,,,,,,-- --- ---- --- ------ ----- ------- ---- -- --- ------- --<br>------- ---------- ------ -- ----- -- ----- -- ---- ------<br>--- state --- --- ------ -------- ----- --- ------ ----- --<br>----- ----- ---------- --- --- ------ ------ ---- -- ------<br>------- --- ------ ----- --- ---- ------- -- ---- --- --<br>------- ------,180192.4949999957,180190.3750000056,179870.969,179880.55000000168,179887.654,180204.669,,23,state
screen,html.Screen,2_1_1_1_24,2021-04-28T16:07:58.288Z,,,,,,,,,,,,,,,,,54,,,,,,,,,,,,,,329.6910000051139,,response,,,,100,,,,,,,Space,keypress(Space),,,,,,,,-- --- ---- --- ------ ----- ------- ---- -- --- ------- --<br>------- ---------- ------ -- ----- -- ----- -- ---- ------<br>--- ----- cut --- ------ -------- ----- --- ------ ----- --<br>----- ----- ---------- --- --- ------ ------ ---- -- ------<br>------- --- ------ ----- --- ---- ------- -- ---- --- --<br>------- ------,180536.43000000739,180534.3600000051,180187.984,180192.56999999925,180204.669,180538.369,,24,cut
screen,html.Screen,2_1_1_1_25,2021-04-28T16:07:58.640Z,,,,,,,,,,,,,,,,,54,,,,,,,,,,,,,,347.99599999847123,,response,,,,100,,,,,,,Space,keypress(Space),,,,,,,,-- --- ---- --- ------ ----- ------- ---- -- --- ------- --<br>------- ---------- ------ -- ----- -- ----- -- ---- ------<br>--- ----- --- the ------ -------- ----- --- ------ ----- --<br>----- ----- ---------- --- --- ------ ------ ---- -- ------<br>------- --- ------ ----- --- ---- ------- -- ---- --- --<br>------- ------,180888.5600000067,180886.36499999848,180521.684,180536.51000000536,180538.369,180905.439,,25,the
screen,html.Screen,2_1_1_1_26,2021-04-28T16:07:58.952Z,,,,,,,,,,,,,,,,,54,,,,,,,,,,,,,,292.916000000434,,response,,,,100,,,,,,,Space,keypress(Space),,,,,,,,-- --- ---- --- ------ ----- ------- ---- -- --- ------- --<br>------- ---------- ------ -- ----- -- ----- -- ---- ------<br>--- ----- --- --- bonds' -------- ----- --- ------ ----- --<br>----- ----- ---------- --- --- ------ ------ ---- -- ------<br>------- --- ------ ----- --- ---- ------- -- ---- --- --<br>------- ------,181200.67500000005,181198.35500000045,180888.754,180888.63000000129,180905.439,181205.769,,26,bonds'
screen,html.Screen,2_1_1_1_27,2021-04-28T16:07:59.280Z,,,,,,,,,,,,,,,,,54,,,,,,,,,,,,,,320.55599999890546,,response,,,,100,,,,,,,Space,keypress(Space),,,,,,,,-- --- ---- --- ------ ----- ------- ---- -- --- ------- --<br>------- ---------- ------ -- ----- -- ----- -- ---- ------<br>--- ----- --- --- ------ interest ----- --- ------ ----- --<br>----- ----- ---------- --- --- ------ ------ ---- -- ------<br>------- --- ------ ----- --- ---- ------- -- ---- --- --<br>------- ------,181528.3999999956,181526.3249999989,181189.084,181200.7500000036,181205.769,181539.469,,27,interest
screen,html.Screen,2_1_1_1_28,2021-04-28T16:07:59.592Z,,,,,,,,,,,,,,,,,54,,,,,,,,,,,,,,298.9110000010405,,response,,,,100,,,,,,,Space,keypress(Space),,,,,,,,-- --- ---- --- ------ ----- ------- ---- -- --- ------- --<br>------- ---------- ------ -- ----- -- ----- -- ---- ------<br>--- ----- --- --- ------ -------- rate. --- ------ ----- --<br>----- ----- ---------- --- --- ------ ------ ---- -- ------<br>------- --- ------ ----- --- ---- ------- -- ---- --- --<br>------- ------,181840.47999999893,181838.38000000105,181522.784,181528.48000000813,181539.469,181856.484,,28,rate.
screen,html.Screen,2_1_1_1_29,2021-04-28T16:07:59.920Z,,,,,,,,,,,,,,,,,54,,,,,,,,,,,,,,309.8809999973164,,response,,,,100,,,,,,,Space,keypress(Space),,,,,,,,-- --- ---- --- ------ ----- ------- ---- -- --- ------- --<br>------- ---------- ------ -- ----- -- ----- -- ---- ------<br>--- ----- --- --- ------ -------- ----- The ------ ----- --<br>----- ----- ---------- --- --- ------ ------ ---- -- ------<br>------- --- ------ ----- --- ---- ------- -- ---- --- --<br>------- ------,182168.35999999603,182166.3649999973,181839.799,181840.56500000588,181856.484,182173.499,,29,The
screen,html.Screen,2_1_1_1_30,2021-04-28T16:08:00.239Z,,,,,,,,,,,,,,,,,54,,,,,,,,,,,,,,312.7159999971627,,response,,,,100,,,,,,,Space,keypress(Space),,,,,,,,-- --- ---- --- ------ ----- ------- ---- -- --- ------- --<br>------- ---------- ------ -- ----- -- ----- -- ---- ------<br>--- ----- --- --- ------ -------- ----- --- market ----- --<br>----- ----- ---------- --- --- ------ ------ ---- -- ------<br>------- --- ------ ----- --- ---- ------- -- ---- --- --<br>------- ------,182488.18000000028,182486.21499999717,182156.814,182168.4349999996,182173.499,182490.514,,30,market
screen,html.Screen,2_1_1_1_31,2021-04-28T16:08:00.536Z,,,,,,,,,,,,,,,,,54,,,,,,,,,,,,,,291.86600000420003,,response,,,,100,,,,,,,Space,keypress(Space),,,,,,,,-- --- ---- --- ------ ----- ------- ---- -- --- ------- --<br>------- ---------- ------ -- ----- -- ----- -- ---- ------<br>--- ----- --- --- ------ -------- ----- --- ------ value --<br>----- ----- ---------- --- --- ------ ------ ---- -- ------<br>------- --- ------ ----- --- ---- ------- -- ---- --- --<br>------- ------,182784.4550000009,182782.3800000042,182473.829,182488.25999999826,182490.514,182790.844,,31,value
screen,html.Screen,2_1_1_1_32,2021-04-28T16:08:00.840Z,,,,,,,,,,,,,,,,,54,,,,,,,,,,,,,,295.4009999985865,,response,,,,100,,,,,,,Space,keypress(Space),,,,,,,,-- --- ---- --- ------ ----- ------- ---- -- --- ------- --<br>------- ---------- ------ -- ----- -- ----- -- ---- ------<br>--- ----- --- --- ------ -------- ----- --- ------ ----- of<br>----- ----- ---------- --- --- ------ ------ ---- -- ------<br>------- --- ------ ----- --- ---- ------- -- ---- --- --<br>------- ------,183088.4400000068,183086.2449999986,182774.159,182784.53000000445,182790.844,183091.174,,32,of
screen,html.Screen,2_1_1_1_33,2021-04-28T16:08:01.127Z,,,,,,,,,,,,,,,,,54,,,,,,,,,,,,,,283.01600000227336,,response,,,,100,,,,,,,Space,keypress(Space),,,,,,,,-- --- ---- --- ------ ----- ------- ---- -- --- ------- --<br>------- ---------- ------ -- ----- -- ----- -- ---- ------<br>--- ----- --- --- ------ -------- ----- --- ------ ----- --<br>these ----- ---------- --- --- ------ ------ ---- -- ------<br>------- --- ------ ----- --- ---- ------- -- ---- --- --<br>------- ------,183375.93500000366,183374.19000000227,183074.489,183088.51499999582,183091.174,183391.504,,33,these
screen,html.Screen,2_1_1_1_34,2021-04-28T16:08:01.432Z,,,,,,,,,,,,,,,,,54,,,,,,,,,,,,,,286.86600000874023,,response,,,,100,,,,,,,Space,keypress(Space),,,,,,,,-- --- ---- --- ------ ----- ------- ---- -- --- ------- --<br>------- ---------- ------ -- ----- -- ----- -- ---- ------<br>--- ----- --- --- ------ -------- ----- --- ------ ----- --<br>----- bonds ---------- --- --- ------ ------ ---- -- ------<br>------- --- ------ ----- --- ---- ------- -- ---- --- --<br>------- ------,183680.46000000322,183678.37000000873,183374.819,183376.02500000503,183391.504,183691.834,,34,bonds
screen,html.Screen,2_1_1_1_35,2021-04-28T16:08:01.752Z,,,,,,,,,,,,,,,,,54,,,,,,,,,,,,,,306.52100000335486,,response,,,,100,,,,,,,Space,keypress(Space),,,,,,,,"-- --- ---- --- ------ ----- ------- ---- -- --- ------- --<br>------- ---------- ------ -- ----- -- ----- -- ---- ------<br>--- ----- --- --- ------ -------- ----- --- ------ ----- --<br>----- ----- plummeted, --- --- ------ ------ ---- -- ------<br>------- --- ------ ----- --- ---- ------- -- ---- --- --<br>------- ------",184000.40499999886,183998.35500000336,183675.149,183680.5500000046,183691.834,184008.849,,35,"plummeted,"
screen,html.Screen,2_1_1_1_36,2021-04-28T16:08:02.048Z,,,,,,,,,,,,,,,,,54,,,,,,,,,,,,,,285.4710000008927,,response,,,,100,,,,,,,Space,keypress(Space),,,,,,,,-- --- ---- --- ------ ----- ------- ---- -- --- ------- --<br>------- ---------- ------ -- ----- -- ----- -- ---- ------<br>--- ----- --- --- ------ -------- ----- --- ------ ----- --<br>----- ----- ---------- and --- ------ ------ ---- -- ------<br>------- --- ------ ----- --- ---- ------- -- ---- --- --<br>------- ------,184296.5200000035,184294.32000000088,183992.164,184000.475000008,184008.849,184309.179,,36,and
screen,html.Screen,2_1_1_1_37,2021-04-28T16:08:02.376Z,,,,,,,,,,,,,,,,,54,,,,,,,,,,,,,,313.1810000084806,,response,,,,100,,,,,,,Space,keypress(Space),,,,,,,,-- --- ---- --- ------ ----- ------- ---- -- --- ------- --<br>------- ---------- ------ -- ----- -- ----- -- ---- ------<br>--- ----- --- --- ------ -------- ----- --- ------ ----- --<br>----- ----- ---------- --- the ------ ------ ---- -- ------<br>------- --- ------ ----- --- ---- ------- -- ---- --- --<br>------- ------,184624.40499999502,184622.36000000848,184292.494,184296.59500000707,184309.179,184626.194,,37,the
screen,html.Screen,2_1_1_1_38,2021-04-28T16:08:02.656Z,,,,,,,,,,,,,,,,,54,,,,,,,,,,,,,,276.12099999937345,,response,,,,100,,,,,,,Space,keypress(Space),,,,,,,,-- --- ---- --- ------ ----- ------- ---- -- --- ------- --<br>------- ---------- ------ -- ----- -- ----- -- ---- ------<br>--- ----- --- --- ------ -------- ----- --- ------ ----- --<br>----- ----- ---------- --- --- market ------ ---- -- ------<br>------- --- ------ ----- --- ---- ------- -- ---- --- --<br>------- ------,184904.4450000074,184902.31499999936,184609.509,184624.47500000417,184626.194,184909.839,,38,market
screen,html.Screen,2_1_1_1_39,2021-04-28T16:08:02.943Z,,,,,,,,,,,,,,,,,54,,,,,,,,,,,,,,280.4560000076017,,response,,,,100,,,,,,,Space,keypress(Space),,,,,,,,-- --- ---- --- ------ ----- ------- ---- -- --- ------- --<br>------- ---------- ------ -- ----- -- ----- -- ---- ------<br>--- ----- --- --- ------ -------- ----- --- ------ ----- --<br>----- ----- ---------- --- --- ------ became ---- -- ------<br>------- --- ------ ----- --- ---- ------- -- ---- --- --<br>------- ------,185192.1650000004,185190.2950000076,184893.154,184904.5199999964,184909.839,185193.484,,39,became
screen,html.Screen,2_1_1_1_40,2021-04-28T16:08:03.280Z,,,,,,,,,,,,,,,,,54,,,,,,,,,,,,,,332.88099999789847,,response,,,,100,,,,,,,Space,keypress(Space),,,,,,,,-- --- ---- --- ------ ----- ------- ---- -- --- ------- --<br>------- ---------- ------ -- ----- -- ----- -- ---- ------<br>--- ----- --- --- ------ -------- ----- --- ------ ----- --<br>----- ----- ---------- --- --- ------ ------ wary -- ------<br>------- --- ------ ----- --- ---- ------- -- ---- --- --<br>------- ------,185528.37,185526.3649999979,185176.799,185192.24499999837,185193.484,185543.869,,40,wary
screen,html.Screen,2_1_1_1_41,2021-04-28T16:08:03.592Z,,,,,,,,,,,,,,,,,54,,,,,,,,,,,,,,294.500999997661,,response,,,,100,,,,,,,Space,keypress(Space),,,,,,,,-- --- ---- --- ------ ----- ------- ---- -- --- ------- --<br>------- ---------- ------ -- ----- -- ----- -- ---- ------<br>--- ----- --- --- ------ -------- ----- --- ------ ----- --<br>----- ----- ---------- --- --- ------ ------ ---- of ------<br>------- --- ------ ----- --- ---- ------- -- ---- --- --<br>------- ------,185840.51999999792,185838.36999999767,185527.184,185528.44999999797,185543.869,185844.199,,41,of
screen,html.Screen,2_1_1_1_42,2021-04-28T16:08:03.904Z,,,,,,,,,,,,,,,,,54,,,,,,,,,,,,,,306.1759999974456,,response,,,,100,,,,,,,Space,keypress(Space),,,,,,,,-- --- ---- --- ------ ----- ------- ---- -- --- ------- --<br>------- ---------- ------ -- ----- -- ----- -- ---- ------<br>--- ----- --- --- ------ -------- ----- --- ------ ----- --<br>----- ----- ---------- --- --- ------ ------ ---- -- French<br>------- --- ------ ----- --- ---- ------- -- ---- --- --<br>------- ------,186152.4650000065,186150.37499999744,185827.514,185840.5950000015,185844.199,186161.214,,42,French
screen,html.Screen,2_1_1_1_43,2021-04-28T16:08:04.224Z,,,,,,,,,,,,,,,,,54,,,,,,,,,,,,,,309.1460000066145,,response,,,,100,,,,,,,Space,keypress(Space),,,,,,,,-- --- ---- --- ------ ----- ------- ---- -- --- ------- --<br>------- ---------- ------ -- ----- -- ----- -- ---- ------<br>--- ----- --- --- ------ -------- ----- --- ------ ----- --<br>----- ----- ---------- --- --- ------ ------ ---- -- ------<br>credit. --- ------ ----- --- ---- ------- -- ---- --- --<br>------- ------,186472.58000000147,186470.36000000662,186144.529,186152.53500000108,186161.214,186478.229,,43,credit.
screen,html.Screen,2_1_1_1_44,2021-04-28T16:08:04.543Z,,,,,,,,,,,,,,,,,54,,,,,,,,,,,,,,312.1309999990626,,response,,,,100,,,,,,,Space,keypress(Space),,,,,,,,-- --- ---- --- ------ ----- ------- ---- -- --- ------- --<br>------- ---------- ------ -- ----- -- ----- -- ---- ------<br>--- ----- --- --- ------ -------- ----- --- ------ ----- --<br>----- ----- ---------- --- --- ------ ------ ---- -- ------<br>------- The ------ ----- --- ---- ------- -- ---- --- --<br>------- ------,186792.35499999777,186790.35999999905,186461.544,186472.65500000503,186478.229,186795.397,,44,The
screen,html.Screen,2_1_1_1_45,2021-04-28T16:08:04.847Z,,,,,,,,,,,,,,,,,54,,,,,,,,,,,,,,298.97300000616815,,response,,,,100,,,,,,,Space,keypress(Space),,,,,,,,-- --- ---- --- ------ ----- ------- ---- -- --- ------- --<br>------- ---------- ------ -- ----- -- ----- -- ---- ------<br>--- ----- --- --- ------ -------- ----- --- ------ ----- --<br>----- ----- ---------- --- --- ------ ------ ---- -- ------<br>------- --- French ----- --- ---- ------- -- ---- --- --<br>------- ------,187096.27999999793,187094.37000000617,186778.712,186792.43499999575,186795.397,187112.412,,45,French
screen,html.Screen,2_1_1_1_46,2021-04-28T16:08:05.152Z,,,,,,,,,,,,,,,,,54,,,,,,,,,,,,,,285.97300000768155,,response,,,,100,,,,,,,Space,keypress(Space),,,,,,,,-- --- ---- --- ------ ----- ------- ---- -- --- ------- --<br>------- ---------- ------ -- ----- -- ----- -- ---- ------<br>--- ----- --- --- ------ -------- ----- --- ------ ----- --<br>----- ----- ---------- --- --- ------ ------ ---- -- ------<br>------- --- ------ state --- ---- ------- -- ---- --- --<br>------- ------,187400.55000000575,187398.3850000077,187095.727,187096.3599999959,187112.412,187412.742,,46,state
screen,html.Screen,2_1_1_1_47,2021-04-28T16:08:05.471Z,,,,,,,,,,,,,,,,,54,,,,,,,,,,,,,,305.60799999555456,,response,,,,100,,,,,,,Space,keypress(Space),,,,,,,,-- --- ---- --- ------ ----- ------- ---- -- --- ------- --<br>------- ---------- ------ -- ----- -- ----- -- ---- ------<br>--- ----- --- --- ------ -------- ----- --- ------ ----- --<br>----- ----- ---------- --- --- ------ ------ ---- -- ------<br>------- --- ------ ----- was ---- ------- -- ---- --- --<br>------- ------,187720.43000000122,187718.34999999555,187396.057,187400.62499999476,187412.742,187729.757,,47,was
screen,html.Screen,2_1_1_1_48,2021-04-28T16:08:05.768Z,,,,,,,,,,,,,,,,,54,,,,,,,,,,,,,,284.5630000020319,,response,,,,100,,,,,,,Space,keypress(Space),,,,,,,,-- --- ---- --- ------ ----- ------- ---- -- --- ------- --<br>------- ---------- ------ -- ----- -- ----- -- ---- ------<br>--- ----- --- --- ------ -------- ----- --- ------ ----- --<br>----- ----- ---------- --- --- ------ ------ ---- -- ------<br>------- --- ------ ----- --- left ------- -- ---- --- --<br>------- ------,188016.4800000057,188014.32000000204,187713.072,187720.4999999958,187729.757,188030.087,,48,left
screen,html.Screen,2_1_1_1_49,2021-04-28T16:08:06.071Z,,,,,,,,,,,,,,,,,54,,,,,,,,,,,,,,288.23800000018673,,response,,,,100,,,,,,,Space,keypress(Space),,,,,,,,-- --- ---- --- ------ ----- ------- ---- -- --- ------- --<br>------- ---------- ------ -- ----- -- ----- -- ---- ------<br>--- ----- --- --- ------ -------- ----- --- ------ ----- --<br>----- ----- ---------- --- --- ------ ------ ---- -- ------<br>------- --- ------ ----- --- ---- without -- ---- --- --<br>------- ------,188320.3300000023,188318.3250000002,188013.402,188016.5549999947,188030.087,188330.417,,49,without
screen,html.Screen,2_1_1_1_50,2021-04-28T16:08:06.376Z,,,,,,,,,,,,,,,,,54,,,,,,,,,,,,,,291.94800000291434,,response,,,,100,,,,,,,Space,keypress(Space),,,,,,,,-- --- ---- --- ------ ----- ------- ---- -- --- ------- --<br>------- ---------- ------ -- ----- -- ----- -- ---- ------<br>--- ----- --- --- ------ -------- ----- --- ------ ----- --<br>----- ----- ---------- --- --- ------ ------ ---- -- ------<br>------- --- ------ ----- --- ---- ------- an ---- --- --<br>------- ------,188624.47999999858,188622.3650000029,188313.732,188320.40500000585,188330.417,188630.747,,50,an
screen,html.Screen,2_1_1_1_51,2021-04-28T16:08:06.671Z,,,,,,,,,,,,,,,,,54,,,,,,,,,,,,,,287.62299999941024,,response,,,,100,,,,,,,Space,keypress(Space),,,,,,,,-- --- ---- --- ------ ----- ------- ---- -- --- ------- --<br>------- ---------- ------ -- ----- -- ----- -- ---- ------<br>--- ----- --- --- ------ -------- ----- --- ------ ----- --<br>----- ----- ---------- --- --- ------ ------ ---- -- ------<br>------- --- ------ ----- --- ---- ------- -- easy --- --<br>------- ------,188920.39500000828,188918.3699999994,188614.062,188624.55500000215,188630.747,188931.077,,51,easy
screen,html.Screen,2_1_1_1_52,2021-04-28T16:08:06.967Z,,,,,,,,,,,,,,,,,54,,,,,,,,,,,,,,283.3030000049039,,response,,,,100,,,,,,,Space,keypress(Space),,,,,,,,-- --- ---- --- ------ ----- ------- ---- -- --- ------- --<br>------- ---------- ------ -- ----- -- ----- -- ---- ------<br>--- ----- --- --- ------ -------- ----- --- ------ ----- --<br>----- ----- ---------- --- --- ------ ------ ---- -- ------<br>------- --- ------ ----- --- ---- ------- -- ---- way --<br>------- ------,189216.4550000016,189214.3800000049,188914.392,188920.47500000626,188931.077,189231.407,,52,way
screen,html.Screen,2_1_1_1_53,2021-04-28T16:08:07.287Z,,,,,,,,,,,,,,,,,54,,,,,,,,,,,,,,302.8829999959562,,response,,,,100,,,,,,,Space,keypress(Space),,,,,,,,-- --- ---- --- ------ ----- ------- ---- -- --- ------- --<br>------- ---------- ------ -- ----- -- ----- -- ---- ------<br>--- ----- --- --- ------ -------- ----- --- ------ ----- --<br>----- ----- ---------- --- --- ------ ------ ---- -- ------<br>------- --- ------ ----- --- ---- ------- -- ---- --- of<br>------- ------,189536.43000000739,189534.28999999596,189214.722,189216.53000000515,189231.407,189548.422,,53,of
screen,html.Screen,2_1_1_1_54,2021-04-28T16:08:07.631Z,,,,,,,,,,,,,,,,,54,,,,,,,,,,,,,,329.89800000344985,,response,,,,100,,,,,,,Space,keypress(Space),,,,,,,,-- --- ---- --- ------ ----- ------- ---- -- --- ------- --<br>------- ---------- ------ -- ----- -- ----- -- ---- ------<br>--- ----- --- --- ------ -------- ----- --- ------ ----- --<br>----- ----- ---------- --- --- ------ ------ ---- -- ------<br>------- --- ------ ----- --- ---- ------- -- ---- --- --<br>raising ------,189880.38499999675,189878.32000000344,189531.737,189536.50000000198,189548.422,189882.122,,54,raising
screen,html.Screen,2_1_1_1_55,2021-04-28T16:08:07.976Z,,,,,,,,,,,,,,,,,54,,,,,,,,,,,,,,340.28800000212505,,response,,,,100,,,,,,,Space,keypress(Space),,,,,,,,-- --- ---- --- ------ ----- ------- ---- -- --- ------- --<br>------- ---------- ------ -- ----- -- ----- -- ---- ------<br>--- ----- --- --- ------ -------- ----- --- ------ ----- --<br>----- ----- ---------- --- --- ------ ------ ---- -- ------<br>------- --- ------ ----- --- ---- ------- -- ---- --- --<br>------- money.,190224.61499999918,190222.41000000213,189865.437,189880.4550000059,189882.122,190232.507,,55,money.
Item 100,flow.Loop,2_1_1_1,2021-04-28T16:08:07.976Z,,,,,,,,,,,,,,,,,,,,,,,,,,,,,,,18510.66800000213,,completion,,,,,A,,,,,,,,,,,silence,,,,,190224.74499999953,190222.41000000213,171695.057,171695.73000000673,171711.742,190232.507,,,
Question 1,html.Screen,2_1_1_2,2021-04-28T16:08:10.738Z,,,,,,,,,,,,,,,,,,,,,,,,,,,,true,TRUE,,2752.6730000032985,,response,,,,100,A,,,,,,TRUE,click #choice-1,,,,silence,,,,,192986.77000000316,192985.1800000033,190215.822,190224.8050000053,190232.507,193002.217,,,
Question 2,html.Screen,2_1_1_3,2021-04-28T16:08:12.841Z,,,,,,,,,,,,,,,,,,,,,,,,,,,,true,FALSE,,2086.9329999997863,,response,,,,100,A,,,,,,FALSE,click #choice-2,,,,silence,,,,,195090.5300000013,195089.1499999998,192985.532,192986.83999999776,193002.217,195104.527,,,
Item 100,flow.Sequence,2_1_1,2021-04-28T16:08:12.841Z,,,,,,,,,,,,,,,,,,,,,,,,,,,,,,,33371.886999999784,,completion,,,,,,,,,,,,,,,,,,,,,195090.63500000047,195089.1499999998,161700.578,161710.16000000236,161717.263,195104.527,,,
End of Practice,html.Page,2_1_2,2021-04-28T16:08:17.949Z,,,,,,,,,,,,,,,,,,,,,,,,,,,,,,,5093.873000008403,,form submission,,,,,,,,,,,,,,,,,,,,,200198.56000000436,200198.4000000084,195087.842,195090.68999999727,195104.527,200210.32,,,
Practice,flow.Sequence,2_1,2021-04-28T16:08:17.949Z,,,,,,,,,,,,,,,,,,,,,,,,,,,,,,,75622.8150000084,,completion,,,,,,,,,,,,,,,,,,,,,200198.66999999795,200198.4000000084,124558.9,124572.53000000492,124575.585,200210.32,,,
Trap_instruction,html.Page,2_2_0,2021-04-28T16:08:22.179Z,,,,,,,,,,,,,,,,,,,,,,,,,,,,,,,4218.229999996896,,form submission,,,,,,,,,,,,,,,,,,,,,204428.71999999625,204428.5499999969,200193.635,200198.73499999812,200210.32,204431.625,,,
trap_trial,html.Screen,2_2_1,2021-04-28T16:08:25.419Z,,,,,,,,,,,,,,,,,,,,,,,,,,,,true,1,,3235.7250000033528,,response,,,,,,,,,,,1,click #choice-1,,,,,,,,,207668.7499999971,207667.35000000335,204414.94,204428.78499999642,204431.625,207685.2,,,
end of trap trial,html.Page,2_2_2,2021-04-28T16:08:28.119Z,,,,,,,,,,,,,,,,,,,,,,,,,,,,,,,2683.8849999984377,,form submission,,,,,,,,,,,,,,,,,,,,,210369.24,210369.08499999845,207668.515,207668.82999999507,207685.2,210371.485,,,
Trap 1,flow.Sequence,2_2,2021-04-28T16:08:28.119Z,,,,,,,,,,,,,,,,,,,,,,,,,,,,,,,10158.764999998442,,completion,,,,,,,,,,,,,,,,,,,,,210369.34000000474,210369.08499999845,200193.635,200198.7150000059,200210.32,210371.485,,,
Standby,html.Page,2_3_0,2021-04-28T16:08:36.099Z,,,,,,,,,,,,,,,,,,,,,,,,,,,,,,,7992.262000000017,,timeout,,,,,,,,,,,,,,,,,,,,,218349.589999998,218347.062,210354.8,210369.39999999595,210371.485,218363.747,,,
Holding screen,html.Screen,2_3_1_0_0,2021-04-28T16:08:43.107Z,,,,,,,,,,,,,,,,,,,,,,,,,,,,,,,7007.864999999991,,timeout,,,,,,,,,,,,,,,,,,,,,225357.44000000705,225354.927,218347.062,218349.71999999834,218363.747,225371.612,,,
screen,html.Screen,2_3_1_0_1_0,2021-04-28T16:08:44.143Z,,,,,,,,,,,,,,,,,15,,,,,,,,,,,,,,1018.6930000080902,,response,,,,7,A,,,,,,Space,keypress(Space),,,,silence,,,,Greg --------- ---------- - --- ------- -- --- ------------<br>----- -- -------- ------- ---- ------ - -------- ---- -----<br>--- ------- ---- -- --- -------- --- - ----- ------ ---- --<br>-------- --- -------- -------- --- -------- ---- -- ----- -<br>-------- ---- --- ---------- --------- -- ------- ------ -<br>--------- ----- -----,226393.1850000081,226390.30500000808,225354.927,225357.55499999505,225371.612,226406.082,,0,Greg
screen,html.Screen,2_3_1_0_1_1,2021-04-28T16:08:44.574Z,,,,,,,,,,,,,,,,,15,,,,,,,,,,,,,,416.2380000065896,,response,,,,7,A,,,,,,Space,keypress(Space),,,,silence,,,,"---- Anderson, ---------- - --- ------- -- --- ------------<br>----- -- -------- ------- ---- ------ - -------- ---- -----<br>--- ------- ---- -- --- -------- --- - ----- ------ ---- --<br>-------- --- -------- -------- --- -------- ---- -- ----- -<br>-------- ---- --- ---------- --------- -- ------- ------ -<br>--------- ----- -----",226824.47999999567,226822.32000000658,226389.397,226393.2749999949,226406.082,226839.892,,1,"Anderson,"
screen,html.Screen,2_3_1_0_1_2,2021-04-28T16:08:44.966Z,,,,,,,,,,,,,,,,,15,,,,,,,,,,,,,,374.3279999943916,,response,,,,7,A,,,,,,Space,keypress(Space),,,,silence,,,,---- --------- considered - --- ------- -- --- ------------<br>----- -- -------- ------- ---- ------ - -------- ---- -----<br>--- ------- ---- -- --- -------- --- - ----- ------ ---- --<br>-------- --- -------- -------- --- -------- ---- -- ----- -<br>-------- ---- --- ---------- --------- -- ------- ------ -<br>--------- ----- -----,227216.2399999943,227214.21999999438,226823.207,226824.55000000482,226839.892,227223.647,,2,considered
screen,html.Screen,2_3_1_0_1_3,2021-04-28T16:08:45.286Z,,,,,,,,,,,,,,,,,15,,,,,,,,,,,,,,310.6780000005383,,response,,,,7,A,,,,,,Space,keypress(Space),,,,silence,,,,---- --------- ---------- a --- ------- -- --- ------------<br>----- -- -------- ------- ---- ------ - -------- ---- -----<br>--- ------- ---- -- --- -------- --- - ----- ------ ---- --<br>-------- --- -------- -------- --- -------- ---- -- ----- -<br>-------- ---- --- ---------- --------- -- ------- ------ -<br>--------- ----- -----,227536.51499999978,227534.32500000054,227206.962,227216.31000000343,227223.647,227540.662,,3,a
screen,html.Screen,2_3_1_0_1_4,2021-04-28T16:08:45.598Z,,,,,,,,,,,,,,,,,15,,,,,,,,,,,,,,305.6979999959003,,response,,,,7,A,,,,,,Space,keypress(Space),,,,silence,,,,---- --------- ---------- - key ------- -- --- ------------<br>----- -- -------- ------- ---- ------ - -------- ---- -----<br>--- ------- ---- -- --- -------- --- - ----- ------ ---- --<br>-------- --- -------- -------- --- -------- ---- -- ----- -<br>-------- ---- --- ---------- --------- -- ------- ------ -<br>--------- ----- -----,227848.3450000058,227846.3599999959,227523.977,227536.59499999776,227540.662,227857.677,,4,key
screen,html.Screen,2_3_1_0_1_5,2021-04-28T16:08:45.902Z,,,,,,,,,,,,,,,,,15,,,,,,,,,,,,,,292.70300000641146,,response,,,,7,A,,,,,,Space,keypress(Space),,,,silence,,,,---- --------- ---------- - --- witness -- --- ------------<br>----- -- -------- ------- ---- ------ - -------- ---- -----<br>--- ------- ---- -- --- -------- --- - ----- ------ ---- --<br>-------- --- -------- -------- --- -------- ---- -- ----- -<br>-------- ---- --- ---------- --------- -- ------- ------ -<br>--------- ----- -----,228152.44499999972,228150.3800000064,227840.992,227848.4150000004,227857.677,228158.007,,5,witness
screen,html.Screen,2_3_1_0_1_6,2021-04-28T16:08:46.246Z,,,,,,,,,,,,,,,,,15,,,,,,,,,,,,,,336.3529999969469,,response,,,,7,A,,,,,,Space,keypress(Space),,,,silence,,,,---- --------- ---------- - --- ------- by --- ------------<br>----- -- -------- ------- ---- ------ - -------- ---- -----<br>--- ------- ---- -- --- -------- --- - ----- ------ ---- --<br>-------- --- -------- -------- --- -------- ---- -- ----- -<br>-------- ---- --- ---------- --------- -- ------- ------ -<br>--------- ----- -----,228496.46999999823,228494.35999999696,228141.322,228152.5149999943,228158.007,228508.392,,6,by
screen,html.Screen,2_3_1_0_1_7,2021-04-28T16:08:46.558Z,,,,,,,,,,,,,,,,,15,,,,,,,,,,,,,,297.98300000012387,,response,,,,7,A,,,,,,Space,keypress(Space),,,,silence,,,,---- --------- ---------- - --- ------- -- the ------------<br>----- -- -------- ------- ---- ------ - -------- ---- -----<br>--- ------- ---- -- --- -------- --- - ----- ------ ---- --<br>-------- --- -------- -------- --- -------- ---- -- ----- -<br>-------- ---- --- ---------- --------- -- ------- ------ -<br>--------- ----- -----,228808.48000000697,228806.37500000012,228491.707,228496.5450000018,228508.392,228825.407,,7,the
screen,html.Screen,2_3_1_0_1_8,2021-04-28T16:08:46.846Z,,,,,,,,,,,,,,,,,15,,,,,,,,,,,,,,268.96300000615884,,response,,,,7,A,,,,,,Space,keypress(Space),,,,silence,,,,"---- --------- ---------- - --- ------- -- --- prosecution,<br>----- -- -------- ------- ---- ------ - -------- ---- -----<br>--- ------- ---- -- --- -------- --- - ----- ------ ---- --<br>-------- --- -------- -------- --- -------- ---- -- ----- -<br>-------- ---- --- ---------- --------- -- ------- ------ -<br>--------- ----- -----",229096.4099999983,229094.37000000617,228808.722,228808.56000000495,228825.407,229109.052,,8,"prosecution,"
screen,html.Screen,2_3_1_0_1_9,2021-04-28T16:08:47.174Z,,,,,,,,,,,,,,,,,15,,,,,,,,,,,,,,313.28299999565934,,response,,,,7,A,,,,,,Space,keypress(Space),,,,silence,,,,---- --------- ---------- - --- ------- -- --- ------------<br>vowed -- -------- ------- ---- ------ - -------- ---- -----<br>--- ------- ---- -- --- -------- --- - ----- ------ ---- --<br>-------- --- -------- -------- --- -------- ---- -- ----- -<br>-------- ---- --- ---------- --------- -- ------- ------ -<br>--------- ----- -----,229424.39499999455,229422.33499999566,229092.367,229096.48500000185,229109.052,229426.067,,9,vowed
screen,html.Screen,2_3_1_0_1_10,2021-04-28T16:08:47.486Z,,,,,,,,,,,,,,,,,15,,,,,,,,,,,,,,308.2329999964277,,response,,,,7,A,,,,,,Space,keypress(Space),,,,silence,,,,---- --------- ---------- - --- ------- -- --- ------------<br>----- he -------- ------- ---- ------ - -------- ---- -----<br>--- ------- ---- -- --- -------- --- - ----- ------ ---- --<br>-------- --- -------- -------- --- -------- ---- -- ----- -<br>-------- ---- --- ---------- --------- -- ------- ------ -<br>--------- ----- -----,229736.3900000055,229734.29999999644,229409.382,229424.49000000488,229426.067,229743.082,,10,he
screen,html.Screen,2_3_1_0_1_11,2021-04-28T16:08:47.806Z,,,,,,,,,,,,,,,,,15,,,,,,,,,,,,,,311.2830000036047,,response,,,,7,A,,,,,,Space,keypress(Space),,,,silence,,,,---- --------- ---------- - --- ------- -- --- ------------<br>----- -- wouldn't ------- ---- ------ - -------- ---- -----<br>--- ------- ---- -- --- -------- --- - ----- ------ ---- --<br>-------- --- -------- -------- --- -------- ---- -- ----- -<br>-------- ---- --- ---------- --------- -- ------- ------ -<br>--------- ----- -----,230056.6850000032,230054.3650000036,229726.397,229736.4649999945,229743.082,230060.097,,11,wouldn't
screen,html.Screen,2_3_1_0_1_12,2021-04-28T16:08:48.118Z,,,,,,,,,,,,,,,,,15,,,,,,,,,,,,,,306.153000006394,,response,,,,7,A,,,,,,Space,keypress(Space),,,,silence,,,,---- --------- ---------- - --- ------- -- --- ------------<br>----- -- -------- testify ---- ------ - -------- ---- -----<br>--- ------- ---- -- --- -------- --- - ----- ------ ---- --<br>-------- --- -------- -------- --- -------- ---- -- ----- -<br>-------- ---- --- ---------- --------- -- ------- ------ -<br>--------- ----- -----,230368.20500000613,230366.2500000064,230043.412,230056.76000000676,230060.097,230377.112,,12,testify
screen,html.Screen,2_3_1_0_1_13,2021-04-28T16:08:48.462Z,,,,,,,,,,,,,,,,,15,,,,,,,,,,,,,,333.2530000062834,,response,,,,7,A,,,,,,Space,keypress(Space),,,,silence,,,,---- --------- ---------- - --- ------- -- --- ------------<br>----- -- -------- ------- when ------ - -------- ---- -----<br>--- ------- ---- -- --- -------- --- - ----- ------ ---- --<br>-------- --- -------- -------- --- -------- ---- -- ----- -<br>-------- ---- --- ---------- --------- -- ------- ------ -<br>--------- ----- -----,230712.56499999436,230710.36500000628,230360.427,230368.28999999852,230377.112,230727.497,,13,when
screen,html.Screen,2_3_1_0_1_14,2021-04-28T16:08:48.782Z,,,,,,,,,,,,,,,,,15,,,,,,,,,,,,,,302.82300000530086,,response,,,,7,A,,,,,,Space,keypress(Space),,,,silence,,,,---- --------- ---------- - --- ------- -- --- ------------<br>----- -- -------- ------- ---- served - -------- ---- -----<br>--- ------- ---- -- --- -------- --- - ----- ------ ---- --<br>-------- --- -------- -------- --- -------- ---- -- ----- -<br>-------- ---- --- ---------- --------- -- ------- ------ -<br>--------- ----- -----,231032.3849999986,231030.3200000053,230710.812,230712.62999999453,230727.497,231044.512,,14,served
screen,html.Screen,2_3_1_0_1_15,2021-04-28T16:08:49.118Z,,,,,,,,,,,,,,,,,15,,,,,,,,,,,,,,321.8580000033835,,response,,,,7,A,,,,,,Space,keypress(Space),,,,silence,,,,---- --------- ---------- - --- ------- -- --- ------------<br>----- -- -------- ------- ---- ------ a -------- ---- -----<br>--- ------- ---- -- --- -------- --- - ----- ------ ---- --<br>-------- --- -------- -------- --- -------- ---- -- ----- -<br>-------- ---- --- ---------- --------- -- ------- ------ -<br>--------- ----- -----,231368.40500000108,231366.37000000337,231027.827,231032.53500000574,231044.512,231378.414,,15,a
screen,html.Screen,2_3_1_0_1_16,2021-04-28T16:08:49.454Z,,,,,,,,,,,,,,,,,15,,,,,,,,,,,,,,323.9610000080429,,response,,,,7,A,,,,,,Space,keypress(Space),,,,silence,,,,---- --------- ---------- - --- ------- -- --- ------------<br>----- -- -------- ------- ---- ------ - subpoena ---- -----<br>--- ------- ---- -- --- -------- --- - ----- ------ ---- --<br>-------- --- -------- -------- --- -------- ---- -- ----- -<br>-------- ---- --- ---------- --------- -- ------- ------ -<br>--------- ----- -----,231704.41000000574,231702.37500000803,231361.729,231368.48499999905,231378.414,231712.114,,16,subpoena
screen,html.Screen,2_3_1_0_1_17,2021-04-28T16:08:49.838Z,,,,,,,,,,,,,,,,,15,,,,,,,,,,,,,,374.25600000453414,,response,,,,7,A,,,,,,Space,keypress(Space),,,,silence,,,,---- --------- ---------- - --- ------- -- --- ------------<br>----- -- -------- ------- ---- ------ - -------- last -----<br>--- ------- ---- -- --- -------- --- - ----- ------ ---- --<br>-------- --- -------- -------- --- -------- ---- -- ----- -<br>-------- ---- --- ---------- --------- -- ------- ------ -<br>--------- ----- -----,232088.47000000242,232086.37000000454,231695.429,231704.48000000033,231712.114,232095.869,,17,last
screen,html.Screen,2_3_1_0_1_18,2021-04-28T16:08:50.158Z,,,,,,,,,,,,,,,,,15,,,,,,,,,,,,,,310.3760000055772,,response,,,,7,A,,,,,,Space,keypress(Space),,,,silence,,,,---- --------- ---------- - --- ------- -- --- ------------<br>----- -- -------- ------- ---- ------ - -------- ---- week.<br>--- ------- ---- -- --- -------- --- - ----- ------ ---- --<br>-------- --- -------- -------- --- -------- ---- -- ----- -<br>-------- ---- --- ---------- --------- -- ------- ------ -<br>--------- ----- -----,232408.45000000263,232406.24500000558,232079.184,232088.54500000598,232095.869,232412.884,,18,week.
screen,html.Screen,2_3_1_0_1_19,2021-04-28T16:08:50.598Z,,,,,,,,,,,,,,,,,15,,,,,,,,,,,,,,433.3510000045353,,response,,,,7,A,,,,,,Space,keypress(Space),,,,silence,,,,---- --------- ---------- - --- ------- -- --- ------------<br>----- -- -------- ------- ---- ------ - -------- ---- -----<br>His ------- ---- -- --- -------- --- - ----- ------ ---- --<br>-------- --- -------- -------- --- -------- ---- -- ----- -<br>-------- ---- --- ---------- --------- -- ------- ------ -<br>--------- ----- -----,232848.27499999665,232846.23500000453,232396.199,232408.5250000062,232412.884,232863.379,,19,His
screen,html.Screen,2_3_1_0_1_20,2021-04-28T16:08:50.942Z,,,,,,,,,,,,,,,,,15,,,,,,,,,,,,,,326.97599999883096,,response,,,,7,A,,,,,,Space,keypress(Space),,,,silence,,,,---- --------- ---------- - --- ------- -- --- ------------<br>----- -- -------- ------- ---- ------ - -------- ---- -----<br>--- lawyers ---- -- --- -------- --- - ----- ------ ---- --<br>-------- --- -------- -------- --- -------- ---- -- ----- -<br>-------- ---- --- ---------- --------- -- ------- ------ -<br>--------- ----- -----,233192.40499999432,233190.35499999882,232846.694,232848.3500000002,232863.379,233197.079,,20,lawyers
screen,html.Screen,2_3_1_0_1_21,2021-04-28T16:08:51.270Z,,,,,,,,,,,,,,,,,15,,,,,,,,,,,,,,321.24100000286126,,response,,,,7,A,,,,,,Space,keypress(Space),,,,silence,,,,---- --------- ---------- - --- ------- -- --- ------------<br>----- -- -------- ------- ---- ------ - -------- ---- -----<br>--- ------- said -- --- -------- --- - ----- ------ ---- --<br>-------- --- -------- -------- --- -------- ---- -- ----- -<br>-------- ---- --- ---------- --------- -- ------- ------ -<br>--------- ----- -----,233520.32500000496,233518.32000000286,233180.394,233192.47500000347,233197.079,233530.779,,21,said
screen,html.Screen,2_3_1_0_1_22,2021-04-28T16:08:51.606Z,,,,,,,,,,,,,,,,,15,,,,,,,,,,,,,,323.63599999432336,,response,,,,7,A,,,,,,Space,keypress(Space),,,,silence,,,,---- --------- ---------- - --- ------- -- --- ------------<br>----- -- -------- ------- ---- ------ - -------- ---- -----<br>--- ------- ---- he --- -------- --- - ----- ------ ---- --<br>-------- --- -------- -------- --- -------- ---- -- ----- -<br>-------- ---- --- ---------- --------- -- ------- ------ -<br>--------- ----- -----,233856.4250000054,233854.41499999433,233514.094,233520.39499999955,233530.779,233864.479,,22,he
screen,html.Screen,2_3_1_0_1_23,2021-04-28T16:08:51.886Z,,,,,,,,,,,,,,,,,15,,,,,,,,,,,,,,269.87600000196835,,response,,,,7,A,,,,,,Space,keypress(Space),,,,silence,,,,---- --------- ---------- - --- ------- -- --- ------------<br>----- -- -------- ------- ---- ------ - -------- ---- -----<br>--- ------- ---- -- was -------- --- - ----- ------ ---- --<br>-------- --- -------- -------- --- -------- ---- -- ----- -<br>-------- ---- --- ---------- --------- -- ------- ------ -<br>--------- ----- -----,234136.5000000078,234134.35500000196,233847.794,233856.4999999944,233864.479,234148.124,,23,was
screen,html.Screen,2_3_1_0_1_24,2021-04-28T16:08:52.157Z,,,,,,,,,,,,,,,,,15,,,,,,,,,,,,,,258.10099999880185,,response,,,,7,A,,,,,,Space,keypress(Space),,,,silence,,,,---- --------- ---------- - --- ------- -- --- ------------<br>----- -- -------- ------- ---- ------ - -------- ---- -----<br>--- ------- ---- -- --- prepared --- - ----- ------ ---- --<br>-------- --- -------- -------- --- -------- ---- -- ----- -<br>-------- ---- --- ---------- --------- -- ------- ------ -<br>--------- ----- -----,234408.15499999735,234406.2249999988,234131.439,234136.5749999968,234148.124,234415.084,,24,prepared
screen,html.Screen,2_3_1_0_1_25,2021-04-28T16:08:52.486Z,,,,,,,,,,,,,,,,,15,,,,,,,,,,,,,,319.27600000219536,,response,,,,7,A,,,,,,Space,keypress(Space),,,,silence,,,,---- --------- ---------- - --- ------- -- --- ------------<br>----- -- -------- ------- ---- ------ - -------- ---- -----<br>--- ------- ---- -- --- -------- for - ----- ------ ---- --<br>-------- --- -------- -------- --- -------- ---- -- ----- -<br>-------- ---- --- ---------- --------- -- ------- ------ -<br>--------- ----- -----,234736.4249999955,234734.3600000022,234398.399,234408.2300000009,234415.084,234748.784,,25,for
screen,html.Screen,2_3_1_0_1_26,2021-04-28T16:08:52.854Z,,,,,,,,,,,,,,,,,15,,,,,,,,,,,,,,353.6160000033851,,response,,,,7,A,,,,,,Space,keypress(Space),,,,silence,,,,---- --------- ---------- - --- ------- -- --- ------------<br>----- -- -------- ------- ---- ------ - -------- ---- -----<br>--- ------- ---- -- --- -------- --- a ----- ------ ---- --<br>-------- --- -------- -------- --- -------- ---- -- ----- -<br>-------- ---- --- ---------- --------- -- ------- ------ -<br>--------- ----- -----,235104.4450000045,235102.4000000034,234732.099,234736.49999999907,234748.784,235115.854,,26,a
screen,html.Screen,2_3_1_0_1_27,2021-04-28T16:08:53.182Z,,,,,,,,,,,,,,,,,15,,,,,,,,,,,,,,314.46599999949103,,response,,,,7,A,,,,,,Space,keypress(Space),,,,silence,,,,---- --------- ---------- - --- ------- -- --- ------------<br>----- -- -------- ------- ---- ------ - -------- ---- -----<br>--- ------- ---- -- --- -------- --- - third ------ ---- --<br>-------- --- -------- -------- --- -------- ---- -- ----- -<br>-------- ---- --- ---------- --------- -- ------- ------ -<br>--------- ----- -----,235432.54999999772,235430.31999999948,235099.169,235104.51499999908,235115.854,235449.554,,27,third
screen,html.Screen,2_3_1_0_1_28,2021-04-28T16:08:53.494Z,,,,,,,,,,,,,,,,,15,,,,,,,,,,,,,,292.806000003824,,response,,,,7,A,,,,,,Space,keypress(Space),,,,silence,,,,---- --------- ---------- - --- ------- -- --- ------------<br>----- -- -------- ------- ---- ------ - -------- ---- -----<br>--- ------- ---- -- --- -------- --- - ----- prison ---- --<br>-------- --- -------- -------- --- -------- ---- -- ----- -<br>-------- ---- --- ---------- --------- -- ------- ------ -<br>--------- ----- -----,235744.46499999613,235742.36000000383,235432.869,235432.62500000128,235449.554,235749.884,,28,prison
screen,html.Screen,2_3_1_0_1_29,2021-04-28T16:08:53.846Z,,,,,,,,,,,,,,,,,15,,,,,,,,,,,,,,344.49100000059116,,response,,,,7,A,,,,,,Space,keypress(Space),,,,silence,,,,---- --------- ---------- - --- ------- -- --- ------------<br>----- -- -------- ------- ---- ------ - -------- ---- -----<br>--- ------- ---- -- --- -------- --- - ----- ------ stay --<br>-------- --- -------- -------- --- -------- ---- -- ----- -<br>-------- ---- --- ---------- --------- -- ------- ------ -<br>--------- ----- -----,236096.51000000304,236094.37500000058,235733.199,235744.56000000646,235749.884,236100.269,,29,stay
screen,html.Screen,2_3_1_0_1_30,2021-04-28T16:08:54.198Z,,,,,,,,,,,,,,,,,15,,,,,,,,,,,,,,346.1059999995341,,response,,,,7,A,,,,,,Space,keypress(Space),,,,silence,,,,---- --------- ---------- - --- ------- -- --- ------------<br>----- -- -------- ------- ---- ------ - -------- ---- -----<br>--- ------- ---- -- --- -------- --- - ----- ------ ---- to<br>-------- --- -------- -------- --- -------- ---- -- ----- -<br>-------- ---- --- ---------- --------- -- ------- ------ -<br>--------- ----- -----,236448.76500000828,236446.37499999953,236083.584,236096.5850000066,236100.269,236450.654,,30,to
screen,html.Screen,2_3_1_0_1_31,2021-04-28T16:08:54.542Z,,,,,,,,,,,,,,,,,15,,,,,,,,,,,,,,339.72099999684724,,response,,,,7,A,,,,,,Space,keypress(Space),,,,silence,,,,---- --------- ---------- - --- ------- -- --- ------------<br>----- -- -------- ------- ---- ------ - -------- ---- -----<br>--- ------- ---- -- --- -------- --- - ----- ------ ---- --<br>maintain --- -------- -------- --- -------- ---- -- ----- -<br>-------- ---- --- ---------- --------- -- ------- ------ -<br>--------- ----- -----,236792.43499999575,236790.37499999686,236433.969,236448.83500000287,236450.654,236801.039,,31,maintain
screen,html.Screen,2_3_1_0_1_32,2021-04-28T16:08:54.894Z,,,,,,,,,,,,,,,,,15,,,,,,,,,,,,,,341.2809999990277,,response,,,,7,A,,,,,,Space,keypress(Space),,,,silence,,,,---- --------- ---------- - --- ------- -- --- ------------<br>----- -- -------- ------- ---- ------ - -------- ---- -----<br>--- ------- ---- -- --- -------- --- - ----- ------ ---- --<br>-------- his -------- -------- --- -------- ---- -- ----- -<br>-------- ---- --- ---------- --------- -- ------- ------ -<br>--------- ----- -----,237144.53000000503,237142.31999999902,236784.354,236792.5099999993,236801.039,237151.424,,32,his
screen,html.Screen,2_3_1_0_1_33,2021-04-28T16:08:55.221Z,,,,,,,,,,,,,,,,,15,,,,,,,,,,,,,,318.88600000424776,,response,,,,7,A,,,,,,Space,keypress(Space),,,,silence,,,,---- --------- ---------- - --- ------- -- --- ------------<br>----- -- -------- ------- ---- ------ - -------- ---- -----<br>--- ------- ---- -- --- -------- --- - ----- ------ ---- --<br>-------- --- silence. -------- --- -------- ---- -- ----- -<br>-------- ---- --- ---------- --------- -- ------- ------ -<br>--------- ----- -----,237472.1700000082,237470.31000000425,237134.739,237144.61499999743,237151.424,237485.124,,33,silence.
screen,html.Screen,2_3_1_0_1_34,2021-04-28T16:08:55.614Z,,,,,,,,,,,,,,,,,15,,,,,,,,,,,,,,377.24600000254577,,response,,,,7,A,,,,,,Space,keypress(Space),,,,silence,,,,---- --------- ---------- - --- ------- -- --- ------------<br>----- -- -------- ------- ---- ------ - -------- ---- -----<br>--- ------- ---- -- --- -------- --- - ----- ------ ---- --<br>-------- --- -------- Anderson --- -------- ---- -- ----- -<br>-------- ---- --- ---------- --------- -- ------- ------ -<br>--------- ----- -----,237864.62500000198,237862.37000000256,237468.439,237472.2449999972,237485.124,237868.879,,34,Anderson
screen,html.Screen,2_3_1_0_1_35,2021-04-28T16:08:55.933Z,,,,,,,,,,,,,,,,,15,,,,,,,,,,,,,,313.44100000718026,,response,,,,7,A,,,,,,Space,keypress(Space),,,,silence,,,,---- --------- ---------- - --- ------- -- --- ------------<br>----- -- -------- ------- ---- ------ - -------- ---- -----<br>--- ------- ---- -- --- -------- --- - ----- ------ ---- --<br>-------- --- -------- -------- was -------- ---- -- ----- -<br>-------- ---- --- ---------- --------- -- ------- ------ -<br>--------- ----- -----,238184.38000000606,238182.32000000717,237852.194,237864.70000000554,237868.879,238185.894,,35,was
screen,html.Screen,2_3_1_0_1_36,2021-04-28T16:08:56.253Z,,,,,,,,,,,,,,,,,15,,,,,,,,,,,,,,316.4809999963909,,response,,,,7,A,,,,,,Space,keypress(Space),,,,silence,,,,---- --------- ---------- - --- ------- -- --- ------------<br>----- -- -------- ------- ---- ------ - -------- ---- -----<br>--- ------- ---- -- --- -------- --- - ----- ------ ---- --<br>-------- --- -------- -------- --- released ---- -- ----- -<br>-------- ---- --- ---------- --------- -- ------- ------ -<br>--------- ----- -----,238504.3949999963,238502.3749999964,238169.209,238184.45499999507,238185.894,238519.594,,36,released
screen,html.Screen,2_3_1_0_1_37,2021-04-28T16:08:56.589Z,,,,,,,,,,,,,,,,,15,,,,,,,,,,,,,,318.7810000066238,,response,,,,7,A,,,,,,Space,keypress(Space),,,,silence,,,,---- --------- ---------- - --- ------- -- --- ------------<br>----- -- -------- ------- ---- ------ - -------- ---- -----<br>--- ------- ---- -- --- -------- --- - ----- ------ ---- --<br>-------- --- -------- -------- --- -------- July -- ----- -<br>-------- ---- --- ---------- --------- -- ------- ------ -<br>--------- ----- -----,238840.46000000671,238838.37500000664,238502.909,238504.47499999427,238519.594,238853.294,,37,July
screen,html.Screen,2_3_1_0_1_38,2021-04-28T16:08:56.933Z,,,,,,,,,,,,,,,,,15,,,,,,,,,,,,,,329.0810000039637,,response,,,,7,A,,,,,,Space,keypress(Space),,,,silence,,,,---- --------- ---------- - --- ------- -- --- ------------<br>----- -- -------- ------- ---- ------ - -------- ---- -----<br>--- ------- ---- -- --- -------- --- - ----- ------ ---- --<br>-------- --- -------- -------- --- -------- ---- 20 ----- -<br>-------- ---- --- ---------- --------- -- ------- ------ -<br>--------- ----- -----,239184.43000000843,239182.37500000396,238836.609,238840.53499999573,238853.294,239186.994,,38,20
