sender,sender_type,sender_id,timestamp,meta,,Blues,Classical,Country,Dance,Electronic,Folk,Gospel,Hip-Hop,Jazz,Latin,Musical/Film,New-age,Pop,Prolific_id,Provo_ID,R&B,Rap,Reggae,Religious,Rock,Soul,Swing,Traditional,age,artist_name,correct,correctResponse,distraction,duration,education,ended_on,familiarity,gender,headphone_check_performance,item,list,music_frequency,offensiveness,pleasantness,position_correct,preference,response,response_action,snippet_file,song_name,song_rating,sound,stimulus_1,stimulus_2,stimulus_3,text,time_commit,time_end,time_render,time_run,time_show,time_switch,url,word,word_ID
Prolific ID,html.Form,0,2021-04-26T09:28:35.618Z,"{""labjs_version"":""20.2.2"",""labjs_build"":{""flavor"":""production"",""commit"":""a25486e0c714a0ae2ce03ff94b7bb6896854dcfa""},""location"":""https://run.pavlovia.org/mvasilev/prolific_music_a/"",""userAgent"":""Mozilla/5.0 (Windows NT 10.0; Win64; x64; rv:88.0) Gecko/20100101 Firefox/88.0"",""platform"":""Win32"",""language"":""en-GB"",""locale"":""en-GB"",""timeZone"":""Europe/London"",""timezoneOffset"":-60,""screen_width"":1920,""screen_height"":1080,""scroll_width"":1920,""scroll_height"":890,""window_innerWidth"":1920,""window_innerHeight"":938,""devicePixelRatio"":1}",,,,,,,,,,,,,,,5fb1b6a116dfd36eea55dacd,,,,,,,,,,,,,,,4460.46,,form submission,,,,,,,,,,,,,,,,,,,,,11732,11731,7260,7260,7270.54,11737.14,{},,
Introduction,html.Screen,1_0,2021-04-26T09:28:43.109Z,,,,,,,,,,,,,,,,,,,,,,,,,,,,,,,7471.860000000001,,response,,,,,,,,,,,continue,click button,,,,,,,,,19224,19209,11720.48,11733,11737.14,19253.78,,,
Volume calibration,html.Screen,1_1,2021-04-26T09:28:53.150Z,,,,,,,,,,,,,,,,,,,,,,,,,,,,,,,10003.220000000001,,response,,,,,,,,,,,continue,click button,,,,,,,,,29264,29257,19237.12,19225,19253.78,29287.16,,,
Task instructions,html.Screen,1_2,2021-04-26T09:28:59.956Z,,,,,,,,,,,,,,,,,,,,,,,,,,,,,,,6766.84,,response,,,,,,,,,,,continue,click button,,,,,,,,,36070,36054,29270.5,29265,29287.16,36087.22,,,
Sounds,html.Screen,1_3_0_0,2021-04-26T09:29:04.207Z,,,,,,,,,,,,,,,,,,,,,,,,,,,,,,,4250,,timeout,,,,,,,,,3,,,,,,,,O,I,S,,40321,40320.56,36070.56,36070,36087.22,40337.22,,,
Judgement,html.Screen,1_3_0_1,2021-04-26T09:29:04.885Z,,,,,,,,,,,,,,,,,,,,,,,,,,,,true,3,,652.7799999999988,,response,,,,,,,,,3,,3,click #choice-3,,,,,O,I,S,,41000,40990,40320.56,40321,40337.22,41020.58,,,
Trial,flow.Sequence,1_3_0,2021-04-26T09:29:04.886Z,,,,,,,,,,,,,,,,,,,,,,,,,,,,,,,4902.779999999999,,completion,,,,,,,,,3,,,,,,,,O,I,S,,41000,40990,36070.56,36070,36087.22,41020.58,,,
Sounds,html.Screen,1_3_1_0,2021-04-26T09:29:09.140Z,,,,,,,,,,,,,,,,,,,,,,,,,,,,,,,4250,,timeout,,,,,,,,,1,,,,,,,,S,O,I,,45254,45253.9,41003.96,41000,41020.58,45270.58,,,
Judgement,html.Screen,1_3_1_1,2021-04-26T09:29:10.533Z,,,,,,,,,,,,,,,,,,,,,,,,,,,,true,1,,1361.4199999999983,,response,,,,,,,,,1,,1,click #choice-1,,,,,S,O,I,,46648,46632,45253.9,45255,45270.58,46670.58,,,
Trial,flow.Sequence,1_3_1,2021-04-26T09:29:10.533Z,,,,,,,,,,,,,,,,,,,,,,,,,,,,,,,5611.419999999998,,completion,,,,,,,,,1,,,,,,,,S,O,I,,46648,46632,41003.96,41000,41020.58,46670.58,,,
Sounds,html.Screen,1_3_2_0,2021-04-26T09:29:14.790Z,,,,,,,,,,,,,,,,,,,,,,,,,,,,,,,4249.979999999996,,timeout,,,,,,,,,2,,,,,,,,I,S,O,,50905,50903.9,46653.9,46648,46670.58,50920.56,,,
Judgement,html.Screen,1_3_2_1,2021-04-26T09:29:15.241Z,,,,,,,,,,,,,,,,,,,,,,,,,,,,true,2,,429.4400000000023,,response,,,,,,,,,2,,2,click #choice-2,,,,,I,S,O,,51355,51350,50903.9,50905,50920.56,51387.16,,,
Trial,flow.Sequence,1_3_2,2021-04-26T09:29:15.241Z,,,,,,,,,,,,,,,,,,,,,,,,,,,,,,,4679.419999999998,,completion,,,,,,,,,2,,,,,,,,I,S,O,,51355,51350,46653.9,46648,46670.58,51387.16,,,
Sounds,html.Screen,1_3_3_0,2021-04-26T09:29:19.507Z,,,,,,,,,,,,,,,,,,,,,,,,,,,,,,,4250.039999999994,,timeout,,,,,,,,,2,,,,,,,,O,S,I,,55621,55620.54,51370.48,51355,51387.16,55637.2,,,
Judgement,html.Screen,1_3_3_1,2021-04-26T09:29:19.867Z,,,,,,,,,,,,,,,,,,,,,,,,,,,,true,2,,321.8000000000029,,response,,,,,,,,,2,,2,click #choice-2,,,,,O,S,I,,55982,55959,55620.54,55621,55637.2,56003.92,,,
Trial,flow.Sequence,1_3_3,2021-04-26T09:29:19.867Z,,,,,,,,,,,,,,,,,,,,,,,,,,,,,,,4571.8399999999965,,completion,,,,,,,,,2,,,,,,,,O,S,I,,55982,55959,51370.48,51355,51387.16,56003.92,,,
Sounds,html.Screen,1_3_4_0,2021-04-26T09:29:24.124Z,,,,,,,,,,,,,,,,,,,,,,,,,,,,,,,4249.959999999999,,timeout,,,,,,,,,1,,,,,,,,S,I,O,,60237,60237.22,55987.3,55982,56003.92,60253.88,,,
Judgement,html.Screen,1_3_4_1,2021-04-26T09:29:24.471Z,,,,,,,,,,,,,,,,,,,,,,,,,,,,true,1,,314.1200000000026,,response,,,,,,,,,1,,1,click #choice-1,,,,,S,I,O,,60585,60568,60237.22,60238,60253.88,60603.94,,,
Trial,flow.Sequence,1_3_4,2021-04-26T09:29:24.471Z,,,,,,,,,,,,,,,,,,,,,,,,,,,,,,,4564.080000000002,,completion,,,,,,,,,1,,,,,,,,S,I,O,,60585,60568,55987.3,55982,56003.92,60603.94,,,
Sounds,html.Screen,1_3_5_0,2021-04-26T09:29:28.724Z,,,,,,,,,,,,,,,,,,,,,,,,,,,,,,,4249.959999999999,,timeout,,,,,,,,,3,,,,,,,,I,O,S,,64838,64837.24,60587.32,60586,60603.94,64853.9,,,
Judgement,html.Screen,1_3_5_1,2021-04-26T09:29:29.137Z,,,,,,,,,,,,,,,,,,,,,,,,,,,,true,3,,387.09999999999854,,response,,,,,,,,,3,,3,click #choice-3,,,,,I,O,S,,65250,65241,64837.24,64838,64853.9,65270.56,,,
Trial,flow.Sequence,1_3_5,2021-04-26T09:29:29.137Z,,,,,,,,,,,,,,,,,,,,,,,,,,,,,,,4637.059999999998,,completion,,,,,,,,,3,,,,,,,,I,O,S,,65252,65241,60587.32,60586,60603.94,65270.56,,,
Task,flow.Loop,1_3,2021-04-26T09:29:29.138Z,,,,,,,,,,,,,,,,,,,,,,,,,,,,,,,29153.78,,completion,,,1,,,,,,,,,,,,,,,,,,65252,65241,36070.56,36070,36087.22,65270.56,,,
Trap,html.Screen,1_4,2021-04-26T09:29:29.139Z,,,,,,,,,,,,,,,,,,,,,,,,,,,,,,,NaN,,skipped,,,,,,,,,,,,,,,,,,,,,65254,65241,,65254,,65270.56,,,
Thanks,html.Screen,1_5,2021-04-26T09:29:33.042Z,,,,,,,,,,,,,,,,,,,,,,,,,,,,,,,3876.4400000000023,,response,,,,,,,,,,,continue,click button,,,,,,,,,69156,69147,65253.9,65254,65270.56,74970.48,,,
Headphone screening,flow.Sequence,1,2021-04-26T09:29:33.042Z,,,,,,,,,,,,,,,,,,,,,,,,,,,,,,,57409.86,,completion,,,,,,,,,,,,,,,,,,,,,69156,69147,11720.48,11733,11737.14,74970.48,,,
Instructions,html.Page,2_0,2021-04-26T09:29:58.899Z,,,,,,,,,,,,,,,,,,,,,,,,,,,,,,,20042.520000000004,,form submission,,,,,,,,,,,,,,,,,,,,,95013,95013,74953.82,74939,74970.48,95037.3,,,
Holding screen,html.Screen,2_1_0_0,2021-04-26T09:30:08.908Z,,,,,,,,,,,,,,,,,,,,,,,,,,,,,,,9999.919999999998,,timeout,,,,,,,,,,,,,,,,,,,,,105021,105020.56,95020.68,95014,95037.3,105037.22,,,
screen,html.Screen,2_1_0_1_0,2021-04-26T09:30:14.257Z,,,,,,,,,,,,,,,,,53,,,,,,,,,,,,,,5327.779999999999,,response,,,,99,,,,,,,Space,keypress(Space),,,,,,,,When -- ----- -- ------ - ------- --- ----------<br>------------- ------ ------ ---- ---- ------- ----- -- ----<br>-------- ------- -- ---------- --- - --- ----- ----- ----<br>---- --- --- ----- --- ---- ---- ------- ----- ---- -------<br>--- --- -- ----- -- --- ---- -- --- ---- -- ------ ------<br>--- ----- -- ----,110372,110365,105020.56,105022,105037.22,110403.98,,0,When
screen,html.Screen,2_1_0_1_1,2021-04-26T09:30:15.666Z,,,,,,,,,,,,,,,,,53,,,,,,,,,,,,,,1368.020000000004,,response,,,,99,,,,,,,Space,keypress(Space),,,,,,,,---- it ----- -- ------ - ------- --- ----------<br>------------- ------ ------ ---- ---- ------- ----- -- ----<br>-------- ------- -- ---------- --- - --- ----- ----- ----<br>---- --- --- ----- --- ---- ---- ------- ----- ---- -------<br>--- --- -- ----- -- --- ---- -- --- ---- -- ------ ------<br>--- ----- -- ----,111781,111772,110387.32,110372,110403.98,111787.36,,1,it
screen,html.Screen,2_1_0_1_2,2021-04-26T09:30:16.293Z,,,,,,,,,,,,,,,,,53,,,,,,,,,,,,,,609.6399999999994,,response,,,,99,,,,,,,Space,keypress(Space),,,,,,,,---- -- comes -- ------ - ------- --- ----------<br>------------- ------ ------ ---- ---- ------- ----- -- ----<br>-------- ------- -- ---------- --- - --- ----- ----- ----<br>---- --- --- ----- --- ---- ---- ------- ----- ---- -------<br>--- --- -- ----- -- --- ---- -- --- ---- -- ------ ------<br>--- ----- -- ----,112407,112397,111780.68,111781,111787.36,112420.66,,2,comes
screen,html.Screen,2_1_0_1_3,2021-04-26T09:30:16.673Z,,,,,,,,,,,,,,,,,53,,,,,,,,,,,,,,350.3399999999965,,response,,,,99,,,,,,,Space,keypress(Space),,,,,,,,---- -- ----- to ------ - ------- --- ----------<br>------------- ------ ------ ---- ---- ------- ----- -- ----<br>-------- ------- -- ---------- --- - --- ----- ----- ----<br>---- --- --- ----- --- ---- ---- ------- ----- ---- -------<br>--- --- -- ----- -- --- ---- -- --- ---- -- ------ ------<br>--- ----- -- ----,112788,112771,112407.48,112407,112420.66,112804.04,,3,to
screen,html.Screen,2_1_0_1_4,2021-04-26T09:30:17.085Z,,,,,,,,,,,,,,,,,53,,,,,,,,,,,,,,388.9600000000064,,response,,,,99,,,,,,,Space,keypress(Space),,,,,,,,---- -- ----- -- having - ------- --- ----------<br>------------- ------ ------ ---- ---- ------- ----- -- ----<br>-------- ------- -- ---------- --- - --- ----- ----- ----<br>---- --- --- ----- --- ---- ---- ------- ----- ---- -------<br>--- --- -- ----- -- --- ---- -- --- ---- -- ------ ------<br>--- ----- -- ----,113199,113193,112787.88,112788,112804.04,113204.02,,4,having
screen,html.Screen,2_1_0_1_5,2021-04-26T09:30:17.457Z,,,,,,,,,,,,,,,,,53,,,,,,,,,,,,,,363.9799999999959,,response,,,,99,,,,,,,Space,keypress(Space),,,,,,,,---- -- ----- -- ------ a ------- --- ----------<br>------------- ------ ------ ---- ---- ------- ----- -- ----<br>-------- ------- -- ---------- --- - --- ----- ----- ----<br>---- --- --- ----- --- ---- ---- ------- ----- ---- -------<br>--- --- -- ----- -- --- ---- -- --- ---- -- ------ ------<br>--- ----- -- ----,113571,113568,113199.84,113199,113204.02,113587.36,,5,a
screen,html.Screen,2_1_0_1_6,2021-04-26T09:30:17.945Z,,,,,,,,,,,,,,,,,53,,,,,,,,,,,,,,466.6399999999994,,response,,,,99,,,,,,,Space,keypress(Space),,,,,,,,---- -- ----- -- ------ - lasting --- ----------<br>------------- ------ ------ ---- ---- ------- ----- -- ----<br>-------- ------- -- ---------- --- - --- ----- ----- ----<br>---- --- --- ----- --- ---- ---- ------- ----- ---- -------<br>--- --- -- ----- -- --- ---- -- --- ---- -- ------ ------<br>--- ----- -- ----,114060,114054,113572.14,113571,113587.36,114070.7,,6,lasting
screen,html.Screen,2_1_0_1_7,2021-04-26T09:30:18.653Z,,,,,,,,,,,,,,,,,53,,,,,,,,,,,,,,685.3000000000029,,response,,,,99,,,,,,,Space,keypress(Space),,,,,,,,---- -- ----- -- ------ - ------- and ----------<br>------------- ------ ------ ---- ---- ------- ----- -- ----<br>-------- ------- -- ---------- --- - --- ----- ----- ----<br>---- --- --- ----- --- ---- ---- ------- ----- ---- -------<br>--- --- -- ----- -- --- ---- -- --- ---- -- ------ ------<br>--- ----- -- ----,114768,114756,114059.96,114060,114070.7,114770.62,,7,and
screen,html.Screen,2_1_0_1_8,2021-04-26T09:30:19.173Z,,,,,,,,,,,,,,,,,53,,,,,,,,,,,,,,501.38000000000466,,response,,,,99,,,,,,,Space,keypress(Space),,,,,,,,---- -- ----- -- ------ - ------- --- fulfilling<br>------------- ------ ------ ---- ---- ------- ----- -- ----<br>-------- ------- -- ---------- --- - --- ----- ----- ----<br>---- --- --- ----- --- ---- ---- ------- ----- ---- -------<br>--- --- -- ----- -- --- ---- -- --- ---- -- ------ ------<br>--- ----- -- ----,115287,115272,114767.76,114768,114770.62,115304.04,,8,fulfilling
screen,html.Screen,2_1_0_1_9,2021-04-26T09:30:19.613Z,,,,,,,,,,,,,,,,,53,,,,,,,,,,,,,,420.9600000000064,,response,,,,99,,,,,,,Space,keypress(Space),,,,,,,,"---- -- ----- -- ------ - ------- --- ----------<br>relationship, ------ ------ ---- ---- ------- ----- -- ----<br>-------- ------- -- ---------- --- - --- ----- ----- ----<br>---- --- --- ----- --- ---- ---- ------- ----- ---- -------<br>--- --- -- ----- -- --- ---- -- --- ---- -- ------ ------<br>--- ----- -- ----",115727,115725,115287.72,115287,115304.04,115737.36,,9,"relationship,"
screen,html.Screen,2_1_0_1_10,2021-04-26T09:30:19.973Z,,,,,,,,,,,,,,,,,53,,,,,,,,,,,,,,346.6399999999994,,response,,,,99,,,,,,,Space,keypress(Space),,,,,,,,---- -- ----- -- ------ - ------- --- ----------<br>------------- common ------ ---- ---- ------- ----- -- ----<br>-------- ------- -- ---------- --- - --- ----- ----- ----<br>---- --- --- ----- --- ---- ---- ------- ----- ---- -------<br>--- --- -- ----- -- --- ---- -- --- ---- -- ------ ------<br>--- ----- -- ----,116088,116084,115728.08,115728,115737.36,116104.04,,10,common
screen,html.Screen,2_1_0_1_11,2021-04-26T09:30:20.321Z,,,,,,,,,,,,,,,,,53,,,,,,,,,,,,,,323.9600000000064,,response,,,,99,,,,,,,Space,keypress(Space),,,,,,,,---- -- ----- -- ------ - ------- --- ----------<br>------------- ------ wisdom ---- ---- ------- ----- -- ----<br>-------- ------- -- ---------- --- - --- ----- ----- ----<br>---- --- --- ----- --- ---- ---- ------- ----- ---- -------<br>--- --- -- ----- -- --- ---- -- --- ---- -- ------ ------<br>--- ----- -- ----,116435,116428,116088.1,116088,116104.04,116437.3,,11,wisdom
screen,html.Screen,2_1_0_1_12,2021-04-26T09:30:20.709Z,,,,,,,,,,,,,,,,,53,,,,,,,,,,,,,,380.6999999999971,,response,,,,99,,,,,,,Space,keypress(Space),,,,,,,,---- -- ----- -- ------ - ------- --- ----------<br>------------- ------ ------ says ---- ------- ----- -- ----<br>-------- ------- -- ---------- --- - --- ----- ----- ----<br>---- --- --- ----- --- ---- ---- ------- ----- ---- -------<br>--- --- -- ----- -- --- ---- -- --- ---- -- ------ ------<br>--- ----- -- ----,116823,116818,116435.96,116435,116437.3,116837.38,,12,says
screen,html.Screen,2_1_0_1_13,2021-04-26T09:30:21.013Z,,,,,,,,,,,,,,,,,53,,,,,,,,,,,,,,278.61999999999534,,response,,,,99,,,,,,,Space,keypress(Space),,,,,,,,---- -- ----- -- ------ - ------- --- ----------<br>------------- ------ ------ ---- that ------- ----- -- ----<br>-------- ------- -- ---------- --- - --- ----- ----- ----<br>---- --- --- ----- --- ---- ---- ------- ----- ---- -------<br>--- --- -- ----- -- --- ---- -- --- ---- -- ------ ------<br>--- ----- -- ----,117127,117116,116824.06,116823,116837.38,117137.36,,13,that
screen,html.Screen,2_1_0_1_14,2021-04-26T09:30:21.348Z,,,,,,,,,,,,,,,,,53,,,,,,,,,,,,,,321.6399999999994,,response,,,,99,,,,,,,Space,keypress(Space),,,,,,,,---- -- ----- -- ------ - ------- --- ----------<br>------------- ------ ------ ---- ---- feeling ----- -- ----<br>-------- ------- -- ---------- --- - --- ----- ----- ----<br>---- --- --- ----- --- ---- ---- ------- ----- ---- -------<br>--- --- -- ----- -- --- ---- -- --- ---- -- ------ ------<br>--- ----- -- ----,117463,117459,117127.96,117128,117137.36,117470.7,,14,feeling
screen,html.Screen,2_1_0_1_15,2021-04-26T09:30:22.009Z,,,,,,,,,,,,,,,,,53,,,,,,,,,,,,,,644.3000000000029,,response,,,,99,,,,,,,Space,keypress(Space),,,,,,,,---- -- ----- -- ------ - ------- --- ----------<br>------------- ------ ------ ---- ---- ------- close -- ----<br>-------- ------- -- ---------- --- - --- ----- ----- ----<br>---- --- --- ----- --- ---- ---- ------- ----- ---- -------<br>--- --- -- ----- -- --- ---- -- --- ---- -- ------ ------<br>--- ----- -- ----,118123,118115,117463.62,117463,117470.7,118137.36,,15,close
screen,html.Screen,2_1_0_1_16,2021-04-26T09:30:22.337Z,,,,,,,,,,,,,,,,,53,,,,,,,,,,,,,,305.6399999999994,,response,,,,99,,,,,,,Space,keypress(Space),,,,,,,,---- -- ----- -- ------ - ------- --- ----------<br>------------- ------ ------ ---- ---- ------- ----- to ----<br>-------- ------- -- ---------- --- - --- ----- ----- ----<br>---- --- --- ----- --- ---- ---- ------- ----- ---- -------<br>--- --- -- ----- -- --- ---- -- --- ---- -- ------ ------<br>--- ----- -- ----,118451,118443,118124.22,118123,118137.36,118453.96,,16,to
screen,html.Screen,2_1_0_1_17,2021-04-26T09:30:22.673Z,,,,,,,,,,,,,,,,,53,,,,,,,,,,,,,,318.0399999999936,,response,,,,99,,,,,,,Space,keypress(Space),,,,,,,,---- -- ----- -- ------ - ------- --- ----------<br>------------- ------ ------ ---- ---- ------- ----- -- your<br>-------- ------- -- ---------- --- - --- ----- ----- ----<br>---- --- --- ----- --- ---- ---- ------- ----- ---- -------<br>--- --- -- ----- -- --- ---- -- --- ---- -- ------ ------<br>--- ----- -- ----,118788,118772,118451.76,118452,118453.96,118804.04,,17,your
screen,html.Screen,2_1_0_1_18,2021-04-26T09:30:23.141Z,,,,,,,,,,,,,,,,,53,,,,,,,,,,,,,,435.9600000000064,,response,,,,99,,,,,,,Space,keypress(Space),,,,,,,,---- -- ----- -- ------ - ------- --- ----------<br>------------- ------ ------ ---- ---- ------- ----- -- ----<br>romantic ------- -- ---------- --- - --- ----- ----- ----<br>---- --- --- ----- --- ---- ---- ------- ----- ---- -------<br>--- --- -- ----- -- --- ---- -- --- ---- -- ------ ------<br>--- ----- -- ----,119256,119240,118787.9,118788,118804.04,119270.7,,18,romantic
screen,html.Screen,2_1_0_1_19,2021-04-26T09:30:23.457Z,,,,,,,,,,,,,,,,,53,,,,,,,,,,,,,,298.3000000000029,,response,,,,99,,,,,,,Space,keypress(Space),,,,,,,,---- -- ----- -- ------ - ------- --- ----------<br>------------- ------ ------ ---- ---- ------- ----- -- ----<br>-------- partner -- ---------- --- - --- ----- ----- ----<br>---- --- --- ----- --- ---- ---- ------- ----- ---- -------<br>--- --- -- ----- -- --- ---- -- --- ---- -- ------ ------<br>--- ----- -- ----,119572,119569,119255.82,119256,119270.7,119587.38,,19,partner
screen,html.Screen,2_1_0_1_20,2021-04-26T09:30:23.797Z,,,,,,,,,,,,,,,,,53,,,,,,,,,,,,,,308.61999999999534,,response,,,,99,,,,,,,Space,keypress(Space),,,,,,,,---- -- ----- -- ------ - ------- --- ----------<br>------------- ------ ------ ---- ---- ------- ----- -- ----<br>-------- ------- is ---------- --- - --- ----- ----- ----<br>---- --- --- ----- --- ---- ---- ------- ----- ---- -------<br>--- --- -- ----- -- --- ---- -- --- ---- -- ------ ------<br>--- ----- -- ----,119911,119896,119571.86,119572,119587.38,119920.64,,20,is
screen,html.Screen,2_1_0_1_21,2021-04-26T09:30:41.473Z,,,,,,,,,,,,,,,,,53,,,,,,,,,,,,,,17664.36,,response,,,,99,,,,,,,Space,keypress(Space),,,,,,,,---- -- ----- -- ------ - ------- --- ----------<br>------------- ------ ------ ---- ---- ------- ----- -- ----<br>-------- ------- -- paramount. --- - --- ----- ----- ----<br>---- --- --- ----- --- ---- ---- ------- ----- ---- -------<br>--- --- -- ----- -- --- ---- -- --- ---- -- ------ ------<br>--- ----- -- ----,137588,137585,119911.86,119911,119920.64,137604.06,,21,paramount.
screen,html.Screen,2_1_0_1_22,2021-04-26T09:30:42.117Z,,,,,,,,,,,,,,,,,53,,,,,,,,,,,,,,621.9400000000023,,response,,,,99,,,,,,,Space,keypress(Space),,,,,,,,---- -- ----- -- ------ - ------- --- ----------<br>------------- ------ ------ ---- ---- ------- ----- -- ----<br>-------- ------- -- ---------- But - --- ----- ----- ----<br>---- --- --- ----- --- ---- ---- ------- ----- ---- -------<br>--- --- -- ----- -- --- ---- -- --- ---- -- ------ ------<br>--- ----- -- ----,138231,138226,137588.12,137588,137604.06,138237.4,,22,But
screen,html.Screen,2_1_0_1_23,2021-04-26T09:30:42.437Z,,,,,,,,,,,,,,,,,53,,,,,,,,,,,,,,300.6000000000058,,response,,,,99,,,,,,,Space,keypress(Space),,,,,,,,---- -- ----- -- ------ - ------- --- ----------<br>------------- ------ ------ ---- ---- ------- ----- -- ----<br>-------- ------- -- ---------- --- a --- ----- ----- ----<br>---- --- --- ----- --- ---- ---- ------- ----- ---- -------<br>--- --- -- ----- -- --- ---- -- --- ---- -- ------ ------<br>--- ----- -- ----,138552,138538,138231.7,138232,138237.4,138554.02,,23,a
screen,html.Screen,2_1_0_1_24,2021-04-26T09:30:42.737Z,,,,,,,,,,,,,,,,,53,,,,,,,,,,,,,,295.9800000000105,,response,,,,99,,,,,,,Space,keypress(Space),,,,,,,,---- -- ----- -- ------ - ------- --- ----------<br>------------- ------ ------ ---- ---- ------- ----- -- ----<br>-------- ------- -- ---------- --- - new ----- ----- ----<br>---- --- --- ----- --- ---- ---- ------- ----- ---- -------<br>--- --- -- ----- -- --- ---- -- --- ---- -- ------ ------<br>--- ----- -- ----,138852,138850,138551.86,138552,138554.02,138854,,24,new
screen,html.Screen,2_1_0_1_25,2021-04-26T09:30:43.065Z,,,,,,,,,,,,,,,,,53,,,,,,,,,,,,,,309,,response,,,,99,,,,,,,Space,keypress(Space),,,,,,,,---- -- ----- -- ------ - ------- --- ----------<br>------------- ------ ------ ---- ---- ------- ----- -- ----<br>-------- ------- -- ---------- --- - --- study ----- ----<br>---- --- --- ----- --- ---- ---- ------- ----- ---- -------<br>--- --- -- ----- -- --- ---- -- --- ---- -- ------ ------<br>--- ----- -- ----,139180,139163,138851.88,138852,138854,139187.38,,25,study
screen,html.Screen,2_1_0_1_26,2021-04-26T09:30:43.353Z,,,,,,,,,,,,,,,,,53,,,,,,,,,,,,,,271.61999999999534,,response,,,,99,,,,,,,Space,keypress(Space),,,,,,,,---- -- ----- -- ------ - ------- --- ----------<br>------------- ------ ------ ---- ---- ------- ----- -- ----<br>-------- ------- -- ---------- --- - --- ----- finds ----<br>---- --- --- ----- --- ---- ---- ------- ----- ---- -------<br>--- --- -- ----- -- --- ---- -- --- ---- -- ------ ------<br>--- ----- -- ----,139468,139459,139179.94,139180,139187.38,139470.64,,26,finds
screen,html.Screen,2_1_0_1_27,2021-04-26T09:30:43.629Z,,,,,,,,,,,,,,,,,53,,,,,,,,,,,,,,270.35999999998603,,response,,,,99,,,,,,,Space,keypress(Space),,,,,,,,---- -- ----- -- ------ - ------- --- ----------<br>------------- ------ ------ ---- ---- ------- ----- -- ----<br>-------- ------- -- ---------- --- - --- ----- ----- that<br>---- --- --- ----- --- ---- ---- ------- ----- ---- -------<br>--- --- -- ----- -- --- ---- -- --- ---- -- ------ ------<br>--- ----- -- ----,139744,139741,139467.88,139468,139470.64,139754.06,,27,that
screen,html.Screen,2_1_0_1_28,2021-04-26T09:30:43.921Z,,,,,,,,,,,,,,,,,53,,,,,,,,,,,,,,266.9400000000023,,response,,,,99,,,,,,,Space,keypress(Space),,,,,,,,---- -- ----- -- ------ - ------- --- ----------<br>------------- ------ ------ ---- ---- ------- ----- -- ----<br>-------- ------- -- ---------- --- - --- ----- ----- ----<br>it's --- --- ----- --- ---- ---- ------- ----- ---- -------<br>--- --- -- ----- -- --- ---- -- --- ---- -- ------ ------<br>--- ----- -- ----,140036,140021,139743.74,139744,139754.06,140037.38,,28,it's
screen,html.Screen,2_1_0_1_29,2021-04-26T09:30:44.221Z,,,,,,,,,,,,,,,,,53,,,,,,,,,,,,,,281.61999999999534,,response,,,,99,,,,,,,Space,keypress(Space),,,,,,,,---- -- ----- -- ------ - ------- --- ----------<br>------------- ------ ------ ---- ---- ------- ----- -- ----<br>-------- ------- -- ---------- --- - --- ----- ----- ----<br>---- not --- ----- --- ---- ---- ------- ----- ---- -------<br>--- --- -- ----- -- --- ---- -- --- ---- -- ------ ------<br>--- ----- -- ----,140335,140319,140035.96,140036,140037.38,140337.4,,29,not
screen,html.Screen,2_1_0_1_30,2021-04-26T09:30:44.485Z,,,,,,,,,,,,,,,,,53,,,,,,,,,,,,,,247.60000000000582,,response,,,,99,,,,,,,Space,keypress(Space),,,,,,,,---- -- ----- -- ------ - ------- --- ----------<br>------------- ------ ------ ---- ---- ------- ----- -- ----<br>-------- ------- -- ---------- --- - --- ----- ----- ----<br>---- --- how ----- --- ---- ---- ------- ----- ---- -------<br>--- --- -- ----- -- --- ---- -- --- ---- -- ------ ------<br>--- ----- -- ----,140600,140585,140335.9,140335,140337.4,140604.04,,30,how
screen,html.Screen,2_1_0_1_31,2021-04-26T09:30:44.772Z,,,,,,,,,,,,,,,,,53,,,,,,,,,,,,,,276.95999999999185,,response,,,,99,,,,,,,Space,keypress(Space),,,,,,,,---- -- ----- -- ------ - ------- --- ----------<br>------------- ------ ------ ---- ---- ------- ----- -- ----<br>-------- ------- -- ---------- --- - --- ----- ----- ----<br>---- --- --- close --- ---- ---- ------- ----- ---- -------<br>--- --- -- ----- -- --- ---- -- --- ---- -- ------ ------<br>--- ----- -- ----,140887,140881,140599.9,140600,140604.04,140904.06,,31,close
screen,html.Screen,2_1_0_1_32,2021-04-26T09:30:45.053Z,,,,,,,,,,,,,,,,,53,,,,,,,,,,,,,,257.9400000000023,,response,,,,99,,,,,,,Space,keypress(Space),,,,,,,,---- -- ----- -- ------ - ------- --- ----------<br>------------- ------ ------ ---- ---- ------- ----- -- ----<br>-------- ------- -- ---------- --- - --- ----- ----- ----<br>---- --- --- ----- you ---- ---- ------- ----- ---- -------<br>--- --- -- ----- -- --- ---- -- --- ---- -- ------ ------<br>--- ----- -- ----,141167,141162,140887.48,140888,140904.06,141170.68,,32,you
screen,html.Screen,2_1_0_1_33,2021-04-26T09:30:45.333Z,,,,,,,,,,,,,,,,,53,,,,,,,,,,,,,,272.320000000007,,response,,,,99,,,,,,,Space,keypress(Space),,,,,,,,---- -- ----- -- ------ - ------- --- ----------<br>------------- ------ ------ ---- ---- ------- ----- -- ----<br>-------- ------- -- ---------- --- - --- ----- ----- ----<br>---- --- --- ----- --- feel ---- ------- ----- ---- -------<br>--- --- -- ----- -- --- ---- -- --- ---- -- ------ ------<br>--- ----- -- ----,141447,141443,141167.8,141167,141170.68,141454.06,,33,feel
screen,html.Screen,2_1_0_1_34,2021-04-26T09:30:45.561Z,,,,,,,,,,,,,,,,,53,,,,,,,,,,,,,,208.94000000000233,,response,,,,99,,,,,,,Space,keypress(Space),,,,,,,,---- -- ----- -- ------ - ------- --- ----------<br>------------- ------ ------ ---- ---- ------- ----- -- ----<br>-------- ------- -- ---------- --- - --- ----- ----- ----<br>---- --- --- ----- --- ---- that ------- ----- ---- -------<br>--- --- -- ----- -- --- ---- -- --- ---- -- ------ ------<br>--- ----- -- ----,141676,141663,141447.92,141447,141454.06,141687.4,,34,that
screen,html.Screen,2_1_0_1_35,2021-04-26T09:30:45.833Z,,,,,,,,,,,,,,,,,53,,,,,,,,,,,,,,255.60000000000582,,response,,,,99,,,,,,,Space,keypress(Space),,,,,,,,---- -- ----- -- ------ - ------- --- ----------<br>------------- ------ ------ ---- ---- ------- ----- -- ----<br>-------- ------- -- ---------- --- - --- ----- ----- ----<br>---- --- --- ----- --- ---- ---- matters ----- ---- -------<br>--- --- -- ----- -- --- ---- -- --- ---- -- ------ ------<br>--- ----- -- ----,141947,141943,141675.9,141676,141687.4,141954.02,,35,matters
screen,html.Screen,2_1_0_1_36,2021-04-26T09:30:45.921Z,,,,,,,,,,,,,,,,,53,,,,,,,,,,,,,,66.98000000001048,,response,,,,99,,,,,,,Space,keypress(Space),,,,,,,,"---- -- ----- -- ------ - ------- --- ----------<br>------------- ------ ------ ---- ---- ------- ----- -- ----<br>-------- ------- -- ---------- --- - --- ----- ----- ----<br>---- --- --- ----- --- ---- ---- ------- most, ---- -------<br>--- --- -- ----- -- --- ---- -- --- ---- -- ------ ------<br>--- ----- -- ----",142036,142021,141947.76,141947,141954.02,142054.02,,36,"most,"
screen,html.Screen,2_1_0_1_37,2021-04-26T09:30:46.125Z,,,,,,,,,,,,,,,,,53,,,,,,,,,,,,,,171.98000000001048,,response,,,,99,,,,,,,Space,keypress(Space),,,,,,,,---- -- ----- -- ------ - ------- --- ----------<br>------------- ------ ------ ---- ---- ------- ----- -- ----<br>-------- ------- -- ---------- --- - --- ----- ----- ----<br>---- --- --- ----- --- ---- ---- ------- ----- it's -------<br>--- --- -- ----- -- --- ---- -- --- ---- -- ------ ------<br>--- ----- -- ----,142239,142226,142037.36,142036,142054.02,142270.64,,37,it's
screen,html.Screen,2_1_0_1_38,2021-04-26T09:30:46.285Z,,,,,,,,,,,,,,,,,53,,,,,,,,,,,,,,125.35999999998603,,response,,,,99,,,,,,,Space,keypress(Space),,,,,,,,---- -- ----- -- ------ - ------- --- ----------<br>------------- ------ ------ ---- ---- ------- ----- -- ----<br>-------- ------- -- ---------- --- - --- ----- ----- ----<br>---- --- --- ----- --- ---- ---- ------- ----- ---- whether<br>--- --- -- ----- -- --- ---- -- --- ---- -- ------ ------<br>--- ----- -- ----,142399,142396,142253.98,142239,142270.64,142420.64,,38,whether
screen,html.Screen,2_1_0_1_39,2021-04-26T09:30:46.413Z,,,,,,,,,,,,,,,,,53,,,,,,,,,,,,,,100.35999999998603,,response,,,,99,,,,,,,Space,keypress(Space),,,,,,,,---- -- ----- -- ------ - ------- --- ----------<br>------------- ------ ------ ---- ---- ------- ----- -- ----<br>-------- ------- -- ---------- --- - --- ----- ----- ----<br>---- --- --- ----- --- ---- ---- ------- ----- ---- -------<br>you --- -- ----- -- --- ---- -- --- ---- -- ------ ------<br>--- ----- -- ----,142527,142521,142403.98,142399,142420.64,142553.98,,39,you
screen,html.Screen,2_1_0_1_40,2021-04-26T09:30:47.037Z,,,,,,,,,,,,,,,,,53,,,,,,,,,,,,,,592.0199999999895,,response,,,,99,,,,,,,Space,keypress(Space),,,,,,,,---- -- ----- -- ------ - ------- --- ----------<br>------------- ------ ------ ---- ---- ------- ----- -- ----<br>-------- ------- -- ---------- --- - --- ----- ----- ----<br>---- --- --- ----- --- ---- ---- ------- ----- ---- -------<br>--- are -- ----- -- --- ---- -- --- ---- -- ------ ------<br>--- ----- -- ----,143152,143146,142537.32,142527,142553.98,143153.98,,40,are
screen,html.Screen,2_1_0_1_41,2021-04-26T09:30:47.613Z,,,,,,,,,,,,,,,,,53,,,,,,,,,,,,,,571.0199999999895,,response,,,,99,,,,,,,Space,keypress(Space),,,,,,,,---- -- ----- -- ------ - ------- --- ----------<br>------------- ------ ------ ---- ---- ------- ----- -- ----<br>-------- ------- -- ---------- --- - --- ----- ----- ----<br>---- --- --- ----- --- ---- ---- ------- ----- ---- -------<br>--- --- as ----- -- --- ---- -- --- ---- -- ------ ------<br>--- ----- -- ----,143728,143725,143151.96,143152,143153.98,143737.4,,41,as
screen,html.Screen,2_1_0_1_42,2021-04-26T09:30:47.957Z,,,,,,,,,,,,,,,,,53,,,,,,,,,,,,,,331.6000000000058,,response,,,,99,,,,,,,Space,keypress(Space),,,,,,,,---- -- ----- -- ------ - ------- --- ----------<br>------------- ------ ------ ---- ---- ------- ----- -- ----<br>-------- ------- -- ---------- --- - --- ----- ----- ----<br>---- --- --- ----- --- ---- ---- ------- ----- ---- -------<br>--- --- -- close -- --- ---- -- --- ---- -- ------ ------<br>--- ----- -- ----,144072,144069,143728.02,143728,143737.4,144087.38,,42,close
screen,html.Screen,2_1_0_1_43,2021-04-26T09:30:57.137Z,,,,,,,,,,,,,,,,,53,,,,,,,,,,,,,,9152.619999999995,,response,,,,99,,,,,,,Space,keypress(Space),,,,,,,,---- -- ----- -- ------ - ------- --- ----------<br>------------- ------ ------ ---- ---- ------- ----- -- ----<br>-------- ------- -- ---------- --- - --- ----- ----- ----<br>---- --- --- ----- --- ---- ---- ------- ----- ---- -------<br>--- --- -- ----- as --- ---- -- --- ---- -- ------ ------<br>--- ----- -- ----,153252,153240,144072.1,144072,144087.38,153254.06,,43,as
screen,html.Screen,2_1_0_1_44,2021-04-26T09:30:57.469Z,,,,,,,,,,,,,,,,,53,,,,,,,,,,,,,,313.9400000000023,,response,,,,99,,,,,,,Space,keypress(Space),,,,,,,,---- -- ----- -- ------ - ------- --- ----------<br>------------- ------ ------ ---- ---- ------- ----- -- ----<br>-------- ------- -- ---------- --- - --- ----- ----- ----<br>---- --- --- ----- --- ---- ---- ------- ----- ---- -------<br>--- --- -- ----- -- you ---- -- --- ---- -- ------ ------<br>--- ----- -- ----,153583,153568,153251.8,153252,153254.06,153587.4,,44,you
screen,html.Screen,2_1_0_1_45,2021-04-26T09:30:57.777Z,,,,,,,,,,,,,,,,,53,,,,,,,,,,,,,,293.6000000000058,,response,,,,99,,,,,,,Space,keypress(Space),,,,,,,,---- -- ----- -- ------ - ------- --- ----------<br>------------- ------ ------ ---- ---- ------- ----- -- ----<br>-------- ------- -- ---------- --- - --- ----- ----- ----<br>---- --- --- ----- --- ---- ---- ------- ----- ---- -------<br>--- --- -- ----- -- --- want -- --- ---- -- ------ ------<br>--- ----- -- ----,153892,153881,153583.96,153584,153587.4,153904.12,,45,want
screen,html.Screen,2_1_0_1_46,2021-04-26T09:30:58.133Z,,,,,,,,,,,,,,,,,53,,,,,,,,,,,,,,335.88000000000466,,response,,,,99,,,,,,,Space,keypress(Space),,,,,,,,---- -- ----- -- ------ - ------- --- ----------<br>------------- ------ ------ ---- ---- ------- ----- -- ----<br>-------- ------- -- ---------- --- - --- ----- ----- ----<br>---- --- --- ----- --- ---- ---- ------- ----- ---- -------<br>--- --- -- ----- -- --- ---- to --- ---- -- ------ ------<br>--- ----- -- ----,154248,154240,153891.82,153892,153904.12,154254.08,,46,to
screen,html.Screen,2_1_0_1_47,2021-04-26T09:30:58.437Z,,,,,,,,,,,,,,,,,53,,,,,,,,,,,,,,283.9200000000128,,response,,,,99,,,,,,,Space,keypress(Space),,,,,,,,"---- -- ----- -- ------ - ------- --- ----------<br>------------- ------ ------ ---- ---- ------- ----- -- ----<br>-------- ------- -- ---------- --- - --- ----- ----- ----<br>---- --- --- ----- --- ---- ---- ------- ----- ---- -------<br>--- --- -- ----- -- --- ---- -- be, ---- -- ------ ------<br>--- ----- -- ----",154551,154538,154247.9,154248,154254.08,154554.02,,47,"be,"
screen,html.Screen,2_1_0_1_48,2021-04-26T09:30:58.789Z,,,,,,,,,,,,,,,,,53,,,,,,,,,,,,,,341.9800000000105,,response,,,,99,,,,,,,Space,keypress(Space),,,,,,,,---- -- ----- -- ------ - ------- --- ----------<br>------------- ------ ------ ---- ---- ------- ----- -- ----<br>-------- ------- -- ---------- --- - --- ----- ----- ----<br>---- --- --- ----- --- ---- ---- ------- ----- ---- -------<br>--- --- -- ----- -- --- ---- -- --- even -- ------ ------<br>--- ----- -- ----,154903,154896,154552.12,154552,154554.02,154920.68,,48,even
screen,html.Screen,2_1_0_1_49,2021-04-26T09:30:59.081Z,,,,,,,,,,,,,,,,,53,,,,,,,,,,,,,,273.320000000007,,response,,,,99,,,,,,,Space,keypress(Space),,,,,,,,---- -- ----- -- ------ - ------- --- ----------<br>------------- ------ ------ ---- ---- ------- ----- -- ----<br>-------- ------- -- ---------- --- - --- ----- ----- ----<br>---- --- --- ----- --- ---- ---- ------- ----- ---- -------<br>--- --- -- ----- -- --- ---- -- --- ---- if ------ ------<br>--- ----- -- ----,155196,155194,154903.86,154903,154920.68,155204.08,,49,if
screen,html.Screen,2_1_0_1_50,2021-04-26T09:30:59.365Z,,,,,,,,,,,,,,,,,53,,,,,,,,,,,,,,271.9200000000128,,response,,,,99,,,,,,,Space,keypress(Space),,,,,,,,---- -- ----- -- ------ - ------- --- ----------<br>------------- ------ ------ ---- ---- ------- ----- -- ----<br>-------- ------- -- ---------- --- - --- ----- ----- ----<br>---- --- --- ----- --- ---- ---- ------- ----- ---- -------<br>--- --- -- ----- -- --- ---- -- --- ---- -- that's ------<br>--- ----- -- ----,155479,155476,155195.94,155196,155204.08,155487.4,,50,that's
screen,html.Screen,2_1_0_1_51,2021-04-26T09:30:59.676Z,,,,,,,,,,,,,,,,,53,,,,,,,,,,,,,,299.6000000000058,,response,,,,99,,,,,,,Space,keypress(Space),,,,,,,,---- -- ----- -- ------ - ------- --- ----------<br>------------- ------ ------ ---- ---- ------- ----- -- ----<br>-------- ------- -- ---------- --- - --- ----- ----- ----<br>---- --- --- ----- --- ---- ---- ------- ----- ---- -------<br>--- --- -- ----- -- --- ---- -- --- ---- -- ------ really<br>--- ----- -- ----,155792,155787,155480.02,155480,155487.4,155804.08,,51,really
screen,html.Screen,2_1_0_1_52,2021-04-26T09:31:00.053Z,,,,,,,,,,,,,,,,,53,,,,,,,,,,,,,,357.9200000000128,,response,,,,99,,,,,,,Space,keypress(Space),,,,,,,,---- -- ----- -- ------ - ------- --- ----------<br>------------- ------ ------ ---- ---- ------- ----- -- ----<br>-------- ------- -- ---------- --- - --- ----- ----- ----<br>---- --- --- ----- --- ---- ---- ------- ----- ---- -------<br>--- --- -- ----- -- --- ---- -- --- ---- -- ------ ------<br>not ----- -- ----,156168,156162,155791.74,155792,155804.08,156170.72,,52,not
screen,html.Screen,2_1_0_1_53,2021-04-26T09:31:00.397Z,,,,,,,,,,,,,,,,,53,,,,,,,,,,,,,,336.27999999999884,,response,,,,99,,,,,,,Space,keypress(Space),,,,,,,,---- -- ----- -- ------ - ------- --- ----------<br>------------- ------ ------ ---- ---- ------- ----- -- ----<br>-------- ------- -- ---------- --- - --- ----- ----- ----<br>---- --- --- ----- --- ---- ---- ------- ----- ---- -------<br>--- --- -- ----- -- --- ---- -- --- ---- -- ------ ------<br>--- close -- ----,156511,156507,156167.88,156168,156170.72,156520.62,,53,close
screen,html.Screen,2_1_0_1_54,2021-04-26T09:31:00.781Z,,,,,,,,,,,,,,,,,53,,,,,,,,,,,,,,360.38000000000466,,response,,,,99,,,,,,,Space,keypress(Space),,,,,,,,---- -- ----- -- ------ - ------- --- ----------<br>------------- ------ ------ ---- ---- ------- ----- -- ----<br>-------- ------- -- ---------- --- - --- ----- ----- ----<br>---- --- --- ----- --- ---- ---- ------- ----- ---- -------<br>--- --- -- ----- -- --- ---- -- --- ---- -- ------ ------<br>--- ----- at ----,156896,156881,156512,156511,156520.62,156904.02,,54,at
screen,html.Screen,2_1_0_1_55,2021-04-26T09:31:01.129Z,,,,,,,,,,,,,,,,,53,,,,,,,,,,,,,,335.9800000000105,,response,,,,99,,,,,,,Space,keypress(Space),,,,,,,,---- -- ----- -- ------ - ------- --- ----------<br>------------- ------ ------ ---- ---- ------- ----- -- ----<br>-------- ------- -- ---------- --- - --- ----- ----- ----<br>---- --- --- ----- --- ---- ---- ------- ----- ---- -------<br>--- --- -- ----- -- --- ---- -- --- ---- -- ------ ------<br>--- ----- -- all.,157243,157240,156895.94,156896,156904.02,157254.08,,55,all.
Item 99,flow.Loop,2_1_0_1,2021-04-26T09:31:01.129Z,,,,,,,,,,,,,,,,,,,,,,,,,,,,,,,52202.78,,completion,,,,,A,,,,,,,,,,,silence,,,,,157244,157240,105020.56,105022,105037.22,157254.08,,,
Question 1,html.Screen,2_1_0_2,2021-04-26T09:31:05.584Z,,,,,,,,,,,,,,,,,,,,,,,,,,,,true,FALSE,,4438.920000000013,,response,,,,99,A,,,,,,FALSE,click #choice-2,,,,silence,,,,,161698,161693,157244.42,157245,157254.08,161720.68,,,
Question 2,html.Screen,2_1_0_3,2021-04-26T09:31:11.845Z,,,,,,,,,,,,,,,,,,,,,,,,,,,,true,TRUE,,6222.320000000007,,response,,,,99,A,,,,,,TRUE,click #choice-1,,,,silence,,,,,167960,167943,161704.1,161698,161720.68,167987.4,,,
Item 99,flow.Sequence,2_1_0,2021-04-26T09:31:11.845Z,,,,,,,,,,,,,,,,,,,,,,,,,,,,,,,72905.7,,completion,,,,,,,,,,,,,,,,,,,,,167960,167943,95020.68,95014,95037.3,167987.4,,,
Holding screen,html.Screen,2_1_1_0,2021-04-26T09:31:21.857Z,,,,,,,,,,,,,,,,,,,,,,,,,,,,,,,9999.899999999994,,timeout,,,,,,,,,,,,,,,,,,,,,177972,177970.62,167970.72,167960,167987.4,177987.3,,,
screen,html.Screen,2_1_1_1_0,2021-04-26T09:31:22.553Z,,,,,,,,,,,,,,,,,54,,,,,,,,,,,,,,674.7000000000116,,response,,,,100,,,,,,,Space,keypress(Space),,,,,,,,At --- ---- --- ------ ----- ------- ---- -- --- ------- --<br>------- ---------- ------ -- ----- -- ----- -- ---- ------<br>--- ----- --- --- ------ -------- ----- --- ------ ----- --<br>----- ----- ---------- --- --- ------ ------ ---- -- ------<br>------- --- ------ ----- --- ---- ------- -- ---- --- --<br>------- ------,178667,178662,177970.62,177972,177987.3,178670.72,,0,At
screen,html.Screen,2_1_1_1_1,2021-04-26T09:31:23.305Z,,,,,,,,,,,,,,,,,54,,,,,,,,,,,,,,742.2799999999988,,response,,,,100,,,,,,,Space,keypress(Space),,,,,,,,-- the ---- --- ------ ----- ------- ---- -- --- ------- --<br>------- ---------- ------ -- ----- -- ----- -- ---- ------<br>--- ----- --- --- ------ -------- ----- --- ------ ----- --<br>----- ----- ---------- --- --- ------ ------ ---- -- ------<br>------- --- ------ ----- --- ---- ------- -- ---- --- --<br>------- ------,179419,179413,178667.96,178667,178670.72,179437.38,,1,the
screen,html.Screen,2_1_1_1_2,2021-04-26T09:31:23.693Z,,,,,,,,,,,,,,,,,54,,,,,,,,,,,,,,365.61999999999534,,response,,,,100,,,,,,,Space,keypress(Space),,,,,,,,-- --- time --- ------ ----- ------- ---- -- --- ------- --<br>------- ---------- ------ -- ----- -- ----- -- ---- ------<br>--- ----- --- --- ------ -------- ----- --- ------ ----- --<br>----- ----- ---------- --- --- ------ ------ ---- -- ------<br>------- --- ------ ----- --- ---- ------- -- ---- --- --<br>------- ------,179807,179803,179419.8,179419,179437.38,179820.74,,2,time
screen,html.Screen,2_1_1_1_3,2021-04-26T09:31:24.069Z,,,,,,,,,,,,,,,,,54,,,,,,,,,,,,,,357.2600000000093,,response,,,,100,,,,,,,Space,keypress(Space),,,,,,,,-- --- ---- the ------ ----- ------- ---- -- --- ------- --<br>------- ---------- ------ -- ----- -- ----- -- ---- ------<br>--- ----- --- --- ------ -------- ----- --- ------ ----- --<br>----- ----- ---------- --- --- ------ ------ ---- -- ------<br>------- --- ------ ----- --- ---- ------- -- ---- --- --<br>------- ------,180183,180178,179808.1,179808,179820.74,180187.42,,3,the
screen,html.Screen,2_1_1_1_4,2021-04-26T09:31:24.381Z,,,,,,,,,,,,,,,,,54,,,,,,,,,,,,,,303.5799999999872,,response,,,,100,,,,,,,Space,keypress(Space),,,,,,,,-- --- ---- --- French ----- ------- ---- -- --- ------- --<br>------- ---------- ------ -- ----- -- ----- -- ---- ------<br>--- ----- --- --- ------ -------- ----- --- ------ ----- --<br>----- ----- ---------- --- --- ------ ------ ---- -- ------<br>------- --- ------ ----- --- ---- ------- -- ---- --- --<br>------- ------,180496,180491,180184.04,180183,180187.42,180504.12,,4,French
screen,html.Screen,2_1_1_1_5,2021-04-26T09:31:24.673Z,,,,,,,,,,,,,,,,,54,,,,,,,,,,,,,,266.88000000000466,,response,,,,100,,,,,,,Space,keypress(Space),,,,,,,,-- --- ---- --- ------ crown ------- ---- -- --- ------- --<br>------- ---------- ------ -- ----- -- ----- -- ---- ------<br>--- ----- --- --- ------ -------- ----- --- ------ ----- --<br>----- ----- ---------- --- --- ------ ------ ---- -- ------<br>------- --- ------ ----- --- ---- ------- -- ---- --- --<br>------- ------,180787,180771,180496.04,180496,180504.12,180804.12,,5,crown
screen,html.Screen,2_1_1_1_6,2021-04-26T09:31:25.017Z,,,,,,,,,,,,,,,,,54,,,,,,,,,,,,,,311.88000000000466,,response,,,,100,,,,,,,Space,keypress(Space),,,,,,,,-- --- ---- --- ------ ----- secured ---- -- --- ------- --<br>------- ---------- ------ -- ----- -- ----- -- ---- ------<br>--- ----- --- --- ------ -------- ----- --- ------ ----- --<br>----- ----- ---------- --- --- ------ ------ ---- -- ------<br>------- --- ------ ----- --- ---- ------- -- ---- --- --<br>------- ------,181131,181116,180788.06,180788,180804.12,181137.42,,6,secured
screen,html.Screen,2_1_1_1_7,2021-04-26T09:31:25.769Z,,,,,,,,,,,,,,,,,54,,,,,,,,,,,,,,743.5799999999872,,response,,,,100,,,,,,,Space,keypress(Space),,,,,,,,-- --- ---- --- ------ ----- ------- much -- --- ------- --<br>------- ---------- ------ -- ----- -- ----- -- ---- ------<br>--- ----- --- --- ------ -------- ----- --- ------ ----- --<br>----- ----- ---------- --- --- ------ ------ ---- -- ------<br>------- --- ------ ----- --- ---- ------- -- ---- --- --<br>------- ------,181884,181881,181131.84,181131,181137.42,181887.36,,7,much
screen,html.Screen,2_1_1_1_8,2021-04-26T09:31:26.074Z,,,,,,,,,,,,,,,,,54,,,,,,,,,,,,,,290.64000000001397,,response,,,,100,,,,,,,Space,keypress(Space),,,,,,,,-- --- ---- --- ------ ----- ------- ---- of --- ------- --<br>------- ---------- ------ -- ----- -- ----- -- ---- ------<br>--- ----- --- --- ------ -------- ----- --- ------ ----- --<br>----- ----- ---------- --- --- ------ ------ ---- -- ------<br>------- --- ------ ----- --- ---- ------- -- ---- --- --<br>------- ------,182188,182178,181884.04,181884,181887.36,182204.12,,8,of
screen,html.Screen,2_1_1_1_9,2021-04-26T09:31:26.412Z,,,,,,,,,,,,,,,,,54,,,,,,,,,,,,,,317.88000000000466,,response,,,,100,,,,,,,Space,keypress(Space),,,,,,,,-- --- ---- --- ------ ----- ------- ---- -- its ------- --<br>------- ---------- ------ -- ----- -- ----- -- ---- ------<br>--- ----- --- --- ------ -------- ----- --- ------ ----- --<br>----- ----- ---------- --- --- ------ ------ ---- -- ------<br>------- --- ------ ----- --- ---- ------- -- ---- --- --<br>------- ------,182527,182522,182188.1,182188,182204.12,182537.32,,9,its
screen,html.Screen,2_1_1_1_10,2021-04-26T09:31:26.749Z,,,,,,,,,,,,,,,,,54,,,,,,,,,,,,,,312.679999999993,,response,,,,100,,,,,,,Space,keypress(Space),,,,,,,,-- --- ---- --- ------ ----- ------- ---- -- --- revenue --<br>------- ---------- ------ -- ----- -- ----- -- ---- ------<br>--- ----- --- --- ------ -------- ----- --- ------ ----- --<br>----- ----- ---------- --- --- ------ ------ ---- -- ------<br>------- --- ------ ----- --- ---- ------- -- ---- --- --<br>------- ------,182864,182850,182527.2,182527,182537.32,182870.78,,10,revenue
screen,html.Screen,2_1_1_1_11,2021-04-26T09:31:27.145Z,,,,,,,,,,,,,,,,,54,,,,,,,,,,,,,,385.22000000000116,,response,,,,100,,,,,,,Space,keypress(Space),,,,,,,,-- --- ---- --- ------ ----- ------- ---- -- --- ------- by<br>------- ---------- ------ -- ----- -- ----- -- ---- ------<br>--- ----- --- --- ------ -------- ----- --- ------ ----- --<br>----- ----- ---------- --- --- ------ ------ ---- -- ------<br>------- --- ------ ----- --- ---- ------- -- ---- --- --<br>------- ------,183259,183256,182864.22,182864,182870.78,183270.78,,11,by
screen,html.Screen,2_1_1_1_12,2021-04-26T09:31:27.545Z,,,,,,,,,,,,,,,,,54,,,,,,,,,,,,,,375.22000000000116,,response,,,,100,,,,,,,Space,keypress(Space),,,,,,,,-- --- ---- --- ------ ----- ------- ---- -- --- ------- --<br>issuing ---------- ------ -- ----- -- ----- -- ---- ------<br>--- ----- --- --- ------ -------- ----- --- ------ ----- --<br>----- ----- ---------- --- --- ------ ------ ---- -- ------<br>------- --- ------ ----- --- ---- ------- -- ---- --- --<br>------- ------,183660,183646,183260.26,183260,183270.78,183670.72,,12,issuing
screen,html.Screen,2_1_1_1_13,2021-04-26T09:31:27.689Z,,,,,,,,,,,,,,,,,54,,,,,,,,,,,,,,116.27999999999884,,response,,,,100,,,,,,,Space,keypress(Space),,,,,,,,-- --- ---- --- ------ ----- ------- ---- -- --- ------- --<br>------- government ------ -- ----- -- ----- -- ---- ------<br>--- ----- --- --- ------ -------- ----- --- ------ ----- --<br>----- ----- ---------- --- --- ------ ------ ---- -- ------<br>------- --- ------ ----- --- ---- ------- -- ---- --- --<br>------- ------,183803,183787,183659.98,183660,183670.72,183820.72,,13,government
screen,html.Screen,2_1_1_1_14,2021-04-26T09:31:28.445Z,,,,,,,,,,,,,,,,,54,,,,,,,,,,,,,,732.2799999999988,,response,,,,100,,,,,,,Space,keypress(Space),,,,,,,,-- --- ---- --- ------ ----- ------- ---- -- --- ------- --<br>------- ---------- bonds. -- ----- -- ----- -- ---- ------<br>--- ----- --- --- ------ -------- ----- --- ------ ----- --<br>----- ----- ---------- --- --- ------ ------ ---- -- ------<br>------- --- ------ ----- --- ---- ------- -- ---- --- --<br>------- ------,184559,184553,183804.04,183803,183820.72,184570.74,,14,bonds.
screen,html.Screen,2_1_1_1_15,2021-04-26T09:31:28.817Z,,,,,,,,,,,,,,,,,54,,,,,,,,,,,,,,357.2600000000093,,response,,,,100,,,,,,,Space,keypress(Space),,,,,,,,-- --- ---- --- ------ ----- ------- ---- -- --- ------- --<br>------- ---------- ------ In ----- -- ----- -- ---- ------<br>--- ----- --- --- ------ -------- ----- --- ------ ----- --<br>----- ----- ---------- --- --- ------ ------ ---- -- ------<br>------- --- ------ ----- --- ---- ------- -- ---- --- --<br>------- ------,184932,184928,184559.94,184559,184570.74,184937.42,,15,In
screen,html.Screen,2_1_1_1_16,2021-04-26T09:31:29.109Z,,,,,,,,,,,,,,,,,54,,,,,,,,,,,,,,271.5799999999872,,response,,,,100,,,,,,,Space,keypress(Space),,,,,,,,"-- --- ---- --- ------ ----- ------- ---- -- --- ------- --<br>------- ---------- ------ -- 1727, -- ----- -- ---- ------<br>--- ----- --- --- ------ -------- ----- --- ------ ----- --<br>----- ----- ---------- --- --- ------ ------ ---- -- ------<br>------- --- ------ ----- --- ---- ------- -- ---- --- --<br>------- ------",185224,185209,184931.62,184932,184937.42,185237.44,,16,"1727,"
screen,html.Screen,2_1_1_1_17,2021-04-26T09:31:30.241Z,,,,,,,,,,,,,,,,,54,,,,,,,,,,,,,,1112.5599999999977,,response,,,,100,,,,,,,Space,keypress(Space),,,,,,,,-- --- ---- --- ------ ----- ------- ---- -- --- ------- --<br>------- ---------- ------ -- ----- in ----- -- ---- ------<br>--- ----- --- --- ------ -------- ----- --- ------ ----- --<br>----- ----- ---------- --- --- ------ ------ ---- -- ------<br>------- --- ------ ----- --- ---- ------- -- ---- --- --<br>------- ------,186355,186350,185224.04,185224,185237.44,186370.78,,17,in
screen,html.Screen,2_1_1_1_18,2021-04-26T09:31:30.281Z,,,,,,,,,,,,,,,,,54,,,,,,,,,,,,,,10.220000000001164,,response,,,,100,,,,,,,Space,keypress(Space),,,,,,,,-- --- ---- --- ------ ----- ------- ---- -- --- ------- --<br>------- ---------- ------ -- ----- -- order -- ---- ------<br>--- ----- --- --- ------ -------- ----- --- ------ ----- --<br>----- ----- ---------- --- --- ------ ------ ---- -- ------<br>------- --- ------ ----- --- ---- ------- -- ---- --- --<br>------- ------,186396,186381,186355.78,186355,186370.78,186420.72,,18,order
screen,html.Screen,2_1_1_1_19,2021-04-26T09:31:31.481Z,,,,,,,,,,,,,,,,,54,,,,,,,,,,,,,,1163.2799999999988,,response,,,,100,,,,,,,Space,keypress(Space),,,,,,,,-- --- ---- --- ------ ----- ------- ---- -- --- ------- --<br>------- ---------- ------ -- ----- -- ----- to ---- ------<br>--- ----- --- --- ------ -------- ----- --- ------ ----- --<br>----- ----- ---------- --- --- ------ ------ ---- -- ------<br>------- --- ------ ----- --- ---- ------- -- ---- --- --<br>------- ------,187596,187584,186404.08,186396,186420.72,187604.12,,19,to
screen,html.Screen,2_1_1_1_20,2021-04-26T09:31:31.865Z,,,,,,,,,,,,,,,,,54,,,,,,,,,,,,,,370.88000000000466,,response,,,,100,,,,,,,Space,keypress(Space),,,,,,,,-- --- ---- --- ------ ----- ------- ---- -- --- ------- --<br>------- ---------- ------ -- ----- -- ----- -- save ------<br>--- ----- --- --- ------ -------- ----- --- ------ ----- --<br>----- ----- ---------- --- --- ------ ------ ---- -- ------<br>------- --- ------ ----- --- ---- ------- -- ---- --- --<br>------- ------,187979,187975,187595.98,187596,187604.12,187987.44,,20,save
screen,html.Screen,2_1_1_1_21,2021-04-26T09:31:32.289Z,,,,,,,,,,,,,,,,,54,,,,,,,,,,,,,,408.5599999999977,,response,,,,100,,,,,,,Space,keypress(Space),,,,,,,,"-- --- ---- --- ------ ----- ------- ---- -- --- ------- --<br>------- ---------- ------ -- ----- -- ----- -- ---- money,<br>--- ----- --- --- ------ -------- ----- --- ------ ----- --<br>----- ----- ---------- --- --- ------ ------ ---- -- ------<br>------- --- ------ ----- --- ---- ------- -- ---- --- --<br>------- ------",188404,188396,187979.88,187979,187987.44,188420.72,,21,"money,"
screen,html.Screen,2_1_1_1_22,2021-04-26T09:31:33.257Z,,,,,,,,,,,,,,,,,54,,,,,,,,,,,,,,945.2799999999988,,response,,,,100,,,,,,,Space,keypress(Space),,,,,,,,-- --- ---- --- ------ ----- ------- ---- -- --- ------- --<br>------- ---------- ------ -- ----- -- ----- -- ---- ------<br>the ----- --- --- ------ -------- ----- --- ------ ----- --<br>----- ----- ---------- --- --- ------ ------ ---- -- ------<br>------- --- ------ ----- --- ---- ------- -- ---- --- --<br>------- ------,189371,189366,188403.9,188404,188420.72,189387.46,,22,the
screen,html.Screen,2_1_1_1_23,2021-04-26T09:31:33.745Z,,,,,,,,,,,,,,,,,54,,,,,,,,,,,,,,462.54000000000815,,response,,,,100,,,,,,,Space,keypress(Space),,,,,,,,-- --- ---- --- ------ ----- ------- ---- -- --- ------- --<br>------- ---------- ------ -- ----- -- ----- -- ---- ------<br>--- state --- --- ------ -------- ----- --- ------ ----- --<br>----- ----- ---------- --- --- ------ ------ ---- -- ------<br>------- --- ------ ----- --- ---- ------- -- ---- --- --<br>------- ------,189859,189850,189372.08,189371,189387.46,189870.8,,23,state
screen,html.Screen,2_1_1_1_24,2021-04-26T09:31:34.161Z,,,,,,,,,,,,,,,,,54,,,,,,,,,,,,,,401.20000000001164,,response,,,,100,,,,,,,Space,keypress(Space),,,,,,,,-- --- ---- --- ------ ----- ------- ---- -- --- ------- --<br>------- ---------- ------ -- ----- -- ----- -- ---- ------<br>--- ----- cut --- ------ -------- ----- --- ------ ----- --<br>----- ----- ---------- --- --- ------ ------ ---- -- ------<br>------- --- ------ ----- --- ---- ------- -- ---- --- --<br>------- ------,190276,190272,189859.92,189859,189870.8,190287.44,,24,cut
screen,html.Screen,2_1_1_1_25,2021-04-26T09:31:34.505Z,,,,,,,,,,,,,,,,,54,,,,,,,,,,,,,,327.5599999999977,,response,,,,100,,,,,,,Space,keypress(Space),,,,,,,,-- --- ---- --- ------ ----- ------- ---- -- --- ------- --<br>------- ---------- ------ -- ----- -- ----- -- ---- ------<br>--- ----- --- the ------ -------- ----- --- ------ ----- --<br>----- ----- ---------- --- --- ------ ------ ---- -- ------<br>------- --- ------ ----- --- ---- ------- -- ---- --- --<br>------- ------,190620,190615,190276.12,190276,190287.44,190637.42,,25,the
screen,html.Screen,2_1_1_1_26,2021-04-26T09:31:34.805Z,,,,,,,,,,,,,,,,,54,,,,,,,,,,,,,,275.5799999999872,,response,,,,100,,,,,,,Space,keypress(Space),,,,,,,,-- --- ---- --- ------ ----- ------- ---- -- --- ------- --<br>------- ---------- ------ -- ----- -- ----- -- ---- ------<br>--- ----- --- --- bonds' -------- ----- --- ------ ----- --<br>----- ----- ---------- --- --- ------ ------ ---- -- ------<br>------- --- ------ ----- --- ---- ------- -- ---- --- --<br>------- ------,190919,190913,190620,190620,190637.42,190920.68,,26,bonds'
screen,html.Screen,2_1_1_1_27,2021-04-26T09:31:35.201Z,,,,,,,,,,,,,,,,,54,,,,,,,,,,,,,,382.320000000007,,response,,,,100,,,,,,,Space,keypress(Space),,,,,,,,-- --- ---- --- ------ ----- ------- ---- -- --- ------- --<br>------- ---------- ------ -- ----- -- ----- -- ---- ------<br>--- ----- --- --- ------ interest ----- --- ------ ----- --<br>----- ----- ---------- --- --- ------ ------ ---- -- ------<br>------- --- ------ ----- --- ---- ------- -- ---- --- --<br>------- ------,191316,191303,190919.6,190919,190920.68,191320.64,,27,interest
screen,html.Screen,2_1_1_1_28,2021-04-26T09:31:35.529Z,,,,,,,,,,,,,,,,,54,,,,,,,,,,,,,,310.35999999998603,,response,,,,100,,,,,,,Space,keypress(Space),,,,,,,,-- --- ---- --- ------ ----- ------- ---- -- --- ------- --<br>------- ---------- ------ -- ----- -- ----- -- ---- ------<br>--- ----- --- --- ------ -------- rate. --- ------ ----- --<br>----- ----- ---------- --- --- ------ ------ ---- -- ------<br>------- --- ------ ----- --- ---- ------- -- ---- --- --<br>------- ------,191644,191631,191316.02,191316,191320.64,191654.12,,28,rate.
screen,html.Screen,2_1_1_1_29,2021-04-26T09:31:35.930Z,,,,,,,,,,,,,,,,,54,,,,,,,,,,,,,,382.88000000000466,,response,,,,100,,,,,,,Space,keypress(Space),,,,,,,,-- --- ---- --- ------ ----- ------- ---- -- --- ------- --<br>------- ---------- ------ -- ----- -- ----- -- ---- ------<br>--- ----- --- --- ------ -------- ----- The ------ ----- --<br>----- ----- ---------- --- --- ------ ------ ---- -- ------<br>------- --- ------ ----- --- ---- ------- -- ---- --- --<br>------- ------,192044,192037,191644.16,191644,191654.12,192054.12,,29,The
screen,html.Screen,2_1_1_1_30,2021-04-26T09:31:36.329Z,,,,,,,,,,,,,,,,,54,,,,,,,,,,,,,,374.88000000000466,,response,,,,100,,,,,,,Space,keypress(Space),,,,,,,,-- --- ---- --- ------ ----- ------- ---- -- --- ------- --<br>------- ---------- ------ -- ----- -- ----- -- ---- ------<br>--- ----- --- --- ------ -------- ----- --- market ----- --<br>----- ----- ---------- --- --- ------ ------ ---- -- ------<br>------- --- ------ ----- --- ---- ------- -- ---- --- --<br>------- ------,192443,192429,192044.14,192044,192054.12,192454.12,,30,market
screen,html.Screen,2_1_1_1_31,2021-04-26T09:31:36.733Z,,,,,,,,,,,,,,,,,54,,,,,,,,,,,,,,380.88000000000466,,response,,,,100,,,,,,,Space,keypress(Space),,,,,,,,-- --- ---- --- ------ ----- ------- ---- -- --- ------- --<br>------- ---------- ------ -- ----- -- ----- -- ---- ------<br>--- ----- --- --- ------ -------- ----- --- ------ value --<br>----- ----- ---------- --- --- ------ ------ ---- -- ------<br>------- --- ------ ----- --- ---- ------- -- ---- --- --<br>------- ------,192848,192835,192443.76,192443,192454.12,192854.12,,31,value
screen,html.Screen,2_1_1_1_32,2021-04-26T09:31:37.065Z,,,,,,,,,,,,,,,,,54,,,,,,,,,,,,,,308.88000000000466,,response,,,,100,,,,,,,Space,keypress(Space),,,,,,,,-- --- ---- --- ------ ----- ------- ---- -- --- ------- --<br>------- ---------- ------ -- ----- -- ----- -- ---- ------<br>--- ----- --- --- ------ -------- ----- --- ------ ----- of<br>----- ----- ---------- --- --- ------ ------ ---- -- ------<br>------- --- ------ ----- --- ---- ------- -- ---- --- --<br>------- ------,193180,193163,192848.1,192848,192854.12,193187.44,,32,of
screen,html.Screen,2_1_1_1_33,2021-04-26T09:31:37.401Z,,,,,,,,,,,,,,,,,54,,,,,,,,,,,,,,318.5599999999977,,response,,,,100,,,,,,,Space,keypress(Space),,,,,,,,-- --- ---- --- ------ ----- ------- ---- -- --- ------- --<br>------- ---------- ------ -- ----- -- ----- -- ---- ------<br>--- ----- --- --- ------ -------- ----- --- ------ ----- --<br>these ----- ---------- --- --- ------ ------ ---- -- ------<br>------- --- ------ ----- --- ---- ------- -- ---- --- --<br>------- ------,193516,193506,193179.98,193180,193187.44,193520.7,,33,these
screen,html.Screen,2_1_1_1_34,2021-04-26T09:31:37.742Z,,,,,,,,,,,,,,,,,54,,,,,,,,,,,,,,329.29999999998836,,response,,,,100,,,,,,,Space,keypress(Space),,,,,,,,-- --- ---- --- ------ ----- ------- ---- -- --- ------- --<br>------- ---------- ------ -- ----- -- ----- -- ---- ------<br>--- ----- --- --- ------ -------- ----- --- ------ ----- --<br>----- bonds ---------- --- --- ------ ------ ---- -- ------<br>------- --- ------ ----- --- ---- ------- -- ---- --- --<br>------- ------,193856,193850,193515.82,193516,193520.7,193870.8,,34,bonds
screen,html.Screen,2_1_1_1_35,2021-04-26T09:31:38.093Z,,,,,,,,,,,,,,,,,54,,,,,,,,,,,,,,323.20000000001164,,response,,,,100,,,,,,,Space,keypress(Space),,,,,,,,"-- --- ---- --- ------ ----- ------- ---- -- --- ------- --<br>------- ---------- ------ -- ----- -- ----- -- ---- ------<br>--- ----- --- --- ------ -------- ----- --- ------ ----- --<br>----- ----- plummeted, --- --- ------ ------ ---- -- ------<br>------- --- ------ ----- --- ---- ------- -- ---- --- --<br>------- ------",194207,194194,193855.98,193856,193870.8,194220.74,,35,"plummeted,"
screen,html.Screen,2_1_1_1_36,2021-04-26T09:31:38.493Z,,,,,,,,,,,,,,,,,54,,,,,,,,,,,,,,380.2600000000093,,response,,,,100,,,,,,,Space,keypress(Space),,,,,,,,-- --- ---- --- ------ ----- ------- ---- -- --- ------- --<br>------- ---------- ------ -- ----- -- ----- -- ---- ------<br>--- ----- --- --- ------ -------- ----- --- ------ ----- --<br>----- ----- ---------- and --- ------ ------ ---- -- ------<br>------- --- ------ ----- --- ---- ------- -- ---- --- --<br>------- ------,194607,194601,194207.98,194207,194220.74,194620.72,,36,and
screen,html.Screen,2_1_1_1_37,2021-04-26T09:31:38.793Z,,,,,,,,,,,,,,,,,54,,,,,,,,,,,,,,275.27999999999884,,response,,,,100,,,,,,,Space,keypress(Space),,,,,,,,-- --- ---- --- ------ ----- ------- ---- -- --- ------- --<br>------- ---------- ------ -- ----- -- ----- -- ---- ------<br>--- ----- --- --- ------ -------- ----- --- ------ ----- --<br>----- ----- ---------- --- the ------ ------ ---- -- ------<br>------- --- ------ ----- --- ---- ------- -- ---- --- --<br>------- ------,194907,194896,194607.86,194607,194620.72,194920.7,,37,the
screen,html.Screen,2_1_1_1_38,2021-04-26T09:31:39.057Z,,,,,,,,,,,,,,,,,54,,,,,,,,,,,,,,242.29999999998836,,response,,,,100,,,,,,,Space,keypress(Space),,,,,,,,-- --- ---- --- ------ ----- ------- ---- -- --- ------- --<br>------- ---------- ------ -- ----- -- ----- -- ---- ------<br>--- ----- --- --- ------ -------- ----- --- ------ ----- --<br>----- ----- ---------- --- --- market ------ ---- -- ------<br>------- --- ------ ----- --- ---- ------- -- ---- --- --<br>------- ------,195171,195163,194908.02,194907,194920.7,195187.46,,38,market
screen,html.Screen,2_1_1_1_39,2021-04-26T09:31:39.193Z,,,,,,,,,,,,,,,,,54,,,,,,,,,,,,,,116.54000000000815,,response,,,,100,,,,,,,Space,keypress(Space),,,,,,,,-- --- ---- --- ------ ----- ------- ---- -- --- ------- --<br>------- ---------- ------ -- ----- -- ----- -- ---- ------<br>--- ----- --- --- ------ -------- ----- --- ------ ----- --<br>----- ----- ---------- --- --- ------ became ---- -- ------<br>------- --- ------ ----- --- ---- ------- -- ---- --- --<br>------- ------,195308,195304,195172.08,195171,195187.46,195337.38,,39,became
screen,html.Screen,2_1_1_1_40,2021-04-26T09:31:39.341Z,,,,,,,,,,,,,,,,,54,,,,,,,,,,,,,,105.61999999999534,,response,,,,100,,,,,,,Space,keypress(Space),,,,,,,,-- --- ---- --- ------ ----- ------- ---- -- --- ------- --<br>------- ---------- ------ -- ----- -- ----- -- ---- ------<br>--- ----- --- --- ------ -------- ----- --- ------ ----- --<br>----- ----- ---------- --- --- ------ ------ wary -- ------<br>------- --- ------ ----- --- ---- ------- -- ---- --- --<br>------- ------,195456,195443,195320.7,195308,195337.38,195487.38,,40,wary
screen,html.Screen,2_1_1_1_41,2021-04-26T09:31:39.789Z,,,,,,,,,,,,,,,,,54,,,,,,,,,,,,,,408.61999999999534,,response,,,,100,,,,,,,Space,keypress(Space),,,,,,,,-- --- ---- --- ------ ----- ------- ---- -- --- ------- --<br>------- ---------- ------ -- ----- -- ----- -- ---- ------<br>--- ----- --- --- ------ -------- ----- --- ------ ----- --<br>----- ----- ---------- --- --- ------ ------ ---- of ------<br>------- --- ------ ----- --- ---- ------- -- ---- --- --<br>------- ------,195904,195896,195470.7,195456,195487.38,195920.72,,41,of
screen,html.Screen,2_1_1_1_42,2021-04-26T09:31:40.149Z,,,,,,,,,,,,,,,,,54,,,,,,,,,,,,,,336.27999999999884,,response,,,,100,,,,,,,Space,keypress(Space),,,,,,,,-- --- ---- --- ------ ----- ------- ---- -- --- ------- --<br>------- ---------- ------ -- ----- -- ----- -- ---- ------<br>--- ----- --- --- ------ -------- ----- --- ------ ----- --<br>----- ----- ---------- --- --- ------ ------ ---- -- French<br>------- --- ------ ----- --- ---- ------- -- ---- --- --<br>------- ------,196263,196257,195904.14,195904,195920.72,196270.78,,42,French
screen,html.Screen,2_1_1_1_43,2021-04-26T09:31:40.542Z,,,,,,,,,,,,,,,,,54,,,,,,,,,,,,,,375.22000000000116,,response,,,,100,,,,,,,Space,keypress(Space),,,,,,,,-- --- ---- --- ------ ----- ------- ---- -- --- ------- --<br>------- ---------- ------ -- ----- -- ----- -- ---- ------<br>--- ----- --- --- ------ -------- ----- --- ------ ----- --<br>----- ----- ---------- --- --- ------ ------ ---- -- ------<br>credit. --- ------ ----- --- ---- ------- -- ---- --- --<br>------- ------,196655,196646,196263.82,196264,196270.78,196670.8,,43,credit.
screen,html.Screen,2_1_1_1_44,2021-04-26T09:31:40.917Z,,,,,,,,,,,,,,,,,54,,,,,,,,,,,,,,350.20000000001164,,response,,,,100,,,,,,,Space,keypress(Space),,,,,,,,-- --- ---- --- ------ ----- ------- ---- -- --- ------- --<br>------- ---------- ------ -- ----- -- ----- -- ---- ------<br>--- ----- --- --- ------ -------- ----- --- ------ ----- --<br>----- ----- ---------- --- --- ------ ------ ---- -- ------<br>------- The ------ ----- --- ---- ------- -- ---- --- --<br>------- ------,197031,197021,196655.96,196655,196670.8,197037.44,,44,The
screen,html.Screen,2_1_1_1_45,2021-04-26T09:31:41.341Z,,,,,,,,,,,,,,,,,54,,,,,,,,,,,,,,405.5599999999977,,response,,,,100,,,,,,,Space,keypress(Space),,,,,,,,-- --- ---- --- ------ ----- ------- ---- -- --- ------- --<br>------- ---------- ------ -- ----- -- ----- -- ---- ------<br>--- ----- --- --- ------ -------- ----- --- ------ ----- --<br>----- ----- ---------- --- --- ------ ------ ---- -- ------<br>------- --- French ----- --- ---- ------- -- ---- --- --<br>------- ------,197456,197443,197031.84,197031,197037.44,197470.8,,45,French
screen,html.Screen,2_1_1_1_46,2021-04-26T09:31:41.697Z,,,,,,,,,,,,,,,,,54,,,,,,,,,,,,,,332.20000000001164,,response,,,,100,,,,,,,Space,keypress(Space),,,,,,,,-- --- ---- --- ------ ----- ------- ---- -- --- ------- --<br>------- ---------- ------ -- ----- -- ----- -- ---- ------<br>--- ----- --- --- ------ -------- ----- --- ------ ----- --<br>----- ----- ---------- --- --- ------ ------ ---- -- ------<br>------- --- ------ state --- ---- ------- -- ---- --- --<br>------- ------,197811,197803,197455.84,197456,197470.8,197820.74,,46,state
screen,html.Screen,2_1_1_1_47,2021-04-26T09:31:42.033Z,,,,,,,,,,,,,,,,,54,,,,,,,,,,,,,,310.2600000000093,,response,,,,100,,,,,,,Space,keypress(Space),,,,,,,,-- --- ---- --- ------ ----- ------- ---- -- --- ------- --<br>------- ---------- ------ -- ----- -- ----- -- ---- ------<br>--- ----- --- --- ------ -------- ----- --- ------ ----- --<br>----- ----- ---------- --- --- ------ ------ ---- -- ------<br>------- --- ------ ----- was ---- ------- -- ---- --- --<br>------- ------,198148,198131,197811.98,197812,197820.74,198154.12,,47,was
screen,html.Screen,2_1_1_1_48,2021-04-26T09:31:42.349Z,,,,,,,,,,,,,,,,,54,,,,,,,,,,,,,,304.88000000000466,,response,,,,100,,,,,,,Space,keypress(Space),,,,,,,,-- --- ---- --- ------ ----- ------- ---- -- --- ------- --<br>------- ---------- ------ -- ----- -- ----- -- ---- ------<br>--- ----- --- --- ------ -------- ----- --- ------ ----- --<br>----- ----- ---------- --- --- ------ ------ ---- -- ------<br>------- --- ------ ----- --- left ------- -- ---- --- --<br>------- ------,198464,198459,198147.96,198148,198154.12,198470.72,,48,left
screen,html.Screen,2_1_1_1_49,2021-04-26T09:31:42.689Z,,,,,,,,,,,,,,,,,54,,,,,,,,,,,,,,317.27999999999884,,response,,,,100,,,,,,,Space,keypress(Space),,,,,,,,-- --- ---- --- ------ ----- ------- ---- -- --- ------- --<br>------- ---------- ------ -- ----- -- ----- -- ---- ------<br>--- ----- --- --- ------ -------- ----- --- ------ ----- --<br>----- ----- ---------- --- --- ------ ------ ---- -- ------<br>------- --- ------ ----- --- ---- without -- ---- --- --<br>------- ------,198804,198788,198463.84,198464,198470.72,198820.7,,49,without
screen,html.Screen,2_1_1_1_50,2021-04-26T09:31:43.013Z,,,,,,,,,,,,,,,,,54,,,,,,,,,,,,,,294.29999999998836,,response,,,,100,,,,,,,Space,keypress(Space),,,,,,,,-- --- ---- --- ------ ----- ------- ---- -- --- ------- --<br>------- ---------- ------ -- ----- -- ----- -- ---- ------<br>--- ----- --- --- ------ -------- ----- --- ------ ----- --<br>----- ----- ---------- --- --- ------ ------ ---- -- ------<br>------- --- ------ ----- --- ---- ------- an ---- --- --<br>------- ------,199128,199115,198803.88,198804,198820.7,199137.44,,50,an
screen,html.Screen,2_1_1_1_51,2021-04-26T09:31:43.349Z,,,,,,,,,,,,,,,,,54,,,,,,,,,,,,,,322.5599999999977,,response,,,,100,,,,,,,Space,keypress(Space),,,,,,,,-- --- ---- --- ------ ----- ------- ---- -- --- ------- --<br>------- ---------- ------ -- ----- -- ----- -- ---- ------<br>--- ----- --- --- ------ -------- ----- --- ------ ----- --<br>----- ----- ---------- --- --- ------ ------ ---- -- ------<br>------- --- ------ ----- --- ---- ------- -- easy --- --<br>------- ------,199464,199460,199127.94,199128,199137.44,199470.8,,51,easy
screen,html.Screen,2_1_1_1_52,2021-04-26T09:31:43.633Z,,,,,,,,,,,,,,,,,54,,,,,,,,,,,,,,269.20000000001164,,response,,,,100,,,,,,,Space,keypress(Space),,,,,,,,-- --- ---- --- ------ ----- ------- ---- -- --- ------- --<br>------- ---------- ------ -- ----- -- ----- -- ---- ------<br>--- ----- --- --- ------ -------- ----- --- ------ ----- --<br>----- ----- ---------- --- --- ------ ------ ---- -- ------<br>------- --- ------ ----- --- ---- ------- -- ---- way --<br>------- ------,199748,199740,199464.06,199464,199470.8,199754.12,,52,way
screen,html.Screen,2_1_1_1_53,2021-04-26T09:31:44.038Z,,,,,,,,,,,,,,,,,54,,,,,,,,,,,,,,392.88000000000466,,response,,,,100,,,,,,,Space,keypress(Space),,,,,,,,-- --- ---- --- ------ ----- ------- ---- -- --- ------- --<br>------- ---------- ------ -- ----- -- ----- -- ---- ------<br>--- ----- --- --- ------ -------- ----- --- ------ ----- --<br>----- ----- ---------- --- --- ------ ------ ---- -- ------<br>------- --- ------ ----- --- ---- ------- -- ---- --- of<br>------- ------,200152,200147,199747.98,199748,199754.12,200154.04,,53,of
screen,html.Screen,2_1_1_1_54,2021-04-26T09:31:44.621Z,,,,,,,,,,,,,,,,,54,,,,,,,,,,,,,,571.9599999999919,,response,,,,100,,,,,,,Space,keypress(Space),,,,,,,,-- --- ---- --- ------ ----- ------- ---- -- --- ------- --<br>------- ---------- ------ -- ----- -- ----- -- ---- ------<br>--- ----- --- --- ------ -------- ----- --- ------ ----- --<br>----- ----- ---------- --- --- ------ ------ ---- -- ------<br>------- --- ------ ----- --- ---- ------- -- ---- --- --<br>raising ------,200735,200726,200151.96,200152,200154.04,200737.4,,54,raising
screen,html.Screen,2_1_1_1_55,2021-04-26T09:31:46.765Z,,,,,,,,,,,,,,,,,54,,,,,,,,,,,,,,2127.600000000006,,response,,,,100,,,,,,,Space,keypress(Space),,,,,,,,-- --- ---- --- ------ ----- ------- ---- -- --- ------- --<br>------- ---------- ------ -- ----- -- ----- -- ---- ------<br>--- ----- --- --- ------ -------- ----- --- ------ ----- --<br>----- ----- ---------- --- --- ------ ------ ---- -- ------<br>------- --- ------ ----- --- ---- ------- -- ---- --- --<br>------- money.,202880,202865,200735.98,200735,200737.4,202887.46,,55,money.
Item 100,flow.Loop,2_1_1_1,2021-04-26T09:31:46.765Z,,,,,,,,,,,,,,,,,,,,,,,,,,,,,,,24877.70000000001,,completion,,,,,A,,,,,,,,,,,silence,,,,,202880,202865,177970.62,177972,177987.3,202887.46,,,
Question 1,html.Screen,2_1_1_2,2021-04-26T09:31:49.443Z,,,,,,,,,,,,,,,,,,,,,,,,,,,,true,TRUE,,2666.540000000008,,response,,,,100,A,,,,,,TRUE,click #choice-1,,,,silence,,,,,205558,205554,202880.12,202880,202887.46,205587.44,,,
Question 2,html.Screen,2_1_1_3,2021-04-26T09:31:51.640Z,,,,,,,,,,,,,,,,,,,,,,,,,,,,true,FALSE,,2152.5599999999977,,response,,,,100,A,,,,,,FALSE,click #choice-2,,,,silence,,,,,207755,207740,205570.8,205558,205587.44,207787.4,,,
Item 100,flow.Sequence,2_1_1,2021-04-26T09:31:51.641Z,,,,,,,,,,,,,,,,,,,,,,,,,,,,,,,39752.600000000006,,completion,,,,,,,,,,,,,,,,,,,,,207755,207740,167970.72,167960,167987.4,207787.4,,,
End of Practice,html.Page,2_1_2,2021-04-26T09:31:58.244Z,,,,,,,,,,,,,,,,,,,,,,,,,,,,,,,6571.600000000006,,form submission,,,,,,,,,,,,,,,,,,,,,214359,214359,207770.72,207755,207787.4,214387.44,,,
Practice,flow.Sequence,2_1,2021-04-26T09:31:58.244Z,,,,,,,,,,,,,,,,,,,,,,,,,,,,,,,119321.7,,completion,,,,,,,,,,,,,,,,,,,,,214359,214359,95020.68,95013,95037.3,214387.44,,,
Trap_instruction,html.Page,2_2_0,2021-04-26T09:32:10.875Z,,,,,,,,,,,,,,,,,,,,,,,,,,,,,,,12601.559999999998,,form submission,,,,,,,,,,,,,,,,,,,,,226990,226989,214370.78,214359,214387.44,227020.68,,,
trap_trial,html.Screen,2_2_1,2021-04-26T09:32:14.174Z,,,,,,,,,,,,,,,,,,,,,,,,,,,,true,1,,3250.320000000007,,response,,,,,,,,,,,1,click #choice-1,,,,,,,,,230288,230271,227004.02,226990,227020.68,230320.72,,,
end of trap trial,html.Page,2_2_2,2021-04-26T09:32:17.613Z,,,,,,,,,,,,,,,,,,,,,,,,,,,,,,,3406.279999999999,,form submission,,,,,,,,,,,,,,,,,,,,,233728,233727,230304.06,230289,230320.72,233754.14,,,
Trap 1,flow.Sequence,2_2,2021-04-26T09:32:17.613Z,,,,,,,,,,,,,,,,,,,,,,,,,,,,,,,19339.559999999998,,completion,,,,,,,,,,,,,,,,,,,,,233728,233727,214370.78,214359,214387.44,233754.14,,,
Standby,html.Page,2_3_0,2021-04-26T09:32:25.624Z,,,,,,,,,,,,,,,,,,,,,,,,,,,,,,,7999.919999999984,,timeout,,,,,,,,,,,,,,,,,,,,,241738,241737.4,233737.5,233728,233754.14,241754.06,,,
Holding screen,html.Screen,2_3_1_0_0,2021-04-26T09:32:32.623Z,,,,,,,,,,,,,,,,,,,,,,,,,,,,,,,7000.040000000008,,timeout,,,,,,,,,,,,,,,,,,,,,248738,248737.44,241737.4,241738,241754.06,248754.1,,,
screen,html.Screen,2_3_1_0_1_0,2021-04-26T09:32:34.845Z,,,,,,,,,,,,,,,,,51,,,,,,,,,,,,,,2189.899999999994,,response,,,,13,A,,,,,,Space,keypress(Space),,,,silence,,,,American -------- --- --- ---- --- --- ------ -- --------<br>---- --------- --- ------- ------------ ---------- ---------<br>--- ---------- ------- ---------- ------- -- -------- ----<br>---- --- ------ ----- ------ -- ---- --- ----- -- - -------<br>-------- -- --- --- -- ----- ----------- ----- -----------<br>---- --- ---------- --- ---- --- -- ----------,250959,250944,248737.44,248738,248754.1,250970.86,,0,American
screen,html.Screen,2_3_1_0_1_1,2021-04-26T09:32:35.285Z,,,,,,,,,,,,,,,,,51,,,,,,,,,,,,,,426.14000000001397,,response,,,,13,A,,,,,,Space,keypress(Space),,,,silence,,,,-------- industry --- --- ---- --- --- ------ -- --------<br>---- --------- --- ------- ------------ ---------- ---------<br>--- ---------- ------- ---------- ------- -- -------- ----<br>---- --- ------ ----- ------ -- ---- --- ----- -- - -------<br>-------- -- --- --- -- ----- ----------- ----- -----------<br>---- --- ---------- --- ---- --- -- ----------,251399,251397,250960.08,250959,250970.86,251404.12,,1,industry
screen,html.Screen,2_3_1_0_1_2,2021-04-26T09:32:35.965Z,,,,,,,,,,,,,,,,,51,,,,,,,,,,,,,,663.8800000000047,,response,,,,13,A,,,,,,Space,keypress(Space),,,,silence,,,,-------- -------- may --- ---- --- --- ------ -- --------<br>---- --------- --- ------- ------------ ---------- ---------<br>--- ---------- ------- ---------- ------- -- -------- ----<br>---- --- ------ ----- ------ -- ---- --- ----- -- - -------<br>-------- -- --- --- -- ----- ----------- ----- -----------<br>---- --- ---------- --- ---- --- -- ----------,252080,252068,251399.82,251399,251404.12,252087.52,,2,may
screen,html.Screen,2_3_1_0_1_3,2021-04-26T09:32:36.305Z,,,,,,,,,,,,,,,,,51,,,,,,,,,,,,,,325.4800000000105,,response,,,,13,A,,,,,,Space,keypress(Space),,,,silence,,,,-------- -------- --- not ---- --- --- ------ -- --------<br>---- --------- --- ------- ------------ ---------- ---------<br>--- ---------- ------- ---------- ------- -- -------- ----<br>---- --- ------ ----- ------ -- ---- --- ----- -- - -------<br>-------- -- --- --- -- ----- ----------- ----- -----------<br>---- --- ---------- --- ---- --- -- ----------,252420,252413,252080,252080,252087.52,252437.46,,3,not
screen,html.Screen,2_3_1_0_1_4,2021-04-26T09:32:36.641Z,,,,,,,,,,,,,,,,,51,,,,,,,,,,,,,,302.54000000000815,,response,,,,13,A,,,,,,Space,keypress(Space),,,,silence,,,,-------- -------- --- --- know --- --- ------ -- --------<br>---- --------- --- ------- ------------ ---------- ---------<br>--- ---------- ------- ---------- ------- -- -------- ----<br>---- --- ------ ----- ------ -- ---- --- ----- -- - -------<br>-------- -- --- --- -- ----- ----------- ----- -----------<br>---- --- ---------- --- ---- --- -- ----------,252756,252740,252420.04,252420,252437.46,252770.86,,4,know
screen,html.Screen,2_3_1_0_1_5,2021-04-26T09:32:36.941Z,,,,,,,,,,,,,,,,,51,,,,,,,,,,,,,,282.14000000001397,,response,,,,13,A,,,,,,Space,keypress(Space),,,,silence,,,,"-------- -------- --- --- ---- it, --- ------ -- --------<br>---- --------- --- ------- ------------ ---------- ---------<br>--- ---------- ------- ---------- ------- -- -------- ----<br>---- --- ------ ----- ------ -- ---- --- ----- -- - -------<br>-------- -- --- --- -- ----- ----------- ----- -----------<br>---- --- ---------- --- ---- --- -- ----------",253056,253053,252756.14,252756,252770.86,253070.9,,5,"it,"
screen,html.Screen,2_3_1_0_1_6,2021-04-26T09:32:37.326Z,,,,,,,,,,,,,,,,,51,,,,,,,,,,,,,,358.1000000000058,,response,,,,13,A,,,,,,Space,keypress(Space),,,,silence,,,,-------- -------- --- --- ---- --- but ------ -- --------<br>---- --------- --- ------- ------------ ---------- ---------<br>--- ---------- ------- ---------- ------- -- -------- ----<br>---- --- ------ ----- ------ -- ---- --- ----- -- - -------<br>-------- -- --- --- -- ----- ----------- ----- -----------<br>---- --- ---------- --- ---- --- -- ----------,253440,253429,253056.04,253056,253070.9,253454.2,,6,but
screen,html.Screen,2_3_1_0_1_7,2021-04-26T09:32:37.621Z,,,,,,,,,,,,,,,,,51,,,,,,,,,,,,,,270.79999999998836,,response,,,,13,A,,,,,,Space,keypress(Space),,,,silence,,,,-------- -------- --- --- ---- --- --- debate -- --------<br>---- --------- --- ------- ------------ ---------- ---------<br>--- ---------- ------- ---------- ------- -- -------- ----<br>---- --- ------ ----- ------ -- ---- --- ----- -- - -------<br>-------- -- --- --- -- ----- ----------- ----- -----------<br>---- --- ---------- --- ---- --- -- ----------,253736,253725,253440,253440,253454.2,253737.42,,7,debate
screen,html.Screen,2_3_1_0_1_8,2021-04-26T09:32:38.026Z,,,,,,,,,,,,,,,,,51,,,,,,,,,,,,,,393.5799999999872,,response,,,,13,A,,,,,,Space,keypress(Space),,,,silence,,,,-------- -------- --- --- ---- --- --- ------ in --------<br>---- --------- --- ------- ------------ ---------- ---------<br>--- ---------- ------- ---------- ------- -- -------- ----<br>---- --- ------ ----- ------ -- ---- --- ----- -- - -------<br>-------- -- --- --- -- ----- ----------- ----- -----------<br>---- --- ---------- --- ---- --- -- ----------,254139,254131,253735.98,253736,253737.42,254154.18,,8,in
screen,html.Screen,2_3_1_0_1_9,2021-04-26T09:32:38.318Z,,,,,,,,,,,,,,,,,51,,,,,,,,,,,,,,273.820000000007,,response,,,,13,A,,,,,,Space,keypress(Space),,,,silence,,,,-------- -------- --- --- ---- --- --- ------ -- Congress<br>---- --------- --- ------- ------------ ---------- ---------<br>--- ---------- ------- ---------- ------- -- -------- ----<br>---- --- ------ ----- ------ -- ---- --- ----- -- - -------<br>-------- -- --- --- -- ----- ----------- ----- -----------<br>---- --- ---------- --- ---- --- -- ----------,254432,254428,254140.04,254139,254154.18,254437.4,,9,Congress
screen,html.Screen,2_3_1_0_1_10,2021-04-26T09:32:38.817Z,,,,,,,,,,,,,,,,,51,,,,,,,,,,,,,,490.6000000000058,,response,,,,13,A,,,,,,Space,keypress(Space),,,,silence,,,,-------- -------- --- --- ---- --- --- ------ -- --------<br>over --------- --- ------- ------------ ---------- ---------<br>--- ---------- ------- ---------- ------- -- -------- ----<br>---- --- ------ ----- ------ -- ---- --- ----- -- - -------<br>-------- -- --- --- -- ----- ----------- ----- -----------<br>---- --- ---------- --- ---- --- -- ----------,254931,254928,254431.92,254432,254437.4,254937.42,,10,over
screen,html.Screen,2_3_1_0_1_11,2021-04-26T09:32:39.153Z,,,,,,,,,,,,,,,,,51,,,,,,,,,,,,,,318.5799999999872,,response,,,,13,A,,,,,,Space,keypress(Space),,,,silence,,,,-------- -------- --- --- ---- --- --- ------ -- --------<br>---- reforming --- ------- ------------ ---------- ---------<br>--- ---------- ------- ---------- ------- -- -------- ----<br>---- --- ------ ----- ------ -- ---- --- ----- -- - -------<br>-------- -- --- --- -- ----- ----------- ----- -----------<br>---- --- ---------- --- ---- --- -- ----------,255268,255256,254932.08,254931,254937.42,255270.78,,11,reforming
screen,html.Screen,2_3_1_0_1_12,2021-04-26T09:32:39.474Z,,,,,,,,,,,,,,,,,51,,,,,,,,,,,,,,314.22000000000116,,response,,,,13,A,,,,,,Space,keypress(Space),,,,silence,,,,-------- -------- --- --- ---- --- --- ------ -- --------<br>---- --------- the ------- ------------ ---------- ---------<br>--- ---------- ------- ---------- ------- -- -------- ----<br>---- --- ------ ----- ------ -- ---- --- ----- -- - -------<br>-------- -- --- --- -- ----- ----------- ----- -----------<br>---- --- ---------- --- ---- --- -- ----------,255588,255585,255268.04,255268,255270.78,255604.2,,12,the
screen,html.Screen,2_3_1_0_1_13,2021-04-26T09:32:39.834Z,,,,,,,,,,,,,,,,,51,,,,,,,,,,,,,,338.79999999998836,,response,,,,13,A,,,,,,Space,keypress(Space),,,,silence,,,,-------- -------- --- --- ---- --- --- ------ -- --------<br>---- --------- --- federal ------------ ---------- ---------<br>--- ---------- ------- ---------- ------- -- -------- ----<br>---- --- ------ ----- ------ -- ---- --- ----- -- - -------<br>-------- -- --- --- -- ----- ----------- ----- -----------<br>---- --- ---------- --- ---- --- -- ----------,255947,255943,255588.18,255588,255604.2,255954.12,,13,federal
screen,html.Screen,2_3_1_0_1_14,2021-04-26T09:32:40.346Z,,,,,,,,,,,,,,,,,51,,,,,,,,,,,,,,489.88000000000466,,response,,,,13,A,,,,,,Space,keypress(Space),,,,silence,,,,-------- -------- --- --- ---- --- --- ------ -- --------<br>---- --------- --- ------- government's ---------- ---------<br>--- ---------- ------- ---------- ------- -- -------- ----<br>---- --- ------ ----- ------ -- ---- --- ----- -- - -------<br>-------- -- --- --- -- ----- ----------- ----- -----------<br>---- --- ---------- --- ---- --- -- ----------,256459,256444,255948.02,255947,255954.12,256470.86,,14,government's
screen,html.Screen,2_3_1_0_1_15,2021-04-26T09:32:40.877Z,,,,,,,,,,,,,,,,,51,,,,,,,,,,,,,,504.14000000001397,,response,,,,13,A,,,,,,Space,keypress(Space),,,,silence,,,,-------- -------- --- --- ---- --- --- ------ -- --------<br>---- --------- --- ------- ------------ regulatory ---------<br>--- ---------- ------- ---------- ------- -- -------- ----<br>---- --- ------ ----- ------ -- ---- --- ----- -- - -------<br>-------- -- --- --- -- ----- ----------- ----- -----------<br>---- --- ---------- --- ---- --- -- ----------,256991,256975,256460.04,256459,256470.86,257004.16,,15,regulatory
screen,html.Screen,2_3_1_0_1_16,2021-04-26T09:32:41.341Z,,,,,,,,,,,,,,,,,51,,,,,,,,,,,,,,438.8399999999965,,response,,,,13,A,,,,,,Space,keypress(Space),,,,silence,,,,-------- -------- --- --- ---- --- --- ------ -- --------<br>---- --------- --- ------- ------------ ---------- apparatus<br>--- ---------- ------- ---------- ------- -- -------- ----<br>---- --- ------ ----- ------ -- ---- --- ----- -- - -------<br>-------- -- --- --- -- ----- ----------- ----- -----------<br>---- --- ---------- --- ---- --- -- ----------,257456,257443,256992,256991,257004.16,257470.88,,16,apparatus
screen,html.Screen,2_3_1_0_1_17,2021-04-26T09:32:41.729Z,,,,,,,,,,,,,,,,,51,,,,,,,,,,,,,,364.11999999999534,,response,,,,13,A,,,,,,Space,keypress(Space),,,,silence,,,,-------- -------- --- --- ---- --- --- ------ -- --------<br>---- --------- --- ------- ------------ ---------- ---------<br>may ---------- ------- ---------- ------- -- -------- ----<br>---- --- ------ ----- ------ -- ---- --- ----- -- - -------<br>-------- -- --- --- -- ----- ----------- ----- -----------<br>---- --- ---------- --- ---- --- -- ----------,257843,257835,257456.04,257456,257470.88,257854.18,,17,may
screen,html.Screen,2_3_1_0_1_18,2021-04-26T09:32:42.213Z,,,,,,,,,,,,,,,,,51,,,,,,,,,,,,,,463.820000000007,,response,,,,13,A,,,,,,Space,keypress(Space),,,,silence,,,,-------- -------- --- --- ---- --- --- ------ -- --------<br>---- --------- --- ------- ------------ ---------- ---------<br>--- profoundly ------- ---------- ------- -- -------- ----<br>---- --- ------ ----- ------ -- ---- --- ----- -- - -------<br>-------- -- --- --- -- ----- ----------- ----- -----------<br>---- --- ---------- --- ---- --- -- ----------,258327,258318,257844.18,257844,257854.18,258337.48,,18,profoundly
screen,html.Screen,2_3_1_0_1_19,2021-04-26T09:32:42.566Z,,,,,,,,,,,,,,,,,51,,,,,,,,,,,,,,340.5199999999895,,response,,,,13,A,,,,,,Space,keypress(Space),,,,silence,,,,-------- -------- --- --- ---- --- --- ------ -- --------<br>---- --------- --- ------- ------------ ---------- ---------<br>--- ---------- improve ---------- ------- -- -------- ----<br>---- --- ------ ----- ------ -- ---- --- ----- -- - -------<br>-------- -- --- --- -- ----- ----------- ----- -----------<br>---- --- ---------- --- ---- --- -- ----------,258680,258678,258328,258327,258337.48,258687.52,,19,improve
screen,html.Screen,2_3_1_0_1_20,2021-04-26T09:32:43.134Z,,,,,,,,,,,,,,,,,51,,,,,,,,,,,,,,553.4800000000105,,response,,,,13,A,,,,,,Space,keypress(Space),,,,silence,,,,-------- -------- --- --- ---- --- --- ------ -- --------<br>---- --------- --- ------- ------------ ---------- ---------<br>--- ---------- ------- companies' ------- -- -------- ----<br>---- --- ------ ----- ------ -- ---- --- ----- -- - -------<br>-------- -- --- --- -- ----- ----------- ----- -----------<br>---- --- ---------- --- ---- --- -- ----------,259248,259241,258680,258680,258687.52,259254.16,,20,companies'
screen,html.Screen,2_3_1_0_1_21,2021-04-26T09:32:43.629Z,,,,,,,,,,,,,,,,,51,,,,,,,,,,,,,,486.8399999999965,,response,,,,13,A,,,,,,Space,keypress(Space),,,,silence,,,,-------- -------- --- --- ---- --- --- ------ -- --------<br>---- --------- --- ------- ------------ ---------- ---------<br>--- ---------- ------- ---------- ability -- -------- ----<br>---- --- ------ ----- ------ -- ---- --- ----- -- - -------<br>-------- -- --- --- -- ----- ----------- ----- -----------<br>---- --- ---------- --- ---- --- -- ----------,259744,259741,259248.26,259248,259254.16,259754.2,,21,ability
screen,html.Screen,2_3_1_0_1_22,2021-04-26T09:32:43.965Z,,,,,,,,,,,,,,,,,51,,,,,,,,,,,,,,314.79999999998836,,response,,,,13,A,,,,,,Space,keypress(Space),,,,silence,,,,-------- -------- --- --- ---- --- --- ------ -- --------<br>---- --------- --- ------- ------------ ---------- ---------<br>--- ---------- ------- ---------- ------- to -------- ----<br>---- --- ------ ----- ------ -- ---- --- ----- -- - -------<br>-------- -- --- --- -- ----- ----------- ----- -----------<br>---- --- ---------- --- ---- --- -- ----------,260080,260069,259744.04,259744,259754.2,260087.5,,22,to
screen,html.Screen,2_3_1_0_1_23,2021-04-26T09:32:44.265Z,,,,,,,,,,,,,,,,,51,,,,,,,,,,,,,,277.5,,response,,,,13,A,,,,,,Space,keypress(Space),,,,silence,,,,-------- -------- --- --- ---- --- --- ------ -- --------<br>---- --------- --- ------- ------------ ---------- ---------<br>--- ---------- ------- ---------- ------- -- survive. ----<br>---- --- ------ ----- ------ -- ---- --- ----- -- - -------<br>-------- -- --- --- -- ----- ----------- ----- -----------<br>---- --- ---------- --- ---- --- -- ----------,260379,260365,260080.24,260080,260087.5,260387.54,,23,survive.
screen,html.Screen,2_3_1_0_1_24,2021-04-26T09:32:45.161Z,,,,,,,,,,,,,,,,,51,,,,,,,,,,,,,,884.4599999999919,,response,,,,13,A,,,,,,Space,keypress(Space),,,,silence,,,,-------- -------- --- --- ---- --- --- ------ -- --------<br>---- --------- --- ------- ------------ ---------- ---------<br>--- ---------- ------- ---------- ------- -- -------- This<br>---- --- ------ ----- ------ -- ---- --- ----- -- - -------<br>-------- -- --- --- -- ----- ----------- ----- -----------<br>---- --- ---------- --- ---- --- -- ----------,261276,261272,260380.02,260379,260387.54,261287.52,,24,This
screen,html.Screen,2_3_1_0_1_25,2021-04-26T09:32:45.477Z,,,,,,,,,,,,,,,,,51,,,,,,,,,,,,,,297.4800000000105,,response,,,,13,A,,,,,,Space,keypress(Space),,,,silence,,,,-------- -------- --- --- ---- --- --- ------ -- --------<br>---- --------- --- ------- ------------ ---------- ---------<br>--- ---------- ------- ---------- ------- -- -------- ----<br>week --- ------ ----- ------ -- ---- --- ----- -- - -------<br>-------- -- --- --- -- ----- ----------- ----- -----------<br>---- --- ---------- --- ---- --- -- ----------,261592,261585,261275.9,261276,261287.52,261604.14,,25,week
screen,html.Screen,2_3_1_0_1_26,2021-04-26T09:32:45.749Z,,,,,,,,,,,,,,,,,51,,,,,,,,,,,,,,246.85999999998603,,response,,,,13,A,,,,,,Space,keypress(Space),,,,silence,,,,-------- -------- --- --- ---- --- --- ------ -- --------<br>---- --------- --- ------- ------------ ---------- ---------<br>--- ---------- ------- ---------- ------- -- -------- ----<br>---- the ------ ----- ------ -- ---- --- ----- -- - -------<br>-------- -- --- --- -- ----- ----------- ----- -----------<br>---- --- ---------- --- ---- --- -- ----------,261864,261851,261592.08,261592,261604.14,261870.86,,26,the
screen,html.Screen,2_3_1_0_1_27,2021-04-26T09:32:46.065Z,,,,,,,,,,,,,,,,,51,,,,,,,,,,,,,,292.14000000001397,,response,,,,13,A,,,,,,Space,keypress(Space),,,,silence,,,,-------- -------- --- --- ---- --- --- ------ -- --------<br>---- --------- --- ------- ------------ ---------- ---------<br>--- ---------- ------- ---------- ------- -- -------- ----<br>---- --- Senate ----- ------ -- ---- --- ----- -- - -------<br>-------- -- --- --- -- ----- ----------- ----- -----------<br>---- --- ---------- --- ---- --- -- ----------,262180,262163,261864.16,261864,261870.86,262187.52,,27,Senate
screen,html.Screen,2_3_1_0_1_28,2021-04-26T09:32:46.381Z,,,,,,,,,,,,,,,,,51,,,,,,,,,,,,,,302.4799999999814,,response,,,,13,A,,,,,,Space,keypress(Space),,,,silence,,,,-------- -------- --- --- ---- --- --- ------ -- --------<br>---- --------- --- ------- ------------ ---------- ---------<br>--- ---------- ------- ---------- ------- -- -------- ----<br>---- --- ------ seems ------ -- ---- --- ----- -- - -------<br>-------- -- --- --- -- ----- ----------- ----- -----------<br>---- --- ---------- --- ---- --- -- ----------,262495,262490,262180.08,262180,262187.52,262504.2,,28,seems
screen,html.Screen,2_3_1_0_1_29,2021-04-26T09:32:46.709Z,,,,,,,,,,,,,,,,,51,,,,,,,,,,,,,,313.79999999998836,,response,,,,13,A,,,,,,Space,keypress(Space),,,,silence,,,,-------- -------- --- --- ---- --- --- ------ -- --------<br>---- --------- --- ------- ------------ ---------- ---------<br>--- ---------- ------- ---------- ------- -- -------- ----<br>---- --- ------ ----- poised -- ---- --- ----- -- - -------<br>-------- -- --- --- -- ----- ----------- ----- -----------<br>---- --- ---------- --- ---- --- -- ----------,262824,262818,262496.1,262495,262504.2,262837.52,,29,poised
screen,html.Screen,2_3_1_0_1_30,2021-04-26T09:32:47.073Z,,,,,,,,,,,,,,,,,51,,,,,,,,,,,,,,341.4799999999814,,response,,,,13,A,,,,,,Space,keypress(Space),,,,silence,,,,-------- -------- --- --- ---- --- --- ------ -- --------<br>---- --------- --- ------- ------------ ---------- ---------<br>--- ---------- ------- ---------- ------- -- -------- ----<br>---- --- ------ ----- ------ to ---- --- ----- -- - -------<br>-------- -- --- --- -- ----- ----------- ----- -----------<br>---- --- ---------- --- ---- --- -- ----------,263188,263179,262824.24,262824,262837.52,263204.2,,30,to
screen,html.Screen,2_3_1_0_1_31,2021-04-26T09:32:47.393Z,,,,,,,,,,,,,,,,,51,,,,,,,,,,,,,,285.79999999998836,,response,,,,13,A,,,,,,Space,keypress(Space),,,,silence,,,,-------- -------- --- --- ---- --- --- ------ -- --------<br>---- --------- --- ------- ------------ ---------- ---------<br>--- ---------- ------- ---------- ------- -- -------- ----<br>---- --- ------ ----- ------ -- join --- ----- -- - -------<br>-------- -- --- --- -- ----- ----------- ----- -----------<br>---- --- ---------- --- ---- --- -- ----------,263507,263490,263188.26,263188,263204.2,263520.82,,31,join
screen,html.Screen,2_3_1_0_1_32,2021-04-26T09:32:47.718Z,,,,,,,,,,,,,,,,,51,,,,,,,,,,,,,,298.179999999993,,response,,,,13,A,,,,,,Space,keypress(Space),,,,silence,,,,-------- -------- --- --- ---- --- --- ------ -- --------<br>---- --------- --- ------- ------------ ---------- ---------<br>--- ---------- ------- ---------- ------- -- -------- ----<br>---- --- ------ ----- ------ -- ---- the ----- -- - -------<br>-------- -- --- --- -- ----- ----------- ----- -----------<br>---- --- ---------- --- ---- --- -- ----------,263832,263819,263507.98,263508,263520.82,263837.52,,32,the
screen,html.Screen,2_3_1_0_1_33,2021-04-26T09:32:48.045Z,,,,,,,,,,,,,,,,,51,,,,,,,,,,,,,,308.4799999999814,,response,,,,13,A,,,,,,Space,keypress(Space),,,,silence,,,,-------- -------- --- --- ---- --- --- ------ -- --------<br>---- --------- --- ------- ------------ ---------- ---------<br>--- ---------- ------- ---------- ------- -- -------- ----<br>---- --- ------ ----- ------ -- ---- --- House -- - -------<br>-------- -- --- --- -- ----- ----------- ----- -----------<br>---- --- ---------- --- ---- --- -- ----------,264160,264146,263832.28,263832,263837.52,264170.86,,33,House
screen,html.Screen,2_3_1_0_1_34,2021-04-26T09:32:48.329Z,,,,,,,,,,,,,,,,,51,,,,,,,,,,,,,,257.14000000001397,,response,,,,13,A,,,,,,Space,keypress(Space),,,,silence,,,,-------- -------- --- --- ---- --- --- ------ -- --------<br>---- --------- --- ------- ------------ ---------- ---------<br>--- ---------- ------- ---------- ------- -- -------- ----<br>---- --- ------ ----- ------ -- ---- --- ----- in - -------<br>-------- -- --- --- -- ----- ----------- ----- -----------<br>---- --- ---------- --- ---- --- -- ----------,264443,264428,264159.94,264160,264170.86,264454.2,,34,in
screen,html.Screen,2_3_1_0_1_35,2021-04-26T09:32:48.645Z,,,,,,,,,,,,,,,,,51,,,,,,,,,,,,,,302.79999999998836,,response,,,,13,A,,,,,,Space,keypress(Space),,,,silence,,,,-------- -------- --- --- ---- --- --- ------ -- --------<br>---- --------- --- ------- ------------ ---------- ---------<br>--- ---------- ------- ---------- ------- -- -------- ----<br>---- --- ------ ----- ------ -- ---- --- ----- -- a -------<br>-------- -- --- --- -- ----- ----------- ----- -----------<br>---- --- ---------- --- ---- --- -- ----------,264760,264757,264443.82,264443,264454.2,264770.86,,35,a
screen,html.Screen,2_3_1_0_1_36,2021-04-26T09:32:49.082Z,,,,,,,,,,,,,,,,,51,,,,,,,,,,,,,,422.14000000001397,,response,,,,13,A,,,,,,Space,keypress(Space),,,,silence,,,,-------- -------- --- --- ---- --- --- ------ -- --------<br>---- --------- --- ------- ------------ ---------- ---------<br>--- ---------- ------- ---------- ------- -- -------- ----<br>---- --- ------ ----- ------ -- ---- --- ----- -- - massive<br>-------- -- --- --- -- ----- ----------- ----- -----------<br>---- --- ---------- --- ---- --- -- ----------,265196,265193,264759.92,264760,264770.86,265204.2,,36,massive
screen,html.Screen,2_3_1_0_1_37,2021-04-26T09:32:49.409Z,,,,,,,,,,,,,,,,,51,,,,,,,,,,,,,,316.79999999998836,,response,,,,13,A,,,,,,Space,keypress(Space),,,,silence,,,,-------- -------- --- --- ---- --- --- ------ -- --------<br>---- --------- --- ------- ------------ ---------- ---------<br>--- ---------- ------- ---------- ------- -- -------- ----<br>---- --- ------ ----- ------ -- ---- --- ----- -- - -------<br>overhaul -- --- --- -- ----- ----------- ----- -----------<br>---- --- ---------- --- ---- --- -- ----------,265524,265521,265196.24,265196,265204.2,265537.54,,37,overhaul
screen,html.Screen,2_3_1_0_1_38,2021-04-26T09:32:49.741Z,,,,,,,,,,,,,,,,,51,,,,,,,,,,,,,,313.46000000002095,,response,,,,13,A,,,,,,Space,keypress(Space),,,,silence,,,,-------- -------- --- --- ---- --- --- ------ -- --------<br>---- --------- --- ------- ------------ ---------- ---------<br>--- ---------- ------- ---------- ------- -- -------- ----<br>---- --- ------ ----- ------ -- ---- --- ----- -- - -------<br>-------- of --- --- -- ----- ----------- ----- -----------<br>---- --- ---------- --- ---- --- -- ----------,265856,265851,265523.92,265524,265537.54,265870.86,,38,of
screen,html.Screen,2_3_1_0_1_39,2021-04-26T09:32:50.042Z,,,,,,,,,,,,,,,,,51,,,,,,,,,,,,,,275.14000000001397,,response,,,,13,A,,,,,,Space,keypress(Space),,,,silence,,,,-------- -------- --- --- ---- --- --- ------ -- --------<br>---- --------- --- ------- ------------ ---------- ---------<br>--- ---------- ------- ---------- ------- -- -------- ----<br>---- --- ------ ----- ------ -- ---- --- ----- -- - -------<br>-------- -- the --- -- ----- ----------- ----- -----------<br>---- --- ---------- --- ---- --- -- ----------,266156,266146,265856.14,265856,265870.86,266170.86,,39,the
screen,html.Screen,2_3_1_0_1_40,2021-04-26T09:32:50.365Z,,,,,,,,,,,,,,,,,51,,,,,,,,,,,,,,304.14000000001397,,response,,,,13,A,,,,,,Space,keypress(Space),,,,silence,,,,-------- -------- --- --- ---- --- --- ------ -- --------<br>---- --------- --- ------- ------------ ---------- ---------<br>--- ---------- ------- ---------- ------- -- -------- ----<br>---- --- ------ ----- ------ -- ---- --- ----- -- - -------<br>-------- -- --- way -- ----- ----------- ----- -----------<br>---- --- ---------- --- ---- --- -- ----------,266480,266475,266156.22,266156,266170.86,266487.54,,40,way
screen,html.Screen,2_3_1_0_1_41,2021-04-26T09:32:50.641Z,,,,,,,,,,,,,,,,,51,,,,,,,,,,,,,,252.46000000002095,,response,,,,13,A,,,,,,Space,keypress(Space),,,,silence,,,,-------- -------- --- --- ---- --- --- ------ -- --------<br>---- --------- --- ------- ------------ ---------- ---------<br>--- ---------- ------- ---------- ------- -- -------- ----<br>---- --- ------ ----- ------ -- ---- --- ----- -- - -------<br>-------- -- --- --- in ----- ----------- ----- -----------<br>---- --- ---------- --- ---- --- -- ----------,266756,266740,266480.08,266480,266487.54,266770.86,,41,in
screen,html.Screen,2_3_1_0_1_42,2021-04-26T09:32:50.997Z,,,,,,,,,,,,,,,,,51,,,,,,,,,,,,,,329.14000000001397,,response,,,,13,A,,,,,,Space,keypress(Space),,,,silence,,,,-------- -------- --- --- ---- --- --- ------ -- --------<br>---- --------- --- ------- ------------ ---------- ---------<br>--- ---------- ------- ---------- ------- -- -------- ----<br>---- --- ------ ----- ------ -- ---- --- ----- -- - -------<br>-------- -- --- --- -- which ----------- ----- -----------<br>---- --- ---------- --- ---- --- -- ----------,267112,267100,266756,266756,266770.86,267120.8,,42,which
screen,html.Screen,2_3_1_0_1_43,2021-04-26T09:32:51.533Z,,,,,,,,,,,,,,,,,51,,,,,,,,,,,,,,510.20000000001164,,response,,,,13,A,,,,,,Space,keypress(Space),,,,silence,,,,-------- -------- --- --- ---- --- --- ------ -- --------<br>---- --------- --- ------- ------------ ---------- ---------<br>--- ---------- ------- ---------- ------- -- -------- ----<br>---- --- ------ ----- ------ -- ---- --- ----- -- - -------<br>-------- -- --- --- -- ----- bureaucrats ----- -----------<br>---- --- ---------- --- ---- --- -- ----------,267648,267631,267111.88,267112,267120.8,267654.2,,43,bureaucrats
screen,html.Screen,2_3_1_0_1_44,2021-04-26T09:32:52.033Z,,,,,,,,,,,,,,,,,51,,,,,,,,,,,,,,476.79999999998836,,response,,,,13,A,,,,,,Space,keypress(Space),,,,silence,,,,-------- -------- --- --- ---- --- --- ------ -- --------<br>---- --------- --- ------- ------------ ---------- ---------<br>--- ---------- ------- ---------- ------- -- -------- ----<br>---- --- ------ ----- ------ -- ---- --- ----- -- - -------<br>-------- -- --- --- -- ----- ----------- enact -----------<br>---- --- ---------- --- ---- --- -- ----------,268147,268131,267648.22,267648,267654.2,268154.2,,44,enact
screen,html.Screen,2_3_1_0_1_45,2021-04-26T09:32:52.517Z,,,,,,,,,,,,,,,,,51,,,,,,,,,,,,,,461.79999999998836,,response,,,,13,A,,,,,,Space,keypress(Space),,,,silence,,,,-------- -------- --- --- ---- --- --- ------ -- --------<br>---- --------- --- ------- ------------ ---------- ---------<br>--- ---------- ------- ---------- ------- -- -------- ----<br>---- --- ------ ----- ------ -- ---- --- ----- -- - -------<br>-------- -- --- --- -- ----- ----------- ----- regulations<br>---- --- ---------- --- ---- --- -- ----------,268631,268616,268148.04,268147,268154.2,268637.52,,45,regulations
screen,html.Screen,2_3_1_0_1_46,2021-04-26T09:32:54.013Z,,,,,,,,,,,,,,,,,51,,,,,,,,,,,,,,1478.4799999999814,,response,,,,13,A,,,,,,Space,keypress(Space),,,,silence,,,,-------- -------- --- --- ---- --- --- ------ -- --------<br>---- --------- --- ------- ------------ ---------- ---------<br>--- ---------- ------- ---------- ------- -- -------- ----<br>---- --- ------ ----- ------ -- ---- --- ----- -- - -------<br>-------- -- --- --- -- ----- ----------- ----- -----------<br>that --- ---------- --- ---- --- -- ----------,270127,270116,268632.16,268632,268637.52,270137.54,,46,that
screen,html.Screen,2_3_1_0_1_47,2021-04-26T09:32:54.413Z,,,,,,,,,,,,,,,,,51,,,,,,,,,,,,,,384.46000000002095,,response,,,,13,A,,,,,,Space,keypress(Space),,,,silence,,,,-------- -------- --- --- ---- --- --- ------ -- --------<br>---- --------- --- ------- ------------ ---------- ---------<br>--- ---------- ------- ---------- ------- -- -------- ----<br>---- --- ------ ----- ------ -- ---- --- ----- -- - -------<br>-------- -- --- --- -- ----- ----------- ----- -----------<br>---- are ---------- --- ---- --- -- ----------,270528,270522,270128.06,270127,270137.54,270537.54,,47,are
screen,html.Screen,2_3_1_0_1_48,2021-04-26T09:32:54.977Z,,,,,,,,,,,,,,,,,51,,,,,,,,,,,,,,547.460000000021,,response,,,,13,A,,,,,,Space,keypress(Space),,,,silence,,,,-------- -------- --- --- ---- --- --- ------ -- --------<br>---- --------- --- ------- ------------ ---------- ---------<br>--- ---------- ------- ---------- ------- -- -------- ----<br>---- --- ------ ----- ------ -- ---- --- ----- -- - -------<br>-------- -- --- --- -- ----- ----------- ----- -----------<br>---- --- strangling --- ---- --- -- ----------,271092,271085,270528.2,270528,270537.54,271104.2,,48,strangling
screen,html.Screen,2_3_1_0_1_49,2021-04-26T09:32:55.309Z,,,,,,,,,,,,,,,,,51,,,,,,,,,,,,,,307.79999999998836,,response,,,,13,A,,,,,,Space,keypress(Space),,,,silence,,,,-------- -------- --- --- ---- --- --- ------ -- --------<br>---- --------- --- ------- ------------ ---------- ---------<br>--- ---------- ------- ---------- ------- -- -------- ----<br>---- --- ------ ----- ------ -- ---- --- ----- -- - -------<br>-------- -- --- --- -- ----- ----------- ----- -----------<br>---- --- ---------- the ---- --- -- ----------,271424,271412,271092.36,271092,271104.2,271437.54,,49,the
screen,html.Screen,2_3_1_0_1_50,2021-04-26T09:32:55.597Z,,,,,,,,,,,,,,,,,51,,,,,,,,,,,,,,271.46000000002095,,response,,,,13,A,,,,,,Space,keypress(Space),,,,silence,,,,-------- -------- --- --- ---- --- --- ------ -- --------<br>---- --------- --- ------- ------------ ---------- ---------<br>--- ---------- ------- ---------- ------- -- -------- ----<br>---- --- ------ ----- ------ -- ---- --- ----- -- - -------<br>-------- -- --- --- -- ----- ----------- ----- -----------<br>---- --- ---------- --- life --- -- ----------,271711,271709,271423.98,271424,271437.54,271720.8,,50,life
