sender,sender_type,sender_id,timestamp,meta,,Blues,Classical,Country,Dance,Electronic,Folk,Gospel,Hip-Hop,Jazz,Latin,Musical/Film,New-age,Pop,Prolific_id,Provo_ID,R&B,Rap,Reggae,Religious,Rock,Soul,Swing,Traditional,age,artist_name,correct,correctResponse,distraction,duration,education,ended_on,familiarity,gender,headphone_check_performance,item,list,music_frequency,offensiveness,pleasantness,position_correct,preference,response,response_action,snippet_file,song_name,song_rating,sound,stimulus_1,stimulus_2,stimulus_3,text,time_commit,time_end,time_render,time_run,time_show,time_switch,url,word,word_ID
Prolific ID,html.Form,0,2021-04-30T13:23:07.914Z,"{""labjs_version"":""20.2.2"",""labjs_build"":{""flavor"":""production"",""commit"":""a25486e0c714a0ae2ce03ff94b7bb6896854dcfa""},""location"":""https://run.pavlovia.org/mvasilev/prolific_music_f/"",""userAgent"":""Mozilla/5.0 (Windows NT 10.0; Win64; x64) AppleWebKit/537.36 (KHTML, like Gecko) Chrome/90.0.4430.93 Safari/537.36"",""platform"":""Win32"",""language"":""en-GB"",""locale"":""en-GB"",""timeZone"":""Europe/London"",""timezoneOffset"":-60,""screen_width"":1920,""screen_height"":1080,""scroll_width"":1920,""scroll_height"":889,""window_innerWidth"":1920,""window_innerHeight"":937,""devicePixelRatio"":1}",,,,,,,,,,,,,,,5fd8ea198512a801831f6b85,,,,,,,,,,,,,,,3394.147000159741,,form submission,,,,,,,,,,,,,,,,,,,,,8858.23000012897,8858.02000015974,5447.117,5451.850000070408,5463.873,8864.09,{},,
Introduction,html.Screen,1_0,2021-04-30T13:23:16.875Z,,,,,,,,,,,,,,,,,,,,,,,,,,,,,,,8953.245000028834,,response,,,,,,,,,,,continue,click button,,,,,,,,,17818.905000109226,17817.335000028834,8847.384,8858.3599999547,8864.09,17831.357,,,
Volume calibration,html.Screen,1_1,2021-04-30T13:23:46.259Z,,,,,,,,,,,,,,,,,,,,,,,,,,,,,,,29370.00800010267,,response,,,,,,,,,,,continue,click button,,,,,,,,,47203.14500015229,47201.36500010267,17814.604,17819.120000116527,17831.357,47216.491,,,
Task instructions,html.Screen,1_2,2021-04-30T13:24:02.010Z,,,,,,,,,,,,,,,,,,,,,,,,,,,,,,,15736.879000002904,,response,,,,,,,,,,,continue,click button,,,,,,,,,62953.75999994576,62953.370000002906,47199.829,47203.25500005856,47216.491,62967.369,,,
Sounds,html.Screen,1_3_0_0,2021-04-30T13:24:06.259Z,,,,,,,,,,,,,,,,,,,,,,,,,,,,,,,4250.318000000007,,timeout,,,,,,,,,1,,,,,,,,S,O,I,,67202.20000017434,67201.018,62950.75,62953.895000042394,62967.369,67217.687,,,
Judgement,html.Screen,1_3_0_1,2021-04-30T13:24:07.642Z,,,,,,,,,,,,,,,,,,,,,,,,,,,,true,1,,1367.7030001384264,,response,,,,,,,,,1,,1,click #choice-1,,,,,S,O,I,,68585.8700000681,68585.39000013843,67201.018,67202.27500004694,67217.687,68601.065,,,
Trial,flow.Sequence,1_3_0,2021-04-30T13:24:07.642Z,,,,,,,,,,,,,,,,,,,,,,,,,,,,,,,5618.021000138433,,completion,,,,,,,,,1,,,,,,,,S,O,I,,68586.02500008419,68585.39000013843,62950.75,62953.854999970645,62967.369,68601.065,,,
Sounds,html.Screen,1_3_1_0,2021-04-30T13:24:11.891Z,,,,,,,,,,,,,,,,,,,,,,,,,,,,,,,4250.357999999993,,timeout,,,,,,,,,2,,,,,,,,O,S,I,,72835.05999995396,72834.723,68584.429,68586.09500015154,68601.065,72851.423,,,
Judgement,html.Screen,1_3_1_1,2021-04-30T13:24:12.714Z,,,,,,,,,,,,,,,,,,,,,,,,,,,,true,2,,805.9770001419383,,response,,,,,,,,,2,,2,click #choice-2,,,,,O,S,I,,73657.79500012286,73657.40000014193,72834.723,72835.12499998324,72851.423,73668.07,,,
Trial,flow.Sequence,1_3_1,2021-04-30T13:24:12.714Z,,,,,,,,,,,,,,,,,,,,,,,,,,,,,,,5056.335000141931,,completion,,,,,,,,,2,,,,,,,,O,S,I,,73657.89499995299,73657.40000014193,68584.429,68586.06999996118,68601.065,73668.07,,,
Sounds,html.Screen,1_3_2_0,2021-04-30T13:24:16.958Z,,,,,,,,,,,,,,,,,,,,,,,,,,,,,,,4250.23599999999,,timeout,,,,,,,,,1,,,,,,,,S,I,O,,77901.99499996379,77901.686,73651.418,73657.96500002034,73668.07,77918.306,,,
Judgement,html.Screen,1_3_2_1,2021-04-30T13:24:17.522Z,,,,,,,,,,,,,,,,,,,,,,,,,,,,true,1,,547.0439999549271,,response,,,,,,,,,1,,1,click #choice-1,,,,,S,I,O,,78465.710000135,78465.34999995492,77901.686,77902.054999955,77918.306,78468.417,,,
Trial,flow.Sequence,1_3_2,2021-04-30T13:24:17.522Z,,,,,,,,,,,,,,,,,,,,,,,,,,,,,,,4797.279999954917,,completion,,,,,,,,,1,,,,,,,,S,I,O,,78465.80500015989,78465.34999995492,73651.418,73657.94500010088,73668.07,78468.417,,,
Sounds,html.Screen,1_3_3_0,2021-04-30T13:24:21.759Z,,,,,,,,,,,,,,,,,,,,,,,,,,,,,,,4250.239000000001,,timeout,,,,,,,,,3,,,,,,,,O,I,S,,82702.29000016116,82701.988,78451.665,78465.87499999441,78468.417,82718.656,,,
Judgement,html.Screen,1_3_3_1,2021-04-30T13:24:22.434Z,,,,,,,,,,,,,,,,,,,,,,,,,,,,true,3,,658.7390000759187,,response,,,,,,,,,3,,3,click #choice-3,,,,,O,I,S,,83377.80500017107,83377.39500007592,82701.988,82702.35000015236,82718.656,83385.358,,,
Trial,flow.Sequence,1_3_3,2021-04-30T13:24:22.434Z,,,,,,,,,,,,,,,,,,,,,,,,,,,,,,,4908.97800007592,,completion,,,,,,,,,3,,,,,,,,O,I,S,,83377.89999996312,83377.39500007592,78451.665,78465.85500007495,78468.417,83385.358,,,
Sounds,html.Screen,1_3_4_0,2021-04-30T13:24:26.676Z,,,,,,,,,,,,,,,,,,,,,,,,,,,,,,,4250.248000000007,,timeout,,,,,,,,,3,,,,,,,,I,O,S,,87619.30000013672,87618.937,83368.687,83377.9649999924,83385.358,87635.606,,,
Judgement,html.Screen,1_3_4_1,2021-04-30T13:24:27.130Z,,,,,,,,,,,,,,,,,,,,,,,,,,,,true,3,,437.7789999960514,,response,,,,,,,,,3,,3,click #choice-3,,,,,I,O,S,,88073.76000005752,88073.38499999605,87618.937,87619.36000012793,87635.606,88085.594,,,
Trial,flow.Sequence,1_3_4,2021-04-30T13:24:27.130Z,,,,,,,,,,,,,,,,,,,,,,,,,,,,,,,4688.026999996058,,completion,,,,,,,,,3,,,,,,,,I,O,S,,88073.85000004433,88073.38499999605,83368.687,83377.94500007294,83385.358,88085.594,,,
Sounds,html.Screen,1_3_5_0,2021-04-30T13:24:31.376Z,,,,,,,,,,,,,,,,,,,,,,,,,,,,,,,4250.297000000006,,timeout,,,,,,,,,2,,,,,,,,I,S,O,,92319.55000013113,92319.187,88068.967,88073.90499999747,88085.594,92335.891,,,
Judgement,html.Screen,1_3_5_1,2021-04-30T13:24:31.970Z,,,,,,,,,,,,,,,,,,,,,,,,,,,,true,2,,577.5089999612537,,response,,,,,,,,,2,,2,click #choice-2,,,,,I,S,O,,92913.8100000564,92913.39999996126,92319.187,92319.60500008427,92335.891,92919.236,,,
Trial,flow.Sequence,1_3_5,2021-04-30T13:24:31.970Z,,,,,,,,,,,,,,,,,,,,,,,,,,,,,,,4827.80599996126,,completion,,,,,,,,,2,,,,,,,,I,S,O,,92913.89500000514,92913.39999996126,88068.967,88073.88500007801,88085.594,92919.236,,,
Task,flow.Loop,1_3,2021-04-30T13:24:31.972Z,,,,,,,,,,,,,,,,,,,,,,,,,,,,,,,29946.03099996126,,completion,,,1,,,,,,,,,,,,,,,,,,92916.05999995954,92913.39999996126,62950.75,62953.82499997504,62967.369,92919.236,,,
Trap,html.Screen,1_4,2021-04-30T13:24:31.973Z,,,,,,,,,,,,,,,,,,,,,,,,,,,,,,,NaN,,skipped,,,,,,,,,,,,,,,,,,,,,92917.04500000924,92913.39999996126,,92916.9900000561,,92919.236,,,
Thanks,html.Screen,1_5,2021-04-30T13:24:38.426Z,,,,,,,,,,,,,,,,,,,,,,,,,,,,,,,6450.169000004913,,response,,,,,,,,,,,continue,click button,,,,,,,,,99369.88999997266,99369.40500000492,92902.581,92917.09999996237,92919.236,105619.958,,,
Headphone screening,flow.Sequence,1,2021-04-30T13:24:38.426Z,,,,,,,,,,,,,,,,,,,,,,,,,,,,,,,90505.31500000492,,completion,,,,,,,,,,,,,,,,,,,,,99370.02500006929,99369.40500000492,8847.384,8858.345000073314,8864.09,105619.958,,,
Instructions,html.Page,2_0,2021-04-30T13:25:13.250Z,,,,,,,,,,,,,,,,,,,,,,,,,,,,,,,28573.947000109227,,form submission,,,,,,,,,,,,,,,,,,,,,134194.0350001678,134193.90500010923,105603.387,105621.5000001248,105619.958,134205.155,,,
Holding screen,html.Screen,2_1_0_0,2021-04-30T13:25:23.246Z,,,,,,,,,,,,,,,,,,,,,,,,,,,,,,,10000.600000000006,,timeout,,,,,,,,,,,,,,,,,,,,,144189.3599999603,144189.081,134188.466,134194.140000036,134205.155,144205.755,,,
screen,html.Screen,2_1_0_1_0,2021-04-30T13:25:24.850Z,,,,,,,,,,,,,,,,,53,,,,,,,,,,,,,,1586.3799999960465,,response,,,,99,,,,,,,Space,keypress(Space),,,,,,,,When -- ----- -- ------ - ------- --- ----------<br>------------- ------ ------ ---- ---- ------- ----- -- ----<br>-------- ------- -- ---------- --- - --- ----- ----- ----<br>---- --- --- ----- --- ---- ---- ------- ----- ---- -------<br>--- --- -- ----- -- --- ---- -- --- ---- -- ------ ------<br>--- ----- -- ----,145793.34000009112,145792.13499999605,144189.081,144189.44500014186,144205.755,145805.919,,0,When
screen,html.Screen,2_1_0_1_1,2021-04-30T13:25:25.653Z,,,,,,,,,,,,,,,,,53,,,,,,,,,,,,,,789.5760000159498,,response,,,,99,,,,,,,Space,keypress(Space),,,,,,,,---- it ----- -- ------ - ------- --- ----------<br>------------- ------ ------ ---- ---- ------- ----- -- ----<br>-------- ------- -- ---------- --- - --- ----- ----- ----<br>---- --- --- ----- --- ---- ---- ------- ----- ---- -------<br>--- --- -- ----- -- --- ---- -- --- ---- -- ------ ------<br>--- ----- -- ----,146596.37000015937,146595.49500001594,145789.031,145793.4050001204,145805.919,146605.94,,1,it
screen,html.Screen,2_1_0_1_2,2021-04-30T13:25:26.396Z,,,,,,,,,,,,,,,,,53,,,,,,,,,,,,,,733.6600000648177,,response,,,,99,,,,,,,Space,keypress(Space),,,,,,,,---- -- comes -- ------ - ------- --- ----------<br>------------- ------ ------ ---- ---- ------- ----- -- ----<br>-------- ------- -- ---------- --- - --- ----- ----- ----<br>---- --- --- ----- --- ---- ---- ------- ----- ---- -------<br>--- --- -- ----- -- --- ---- -- --- ---- -- ------ ------<br>--- ----- -- ----,147339.98000016436,147339.60000006482,146589.127,146596.4399999939,146605.94,147355.965,,2,comes
screen,html.Screen,2_1_0_1_3,2021-04-30T13:25:27.150Z,,,,,,,,,,,,,,,,,53,,,,,,,,,,,,,,737.5150000395661,,response,,,,99,,,,,,,Space,keypress(Space),,,,,,,,---- -- ----- to ------ - ------- --- ----------<br>------------- ------ ------ ---- ---- ------- ----- -- ----<br>-------- ------- -- ---------- --- - --- ----- ----- ----<br>---- --- --- ----- --- ---- ---- ------- ----- ---- -------<br>--- --- -- ----- -- --- ---- -- --- ---- -- ------ ------<br>--- ----- -- ----,148093.85500010103,148093.48000003956,147339.191,147340.0449999608,147355.965,148106.009,,3,to
screen,html.Screen,2_1_0_1_4,2021-04-30T13:25:27.868Z,,,,,,,,,,,,,,,,,53,,,,,,,,,,,,,,705.4860000308545,,response,,,,99,,,,,,,Space,keypress(Space),,,,,,,,---- -- ----- -- having - ------- --- ----------<br>------------- ------ ------ ---- ---- ------- ----- -- ----<br>-------- ------- -- ---------- --- - --- ----- ----- ----<br>---- --- --- ----- --- ---- ---- ------- ----- ---- -------<br>--- --- -- ----- -- --- ---- -- --- ---- -- ------ ------<br>--- ----- -- ----,148811.89000001177,148811.49500003085,148089.269,148093.91500009224,148106.009,148822.72,,4,having
screen,html.Screen,2_1_0_1_5,2021-04-30T13:25:28.568Z,,,,,,,,,,,,,,,,,53,,,,,,,,,,,,,,688.7550000648189,,response,,,,99,,,,,,,Space,keypress(Space),,,,,,,,---- -- ----- -- ------ a ------- --- ----------<br>------------- ------ ------ ---- ---- ------- ----- -- ----<br>-------- ------- -- ---------- --- - --- ----- ----- ----<br>---- --- --- ----- --- ---- ---- ------- ----- ---- -------<br>--- --- -- ----- -- --- ---- -- --- ---- -- ------ ------<br>--- ----- -- ----,149511.90500007942,149511.47500006482,148805.9,148811.95000000298,148822.72,149522.78,,5,a
screen,html.Screen,2_1_0_1_6,2021-04-30T13:25:29.288Z,,,,,,,,,,,,,,,,,53,,,,,,,,,,,,,,708.8000001379114,,response,,,,99,,,,,,,Space,keypress(Space),,,,,,,,---- -- ----- -- ------ - lasting --- ----------<br>------------- ------ ------ ---- ---- ------- ----- -- ----<br>-------- ------- -- ---------- --- - --- ----- ----- ----<br>---- --- --- ----- --- ---- ---- ------- ----- ---- -------<br>--- --- -- ----- -- --- ---- -- --- ---- -- ------ ------<br>--- ----- -- ----,150231.93000000902,150231.5800001379,149506.011,149511.96500007063,149522.78,150239.463,,6,lasting
screen,html.Screen,2_1_0_1_7,2021-04-30T13:25:29.978Z,,,,,,,,,,,,,,,,,53,,,,,,,,,,,,,,681.6020001186989,,response,,,,99,,,,,,,Space,keypress(Space),,,,,,,,---- -- ----- -- ------ - ------- and ----------<br>------------- ------ ------ ---- ---- ------- ----- -- ----<br>-------- ------- -- ---------- --- - --- ----- ----- ----<br>---- --- --- ----- --- ---- ---- ------- ----- ---- -------<br>--- --- -- ----- -- --- ---- -- --- ---- -- ------ ------<br>--- ----- -- ----,150921.5250001289,150921.0650001187,150222.72,150231.99000000022,150239.463,150950.935,,7,and
screen,html.Screen,2_1_0_1_8,2021-04-30T13:25:30.669Z,,,,,,,,,,,,,,,,,53,,,,,,,,,,,,,,661.4800000978285,,response,,,,99,,,,,,,Space,keypress(Space),,,,,,,,---- -- ----- -- ------ - ------- --- fulfilling<br>------------- ------ ------ ---- ---- ------- ----- -- ----<br>-------- ------- -- ---------- --- - --- ----- ----- ----<br>---- --- --- ----- --- ---- ---- ------- ----- ---- -------<br>--- --- -- ----- -- --- ---- -- --- ---- -- ------ ------<br>--- ----- -- ----,151612.80500004068,151612.41500009783,150906.073,150921.62499995902,150950.935,151622.895,,8,fulfilling
screen,html.Screen,2_1_0_1_9,2021-04-30T13:25:31.349Z,,,,,,,,,,,,,,,,,53,,,,,,,,,,,,,,669.6450000531331,,response,,,,99,,,,,,,Space,keypress(Space),,,,,,,,"---- -- ----- -- ------ - ------- --- ----------<br>relationship, ------ ------ ---- ---- ------- ----- -- ----<br>-------- ------- -- ---------- --- - --- ----- ----- ----<br>---- --- --- ----- --- ---- ---- ------- ----- ---- -------<br>--- --- -- ----- -- --- ---- -- --- ---- -- ------ ------<br>--- ----- -- ----",152292.9750001058,152292.54000005312,151606.138,151612.85999999382,151622.895,152306.265,,9,"relationship,"
screen,html.Screen,2_1_0_1_10,2021-04-30T13:25:32.105Z,,,,,,,,,,,,,,,,,53,,,,,,,,,,,,,,742.2050000379095,,response,,,,99,,,,,,,Space,keypress(Space),,,,,,,,---- -- ----- -- ------ - ------- --- ----------<br>------------- common ------ ---- ---- ------- ----- -- ----<br>-------- ------- -- ---------- --- - --- ----- ----- ----<br>---- --- --- ----- --- ---- ---- ------- ----- ---- -------<br>--- --- -- ----- -- --- ---- -- --- ---- -- ------ ------<br>--- ----- -- ----,153048.85000013746,153048.47000003792,152289.501,152293.0499999784,152306.265,153056.306,,10,common
screen,html.Screen,2_1_0_1_11,2021-04-30T13:25:32.707Z,,,,,,,,,,,,,,,,,53,,,,,,,,,,,,,,594.2040000649577,,response,,,,99,,,,,,,Space,keypress(Space),,,,,,,,---- -- ----- -- ------ - ------- --- ----------<br>------------- ------ wisdom ---- ---- ------- ----- -- ----<br>-------- ------- -- ---------- --- - --- ----- ----- ----<br>---- --- --- ----- --- ---- ---- ------- ----- ---- -------<br>--- --- -- ----- -- --- ---- -- --- ---- -- ------ ------<br>--- ----- -- ----,153650.9050000459,153650.51000006497,153039.542,153048.9050000906,153056.306,153656.336,,11,wisdom
screen,html.Screen,2_1_0_1_12,2021-04-30T13:25:33.189Z,,,,,,,,,,,,,,,,,53,,,,,,,,,,,,,,476.104000073974,,response,,,,99,,,,,,,Space,keypress(Space),,,,,,,,---- -- ----- -- ------ - ------- --- ----------<br>------------- ------ ------ says ---- ------- ----- -- ----<br>-------- ------- -- ---------- --- - --- ----- ----- ----<br>---- --- --- ----- --- ---- ---- ------- ----- ---- -------<br>--- --- -- ----- -- --- ---- -- --- ---- -- ------ ------<br>--- ----- -- ----,154132.82000017352,154132.44000007398,153639.542,153650.97000007518,153656.336,154139.657,,12,says
screen,html.Screen,2_1_0_1_13,2021-04-30T13:25:33.625Z,,,,,,,,,,,,,,,,,53,,,,,,,,,,,,,,428.86299997160677,,response,,,,99,,,,,,,Space,keypress(Space),,,,,,,,---- -- ----- -- ------ - ------- --- ----------<br>------------- ------ ------ ---- that ------- ----- -- ----<br>-------- ------- -- ---------- --- - --- ----- ----- ----<br>---- --- --- ----- --- ---- ---- ------- ----- ---- -------<br>--- --- -- ----- -- --- ---- -- --- ---- -- ------ ------<br>--- ----- -- ----,154568.8599999994,154568.5199999716,154122.978,154132.88000016473,154139.657,154573.077,,13,that
screen,html.Screen,2_1_0_1_14,2021-04-30T13:25:34.065Z,,,,,,,,,,,,,,,,,53,,,,,,,,,,,,,,435.4130001529702,,response,,,,99,,,,,,,Space,keypress(Space),,,,,,,,---- -- ----- -- ------ - ------- --- ----------<br>------------- ------ ------ ---- ---- feeling ----- -- ----<br>-------- ------- -- ---------- --- - --- ----- ----- ----<br>---- --- --- ----- --- ---- ---- ------- ----- ---- -------<br>--- --- -- ----- -- --- ---- -- --- ---- -- ------ ------<br>--- ----- -- ----,155008.91000009142,155008.49000015296,154556.303,154568.91499995254,154573.077,155023.115,,14,feeling
screen,html.Screen,2_1_0_1_15,2021-04-30T13:25:34.551Z,,,,,,,,,,,,,,,,,53,,,,,,,,,,,,,,471.39500010595657,,response,,,,99,,,,,,,Space,keypress(Space),,,,,,,,---- -- ----- -- ------ - ------- --- ----------<br>------------- ------ ------ ---- ---- ------- close -- ----<br>-------- ------- -- ---------- --- - --- ----- ----- ----<br>---- --- --- ----- --- ---- ---- ------- ----- ---- -------<br>--- --- -- ----- -- --- ---- -- --- ---- -- ------ ------<br>--- ----- -- ----,155494.89500001073,155494.51000010595,155006.354,155008.97000008263,155023.115,155506.449,,15,close
screen,html.Screen,2_1_0_1_16,2021-04-30T13:25:34.997Z,,,,,,,,,,,,,,,,,53,,,,,,,,,,,,,,434.24100007585366,,response,,,,99,,,,,,,Space,keypress(Space),,,,,,,,---- -- ----- -- ------ - ------- --- ----------<br>------------- ------ ------ ---- ---- ------- ----- to ----<br>-------- ------- -- ---------- --- - --- ----- ----- ----<br>---- --- --- ----- --- ---- ---- ------- ----- ---- -------<br>--- --- -- ----- -- --- ---- -- --- ---- -- ------ ------<br>--- ----- -- ----,155941.1300001666,155940.69000007585,155489.729,155494.95500000194,155506.449,155956.494,,16,to
screen,html.Screen,2_1_0_1_17,2021-04-30T13:25:35.463Z,,,,,,,,,,,,,,,,,53,,,,,,,,,,,,,,450.0559999560355,,response,,,,99,,,,,,,Space,keypress(Space),,,,,,,,---- -- ----- -- ------ - ------- --- ----------<br>------------- ------ ------ ---- ---- ------- ----- -- your<br>-------- ------- -- ---------- --- - --- ----- ----- ----<br>---- --- --- ----- --- ---- ---- ------- ----- ---- -------<br>--- --- -- ----- -- --- ---- -- --- ---- -- ------ ------<br>--- ----- -- ----,156407.07499999553,156406.54999995604,155939.692,155941.2350000348,155956.494,156423.144,,17,your
screen,html.Screen,2_1_0_1_18,2021-04-30T13:25:35.905Z,,,,,,,,,,,,,,,,,53,,,,,,,,,,,,,,425.4309999526886,,response,,,,99,,,,,,,Space,keypress(Space),,,,,,,,---- -- ----- -- ------ - ------- --- ----------<br>------------- ------ ------ ---- ---- ------- ----- -- ----<br>romantic ------- -- ---------- --- - --- ----- ----- ----<br>---- --- --- ----- --- ---- ---- ------- ----- ---- -------<br>--- --- -- ----- -- --- ---- -- --- ---- -- ------ ------<br>--- ----- -- ----,156849.01000000536,156848.5749999527,156406.436,156407.14500006288,156423.144,156856.55,,18,romantic
screen,html.Screen,2_1_0_1_19,2021-04-30T13:25:36.331Z,,,,,,,,,,,,,,,,,53,,,,,,,,,,,,,,417.9300001382944,,response,,,,99,,,,,,,Space,keypress(Space),,,,,,,,---- -- ----- -- ------ - ------- --- ----------<br>------------- ------ ------ ---- ---- ------- ----- -- ----<br>-------- partner -- ---------- --- - --- ----- ----- ----<br>---- --- --- ----- --- ---- ---- ------- ----- ---- -------<br>--- --- -- ----- -- --- ---- -- --- ---- -- ------ ------<br>--- ----- -- ----,157274.8300000094,157274.48000013828,156839.819,156849.06999999657,156856.55,157289.906,,19,partner
screen,html.Screen,2_1_0_1_20,2021-04-30T13:25:36.795Z,,,,,,,,,,,,,,,,,53,,,,,,,,,,,,,,448.5790000962734,,response,,,,99,,,,,,,Space,keypress(Space),,,,,,,,---- -- ----- -- ------ - ------- --- ----------<br>------------- ------ ------ ---- ---- ------- ----- -- ----<br>-------- ------- is ---------- --- - --- ----- ----- ----<br>---- --- --- ----- --- ---- ---- ------- ----- ---- -------<br>--- --- -- ----- -- --- ---- -- --- ---- -- ------ ------<br>--- ----- -- ----,157738.9849999454,157738.48500009626,157273.188,157274.8900000006,157289.906,157762.174,,20,is
screen,html.Screen,2_1_0_1_21,2021-04-30T13:25:37.279Z,,,,,,,,,,,,,,,,,53,,,,,,,,,,,,,,460.31100003479514,,response,,,,99,,,,,,,Space,keypress(Space),,,,,,,,---- -- ----- -- ------ - ------- --- ----------<br>------------- ------ ------ ---- ---- ------- ----- -- ----<br>-------- ------- -- paramount. --- - --- ----- ----- ----<br>---- --- --- ----- --- ---- ---- ------- ----- ---- -------<br>--- --- -- ----- -- --- ---- -- --- ---- -- ------ ------<br>--- ----- -- ----,158222.98500011675,158222.4850000348,157723.186,157739.04500016943,157762.174,158239.959,,21,paramount.
screen,html.Screen,2_1_0_1_22,2021-04-30T13:25:37.879Z,,,,,,,,,,,,,,,,,53,,,,,,,,,,,,,,582.4910000942473,,response,,,,99,,,,,,,Space,keypress(Space),,,,,,,,---- -- ----- -- ------ - ------- --- ----------<br>------------- ------ ------ ---- ---- ------- ----- -- ----<br>-------- ------- -- ---------- But - --- ----- ----- ----<br>---- --- --- ----- --- ---- ---- ------- ----- ---- -------<br>--- --- -- ----- -- --- ---- -- --- ---- -- ------ ------<br>--- ----- -- ----,158822.82999996096,158822.45000009425,158223.223,158223.0400000699,158239.959,158856.656,,22,But
screen,html.Screen,2_1_0_1_23,2021-04-30T13:25:38.321Z,,,,,,,,,,,,,,,,,53,,,,,,,,,,,,,,407.8140000528365,,response,,,,99,,,,,,,Space,keypress(Space),,,,,,,,---- -- ----- -- ------ - ------- --- ----------<br>------------- ------ ------ ---- ---- ------- ----- -- ----<br>-------- ------- -- ---------- --- a --- ----- ----- ----<br>---- --- --- ----- --- ---- ---- ------- ----- ---- -------<br>--- --- -- ----- -- --- ---- -- --- ---- -- ------ ------<br>--- ----- -- ----,159264.83500003815,159264.47000005282,158850.072,158822.88500014693,158856.656,159273.292,,23,a
screen,html.Screen,2_1_0_1_24,2021-04-30T13:25:38.747Z,,,,,,,,,,,,,,,,,53,,,,,,,,,,,,,,417.13300015349523,,response,,,,99,,,,,,,Space,keypress(Space),,,,,,,,---- -- ----- -- ------ - ------- --- ----------<br>------------- ------ ------ ---- ---- ------- ----- -- ----<br>-------- ------- -- ---------- --- - new ----- ----- ----<br>---- --- --- ----- --- ---- ---- ------- ----- ---- -------<br>--- --- -- ----- -- --- ---- -- --- ---- -- ------ ------<br>--- ----- -- ----,159690.81000005826,159690.42500015348,159256.619,159264.90000006743,159273.292,159706.709,,24,new
screen,html.Screen,2_1_0_1_25,2021-04-30T13:25:39.163Z,,,,,,,,,,,,,,,,,53,,,,,,,,,,,,,,399.8159999519412,,response,,,,99,,,,,,,Space,keypress(Space),,,,,,,,---- -- ----- -- ------ - ------- --- ----------<br>------------- ------ ------ ---- ---- ------- ----- -- ----<br>-------- ------- -- ---------- --- - --- study ----- ----<br>---- --- --- ----- --- ---- ---- ------- ----- ---- -------<br>--- --- -- ----- -- --- ---- -- --- ---- -- ------ ------<br>--- ----- -- ----,160106.91000008956,160106.52499995194,159689.905,159690.8650000114,159706.709,160123.379,,25,study
screen,html.Screen,2_1_0_1_26,2021-04-30T13:25:39.545Z,,,,,,,,,,,,,,,,,53,,,,,,,,,,,,,,365.10100005820277,,response,,,,99,,,,,,,Space,keypress(Space),,,,,,,,---- -- ----- -- ------ - ------- --- ----------<br>------------- ------ ------ ---- ---- ------- ----- -- ----<br>-------- ------- -- ---------- --- - --- ----- finds ----<br>---- --- --- ----- --- ---- ---- ------- ----- ---- -------<br>--- --- -- ----- -- --- ---- -- --- ---- -- ------ ------<br>--- ----- -- ----,160488.8800000772,160488.4800000582,160106.684,160106.97000008076,160123.379,160519.992,,26,finds
screen,html.Screen,2_1_0_1_27,2021-04-30T13:25:39.993Z,,,,,,,,,,,,,,,,,53,,,,,,,,,,,,,,416.62300001326366,,response,,,,99,,,,,,,Space,keypress(Space),,,,,,,,---- -- ----- -- ------ - ------- --- ----------<br>------------- ------ ------ ---- ---- ------- ----- -- ----<br>-------- ------- -- ---------- --- - --- ----- ----- that<br>---- --- --- ----- --- ---- ---- ------- ----- ---- -------<br>--- --- -- ----- -- --- ---- -- --- ---- -- ------ ------<br>--- ----- -- ----,160936.98500003666,160936.61500001326,160473.365,160488.9400000684,160519.992,160940.102,,27,that
screen,html.Screen,2_1_0_1_28,2021-04-30T13:25:40.457Z,,,,,,,,,,,,,,,,,53,,,,,,,,,,,,,,460.38300010742387,,response,,,,99,,,,,,,Space,keypress(Space),,,,,,,,---- -- ----- -- ------ - ------- --- ----------<br>------------- ------ ------ ---- ---- ------- ----- -- ----<br>-------- ------- -- ---------- --- - --- ----- ----- ----<br>it's --- --- ----- --- ---- ---- ------- ----- ---- -------<br>--- --- -- ----- -- --- ---- -- --- ---- -- ------ ------<br>--- ----- -- ----,161400.88000008836,161400.48500010744,160923.348,160937.099999981,160940.102,161406.832,,28,it's
screen,html.Screen,2_1_0_1_29,2021-04-30T13:25:40.877Z,,,,,,,,,,,,,,,,,53,,,,,,,,,,,,,,413.6680001471541,,response,,,,99,,,,,,,Space,keypress(Space),,,,,,,,---- -- ----- -- ------ - ------- --- ----------<br>------------- ------ ------ ---- ---- ------- ----- -- ----<br>-------- ------- -- ---------- --- - --- ----- ----- ----<br>---- not --- ----- --- ---- ---- ------- ----- ---- -------<br>--- --- -- ----- -- --- ---- -- --- ---- -- ------ ------<br>--- ----- -- ----,161820.85500005633,161820.50000014715,161390.078,161400.94000007957,161406.832,161823.502,,29,not
screen,html.Screen,2_1_0_1_30,2021-04-30T13:25:41.295Z,,,,,,,,,,,,,,,,,53,,,,,,,,,,,,,,415.04300008746213,,response,,,,99,,,,,,,Space,keypress(Space),,,,,,,,---- -- ----- -- ------ - ------- --- ----------<br>------------- ------ ------ ---- ---- ------- ----- -- ----<br>-------- ------- -- ---------- --- - --- ----- ----- ----<br>---- --- how ----- --- ---- ---- ------- ----- ---- -------<br>--- --- -- ----- -- --- ---- -- --- ---- -- ------ ------<br>--- ----- -- ----,162238.88500011526,162238.54500008747,161806.772,161820.91000000946,161823.502,162259.741,,30,how
screen,html.Screen,2_1_0_1_31,2021-04-30T13:25:41.711Z,,,,,,,,,,,,,,,,,53,,,,,,,,,,,,,,394.6989999547659,,response,,,,99,,,,,,,Space,keypress(Space),,,,,,,,---- -- ----- -- ------ - ------- --- ----------<br>------------- ------ ------ ---- ---- ------- ----- -- ----<br>-------- ------- -- ---------- --- - --- ----- ----- ----<br>---- --- --- close --- ---- ---- ------- ----- ---- -------<br>--- --- -- ----- -- --- ---- -- --- ---- -- ------ ------<br>--- ----- -- ----,162654.82000005431,162654.43999995477,162223.397,162238.9400000684,162259.741,162656.891,,31,close
screen,html.Screen,2_1_0_1_32,2021-04-30T13:25:42.175Z,,,,,,,,,,,,,,,,,53,,,,,,,,,,,,,,461.59399998449953,,response,,,,99,,,,,,,Space,keypress(Space),,,,,,,,---- -- ----- -- ------ - ------- --- ----------<br>------------- ------ ------ ---- ---- ------- ----- -- ----<br>-------- ------- -- ---------- --- - --- ----- ----- ----<br>---- --- --- ----- you ---- ---- ------- ----- ---- -------<br>--- --- -- ----- -- --- ---- -- --- ---- -- ------ ------<br>--- ----- -- ----,163118.81500016898,163118.4849999845,162640.123,162655.32000013627,162656.891,163123.582,,32,you
screen,html.Screen,2_1_0_1_33,2021-04-30T13:25:42.741Z,,,,,,,,,,,,,,,,,53,,,,,,,,,,,,,,560.9030000925413,,response,,,,99,,,,,,,Space,keypress(Space),,,,,,,,---- -- ----- -- ------ - ------- --- ----------<br>------------- ------ ------ ---- ---- ------- ----- -- ----<br>-------- ------- -- ---------- --- - --- ----- ----- ----<br>---- --- --- ----- --- feel ---- ------- ----- ---- -------<br>--- --- -- ----- -- --- ---- -- --- ---- -- ------ ------<br>--- ----- -- ----,163684.860000154,163684.48500009254,163106.858,163118.87999996543,163123.582,163690.172,,33,feel
screen,html.Screen,2_1_0_1_34,2021-04-30T13:25:43.225Z,,,,,,,,,,,,,,,,,53,,,,,,,,,,,,,,478.30799999300507,,response,,,,99,,,,,,,Space,keypress(Space),,,,,,,,---- -- ----- -- ------ - ------- --- ----------<br>------------- ------ ------ ---- ---- ------- ----- -- ----<br>-------- ------- -- ---------- --- - --- ----- ----- ----<br>---- --- --- ----- --- ---- that ------- ----- ---- -------<br>--- --- -- ----- -- --- ---- -- --- ---- -- ------ ------<br>--- ----- -- ----,164168.91500004567,164168.479999993,163673.499,163684.91500010714,163690.172,164173.634,,34,that
screen,html.Screen,2_1_0_1_35,2021-04-30T13:25:43.651Z,,,,,,,,,,,,,,,,,53,,,,,,,,,,,,,,420.8610000848712,,response,,,,99,,,,,,,Space,keypress(Space),,,,,,,,---- -- ----- -- ------ - ------- --- ----------<br>------------- ------ ------ ---- ---- ------- ----- -- ----<br>-------- ------- -- ---------- --- - --- ----- ----- ----<br>---- --- --- ----- --- ---- ---- matters ----- ---- -------<br>--- --- -- ----- -- --- ---- -- --- ---- -- ------ ------<br>--- ----- -- ----,164594.86500010826,164594.49500008486,164156.91,164168.97500003688,164173.634,164606.981,,35,matters
screen,html.Screen,2_1_0_1_36,2021-04-30T13:25:44.164Z,,,,,,,,,,,,,,,,,53,,,,,,,,,,,,,,500.5889999928477,,response,,,,99,,,,,,,Space,keypress(Space),,,,,,,,"---- -- ----- -- ------ - ------- --- ----------<br>------------- ------ ------ ---- ---- ------- ----- -- ----<br>-------- ------- -- ---------- --- - --- ----- ----- ----<br>---- --- --- ----- --- ---- ---- ------- most, ---- -------<br>--- --- -- ----- -- --- ---- -- --- ---- -- ------ ------<br>--- ----- -- ----",165107.8699999489,165107.56999999285,164590.212,164595.18499998376,164606.981,165123.725,,36,"most,"
screen,html.Screen,2_1_0_1_37,2021-04-30T13:25:44.733Z,,,,,,,,,,,,,,,,,53,,,,,,,,,,,,,,552.7649999834539,,response,,,,99,,,,,,,Space,keypress(Space),,,,,,,,---- -- ----- -- ------ - ------- --- ----------<br>------------- ------ ------ ---- ---- ------- ----- -- ----<br>-------- ------- -- ---------- --- - --- ----- ----- ----<br>---- --- --- ----- --- ---- ---- ------- ----- it's -------<br>--- --- -- ----- -- --- ---- -- --- ---- -- ------ ------<br>--- ----- -- ----,165676.85499996878,165676.48999998346,165106.981,165107.93000017293,165123.725,165690.459,,37,it's
screen,html.Screen,2_1_0_1_38,2021-04-30T13:25:45.193Z,,,,,,,,,,,,,,,,,53,,,,,,,,,,,,,,446.23100007211906,,response,,,,99,,,,,,,Space,keypress(Space),,,,,,,,---- -- ----- -- ------ - ------- --- ----------<br>------------- ------ ------ ---- ---- ------- ----- -- ----<br>-------- ------- -- ---------- --- - --- ----- ----- ----<br>---- --- --- ----- --- ---- ---- ------- ----- ---- whether<br>--- --- -- ----- -- --- ---- -- --- ---- -- ------ ------<br>--- ----- -- ----,166136.9499999564,166136.69000007212,165673.671,165676.91000015475,165690.459,166140.42,,38,whether
screen,html.Screen,2_1_0_1_39,2021-04-30T13:25:46.249Z,,,,,,,,,,,,,,,,,53,,,,,,,,,,,,,,1052.2500000185391,,response,,,,99,,,,,,,Space,keypress(Space),,,,,,,,---- -- ----- -- ------ - ------- --- ----------<br>------------- ------ ------ ---- ---- ------- ----- -- ----<br>-------- ------- -- ---------- --- - --- ----- ----- ----<br>---- --- --- ----- --- ---- ---- ------- ----- ---- -------<br>you --- -- ----- -- --- ---- -- --- ---- -- ------ ------<br>--- ----- -- ----,167193.01500008442,167192.67000001855,166123.663,166137.00999994762,166140.42,167207.17,,39,you
screen,html.Screen,2_1_0_1_40,2021-04-30T13:25:46.877Z,,,,,,,,,,,,,,,,,53,,,,,,,,,,,,,,613.3250001090637,,response,,,,99,,,,,,,Space,keypress(Space),,,,,,,,---- -- ----- -- ------ - ------- --- ----------<br>------------- ------ ------ ---- ---- ------- ----- -- ----<br>-------- ------- -- ---------- --- - --- ----- ----- ----<br>---- --- --- ----- --- ---- ---- ------- ----- ---- -------<br>--- are -- ----- -- --- ---- -- --- ---- -- ------ ------<br>--- ----- -- ----,167820.89000009,167820.49500010908,167190.362,167193.07500007562,167207.17,167823.856,,40,are
screen,html.Screen,2_1_0_1_41,2021-04-30T13:25:47.433Z,,,,,,,,,,,,,,,,,53,,,,,,,,,,,,,,552.6340001697245,,response,,,,99,,,,,,,Space,keypress(Space),,,,,,,,---- -- ----- -- ------ - ------- --- ----------<br>------------- ------ ------ ---- ---- ------- ----- -- ----<br>-------- ------- -- ---------- --- - --- ----- ----- ----<br>---- --- --- ----- --- ---- ---- ------- ----- ---- -------<br>--- --- as ----- -- --- ---- -- --- ---- -- ------ ------<br>--- ----- -- ----,168376.8750000745,168376.49000016972,167807.12,167820.9500000812,167823.856,168390.522,,41,as
screen,html.Screen,2_1_0_1_42,2021-04-30T13:25:47.888Z,,,,,,,,,,,,,,,,,53,,,,,,,,,,,,,,441.07300011243206,,response,,,,99,,,,,,,Space,keypress(Space),,,,,,,,---- -- ----- -- ------ - ------- --- ----------<br>------------- ------ ------ ---- ---- ------- ----- -- ----<br>-------- ------- -- ---------- --- - --- ----- ----- ----<br>---- --- --- ----- --- ---- ---- ------- ----- ---- -------<br>--- --- -- close -- --- ---- -- --- ---- -- ------ ------<br>--- ----- -- ----,168832.0750000421,168831.59500011243,168373.791,168376.9350000657,168390.522,168840.598,,42,close
screen,html.Screen,2_1_0_1_43,2021-04-30T13:25:48.424Z,,,,,,,,,,,,,,,,,53,,,,,,,,,,,,,,526.9020001676399,,response,,,,99,,,,,,,Space,keypress(Space),,,,,,,,---- -- ----- -- ------ - ------- --- ----------<br>------------- ------ ------ ---- ---- ------- ----- -- ----<br>-------- ------- -- ---------- --- - --- ----- ----- ----<br>---- --- --- ----- --- ---- ---- ------- ----- ---- -------<br>--- --- -- ----- as --- ---- -- --- ---- -- ------ ------<br>--- ----- -- ----,169367.9649999831,169367.50000016764,168823.886,168832.12999999523,168840.598,169374.008,,43,as
screen,html.Screen,2_1_0_1_44,2021-04-30T13:25:48.913Z,,,,,,,,,,,,,,,,,53,,,,,,,,,,,,,,481.4720001438691,,response,,,,99,,,,,,,Space,keypress(Space),,,,,,,,---- -- ----- -- ------ - ------- --- ----------<br>------------- ------ ------ ---- ---- ------- ----- -- ----<br>-------- ------- -- ---------- --- - --- ----- ----- ----<br>---- --- --- ----- --- ---- ---- ------- ----- ---- -------<br>--- --- -- ----- -- you ---- -- --- ---- -- ------ ------<br>--- ----- -- ----,169856.57000006177,169855.48000014387,169357.231,169368.02000016905,169374.008,169882.988,,44,you
screen,html.Screen,2_1_0_1_45,2021-04-30T13:25:49.406Z,,,,,,,,,,,,,,,,,53,,,,,,,,,,,,,,466.61700011219364,,response,,,,99,,,,,,,Space,keypress(Space),,,,,,,,---- -- ----- -- ------ - ------- --- ----------<br>------------- ------ ------ ---- ---- ------- ----- -- ----<br>-------- ------- -- ---------- --- - --- ----- ----- ----<br>---- --- --- ----- --- ---- ---- ------- ----- ---- -------<br>--- --- -- ----- -- --- want -- --- ---- -- ------ ------<br>--- ----- -- ----,170349.98000017367,170349.6050001122,169840.602,169856.63500009105,169882.988,170357.356,,45,want
screen,html.Screen,2_1_0_1_46,2021-04-30T13:25:49.868Z,,,,,,,,,,,,,,,,,53,,,,,,,,,,,,,,454.188999945909,,response,,,,99,,,,,,,Space,keypress(Space),,,,,,,,---- -- ----- -- ------ - ------- --- ----------<br>------------- ------ ------ ---- ---- ------- ----- -- ----<br>-------- ------- -- ---------- --- - --- ----- ----- ----<br>---- --- --- ----- --- ---- ---- ------- ----- ---- -------<br>--- --- -- ----- -- --- ---- to --- ---- -- ------ ------<br>--- ----- -- ----,170811.87500013039,170811.5449999459,170340.562,170350.0350001268,170357.356,170824.076,,46,to
screen,html.Screen,2_1_0_1_47,2021-04-30T13:25:50.252Z,,,,,,,,,,,,,,,,,53,,,,,,,,,,,,,,371.49399998167064,,response,,,,99,,,,,,,Space,keypress(Space),,,,,,,,"---- -- ----- -- ------ - ------- --- ----------<br>------------- ------ ------ ---- ---- ------- ----- -- ----<br>-------- ------- -- ---------- --- - --- ----- ----- ----<br>---- --- --- ----- --- ---- ---- ------- ----- ---- -------<br>--- --- -- ----- -- --- ---- -- be, ---- -- ------ ------<br>--- ----- -- ----",171196.05000014417,171195.56999998167,170807.296,170811.93000008352,170824.076,171207.471,,47,"be,"
screen,html.Screen,2_1_0_1_48,2021-04-30T13:25:50.792Z,,,,,,,,,,,,,,,,,53,,,,,,,,,,,,,,528.0289999515808,,response,,,,99,,,,,,,Space,keypress(Space),,,,,,,,---- -- ----- -- ------ - ------- --- ----------<br>------------- ------ ------ ---- ---- ------- ----- -- ----<br>-------- ------- -- ---------- --- - --- ----- ----- ----<br>---- --- --- ----- --- ---- ---- ------- ----- ---- -------<br>--- --- -- ----- -- --- ---- -- --- even -- ------ ------<br>--- ----- -- ----,171735.92000012286,171735.49999995157,171190.626,171196.1050000973,171207.471,171740.763,,48,even
screen,html.Screen,2_1_0_1_49,2021-04-30T13:25:51.202Z,,,,,,,,,,,,,,,,,53,,,,,,,,,,,,,,404.72199998635915,,response,,,,99,,,,,,,Space,keypress(Space),,,,,,,,---- -- ----- -- ------ - ------- --- ----------<br>------------- ------ ------ ---- ---- ------- ----- -- ----<br>-------- ------- -- ---------- --- - --- ----- ----- ----<br>---- --- --- ----- --- ---- ---- ------- ----- ---- -------<br>--- --- -- ----- -- --- ---- -- --- ---- if ------ ------<br>--- ----- -- ----,172145.79500001855,172145.48499998637,171723.962,171735.975000076,171740.763,172157.42,,49,if
screen,html.Screen,2_1_0_1_50,2021-04-30T13:25:51.618Z,,,,,,,,,,,,,,,,,53,,,,,,,,,,,,,,404.08000006890506,,response,,,,99,,,,,,,Space,keypress(Space),,,,,,,,---- -- ----- -- ------ - ------- --- ----------<br>------------- ------ ------ ---- ---- ------- ----- -- ----<br>-------- ------- -- ---------- --- - --- ----- ----- ----<br>---- --- --- ----- --- ---- ---- ------- ----- ---- -------<br>--- --- -- ----- -- --- ---- -- --- ---- -- that's ------<br>--- ----- -- ----,172561.88000016846,172561.50000006892,172140.744,172145.8499999717,172157.42,172574.178,,50,that's
screen,html.Screen,2_1_0_1_51,2021-04-30T13:25:52.080Z,,,,,,,,,,,,,,,,,53,,,,,,,,,,,,,,449.4170001515304,,response,,,,99,,,,,,,Space,keypress(Space),,,,,,,,---- -- ----- -- ------ - ------- --- ----------<br>------------- ------ ------ ---- ---- ------- ----- -- ----<br>-------- ------- -- ---------- --- - --- ----- ----- ----<br>---- --- --- ----- --- ---- ---- ------- ----- ---- -------<br>--- --- -- ----- -- --- ---- -- --- ---- -- ------ really<br>--- ----- -- ----,173024.08500015736,173023.59500015154,172557.463,172561.93000008352,172574.178,173040.856,,51,really
screen,html.Screen,2_1_0_1_52,2021-04-30T13:25:52.562Z,,,,,,,,,,,,,,,,,53,,,,,,,,,,,,,,464.81900013858103,,response,,,,99,,,,,,,Space,keypress(Space),,,,,,,,---- -- ----- -- ------ - ------- --- ----------<br>------------- ------ ------ ---- ---- ------- ----- -- ----<br>-------- ------- -- ---------- --- - --- ----- ----- ----<br>---- --- --- ----- --- ---- ---- ------- ----- ---- -------<br>--- --- -- ----- -- --- ---- -- --- ---- -- ------ ------<br>not ----- -- ----,173506.10500015318,173505.67500013858,173024.144,173024.19000002556,173040.856,173507.562,,52,not
screen,html.Screen,2_1_0_1_53,2021-04-30T13:25:52.990Z,,,,,,,,,,,,,,,,,53,,,,,,,,,,,,,,426.12800009260536,,response,,,,99,,,,,,,Space,keypress(Space),,,,,,,,---- -- ----- -- ------ - ------- --- ----------<br>------------- ------ ------ ---- ---- ------- ----- -- ----<br>-------- ------- -- ---------- --- - --- ----- ----- ----<br>---- --- --- ----- --- ---- ---- ------- ----- ---- -------<br>--- --- -- ----- -- --- ---- -- --- ---- -- ------ ------<br>--- close -- ----,173934.02500008233,173933.6900000926,173490.833,173506.16999994963,173507.562,173940.916,,53,close
screen,html.Screen,2_1_0_1_54,2021-04-30T13:25:53.442Z,,,,,,,,,,,,,,,,,53,,,,,,,,,,,,,,444.6190001249488,,response,,,,99,,,,,,,Space,keypress(Space),,,,,,,,---- -- ----- -- ------ - ------- --- ----------<br>------------- ------ ------ ---- ---- ------- ----- -- ----<br>-------- ------- -- ---------- --- - --- ----- ----- ----<br>---- --- --- ----- --- ---- ---- ------- ----- ---- -------<br>--- --- -- ----- -- --- ---- -- --- ---- -- ------ ------<br>--- ----- at ----,174385.90500014834,174385.53500012495,173924.189,173934.08500007354,173940.916,174390.894,,54,at
screen,html.Screen,2_1_0_1_55,2021-04-30T13:25:54.756Z,,,,,,,,,,,,,,,,,53,,,,,,,,,,,,,,1308.7260000867245,,response,,,,99,,,,,,,Space,keypress(Space),,,,,,,,---- -- ----- -- ------ - ------- --- ----------<br>------------- ------ ------ ---- ---- ------- ----- -- ----<br>-------- ------- -- ---------- --- - --- ----- ----- ----<br>---- --- --- ----- --- ---- ---- ------- ----- ---- -------<br>--- --- -- ----- -- --- ---- -- --- ---- -- ------ ------<br>--- ----- -- all.,175700.0250001438,175699.62000008672,174374.147,174385.96000010148,174390.894,175707.668,,55,all.
Item 99,flow.Loop,2_1_0_1,2021-04-30T13:25:54.756Z,,,,,,,,,,,,,,,,,,,,,,,,,,,,,,,31493.86500008672,,completion,,,,,F,,,,,,,,,,,silence,,,,,175700.130000012,175699.62000008672,144189.081,144189.42499998957,144205.755,175707.668,,,
Question 1,html.Screen,2_1_0_2,2021-04-30T13:26:02.682Z,,,,,,,,,,,,,,,,,,,,,,,,,,,,true,FALSE,,7917.772000090743,,response,,,,99,F,,,,,,FALSE,click #choice-2,,,,silence,,,,,183625.81500015222,183625.44000009075,175690.886,175700.17500012182,175707.668,183641.481,,,
Question 2,html.Screen,2_1_0_3,2021-04-30T13:26:07.578Z,,,,,,,,,,,,,,,,,,,,,,,,,,,,true,TRUE,,4879.964000078529,,response,,,,99,F,,,,,,TRUE,click #choice-1,,,,silence,,,,,188521.85999997891,188521.44500007853,183624.783,183625.91499998234,183641.481,188525.045,,,
Item 99,flow.Sequence,2_1_0,2021-04-30T13:26:07.578Z,,,,,,,,,,,,,,,,,,,,,,,,,,,,,,,54316.29000007853,,completion,,,,,,,,,,,,,,,,,,,,,188521.96000004187,188521.44500007853,134188.466,134194.12000011653,134205.155,188525.045,,,
Holding screen,html.Screen,2_1_1_0,2021-04-30T13:26:17.566Z,,,,,,,,,,,,,,,,,,,,,,,,,,,,,,,10000.68299999999,,timeout,,,,,,,,,,,,,,,,,,,,,198509.384999983,198509.027,188508.461,188522.03000010923,188525.045,198525.728,,,
screen,html.Screen,2_1_1_1_0,2021-04-30T13:26:18.852Z,,,,,,,,,,,,,,,,,54,,,,,,,,,,,,,,1268.9620001261355,,response,,,,100,,,,,,,Space,keypress(Space),,,,,,,,At --- ---- --- ------ ----- ------- ---- -- --- ------- --<br>------- ---------- ------ -- ----- -- ----- -- ---- ------<br>--- ----- --- --- ------ -------- ----- --- ------ ----- --<br>----- ----- ---------- --- --- ------ ------ ---- -- ------<br>------- --- ------ ----- --- ---- ------- -- ---- --- --<br>------- ------,199795.14500009827,199794.69000012614,198509.027,198509.4500000123,198525.728,199809.182,,0,At
screen,html.Screen,2_1_1_1_1,2021-04-30T13:26:19.232Z,,,,,,,,,,,,,,,,,54,,,,,,,,,,,,,,365.87800003777375,,response,,,,100,,,,,,,Space,keypress(Space),,,,,,,,-- the ---- --- ------ ----- ------- ---- -- --- ------- --<br>------- ---------- ------ -- ----- -- ----- -- ---- ------<br>--- ----- --- --- ------ -------- ----- --- ------ ----- --<br>----- ----- ---------- --- --- ------ ------ ---- -- ------<br>------- --- ------ ----- --- ---- ------- -- ---- --- --<br>------- ------,200175.47000013292,200175.06000003777,199792.294,199795.24500016123,199809.182,200209.198,,1,the
screen,html.Screen,2_1_1_1_2,2021-04-30T13:26:19.601Z,,,,,,,,,,,,,,,,,54,,,,,,,,,,,,,,335.37200014371774,,response,,,,100,,,,,,,Space,keypress(Space),,,,,,,,-- --- time --- ------ ----- ------- ---- -- --- ------- --<br>------- ---------- ------ -- ----- -- ----- -- ---- ------<br>--- ----- --- --- ------ -------- ----- --- ------ ----- --<br>----- ----- ---------- --- --- ------ ------ ---- -- ------<br>------- --- ------ ----- --- ---- ------- -- ---- --- --<br>------- ------,200544.97499996796,200544.57000014372,200192.497,200175.5350001622,200209.198,200559.255,,2,time
screen,html.Screen,2_1_1_1_3,2021-04-30T13:26:20.016Z,,,,,,,,,,,,,,,,,54,,,,,,,,,,,,,,399.3999999657972,,response,,,,100,,,,,,,Space,keypress(Space),,,,,,,,-- --- ---- the ------ ----- ------- ---- -- --- ------- --<br>------- ---------- ------ -- ----- -- ----- -- ---- ------<br>--- ----- --- --- ------ -------- ----- --- ------ ----- --<br>----- ----- ---------- --- --- ------ ------ ---- -- ------<br>------- --- ------ ----- --- ---- ------- -- ---- --- --<br>------- ------,200959.06000002287,200958.6549999658,200542.486,200545.03499995917,200559.255,200975.912,,3,the
screen,html.Screen,2_1_1_1_4,2021-04-30T13:26:20.524Z,,,,,,,,,,,,,,,,,54,,,,,,,,,,,,,,490.8330000997521,,response,,,,100,,,,,,,Space,keypress(Space),,,,,,,,-- --- ---- --- French ----- ------- ---- -- --- ------- --<br>------- ---------- ------ -- ----- -- ----- -- ---- ------<br>--- ----- --- --- ------ -------- ----- --- ------ ----- --<br>----- ----- ---------- --- --- ------ ------ ---- -- ------<br>------- --- ------ ----- --- ---- ------- -- ---- --- --<br>------- ------,201467.16000000015,201466.74500009976,200959.219,200959.114999976,200975.912,201475.918,,4,French
screen,html.Screen,2_1_1_1_5,2021-04-30T13:26:21.005Z,,,,,,,,,,,,,,,,,54,,,,,,,,,,,,,,472.61699997406686,,response,,,,100,,,,,,,Space,keypress(Space),,,,,,,,-- --- ---- --- ------ crown ------- ---- -- --- ------- --<br>------- ---------- ------ -- ----- -- ----- -- ---- ------<br>--- ----- --- --- ------ -------- ----- --- ------ ----- --<br>----- ----- ---------- --- --- ------ ------ ---- -- ------<br>------- --- ------ ----- --- ---- ------- -- ---- --- --<br>------- ------,201948.89000011608,201948.53499997407,201459.243,201467.21499995328,201475.918,201959.308,,5,crown
screen,html.Screen,2_1_1_1_6,2021-04-30T13:26:21.483Z,,,,,,,,,,,,,,,,,54,,,,,,,,,,,,,,467.2670001650404,,response,,,,100,,,,,,,Space,keypress(Space),,,,,,,,-- --- ---- --- ------ ----- secured ---- -- --- ------- --<br>------- ---------- ------ -- ----- -- ----- -- ---- ------<br>--- ----- --- --- ------ -------- ----- --- ------ ----- --<br>----- ----- ---------- --- --- ------ ------ ---- -- ------<br>------- --- ------ ----- --- ---- ------- -- ---- --- --<br>------- ------,202427.03500017524,202426.57500016503,201942.56,201948.94500006922,201959.308,202442.663,,6,secured
screen,html.Screen,2_1_1_1_7,2021-04-30T13:26:21.993Z,,,,,,,,,,,,,,,,,54,,,,,,,,,,,,,,493.82699999277247,,response,,,,100,,,,,,,Space,keypress(Space),,,,,,,,-- --- ---- --- ------ ----- ------- much -- --- ------- --<br>------- ---------- ------ -- ----- -- ----- -- ---- ------<br>--- ----- --- --- ------ -------- ----- --- ------ ----- --<br>----- ----- ---------- --- --- ------ ------ ---- -- ------<br>------- --- ------ ----- --- ---- ------- -- ---- --- --<br>------- ------,202936.83500005864,202936.48999999277,202425.92,202427.09000012837,202442.663,202942.661,,7,much
screen,html.Screen,2_1_1_1_8,2021-04-30T13:26:22.437Z,,,,,,,,,,,,,,,,,54,,,,,,,,,,,,,,437.9190001137031,,response,,,,100,,,,,,,Space,keypress(Space),,,,,,,,-- --- ---- --- ------ ----- ------- ---- of --- ------- --<br>------- ---------- ------ -- ----- -- ----- -- ---- ------<br>--- ----- --- --- ------ -------- ----- --- ------ ----- --<br>----- ----- ---------- --- --- ------ ------ ---- -- ------<br>------- --- ------ ----- --- ---- ------- -- ---- --- --<br>------- ------,203381.01500016637,203380.5800001137,202925.905,202936.9149999693,202942.661,203392.734,,8,of
screen,html.Screen,2_1_1_1_9,2021-04-30T13:26:22.815Z,,,,,,,,,,,,,,,,,54,,,,,,,,,,,,,,365.8110001060995,,response,,,,100,,,,,,,Space,keypress(Space),,,,,,,,-- --- ---- --- ------ ----- ------- ---- -- its ------- --<br>------- ---------- ------ -- ----- -- ----- -- ---- ------<br>--- ----- --- --- ------ -------- ----- --- ------ ----- --<br>----- ----- ---------- --- --- ------ ------ ---- -- ------<br>------- --- ------ ----- --- ---- ------- -- ---- --- --<br>------- ------,203758.92000016756,203758.5450001061,203375.957,203381.07500015758,203392.734,203776.07,,9,its
screen,html.Screen,2_1_1_1_10,2021-04-30T13:26:23.265Z,,,,,,,,,,,,,,,,,54,,,,,,,,,,,,,,432.51500013127225,,response,,,,100,,,,,,,Space,keypress(Space),,,,,,,,-- --- ---- --- ------ ----- ------- ---- -- --- revenue --<br>------- ---------- ------ -- ----- -- ----- -- ---- ------<br>--- ----- --- --- ------ -------- ----- --- ------ ----- --<br>----- ----- ---------- --- --- ------ ------ ---- -- ------<br>------- --- ------ ----- --- ---- ------- -- ---- --- --<br>------- ------,204208.91500008292,204208.58500013128,203742.682,203758.97000008263,203776.07,204235.272,,10,revenue
screen,html.Screen,2_1_1_1_11,2021-04-30T13:26:23.715Z,,,,,,,,,,,,,,,,,54,,,,,,,,,,,,,,423.2130000217585,,response,,,,100,,,,,,,Space,keypress(Space),,,,,,,,-- --- ---- --- ------ ----- ------- ---- -- --- ------- by<br>------- ---------- ------ -- ----- -- ----- -- ---- ------<br>--- ----- --- --- ------ -------- ----- --- ------ ----- --<br>----- ----- ---------- --- --- ------ ------ ---- -- ------<br>------- --- ------ ----- --- ---- ------- -- ---- --- --<br>------- ------,204658.8650001213,204658.48500002176,204192.68,204208.97500007413,204235.272,204680.679,,11,by
screen,html.Screen,2_1_1_1_12,2021-04-30T13:26:24.311Z,,,,,,,,,,,,,,,,,54,,,,,,,,,,,,,,573.8459999966435,,response,,,,100,,,,,,,Space,keypress(Space),,,,,,,,-- --- ---- --- ------ ----- ------- ---- -- --- ------- --<br>issuing ---------- ------ -- ----- -- ----- -- ---- ------<br>--- ----- --- --- ------ -------- ----- --- ------ ----- --<br>----- ----- ---------- --- --- ------ ------ ---- -- ------<br>------- --- ------ ----- --- ---- ------- -- ---- --- --<br>------- ------,205254.94999997318,205254.52499999665,204642.709,204658.92000007443,204680.679,205259.44,,12,issuing
screen,html.Screen,2_1_1_1_13,2021-04-30T13:26:24.924Z,,,,,,,,,,,,,,,,,54,,,,,,,,,,,,,,608.1100000826991,,response,,,,100,,,,,,,Space,keypress(Space),,,,,,,,-- --- ---- --- ------ ----- ------- ---- -- --- ------- --<br>------- government ------ -- ----- -- ----- -- ---- ------<br>--- ----- --- --- ------ -------- ----- --- ------ ----- --<br>----- ----- ---------- --- --- ------ ------ ---- -- ------<br>------- --- ------ ----- --- ---- ------- -- ---- --- --<br>------- ------,205867.9200001061,205867.5500000827,205242.715,205255.00500015914,205259.44,205876.216,,13,government
screen,html.Screen,2_1_1_1_14,2021-04-30T13:26:26.302Z,,,,,,,,,,,,,,,,,54,,,,,,,,,,,,,,1369.3040001131885,,response,,,,100,,,,,,,Space,keypress(Space),,,,,,,,-- --- ---- --- ------ ----- ------- ---- -- --- ------- --<br>------- ---------- bonds. -- ----- -- ----- -- ---- ------<br>--- ----- --- --- ------ -------- ----- --- ------ ----- --<br>----- ----- ---------- --- --- ------ ------ ---- -- ------<br>------- --- ------ ----- --- ---- ------- -- ---- --- --<br>------- ------,207245.95500016585,207245.52000011317,205859.416,205867.9800000973,205876.216,207259.613,,14,bonds.
screen,html.Screen,2_1_1_1_15,2021-04-30T13:26:26.752Z,,,,,,,,,,,,,,,,,54,,,,,,,,,,,,,,435.91200010466855,,response,,,,100,,,,,,,Space,keypress(Space),,,,,,,,-- --- ---- --- ------ ----- ------- ---- -- --- ------- --<br>------- ---------- ------ In ----- -- ----- -- ---- ------<br>--- ----- --- --- ------ -------- ----- --- ------ ----- --<br>----- ----- ---------- --- --- ------ ------ ---- -- ------<br>------- --- ------ ----- --- ---- ------- -- ---- --- --<br>------- ------,207695.89500012808,207695.52500010468,207242.796,207246.010000119,207259.613,207709.662,,15,In
screen,html.Screen,2_1_1_1_16,2021-04-30T13:26:28.426Z,,,,,,,,,,,,,,,,,54,,,,,,,,,,,,,,1659.8830001396127,,response,,,,100,,,,,,,Space,keypress(Space),,,,,,,,"-- --- ---- --- ------ ----- ------- ---- -- --- ------- --<br>------- ---------- ------ -- 1727, -- ----- -- ---- ------<br>--- ----- --- --- ------ -------- ----- --- ------ ----- --<br>----- ----- ---------- --- --- ------ ------ ---- -- ------<br>------- --- ------ ----- --- ---- ------- -- ---- --- --<br>------- ------",209369.96000004,209369.54500013962,207692.92,207695.9500000812,207709.662,209376.469,,16,"1727,"
screen,html.Screen,2_1_1_1_17,2021-04-30T13:26:28.888Z,,,,,,,,,,,,,,,,,54,,,,,,,,,,,,,,455.2609999762208,,response,,,,100,,,,,,,Space,keypress(Space),,,,,,,,-- --- ---- --- ------ ----- ------- ---- -- --- ------- --<br>------- ---------- ------ -- ----- in ----- -- ---- ------<br>--- ----- --- --- ------ -------- ----- --- ------ ----- --<br>----- ----- ---------- --- --- ------ ------ ---- -- ------<br>------- --- ------ ----- --- ---- ------- -- ---- --- --<br>------- ------,209832.00499997474,209831.72999997623,209359.56,209370.0250000693,209376.469,209843.126,,17,in
screen,html.Screen,2_1_1_1_18,2021-04-30T13:26:29.348Z,,,,,,,,,,,,,,,,,54,,,,,,,,,,,,,,448.37400005030213,,response,,,,100,,,,,,,Space,keypress(Space),,,,,,,,-- --- ---- --- ------ ----- ------- ---- -- --- ------- --<br>------- ---------- ------ -- ----- -- order -- ---- ------<br>--- ----- --- --- ------ -------- ----- --- ------ ----- --<br>----- ----- ---------- --- --- ------ ------ ---- -- ------<br>------- --- ------ ----- --- ---- ------- -- ---- --- --<br>------- ------,210291.88499995507,210291.5000000503,209826.418,209832.0600001607,209843.126,210312.449,,18,order
screen,html.Screen,2_1_1_1_19,2021-04-30T13:26:29.738Z,,,,,,,,,,,,,,,,,54,,,,,,,,,,,,,,369.076000138215,,response,,,,100,,,,,,,Space,keypress(Space),,,,,,,,-- --- ---- --- ------ ----- ------- ---- -- --- ------- --<br>------- ---------- ------ -- ----- -- ----- to ---- ------<br>--- ----- --- --- ------ -------- ----- --- ------ ----- --<br>----- ----- ---------- --- --- ------ ------ ---- -- ------<br>------- --- ------ ----- --- ---- ------- -- ---- --- --<br>------- ------,210681.88500008546,210681.5250001382,210276.41,210291.94000014104,210312.449,210693.177,,19,to
screen,html.Screen,2_1_1_1_20,2021-04-30T13:26:30.194Z,,,,,,,,,,,,,,,,,54,,,,,,,,,,,,,,444.3430001057277,,response,,,,100,,,,,,,Space,keypress(Space),,,,,,,,-- --- ---- --- ------ ----- ------- ---- -- --- ------- --<br>------- ---------- ------ -- ----- -- ----- -- save ------<br>--- ----- --- --- ------ -------- ----- --- ------ ----- --<br>----- ----- ---------- --- --- ------ ------ ---- -- ------<br>------- --- ------ ----- --- ---- ------- -- ---- --- --<br>------- ------,211138.0000000354,211137.52000010572,210676.391,210681.9400000386,210693.177,211143.203,,20,save
screen,html.Screen,2_1_1_1_21,2021-04-30T13:26:30.606Z,,,,,,,,,,,,,,,,,54,,,,,,,,,,,,,,406.3269999602053,,response,,,,100,,,,,,,Space,keypress(Space),,,,,,,,"-- --- ---- --- ------ ----- ------- ---- -- --- ------- --<br>------- ---------- ------ -- ----- -- ----- -- ---- money,<br>--- ----- --- --- ------ -------- ----- --- ------ ----- --<br>----- ----- ---------- --- --- ------ ------ ---- -- ------<br>------- --- ------ ----- --- ---- ------- -- ---- --- --<br>------- ------",211549.90500002168,211549.5299999602,211126.467,211138.05499998853,211143.203,211559.899,,21,"money,"
screen,html.Screen,2_1_1_1_22,2021-04-30T13:26:31.085Z,,,,,,,,,,,,,,,,,54,,,,,,,,,,,,,,467.8009999768983,,response,,,,100,,,,,,,Space,keypress(Space),,,,,,,,-- --- ---- --- ------ ----- ------- ---- -- --- ------- --<br>------- ---------- ------ -- ----- -- ----- -- ---- ------<br>the ----- --- --- ------ -------- ----- --- ------ ----- --<br>----- ----- ---------- --- --- ------ ------ ---- -- ------<br>------- --- ------ ----- --- ---- ------- -- ---- --- --<br>------- ------,212028.07500003837,212027.6999999769,211543.167,211549.95999997482,211559.899,212043.246,,22,the
screen,html.Screen,2_1_1_1_23,2021-04-30T13:26:31.538Z,,,,,,,,,,,,,,,,,54,,,,,,,,,,,,,,438.28900002807495,,response,,,,100,,,,,,,Space,keypress(Space),,,,,,,,-- --- ---- --- ------ ----- ------- ---- -- --- ------- --<br>------- ---------- ------ -- ----- -- ----- -- ---- ------<br>--- state --- --- ------ -------- ----- --- ------ ----- --<br>----- ----- ---------- --- --- ------ ------ ---- -- ------<br>------- --- ------ ----- --- ---- ------- -- ---- --- --<br>------- ------,212481.87500005588,212481.5350000281,212026.535,212028.12499995343,212043.246,212493.28,,23,state
screen,html.Screen,2_1_1_1_24,2021-04-30T13:26:32.067Z,,,,,,,,,,,,,,,,,54,,,,,,,,,,,,,,516.5250001543027,,response,,,,100,,,,,,,Space,keypress(Space),,,,,,,,-- --- ---- --- ------ ----- ------- ---- -- --- ------- --<br>------- ---------- ------ -- ----- -- ----- -- ---- ------<br>--- ----- cut --- ------ -------- ----- --- ------ ----- --<br>----- ----- ---------- --- --- ------ ------ ---- -- ------<br>------- --- ------ ----- --- ---- ------- -- ---- --- --<br>------- ------,213010.2350001689,213009.8050001543,212476.499,212481.94000008516,212493.28,213026.652,,24,cut
screen,html.Screen,2_1_1_1_25,2021-04-30T13:26:32.506Z,,,,,,,,,,,,,,,,,54,,,,,,,,,,,,,,422.85799994762056,,response,,,,100,,,,,,,Space,keypress(Space),,,,,,,,-- --- ---- --- ------ ----- ------- ---- -- --- ------- --<br>------- ---------- ------ -- ----- -- ----- -- ---- ------<br>--- ----- --- the ------ -------- ----- --- ------ ----- --<br>----- ----- ---------- --- --- ------ ------ ---- -- ------<br>------- --- ------ ----- --- ---- ------- -- ---- --- --<br>------- ------,213449.87999997102,213449.50999994762,213009.899,213010.3400000371,213026.652,213460.011,,25,the
screen,html.Screen,2_1_1_1_26,2021-04-30T13:26:32.588Z,,,,,,,,,,,,,,,,,54,,,,,,,,,,,,,,71.47400015959283,,response,,,,100,,,,,,,Space,keypress(Space),,,,,,,,-- --- ---- --- ------ ----- ------- ---- -- --- ------- --<br>------- ---------- ------ -- ----- -- ----- -- ---- ------<br>--- ----- --- --- bonds' -------- ----- --- ------ ----- --<br>----- ----- ---------- --- --- ------ ------ ---- -- ------<br>------- --- ------ ----- --- ---- ------- -- ---- --- --<br>------- ------,213531.84500010684,213531.4850001596,213443.269,213449.9650001526,213460.011,213543.321,,26,bonds'
screen,html.Screen,2_1_1_1_27,2021-04-30T13:26:33.372Z,,,,,,,,,,,,,,,,,54,,,,,,,,,,,,,,772.19899994554,,response,,,,100,,,,,,,Space,keypress(Space),,,,,,,,-- --- ---- --- ------ ----- ------- ---- -- --- ------- --<br>------- ---------- ------ -- ----- -- ----- -- ---- ------<br>--- ----- --- --- ------ interest ----- --- ------ ----- --<br>----- ----- ---------- --- --- ------ ------ ---- -- ------<br>------- --- ------ ----- --- ---- ------- -- ---- --- --<br>------- ------,214315.87500008754,214315.51999994554,213526.587,213531.90000005998,213543.321,214326.736,,27,interest
screen,html.Screen,2_1_1_1_28,2021-04-30T13:26:33.925Z,,,,,,,,,,,,,,,,,54,,,,,,,,,,,,,,541.0990001573518,,response,,,,100,,,,,,,Space,keypress(Space),,,,,,,,-- --- ---- --- ------ ----- ------- ---- -- --- ------- --<br>------- ---------- ------ -- ----- -- ----- -- ---- ------<br>--- ----- --- --- ------ -------- rate. --- ------ ----- --<br>----- ----- ---------- --- --- ------ ------ ---- -- ------<br>------- --- ------ ----- --- ---- ------- -- ---- --- --<br>------- ------,214868.23000013828,214867.83500015736,214309.947,214315.93500007875,214326.736,214876.767,,28,rate.
screen,html.Screen,2_1_1_1_29,2021-04-30T13:26:34.632Z,,,,,,,,,,,,,,,,,54,,,,,,,,,,,,,,698.7430001115426,,response,,,,100,,,,,,,Space,keypress(Space),,,,,,,,-- --- ---- --- ------ ----- ------- ---- -- --- ------- --<br>------- ---------- ------ -- ----- -- ----- -- ---- ------<br>--- ----- --- --- ------ -------- ----- The ------ ----- --<br>----- ----- ---------- --- --- ------ ------ ---- -- ------<br>------- --- ------ ----- --- ---- ------- -- ---- --- --<br>------- ------,215576.00000011735,215575.51000011154,214860.009,214868.2999999728,214876.767,215605.757,,29,The
screen,html.Screen,2_1_1_1_30,2021-04-30T13:26:35.060Z,,,,,,,,,,,,,,,,,54,,,,,,,,,,,,,,397.77300010362524,,response,,,,100,,,,,,,Space,keypress(Space),,,,,,,,-- --- ---- --- ------ ----- ------- ---- -- --- ------- --<br>------- ---------- ------ -- ----- -- ----- -- ---- ------<br>--- ----- --- --- ------ -------- ----- --- market ----- --<br>----- ----- ---------- --- --- ------ ------ ---- -- ------<br>------- --- ------ ----- --- ---- ------- -- ---- --- --<br>------- ------,216004.01500007138,216003.53000010364,215560.037,215576.0500000324,215605.757,216010.086,,30,market
screen,html.Screen,2_1_1_1_31,2021-04-30T13:26:35.460Z,,,,,,,,,,,,,,,,,54,,,,,,,,,,,,,,393.4590001247125,,response,,,,100,,,,,,,Space,keypress(Space),,,,,,,,-- --- ---- --- ------ ----- ------- ---- -- --- ------- --<br>------- ---------- ------ -- ----- -- ----- -- ---- ------<br>--- ----- --- --- ------ -------- ----- --- ------ value --<br>----- ----- ---------- --- --- ------ ------ ---- -- ------<br>------- --- ------ ----- --- ---- ------- -- ---- --- --<br>------- ------,216403.88999995776,216403.54500012472,215993.439,216004.0700000245,216010.086,216410.192,,31,value
screen,html.Screen,2_1_1_1_32,2021-04-30T13:26:35.929Z,,,,,,,,,,,,,,,,,54,,,,,,,,,,,,,,461.43799995051813,,response,,,,100,,,,,,,Space,keypress(Space),,,,,,,,-- --- ---- --- ------ ----- ------- ---- -- --- ------- --<br>------- ---------- ------ -- ----- -- ----- -- ---- ------<br>--- ----- --- --- ------ -------- ----- --- ------ ----- of<br>----- ----- ---------- --- --- ------ ------ ---- -- ------<br>------- --- ------ ----- --- ---- ------- -- ---- --- --<br>------- ------,216872.0550001599,216871.62999995053,216393.42,216403.94500014372,216410.192,216876.881,,32,of
screen,html.Screen,2_1_1_1_33,2021-04-30T13:26:36.276Z,,,,,,,,,,,,,,,,,54,,,,,,,,,,,,,,342.6490001185448,,response,,,,100,,,,,,,Space,keypress(Space),,,,,,,,-- --- ---- --- ------ ----- ------- ---- -- --- ------- --<br>------- ---------- ------ -- ----- -- ----- -- ---- ------<br>--- ----- --- --- ------ -------- ----- --- ------ ----- --<br>these ----- ---------- --- --- ------ ------ ---- -- ------<br>------- --- ------ ----- --- ---- ------- -- ---- --- --<br>------- ------,217219.8550000321,217219.53000011854,216860.08,216872.1150001511,216876.881,217226.914,,33,these
screen,html.Screen,2_1_1_1_34,2021-04-30T13:26:36.652Z,,,,,,,,,,,,,,,,,54,,,,,,,,,,,,,,368.6410000071628,,response,,,,100,,,,,,,Space,keypress(Space),,,,,,,,-- --- ---- --- ------ ----- ------- ---- -- --- ------- --<br>------- ---------- ------ -- ----- -- ----- -- ---- ------<br>--- ----- --- --- ------ -------- ----- --- ------ ----- --<br>----- bonds ---------- --- --- ------ ------ ---- -- ------<br>------- --- ------ ----- --- ---- ------- -- ---- --- --<br>------- ------,217596.00500017405,217595.55500000715,217210.211,217219.90499994718,217226.914,217610.222,,34,bonds
screen,html.Screen,2_1_1_1_35,2021-04-30T13:26:37.028Z,,,,,,,,,,,,,,,,,54,,,,,,,,,,,,,,361.29800013737986,,response,,,,100,,,,,,,Space,keypress(Space),,,,,,,,"-- --- ---- --- ------ ----- ------- ---- -- --- ------- --<br>------- ---------- ------ -- ----- -- ----- -- ---- ------<br>--- ----- --- --- ------ -------- ----- --- ------ ----- --<br>----- ----- plummeted, --- --- ------ ------ ---- -- ------<br>------- --- ------ ----- --- ---- ------- -- ---- --- --<br>------- ------",217971.9000000041,217971.5200001374,217593.524,217596.06000012718,217610.222,217976.958,,35,"plummeted,"
screen,html.Screen,2_1_1_1_36,2021-04-30T13:26:37.570Z,,,,,,,,,,,,,,,,,54,,,,,,,,,,,,,,536.5320000411884,,response,,,,100,,,,,,,Space,keypress(Space),,,,,,,,-- --- ---- --- ------ ----- ------- ---- -- --- ------- --<br>------- ---------- ------ -- ----- -- ----- -- ---- ------<br>--- ----- --- --- ------ -------- ----- --- ------ ----- --<br>----- ----- ---------- and --- ------ ------ ---- -- ------<br>------- --- ------ ----- --- ---- ------- -- ---- --- --<br>------- ------,218513.77000007778,218513.4900000412,217960.225,217971.950000152,217976.958,218526.984,,36,and
screen,html.Screen,2_1_1_1_37,2021-04-30T13:26:38.038Z,,,,,,,,,,,,,,,,,54,,,,,,,,,,,,,,454.5459999900195,,response,,,,100,,,,,,,Space,keypress(Space),,,,,,,,-- --- ---- --- ------ ----- ------- ---- -- --- ------- --<br>------- ---------- ------ -- ----- -- ----- -- ---- ------<br>--- ----- --- --- ------ -------- ----- --- ------ ----- --<br>----- ----- ---------- --- the ------ ------ ---- -- ------<br>------- --- ------ ----- --- ---- ------- -- ---- --- --<br>------- ------,218981.92499997094,218981.52999999002,218510.23,218513.82500003092,218526.984,218993.687,,37,the
screen,html.Screen,2_1_1_1_38,2021-04-30T13:26:38.512Z,,,,,,,,,,,,,,,,,54,,,,,,,,,,,,,,461.8280000378436,,response,,,,100,,,,,,,Space,keypress(Space),,,,,,,,-- --- ---- --- ------ ----- ------- ---- -- --- ------- --<br>------- ---------- ------ -- ----- -- ----- -- ---- ------<br>--- ----- --- --- ------ -------- ----- --- ------ ----- --<br>----- ----- ---------- --- --- market ------ ---- -- ------<br>------- --- ------ ----- --- ---- ------- -- ---- --- --<br>------- ------,219455.88000002317,219455.51500003785,218976.958,218981.9800001569,218993.687,219460.375,,38,market
screen,html.Screen,2_1_1_1_39,2021-04-30T13:26:38.993Z,,,,,,,,,,,,,,,,,54,,,,,,,,,,,,,,475.34499995037913,,response,,,,100,,,,,,,Space,keypress(Space),,,,,,,,-- --- ---- --- ------ ----- ------- ---- -- --- ------- --<br>------- ---------- ------ -- ----- -- ----- -- ---- ------<br>--- ----- --- --- ------ -------- ----- --- ------ ----- --<br>----- ----- ---------- --- --- ------ became ---- -- ------<br>------- --- ------ ----- --- ---- ------- -- ---- --- --<br>------- ------,219936.15500000305,219935.71999995038,219443.644,219455.9349999763,219460.375,219943.743,,39,became
screen,html.Screen,2_1_1_1_40,2021-04-30T13:26:39.636Z,,,,,,,,,,,,,,,,,54,,,,,,,,,,,,,,635.8220000218425,,response,,,,100,,,,,,,Space,keypress(Space),,,,,,,,-- --- ---- --- ------ ----- ------- ---- -- --- ------- --<br>------- ---------- ------ -- ----- -- ----- -- ---- ------<br>--- ----- --- --- ------ -------- ----- --- ------ ----- --<br>----- ----- ---------- --- --- ------ ------ wary -- ------<br>------- --- ------ ----- --- ---- ------- -- ---- --- --<br>------- ------,220579.92000016384,220579.56500002183,219926.994,219936.20500015095,219943.743,220593.761,,40,wary
screen,html.Screen,2_1_1_1_41,2021-04-30T13:26:40.031Z,,,,,,,,,,,,,,,,,54,,,,,,,,,,,,,,379.8540000244393,,response,,,,100,,,,,,,Space,keypress(Space),,,,,,,,-- --- ---- --- ------ ----- ------- ---- -- --- ------- --<br>------- ---------- ------ -- ----- -- ----- -- ---- ------<br>--- ----- --- --- ------ -------- ----- --- ------ ----- --<br>----- ----- ---------- --- --- ------ ------ ---- of ------<br>------- --- ------ ----- --- ---- ------- -- ---- --- --<br>------- ------,220974.0550001152,220973.61500002444,220576.958,220579.9700000789,220593.761,220977.122,,41,of
screen,html.Screen,2_1_1_1_42,2021-04-30T13:26:40.501Z,,,,,,,,,,,,,,,,,54,,,,,,,,,,,,,,466.4680000389635,,response,,,,100,,,,,,,Space,keypress(Space),,,,,,,,-- --- ---- --- ------ ----- ------- ---- -- --- ------- --<br>------- ---------- ------ -- ----- -- ----- -- ---- ------<br>--- ----- --- --- ------ -------- ----- --- ------ ----- --<br>----- ----- ---------- --- --- ------ ------ ---- -- French<br>------- --- ------ ----- --- ---- ------- -- ---- --- --<br>------- ------,221444.095000159,221443.59000003897,220960.407,220974.11000006832,220977.122,221460.438,,42,French
screen,html.Screen,2_1_1_1_43,2021-04-30T13:26:41.764Z,,,,,,,,,,,,,,,,,54,,,,,,,,,,,,,,1247.0520001753175,,response,,,,100,,,,,,,Space,keypress(Space),,,,,,,,-- --- ---- --- ------ ----- ------- ---- -- --- ------- --<br>------- ---------- ------ -- ----- -- ----- -- ---- ------<br>--- ----- --- --- ------ -------- ----- --- ------ ----- --<br>----- ----- ---------- --- --- ------ ------ ---- -- ------<br>credit. --- ------ ----- --- ---- ------- -- ---- --- --<br>------- ------,222707.85000012256,222707.4900001753,221443.759,221444.15000011213,221460.438,222710.511,,43,credit.
screen,html.Screen,2_1_1_1_44,2021-04-30T13:26:42.269Z,,,,,,,,,,,,,,,,,54,,,,,,,,,,,,,,501.01899997139117,,response,,,,100,,,,,,,Space,keypress(Space),,,,,,,,-- --- ---- --- ------ ----- ------- ---- -- --- ------- --<br>------- ---------- ------ -- ----- -- ----- -- ---- ------<br>--- ----- --- --- ------ -------- ----- --- ------ ----- --<br>----- ----- ---------- --- --- ------ ------ ---- -- ------<br>------- The ------ ----- --- ---- ------- -- ---- --- --<br>------- ------,223212.1900001075,223211.5299999714,222693.744,222707.9050000757,222710.511,223227.271,,44,The
screen,html.Screen,2_1_1_1_45,2021-04-30T13:26:42.802Z,,,,,,,,,,,,,,,,,54,,,,,,,,,,,,,,517.3990001601051,,response,,,,100,,,,,,,Space,keypress(Space),,,,,,,,-- --- ---- --- ------ ----- ------- ---- -- --- ------- --<br>------- ---------- ------ -- ----- -- ----- -- ---- ------<br>--- ----- --- --- ------ -------- ----- --- ------ ----- --<br>----- ----- ---------- --- --- ------ ------ ---- -- ------<br>------- --- French ----- --- ---- ------- -- ---- --- --<br>------- ------,223745.12500013225,223744.6700001601,223210.523,223212.2850001324,223227.271,223760.64,,45,French
screen,html.Screen,2_1_1_1_46,2021-04-30T13:26:43.261Z,,,,,,,,,,,,,,,,,54,,,,,,,,,,,,,,443.8950000262121,,response,,,,100,,,,,,,Space,keypress(Space),,,,,,,,-- --- ---- --- ------ ----- ------- ---- -- --- ------- --<br>------- ---------- ------ -- ----- -- ----- -- ---- ------<br>--- ----- --- --- ------ -------- ----- --- ------ ----- --<br>----- ----- ---------- --- --- ------ ------ ---- -- ------<br>------- --- ------ state --- ---- ------- -- ---- --- --<br>------- ------,224204.93500004523,224204.53500002623,223743.868,223745.18000008538,223760.64,224210.677,,46,state
screen,html.Screen,2_1_1_1_47,2021-04-30T13:26:43.739Z,,,,,,,,,,,,,,,,,54,,,,,,,,,,,,,,471.8580001454393,,response,,,,100,,,,,,,Space,keypress(Space),,,,,,,,-- --- ---- --- ------ ----- ------- ---- -- --- ------- --<br>------- ---------- ------ -- ----- -- ----- -- ---- ------<br>--- ----- --- --- ------ -------- ----- --- ------ ----- --<br>----- ----- ---------- --- --- ------ ------ ---- -- ------<br>------- --- ------ ----- was ---- ------- -- ---- --- --<br>------- ------,224682.93999996968,224682.53500014544,224193.963,224204.98999999836,224210.677,224693.994,,47,was
screen,html.Screen,2_1_1_1_48,2021-04-30T13:26:44.213Z,,,,,,,,,,,,,,,,,54,,,,,,,,,,,,,,462.6360000995337,,response,,,,100,,,,,,,Space,keypress(Space),,,,,,,,-- --- ---- --- ------ ----- ------- ---- -- --- ------- --<br>------- ---------- ------ -- ----- -- ----- -- ---- ------<br>--- ----- --- --- ------ -------- ----- --- ------ ----- --<br>----- ----- ---------- --- --- ------ ------ ---- -- ------<br>------- --- ------ ----- --- left ------- -- ---- --- --<br>------- ------,225157.005000161,225156.63000009954,224677.291,224682.99500015564,224693.994,225160.667,,48,left
screen,html.Screen,2_1_1_1_49,2021-04-30T13:26:44.667Z,,,,,,,,,,,,,,,,,54,,,,,,,,,,,,,,449.8730000233336,,response,,,,100,,,,,,,Space,keypress(Space),,,,,,,,-- --- ---- --- ------ ----- ------- ---- -- --- ------- --<br>------- ---------- ------ -- ----- -- ----- -- ---- ------<br>--- ----- --- --- ------ -------- ----- --- ------ ----- --<br>----- ----- ---------- --- --- ------ ------ ---- -- ------<br>------- --- ------ ----- --- ---- without -- ---- --- --<br>------- ------,225610.92999996617,225610.54000002332,225143.961,225157.06000011414,225160.667,225627.385,,49,without
screen,html.Screen,2_1_1_1_50,2021-04-30T13:26:45.053Z,,,,,,,,,,,,,,,,,54,,,,,,,,,,,,,,369.19500003545545,,response,,,,100,,,,,,,Space,keypress(Space),,,,,,,,-- --- ---- --- ------ ----- ------- ---- -- --- ------- --<br>------- ---------- ------ -- ----- -- ----- -- ---- ------<br>--- ----- --- --- ------ -------- ----- --- ------ ----- --<br>----- ----- ---------- --- --- ------ ------ ---- -- ------<br>------- --- ------ ----- --- ---- ------- an ---- --- --<br>------- ------,225996.8700001482,225996.58000003546,225610.676,225610.98999995738,225627.385,226010.766,,50,an
screen,html.Screen,2_1_1_1_51,2021-04-30T13:26:45.409Z,,,,,,,,,,,,,,,,,54,,,,,,,,,,,,,,341.79400002845796,,response,,,,100,,,,,,,Space,keypress(Space),,,,,,,,-- --- ---- --- ------ ----- ------- ---- -- --- ------- --<br>------- ---------- ------ -- ----- -- ----- -- ---- ------<br>--- ----- --- --- ------ -------- ----- --- ------ ----- --<br>----- ----- ---------- --- --- ------ ------ ---- -- ------<br>------- --- ------ ----- --- ---- ------- -- easy --- --<br>------- ------,226352.90000005625,226352.56000002846,225994.042,225996.92500010133,226010.766,226360.802,,51,easy
screen,html.Screen,2_1_1_1_52,2021-04-30T13:26:45.859Z,,,,,,,,,,,,,,,,,54,,,,,,,,,,,,,,441.7430001005123,,response,,,,100,,,,,,,Space,keypress(Space),,,,,,,,-- --- ---- --- ------ ----- ------- ---- -- --- ------- --<br>------- ---------- ------ -- ----- -- ----- -- ---- ------<br>--- ----- --- --- ------ -------- ----- --- ------ ----- --<br>----- ----- ---------- --- --- ------ ------ ---- -- ------<br>------- --- ------ ----- --- ---- ------- -- ---- way --<br>------- ------,226802.9150001239,226802.5450001005,226344.067,226352.9550000094,226360.802,226810.816,,52,way
screen,html.Screen,2_1_1_1_53,2021-04-30T13:26:46.365Z,,,,,,,,,,,,,,,,,54,,,,,,,,,,,,,,497.8239999447251,,response,,,,100,,,,,,,Space,keypress(Space),,,,,,,,-- --- ---- --- ------ ----- ------- ---- -- --- ------- --<br>------- ---------- ------ -- ----- -- ----- -- ---- ------<br>--- ----- --- --- ------ -------- ----- --- ------ ----- --<br>----- ----- ---------- --- --- ------ ------ ---- -- ------<br>------- --- ------ ----- --- ---- ------- -- ---- --- of<br>------- ------,227309.0000001248,227308.63999994472,226794.108,226802.97000007704,226810.816,227310.811,,53,of
screen,html.Screen,2_1_1_1_54,2021-04-30T13:26:46.873Z,,,,,,,,,,,,,,,,,54,,,,,,,,,,,,,,505.75900002452545,,response,,,,100,,,,,,,Space,keypress(Space),,,,,,,,-- --- ---- --- ------ ----- ------- ---- -- --- ------- --<br>------- ---------- ------ -- ----- -- ----- -- ---- ------<br>--- ----- --- --- ------ -------- ----- --- ------ ----- --<br>----- ----- ---------- --- --- ------ ------ ---- -- ------<br>------- --- ------ ----- --- ---- ------- -- ---- --- --<br>raising ------,227817.00000003912,227816.5700000245,227294.126,227309.05500007793,227310.811,227827.554,,54,raising
screen,html.Screen,2_1_1_1_55,2021-04-30T13:26:47.325Z,,,,,,,,,,,,,,,,,54,,,,,,,,,,,,,,440.98100003926083,,response,,,,100,,,,,,,Space,keypress(Space),,,,,,,,-- --- ---- --- ------ ----- ------- ---- -- --- ------- --<br>------- ---------- ------ -- ----- -- ----- -- ---- ------<br>--- ----- --- --- ------ -------- ----- --- ------ ----- --<br>----- ----- ---------- --- --- ------ ------ ---- -- ------<br>------- --- ------ ----- --- ---- ------- -- ---- --- --<br>------- money.,228268.8349999953,228268.53500003926,227810.809,227817.04999995418,227827.554,228277.541,,55,money.
Item 100,flow.Loop,2_1_1_1,2021-04-30T13:26:47.325Z,,,,,,,,,,,,,,,,,,,,,,,,,,,,,,,29742.80700003926,,completion,,,,,F,,,,,,,,,,,silence,,,,,228268.9300000202,228268.53500003926,198509.027,198509.4350001309,198525.728,228277.541,,,
Question 1,html.Screen,2_1_1_2,2021-04-30T13:26:49.978Z,,,,,,,,,,,,,,,,,,,,,,,,,,,,true,TRUE,,2643.9840001288976,,response,,,,100,F,,,,,,TRUE,click #choice-1,,,,silence,,,,,230921.94500006735,230921.5250001289,228260.876,228268.97500013,228277.541,230927.674,,,
Question 2,html.Screen,2_1_1_3,2021-04-30T13:26:52.610Z,,,,,,,,,,,,,,,,,,,,,,,,,,,,true,FALSE,,2625.876000069664,,response,,,,100,F,,,,,,FALSE,click #choice-2,,,,silence,,,,,233553.92500013113,233553.55000006966,230910.972,230922.00500005856,230927.674,233561.233,,,
Item 100,flow.Sequence,2_1_1,2021-04-30T13:26:52.610Z,,,,,,,,,,,,,,,,,,,,,,,,,,,,,,,45028.50500006965,,completion,,,,,,,,,,,,,,,,,,,,,233554.02000015602,233553.55000006966,188508.461,188522.00999995694,188525.045,233561.233,,,
End of Practice,html.Page,2_1_2,2021-04-30T13:26:57.931Z,,,,,,,,,,,,,,,,,,,,,,,,,,,,,,,5312.677000082098,,form submission,,,,,,,,,,,,,,,,,,,,,238874.08500001766,238873.9100000821,233544.498,233554.05999999493,233561.233,238878.206,,,
Practice,flow.Sequence,2_1,2021-04-30T13:26:57.931Z,,,,,,,,,,,,,,,,,,,,,,,,,,,,,,,104668.7550000821,,completion,,,,,,,,,,,,,,,,,,,,,238874.16500016116,238873.9100000821,134188.466,134194.1050000023,134205.155,238878.206,,,
Trap_instruction,html.Page,2_2_0,2021-04-30T13:27:03.674Z,,,,,,,,,,,,,,,,,,,,,,,,,,,,,,,5739.719000144163,,form submission,,,,,,,,,,,,,,,,,,,,,244618.0400000885,244617.92500014417,238861.523,238874.2200001143,238878.206,244628.538,,,
trap_trial,html.Screen,2_2_1,2021-04-30T13:27:06.530Z,,,,,,,,,,,,,,,,,,,,,,,,,,,,true,1,,2844.9819999995525,,response,,,,,,,,,,,1,click #choice-1,,,,,,,,,247473.92500005662,247473.51999999955,244611.808,244618.09500004165,244628.538,247478.755,,,
end of trap trial,html.Page,2_2_2,2021-04-30T13:27:09.595Z,,,,,,,,,,,,,,,,,,,,,,,,,,,,,,,3059.1750001077307,,form submission,,,,,,,,,,,,,,,,,,,,,250538.08500012383,250537.93000010774,247462.068,247473.9900000859,247478.755,250545.573,,,
Trap 1,flow.Sequence,2_2,2021-04-30T13:27:09.595Z,,,,,,,,,,,,,,,,,,,,,,,,,,,,,,,11659.72400010773,,completion,,,,,,,,,,,,,,,,,,,,,250538.1650000345,250537.93000010774,238861.523,238874.199999962,238878.206,250545.573,,,
Standby,html.Page,2_3_0,2021-04-30T13:27:17.586Z,,,,,,,,,,,,,,,,,,,,,,,,,,,,,,,8000.491000000009,,timeout,,,,,,,,,,,,,,,,,,,,,258529.71000014804,258529.415,250528.924,250538.21000014432,250545.573,258546.064,,,
Holding screen,html.Screen,2_3_1_0_0,2021-04-30T13:27:24.587Z,,,,,,,,,,,,,,,,,,,,,,,,,,,,,,,7000.450000000012,,timeout,,,,,,,,,,,,,,,,,,,,,265530.1250000484,265529.827,258529.415,258529.7900000587,258546.064,265546.514,,,
screen,html.Screen,2_3_1_0_1_0,2021-04-30T13:27:25.562Z,,,,,,,,,,,,,,,,,51,,,,,,,,,,,,,,958.3409999482683,,response,,,,13,F,,,,,,Space,keypress(Space),,,,instrumental,,,,American -------- --- --- ---- --- --- ------ -- --------<br>---- --------- --- ------- ------------ ---------- ---------<br>--- ---------- ------- ---------- ------- -- -------- ----<br>---- --- ------ ----- ------ -- ---- --- ----- -- - -------<br>-------- -- --- --- -- ----- ----------- ----- -----------<br>---- --- ---------- --- ---- --- -- ----------,266505.29500003904,266504.8549999483,265529.827,265530.20000015385,265546.514,266513.196,,0,American
screen,html.Screen,2_3_1_0_1_1,2021-04-30T13:27:25.990Z,,,,,,,,,,,,,,,,,51,,,,,,,,,,,,,,419.3789999843575,,response,,,,13,F,,,,,,Space,keypress(Space),,,,instrumental,,,,-------- industry --- --- ---- --- --- ------ -- --------<br>---- --------- --- ------- ------------ ---------- ---------<br>--- ---------- ------- ---------- ------- -- -------- ----<br>---- --- ------ ----- ------ -- ---- --- ----- -- - -------<br>-------- -- --- --- -- ----- ----------- ----- -----------<br>---- --- ---------- --- ---- --- -- ----------,266933.0450000707,266932.57499998435,266496.431,266505.4550000932,266513.196,266946.548,,1,industry
screen,html.Screen,2_3_1_0_1_2,2021-04-30T13:27:26.592Z,,,,,,,,,,,,,,,,,51,,,,,,,,,,,,,,588.0919999689213,,response,,,,13,F,,,,,,Space,keypress(Space),,,,instrumental,,,,-------- -------- may --- ---- --- --- ------ -- --------<br>---- --------- --- ------- ------------ ---------- ---------<br>--- ---------- ------- ---------- ------- -- -------- ----<br>---- --- ------ ----- ------ -- ---- --- ----- -- - -------<br>-------- -- --- --- -- ----- ----------- ----- -----------<br>---- --- ---------- --- ---- --- -- ----------,267535.09999997914,267534.63999996893,266929.886,266933.09499998577,266946.548,267546.668,,2,may
screen,html.Screen,2_3_1_0_1_3,2021-04-30T13:27:27.087Z,,,,,,,,,,,,,,,,,51,,,,,,,,,,,,,,483.89200010109926,,response,,,,13,F,,,,,,Space,keypress(Space),,,,instrumental,,,,-------- -------- --- not ---- --- --- ------ -- --------<br>---- --------- --- ------- ------------ ---------- ---------<br>--- ---------- ------- ---------- ------- -- -------- ----<br>---- --- ------ ----- ------ -- ---- --- ----- -- - -------<br>-------- -- --- --- -- ----- ----------- ----- -----------<br>---- --- ---------- --- ---- --- -- ----------,268030.9300001245,268030.5600001011,267529.875,267535.1700000465,267546.668,268046.701,,3,not
screen,html.Screen,2_3_1_0_1_4,2021-04-30T13:27:27.691Z,,,,,,,,,,,,,,,,,51,,,,,,,,,,,,,,587.8540001133224,,response,,,,13,F,,,,,,Space,keypress(Space),,,,instrumental,,,,-------- -------- --- --- know --- --- ------ -- --------<br>---- --------- --- ------- ------------ ---------- ---------<br>--- ---------- ------- ---------- ------- -- -------- ----<br>---- --- ------ ----- ------ -- ---- --- ----- -- - -------<br>-------- -- --- --- -- ----- ----------- ----- -----------<br>---- --- ---------- --- ---- --- -- ----------,268634.990000166,268634.5550001133,268029.923,268030.98500007764,268046.701,268646.664,,4,know
screen,html.Screen,2_3_1_0_1_5,2021-04-30T13:27:28.409Z,,,,,,,,,,,,,,,,,51,,,,,,,,,,,,,,705.9010000665439,,response,,,,13,F,,,,,,Space,keypress(Space),,,,instrumental,,,,"-------- -------- --- --- ---- it, --- ------ -- --------<br>---- --------- --- ------- ------------ ---------- ---------<br>--- ---------- ------- ---------- ------- -- -------- ----<br>---- --- ------ ----- ------ -- ---- --- ----- -- - -------<br>-------- -- --- --- -- ----- ----------- ----- -----------<br>---- --- ---------- --- ---- --- -- ----------",269352.93000005186,269352.56500006653,268629.923,268635.04500011913,268646.664,269363.433,,5,"it,"
screen,html.Screen,2_3_1_0_1_6,2021-04-30T13:27:28.829Z,,,,,,,,,,,,,,,,,51,,,,,,,,,,,,,,409.1670000256854,,response,,,,13,F,,,,,,Space,keypress(Space),,,,instrumental,,,,-------- -------- --- --- ---- --- but ------ -- --------<br>---- --------- --- ------- ------------ ---------- ---------<br>--- ---------- ------- ---------- ------- -- -------- ----<br>---- --- ------ ----- ------ -- ---- --- ----- -- - -------<br>-------- -- --- --- -- ----- ----------- ----- -----------<br>---- --- ---------- --- ---- --- -- ----------,269772.98000012524,269772.6000000257,269346.678,269352.985000005,269363.433,269780.118,,6,but
screen,html.Screen,2_3_1_0_1_7,2021-04-30T13:27:29.284Z,,,,,,,,,,,,,,,,,51,,,,,,,,,,,,,,446.94699998456053,,response,,,,13,F,,,,,,Space,keypress(Space),,,,instrumental,,,,-------- -------- --- --- ---- --- --- debate -- --------<br>---- --------- --- ------- ------------ ---------- ---------<br>--- ---------- ------- ---------- ------- -- -------- ----<br>---- --- ------ ----- ------ -- ---- --- ----- -- - -------<br>-------- -- --- --- -- ----- ----------- ----- -----------<br>---- --- ---------- --- ---- --- -- ----------,270227.3999999743,270227.0649999846,269763.407,269773.0350000784,269780.118,270230.052,,7,debate
screen,html.Screen,2_3_1_0_1_8,2021-04-30T13:27:29.904Z,,,,,,,,,,,,,,,,,51,,,,,,,,,,,,,,616.5030001710402,,response,,,,13,F,,,,,,Space,keypress(Space),,,,instrumental,,,,-------- -------- --- --- ---- --- --- ------ in --------<br>---- --------- --- ------- ------------ ---------- ---------<br>--- ---------- ------- ---------- ------- -- -------- ----<br>---- --- ------ ----- ------ -- ---- --- ----- -- - -------<br>-------- -- --- --- -- ----- ----------- ----- -----------<br>---- --- ---------- --- ---- --- -- ----------,270847.0050001051,270846.55500017107,270213.402,270227.4650000036,270230.052,270863.542,,8,in
screen,html.Screen,2_3_1_0_1_9,2021-04-30T13:27:30.432Z,,,,,,,,,,,,,,,,,51,,,,,,,,,,,,,,511.03800006152596,,response,,,,13,F,,,,,,Space,keypress(Space),,,,instrumental,,,,-------- -------- --- --- ---- --- --- ------ -- Congress<br>---- --------- --- ------- ------------ ---------- ---------<br>--- ---------- ------- ---------- ------- -- -------- ----<br>---- --- ------ ----- ------ -- ---- --- ----- -- - -------<br>-------- -- --- --- -- ----- ----------- ----- -----------<br>---- --- ---------- --- ---- --- -- ----------,271375.05499995314,271374.58000006154,270846.716,270847.06000005826,270863.542,271380.216,,9,Congress
screen,html.Screen,2_3_1_0_1_10,2021-04-30T13:27:30.913Z,,,,,,,,,,,,,,,,,51,,,,,,,,,,,,,,476.34900002367795,,response,,,,13,F,,,,,,Space,keypress(Space),,,,instrumental,,,,-------- -------- --- --- ---- --- --- ------ -- --------<br>over --------- --- ------- ------------ ---------- ---------<br>--- ---------- ------- ---------- ------- -- -------- ----<br>---- --- ------ ----- ------ -- ---- --- ----- -- - -------<br>-------- -- --- --- -- ----- ----------- ----- -----------<br>---- --- ---------- --- ---- --- -- ----------,271856.930000009,271856.5650000237,271363.451,271375.1100001391,271380.216,271863.517,,10,over
screen,html.Screen,2_3_1_0_1_11,2021-04-30T13:27:31.421Z,,,,,,,,,,,,,,,,,51,,,,,,,,,,,,,,501.0780001664534,,response,,,,13,F,,,,,,Space,keypress(Space),,,,instrumental,,,,-------- -------- --- --- ---- --- --- ------ -- --------<br>---- reforming --- ------- ------------ ---------- ---------<br>--- ---------- ------- ---------- ------- -- -------- ----<br>---- --- ------ ----- ------ -- ---- --- ----- -- - -------<br>-------- -- --- --- -- ----- ----------- ----- -----------<br>---- --- ---------- --- ---- --- -- ----------,272364.9500000756,272364.59500016645,271846.859,271856.98499996215,271863.517,272380.252,,11,reforming
screen,html.Screen,2_3_1_0_1_12,2021-04-30T13:27:31.885Z,,,,,,,,,,,,,,,,,51,,,,,,,,,,,,,,448.3230001669144,,response,,,,13,F,,,,,,Space,keypress(Space),,,,instrumental,,,,-------- -------- --- --- ---- --- --- ------ -- --------<br>---- --------- the ------- ------------ ---------- ---------<br>--- ---------- ------- ---------- ------- -- -------- ----<br>---- --- ------ ----- ------ -- ---- --- ----- -- - -------<br>-------- -- --- --- -- ----- ----------- ----- -----------<br>---- --- ---------- --- ---- --- -- ----------,272828.94499995746,272828.5750001669,272363.574,272365.01000006683,272380.252,272855.044,,12,the
screen,html.Screen,2_3_1_0_1_13,2021-04-30T13:27:32.568Z,,,,,,,,,,,,,,,,,51,,,,,,,,,,,,,,655.7660001234617,,response,,,,13,F,,,,,,Space,keypress(Space),,,,instrumental,,,,-------- -------- --- --- ---- --- --- ------ -- --------<br>---- --------- --- federal ------------ ---------- ---------<br>--- ---------- ------- ---------- ------- -- -------- ----<br>---- --- ------ ----- ------ -- ---- --- ----- -- - -------<br>-------- -- --- --- -- ----- ----------- ----- -----------<br>---- --- ---------- --- ---- --- -- ----------,273511.2050001044,273510.81000012346,272813.572,272829.0000001434,272855.044,273513.601,,13,federal
screen,html.Screen,2_3_1_0_1_14,2021-04-30T13:27:33.215Z,,,,,,,,,,,,,,,,,51,,,,,,,,,,,,,,644.9440000129398,,response,,,,13,F,,,,,,Space,keypress(Space),,,,instrumental,,,,-------- -------- --- --- ---- --- --- ------ -- --------<br>---- --------- --- ------- government's ---------- ---------<br>--- ---------- ------- ---------- ------- -- -------- ----<br>---- --- ------ ----- ------ -- ---- --- ----- -- - -------<br>-------- -- --- --- -- ----- ----------- ----- -----------<br>---- --- ---------- --- ---- --- -- ----------,274158.97500002757,274158.54500001296,273496.858,273511.2600000575,273513.601,274163.726,,14,government's
screen,html.Screen,2_3_1_0_1_15,2021-04-30T13:27:33.838Z,,,,,,,,,,,,,,,,,51,,,,,,,,,,,,,,617.1290000190493,,response,,,,13,F,,,,,,Space,keypress(Space),,,,instrumental,,,,-------- -------- --- --- ---- --- --- ------ -- --------<br>---- --------- --- ------- ------------ regulatory ---------<br>--- ---------- ------- ---------- ------- -- -------- ----<br>---- --- ------ ----- ------ -- ---- --- ----- -- - -------<br>-------- -- --- --- -- ----- ----------- ----- -----------<br>---- --- ---------- --- ---- --- -- ----------,274781.2650001142,274780.8550000191,274146.912,274159.0350000188,274163.726,274797.067,,15,regulatory
screen,html.Screen,2_3_1_0_1_16,2021-04-30T13:27:35.045Z,,,,,,,,,,,,,,,,,51,,,,,,,,,,,,,,1191.5229999644798,,response,,,,13,F,,,,,,Space,keypress(Space),,,,instrumental,,,,-------- -------- --- --- ---- --- --- ------ -- --------<br>---- --------- --- ------- ------------ ---------- apparatus<br>--- ---------- ------- ---------- ------- -- -------- ----<br>---- --- ------ ----- ------ -- ---- --- ----- -- - -------<br>-------- -- --- --- -- ----- ----------- ----- -----------<br>---- --- ---------- --- ---- --- -- ----------,275988.98000014015,275988.58999996446,274780.338,274781.32000006735,274797.067,275997.172,,16,apparatus
screen,html.Screen,2_3_1_0_1_17,2021-04-30T13:27:35.836Z,,,,,,,,,,,,,,,,,51,,,,,,,,,,,,,,781.6130000895355,,response,,,,13,F,,,,,,Space,keypress(Space),,,,instrumental,,,,-------- -------- --- --- ---- --- --- ------ -- --------<br>---- --------- --- ------- ------------ ---------- ---------<br>may ---------- ------- ---------- ------- -- -------- ----<br>---- --- ------ ----- ------ -- ---- --- ----- -- - -------<br>-------- -- --- --- -- ----- ----------- ----- -----------<br>---- --- ---------- --- ---- --- -- ----------,276779.13999999873,276778.78500008956,275980.303,275989.0350000933,275997.172,276780.521,,17,may
screen,html.Screen,2_3_1_0_1_18,2021-04-30T13:27:36.613Z,,,,,,,,,,,,,,,,,51,,,,,,,,,,,,,,776.073999972723,,response,,,,13,F,,,,,,Space,keypress(Space),,,,instrumental,,,,-------- -------- --- --- ---- --- --- ------ -- --------<br>---- --------- --- ------- ------------ ---------- ---------<br>--- profoundly ------- ---------- ------- -- -------- ----<br>---- --- ------ ----- ------ -- ---- --- ----- -- - -------<br>-------- -- --- --- -- ----- ----------- ----- -----------<br>---- --- ---------- --- ---- --- -- ----------,277556.9850001484,277556.59499997273,276763.757,276779.19499995187,276780.521,277563.935,,18,profoundly
screen,html.Screen,2_3_1_0_1_19,2021-04-30T13:27:37.691Z,,,,,,,,,,,,,,,,,51,,,,,,,,,,,,,,1070.62999995664,,response,,,,13,F,,,,,,Space,keypress(Space),,,,instrumental,,,,-------- -------- --- --- ---- --- --- ------ -- --------<br>---- --------- --- ------- ------------ ---------- ---------<br>--- ---------- improve ---------- ------- -- -------- ----<br>---- --- ------ ----- ------ -- ---- --- ----- -- - -------<br>-------- -- --- --- -- ----- ----------- ----- -----------<br>---- --- ---------- --- ---- --- -- ----------,278634.98000008985,278634.56499995664,277547.173,277557.04000010155,277563.935,278647.34,,19,improve
screen,html.Screen,2_3_1_0_1_20,2021-04-30T13:27:38.343Z,,,,,,,,,,,,,,,,,51,,,,,,,,,,,,,,638.230000065465,,response,,,,13,F,,,,,,Space,keypress(Space),,,,instrumental,,,,-------- -------- --- --- ---- --- --- ------ -- --------<br>---- --------- --- ------- ------------ ---------- ---------<br>--- ---------- ------- companies' ------- -- -------- ----<br>---- --- ------ ----- ------ -- ---- --- ----- -- - -------<br>-------- -- --- --- -- ----- ----------- ----- -----------<br>---- --- ---------- --- ---- --- -- ----------,279286.0149999615,279285.5700000655,278630.532,278635.0650000386,278647.34,279297.427,,20,companies'
screen,html.Screen,2_3_1_0_1_21,2021-04-30T13:27:39.026Z,,,,,,,,,,,,,,,,,51,,,,,,,,,,,,,,672.1580000716494,,response,,,,13,F,,,,,,Space,keypress(Space),,,,instrumental,,,,-------- -------- --- --- ---- --- --- ------ -- --------<br>---- --------- --- ------- ------------ ---------- ---------<br>--- ---------- ------- ---------- ability -- -------- ----<br>---- --- ------ ----- ------ -- ---- --- ----- -- - -------<br>-------- -- --- --- -- ----- ----------- ----- -----------<br>---- --- ---------- --- ---- --- -- ----------,279969.90999998525,279969.5850000717,279280.565,279286.07000014745,279297.427,279980.707,,21,ability
screen,html.Screen,2_3_1_0_1_22,2021-04-30T13:27:39.481Z,,,,,,,,,,,,,,,,,51,,,,,,,,,,,,,,442.9230000920943,,response,,,,13,F,,,,,,Space,keypress(Space),,,,instrumental,,,,-------- -------- --- --- ---- --- --- ------ -- --------<br>---- --------- --- ------- ------------ ---------- ---------<br>--- ---------- ------- ---------- ------- to -------- ----<br>---- --- ------ ----- ------ -- ---- --- ----- -- - -------<br>-------- -- --- --- -- ----- ----------- ----- -----------<br>---- --- ---------- --- ---- --- -- ----------,280424.025000073,280423.6300000921,279963.985,279969.9650001712,279980.707,280430.75,,22,to
screen,html.Screen,2_3_1_0_1_23,2021-04-30T13:27:39.922Z,,,,,,,,,,,,,,,,,51,,,,,,,,,,,,,,434.8450000975281,,response,,,,13,F,,,,,,Space,keypress(Space),,,,instrumental,,,,-------- -------- --- --- ---- --- --- ------ -- --------<br>---- --------- --- ------- ------------ ---------- ---------<br>--- ---------- ------- ---------- ------- -- survive. ----<br>---- --- ------ ----- ------ -- ---- --- ----- -- - -------<br>-------- -- --- --- -- ----- ----------- ----- -----------<br>---- --- ---------- --- ---- --- -- ----------,280865.9200000111,280865.5950000975,280413.969,280424.0850000642,280430.75,280880.81,,23,survive.
screen,html.Screen,2_3_1_0_1_24,2021-04-30T13:27:40.632Z,,,,,,,,,,,,,,,,,51,,,,,,,,,,,,,,694.7200000309967,,response,,,,13,F,,,,,,Space,keypress(Space),,,,instrumental,,,,-------- -------- --- --- ---- --- --- ------ -- --------<br>---- --------- --- ------- ------------ ---------- ---------<br>--- ---------- ------- ---------- ------- -- -------- This<br>---- --- ------ ----- ------ -- ---- --- ----- -- - -------<br>-------- -- --- --- -- ----- ----------- ----- -----------<br>---- --- ---------- --- ---- --- -- ----------,281575.8350000251,281575.530000031,280864.065,280865.9800000023,280880.81,281580.778,,24,This
screen,html.Screen,2_3_1_0_1_25,2021-04-30T13:27:41.099Z,,,,,,,,,,,,,,,,,51,,,,,,,,,,,,,,461.1320001454442,,response,,,,13,F,,,,,,Space,keypress(Space),,,,instrumental,,,,-------- -------- --- --- ---- --- --- ------ -- --------<br>---- --------- --- ------- ------------ ---------- ---------<br>--- ---------- ------- ---------- ------- -- -------- ----<br>week --- ------ ----- ------ -- ---- --- ----- -- - -------<br>-------- -- --- --- -- ----- ----------- ----- -----------<br>---- --- ---------- --- ---- --- -- ----------,282042.12500015274,282041.91000014544,281564.054,281575.885000173,281580.778,282047.649,,25,week
screen,html.Screen,2_3_1_0_1_26,2021-04-30T13:27:41.544Z,,,,,,,,,,,,,,,,,51,,,,,,,,,,,,,,439.9009999616537,,response,,,,13,F,,,,,,Space,keypress(Space),,,,instrumental,,,,-------- -------- --- --- ---- --- --- ------ -- --------<br>---- --------- --- ------- ------------ ---------- ---------<br>--- ---------- ------- ---------- ------- -- -------- ----<br>---- the ------ ----- ------ -- ---- --- ----- -- - -------<br>-------- -- --- --- -- ----- ----------- ----- -----------<br>---- --- ---------- --- ---- --- -- ----------,282487.975000171,282487.54999996163,282030.753,282042.1800001059,282047.649,282497.57,,26,the
screen,html.Screen,2_3_1_0_1_27,2021-04-30T13:27:41.993Z,,,,,,,,,,,,,,,,,51,,,,,,,,,,,,,,438.10000003530877,,response,,,,13,F,,,,,,Space,keypress(Space),,,,instrumental,,,,-------- -------- --- --- ---- --- --- ------ -- --------<br>---- --------- --- ------- ------------ ---------- ---------<br>--- ---------- ------- ---------- ------- -- -------- ----<br>---- --- Senate ----- ------ -- ---- --- ----- -- - -------<br>-------- -- --- --- -- ----- ----------- ----- -----------<br>---- --- ---------- --- ---- --- -- ----------,282936.14000012167,282935.6700000353,282480.788,282488.02500008605,282497.57,282947.597,,27,Senate
screen,html.Screen,2_3_1_0_1_28,2021-04-30T13:27:42.400Z,,,,,,,,,,,,,,,,,51,,,,,,,,,,,,,,395.90299995901296,,response,,,,13,F,,,,,,Space,keypress(Space),,,,instrumental,,,,-------- -------- --- --- ---- --- --- ------ -- --------<br>---- --------- --- ------- ------------ ---------- ---------<br>--- ---------- ------- ---------- ------- -- -------- ----<br>---- --- ------ seems ------ -- ---- --- ----- -- - -------<br>-------- -- --- --- -- ----- ----------- ----- -----------<br>---- --- ---------- --- ---- --- -- ----------,283343.82000006735,283343.499999959,282930.861,282936.2000001129,282947.597,283347.553,,28,seems
screen,html.Screen,2_3_1_0_1_29,2021-04-30T13:27:42.983Z,,,,,,,,,,,,,,,,,51,,,,,,,,,,,,,,578.0320000772481,,response,,,,13,F,,,,,,Space,keypress(Space),,,,instrumental,,,,-------- -------- --- --- ---- --- --- ------ -- --------<br>---- --------- --- ------- ------------ ---------- ---------<br>--- ---------- ------- ---------- ------- -- -------- ----<br>---- --- ------ ----- poised -- ---- --- ----- -- - -------<br>-------- -- --- --- -- ----- ----------- ----- -----------<br>---- --- ---------- --- ---- --- -- ----------,283926.08000012115,283925.58500007726,283330.812,283343.8750000205,283347.553,283930.983,,29,poised
screen,html.Screen,2_3_1_0_1_30,2021-04-30T13:27:43.426Z,,,,,,,,,,,,,,,,,51,,,,,,,,,,,,,,438.59700017329305,,response,,,,13,F,,,,,,Space,keypress(Space),,,,instrumental,,,,-------- -------- --- --- ---- --- --- ------ -- --------<br>---- --------- --- ------- ------------ ---------- ---------<br>--- ---------- ------- ---------- ------- -- -------- ----<br>---- --- ------ ----- ------ to ---- --- ----- -- - -------<br>-------- -- --- --- -- ----- ----------- ----- -----------<br>---- --- ---------- --- ---- --- -- ----------,284369.98499999754,284369.5800001733,283914.185,283926.1799999513,283930.983,284380.981,,30,to
screen,html.Screen,2_3_1_0_1_31,2021-04-30T13:27:43.877Z,,,,,,,,,,,,,,,,,51,,,,,,,,,,,,,,438.70399999490473,,response,,,,13,F,,,,,,Space,keypress(Space),,,,instrumental,,,,-------- -------- --- --- ---- --- --- ------ -- --------<br>---- --------- --- ------- ------------ ---------- ---------<br>--- ---------- ------- ---------- ------- -- -------- ----<br>---- --- ------ ----- ------ -- join --- ----- -- - -------<br>-------- -- --- --- -- ----- ----------- ----- -----------<br>---- --- ---------- --- ---- --- -- ----------,284820.10999997146,284819.68499999493,284364.238,284370.0399999507,284380.981,284831.05,,31,join
screen,html.Screen,2_3_1_0_1_32,2021-04-30T13:27:44.367Z,,,,,,,,,,,,,,,,,51,,,,,,,,,,,,,,479.1249999914435,,response,,,,13,F,,,,,,Space,keypress(Space),,,,instrumental,,,,-------- -------- --- --- ---- --- --- ------ -- --------<br>---- --------- --- ------- ------------ ---------- ---------<br>--- ---------- ------- ---------- ------- -- -------- ----<br>---- --- ------ ----- ------ -- ---- the ----- -- - -------<br>-------- -- --- --- -- ----- ----------- ----- -----------<br>---- --- ---------- --- ---- --- -- ----------,285310.6100000441,285310.17499999143,284814.285,284820.16000011936,284831.05,285314.394,,32,the
screen,html.Screen,2_3_1_0_1_33,2021-04-30T13:27:44.930Z,,,,,,,,,,,,,,,,,51,,,,,,,,,,,,,,559.1760000543436,,response,,,,13,F,,,,,,Space,keypress(Space),,,,instrumental,,,,-------- -------- --- --- ---- --- --- ------ -- --------<br>---- --------- --- ------- ------------ ---------- ---------<br>--- ---------- ------- ---------- ------- -- -------- ----<br>---- --- ------ ----- ------ -- ---- --- House -- - -------<br>-------- -- --- --- -- ----- ----------- ----- -----------<br>---- --- ---------- --- ---- --- -- ----------,285873.9700000733,285873.5700000543,285297.678,285310.68000011146,285314.394,285881.123,,33,House
screen,html.Screen,2_3_1_0_1_34,2021-04-30T13:27:45.378Z,,,,,,,,,,,,,,,,,51,,,,,,,,,,,,,,440.4770001411671,,response,,,,13,F,,,,,,Space,keypress(Space),,,,instrumental,,,,-------- -------- --- --- ---- --- --- ------ -- --------<br>---- --------- --- ------- ------------ ---------- ---------<br>--- ---------- ------- ---------- ------- -- -------- ----<br>---- --- ------ ----- ------ -- ---- --- ----- in - -------<br>-------- -- --- --- -- ----- ----------- ----- -----------<br>---- --- ---------- --- ---- --- -- ----------,286321.9800000079,286321.6000001412,285864.318,285874.02500002645,285881.123,286331.146,,34,in
screen,html.Screen,2_3_1_0_1_35,2021-04-30T13:27:45.815Z,,,,,,,,,,,,,,,,,51,,,,,,,,,,,,,,426.4890001618187,,response,,,,13,F,,,,,,Space,keypress(Space),,,,instrumental,,,,-------- -------- --- --- ---- --- --- ------ -- --------<br>---- --------- --- ------- ------------ ---------- ---------<br>--- ---------- ------- ---------- ------- -- -------- ----<br>---- --- ------ ----- ------ -- ---- --- ----- -- a -------<br>-------- -- --- --- -- ----- ----------- ----- -----------<br>---- --- ---------- --- ---- --- -- ----------,286758.06500017643,286757.6350001618,286314.351,286322.0300001558,286331.146,286764.474,,35,a
screen,html.Screen,2_3_1_0_1_36,2021-04-30T13:27:46.301Z,,,,,,,,,,,,,,,,,51,,,,,,,,,,,,,,479.32600005477434,,response,,,,13,F,,,,,,Space,keypress(Space),,,,instrumental,,,,-------- -------- --- --- ---- --- --- ------ -- --------<br>---- --------- --- ------- ------------ ---------- ---------<br>--- ---------- ------- ---------- ------- -- -------- ----<br>---- --- ------ ----- ------ -- ---- --- ----- -- - massive<br>-------- -- --- --- -- ----- ----------- ----- -----------<br>---- --- ---------- --- ---- --- -- ----------,287244.3000001367,287243.80000005476,286747.777,286758.1150000915,286764.474,287247.764,,36,massive
