sender,sender_type,sender_id,timestamp,meta,,Blues,Classical,Country,Dance,Electronic,Folk,Gospel,Hip-Hop,Jazz,Latin,Musical/Film,New-age,Pop,Prolific_id,Provo_ID,R&B,Rap,Reggae,Religious,Rock,Soul,Swing,Traditional,age,artist_name,correct,correctResponse,distraction,duration,education,ended_on,familiarity,gender,headphone_check_performance,item,list,music_frequency,offensiveness,pleasantness,position_correct,preference,response,response_action,snippet_file,song_name,song_rating,sound,stimulus_1,stimulus_2,stimulus_3,text,time_commit,time_end,time_render,time_run,time_show,time_switch,url,word,word_ID
Prolific ID,html.Form,0,2021-04-30T11:24:39.476Z,"{""labjs_version"":""20.2.2"",""labjs_build"":{""flavor"":""production"",""commit"":""a25486e0c714a0ae2ce03ff94b7bb6896854dcfa""},""location"":""https://run.pavlovia.org/mvasilev/prolific_music_c/"",""userAgent"":""Mozilla/5.0 (Windows NT 10.0; Win64; x64) AppleWebKit/537.36 (KHTML, like Gecko) Chrome/90.0.4430.93 Safari/537.36"",""platform"":""Win32"",""language"":""en-GB"",""locale"":""en-GB"",""timeZone"":""Europe/London"",""timezoneOffset"":-60,""screen_width"":1920,""screen_height"":1080,""scroll_width"":1920,""scroll_height"":921,""window_innerWidth"":1920,""window_innerHeight"":969,""devicePixelRatio"":1}",,,,,,,,,,,,,,,59f8868e05d1d60001f1464d,,,,,,,,,,,,,,,6614.629999970122,,form submission,,,,,,,,,,,,,,,,,,,,,18209.73000000231,18209.419999970123,11581.177,11582.674999954179,11594.79,18222.69,{},,
Introduction,html.Screen,1_0,2021-04-30T11:25:01.564Z,,,,,,,,,,,,,,,,,,,,,,,,,,,,,,,22073.209999968243,,response,,,,,,,,,,,continue,click button,,,,,,,,,40297.59999999078,40295.89999996824,18206.26,18209.949999989476,18222.69,40304.358,,,
Volume calibration,html.Screen,1_1,2021-04-30T11:25:16.245Z,,,,,,,,,,,,,,,,,,,,,,,,,,,,,,,14671.741999970756,,response,,,,,,,,,,,continue,click button,,,,,,,,,54978.03499997826,54976.09999997076,40287.888,40297.729999991134,40304.358,54992.521,,,
Task instructions,html.Screen,1_2,2021-04-30T11:25:22.794Z,,,,,,,,,,,,,,,,,,,,,,,,,,,,,,,6535.063999974351,,response,,,,,,,,,,,continue,click button,,,,,,,,,61528.31999998307,61527.58499997435,54975.735,54978.10499998741,54992.521,61537.06,,,
Sounds,html.Screen,1_3_0_0,2021-04-30T11:25:27.035Z,,,,,,,,,,,,,,,,,,,,,,,,,,,,,,,4246.585000000006,,timeout,,,,,,,,,2,,,,,,,,I,S,O,,65768.83999997517,65766.957,61520.388,61528.52499997243,61537.06,65783.645,,,
Judgement,html.Screen,1_3_0_1,2021-04-30T11:25:27.931Z,,,,,,,,,,,,,,,,,,,,,,,,,,,,true,2,,880.3099999963451,,response,,,,,,,,,2,,2,click #choice-2,,,,,I,S,O,,66664.70999998273,66663.95499999635,65766.957,65768.92499998212,65783.645,66665.906,,,
Trial,flow.Sequence,1_3_0,2021-04-30T11:25:27.931Z,,,,,,,,,,,,,,,,,,,,,,,,,,,,,,,5126.8949999963515,,completion,,,,,,,,,2,,,,,,,,I,S,O,,66664.95499998564,66663.95499999635,61520.388,61528.49499997683,61537.06,66665.906,,,
Sounds,html.Screen,1_3_1_0,2021-04-30T11:25:32.164Z,,,,,,,,,,,,,,,,,,,,,,,,,,,,,,,4246.610000000001,,timeout,,,,,,,,,1,,,,,,,,S,O,I,,70897.62499998324,70895.765,66649.6,66665.02499999478,66665.906,70912.516,,,
Judgement,html.Screen,1_3_1_1,2021-04-30T11:25:32.859Z,,,,,,,,,,,,,,,,,,,,,,,,,,,,true,1,,679.4589999884483,,response,,,,,,,,,1,,1,click #choice-1,,,,,S,O,I,,71592.69499999937,71591.97499998845,70895.765,70897.78999995906,70912.516,71595.155,,,
Trial,flow.Sequence,1_3_1,2021-04-30T11:25:32.859Z,,,,,,,,,,,,,,,,,,,,,,,,,,,,,,,4926.068999988449,,completion,,,,,,,,,1,,,,,,,,S,O,I,,71592.84499997739,71591.97499998845,66649.6,66665.00999999698,66665.906,71595.155,,,
Sounds,html.Screen,1_3_2_0,2021-04-30T11:25:37.092Z,,,,,,,,,,,,,,,,,,,,,,,,,,,,,,,4246.614000000001,,timeout,,,,,,,,,3,,,,,,,,I,O,S,,75825.50999999512,75825.064,71578.745,71592.95500000007,71595.155,75841.769,,,
Judgement,html.Screen,1_3_2_1,2021-04-30T11:25:37.674Z,,,,,,,,,,,,,,,,,,,,,,,,,,,,true,3,,565.8559999925492,,response,,,,,,,,,3,,3,click #choice-3,,,,,I,O,S,,76408.28499995405,76407.62499999255,75825.064,75825.58000000427,75841.769,76424.827,,,
Trial,flow.Sequence,1_3_2,2021-04-30T11:25:37.675Z,,,,,,,,,,,,,,,,,,,,,,,,,,,,,,,4812.469999992551,,completion,,,,,,,,,3,,,,,,,,I,O,S,,76408.47500000382,76407.62499999255,71578.745,71592.92999998434,71595.155,76424.827,,,
Sounds,html.Screen,1_3_3_0,2021-04-30T11:25:41.921Z,,,,,,,,,,,,,,,,,,,,,,,,,,,,,,,4246.358999999997,,timeout,,,,,,,,,1,,,,,,,,S,I,O,,80654.90999998292,80654.469,76407.935,76408.56499999063,76424.827,80671.186,,,
Judgement,html.Screen,1_3_3_1,2021-04-30T11:25:42.459Z,,,,,,,,,,,,,,,,,,,,,,,,,,,,true,1,,520.6640000028856,,response,,,,,,,,,1,,1,click #choice-1,,,,,S,I,O,,81192.5699999556,81191.85000000289,80654.469,80654.98499997193,80671.186,81204.059,,,
Trial,flow.Sequence,1_3_3,2021-04-30T11:25:42.459Z,,,,,,,,,,,,,,,,,,,,,,,,,,,,,,,4767.023000002882,,completion,,,,,,,,,1,,,,,,,,S,I,O,,81192.70499999402,81191.85000000289,76407.935,76408.53499999503,76424.827,81204.059,,,
Sounds,html.Screen,1_3_4_0,2021-04-30T11:25:46.700Z,,,,,,,,,,,,,,,,,,,,,,,,,,,,,,,4246.403000000006,,timeout,,,,,,,,,3,,,,,,,,O,I,S,,85434.29999996442,85433.816,81187.317,81192.7699999651,81204.059,85450.462,,,
Judgement,html.Screen,1_3_4_1,2021-04-30T11:25:47.251Z,,,,,,,,,,,,,,,,,,,,,,,,,,,,true,3,,533.5379999967408,,response,,,,,,,,,3,,3,click #choice-3,,,,,O,I,S,,85984.69499999192,85983.99999999674,85433.816,85434.36999997357,85450.462,86000.275,,,
Trial,flow.Sequence,1_3_4,2021-04-30T11:25:47.251Z,,,,,,,,,,,,,,,,,,,,,,,,,,,,,,,4779.9409999967465,,completion,,,,,,,,,3,,,,,,,,O,I,S,,85984.82999997213,85983.99999999674,81187.317,81192.74499994935,81204.059,86000.275,,,
Sounds,html.Screen,1_3_5_0,2021-04-30T11:25:51.497Z,,,,,,,,,,,,,,,,,,,,,,,,,,,,,,,4246.434000000008,,timeout,,,,,,,,,2,,,,,,,,O,S,I,,90230.6399999652,90230.105,85983.734,85984.89500000142,86000.275,90246.709,,,
Judgement,html.Screen,1_3_5_1,2021-04-30T11:25:51.907Z,,,,,,,,,,,,,,,,,,,,,,,,,,,,true,2,,393.19599998908234,,response,,,,,,,,,2,,2,click #choice-2,,,,,O,S,I,,90640.53999999305,90639.90499998908,90230.105,90230.70499999449,90246.709,90646.124,,,
Trial,flow.Sequence,1_3_5,2021-04-30T11:25:51.907Z,,,,,,,,,,,,,,,,,,,,,,,,,,,,,,,4639.629999989091,,completion,,,,,,,,,2,,,,,,,,O,S,I,,90640.70499996888,90639.90499998908,85983.734,85984.87499996554,86000.275,90646.124,,,
Task,flow.Loop,1_3,2021-04-30T11:25:51.909Z,,,,,,,,,,,,,,,,,,,,,,,,,,,,,,,29102.844999989087,,completion,,,1,,,,,,,,,,,,,,,,,,90642.95499998843,90639.90499998908,61520.388,61528.464999981225,61537.06,90646.124,,,
Trap,html.Screen,1_4,2021-04-30T11:25:51.910Z,,,,,,,,,,,,,,,,,,,,,,,,,,,,,,,NaN,,skipped,,,,,,,,,,,,,,,,,,,,,90643.62499996787,90639.90499998908,,90643.51500000339,,90646.124,,,
Thanks,html.Screen,1_5,2021-04-30T11:25:55.315Z,,,,,,,,,,,,,,,,,,,,,,,,,,,,,,,3402.0709999812098,,response,,,,,,,,,,,continue,click button,,,,,,,,,94048.76499995589,94048.1949999812,90629.563,90643.68499995908,90646.124,97607.17,,,
Headphone screening,flow.Sequence,1,2021-04-30T11:25:55.315Z,,,,,,,,,,,,,,,,,,,,,,,,,,,,,,,75825.5049999812,,completion,,,,,,,,,,,,,,,,,,,,,94048.88499999652,94048.1949999812,18206.26,18209.9299999536,18222.69,97607.17,,,
Instructions,html.Page,2_0,2021-04-30T11:26:15.307Z,,,,,,,,,,,,,,,,,,,,,,,,,,,,,,,16433.614999961035,,form submission,,,,,,,,,,,,,,,,,,,,,114040.9599999548,114040.78499996103,97590.706,97602.17499994906,97607.17,114043.509,,,
Holding screen,html.Screen,2_1_0_0,2021-04-30T11:26:25.286Z,,,,,,,,,,,,,,,,,,,,,,,,,,,,,,,9992.036999999997,,timeout,,,,,,,,,,,,,,,,,,,,,124019.26999998977,124018.771,114026.923,114041.10999999102,114043.509,124035.546,,,
screen,html.Screen,2_1_0_1_0,2021-04-30T11:26:26.629Z,,,,,,,,,,,,,,,,,53,,,,,,,,,,,,,,1325.2189999903494,,response,,,,99,,,,,,,Space,keypress(Space),,,,,,,,When -- ----- -- ------ - ------- --- ----------<br>------------- ------ ------ ---- ---- ------- ----- -- ----<br>-------- ------- -- ---------- --- - --- ----- ----- ----<br>---- --- --- ----- --- ---- ---- ------- ----- ---- -------<br>--- --- -- ----- -- --- ---- -- --- ---- -- ------ ------<br>--- ----- -- ----,125362.31999995653,125360.76499999035,124018.771,124019.4649999612,124035.546,125367.672,,0,When
screen,html.Screen,2_1_0_1_1,2021-04-30T11:26:27.284Z,,,,,,,,,,,,,,,,,53,,,,,,,,,,,,,,648.7829999753885,,response,,,,99,,,,,,,Space,keypress(Space),,,,,,,,---- it ----- -- ------ - ------- --- ----------<br>------------- ------ ------ ---- ---- ------- ----- -- ----<br>-------- ------- -- ---------- --- - --- ----- ----- ----<br>---- --- --- ----- --- ---- ---- ------- ----- ---- -------<br>--- --- -- ----- -- --- ---- -- --- ---- -- ------ ------<br>--- ----- -- ----,126016.99999999255,126016.4549999754,125351.278,125362.39500000374,125367.672,126033.611,,1,it
screen,html.Screen,2_1_0_1_2,2021-04-30T11:26:28.283Z,,,,,,,,,,,,,,,,,53,,,,,,,,,,,,,,982.2089999714226,,response,,,,99,,,,,,,Space,keypress(Space),,,,,,,,---- -- comes -- ------ - ------- --- ----------<br>------------- ------ ------ ---- ---- ------- ----- -- ----<br>-------- ------- -- ---------- --- - --- ----- ----- ----<br>---- --- --- ----- --- ---- ---- ------- ----- ---- -------<br>--- --- -- ----- -- --- ---- -- --- ---- -- ------ ------<br>--- ----- -- ----,127016.14999998128,127015.81999997143,126000.852,126017.0849999995,126033.611,127033.125,,2,comes
screen,html.Screen,2_1_0_1_3,2021-04-30T11:26:28.676Z,,,,,,,,,,,,,,,,,53,,,,,,,,,,,,,,375.5099999997765,,response,,,,99,,,,,,,Space,keypress(Space),,,,,,,,---- -- ----- to ------ - ------- --- ----------<br>------------- ------ ------ ---- ---- ------- ----- -- ----<br>-------- ------- -- ---------- --- - --- ----- ----- ----<br>---- --- --- ----- --- ---- ---- ------- ----- ---- -------<br>--- --- -- ----- -- --- ---- -- --- ---- -- ------ ------<br>--- ----- -- ----,127409.09499995178,127408.63499999978,127000.061,127016.21999999043,127033.125,127415.986,,3,to
screen,html.Screen,2_1_0_1_4,2021-04-30T11:26:29.092Z,,,,,,,,,,,,,,,,,53,,,,,,,,,,,,,,408.3689999897324,,response,,,,99,,,,,,,Space,keypress(Space),,,,,,,,---- -- ----- -- having - ------- --- ----------<br>------------- ------ ------ ---- ---- ------- ----- -- ----<br>-------- ------- -- ---------- --- - --- ----- ----- ----<br>---- --- --- ----- --- ---- ---- ------- ----- ---- -------<br>--- --- -- ----- -- --- ---- -- --- ---- -- ------ ------<br>--- ----- -- ----,127824.79499996407,127824.35499998974,127399.565,127409.15500000119,127415.986,127832.404,,4,having
screen,html.Screen,2_1_0_1_5,2021-04-30T11:26:29.460Z,,,,,,,,,,,,,,,,,53,,,,,,,,,,,,,,360.3009999940259,,response,,,,99,,,,,,,Space,keypress(Space),,,,,,,,---- -- ----- -- ------ a ------- --- ----------<br>------------- ------ ------ ---- ---- ------- ----- -- ----<br>-------- ------- -- ---------- --- - --- ----- ----- ----<br>---- --- --- ----- --- ---- ---- ------- ----- ---- -------<br>--- --- -- ----- -- --- ---- -- --- ---- -- ------ ------<br>--- ----- -- ----,128193.17499996396,128192.70499999402,127815.674,127824.86499997322,127832.404,128198.541,,5,a
screen,html.Screen,2_1_0_1_6,2021-04-30T11:26:29.844Z,,,,,,,,,,,,,,,,,53,,,,,,,,,,,,,,377.81399996831897,,response,,,,99,,,,,,,Space,keypress(Space),,,,,,,,---- -- ----- -- ------ - lasting --- ----------<br>------------- ------ ------ ---- ---- ------- ----- -- ----<br>-------- ------- -- ---------- --- - --- ----- ----- ----<br>---- --- --- ----- --- ---- ---- ------- ----- ---- -------<br>--- --- -- ----- -- --- ---- -- --- ---- -- ------ ------<br>--- ----- -- ----,128576.84499997413,128576.35499996832,128182.195,128193.2449999731,128198.541,128581.605,,6,lasting
screen,html.Screen,2_1_0_1_7,2021-04-30T11:26:30.196Z,,,,,,,,,,,,,,,,,53,,,,,,,,,,,,,,346.9900000048656,,response,,,,99,,,,,,,Space,keypress(Space),,,,,,,,---- -- ----- -- ------ - ------- and ----------<br>------------- ------ ------ ---- ---- ------- ----- -- ----<br>-------- ------- -- ---------- --- - --- ----- ----- ----<br>---- --- --- ----- --- ---- ---- ------- ----- ---- -------<br>--- --- -- ----- -- --- ---- -- --- ---- -- ------ ------<br>--- ----- -- ----,128929.01999998139,128928.59500000486,128565.188,128576.90499996534,128581.605,128931.224,,7,and
screen,html.Screen,2_1_0_1_8,2021-04-30T11:26:30.604Z,,,,,,,,,,,,,,,,,53,,,,,,,,,,,,,,405.3609999827313,,response,,,,99,,,,,,,Space,keypress(Space),,,,,,,,---- -- ----- -- ------ - ------- --- fulfilling<br>------------- ------ ------ ---- ---- ------- ----- -- ----<br>-------- ------- -- ---------- --- - --- ----- ----- ----<br>---- --- --- ----- --- ---- ---- ------- ----- ---- -------<br>--- --- -- ----- -- --- ---- -- --- ---- -- ------ ------<br>--- ----- -- ----,129337.05499995267,129336.58499998273,128914.994,128929.08499995247,128931.224,129347.834,,8,fulfilling
screen,html.Screen,2_1_0_1_9,2021-04-30T11:26:31.004Z,,,,,,,,,,,,,,,,,53,,,,,,,,,,,,,,388.6309999653895,,response,,,,99,,,,,,,Space,keypress(Space),,,,,,,,"---- -- ----- -- ------ - ------- --- ----------<br>relationship, ------ ------ ---- ---- ------- ----- -- ----<br>-------- ------- -- ---------- --- - --- ----- ----- ----<br>---- --- --- ----- --- ---- ---- ------- ----- ---- -------<br>--- --- -- ----- -- --- ---- -- --- ---- -- ------ ------<br>--- ----- -- ----",129736.89999995986,129736.46499996539,129331.321,129337.12499996182,129347.834,129747.371,,9,"relationship,"
screen,html.Screen,2_1_0_1_10,2021-04-30T11:26:31.428Z,,,,,,,,,,,,,,,,,53,,,,,,,,,,,,,,413.14399999594025,,response,,,,99,,,,,,,Space,keypress(Space),,,,,,,,---- -- ----- -- ------ - ------- --- ----------<br>------------- common ------ ---- ---- ------- ----- -- ----<br>-------- ------- -- ---------- --- - --- ----- ----- ----<br>---- --- --- ----- --- ---- ---- ------- ----- ---- -------<br>--- --- -- ----- -- --- ---- -- --- ---- -- ------ ------<br>--- ----- -- ----,130160.93999997247,130160.51499999594,129730.915,129736.96499998914,129747.371,130163.564,,10,common
screen,html.Screen,2_1_0_1_11,2021-04-30T11:26:31.820Z,,,,,,,,,,,,,,,,,53,,,,,,,,,,,,,,388.9309999526158,,response,,,,99,,,,,,,Space,keypress(Space),,,,,,,,---- -- ----- -- ------ - ------- --- ----------<br>------------- ------ wisdom ---- ---- ------- ----- -- ----<br>-------- ------- -- ---------- --- - --- ----- ----- ----<br>---- --- --- ----- --- ---- ---- ------- ----- ---- -------<br>--- --- -- ----- -- --- ---- -- --- ---- -- ------ ------<br>--- ----- -- ----,130552.9600000009,130552.49499995261,130147.308,130161.00500000175,130163.564,130563.296,,11,wisdom
screen,html.Screen,2_1_0_1_12,2021-04-30T11:26:32.204Z,,,,,,,,,,,,,,,,,53,,,,,,,,,,,,,,372.99399998327135,,response,,,,99,,,,,,,Space,keypress(Space),,,,,,,,---- -- ----- -- ------ - ------- --- ----------<br>------------- ------ ------ says ---- ------- ----- -- ----<br>-------- ------- -- ---------- --- - --- ----- ----- ----<br>---- --- --- ----- --- ---- ---- ------- ----- ---- -------<br>--- --- -- ----- -- --- ---- -- --- ---- -- ------ ------<br>--- ----- -- ----,130936.76999997115,130936.28999998327,130546.702,130553.0199999921,130563.296,130946.35,,12,says
screen,html.Screen,2_1_0_1_13,2021-04-30T11:26:32.580Z,,,,,,,,,,,,,,,,,53,,,,,,,,,,,,,,366.2699999824108,,response,,,,99,,,,,,,Space,keypress(Space),,,,,,,,---- -- ----- -- ------ - ------- --- ----------<br>------------- ------ ------ ---- that ------- ----- -- ----<br>-------- ------- -- ---------- --- - --- ----- ----- ----<br>---- --- --- ----- --- ---- ---- ------- ----- ---- -------<br>--- --- -- ----- -- --- ---- -- --- ---- -- ------ ------<br>--- ----- -- ----,131313.0849999725,131312.61999998242,130930.048,130936.83500000043,130946.35,131329.477,,13,that
screen,html.Screen,2_1_0_1_14,2021-04-30T11:26:33.052Z,,,,,,,,,,,,,,,,,53,,,,,,,,,,,,,,454.9329999638139,,response,,,,99,,,,,,,Space,keypress(Space),,,,,,,,---- -- ----- -- ------ - ------- --- ----------<br>------------- ------ ------ ---- ---- feeling ----- -- ----<br>-------- ------- -- ---------- --- - --- ----- ----- ----<br>---- --- --- ----- --- ---- ---- ------- ----- ---- -------<br>--- --- -- ----- -- --- ---- -- --- ---- -- ------ ------<br>--- ----- -- ----,131784.85499997623,131784.40999996383,131313.063,131313.15000000177,131329.477,131795.505,,14,feeling
screen,html.Screen,2_1_0_1_15,2021-04-30T11:26:33.460Z,,,,,,,,,,,,,,,,,53,,,,,,,,,,,,,,396.79499999515247,,response,,,,99,,,,,,,Space,keypress(Space),,,,,,,,---- -- ----- -- ------ - ------- --- ----------<br>------------- ------ ------ ---- ---- ------- close -- ----<br>-------- ------- -- ---------- --- - --- ----- ----- ----<br>---- --- --- ----- --- ---- ---- ------- ----- ---- -------<br>--- --- -- ----- -- --- ---- -- --- ---- -- ------ ------<br>--- ----- -- ----,132192.72999995155,132192.29999999516,131779.215,131784.95999996085,131795.505,132195.204,,15,close
screen,html.Screen,2_1_0_1_16,2021-04-30T11:26:33.812Z,,,,,,,,,,,,,,,,,53,,,,,,,,,,,,,,349.02099996144534,,response,,,,99,,,,,,,Space,keypress(Space),,,,,,,,---- -- ----- -- ------ - ------- --- ----------<br>------------- ------ ------ ---- ---- ------- ----- to ----<br>-------- ------- -- ---------- --- - --- ----- ----- ----<br>---- --- --- ----- --- ---- ---- ------- ----- ---- -------<br>--- --- -- ----- -- --- ---- -- --- ---- -- ------ ------<br>--- ----- -- ----,132544.66999997385,132544.22499996144,132178.693,132192.79499998083,132195.204,132561.639,,16,to
screen,html.Screen,2_1_0_1_17,2021-04-30T11:26:34.220Z,,,,,,,,,,,,,,,,,53,,,,,,,,,,,,,,390.5859999572567,,response,,,,99,,,,,,,Space,keypress(Space),,,,,,,,---- -- ----- -- ------ - ------- --- ----------<br>------------- ------ ------ ---- ---- ------- ----- -- your<br>-------- ------- -- ---------- --- - --- ----- ----- ----<br>---- --- --- ----- --- ---- ---- ------- ----- ---- -------<br>--- --- -- ----- -- --- ---- -- --- ---- -- ------ ------<br>--- ----- -- ----,132952.66999996966,132952.22499995725,132528.664,132544.74499996286,132561.639,132961.377,,17,your
screen,html.Screen,2_1_0_1_18,2021-04-30T11:26:34.604Z,,,,,,,,,,,,,,,,,53,,,,,,,,,,,,,,374.8779999728722,,response,,,,99,,,,,,,Space,keypress(Space),,,,,,,,---- -- ----- -- ------ - ------- --- ----------<br>------------- ------ ------ ---- ---- ------- ----- -- ----<br>romantic ------- -- ---------- --- - --- ----- ----- ----<br>---- --- --- ----- --- ---- ---- ------- ----- ---- -------<br>--- --- -- ----- -- --- ---- -- --- ---- -- ------ ------<br>--- ----- -- ----,133336.70499996515,133336.25499997288,132945.057,132952.72999996087,132961.377,133344.317,,18,romantic
screen,html.Screen,2_1_0_1_19,2021-04-30T11:26:34.988Z,,,,,,,,,,,,,,,,,53,,,,,,,,,,,,,,375.87299996361253,,response,,,,99,,,,,,,Space,keypress(Space),,,,,,,,---- -- ----- -- ------ - ------- --- ----------<br>------------- ------ ------ ---- ---- ------- ----- -- ----<br>-------- partner -- ---------- --- - --- ----- ----- ----<br>---- --- --- ----- --- ---- ---- ------- ----- ---- -------<br>--- --- -- ----- -- --- ---- -- --- ---- -- ------ ------<br>--- ----- -- ----,133720.6549999537,133720.18999996362,133327.902,133336.76999999443,133344.317,133727.213,,19,partner
screen,html.Screen,2_1_0_1_20,2021-04-30T11:26:35.355Z,,,,,,,,,,,,,,,,,53,,,,,,,,,,,,,,360.8519999599084,,response,,,,99,,,,,,,Space,keypress(Space),,,,,,,,---- -- ----- -- ------ - ------- --- ----------<br>------------- ------ ------ ---- ---- ------- ----- -- ----<br>-------- ------- is ---------- --- - --- ----- ----- ----<br>---- --- --- ----- --- ---- ---- ------- ----- ---- -------<br>--- --- -- ----- -- --- ---- -- --- ---- -- ------ ------<br>--- ----- -- ----,134088.5699999635,134088.0649999599,133710.785,133720.72499996284,133727.213,134093.657,,20,is
screen,html.Screen,2_1_0_1_21,2021-04-30T11:26:35.724Z,,,,,,,,,,,,,,,,,53,,,,,,,,,,,,,,362.90800000040326,,response,,,,99,,,,,,,Space,keypress(Space),,,,,,,,---- -- ----- -- ------ - ------- --- ----------<br>------------- ------ ------ ---- ---- ------- ----- -- ----<br>-------- ------- -- paramount. --- - --- ----- ----- ----<br>---- --- --- ----- --- ---- ---- ------- ----- ---- -------<br>--- --- -- ----- -- --- ---- -- --- ---- -- ------ ------<br>--- ----- -- ----,134456.97499997914,134456.5650000004,134077.456,134088.63999997266,134093.657,134460.036,,21,paramount.
screen,html.Screen,2_1_0_1_22,2021-04-30T11:26:36.164Z,,,,,,,,,,,,,,,,,53,,,,,,,,,,,,,,436.52399996467284,,response,,,,99,,,,,,,Space,keypress(Space),,,,,,,,---- -- ----- -- ------ - ------- --- ----------<br>------------- ------ ------ ---- ---- ------- ----- -- ----<br>-------- ------- -- ---------- But - --- ----- ----- ----<br>---- --- --- ----- --- ---- ---- ------- ----- ---- -------<br>--- --- -- ----- -- --- ---- -- --- ---- -- ------ ------<br>--- ----- -- ----,134896.98999997927,134896.55999996467,134443.64,134457.02999999048,134460.036,134909.905,,22,But
screen,html.Screen,2_1_0_1_23,2021-04-30T11:26:36.548Z,,,,,,,,,,,,,,,,,53,,,,,,,,,,,,,,370.4149999616493,,response,,,,99,,,,,,,Space,keypress(Space),,,,,,,,---- -- ----- -- ------ - ------- --- ----------<br>------------- ------ ------ ---- ---- ------- ----- -- ----<br>-------- ------- -- ---------- --- a --- ----- ----- ----<br>---- --- --- ----- --- ---- ---- ------- ----- ---- -------<br>--- --- -- ----- -- --- ---- -- --- ---- -- ------ ------<br>--- ----- -- ----,135280.774999992,135280.31999996165,134893.467,134897.05499995034,134909.905,135292.679,,23,a
screen,html.Screen,2_1_0_1_24,2021-04-30T11:26:36.972Z,,,,,,,,,,,,,,,,,53,,,,,,,,,,,,,,411.94599995482713,,response,,,,99,,,,,,,Space,keypress(Space),,,,,,,,---- -- ----- -- ------ - ------- --- ----------<br>------------- ------ ------ ---- ---- ------- ----- -- ----<br>-------- ------- -- ---------- --- - new ----- ----- ----<br>---- --- --- ----- --- ---- ---- ------- ----- ---- -------<br>--- --- -- ----- -- --- ---- -- --- ---- -- ------ ------<br>--- ----- -- ----,135705.12999995844,135704.62499995483,135276.211,135280.849999981,135292.679,135709.086,,24,new
screen,html.Screen,2_1_0_1_25,2021-04-30T11:26:37.340Z,,,,,,,,,,,,,,,,,53,,,,,,,,,,,,,,363.37899997562636,,response,,,,99,,,,,,,Space,keypress(Space),,,,,,,,---- -- ----- -- ------ - ------- --- ----------<br>------------- ------ ------ ---- ---- ------- ----- -- ----<br>-------- ------- -- ---------- --- - --- study ----- ----<br>---- --- --- ----- --- ---- ---- ------- ----- ---- -------<br>--- --- -- ----- -- --- ---- -- --- ---- -- ------ ------<br>--- ----- -- ----,136072.96999997925,136072.46499997564,135692.721,135705.20999998553,135709.086,136075.318,,25,study
screen,html.Screen,2_1_0_1_26,2021-04-30T11:26:37.740Z,,,,,,,,,,,,,,,,,53,,,,,,,,,,,,,,397.266999981337,,response,,,,99,,,,,,,Space,keypress(Space),,,,,,,,---- -- ----- -- ------ - ------- --- ----------<br>------------- ------ ------ ---- ---- ------- ----- -- ----<br>-------- ------- -- ---------- --- - --- ----- finds ----<br>---- --- --- ----- --- ---- ---- ------- ----- ---- -------<br>--- --- -- ----- -- --- ---- -- --- ---- -- ------ ------<br>--- ----- -- ----,136473.01499999594,136472.58499998134,136059.152,136073.03499995032,136075.318,136474.981,,26,finds
screen,html.Screen,2_1_0_1_27,2021-04-30T11:26:38.140Z,,,,,,,,,,,,,,,,,53,,,,,,,,,,,,,,397.4689999661932,,response,,,,99,,,,,,,Space,keypress(Space),,,,,,,,---- -- ----- -- ------ - ------- --- ----------<br>------------- ------ ------ ---- ---- ------- ----- -- ----<br>-------- ------- -- ---------- --- - --- ----- ----- that<br>---- --- --- ----- --- ---- ---- ------- ----- ---- -------<br>--- --- -- ----- -- --- ---- -- --- ---- -- ------ ------<br>--- ----- -- ----,136872.939999972,136872.4499999662,136458.628,136473.07499998715,136474.981,136874.668,,27,that
screen,html.Screen,2_1_0_1_28,2021-04-30T11:26:38.532Z,,,,,,,,,,,,,,,,,53,,,,,,,,,,,,,,389.831999990216,,response,,,,99,,,,,,,Space,keypress(Space),,,,,,,,---- -- ----- -- ------ - ------- --- ----------<br>------------- ------ ------ ---- ---- ------- ----- -- ----<br>-------- ------- -- ---------- --- - --- ----- ----- ----<br>it's --- --- ----- --- ---- ---- ------- ----- ---- -------<br>--- --- -- ----- -- --- ---- -- --- ---- -- ------ ------<br>--- ----- -- ----,137264.9199999869,137264.49999999022,136858.188,136873.00999998115,136874.668,137274.532,,28,it's
screen,html.Screen,2_1_0_1_29,2021-04-30T11:26:38.828Z,,,,,,,,,,,,,,,,,53,,,,,,,,,,,,,,286.0129999566125,,response,,,,99,,,,,,,Space,keypress(Space),,,,,,,,---- -- ----- -- ------ - ------- --- ----------<br>------------- ------ ------ ---- ---- ------- ----- -- ----<br>-------- ------- -- ---------- --- - --- ----- ----- ----<br>---- not --- ----- --- ---- ---- ------- ----- ---- -------<br>--- --- -- ----- -- --- ---- -- --- ---- -- ------ ------<br>--- ----- -- ----,137560.95999997342,137560.54499995662,137258.18,137265.0099999737,137274.532,137574.342,,29,not
screen,html.Screen,2_1_0_1_30,2021-04-30T11:26:39.180Z,,,,,,,,,,,,,,,,,53,,,,,,,,,,,,,,338.0930000056396,,response,,,,99,,,,,,,Space,keypress(Space),,,,,,,,---- -- ----- -- ------ - ------- --- ----------<br>------------- ------ ------ ---- ---- ------- ----- -- ----<br>-------- ------- -- ---------- --- - --- ----- ----- ----<br>---- --- how ----- --- ---- ---- ------- ----- ---- -------<br>--- --- -- ----- -- --- ---- -- --- ---- -- ------ ------<br>--- ----- -- ----,137912.87499997998,137912.43500000564,137557.824,137561.0400000005,137574.342,137924.081,,30,how
screen,html.Screen,2_1_0_1_31,2021-04-30T11:26:39.548Z,,,,,,,,,,,,,,,,,53,,,,,,,,,,,,,,356.4589999488089,,response,,,,99,,,,,,,Space,keypress(Space),,,,,,,,---- -- ----- -- ------ - ------- --- ----------<br>------------- ------ ------ ---- ---- ------- ----- -- ----<br>-------- ------- -- ---------- --- - --- ----- ----- ----<br>---- --- --- close --- ---- ---- ------- ----- ---- -------<br>--- --- -- ----- -- --- ---- -- --- ---- -- ------ ------<br>--- ----- -- ----,138280.9600000037,138280.5399999488,137907.552,137912.93999995105,137924.081,138290.318,,31,close
screen,html.Screen,2_1_0_1_32,2021-04-30T11:26:39.876Z,,,,,,,,,,,,,,,,,53,,,,,,,,,,,,,,318.63199996526237,,response,,,,99,,,,,,,Space,keypress(Space),,,,,,,,---- -- ----- -- ------ - ------- --- ----------<br>------------- ------ ------ ---- ---- ------- ----- -- ----<br>-------- ------- -- ---------- --- - --- ----- ----- ----<br>---- --- --- ----- you ---- ---- ------- ----- ---- -------<br>--- --- -- ----- -- --- ---- -- --- ---- -- ------ ------<br>--- ----- -- ----,138609.28499995498,138608.94999996526,138273.917,138281.03999997256,138290.318,138623.396,,32,you
screen,html.Screen,2_1_0_1_33,2021-04-30T11:26:40.236Z,,,,,,,,,,,,,,,,,53,,,,,,,,,,,,,,345.0089999923366,,response,,,,99,,,,,,,Space,keypress(Space),,,,,,,,---- -- ----- -- ------ - ------- --- ----------<br>------------- ------ ------ ---- ---- ------- ----- -- ----<br>-------- ------- -- ---------- --- - --- ----- ----- ----<br>---- --- --- ----- --- feel ---- ------- ----- ---- -------<br>--- --- -- ----- -- --- ---- -- --- ---- -- ------ ------<br>--- ----- -- ----,138968.81499997107,138968.40499999234,138606.982,138609.34999998426,138623.396,138973.034,,33,feel
screen,html.Screen,2_1_0_1_34,2021-04-30T11:26:40.548Z,,,,,,,,,,,,,,,,,53,,,,,,,,,,,,,,307.2559999660298,,response,,,,99,,,,,,,Space,keypress(Space),,,,,,,,---- -- ----- -- ------ - ------- --- ----------<br>------------- ------ ------ ---- ---- ------- ----- -- ----<br>-------- ------- -- ---------- --- - --- ----- ----- ----<br>---- --- --- ----- --- ---- that ------- ----- ---- -------<br>--- --- -- ----- -- --- ---- -- --- ---- -- ------ ------<br>--- ----- -- ----,139280.82499996526,139280.28999996604,138956.648,138969.4699999527,138973.034,139289.476,,34,that
screen,html.Screen,2_1_0_1_35,2021-04-30T11:26:40.947Z,,,,,,,,,,,,,,,,,53,,,,,,,,,,,,,,390.6339999574993,,response,,,,99,,,,,,,Space,keypress(Space),,,,,,,,---- -- ----- -- ------ - ------- --- ----------<br>------------- ------ ------ ---- ---- ------- ----- -- ----<br>-------- ------- -- ---------- --- - --- ----- ----- ----<br>---- --- --- ----- --- ---- ---- matters ----- ---- -------<br>--- --- -- ----- -- --- ---- -- --- ---- -- ------ ------<br>--- ----- -- ----,139680.5399999721,139680.1099999575,139273.038,139280.88999999454,139289.476,139689.162,,35,matters
screen,html.Screen,2_1_0_1_36,2021-04-30T11:26:41.252Z,,,,,,,,,,,,,,,,,53,,,,,,,,,,,,,,295.39299997361377,,response,,,,99,,,,,,,Space,keypress(Space),,,,,,,,"---- -- ----- -- ------ - ------- --- ----------<br>------------- ------ ------ ---- ---- ------- ----- -- ----<br>-------- ------- -- ---------- --- - --- ----- ----- ----<br>---- --- --- ----- --- ---- ---- ------- most, ---- -------<br>--- --- -- ----- -- --- ---- -- --- ---- -- ------ ------<br>--- ----- -- ----",139984.9749999703,139984.55499997362,139672.809,139680.98999996437,139689.162,139988.909,,36,"most,"
screen,html.Screen,2_1_0_1_37,2021-04-30T11:26:41.628Z,,,,,,,,,,,,,,,,,53,,,,,,,,,,,,,,371.70099997424404,,response,,,,99,,,,,,,Space,keypress(Space),,,,,,,,---- -- ----- -- ------ - ------- --- ----------<br>------------- ------ ------ ---- ---- ------- ----- -- ----<br>-------- ------- -- ---------- --- - --- ----- ----- ----<br>---- --- --- ----- --- ---- ---- ------- ----- it's -------<br>--- --- -- ----- -- --- ---- -- --- ---- -- ------ ------<br>--- ----- -- ----,140361.03999998886,140360.60999997426,139972.523,139985.03999999957,139988.909,140371.939,,37,it's
screen,html.Screen,2_1_0_1_38,2021-04-30T11:26:41.955Z,,,,,,,,,,,,,,,,,53,,,,,,,,,,,,,,316.0909999611322,,response,,,,99,,,,,,,Space,keypress(Space),,,,,,,,---- -- ----- -- ------ - ------- --- ----------<br>------------- ------ ------ ---- ---- ------- ----- -- ----<br>-------- ------- -- ---------- --- - --- ----- ----- ----<br>---- --- --- ----- --- ---- ---- ------- ----- ---- whether<br>--- --- -- ----- -- --- ---- -- --- ---- -- ------ ------<br>--- ----- -- ----,140688.43999999808,140688.02999996115,140355.588,140361.09999998007,140371.939,140705.147,,38,whether
screen,html.Screen,2_1_0_1_39,2021-04-30T11:26:42.292Z,,,,,,,,,,,,,,,,,53,,,,,,,,,,,,,,319.15299999003764,,response,,,,99,,,,,,,Space,keypress(Space),,,,,,,,---- -- ----- -- ------ - ------- --- ----------<br>------------- ------ ------ ---- ---- ------- ----- -- ----<br>-------- ------- -- ---------- --- - --- ----- ----- ----<br>---- --- --- ----- --- ---- ---- ------- ----- ---- -------<br>you --- -- ----- -- --- ---- -- --- ---- -- ------ ------<br>--- ----- -- ----,141024.73000000464,141024.29999999003,140688.653,140688.54999996256,140705.147,141038.276,,39,you
screen,html.Screen,2_1_0_1_40,2021-04-30T11:26:42.620Z,,,,,,,,,,,,,,,,,53,,,,,,,,,,,,,,314.23399999696994,,response,,,,99,,,,,,,Space,keypress(Space),,,,,,,,---- -- ----- -- ------ - ------- --- ----------<br>------------- ------ ------ ---- ---- ------- ----- -- ----<br>-------- ------- -- ---------- --- - --- ----- ----- ----<br>---- --- --- ----- --- ---- ---- ------- ----- ---- -------<br>--- are -- ----- -- --- ---- -- --- ---- -- ------ ------<br>--- ----- -- ----,141352.89499995997,141352.50999999698,141021.606,141024.80499999365,141038.276,141354.324,,40,are
screen,html.Screen,2_1_0_1_41,2021-04-30T11:26:42.988Z,,,,,,,,,,,,,,,,,53,,,,,,,,,,,,,,366.22099998922204,,response,,,,99,,,,,,,Space,keypress(Space),,,,,,,,---- -- ----- -- ------ - ------- --- ----------<br>------------- ------ ------ ---- ---- ------- ----- -- ----<br>-------- ------- -- ---------- --- - --- ----- ----- ----<br>---- --- --- ----- --- ---- ---- ------- ----- ---- -------<br>--- --- as ----- -- --- ---- -- --- ---- -- ------ ------<br>--- ----- -- ----,141720.99999996135,141720.54499998922,141338.072,141352.97499998705,141354.324,141737.63,,41,as
screen,html.Screen,2_1_0_1_42,2021-04-30T11:26:43.276Z,,,,,,,,,,,,,,,,,53,,,,,,,,,,,,,,270.68499998457264,,response,,,,99,,,,,,,Space,keypress(Space),,,,,,,,---- -- ----- -- ------ - ------- --- ----------<br>------------- ------ ------ ---- ---- ------- ----- -- ----<br>-------- ------- -- ---------- --- - --- ----- ----- ----<br>---- --- --- ----- --- ---- ---- ------- ----- ---- -------<br>--- --- -- close -- --- ---- -- --- ---- -- ------ ------<br>--- ----- -- ----,142008.74499999918,142008.31499998458,141720.94,141721.05999995256,141737.63,142020.722,,42,close
screen,html.Screen,2_1_0_1_43,2021-04-30T11:26:43.588Z,,,,,,,,,,,,,,,,,53,,,,,,,,,,,,,,299.602999978757,,response,,,,99,,,,,,,Space,keypress(Space),,,,,,,,---- -- ----- -- ------ - ------- --- ----------<br>------------- ------ ------ ---- ---- ------- ----- -- ----<br>-------- ------- -- ---------- --- - --- ----- ----- ----<br>---- --- --- ----- --- ---- ---- ------- ----- ---- -------<br>--- --- -- ----- as --- ---- -- --- ---- -- ------ ------<br>--- ----- -- ----,142320.74499997543,142320.32499997877,142004.086,142008.80999997025,142020.722,142337.179,,43,as
screen,html.Screen,2_1_0_1_44,2021-04-30T11:26:43.908Z,,,,,,,,,,,,,,,,,53,,,,,,,,,,,,,,303.0609999787994,,response,,,,99,,,,,,,Space,keypress(Space),,,,,,,,---- -- ----- -- ------ - ------- --- ----------<br>------------- ------ ------ ---- ---- ------- ----- -- ----<br>-------- ------- -- ---------- --- - --- ----- ----- ----<br>---- --- --- ----- --- ---- ---- ------- ----- ---- -------<br>--- --- -- ----- -- you ---- -- --- ---- -- ------ ------<br>--- ----- -- ----,142640.6849999912,142640.2399999788,142320.349,142320.81999996444,142337.179,142653.22,,44,you
screen,html.Screen,2_1_0_1_45,2021-04-30T11:26:44.196Z,,,,,,,,,,,,,,,,,53,,,,,,,,,,,,,,275.23499998656916,,response,,,,99,,,,,,,Space,keypress(Space),,,,,,,,---- -- ----- -- ------ - ------- --- ----------<br>------------- ------ ------ ---- ---- ------- ----- -- ----<br>-------- ------- -- ---------- --- - --- ----- ----- ----<br>---- --- --- ----- --- ---- ---- ------- ----- ---- -------<br>--- --- -- ----- -- --- want -- --- ---- -- ------ ------<br>--- ----- -- ----,142928.90499997884,142928.45499998657,142637.044,142641.37999998638,142653.22,142936.318,,45,want
screen,html.Screen,2_1_0_1_46,2021-04-30T11:26:44.508Z,,,,,,,,,,,,,,,,,53,,,,,,,,,,,,,,303.9869999848015,,response,,,,99,,,,,,,Space,keypress(Space),,,,,,,,---- -- ----- -- ------ - ------- --- ----------<br>------------- ------ ------ ---- ---- ------- ----- -- ----<br>-------- ------- -- ---------- --- - --- ----- ----- ----<br>---- --- --- ----- --- ---- ---- ------- ----- ---- -------<br>--- --- -- ----- -- --- ---- to --- ---- -- ------ ------<br>--- ----- -- ----,143240.78499997267,143240.3049999848,142919.993,142929.00000000373,142936.318,143252.764,,46,to
screen,html.Screen,2_1_0_1_47,2021-04-30T11:26:44.812Z,,,,,,,,,,,,,,,,,53,,,,,,,,,,,,,,291.46099996144767,,response,,,,99,,,,,,,Space,keypress(Space),,,,,,,,"---- -- ----- -- ------ - ------- --- ----------<br>------------- ------ ------ ---- ---- ------- ----- -- ----<br>-------- ------- -- ---------- --- - --- ----- ----- ----<br>---- --- --- ----- --- ---- ---- ------- ----- ---- -------<br>--- --- -- ----- -- --- ---- -- be, ---- -- ------ ------<br>--- ----- -- ----",143544.6949999896,143544.22499996144,143236.259,143240.83999998402,143252.764,143552.469,,47,"be,"
screen,html.Screen,2_1_0_1_48,2021-04-30T11:26:45.148Z,,,,,,,,,,,,,,,,,53,,,,,,,,,,,,,,327.9059999496967,,response,,,,99,,,,,,,Space,keypress(Space),,,,,,,,---- -- ----- -- ------ - ------- --- ----------<br>------------- ------ ------ ---- ---- ------- ----- -- ----<br>-------- ------- -- ---------- --- - --- ----- ----- ----<br>---- --- --- ----- --- ---- ---- ------- ----- ---- -------<br>--- --- -- ----- -- --- ---- -- --- even -- ------ ------<br>--- ----- -- ----,143880.79500000458,143880.3749999497,143535.985,143544.7549999808,143552.469,143885.603,,48,even
screen,html.Screen,2_1_0_1_49,2021-04-30T11:26:45.452Z,,,,,,,,,,,,,,,,,53,,,,,,,,,,,,,,298.71199996222276,,response,,,,99,,,,,,,Space,keypress(Space),,,,,,,,---- -- ----- -- ------ - ------- --- ----------<br>------------- ------ ------ ---- ---- ------- ----- -- ----<br>-------- ------- -- ---------- --- - --- ----- ----- ----<br>---- --- --- ----- --- ---- ---- ------- ----- ---- -------<br>--- --- -- ----- -- --- ---- -- --- ---- if ------ ------<br>--- ----- -- ----,144184.7199999611,144184.31499996223,143869.294,143880.914999987,143885.603,144203.636,,49,if
screen,html.Screen,2_1_0_1_50,2021-04-30T11:26:45.740Z,,,,,,,,,,,,,,,,,53,,,,,,,,,,,,,,268.8889999901294,,response,,,,99,,,,,,,Space,keypress(Space),,,,,,,,---- -- ----- -- ------ - ------- --- ----------<br>------------- ------ ------ ---- ---- ------- ----- -- ----<br>-------- ------- -- ---------- --- - --- ----- ----- ----<br>---- --- --- ----- --- ---- ---- ------- ----- ---- -------<br>--- --- -- ----- -- --- ---- -- --- ---- -- that's ------<br>--- ----- -- ----,144473.03999995347,144472.52499999013,144169.05,144184.81499998597,144203.636,144485.408,,50,that's
screen,html.Screen,2_1_0_1_51,2021-04-30T11:26:46.092Z,,,,,,,,,,,,,,,,,53,,,,,,,,,,,,,,339.0819999699597,,response,,,,99,,,,,,,Space,keypress(Space),,,,,,,,---- -- ----- -- ------ - ------- --- ----------<br>------------- ------ ------ ---- ---- ------- ----- -- ----<br>-------- ------- -- ---------- --- - --- ----- ----- ----<br>---- --- --- ----- --- ---- ---- ------- ----- ---- -------<br>--- --- -- ----- -- --- ---- -- --- ---- -- ------ really<br>--- ----- -- ----,144824.9899999937,144824.48999996996,144468.823,144473.10499998275,144485.408,144835.094,,51,really
screen,html.Screen,2_1_0_1_52,2021-04-30T11:26:46.428Z,,,,,,,,,,,,,,,,,53,,,,,,,,,,,,,,325.1209999816783,,response,,,,99,,,,,,,Space,keypress(Space),,,,,,,,---- -- ----- -- ------ - ------- --- ----------<br>------------- ------ ------ ---- ---- ------- ----- -- ----<br>-------- ------- -- ---------- --- - --- ----- ----- ----<br>---- --- --- ----- --- ---- ---- ------- ----- ---- -------<br>--- --- -- ----- -- --- ---- -- --- ---- -- ------ ------<br>not ----- -- ----,145160.64999997616,145160.2149999817,144818.285,144825.06000000285,144835.094,145167.782,,52,not
screen,html.Screen,2_1_0_1_53,2021-04-30T11:26:46.756Z,,,,,,,,,,,,,,,,,53,,,,,,,,,,,,,,320.6680000043707,,response,,,,99,,,,,,,Space,keypress(Space),,,,,,,,---- -- ----- -- ------ - ------- --- ----------<br>------------- ------ ------ ---- ---- ------- ----- -- ----<br>-------- ------- -- ---------- --- - --- ----- ----- ----<br>---- --- --- ----- --- ---- ---- ------- ----- ---- -------<br>--- --- -- ----- -- --- ---- -- --- ---- -- ------ ------<br>--- close -- ----,145488.86499996297,145488.45000000438,145151.304,145160.70999996737,145167.782,145501.133,,53,close
screen,html.Screen,2_1_0_1_54,2021-04-30T11:26:47.244Z,,,,,,,,,,,,,,,,,53,,,,,,,,,,,,,,475.54199998351396,,response,,,,99,,,,,,,Space,keypress(Space),,,,,,,,---- -- ----- -- ------ - ------- --- ----------<br>------------- ------ ------ ---- ---- ------- ----- -- ----<br>-------- ------- -- ---------- --- - --- ----- ----- ----<br>---- --- --- ----- --- ---- ---- ------- ----- ---- -------<br>--- --- -- ----- -- --- ---- -- --- ---- -- ------ ------<br>--- ----- at ----,145977.10499999812,145976.67499998352,145484.354,145488.92999999225,145501.133,145983.834,,54,at
screen,html.Screen,2_1_0_1_55,2021-04-30T11:26:47.764Z,,,,,,,,,,,,,,,,,53,,,,,,,,,,,,,,512.5009999743488,,response,,,,99,,,,,,,Space,keypress(Space),,,,,,,,---- -- ----- -- ------ - ------- --- ----------<br>------------- ------ ------ ---- ---- ------- ----- -- ----<br>-------- ------- -- ---------- --- - --- ----- ----- ----<br>---- --- --- ----- --- ---- ---- ------- ----- ---- -------<br>--- --- -- ----- -- --- ---- -- --- ---- -- ------ ------<br>--- ----- -- all.,146496.77999998676,146496.33499997435,145967.649,145977.16499998933,145983.834,146500.036,,55,all.
Item 99,flow.Loop,2_1_0_1,2021-04-30T11:26:47.764Z,,,,,,,,,,,,,,,,,,,,,,,,,,,,,,,22460.78899997435,,completion,,,,,C,,,,,,,,,,,silence,,,,,146496.88999995124,146496.33499997435,124018.771,124019.41499998793,124035.546,146500.036,,,
Question 1,html.Screen,2_1_0_2,2021-04-30T11:26:50.395Z,,,,,,,,,,,,,,,,,,,,,,,,,,,,false,FALSE,,2627.778999956179,,response,,,,99,C,,,,,,TRUE,click #choice-1,,,,silence,,,,,149128.54499998502,149127.81499995617,146483.592,146496.97999999626,146500.036,149131.26,,,
Question 2,html.Screen,2_1_0_3,2021-04-30T11:26:53.715Z,,,,,,,,,,,,,,,,,,,,,,,,,,,,true,TRUE,,3316.624999972293,,response,,,,99,C,,,,,,TRUE,click #choice-1,,,,silence,,,,,152448.51999997627,152447.8849999723,149114.857,149128.67499998538,149131.26,152461.852,,,
Item 99,flow.Sequence,2_1_0,2021-04-30T11:26:53.716Z,,,,,,,,,,,,,,,,,,,,,,,,,,,,,,,38404.3759999723,,completion,,,,,,,,,,,,,,,,,,,,,152448.6549999565,152447.8849999723,114026.923,114041.08999995515,114043.509,152461.852,,,
Holding screen,html.Screen,2_1_1_0,2021-04-30T11:27:03.705Z,,,,,,,,,,,,,,,,,,,,,,,,,,,,,,,9991.985999999975,,timeout,,,,,,,,,,,,,,,,,,,,,162437.71999998717,162437.224,152445.192,152448.7599999993,152461.852,162453.838,,,
screen,html.Screen,2_1_1_1_0,2021-04-30T11:27:04.820Z,,,,,,,,,,,,,,,,,54,,,,,,,,,,,,,,1099.0119999782182,,response,,,,100,,,,,,,Space,keypress(Space),,,,,,,,At --- ---- --- ------ ----- ------- ---- -- --- ------- --<br>------- ---------- ------ -- ----- -- ----- -- ---- ------<br>--- ----- --- --- ------ -------- ----- --- ------ ----- --<br>----- ----- ---------- --- --- ------ ------ ---- -- ------<br>------- --- ------ ----- --- ---- ------- -- ---- --- --<br>------- ------,163553.264999995,163552.8499999782,162437.224,162437.80999997398,162453.838,163569.592,,0,At
screen,html.Screen,2_1_1_1_1,2021-04-30T11:27:05.188Z,,,,,,,,,,,,,,,,,54,,,,,,,,,,,,,,350.89299995143665,,response,,,,100,,,,,,,Space,keypress(Space),,,,,,,,-- the ---- --- ------ ----- ------- ---- -- --- ------- --<br>------- ---------- ------ -- ----- -- ----- -- ---- ------<br>--- ----- --- --- ------ -------- ----- --- ------ ----- --<br>----- ----- ---------- --- --- ------ ------ ---- -- ------<br>------- --- ------ ----- --- ---- ------- -- ---- --- --<br>------- ------,163920.8449999569,163920.48499995144,163536.756,163553.3749999595,163569.592,163935.844,,1,the
screen,html.Screen,2_1_1_1_2,2021-04-30T11:27:05.452Z,,,,,,,,,,,,,,,,,54,,,,,,,,,,,,,,248.42099998894264,,response,,,,100,,,,,,,Space,keypress(Space),,,,,,,,-- --- time --- ------ ----- ------- ---- -- --- ------- --<br>------- ---------- ------ -- ----- -- ----- -- ---- ------<br>--- ----- --- --- ------ -------- ----- --- ------ ----- --<br>----- ----- ---------- --- --- ------ ------ ---- -- ------<br>------- --- ------ ----- --- ---- ------- -- ---- --- --<br>------- ------,164184.81499998597,164184.26499998895,163919.191,163920.9049999481,163935.844,164203.616,,2,time
screen,html.Screen,2_1_1_1_3,2021-04-30T11:27:05.692Z,,,,,,,,,,,,,,,,,54,,,,,,,,,,,,,,220.49900000161142,,response,,,,100,,,,,,,Space,keypress(Space),,,,,,,,-- --- ---- the ------ ----- ------- ---- -- --- ------- --<br>------- ---------- ------ -- ----- -- ----- -- ---- ------<br>--- ----- --- --- ------ -------- ----- --- ------ ----- --<br>----- ----- ---------- --- --- ------ ------ ---- -- ------<br>------- --- ------ ----- --- ---- ------- -- ---- --- --<br>------- ------,164424.5949999895,164424.11500000162,164169.162,164184.88999997498,164203.616,164435.404,,3,the
screen,html.Screen,2_1_1_1_4,2021-04-30T11:27:05.900Z,,,,,,,,,,,,,,,,,54,,,,,,,,,,,,,,197.06099997329875,,response,,,,100,,,,,,,Space,keypress(Space),,,,,,,,-- --- ---- --- French ----- ------- ---- -- --- ------- --<br>------- ---------- ------ -- ----- -- ----- -- ---- ------<br>--- ----- --- --- ------ -------- ----- --- ------ ----- --<br>----- ----- ---------- --- --- ------ ------ ---- -- ------<br>------- --- ------ ----- --- ---- ------- -- ---- --- --<br>------- ------,164632.92000000365,164632.4649999733,164418.8,164424.65000000084,164435.404,164635.105,,4,French
screen,html.Screen,2_1_1_1_5,2021-04-30T11:27:06.123Z,,,,,,,,,,,,,,,,,54,,,,,,,,,,,,,,221.0149999530695,,response,,,,100,,,,,,,Space,keypress(Space),,,,,,,,-- --- ---- --- ------ crown ------- ---- -- --- ------- --<br>------- ---------- ------ -- ----- -- ----- -- ---- ------<br>--- ----- --- --- ------ -------- ----- --- ------ ----- --<br>----- ----- ---------- --- --- ------ ------ ---- -- ------<br>------- --- ------ ----- --- ---- ------- -- ---- --- --<br>------- ------,164856.53999994975,164856.11999995308,164618.536,164632.9899999546,164635.105,164868.239,,5,crown
screen,html.Screen,2_1_1_1_6,2021-04-30T11:27:06.492Z,,,,,,,,,,,,,,,,,54,,,,,,,,,,,,,,356.16599998628953,,response,,,,100,,,,,,,Space,keypress(Space),,,,,,,,-- --- ---- --- ------ ----- secured ---- -- --- ------- --<br>------- ---------- ------ -- ----- -- ----- -- ---- ------<br>--- ----- --- --- ------ -------- ----- --- ------ ----- --<br>----- ----- ---------- --- --- ------ ------ ---- -- ------<br>------- --- ------ ----- --- ---- ------- -- ---- --- --<br>------- ------,165224.86999997636,165224.4049999863,164852.007,164856.60499997903,164868.239,165234.579,,6,secured
screen,html.Screen,2_1_1_1_7,2021-04-30T11:27:06.844Z,,,,,,,,,,,,,,,,,54,,,,,,,,,,,,,,341.8459999774641,,response,,,,100,,,,,,,Space,keypress(Space),,,,,,,,-- --- ---- --- ------ ----- ------- much -- --- ------- --<br>------- ---------- ------ -- ----- -- ----- -- ---- ------<br>--- ----- --- --- ------ -------- ----- --- ------ ----- --<br>----- ----- ---------- --- --- ------ ------ ---- -- ------<br>------- --- ------ ----- --- ---- ------- -- ---- --- --<br>------- ------,165576.90499996534,165576.42499997746,165218.422,165224.9699999811,165234.579,165584.51,,7,much
screen,html.Screen,2_1_1_1_8,2021-04-30T11:27:07.228Z,,,,,,,,,,,,,,,,,54,,,,,,,,,,,,,,375.9199999773409,,response,,,,100,,,,,,,Space,keypress(Space),,,,,,,,-- --- ---- --- ------ ----- ------- ---- of --- ------- --<br>------- ---------- ------ -- ----- -- ----- -- ---- ------<br>--- ----- --- --- ------ -------- ----- --- ------ ----- --<br>----- ----- ---------- --- --- ------ ------ ---- -- ------<br>------- --- ------ ----- --- ---- ------- -- ---- --- --<br>------- ------,165960.72499995353,165960.42999997735,165567.908,165576.96499995654,165584.51,165967.472,,8,of
screen,html.Screen,2_1_1_1_9,2021-04-30T11:27:07.516Z,,,,,,,,,,,,,,,,,54,,,,,,,,,,,,,,281.03299996681744,,response,,,,100,,,,,,,Space,keypress(Space),,,,,,,,-- --- ---- --- ------ ----- ------- ---- -- its ------- --<br>------- ---------- ------ -- ----- -- ----- -- ---- ------<br>--- ----- --- --- ------ -------- ----- --- ------ ----- --<br>----- ----- ---------- --- --- ------ ------ ---- -- ------<br>------- --- ------ ----- --- ---- ------- -- ---- --- --<br>------- ------,166248.8799999701,166248.50499996683,165950.83,165960.78500000294,165967.472,166250.404,,9,its
screen,html.Screen,2_1_1_1_10,2021-04-30T11:27:07.852Z,,,,,,,,,,,,,,,,,54,,,,,,,,,,,,,,333.9759999565722,,response,,,,100,,,,,,,Space,keypress(Space),,,,,,,,-- --- ---- --- ------ ----- ------- ---- -- --- revenue --<br>------- ---------- ------ -- ----- -- ----- -- ---- ------<br>--- ----- --- --- ------ -------- ----- --- ------ ----- --<br>----- ----- ---------- --- --- ------ ------ ---- -- ------<br>------- --- ------ ----- --- ---- ------- -- ---- --- --<br>------- ------,166584.81999998912,166584.37999995658,166234.146,166248.9549999591,166250.404,166600.173,,10,revenue
screen,html.Screen,2_1_1_1_11,2021-04-30T11:27:08.228Z,,,,,,,,,,,,,,,,,54,,,,,,,,,,,,,,360.1619999524555,,response,,,,100,,,,,,,Space,keypress(Space),,,,,,,,-- --- ---- --- ------ ----- ------- ---- -- --- ------- by<br>------- ---------- ------ -- ----- -- ----- -- ---- ------<br>--- ----- --- --- ------ -------- ----- --- ------ ----- --<br>----- ----- ---------- --- --- ------ ------ ---- -- ------<br>------- --- ------ ----- --- ---- ------- -- ---- --- --<br>------- ------,166960.72499995353,166960.33499995247,166583.668,166584.90499999607,166600.173,166966.644,,11,by
screen,html.Screen,2_1_1_1_12,2021-04-30T11:27:08.556Z,,,,,,,,,,,,,,,,,54,,,,,,,,,,,,,,321.7109999678505,,response,,,,100,,,,,,,Space,keypress(Space),,,,,,,,-- --- ---- --- ------ ----- ------- ---- -- --- ------- --<br>issuing ---------- ------ -- ----- -- ----- -- ---- ------<br>--- ----- --- --- ------ -------- ----- --- ------ ----- --<br>----- ----- ---------- --- --- ------ ------ ---- -- ------<br>------- --- ------ ----- --- ---- ------- -- ---- --- --<br>------- ------,167288.7650000048,167288.35499996785,166950.275,166960.78500000294,166966.644,167299.85,,12,issuing
screen,html.Screen,2_1_1_1_13,2021-04-30T11:27:08.844Z,,,,,,,,,,,,,,,,,54,,,,,,,,,,,,,,276.65999998440384,,response,,,,100,,,,,,,Space,keypress(Space),,,,,,,,-- --- ---- --- ------ ----- ------- ---- -- --- ------- --<br>------- government ------ -- ----- -- ----- -- ---- ------<br>--- ----- --- --- ------ -------- ----- --- ------ ----- --<br>----- ----- ---------- --- --- ------ ------ ---- -- ------<br>------- --- ------ ----- --- ---- ------- -- ---- --- --<br>------- ------,167576.97499997448,167576.5099999844,167283.336,167288.824999996,167299.85,167582.678,,13,government
screen,html.Screen,2_1_1_1_14,2021-04-30T11:27:09.244Z,,,,,,,,,,,,,,,,,54,,,,,,,,,,,,,,393.7619999985327,,response,,,,100,,,,,,,Space,keypress(Space),,,,,,,,-- --- ---- --- ------ ----- ------- ---- -- --- ------- --<br>------- ---------- bonds. -- ----- -- ----- -- ---- ------<br>--- ----- --- --- ------ -------- ----- --- ------ ----- --<br>----- ----- ---------- --- --- ------ ------ ---- -- ------<br>------- --- ------ ----- --- ---- ------- -- ---- --- --<br>------- ------,167976.9249999663,167976.43999999855,167566.393,167577.0349999657,167582.678,167982.287,,14,bonds.
screen,html.Screen,2_1_1_1_15,2021-04-30T11:27:09.748Z,,,,,,,,,,,,,,,,,54,,,,,,,,,,,,,,498.00299997767434,,response,,,,100,,,,,,,Space,keypress(Space),,,,,,,,-- --- ---- --- ------ ----- ------- ---- -- --- ------- --<br>------- ---------- ------ In ----- -- ----- -- ---- ------<br>--- ----- --- --- ------ -------- ----- --- ------ ----- --<br>----- ----- ---------- --- --- ------ ------ ---- -- ------<br>------- --- ------ ----- --- ---- ------- -- ---- --- --<br>------- ------,168480.7349999901,168480.2899999777,167966.098,167976.99499997543,167982.287,168500.263,,15,In
screen,html.Screen,2_1_1_1_16,2021-04-30T11:27:10.340Z,,,,,,,,,,,,,,,,,54,,,,,,,,,,,,,,572.141999984422,,response,,,,100,,,,,,,Space,keypress(Space),,,,,,,,"-- --- ---- --- ------ ----- ------- ---- -- --- ------- --<br>------- ---------- ------ -- 1727, -- ----- -- ---- ------<br>--- ----- --- --- ------ -------- ----- --- ------ ----- --<br>----- ----- ---------- --- --- ------ ------ ---- -- ------<br>------- --- ------ ----- --- ---- ------- -- ---- --- --<br>------- ------",169072.90999998804,169072.40499998443,168465.574,168480.7949999813,168500.263,169081.739,,16,"1727,"
screen,html.Screen,2_1_1_1_17,2021-04-30T11:27:10.804Z,,,,,,,,,,,,,,,,,54,,,,,,,,,,,,,,454.43599995743716,,response,,,,100,,,,,,,Space,keypress(Space),,,,,,,,-- --- ---- --- ------ ----- ------- ---- -- --- ------- --<br>------- ---------- ------ -- ----- in ----- -- ---- ------<br>--- ----- --- --- ------ -------- ----- --- ------ ----- --<br>----- ----- ---------- --- --- ------ ------ ---- -- ------<br>------- --- ------ ----- --- ---- ------- -- ---- --- --<br>------- ------,169536.60499997204,169536.17499995744,169065.323,169072.96999997925,169081.739,169547.981,,17,in
screen,html.Screen,2_1_1_1_18,2021-04-30T11:27:11.252Z,,,,,,,,,,,,,,,,,54,,,,,,,,,,,,,,436.46399995093816,,response,,,,100,,,,,,,Space,keypress(Space),,,,,,,,-- --- ---- --- ------ ----- ------- ---- -- --- ------- --<br>------- ---------- ------ -- ----- -- order -- ---- ------<br>--- ----- --- --- ------ -------- ----- --- ------ ----- --<br>----- ----- ---------- --- --- ------ ------ ---- -- ------<br>------- --- ------ ----- --- ---- ------- -- ---- --- --<br>------- ------,169984.8650000058,169984.44499995094,169531.42,169536.67000000132,169547.981,169997.655,,18,order
screen,html.Screen,2_1_1_1_19,2021-04-30T11:27:11.572Z,,,,,,,,,,,,,,,,,54,,,,,,,,,,,,,,306.7949999959965,,response,,,,100,,,,,,,Space,keypress(Space),,,,,,,,-- --- ---- --- ------ ----- ------- ---- -- --- ------- --<br>------- ---------- ------ -- ----- -- ----- to ---- ------<br>--- ----- --- --- ------ -------- ----- --- ------ ----- --<br>----- ----- ---------- --- --- ------ ------ ---- -- ------<br>------- --- ------ ----- --- ---- ------- -- ---- --- --<br>------- ------,170304.94999996154,170304.449999996,169981.135,169984.92999997688,169997.655,170313.878,,19,to
screen,html.Screen,2_1_1_1_20,2021-04-30T11:27:11.940Z,,,,,,,,,,,,,,,,,54,,,,,,,,,,,,,,358.33699996958603,,response,,,,100,,,,,,,Space,keypress(Space),,,,,,,,-- --- ---- --- ------ ----- ------- ---- -- --- ------- --<br>------- ---------- ------ -- ----- -- ----- -- save ------<br>--- ----- --- --- ------ -------- ----- --- ------ ----- --<br>----- ----- ---------- --- --- ------ ------ ---- -- ------<br>------- --- ------ ----- --- ---- ------- -- ---- --- --<br>------- ------,170672.69999999553,170672.21499996958,170297.332,170305.02499995055,170313.878,170680.251,,20,save
screen,html.Screen,2_1_1_1_21,2021-04-30T11:27:12.300Z,,,,,,,,,,,,,,,,,54,,,,,,,,,,,,,,352.2439999922062,,response,,,,100,,,,,,,Space,keypress(Space),,,,,,,,"-- --- ---- --- ------ ----- ------- ---- -- --- ------- --<br>------- ---------- ------ -- ----- -- ----- -- ---- money,<br>--- ----- --- --- ------ -------- ----- --- ------ ----- --<br>----- ----- ---------- --- --- ------ ------ ---- -- ------<br>------- --- ------ ----- --- ---- ------- -- ---- --- --<br>------- ------",171032.9550000024,171032.4949999922,170663.631,170672.75999998674,170680.251,171046.553,,21,"money,"
screen,html.Screen,2_1_1_1_22,2021-04-30T11:27:12.676Z,,,,,,,,,,,,,,,,,54,,,,,,,,,,,,,,361.8719999723253,,response,,,,100,,,,,,,Space,keypress(Space),,,,,,,,-- --- ---- --- ------ ----- ------- ---- -- --- ------- --<br>------- ---------- ------ -- ----- -- ----- -- ---- ------<br>the ----- --- --- ------ -------- ----- --- ------ ----- --<br>----- ----- ---------- --- --- ------ ------ ---- -- ------<br>------- --- ------ ----- --- ---- ------- -- ---- --- --<br>------- ------,171408.8899999624,171408.42499997234,171030.275,171033.0299999914,171046.553,171412.799,,22,the
screen,html.Screen,2_1_1_1_23,2021-04-30T11:27:13.020Z,,,,,,,,,,,,,,,,,54,,,,,,,,,,,,,,339.4959999547573,,response,,,,100,,,,,,,Space,keypress(Space),,,,,,,,-- --- ---- --- ------ ----- ------- ---- -- --- ------- --<br>------- ---------- ------ -- ----- -- ----- -- ---- ------<br>--- state --- --- ------ -------- ----- --- ------ ----- --<br>----- ----- ---------- --- --- ------ ------ ---- -- ------<br>------- --- ------ ----- --- ---- ------- -- ---- --- --<br>------- ------,171752.71499995142,171752.29499995476,171396.369,171408.95999997156,171412.799,171762.682,,23,state
screen,html.Screen,2_1_1_1_24,2021-04-30T11:27:13.340Z,,,,,,,,,,,,,,,,,54,,,,,,,,,,,,,,309.68799995075096,,response,,,,100,,,,,,,Space,keypress(Space),,,,,,,,-- --- ---- --- ------ ----- ------- ---- -- --- ------- --<br>------- ---------- ------ -- ----- -- ----- -- ---- ------<br>--- ----- cut --- ------ -------- ----- --- ------ ----- --<br>----- ----- ---------- --- --- ------ ------ ---- -- ------<br>------- --- ------ ----- --- ---- ------- -- ---- --- --<br>------- ------,172072.8249999811,172072.36999995075,171746.298,171752.77500000084,171762.682,172079.079,,24,cut
screen,html.Screen,2_1_1_1_25,2021-04-30T11:27:13.684Z,,,,,,,,,,,,,,,,,54,,,,,,,,,,,,,,337.4659999854921,,response,,,,100,,,,,,,Space,keypress(Space),,,,,,,,-- --- ---- --- ------ ----- ------- ---- -- --- ------- --<br>------- ---------- ------ -- ----- -- ----- -- ---- ------<br>--- ----- --- the ------ -------- ----- --- ------ ----- --<br>----- ----- ---------- --- --- ------ ------ ---- -- ------<br>------- --- ------ ----- --- ---- ------- -- ---- --- --<br>------- ------,172417.0199999935,172416.5449999855,172062.733,172072.90999998804,172079.079,172428.816,,25,the
screen,html.Screen,2_1_1_1_26,2021-04-30T11:27:14.012Z,,,,,,,,,,,,,,,,,54,,,,,,,,,,,,,,315.73899998294655,,response,,,,100,,,,,,,Space,keypress(Space),,,,,,,,-- --- ---- --- ------ ----- ------- ---- -- --- ------- --<br>------- ---------- ------ -- ----- -- ----- -- ---- ------<br>--- ----- --- --- bonds' -------- ----- --- ------ ----- --<br>----- ----- ---------- --- --- ------ ------ ---- -- ------<br>------- --- ------ ----- --- ---- ------- -- ---- --- --<br>------- ------,172744.96999999974,172744.55499998294,172412.406,172417.12999995798,172428.816,172778.741,,26,bonds'
screen,html.Screen,2_1_1_1_27,2021-04-30T11:27:14.356Z,,,,,,,,,,,,,,,,,54,,,,,,,,,,,,,,309.8190000037721,,response,,,,100,,,,,,,Space,keypress(Space),,,,,,,,-- --- ---- --- ------ ----- ------- ---- -- --- ------- --<br>------- ---------- ------ -- ----- -- ----- -- ---- ------<br>--- ----- --- --- ------ interest ----- --- ------ ----- --<br>----- ----- ---------- --- --- ------ ------ ---- -- ------<br>------- --- ------ ----- --- ---- ------- -- ---- --- --<br>------- ------,173088.9549999847,173088.56000000378,172761.926,172745.0700000045,172778.741,173094.765,,27,interest
screen,html.Screen,2_1_1_1_28,2021-04-30T11:27:14.764Z,,,,,,,,,,,,,,,,,54,,,,,,,,,,,,,,401.52000000106636,,response,,,,100,,,,,,,Space,keypress(Space),,,,,,,,-- --- ---- --- ------ ----- ------- ---- -- --- ------- --<br>------- ---------- ------ -- ----- -- ----- -- ---- ------<br>--- ----- --- --- ------ -------- rate. --- ------ ----- --<br>----- ----- ---------- --- --- ------ ------ ---- -- ------<br>------- --- ------ ----- --- ---- ------- -- ---- --- --<br>------- ------,173496.74499995308,173496.28500000108,173078.581,173089.01499997592,173094.765,173511.092,,28,rate.
screen,html.Screen,2_1_1_1_29,2021-04-30T11:27:15.204Z,,,,,,,,,,,,,,,,,54,,,,,,,,,,,,,,425.54799997078953,,response,,,,100,,,,,,,Space,keypress(Space),,,,,,,,-- --- ---- --- ------ ----- ------- ---- -- --- ------- --<br>------- ---------- ------ -- ----- -- ----- -- ---- ------<br>--- ----- --- --- ------ -------- ----- The ------ ----- --<br>----- ----- ---------- --- --- ------ ------ ---- -- ------<br>------- --- ------ ----- --- ---- ------- -- ---- --- --<br>------- ------,173937.04999994952,173936.6399999708,173494.644,173496.82499998016,173511.092,173944.238,,29,The
screen,html.Screen,2_1_1_1_30,2021-04-30T11:27:15.604Z,,,,,,,,,,,,,,,,,54,,,,,,,,,,,,,,391.9469999637222,,response,,,,100,,,,,,,Space,keypress(Space),,,,,,,,-- --- ---- --- ------ ----- ------- ---- -- --- ------- --<br>------- ---------- ------ -- ----- -- ----- -- ---- ------<br>--- ----- --- --- ------ -------- ----- --- market ----- --<br>----- ----- ---------- --- --- ------ ------ ---- -- ------<br>------- --- ------ ----- --- ---- ------- -- ---- --- --<br>------- ------,174336.68999996735,174336.18499996373,173927.913,173937.13999999454,173944.238,174343.728,,30,market
screen,html.Screen,2_1_1_1_31,2021-04-30T11:27:16.012Z,,,,,,,,,,,,,,,,,54,,,,,,,,,,,,,,400.4669999774778,,response,,,,100,,,,,,,Space,keypress(Space),,,,,,,,-- --- ---- --- ------ ----- ------- ---- -- --- ------- --<br>------- ---------- ------ -- ----- -- ----- -- ---- ------<br>--- ----- --- --- ------ -------- ----- --- ------ value --<br>----- ----- ---------- --- --- ------ ------ ---- -- ------<br>------- --- ------ ----- --- ---- ------- -- ---- --- --<br>------- ------,174744.67499996535,174744.19499997748,174327.519,174336.77999995416,174343.728,174760.393,,31,value
screen,html.Screen,2_1_1_1_32,2021-04-30T11:27:16.428Z,,,,,,,,,,,,,,,,,54,,,,,,,,,,,,,,400.1319999556581,,response,,,,100,,,,,,,Space,keypress(Space),,,,,,,,-- --- ---- --- ------ ----- ------- ---- -- --- ------- --<br>------- ---------- ------ -- ----- -- ----- -- ---- ------<br>--- ----- --- --- ------ -------- ----- --- ------ ----- of<br>----- ----- ---------- --- --- ------ ------ ---- -- ------<br>------- --- ------ ----- --- ---- ------- -- ---- --- --<br>------- ------,175161.02499997942,175160.52499995567,174743.841,174744.73999999464,174760.393,175176.73,,32,of
screen,html.Screen,2_1_1_1_33,2021-04-30T11:27:16.772Z,,,,,,,,,,,,,,,,,54,,,,,,,,,,,,,,327.7799999988347,,response,,,,100,,,,,,,Space,keypress(Space),,,,,,,,-- --- ---- --- ------ ----- ------- ---- -- --- ------- --<br>------- ---------- ------ -- ----- -- ----- -- ---- ------<br>--- ----- --- --- ------ -------- ----- --- ------ ----- --<br>these ----- ---------- --- --- ------ ------ ---- -- ------<br>------- --- ------ ----- --- ---- ------- -- ---- --- --<br>------- ------,175504.95999999112,175504.50999999885,175160.134,175161.08499997063,175176.73,175509.499,,33,these
screen,html.Screen,2_1_1_1_34,2021-04-30T11:27:17.220Z,,,,,,,,,,,,,,,,,54,,,,,,,,,,,,,,442.93599998467835,,response,,,,100,,,,,,,Space,keypress(Space),,,,,,,,-- --- ---- --- ------ ----- ------- ---- -- --- ------- --<br>------- ---------- ------ -- ----- -- ----- -- ---- ------<br>--- ----- --- --- ------ -------- ----- --- ------ ----- --<br>----- bonds ---------- --- --- ------ ------ ---- -- ------<br>------- --- ------ ----- --- ---- ------- -- ---- --- --<br>------- ------,175952.91999995243,175952.4349999847,175492.889,175505.01500000246,175509.499,175959.084,,34,bonds
screen,html.Screen,2_1_1_1_35,2021-04-30T11:27:17.644Z,,,,,,,,,,,,,,,,,54,,,,,,,,,,,,,,417.3509999837552,,response,,,,100,,,,,,,Space,keypress(Space),,,,,,,,"-- --- ---- --- ------ ----- ------- ---- -- --- ------- --<br>------- ---------- ------ -- ----- -- ----- -- ---- ------<br>--- ----- --- --- ------ -------- ----- --- ------ ----- --<br>----- ----- plummeted, --- --- ------ ------ ---- -- ------<br>------- --- ------ ----- --- ---- ------- -- ---- --- --<br>------- ------",176376.89499999397,176376.43499998376,175942.879,175952.98000000184,175959.084,176392.147,,35,"plummeted,"
screen,html.Screen,2_1_1_1_36,2021-04-30T11:27:18.140Z,,,,,,,,,,,,,,,,,54,,,,,,,,,,,,,,480.38299999327864,,response,,,,100,,,,,,,Space,keypress(Space),,,,,,,,-- --- ---- --- ------ ----- ------- ---- -- --- ------- --<br>------- ---------- ------ -- ----- -- ----- -- ---- ------<br>--- ----- --- --- ------ -------- ----- --- ------ ----- --<br>----- ----- ---------- and --- ------ ------ ---- -- ------<br>------- --- ------ ----- --- ---- ------- -- ---- --- --<br>------- ------,176872.97999998555,176872.52999999328,176375.935,176376.9500000053,176392.147,176874.953,,36,and
screen,html.Screen,2_1_1_1_37,2021-04-30T11:27:18.524Z,,,,,,,,,,,,,,,,,54,,,,,,,,,,,,,,381.52699998181197,,response,,,,100,,,,,,,Space,keypress(Space),,,,,,,,-- --- ---- --- ------ ----- ------- ---- -- --- ------- --<br>------- ---------- ------ -- ----- -- ----- -- ---- ------<br>--- ----- --- --- ------ -------- ----- --- ------ ----- --<br>----- ----- ---------- --- the ------ ------ ---- -- ------<br>------- --- ------ ----- --- ---- ------- -- ---- --- --<br>------- ------,177256.92499999423,177256.47999998182,176858.785,176873.05499997456,176874.953,177275.173,,37,the
screen,html.Screen,2_1_1_1_38,2021-04-30T11:27:18.892Z,,,,,,,,,,,,,,,,,54,,,,,,,,,,,,,,349.2620000051684,,response,,,,100,,,,,,,Space,keypress(Space),,,,,,,,-- --- ---- --- ------ ----- ------- ---- -- --- ------- --<br>------- ---------- ------ -- ----- -- ----- -- ---- ------<br>--- ----- --- --- ------ -------- ----- --- ------ ----- --<br>----- ----- ---------- --- --- market ------ ---- -- ------<br>------- --- ------ ----- --- ---- ------- -- ---- --- --<br>------- ------,177624.8449999839,177624.43500000518,177241.822,177256.98000000557,177275.173,177641.041,,38,market
screen,html.Screen,2_1_1_1_39,2021-04-30T11:27:19.260Z,,,,,,,,,,,,,,,,,54,,,,,,,,,,,,,,351.4539999549452,,response,,,,100,,,,,,,Space,keypress(Space),,,,,,,,-- --- ---- --- ------ ----- ------- ---- -- --- ------- --<br>------- ---------- ------ -- ----- -- ----- -- ---- ------<br>--- ----- --- --- ------ -------- ----- --- ------ ----- --<br>----- ----- ---------- --- --- ------ became ---- -- ------<br>------- --- ------ ----- --- ---- ------- -- ---- --- --<br>------- ------,177992.9299999494,177992.49499995494,177624.776,177624.9700000044,177641.041,178007.733,,39,became
screen,html.Screen,2_1_1_1_40,2021-04-30T11:27:19.628Z,,,,,,,,,,,,,,,,,54,,,,,,,,,,,,,,352.4019999662414,,response,,,,100,,,,,,,Space,keypress(Space),,,,,,,,-- --- ---- --- ------ ----- ------- ---- -- --- ------- --<br>------- ---------- ------ -- ----- -- ----- -- ---- ------<br>--- ----- --- --- ------ -------- ----- --- ------ ----- --<br>----- ----- ---------- --- --- ------ ------ wary -- ------<br>------- --- ------ ----- --- ---- ------- -- ---- --- --<br>------- ------,178360.6049999944,178360.13499996625,177990.879,177992.98999999883,178007.733,178374.038,,40,wary
screen,html.Screen,2_1_1_1_41,2021-04-30T11:27:19.987Z,,,,,,,,,,,,,,,,,54,,,,,,,,,,,,,,346.1319999859552,,response,,,,100,,,,,,,Space,keypress(Space),,,,,,,,-- --- ---- --- ------ ----- ------- ---- -- --- ------- --<br>------- ---------- ------ -- ----- -- ----- -- ---- ------<br>--- ----- --- --- ------ -------- ----- --- ------ ----- --<br>----- ----- ---------- --- --- ------ ------ ---- of ------<br>------- --- ------ ----- --- ---- ------- -- ---- --- --<br>------- ------,178720.51999997348,178720.16999998596,178357.549,178360.6649999856,178374.038,178723.49,,41,of
screen,html.Screen,2_1_1_1_42,2021-04-30T11:27:20.348Z,,,,,,,,,,,,,,,,,54,,,,,,,,,,,,,,357.0449999573175,,response,,,,100,,,,,,,Space,keypress(Space),,,,,,,,-- --- ---- --- ------ ----- ------- ---- -- --- ------- --<br>------- ---------- ------ -- ----- -- ----- -- ---- ------<br>--- ----- --- --- ------ -------- ----- --- ------ ----- --<br>----- ----- ---------- --- --- ------ ------ ---- -- French<br>------- --- ------ ----- --- ---- ------- -- ---- --- --<br>------- ------,179080.94499999424,179080.5349999573,178707.23,178720.57999996468,178723.49,179089.951,,42,French
screen,html.Screen,2_1_1_1_43,2021-04-30T11:27:20.692Z,,,,,,,,,,,,,,,,,54,,,,,,,,,,,,,,334.23899999062996,,response,,,,100,,,,,,,Space,keypress(Space),,,,,,,,-- --- ---- --- ------ ----- ------- ---- -- --- ------- --<br>------- ---------- ------ -- ----- -- ----- -- ---- ------<br>--- ----- --- --- ------ -------- ----- --- ------ ----- --<br>----- ----- ---------- --- --- ------ ------ ---- -- ------<br>credit. --- ------ ----- --- ---- ------- -- ---- --- --<br>------- ------,179424.67999999644,179424.18999999063,179073.32,179081.02499996312,179089.951,179439.841,,43,credit.
screen,html.Screen,2_1_1_1_44,2021-04-30T11:27:21.116Z,,,,,,,,,,,,,,,,,54,,,,,,,,,,,,,,408.5439999611408,,response,,,,100,,,,,,,Space,keypress(Space),,,,,,,,-- --- ---- --- ------ ----- ------- ---- -- --- ------- --<br>------- ---------- ------ -- ----- -- ----- -- ---- ------<br>--- ----- --- --- ------ -------- ----- --- ------ ----- --<br>----- ----- ---------- --- --- ------ ------ ---- -- ------<br>------- The ------ ----- --- ---- ------- -- ---- --- --<br>------- ------,179848.78999996,179848.38499996113,179423.341,179424.75499998545,179439.841,179855.897,,44,The
screen,html.Screen,2_1_1_1_45,2021-04-30T11:27:21.484Z,,,,,,,,,,,,,,,,,54,,,,,,,,,,,,,,360.64799997385126,,response,,,,100,,,,,,,Space,keypress(Space),,,,,,,,-- --- ---- --- ------ ----- ------- ---- -- --- ------- --<br>------- ---------- ------ -- ----- -- ----- -- ---- ------<br>--- ----- --- --- ------ -------- ----- --- ------ ----- --<br>----- ----- ---------- --- --- ------ ------ ---- -- ------<br>------- --- French ----- --- ---- ------- -- ---- --- --<br>------- ------,180217.0299999998,180216.54499997385,179839.494,179848.880000005,179855.897,180222.207,,45,French
screen,html.Screen,2_1_1_1_46,2021-04-30T11:27:21.796Z,,,,,,,,,,,,,,,,,54,,,,,,,,,,,,,,306.31299999257317,,response,,,,100,,,,,,,Space,keypress(Space),,,,,,,,-- --- ---- --- ------ ----- ------- ---- -- --- ------- --<br>------- ---------- ------ -- ----- -- ----- -- ---- ------<br>--- ----- --- --- ------ -------- ----- --- ------ ----- --<br>----- ----- ---------- --- --- ------ ------ ---- -- ------<br>------- --- ------ state --- ---- ------- -- ---- --- --<br>------- ------,180528.95499998704,180528.51999999257,180206.018,180217.089999991,180222.207,180538.919,,46,state
screen,html.Screen,2_1_1_1_47,2021-04-30T11:27:22.140Z,,,,,,,,,,,,,,,,,54,,,,,,,,,,,,,,333.57099997974,,response,,,,100,,,,,,,Space,keypress(Space),,,,,,,,-- --- ---- --- ------ ----- ------- ---- -- --- ------- --<br>------- ---------- ------ -- ----- -- ----- -- ---- ------<br>--- ----- --- --- ------ -------- ----- --- ------ ----- --<br>----- ----- ---------- --- --- ------ ------ ---- -- ------<br>------- --- ------ ----- was ---- ------- -- ---- --- --<br>------- ------,180872.9549999698,180872.48999997973,180522.385,180529.02999997605,180538.919,180888.651,,47,was
screen,html.Screen,2_1_1_1_48,2021-04-30T11:27:22.451Z,,,,,,,,,,,,,,,,,54,,,,,,,,,,,,,,295.47399997065077,,response,,,,100,,,,,,,Space,keypress(Space),,,,,,,,-- --- ---- --- ------ ----- ------- ---- -- --- ------- --<br>------- ---------- ------ -- ----- -- ----- -- ---- ------<br>--- ----- --- --- ------ -------- ----- --- ------ ----- --<br>----- ----- ---------- --- --- ------ ------ ---- -- ------<br>------- --- ------ ----- --- left ------- -- ---- --- --<br>------- ------,181184.56999998307,181184.12499997066,180872.014,180873.02999995882,180888.651,181188.195,,48,left
screen,html.Screen,2_1_1_1_49,2021-04-30T11:27:22.803Z,,,,,,,,,,,,,,,,,54,,,,,,,,,,,,,,348.38499995629536,,response,,,,100,,,,,,,Space,keypress(Space),,,,,,,,-- --- ---- --- ------ ----- ------- ---- -- --- ------- --<br>------- ---------- ------ -- ----- -- ----- -- ---- ------<br>--- ----- --- --- ------ -------- ----- --- ------ ----- --<br>----- ----- ---------- --- --- ------ ------ ---- -- ------<br>------- --- ------ ----- --- ---- without -- ---- --- --<br>------- ------,181537.01999998884,181536.5799999563,181171.852,181184.65499999002,181188.195,181555.882,,49,without
screen,html.Screen,2_1_1_1_50,2021-04-30T11:27:23.131Z,,,,,,,,,,,,,,,,,54,,,,,,,,,,,,,,308.59299995118636,,response,,,,100,,,,,,,Space,keypress(Space),,,,,,,,-- --- ---- --- ------ ----- ------- ---- -- --- ------- --<br>------- ---------- ------ -- ----- -- ----- -- ---- ------<br>--- ----- --- --- ------ -------- ----- --- ------ ----- --<br>----- ----- ---------- --- --- ------ ------ ---- -- ------<br>------- --- ------ ----- --- ---- ------- an ---- --- --<br>------- ------,181864.9999999907,181864.4749999512,181521.289,181537.1049999958,181555.882,181870.966,,50,an
screen,html.Screen,2_1_1_1_51,2021-04-30T11:27:23.499Z,,,,,,,,,,,,,,,,,54,,,,,,,,,,,,,,361.5140000060492,,response,,,,100,,,,,,,Space,keypress(Space),,,,,,,,-- --- ---- --- ------ ----- ------- ---- -- --- ------- --<br>------- ---------- ------ -- ----- -- ----- -- ---- ------<br>--- ----- --- --- ------ -------- ----- --- ------ ----- --<br>----- ----- ---------- --- --- ------ ------ ---- -- ------<br>------- --- ------ ----- --- ---- ------- -- easy --- --<br>------- ------,182232.9299999983,182232.48000000603,181854.415,181865.1199999731,181870.966,182237.178,,51,easy
screen,html.Screen,2_1_1_1_52,2021-04-30T11:27:23.819Z,,,,,,,,,,,,,,,,,54,,,,,,,,,,,,,,315.30699999287026,,response,,,,100,,,,,,,Space,keypress(Space),,,,,,,,-- --- ---- --- ------ ----- ------- ---- -- --- ------- --<br>------- ---------- ------ -- ----- -- ----- -- ---- ------<br>--- ----- --- --- ------ -------- ----- --- ------ ----- --<br>----- ----- ---------- --- --- ------ ------ ---- -- ------<br>------- --- ------ ----- --- ---- ------- -- ---- way --<br>------- ------,182552.9749999987,182552.48499999288,182220.92,182232.99499996938,182237.178,182571.49,,52,way
screen,html.Screen,2_1_1_1_53,2021-04-30T11:27:24.203Z,,,,,,,,,,,,,,,,,54,,,,,,,,,,,,,,364.81999996094964,,response,,,,100,,,,,,,Space,keypress(Space),,,,,,,,-- --- ---- --- ------ ----- ------- ---- -- --- ------- --<br>------- ---------- ------ -- ----- -- ----- -- ---- ------<br>--- ----- --- --- ------ -------- ----- --- ------ ----- --<br>----- ----- ---------- --- --- ------ ------ ---- -- ------<br>------- --- ------ ----- --- ---- ------- -- ---- --- of<br>------- ------,182936.76499999128,182936.30999996094,182537.271,182553.0349999899,182571.49,182953.59,,53,of
screen,html.Screen,2_1_1_1_54,2021-04-30T11:27:24.571Z,,,,,,,,,,,,,,,,,54,,,,,,,,,,,,,,350.63999995062477,,response,,,,100,,,,,,,Space,keypress(Space),,,,,,,,-- --- ---- --- ------ ----- ------- ---- -- --- ------- --<br>------- ---------- ------ -- ----- -- ----- -- ---- ------<br>--- ----- --- --- ------ -------- ----- --- ------ ----- --<br>----- ----- ---------- --- --- ------ ------ ---- -- ------<br>------- --- ------ ----- --- ---- ------- -- ---- --- --<br>raising ------,183304.6650000033,183304.22999995062,182920.45,182936.8399999803,182953.59,183319.925,,54,raising
screen,html.Screen,2_1_1_1_55,2021-04-30T11:27:24.955Z,,,,,,,,,,,,,,,,,54,,,,,,,,,,,,,,368.31999996845843,,response,,,,100,,,,,,,Space,keypress(Space),,,,,,,,-- --- ---- --- ------ ----- ------- ---- -- --- ------- --<br>------- ---------- ------ -- ----- -- ----- -- ---- ------<br>--- ----- --- --- ------ -------- ----- --- ------ ----- --<br>----- ----- ---------- --- --- ------ ------ ---- -- ------<br>------- --- ------ ----- --- ---- ------- -- ---- --- --<br>------- money.,183688.6999999988,183688.24499996845,183303.212,183304.74999995204,183319.925,183702.668,,55,money.
Item 100,flow.Loop,2_1_1_1,2021-04-30T11:27:24.955Z,,,,,,,,,,,,,,,,,,,,,,,,,,,,,,,21234.406999968458,,completion,,,,,C,,,,,,,,,,,silence,,,,,183688.8199999812,183688.24499996845,162437.224,162437.7899999963,162453.838,183702.668,,,
Question 1,html.Screen,2_1_1_2,2021-04-30T11:27:27.450Z,,,,,,,,,,,,,,,,,,,,,,,,,,,,true,TRUE,,2480.84699998243,,response,,,,100,C,,,,,,TRUE,click #choice-1,,,,silence,,,,,186184.17500000214,186183.51499998244,183686.167,183688.90999996802,183702.668,186200.883,,,
Question 2,html.Screen,2_1_1_3,2021-04-30T11:27:29.251Z,,,,,,,,,,,,,,,,,,,,,,,,,,,,false,FALSE,,1783.0269999517186,,response,,,,100,C,,,,,,TRUE,click #choice-1,,,,silence,,,,,187984.61499996483,187983.90999995172,186167.683,186184.27499994868,186200.883,187999.458,,,
Item 100,flow.Sequence,2_1_1,2021-04-30T11:27:29.251Z,,,,,,,,,,,,,,,,,,,,,,,,,,,,,,,35522.05799995171,,completion,,,,,,,,,,,,,,,,,,,,,187984.77999999886,187983.90999995172,152445.192,152448.71999998577,152461.852,187999.458,,,
End of Practice,html.Page,2_1_2,2021-04-30T11:27:33.035Z,,,,,,,,,,,,,,,,,,,,,,,,,,,,,,,3769.131999992387,,form submission,,,,,,,,,,,,,,,,,,,,,191768.71999999275,191768.5899999924,187982.59,187984.8199999542,187999.458,191779.504,,,
Practice,flow.Sequence,2_1,2021-04-30T11:27:33.035Z,,,,,,,,,,,,,,,,,,,,,,,,,,,,,,,77725.0809999924,,completion,,,,,,,,,,,,,,,,,,,,,191768.8349999953,191768.5899999924,114026.923,114041.06999997748,114043.509,191779.504,,,
Trap_instruction,html.Page,2_2_0,2021-04-30T11:27:35.115Z,,,,,,,,,,,,,,,,,,,,,,,,,,,,,,,2069.090999988577,,form submission,,,,,,,,,,,,,,,,,,,,,193848.74499996658,193848.59499998856,191762.767,191768.91499996418,191779.504,193861.072,,,
trap_trial,html.Screen,2_2_1,2021-04-30T11:27:38.139Z,,,,,,,,,,,,,,,,,,,,,,,,,,,,true,1,,3010.867999982729,,response,,,,,,,,,,,1,click #choice-1,,,,,,,,,196872.57999996655,196871.93999998271,193844.356,193848.8499999512,193861.072,196875.2,,,
end of trap trial,html.Page,2_2_2,2021-04-30T11:27:44.403Z,,,,,,,,,,,,,,,,,,,,,,,,,,,,,,,6261.219999995257,,form submission,,,,,,,,,,,,,,,,,,,,,203136.56499999342,203136.41999999527,196858.539,196872.73000000278,196875.2,203154.114,,,
Trap 1,flow.Sequence,2_2,2021-04-30T11:27:44.403Z,,,,,,,,,,,,,,,,,,,,,,,,,,,,,,,11356.915999995283,,completion,,,,,,,,,,,,,,,,,,,,,203136.67999999598,203136.41999999527,191762.767,191768.8949999865,191779.504,203154.114,,,
Standby,html.Page,2_3_0,2021-04-30T11:27:52.397Z,,,,,,,,,,,,,,,,,,,,,,,,,,,,,,,7992.888999999996,,timeout,,,,,,,,,,,,,,,,,,,,,211130.9599999804,211130.35,203120.334,203136.73999998719,203154.114,211147.003,,,
Holding screen,html.Screen,2_3_1_0_0,2021-04-30T11:27:59.391Z,,,,,,,,,,,,,,,,,,,,,,,,,,,,,,,6993.953999999998,,timeout,,,,,,,,,,,,,,,,,,,,,218124.7849999927,218124.348,211130.35,211131.07499998296,211147.003,218140.957,,,
screen,html.Screen,2_3_1_0_1_0,2021-04-30T11:28:00.204Z,,,,,,,,,,,,,,,,,2,,,,,,,,,,,,,,795.8679999824963,,response,,,,1,C,,,,,,Space,keypress(Space),,,,instrumental,,,,Two ---- ------ --- ------- ---------- ------- ----------<br>--- --------- --- ----------- ------- ----- ------- ---<br>--------- ---- -- --- ---- -- --------- -- ---- -------<br>-- --------- ------ --- ----- ------ ---- --- --------- --<br>------ - ---- -- --- ----------- ------- ---- ----- -----<br>--- -------- - ------ ---- -- ----- ---- --- --- -----------<br>-- -------,218937.29499995243,218936.8249999825,218124.348,218124.87999995938,218140.957,218940.441,,0,Two
screen,html.Screen,2_3_1_0_1_1,2021-04-30T11:28:00.595Z,,,,,,,,,,,,,,,,,2,,,,,,,,,,,,,,388.16899996774737,,response,,,,1,C,,,,,,Space,keypress(Space),,,,instrumental,,,,--- days ------ --- ------- ---------- ------- ----------<br>--- --------- --- ----------- ------- ----- ------- ---<br>--------- ---- -- --- ---- -- --------- -- ---- -------<br>-- --------- ------ --- ----- ------ ---- --- --------- --<br>------ - ---- -- --- ----------- ------- ---- ----- -----<br>--- -------- - ------ ---- -- ----- ---- --- --- -----------<br>-- -------,219329.03500000248,219328.60999996774,218923.778,218937.3749999795,218940.441,219340.272,,1,days
screen,html.Screen,2_3_1_0_1_2,2021-04-30T11:28:00.987Z,,,,,,,,,,,,,,,,,2,,,,,,,,,,,,,,380.37799997383263,,response,,,,1,C,,,,,,Space,keypress(Space),,,,instrumental,,,,"--- ---- later, --- ------- ---------- ------- ----------<br>--- --------- --- ----------- ------- ----- ------- ---<br>--------- ---- -- --- ---- -- --------- -- ---- -------<br>-- --------- ------ --- ----- ------ ---- --- --------- --<br>------ - ---- -- --- ----------- ------- ---- ----- -----<br>--- -------- - ------ ---- -- ----- ---- --- --- -----------<br>-- -------",219721.07999998843,219720.64999997383,219323.657,219329.0899999556,219340.272,219722.955,,2,"later,"
screen,html.Screen,2_3_1_0_1_3,2021-04-30T11:28:01.379Z,,,,,,,,,,,,,,,,,2,,,,,,,,,,,,,,389.37499997447594,,response,,,,1,C,,,,,,Space,keypress(Space),,,,instrumental,,,,--- ---- ------ the ------- ---------- ------- ----------<br>--- --------- --- ----------- ------- ----- ------- ---<br>--------- ---- -- --- ---- -- --------- -- ---- -------<br>-- --------- ------ --- ----- ------ ---- --- --------- --<br>------ - ---- -- --- ----------- ------- ---- ----- -----<br>--- -------- - ------ ---- -- ----- ---- --- --- -----------<br>-- -------,220112.79499996454,220112.32999997446,219706.724,219721.13999997964,219722.955,220122.771,,3,the
screen,html.Screen,2_3_1_0_1_4,2021-04-30T11:28:01.579Z,,,,,,,,,,,,,,,,,2,,,,,,,,,,,,,,189.71400000219,,response,,,,1,C,,,,,,Space,keypress(Space),,,,instrumental,,,,--- ---- ------ --- British ---------- ------- ----------<br>--- --------- --- ----------- ------- ----- ------- ---<br>--------- ---- -- --- ---- -- --------- -- ---- -------<br>-- --------- ------ --- ----- ------ ---- --- --------- --<br>------ - ---- -- --- ----------- ------- ---- ----- -----<br>--- -------- - ------ ---- -- ----- ---- --- --- -----------<br>-- -------,220312.96499999007,220312.4850000022,220106.173,220112.85499995574,220122.771,220322.618,,4,British
screen,html.Screen,2_3_1_0_1_5,2021-04-30T11:28:02.092Z,,,,,,,,,,,,,,,,,2,,,,,,,,,,,,,,502.15699998641503,,response,,,,1,C,,,,,,Space,keypress(Space),,,,instrumental,,,,--- ---- ------ --- ------- astronomer ------- ----------<br>--- --------- --- ----------- ------- ----- ------- ---<br>--------- ---- -- --- ---- -- --------- -- ---- -------<br>-- --------- ------ --- ----- ------ ---- --- --------- --<br>------ - ---- -- --- ----------- ------- ---- ----- -----<br>--- -------- - ------ ---- -- ----- ---- --- --- -----------<br>-- -------,220825.25499997428,220824.7749999864,220306.199,220313.02999996115,220322.618,220838.874,,5,astronomer
screen,html.Screen,2_3_1_0_1_6,2021-04-30T11:28:02.435Z,,,,,,,,,,,,,,,,,2,,,,,,,,,,,,,,329.68599996186094,,response,,,,1,C,,,,,,Space,keypress(Space),,,,instrumental,,,,--- ---- ------ --- ------- ---------- Richard ----------<br>--- --------- --- ----------- ------- ----- ------- ---<br>--------- ---- -- --- ---- -- --------- -- ---- -------<br>-- --------- ------ --- ----- ------ ---- --- --------- --<br>------ - ---- -- --- ----------- ------- ---- ----- -----<br>--- -------- - ------ ---- -- ----- ---- --- --- -----------<br>-- -------,221169.00499997428,221168.55999996187,220822.325,220825.31499996549,220838.874,221171.774,,6,Richard
screen,html.Screen,2_3_1_0_1_7,2021-04-30T11:28:02.859Z,,,,,,,,,,,,,,,,,2,,,,,,,,,,,,,,420.8709999678831,,response,,,,1,C,,,,,,Space,keypress(Space),,,,instrumental,,,,--- ---- ------ --- ------- ---------- ------- Carrington<br>--- --------- --- ----------- ------- ----- ------- ---<br>--------- ---- -- --- ---- -- --------- -- ---- -------<br>-- --------- ------ --- ----- ------ ---- --- --------- --<br>------ - ---- -- --- ----------- ------- ---- ----- -----<br>--- -------- - ------ ---- -- ----- ---- --- --- -----------<br>-- -------,221593.07000000263,221592.6449999679,221155.48,221169.06499996549,221171.774,221604.829,,7,Carrington
screen,html.Screen,2_3_1_0_1_8,2021-04-30T11:28:03.243Z,,,,,,,,,,,,,,,,,2,,,,,,,,,,,,,,371.59600000074715,,response,,,,1,C,,,,,,Space,keypress(Space),,,,instrumental,,,,--- ---- ------ --- ------- ---------- ------- ----------<br>was --------- --- ----------- ------- ----- ------- ---<br>--------- ---- -- --- ---- -- --------- -- ---- -------<br>-- --------- ------ --- ----- ------ ---- --- --------- --<br>------ - ---- -- --- ----------- ------- ---- ----- -----<br>--- -------- - ------ ---- -- ----- ---- --- --- -----------<br>-- -------,221976.90999996848,221976.42500000075,221588.553,221593.1649999693,221604.829,221987.872,,8,was
screen,html.Screen,2_3_1_0_1_9,2021-04-30T11:28:03.635Z,,,,,,,,,,,,,,,,,2,,,,,,,,,,,,,,380.68799997351016,,response,,,,1,C,,,,,,Space,keypress(Space),,,,instrumental,,,,--- ---- ------ --- ------- ---------- ------- ----------<br>--- observing --- ----------- ------- ----- ------- ---<br>--------- ---- -- --- ---- -- --------- -- ---- -------<br>-- --------- ------ --- ----- ------ ---- --- --------- --<br>------ - ---- -- --- ----------- ------- ---- ----- -----<br>--- -------- - ------ ---- -- ----- ---- --- --- -----------<br>-- -------,222368.97999997018,222368.5599999735,221971.389,221976.97999997763,221987.872,222370.767,,9,observing
screen,html.Screen,2_3_1_0_1_10,2021-04-30T11:28:03.947Z,,,,,,,,,,,,,,,,,2,,,,,,,,,,,,,,309.8579999790527,,response,,,,1,C,,,,,,Space,keypress(Space),,,,instrumental,,,,--- ---- ------ --- ------- ---------- ------- ----------<br>--- --------- the ----------- ------- ----- ------- ---<br>--------- ---- -- --- ---- -- --------- -- ---- -------<br>-- --------- ------ --- ----- ------ ---- --- --------- --<br>------ - ---- -- --- ----------- ------- ---- ----- -----<br>--- -------- - ------ ---- -- ----- ---- --- --- -----------<br>-- -------,222681.0449999757,222680.62499997905,222354.527,222369.05999999726,222370.767,222687.344,,10,the
screen,html.Screen,2_3_1_0_1_11,2021-04-30T11:28:04.619Z,,,,,,,,,,,,,,,,,2,,,,,,,,,,,,,,665.225999988179,,response,,,,1,C,,,,,,Space,keypress(Space),,,,instrumental,,,,--- ---- ------ --- ------- ---------- ------- ----------<br>--- --------- --- interesting ------- ----- ------- ---<br>--------- ---- -- --- ---- -- --------- -- ---- -------<br>-- --------- ------ --- ----- ------ ---- --- --------- --<br>------ - ---- -- --- ----------- ------- ---- ----- -----<br>--- -------- - ------ ---- -- ----- ---- --- --- -----------<br>-- -------,223353.03999995813,223352.5699999882,222670.655,222681.09999998705,222687.344,223370.383,,11,interesting
screen,html.Screen,2_3_1_0_1_12,2021-04-30T11:28:05.035Z,,,,,,,,,,,,,,,,,2,,,,,,,,,,,,,,398.11199996751384,,response,,,,1,C,,,,,,Space,keypress(Space),,,,instrumental,,,,--- ---- ------ --- ------- ---------- ------- ----------<br>--- --------- --- ----------- sunspot ----- ------- ---<br>--------- ---- -- --- ---- -- --------- -- ---- -------<br>-- --------- ------ --- ----- ------ ---- --- --------- --<br>------ - ---- -- --- ----------- ------- ---- ----- -----<br>--- -------- - ------ ---- -- ----- ---- --- --- -----------<br>-- -------,223768.93500000006,223768.49499996752,223336.921,223353.09999994934,223370.383,223793.339,,12,sunspot
screen,html.Screen,2_3_1_0_1_13,2021-04-30T11:28:05.499Z,,,,,,,,,,,,,,,,,2,,,,,,,,,,,,,,439.3209999796527,,response,,,,1,C,,,,,,Space,keypress(Space),,,,instrumental,,,,--- ---- ------ --- ------- ---------- ------- ----------<br>--- --------- --- ----------- ------- group ------- ---<br>--------- ---- -- --- ---- -- --------- -- ---- -------<br>-- --------- ------ --- ----- ------ ---- --- --------- --<br>------ - ---- -- --- ----------- ------- ---- ----- -----<br>--- -------- - ------ ---- -- ----- ---- --- --- -----------<br>-- -------,224233.05999999866,224232.65999997966,223753.354,223768.99999997113,223793.339,224236.036,,13,group
screen,html.Screen,2_3_1_0_1_14,2021-04-30T11:28:05.931Z,,,,,,,,,,,,,,,,,2,,,,,,,,,,,,,,428.0089999831689,,response,,,,1,C,,,,,,Space,keypress(Space),,,,instrumental,,,,--- ---- ------ --- ------- ---------- ------- ----------<br>--- --------- --- ----------- ------- ----- through ---<br>--------- ---- -- --- ---- -- --------- -- ---- -------<br>-- --------- ------ --- ----- ------ ---- --- --------- --<br>------ - ---- -- --- ----------- ------- ---- ----- -----<br>--- -------- - ------ ---- -- ----- ---- --- --- -----------<br>-- -------,224664.40999996848,224664.04499998316,224219.756,224233.12499996973,224236.036,224668.864,,14,through
screen,html.Screen,2_3_1_0_1_15,2021-04-30T11:28:06.331Z,,,,,,,,,,,,,,,,,2,,,,,,,,,,,,,,395.8209999902756,,response,,,,1,C,,,,,,Space,keypress(Space),,,,instrumental,,,,--- ---- ------ --- ------- ---------- ------- ----------<br>--- --------- --- ----------- ------- ----- ------- his<br>--------- ---- -- --- ---- -- --------- -- ---- -------<br>-- --------- ------ --- ----- ------ ---- --- --------- --<br>------ - ---- -- --- ----------- ------- ---- ----- -----<br>--- -------- - ------ ---- -- ----- ---- --- --- -----------<br>-- -------,225065.05999999354,225064.68499999028,224652.409,224664.4699999597,224668.864,225068.732,,15,his
screen,html.Screen,2_3_1_0_1_16,2021-04-30T11:28:06.731Z,,,,,,,,,,,,,,,,,2,,,,,,,,,,,,,,395.7029999725928,,response,,,,1,C,,,,,,Space,keypress(Space),,,,instrumental,,,,--- ---- ------ --- ------- ---------- ------- ----------<br>--- --------- --- ----------- ------- ----- ------- ---<br>telescope ---- -- --- ---- -- --------- -- ---- -------<br>-- --------- ------ --- ----- ------ ---- --- --------- --<br>------ - ---- -- --- ----------- ------- ---- ----- -----<br>--- -------- - ------ ---- -- ----- ---- --- --- -----------<br>-- -------,225465.00500000548,225464.43499997258,225052.154,225065.13499998255,225068.732,225468.258,,16,telescope
screen,html.Screen,2_3_1_0_1_17,2021-04-30T11:28:07.163Z,,,,,,,,,,,,,,,,,2,,,,,,,,,,,,,,428.156999966508,,response,,,,1,C,,,,,,Space,keypress(Space),,,,instrumental,,,,--- ---- ------ --- ------- ---------- ------- ----------<br>--- --------- --- ----------- ------- ----- ------- ---<br>--------- when -- --- ---- -- --------- -- ---- -------<br>-- --------- ------ --- ----- ------ ---- --- --------- --<br>------ - ---- -- --- ----------- ------- ---- ----- -----<br>--- -------- - ------ ---- -- ----- ---- --- --- -----------<br>-- -------,225896.88499999465,225896.4149999665,225452.066,225465.0599999586,225468.258,225901.338,,17,when
screen,html.Screen,2_3_1_0_1_18,2021-04-30T11:28:07.531Z,,,,,,,,,,,,,,,,,2,,,,,,,,,,,,,,363.1069999788888,,response,,,,1,C,,,,,,Space,keypress(Space),,,,instrumental,,,,--- ---- ------ --- ------- ---------- ------- ----------<br>--- --------- --- ----------- ------- ----- ------- ---<br>--------- ---- he --- ---- -- --------- -- ---- -------<br>-- --------- ------ --- ----- ------ ---- --- --------- --<br>------ - ---- -- --- ----------- ------- ---- ----- -----<br>--- -------- - ------ ---- -- ----- ---- --- --- -----------<br>-- -------,226264.8849999532,226264.44499997888,225884.918,225896.94499998586,225901.338,226267.605,,18,he
screen,html.Screen,2_3_1_0_1_19,2021-04-30T11:28:07.859Z,,,,,,,,,,,,,,,,,2,,,,,,,,,,,,,,324.9649999788671,,response,,,,1,C,,,,,,Space,keypress(Space),,,,instrumental,,,,--- ---- ------ --- ------- ---------- ------- ----------<br>--- --------- --- ----------- ------- ----- ------- ---<br>--------- ---- -- saw ---- -- --------- -- ---- -------<br>-- --------- ------ --- ----- ------ ---- --- --------- --<br>------ - ---- -- --- ----------- ------- ---- ----- -----<br>--- -------- - ------ ---- -- ----- ---- --- --- -----------<br>-- -------,226592.9949999554,226592.56999997888,226251.019,226264.94500000263,226267.605,226600.813,,19,saw
screen,html.Screen,2_3_1_0_1_20,2021-04-30T11:28:08.211Z,,,,,,,,,,,,,,,,,2,,,,,,,,,,,,,,343.4769999558048,,response,,,,1,C,,,,,,Space,keypress(Space),,,,instrumental,,,,--- ---- ------ --- ------- ---------- ------- ----------<br>--- --------- --- ----------- ------- ----- ------- ---<br>--------- ---- -- --- what -- --------- -- ---- -------<br>-- --------- ------ --- ----- ------ ---- --- --------- --<br>------ - ---- -- --- ----------- ------- ---- ----- -----<br>--- -------- - ------ ---- -- ----- ---- --- --- -----------<br>-- -------,226944.70999995247,226944.2899999558,226584.424,226593.05500000482,226600.813,226950.359,,20,what
screen,html.Screen,2_3_1_0_1_21,2021-04-30T11:28:08.515Z,,,,,,,,,,,,,,,,,2,,,,,,,,,,,,,,298.1209999510902,,response,,,,1,C,,,,,,Space,keypress(Space),,,,instrumental,,,,--- ---- ------ --- ------- ---------- ------- ----------<br>--- --------- --- ----------- ------- ----- ------- ---<br>--------- ---- -- --- ---- he --------- -- ---- -------<br>-- --------- ------ --- ----- ------ ---- --- --------- --<br>------ - ---- -- --- ----------- ------- ---- ----- -----<br>--- -------- - ------ ---- -- ----- ---- --- --- -----------<br>-- -------,227248.91999998363,227248.4799999511,226933.792,226944.78499999968,226950.359,227273.424,,21,he
screen,html.Screen,2_3_1_0_1_22,2021-04-30T11:28:08.963Z,,,,,,,,,,,,,,,,,2,,,,,,,,,,,,,,423.1509999508271,,response,,,,1,C,,,,,,Space,keypress(Space),,,,instrumental,,,,--- ---- ------ --- ------- ---------- ------- ----------<br>--- --------- --- ----------- ------- ----- ------- ---<br>--------- ---- -- --- ---- -- described -- ---- -------<br>-- --------- ------ --- ----- ------ ---- --- --------- --<br>------ - ---- -- --- ----------- ------- ---- ----- -----<br>--- -------- - ------ ---- -- ----- ---- --- --- -----------<br>-- -------,227696.9950000057,227696.57499995083,227233.751,227248.97999997484,227273.424,227699.708,,22,described
screen,html.Screen,2_3_1_0_1_23,2021-04-30T11:28:09.299Z,,,,,,,,,,,,,,,,,2,,,,,,,,,,,,,,332.8719999991299,,response,,,,1,C,,,,,,Space,keypress(Space),,,,instrumental,,,,--- ---- ------ --- ------- ---------- ------- ----------<br>--- --------- --- ----------- ------- ----- ------- ---<br>--------- ---- -- --- ---- -- --------- as ---- -------<br>-- --------- ------ --- ----- ------ ---- --- --------- --<br>------ - ---- -- --- ----------- ------- ---- ----- -----<br>--- -------- - ------ ---- -- ----- ---- --- --- -----------<br>-- -------,228033.16499997163,228032.57999999914,227683.528,227697.0549999969,227699.708,228049.745,,23,as
screen,html.Screen,2_3_1_0_1_24,2021-04-30T11:28:09.643Z,,,,,,,,,,,,,,,,,2,,,,,,,,,,,,,,326.73999995703343,,response,,,,1,C,,,,,,Space,keypress(Space),,,,instrumental,,,,"--- ---- ------ --- ------- ---------- ------- ----------<br>--- --------- --- ----------- ------- ----- ------- ---<br>--------- ---- -- --- ---- -- --------- -- ""two -------<br>-- --------- ------ --- ----- ------ ---- --- --------- --<br>------ - ---- -- --- ----------- ------- ---- ----- -----<br>--- -------- - ------ ---- -- ----- ---- --- --- -----------<br>-- -------",228376.93999998737,228376.48499995703,228033.229,228033.2300000009,228049.745,228382.596,,24,"""two"
screen,html.Screen,2_3_1_0_1_25,2021-04-30T11:28:10.091Z,,,,,,,,,,,,,,,,,2,,,,,,,,,,,,,,442.11399995713145,,response,,,,1,C,,,,,,Space,keypress(Space),,,,instrumental,,,,--- ---- ------ --- ------- ---------- ------- ----------<br>--- --------- --- ----------- ------- ----- ------- ---<br>--------- ---- -- --- ---- -- --------- -- ---- patches<br>-- --------- ------ --- ----- ------ ---- --- --------- --<br>------ - ---- -- --- ----------- ------- ---- ----- -----<br>--- -------- - ------ ---- -- ----- ---- --- --- -----------<br>-- -------,228825.11999999406,228824.70999995712,228365.97,228376.99999997858,228382.596,228832.168,,25,patches
screen,html.Screen,2_3_1_0_1_26,2021-04-30T11:28:10.412Z,,,,,,,,,,,,,,,,,2,,,,,,,,,,,,,,312.6269999710494,,response,,,,1,C,,,,,,Space,keypress(Space),,,,instrumental,,,,--- ---- ------ --- ------- ---------- ------- ----------<br>--- --------- --- ----------- ------- ----- ------- ---<br>--------- ---- -- --- ---- -- --------- -- ---- -------<br>of --------- ------ --- ----- ------ ---- --- --------- --<br>------ - ---- -- --- ----------- ------- ---- ----- -----<br>--- -------- - ------ ---- -- ----- ---- --- --- -----------<br>-- -------,229145.29999997467,229144.79499997105,228815.637,228825.17999998527,228832.168,229148.595,,26,of
screen,html.Screen,2_3_1_0_1_27,2021-04-30T11:28:10.755Z,,,,,,,,,,,,,,,,,2,,,,,,,,,,,,,,340.0150000003341,,response,,,,1,C,,,,,,Space,keypress(Space),,,,instrumental,,,,--- ---- ------ --- ------- ---------- ------- ----------<br>--- --------- --- ----------- ------- ----- ------- ---<br>--------- ---- -- --- ---- -- --------- -- ---- -------<br>-- intensely ------ --- ----- ------ ---- --- --------- --<br>------ - ---- -- --- ----------- ------- ---- ----- -----<br>--- -------- - ------ ---- -- ----- ---- --- --- -----------<br>-- -------,229489.01999997906,229488.61000000034,229132.353,229145.35999996588,229148.595,229498.375,,27,intensely
screen,html.Screen,2_3_1_0_1_28,2021-04-30T11:28:11.123Z,,,,,,,,,,,,,,,,,2,,,,,,,,,,,,,,358.1800000057556,,response,,,,1,C,,,,,,Space,keypress(Space),,,,instrumental,,,,--- ---- ------ --- ------- ---------- ------- ----------<br>--- --------- --- ----------- ------- ----- ------- ---<br>--------- ---- -- --- ---- -- --------- -- ---- -------<br>-- --------- bright --- ----- ------ ---- --- --------- --<br>------ - ---- -- --- ----------- ------- ---- ----- -----<br>--- -------- - ------ ---- -- ----- ---- --- --- -----------<br>-- -------,229856.95499996655,229856.55500000576,229482.03,229489.0749999904,229498.375,229864.602,,28,bright
screen,html.Screen,2_3_1_0_1_29,2021-04-30T11:28:11.475Z,,,,,,,,,,,,,,,,,2,,,,,,,,,,,,,,343.5329999643727,,response,,,,1,C,,,,,,Space,keypress(Space),,,,instrumental,,,,--- ---- ------ --- ------- ---------- ------- ----------<br>--- --------- --- ----------- ------- ----- ------- ---<br>--------- ---- -- --- ---- -- --------- -- ---- -------<br>-- --------- ------ and ----- ------ ---- --- --------- --<br>------ - ---- -- --- ----------- ------- ---- ----- -----<br>--- -------- - ------ ---- -- ----- ---- --- --- -----------<br>-- -------,230208.61499995226,230208.1349999644,229848.336,229857.03499999363,229864.602,230214.254,,29,and
screen,html.Screen,2_3_1_0_1_30,2021-04-30T11:28:11.811Z,,,,,,,,,,,,,,,,,2,,,,,,,,,,,,,,330.4159999738622,,response,,,,1,C,,,,,,Space,keypress(Space),,,,instrumental,,,,--- ---- ------ --- ------- ---------- ------- ----------<br>--- --------- --- ----------- ------- ----- ------- ---<br>--------- ---- -- --- ---- -- --------- -- ---- -------<br>-- --------- ------ --- white ------ ---- --- --------- --<br>------ - ---- -- --- ----------- ------- ---- ----- -----<br>--- -------- - ------ ---- -- ----- ---- --- --- -----------<br>-- -------,230545.09999998845,230544.66999997385,230198.1,230208.69499997934,230214.254,230547.315,,30,white
screen,html.Screen,2_3_1_0_1_31,2021-04-30T11:28:12.163Z,,,,,,,,,,,,,,,,,2,,,,,,,,,,,,,,349.0799999888404,,response,,,,1,C,,,,,,Space,keypress(Space),,,,instrumental,,,,"--- ---- ------ --- ------- ---------- ------- ----------<br>--- --------- --- ----------- ------- ----- ------- ---<br>--------- ---- -- --- ---- -- --------- -- ---- -------<br>-- --------- ------ --- ----- light"" ---- --- --------- --<br>------ - ---- -- --- ----------- ------- ---- ----- -----<br>--- -------- - ------ ---- -- ----- ---- --- --- -----------<br>-- -------",230896.93499996793,230896.39499998884,230531.153,230545.17499997746,230547.315,230914.019,,31,"light"""
screen,html.Screen,2_3_1_0_1_32,2021-04-30T11:28:12.547Z,,,,,,,,,,,,,,,,,2,,,,,,,,,,,,,,366.5510000026261,,response,,,,1,C,,,,,,Space,keypress(Space),,,,instrumental,,,,--- ---- ------ --- ------- ---------- ------- ----------<br>--- --------- --- ----------- ------- ----- ------- ---<br>--------- ---- -- --- ---- -- --------- -- ---- -------<br>-- --------- ------ --- ----- ------ over --- --------- --<br>------ - ---- -- --- ----------- ------- ---- ----- -----<br>--- -------- - ------ ---- -- ----- ---- --- --- -----------<br>-- -------,231281.02499997476,231280.57000000263,230880.832,230896.9999999972,230914.019,231297.05,,32,over
screen,html.Screen,2_3_1_0_1_33,2021-04-30T11:28:12.827Z,,,,,,,,,,,,,,,,,2,,,,,,,,,,,,,,263.47999995882856,,response,,,,1,C,,,,,,Space,keypress(Space),,,,instrumental,,,,--- ---- ------ --- ------- ---------- ------- ----------<br>--- --------- --- ----------- ------- ----- ------- ---<br>--------- ---- -- --- ---- -- --------- -- ---- -------<br>-- --------- ------ --- ----- ------ ---- the --------- --<br>------ - ---- -- --- ----------- ------- ---- ----- -----<br>--- -------- - ------ ---- -- ----- ---- --- --- -----------<br>-- -------,231560.96499995328,231560.52999995882,231280.487,231281.08499996597,231297.05,231563.139,,33,the
screen,html.Screen,2_3_1_0_1_34,2021-04-30T11:28:13.195Z,,,,,,,,,,,,,,,,,2,,,,,,,,,,,,,,365.326000004512,,response,,,,1,C,,,,,,Space,keypress(Space),,,,instrumental,,,,--- ---- ------ --- ------- ---------- ------- ----------<br>--- --------- --- ----------- ------- ----- ------- ---<br>--------- ---- -- --- ---- -- --------- -- ---- -------<br>-- --------- ------ --- ----- ------ ---- --- sunspots. --<br>------ - ---- -- --- ----------- ------- ---- ----- -----<br>--- -------- - ------ ---- -- ----- ---- --- --- -----------<br>-- -------,231928.87000000337,231928.4650000045,231546.8,231561.04499998037,231563.139,231953.36,,34,sunspots.
screen,html.Screen,2_3_1_0_1_35,2021-04-30T11:28:13.563Z,,,,,,,,,,,,,,,,,2,,,,,,,,,,,,,,343.0449999718694,,response,,,,1,C,,,,,,Space,keypress(Space),,,,instrumental,,,,--- ---- ------ --- ------- ---------- ------- ----------<br>--- --------- --- ----------- ------- ----- ------- ---<br>--------- ---- -- --- ---- -- --------- -- ---- -------<br>-- --------- ------ --- ----- ------ ---- --- --------- He<br>------ - ---- -- --- ----------- ------- ---- ----- -----<br>--- -------- - ------ ---- -- ----- ---- --- --- -----------<br>-- -------,232296.86999996193,232296.40499997186,231913.157,231928.9399999543,231953.36,232312.881,,35,He
