sender,sender_type,sender_id,timestamp,meta,,Blues,Classical,Country,Dance,Electronic,Folk,Gospel,Hip-Hop,Jazz,Latin,Musical/Film,New-age,Pop,Prolific_id,Provo_ID,R&B,Rap,Reggae,Religious,Rock,Soul,Swing,Traditional,age,artist_name,correct,correctResponse,distraction,duration,education,ended_on,familiarity,gender,headphone_check_performance,item,list,music_frequency,offensiveness,pleasantness,position_correct,preference,response,response_action,snippet_file,song_name,song_rating,sound,stimulus_1,stimulus_2,stimulus_3,text,time_commit,time_end,time_render,time_run,time_show,time_switch,url,word,word_ID
Prolific ID,html.Form,0,2021-04-30T09:48:13.879Z,"{""labjs_version"":""20.2.2"",""labjs_build"":{""flavor"":""production"",""commit"":""a25486e0c714a0ae2ce03ff94b7bb6896854dcfa""},""location"":""https://run.pavlovia.org/mvasilev/prolific_music_b/"",""userAgent"":""Mozilla/5.0 (Windows NT 10.0; Win64; x64) AppleWebKit/537.36 (KHTML, like Gecko) Chrome/90.0.4430.93 Safari/537.36"",""platform"":""Win32"",""language"":""en-US"",""locale"":""en-US"",""timeZone"":""Europe/London"",""timezoneOffset"":-60,""screen_width"":1500,""screen_height"":1000,""scroll_width"":1500,""scroll_height"":810,""window_innerWidth"":1500,""window_innerHeight"":858,""devicePixelRatio"":2}",,,,,,,,,,,,,,,5eeceadb31f6fe0ca6323d90,,,,,,,,,,,,,,,6529.734999923072,,form submission,,,,,,,,,,,,,,,,,,,,,15032.305000000633,15031.774999923073,8465.252,8472.579999943264,8502.04,15060.075,{},,
Introduction,html.Screen,1_0,2021-04-30T09:48:28.752Z,,,,,,,,,,,,,,,,,,,,,,,,,,,,,,,14841.399999962374,,response,,,,,,,,,,,continue,click button,,,,,,,,,29905.554999946617,29901.474999962375,15021.78,15032.679999945685,15060.075,29920.784,,,
Volume calibration,html.Screen,1_1,2021-04-30T09:48:40.733Z,,,,,,,,,,,,,,,,,,,,,,,,,,,,,,,11959.650999940917,,response,,,,,,,,,,,continue,click button,,,,,,,,,41886.409999919124,41880.43499994092,29904.08,29905.744999996386,29920.784,41888.351,,,
Task instructions,html.Screen,1_2,2021-04-30T09:48:46.700Z,,,,,,,,,,,,,,,,,,,,,,,,,,,,,,,5963.378999994857,,response,,,,,,,,,,,continue,click button,,,,,,,,,47853.45499997493,47851.72999999486,41866.721,41886.49499998428,41888.351,47861.079,,,
Sounds,html.Screen,1_3_0_0,2021-04-30T09:48:50.944Z,,,,,,,,,,,,,,,,,,,,,,,,,,,,,,,4247.648000000001,,timeout,,,,,,,,,2,,,,,,,,I,S,O,,52097.53499994986,52091.715,47845.159,47853.634999948554,47861.079,52108.727,,,
Judgement,html.Screen,1_3_0_1,2021-04-30T09:48:52.698Z,,,,,,,,,,,,,,,,,,,,,,,,,,,,false,2,,1741.2129999855097,,response,,,,,,,,,2,,1,click #choice-1,,,,,I,S,O,,53851.61000001244,53849.93999998551,52091.715,52097.784999990836,52108.727,53855.302,,,
Trial,flow.Sequence,1_3_0,2021-04-30T09:48:52.699Z,,,,,,,,,,,,,,,,,,,,,,,,,,,,,,,5988.860999985511,,completion,,,,,,,,,2,,,,,,,,I,S,O,,53851.80499998387,53849.93999998551,47845.159,47853.59999991488,47861.079,53855.302,,,
Sounds,html.Screen,1_3_1_0,2021-04-30T09:48:56.940Z,,,,,,,,,,,,,,,,,,,,,,,,,,,,,,,4254.487999999998,,timeout,,,,,,,,,2,,,,,,,,O,S,I,,58093.664999934845,58093.144,53841.592,53851.900000008754,53855.302,58109.79,,,
Judgement,html.Screen,1_3_1_1,2021-04-30T09:48:57.366Z,,,,,,,,,,,,,,,,,,,,,,,,,,,,true,2,,407.55499994199636,,response,,,,,,,,,2,,2,click #choice-2,,,,,O,S,I,,58519.02499992866,58517.344999942,58093.144,58093.74499996193,58109.79,58523.074,,,
Trial,flow.Sequence,1_3_1,2021-04-30T09:48:57.366Z,,,,,,,,,,,,,,,,,,,,,,,,,,,,,,,4662.042999941994,,completion,,,,,,,,,2,,,,,,,,O,S,I,,58519.160000025295,58517.344999942,53841.592,53851.87000001315,53855.302,58523.074,,,
Sounds,html.Screen,1_3_2_0,2021-04-30T09:49:01.599Z,,,,,,,,,,,,,,,,,,,,,,,,,,,,,,,4244.909999999996,,timeout,,,,,,,,,1,,,,,,,,S,O,I,,62752.370000001974,62751.024,58509.78,58519.33499996085,58523.074,62767.984,,,
Judgement,html.Screen,1_3_2_1,2021-04-30T09:49:01.916Z,,,,,,,,,,,,,,,,,,,,,,,,,,,,true,1,,298.75100000033854,,response,,,,,,,,,1,,1,click #choice-1,,,,,S,O,I,,63068.92999995034,63066.735000000335,62751.024,62752.77000002097,62767.984,63082.937,,,
Trial,flow.Sequence,1_3_2,2021-04-30T09:49:01.916Z,,,,,,,,,,,,,,,,,,,,,,,,,,,,,,,4543.661000000335,,completion,,,,,,,,,1,,,,,,,,S,O,I,,63069.06999996863,63066.735000000335,58509.78,58519.30499996524,58523.074,63082.937,,,
Sounds,html.Screen,1_3_3_0,2021-04-30T09:49:06.159Z,,,,,,,,,,,,,,,,,,,,,,,,,,,,,,,4245.140000000007,,timeout,,,,,,,,,1,,,,,,,,S,I,O,,67312.67999997362,67311.274,63067.579,63069.159999955446,63082.937,67328.077,,,
Judgement,html.Screen,1_3_3_1,2021-04-30T09:49:06.307Z,,,,,,,,,,,,,,,,,,,,,,,,,,,,true,1,,131.24300002357631,,response,,,,,,,,,1,,1,click #choice-1,,,,,S,I,O,,67460.62999998685,67459.32000002358,67311.274,67313.03999992087,67328.077,67470.282,,,
Trial,flow.Sequence,1_3_3,2021-04-30T09:49:06.308Z,,,,,,,,,,,,,,,,,,,,,,,,,,,,,,,4376.383000023583,,completion,,,,,,,,,1,,,,,,,,S,I,O,,67460.78500000294,67459.32000002358,63067.579,63069.12999995984,63082.937,67470.282,,,
Sounds,html.Screen,1_3_4_0,2021-04-30T09:49:10.550Z,,,,,,,,,,,,,,,,,,,,,,,,,,,,,,,4248.488999999987,,timeout,,,,,,,,,3,,,,,,,,O,I,S,,71703.27499997802,71702.28,67444.725,67460.89500002563,67470.282,71718.771,,,
Judgement,html.Screen,1_3_4_1,2021-04-30T09:49:10.900Z,,,,,,,,,,,,,,,,,,,,,,,,,,,,true,3,,331.77400000552007,,response,,,,,,,,,3,,3,click #choice-3,,,,,O,I,S,,72053.1600000104,72050.54500000551,71702.28,71703.525000019,71718.771,72060.984,,,
Trial,flow.Sequence,1_3_4,2021-04-30T09:49:10.900Z,,,,,,,,,,,,,,,,,,,,,,,,,,,,,,,4580.263000005507,,completion,,,,,,,,,3,,,,,,,,O,I,S,,72053.47499996424,72050.54500000551,67444.725,67460.86499991361,67470.282,72060.984,,,
Sounds,html.Screen,1_3_5_0,2021-04-30T09:49:15.147Z,,,,,,,,,,,,,,,,,,,,,,,,,,,,,,,4255.567999999999,,timeout,,,,,,,,,3,,,,,,,,I,O,S,,76300.44499994256,76299.893,72035.59,72053.71000000741,72060.984,76316.552,,,
Judgement,html.Screen,1_3_5_1,2021-04-30T09:49:15.295Z,,,,,,,,,,,,,,,,,,,,,,,,,,,,true,3,,130.14299993324676,,response,,,,,,,,,3,,3,click #choice-3,,,,,I,O,S,,76448.45000002533,76446.69499993324,76299.893,76300.56499992497,76316.552,76454.239,,,
Trial,flow.Sequence,1_3_5,2021-04-30T09:49:15.295Z,,,,,,,,,,,,,,,,,,,,,,,,,,,,,,,4385.710999933246,,completion,,,,,,,,,3,,,,,,,,I,O,S,,76448.56499996968,76446.69499993324,72035.59,72053.6500000162,72060.984,76454.239,,,
Task,flow.Loop,1_3,2021-04-30T09:49:15.298Z,,,,,,,,,,,,,,,,,,,,,,,,,,,,,,,28585.615999933245,,completion,,,0.8333333333333334,,,,,,,,,,,,,,,,,,76451.44500001334,76446.69499993324,47845.159,47853.564999997616,47861.079,76454.239,,,
Trap,html.Screen,1_4,2021-04-30T09:49:15.299Z,,,,,,,,,,,,,,,,,,,,,,,,,,,,,,,NaN,,skipped,,,,,,,,,,,,,,,,,,,,,76452.24999997299,76446.69499993324,,76452.17499998398,,76454.239,,,
Thanks,html.Screen,1_5,2021-04-30T09:49:18.805Z,,,,,,,,,,,,,,,,,,,,,,,,,,,,,,,3501.660999942629,,response,,,,,,,,,,,continue,click button,,,,,,,,,79957.93499995489,79955.89999994263,76433.09,76452.33499992173,76454.239,82878.604,,,
Headphone screening,flow.Sequence,1,2021-04-30T09:49:18.805Z,,,,,,,,,,,,,,,,,,,,,,,,,,,,,,,64895.82499994263,,completion,,,,,,,,,,,,,,,,,,,,,79958.0549999373,79955.89999994263,15021.78,15032.629999914207,15060.075,82878.604,,,
Instructions,html.Page,2_0,2021-04-30T09:49:37.427Z,,,,,,,,,,,,,,,,,,,,,,,,,,,,,,,15700.995999939085,,form submission,,,,,,,,,,,,,,,,,,,,,98579.97500000056,98579.59999993909,82811.932,82808.07000002824,82878.604,98584.607,,,
Holding screen,html.Screen,2_1_0_0,2021-04-30T09:49:47.424Z,,,,,,,,,,,,,,,,,,,,,,,,,,,,,,,10007.262999999992,,timeout,,,,,,,,,,,,,,,,,,,,,108576.43000001553,108575.242,98563.996,98580.22000000346,98584.607,108591.87,,,
screen,html.Screen,2_1_0_1_0,2021-04-30T09:49:49.336Z,,,,,,,,,,,,,,,,,53,,,,,,,,,,,,,,1891.8200000227662,,response,,,,99,,,,,,,Space,keypress(Space),,,,,,,,When -- ----- -- ------ - ------- --- ----------<br>------------- ------ ------ ---- ---- ------- ----- -- ----<br>-------- ------- -- ---------- --- - --- ----- ----- ----<br>---- --- --- ----- --- ---- ---- ------- ----- ---- -------<br>--- --- -- ----- -- --- ---- -- --- ---- -- ------ ------<br>--- ----- -- ----,110489.14999992121,110483.69000002276,108575.242,108576.92000002135,108591.87,110519.782,,0,When
screen,html.Screen,2_1_0_1_1,2021-04-30T09:49:50.070Z,,,,,,,,,,,,,,,,,53,,,,,,,,,,,,,,702.0529999748105,,response,,,,99,,,,,,,Space,keypress(Space),,,,,,,,---- it ----- -- ------ - ------- --- ----------<br>------------- ------ ------ ---- ---- ------- ----- -- ----<br>-------- ------- -- ---------- --- - --- ----- ----- ----<br>---- --- --- ----- --- ---- ---- ------- ----- ---- -------<br>--- --- -- ----- -- --- ---- -- --- ---- -- ------ ------<br>--- ----- -- ----,111223.11000002082,111221.83499997482,110475.221,110489.56999997608,110519.782,111225.713,,1,it
screen,html.Screen,2_1_0_1_2,2021-04-30T09:49:50.533Z,,,,,,,,,,,,,,,,,53,,,,,,,,,,,,,,458.75699997831543,,response,,,,99,,,,,,,Space,keypress(Space),,,,,,,,---- -- comes -- ------ - ------- --- ----------<br>------------- ------ ------ ---- ---- ------- ----- -- ----<br>-------- ------- -- ---------- --- - --- ----- ----- ----<br>---- --- --- ----- --- ---- ---- ------- ----- ---- -------<br>--- --- -- ----- -- --- ---- -- --- ---- -- ------ ------<br>--- ----- -- ----,111685.79999997746,111684.46999997832,111208.136,111223.4499999322,111225.713,111717.216,,2,comes
screen,html.Screen,2_1_0_1_3,2021-04-30T09:49:50.891Z,,,,,,,,,,,,,,,,,53,,,,,,,,,,,,,,325.30400001724774,,response,,,,99,,,,,,,Space,keypress(Space),,,,,,,,---- -- ----- to ------ - ------- --- ----------<br>------------- ------ ------ ---- ---- ------- ----- -- ----<br>-------- ------- -- ---------- --- - --- ----- ----- ----<br>---- --- --- ----- --- ---- ---- ------- ----- ---- -------<br>--- --- -- ----- -- --- ---- -- --- ---- -- ------ ------<br>--- ----- -- ----,112043.82499994244,112042.52000001725,111676.012,111686.12500000745,111717.216,112077.076,,3,to
screen,html.Screen,2_1_0_1_4,2021-04-30T09:49:51.337Z,,,,,,,,,,,,,,,,,53,,,,,,,,,,,,,,412.32900000025984,,response,,,,99,,,,,,,Space,keypress(Space),,,,,,,,---- -- ----- -- having - ------- --- ----------<br>------------- ------ ------ ---- ---- ------- ----- -- ----<br>-------- ------- -- ---------- --- - --- ----- ----- ----<br>---- --- --- ----- --- ---- ---- ------- ----- ---- -------<br>--- --- -- ----- -- --- ---- -- --- ---- -- ------ ------<br>--- ----- -- ----,112490.00499991234,112489.40500000026,112038.049,112044.17000000831,112077.076,112515.232,,4,having
screen,html.Screen,2_1_0_1_5,2021-04-30T09:49:51.721Z,,,,,,,,,,,,,,,,,53,,,,,,,,,,,,,,357.7230000280106,,response,,,,99,,,,,,,Space,keypress(Space),,,,,,,,---- -- ----- -- ------ a ------- --- ----------<br>------------- ------ ------ ---- ---- ------- ----- -- ----<br>-------- ------- -- ---------- --- - --- ----- ----- ----<br>---- --- --- ----- --- ---- ---- ------- ----- ---- -------<br>--- --- -- ----- -- --- ---- -- --- ---- -- ------ ------<br>--- ----- -- ----,112874.1849999642,112872.95500002801,112479.385,112490.1049999753,112515.232,112906.915,,5,a
screen,html.Screen,2_1_0_1_6,2021-04-30T09:49:52.235Z,,,,,,,,,,,,,,,,,53,,,,,,,,,,,,,,479.6750000091706,,response,,,,99,,,,,,,Space,keypress(Space),,,,,,,,---- -- ----- -- ------ - lasting --- ----------<br>------------- ------ ------ ---- ---- ------- ----- -- ----<br>-------- ------- -- ---------- --- - --- ----- ----- ----<br>---- --- --- ----- --- ---- ---- ------- ----- ---- -------<br>--- --- -- ----- -- --- ---- -- --- ---- -- ------ ------<br>--- ----- -- ----,113387.96500000171,113386.59000000916,112874.914,112874.50999999419,112906.915,113423.054,,6,lasting
screen,html.Screen,2_1_0_1_7,2021-04-30T09:49:52.636Z,,,,,,,,,,,,,,,,,53,,,,,,,,,,,,,,364.911000024993,,response,,,,99,,,,,,,Space,keypress(Space),,,,,,,,---- -- ----- -- ------ - ------- and ----------<br>------------- ------ ------ ---- ---- ------- ----- -- ----<br>-------- ------- -- ---------- --- - --- ----- ----- ----<br>---- --- --- ----- --- ---- ---- ------- ----- ---- -------<br>--- --- -- ----- -- --- ---- -- --- ---- -- ------ ------<br>--- ----- -- ----,113788.47499995027,113787.965000025,113376.458,113388.33999994677,113423.054,113815.252,,7,and
screen,html.Screen,2_1_0_1_8,2021-04-30T09:49:53.095Z,,,,,,,,,,,,,,,,,53,,,,,,,,,,,,,,431.2429999703163,,response,,,,99,,,,,,,Space,keypress(Space),,,,,,,,---- -- ----- -- ------ - ------- --- fulfilling<br>------------- ------ ------ ---- ---- ------- ----- -- ----<br>-------- ------- -- ---------- --- - --- ----- ----- ----<br>---- --- --- ----- --- ---- ---- ------- ----- ---- -------<br>--- --- -- ----- -- --- ---- -- --- ---- -- ------ ------<br>--- ----- -- ----,114247.6950000273,114246.49499997031,113773.641,113788.57500001322,113815.252,114281.166,,8,fulfilling
screen,html.Screen,2_1_0_1_9,2021-04-30T09:49:53.530Z,,,,,,,,,,,,,,,,,53,,,,,,,,,,,,,,400.66400001590955,,response,,,,99,,,,,,,Space,keypress(Space),,,,,,,,"---- -- ----- -- ------ - ------- --- ----------<br>relationship, ------ ------ ---- ---- ------- ----- -- ----<br>-------- ------- -- ---------- --- - --- ----- ----- ----<br>---- --- --- ----- --- ---- ---- ------- ----- ---- -------<br>--- --- -- ----- -- --- ---- -- --- ---- -- ------ ------<br>--- ----- -- ----",114683.22000000626,114681.8300000159,114240.11,114248.01999994088,114281.166,114703.609,,9,"relationship,"
screen,html.Screen,2_1_0_1_10,2021-04-30T09:49:53.791Z,,,,,,,,,,,,,,,,,53,,,,,,,,,,,,,,239.48599999508588,,response,,,,99,,,,,,,Space,keypress(Space),,,,,,,,---- -- ----- -- ------ - ------- --- ----------<br>------------- common ------ ---- ---- ------- ----- -- ----<br>-------- ------- -- ---------- --- - --- ----- ----- ----<br>---- --- --- ----- --- ---- ---- ------- ----- ---- -------<br>--- --- -- ----- -- --- ---- -- --- ---- -- ------ ------<br>--- ----- -- ----,114944.31499997154,114943.09499999508,114683.221,114683.69999993593,114703.609,114968.577,,10,common
screen,html.Screen,2_1_0_1_11,2021-04-30T09:49:54.442Z,,,,,,,,,,,,,,,,,53,,,,,,,,,,,,,,624.7180000278604,,response,,,,99,,,,,,,Space,keypress(Space),,,,,,,,---- -- ----- -- ------ - ------- --- ----------<br>------------- ------ wisdom ---- ---- ------- ----- -- ----<br>-------- ------- -- ---------- --- - --- ----- ----- ----<br>---- --- --- ----- --- ---- ---- ------- ----- ---- -------<br>--- --- -- ----- -- --- ---- -- --- ---- -- ------ ------<br>--- ----- -- ----,115594.48500000872,115593.29500002787,114935.633,114944.64999996126,114968.577,115628.198,,11,wisdom
screen,html.Screen,2_1_0_1_12,2021-04-30T09:49:54.920Z,,,,,,,,,,,,,,,,,53,,,,,,,,,,,,,,443.73199997641495,,response,,,,99,,,,,,,Space,keypress(Space),,,,,,,,---- -- ----- -- ------ - ------- --- ----------<br>------------- ------ ------ says ---- ------- ----- -- ----<br>-------- ------- -- ---------- --- - --- ----- ----- ----<br>---- --- --- ----- --- ---- ---- ------- ----- ---- -------<br>--- --- -- ----- -- --- ---- -- --- ---- -- ------ ------<br>--- ----- -- ----,116072.47000001371,116071.92999997642,115579.944,115594.81999999844,115628.198,116100.984,,12,says
screen,html.Screen,2_1_0_1_13,2021-04-30T09:49:55.472Z,,,,,,,,,,,,,,,,,53,,,,,,,,,,,,,,522.7459999920684,,response,,,,99,,,,,,,Space,keypress(Space),,,,,,,,---- -- ----- -- ------ - ------- --- ----------<br>------------- ------ ------ ---- that ------- ----- -- ----<br>-------- ------- -- ---------- --- - --- ----- ----- ----<br>---- --- --- ----- --- ---- ---- ------- ----- ---- -------<br>--- --- -- ----- -- --- ---- -- --- ---- -- ------ ------<br>--- ----- -- ----,116624.86999994144,116623.72999999207,116063.376,116072.56999996025,116100.984,116636.118,,13,that
screen,html.Screen,2_1_0_1_14,2021-04-30T09:49:56.101Z,,,,,,,,,,,,,,,,,53,,,,,,,,,,,,,,617.1769999440439,,response,,,,99,,,,,,,Space,keypress(Space),,,,,,,,---- -- ----- -- ------ - ------- --- ----------<br>------------- ------ ------ ---- ---- feeling ----- -- ----<br>-------- ------- -- ---------- --- - --- ----- ----- ----<br>---- --- --- ----- --- ---- ---- ------- ----- ---- -------<br>--- --- -- ----- -- --- ---- -- --- ---- -- ------ ------<br>--- ----- -- ----,117254.06499998644,117253.29499994405,116624.158,116625.20999996923,116636.118,117273.736,,14,feeling
screen,html.Screen,2_1_0_1_15,2021-04-30T09:49:56.542Z,,,,,,,,,,,,,,,,,53,,,,,,,,,,,,,,421.01400002420996,,response,,,,99,,,,,,,Space,keypress(Space),,,,,,,,---- -- ----- -- ------ - ------- --- ----------<br>------------- ------ ------ ---- ---- ------- close -- ----<br>-------- ------- -- ---------- --- - --- ----- ----- ----<br>---- --- --- ----- --- ---- ---- ------- ----- ---- -------<br>--- --- -- ----- -- --- ---- -- --- ---- -- ------ ------<br>--- ----- -- ----,117695.22999995388,117694.75000002421,117252.837,117254.15499997325,117273.736,117717.552,,15,close
screen,html.Screen,2_1_0_1_16,2021-04-30T09:49:56.842Z,,,,,,,,,,,,,,,,,53,,,,,,,,,,,,,,276.7480000203068,,response,,,,99,,,,,,,Space,keypress(Space),,,,,,,,---- -- ----- -- ------ - ------- --- ----------<br>------------- ------ ------ ---- ---- ------- ----- to ----<br>-------- ------- -- ---------- --- - --- ----- ----- ----<br>---- --- --- ----- --- ---- ---- ------- ----- ---- -------<br>--- --- -- ----- -- --- ---- -- --- ---- -- ------ ------<br>--- ----- -- ----,117994.77999994997,117994.3000000203,117688.756,117695.3199999407,117717.552,118002.479,,16,to
screen,html.Screen,2_1_0_1_17,2021-04-30T09:49:57.300Z,,,,,,,,,,,,,,,,,53,,,,,,,,,,,,,,450.2159999853902,,response,,,,99,,,,,,,Space,keypress(Space),,,,,,,,---- -- ----- -- ------ - ------- --- ----------<br>------------- ------ ------ ---- ---- ------- ----- -- your<br>-------- ------- -- ---------- --- - --- ----- ----- ----<br>---- --- --- ----- --- ---- ---- ------- ----- ---- -------<br>--- --- -- ----- -- --- ---- -- --- ---- -- ------ ------<br>--- ----- -- ----,118453.22499994654,118452.6949999854,117980.041,117994.87499997485,118002.479,118486.535,,17,your
screen,html.Screen,2_1_0_1_18,2021-04-30T09:49:57.711Z,,,,,,,,,,,,,,,,,53,,,,,,,,,,,,,,376.69500001720735,,response,,,,99,,,,,,,Space,keypress(Space),,,,,,,,---- -- ----- -- ------ - ------- --- ----------<br>------------- ------ ------ ---- ---- ------- ----- -- ----<br>romantic ------- -- ---------- --- - --- ----- ----- ----<br>---- --- --- ----- --- ---- ---- ------- ----- ---- -------<br>--- --- -- ----- -- --- ---- -- --- ---- -- ------ ------<br>--- ----- -- ----,118864.37500000466,118863.23000001721,118452.43,118453.3400000073,118486.535,118898.3,,18,romantic
screen,html.Screen,2_1_0_1_19,2021-04-30T09:49:58.052Z,,,,,,,,,,,,,,,,,53,,,,,,,,,,,,,,304.9699999399454,,response,,,,99,,,,,,,Space,keypress(Space),,,,,,,,---- -- ----- -- ------ - ------- --- ----------<br>------------- ------ ------ ---- ---- ------- ----- -- ----<br>-------- partner -- ---------- --- - --- ----- ----- ----<br>---- --- --- ----- --- ---- ---- ------- ----- ---- -------<br>--- --- -- ----- -- --- ---- -- --- ---- -- ------ ------<br>--- ----- -- ----,119204.51999991201,119203.26999993995,118854.83,118864.69999991823,118898.3,119229.64,,19,partner
screen,html.Screen,2_1_0_1_20,2021-04-30T09:49:58.379Z,,,,,,,,,,,,,,,,,53,,,,,,,,,,,,,,301.4049999524286,,response,,,,99,,,,,,,Space,keypress(Space),,,,,,,,---- -- ----- -- ------ - ------- --- ----------<br>------------- ------ ------ ---- ---- ------- ----- -- ----<br>-------- ------- is ---------- --- - --- ----- ----- ----<br>---- --- --- ----- --- ---- ---- ------- ----- ---- -------<br>--- --- -- ----- -- --- ---- -- --- ---- -- ------ ------<br>--- ----- -- ----,119532.34999999404,119531.04499995243,119199.751,119204.87000001594,119229.64,119559.031,,20,is
screen,html.Screen,2_1_0_1_21,2021-04-30T09:49:58.750Z,,,,,,,,,,,,,,,,,53,,,,,,,,,,,,,,342.2339999931428,,response,,,,99,,,,,,,Space,keypress(Space),,,,,,,,---- -- ----- -- ------ - ------- --- ----------<br>------------- ------ ------ ---- ---- ------- ----- -- ----<br>-------- ------- -- paramount. --- - --- ----- ----- ----<br>---- --- --- ----- --- ---- ---- ------- ----- ---- -------<br>--- --- -- ----- -- --- ---- -- --- ---- -- ------ ------<br>--- ----- -- ----,119902.4849999696,119901.26499999315,119523.528,119532.67999994569,119559.031,119922.511,,21,paramount.
screen,html.Screen,2_1_0_1_22,2021-04-30T09:49:59.220Z,,,,,,,,,,,,,,,,,53,,,,,,,,,,,,,,449.57899996073684,,response,,,,99,,,,,,,Space,keypress(Space),,,,,,,,---- -- ----- -- ------ - ------- --- ----------<br>------------- ------ ------ ---- ---- ------- ----- -- ----<br>-------- ------- -- ---------- But - --- ----- ----- ----<br>---- --- --- ----- --- ---- ---- ------- ----- ---- -------<br>--- --- -- ----- -- --- ---- -- --- ---- -- ------ ------<br>--- ----- -- ----,120373.24999994598,120372.08999996074,119901.025,119902.80999999959,119922.511,120396.401,,22,But
screen,html.Screen,2_1_0_1_23,2021-04-30T09:49:59.581Z,,,,,,,,,,,,,,,,,53,,,,,,,,,,,,,,336.82399997448374,,response,,,,99,,,,,,,Space,keypress(Space),,,,,,,,---- -- ----- -- ------ - ------- --- ----------<br>------------- ------ ------ ---- ---- ------- ----- -- ----<br>-------- ------- -- ---------- --- a --- ----- ----- ----<br>---- --- --- ----- --- ---- ---- ------- ----- ---- -------<br>--- --- -- ----- -- --- ---- -- --- ---- -- ------ ------<br>--- ----- -- ----,120734.375,120733.22499997448,120371.317,120373.5849999357,120396.401,120749.258,,23,a
screen,html.Screen,2_1_0_1_24,2021-04-30T09:49:59.934Z,,,,,,,,,,,,,,,,,53,,,,,,,,,,,,,,336.24199992828653,,response,,,,99,,,,,,,Space,keypress(Space),,,,,,,,---- -- ----- -- ------ - ------- --- ----------<br>------------- ------ ------ ---- ---- ------- ----- -- ----<br>-------- ------- -- ---------- --- - new ----- ----- ----<br>---- --- --- ----- --- ---- ---- ------- ----- ---- -------<br>--- --- -- ----- -- --- ---- -- --- ---- -- ------ ------<br>--- ----- -- ----,121086.634999956,121085.49999992829,120725.675,120734.69999991357,120749.258,121109.155,,24,new
screen,html.Screen,2_1_0_1_25,2021-04-30T09:50:00.482Z,,,,,,,,,,,,,,,,,53,,,,,,,,,,,,,,524.8549999215466,,response,,,,99,,,,,,,Space,keypress(Space),,,,,,,,---- -- ----- -- ------ - ------- --- ----------<br>------------- ------ ------ ---- ---- ------- ----- -- ----<br>-------- ------- -- ---------- --- - --- study ----- ----<br>---- --- --- ----- --- ---- ---- ------- ----- ---- -------<br>--- --- -- ----- -- --- ---- -- --- ---- -- ------ ------<br>--- ----- -- ----,121634.6950000152,121634.00999992155,121082.459,121086.96999994572,121109.155,121661.408,,25,study
screen,html.Screen,2_1_0_1_26,2021-04-30T09:50:00.933Z,,,,,,,,,,,,,,,,,53,,,,,,,,,,,,,,424.1469999978435,,response,,,,99,,,,,,,Space,keypress(Space),,,,,,,,---- -- ----- -- ------ - ------- --- ----------<br>------------- ------ ------ ---- ---- ------- ----- -- ----<br>-------- ------- -- ---------- --- - --- ----- finds ----<br>---- --- --- ----- --- ---- ---- ------- ----- ---- -------<br>--- --- -- ----- -- --- ---- -- --- ---- -- ------ ------<br>--- ----- -- ----,122086.11499995459,122085.55499999784,121621.849,121634.79499996174,121661.408,122101.528,,26,finds
screen,html.Screen,2_1_0_1_27,2021-04-30T09:50:01.369Z,,,,,,,,,,,,,,,,,53,,,,,,,,,,,,,,418.5369999314862,,response,,,,99,,,,,,,Space,keypress(Space),,,,,,,,---- -- ----- -- ------ - ------- --- ----------<br>------------- ------ ------ ---- ---- ------- ----- -- ----<br>-------- ------- -- ---------- --- - --- ----- ----- that<br>---- --- --- ----- --- ---- ---- ------- ----- ---- -------<br>--- --- -- ----- -- --- ---- -- --- ---- -- ------ ------<br>--- ----- -- ----,122521.45499992184,122520.06499993149,122084.843,122086.23999997508,122101.528,122550.621,,27,that
screen,html.Screen,2_1_0_1_28,2021-04-30T09:50:01.757Z,,,,,,,,,,,,,,,,,53,,,,,,,,,,,,,,358.853999993109,,response,,,,99,,,,,,,Space,keypress(Space),,,,,,,,---- -- ----- -- ------ - ------- --- ----------<br>------------- ------ ------ ---- ---- ------- ----- -- ----<br>-------- ------- -- ---------- --- - --- ----- ----- ----<br>it's --- --- ----- --- ---- ---- ------- ----- ---- -------<br>--- --- -- ----- -- --- ---- -- --- ---- -- ------ ------<br>--- ----- -- ----,122910.0600000238,122909.47499999311,122518.452,122521.94499992765,122550.621,122943.623,,28,it's
screen,html.Screen,2_1_0_1_29,2021-04-30T09:50:02.236Z,,,,,,,,,,,,,,,,,53,,,,,,,,,,,,,,443.69699997980206,,response,,,,99,,,,,,,Space,keypress(Space),,,,,,,,---- -- ----- -- ------ - ------- --- ----------<br>------------- ------ ------ ---- ---- ------- ----- -- ----<br>-------- ------- -- ---------- --- - --- ----- ----- ----<br>---- not --- ----- --- ---- ---- ------- ----- ---- -------<br>--- --- -- ----- -- --- ---- -- --- ---- -- ------ ------<br>--- ----- -- ----,123388.48500000313,123387.31999997981,122907.252,122910.21499992348,122943.623,123417.706,,29,not
screen,html.Screen,2_1_0_1_30,2021-04-30T09:50:02.697Z,,,,,,,,,,,,,,,,,53,,,,,,,,,,,,,,431.13899991312064,,response,,,,99,,,,,,,Space,keypress(Space),,,,,,,,---- -- ----- -- ------ - ------- --- ----------<br>------------- ------ ------ ---- ---- ------- ----- -- ----<br>-------- ------- -- ---------- --- - --- ----- ----- ----<br>---- --- how ----- --- ---- ---- ------- ----- ---- -------<br>--- --- -- ----- -- --- ---- -- --- ---- -- ------ ------<br>--- ----- -- ----,123849.96499994304,123848.84499991313,123378.261,123388.81999999285,123417.706,123878.501,,30,how
screen,html.Screen,2_1_0_1_31,2021-04-30T09:50:03.094Z,,,,,,,,,,,,,,,,,53,,,,,,,,,,,,,,367.29399999526504,,response,,,,99,,,,,,,Space,keypress(Space),,,,,,,,---- -- ----- -- ------ - ------- --- ----------<br>------------- ------ ------ ---- ---- ------- ----- -- ----<br>-------- ------- -- ---------- --- - --- ----- ----- ----<br>---- --- --- close --- ---- ---- ------- ----- ---- -------<br>--- --- -- ----- -- --- ---- -- --- ---- -- ------ ------<br>--- ----- -- ----,124246.47000001278,124245.79499999527,123840.886,123850.29999993276,123878.501,124272.954,,31,close
screen,html.Screen,2_1_0_1_32,2021-04-30T09:50:03.450Z,,,,,,,,,,,,,,,,,53,,,,,,,,,,,,,,328.6609999341017,,response,,,,99,,,,,,,Space,keypress(Space),,,,,,,,---- -- ----- -- ------ - ------- --- ----------<br>------------- ------ ------ ---- ---- ------- ----- -- ----<br>-------- ------- -- ---------- --- - --- ----- ----- ----<br>---- --- --- ----- you ---- ---- ------- ----- ---- -------<br>--- --- -- ----- -- --- ---- -- --- ---- -- ------ ------<br>--- ----- -- ----,124602.80499991495,124601.6149999341,124235.626,124246.5899999952,124272.954,124622.802,,32,you
screen,html.Screen,2_1_0_1_33,2021-04-30T09:50:03.687Z,,,,,,,,,,,,,,,,,53,,,,,,,,,,,,,,215.63799996316084,,response,,,,99,,,,,,,Space,keypress(Space),,,,,,,,---- -- ----- -- ------ - ------- --- ----------<br>------------- ------ ------ ---- ---- ------- ----- -- ----<br>-------- ------- -- ---------- --- - --- ----- ----- ----<br>---- --- --- ----- --- feel ---- ------- ----- ---- -------<br>--- --- -- ----- -- --- ---- -- --- ---- -- ------ ------<br>--- ----- -- ----,124839.63499998208,124838.43999996316,124598.352,124603.13499998301,124622.802,124844.503,,33,feel
screen,html.Screen,2_1_0_1_34,2021-04-30T09:50:03.882Z,,,,,,,,,,,,,,,,,53,,,,,,,,,,,,,,188.80199993171846,,response,,,,99,,,,,,,Space,keypress(Space),,,,,,,,---- -- ----- -- ------ - ------- --- ----------<br>------------- ------ ------ ---- ---- ------- ----- -- ----<br>-------- ------- -- ---------- --- - --- ----- ----- ----<br>---- --- --- ----- --- ---- that ------- ----- ---- -------<br>--- --- -- ----- -- --- ---- -- --- ---- -- ------ ------<br>--- ----- -- ----,125034.89499993157,125033.30499993172,124838.378,124842.53999998327,124844.503,125063.724,,34,that
screen,html.Screen,2_1_0_1_35,2021-04-30T09:50:04.427Z,,,,,,,,,,,,,,,,,53,,,,,,,,,,,,,,514.9659999948199,,response,,,,99,,,,,,,Space,keypress(Space),,,,,,,,---- -- ----- -- ------ - ------- --- ----------<br>------------- ------ ------ ---- ---- ------- ----- -- ----<br>-------- ------- -- ---------- --- - --- ----- ----- ----<br>---- --- --- ----- --- ---- ---- matters ----- ---- -------<br>--- --- -- ----- -- --- ---- -- --- ---- -- ------ ------<br>--- ----- -- ----,125579.8599999398,125578.68999999482,125027.926,125035.21000000183,125063.724,125600.223,,35,matters
screen,html.Screen,2_1_0_1_36,2021-04-30T09:50:04.821Z,,,,,,,,,,,,,,,,,53,,,,,,,,,,,,,,372.8570000252221,,response,,,,99,,,,,,,Space,keypress(Space),,,,,,,,"---- -- ----- -- ------ - ------- --- ----------<br>------------- ------ ------ ---- ---- ------- ----- -- ----<br>-------- ------- -- ---------- --- - --- ----- ----- ----<br>---- --- --- ----- --- ---- ---- ------- most, ---- -------<br>--- --- -- ----- -- --- ---- -- --- ---- -- ------ ------<br>--- ----- -- ----",125974.25500000827,125973.08000002522,125570.591,125581.08499995433,125600.223,125999.401,,36,"most,"
screen,html.Screen,2_1_0_1_37,2021-04-30T09:50:05.295Z,,,,,,,,,,,,,,,,,53,,,,,,,,,,,,,,447.71900002619077,,response,,,,99,,,,,,,Space,keypress(Space),,,,,,,,---- -- ----- -- ------ - ------- --- ----------<br>------------- ------ ------ ---- ---- ------- ----- -- ----<br>-------- ------- -- ---------- --- - --- ----- ----- ----<br>---- --- --- ----- --- ---- ---- ------- ----- it's -------<br>--- --- -- ----- -- --- ---- -- --- ---- -- ------ ------<br>--- ----- -- ----,126447.73499993607,126447.12000002619,125966.313,125974.56499992404,125999.401,126475.219,,37,it's
screen,html.Screen,2_1_0_1_38,2021-04-30T09:50:06.218Z,,,,,,,,,,,,,,,,,53,,,,,,,,,,,,,,895.0110000004497,,response,,,,99,,,,,,,Space,keypress(Space),,,,,,,,---- -- ----- -- ------ - ------- --- ----------<br>------------- ------ ------ ---- ---- ------- ----- -- ----<br>-------- ------- -- ---------- --- - --- ----- ----- ----<br>---- --- --- ----- --- ---- ---- ------- ----- ---- whether<br>--- --- -- ----- -- --- ---- -- --- ---- -- ------ ------<br>--- ----- -- ----,127370.79499999527,127370.23000000045,126443.199,126447.8849999141,126475.219,127398.099,,38,whether
screen,html.Screen,2_1_0_1_39,2021-04-30T09:50:06.669Z,,,,,,,,,,,,,,,,,53,,,,,,,,,,,,,,422.47600001974206,,response,,,,99,,,,,,,Space,keypress(Space),,,,,,,,---- -- ----- -- ------ - ------- --- ----------<br>------------- ------ ------ ---- ---- ------- ----- -- ----<br>-------- ------- -- ---------- --- - --- ----- ----- ----<br>---- --- --- ----- --- ---- ---- ------- ----- ---- -------<br>you --- -- ----- -- --- ---- -- --- ---- -- ------ ------<br>--- ----- -- ----,127821.72499992885,127820.57500001974,127366.168,127370.91499997769,127398.099,127856.47,,39,you
screen,html.Screen,2_1_0_1_40,2021-04-30T09:50:06.942Z,,,,,,,,,,,,,,,,,53,,,,,,,,,,,,,,238.26000001162174,,response,,,,99,,,,,,,Space,keypress(Space),,,,,,,,---- -- ----- -- ------ - ------- --- ----------<br>------------- ------ ------ ---- ---- ------- ----- -- ----<br>-------- ------- -- ---------- --- - --- ----- ----- ----<br>---- --- --- ----- --- ---- ---- ------- ----- ---- -------<br>--- are -- ----- -- --- ---- -- --- ---- -- ------ ------<br>--- ----- -- ----,128095.35999991931,128094.73000001162,127822.196,127822.03499996103,127856.47,128098.647,,40,are
screen,html.Screen,2_1_0_1_41,2021-04-30T09:50:07.218Z,,,,,,,,,,,,,,,,,53,,,,,,,,,,,,,,271.9929999791784,,response,,,,99,,,,,,,Space,keypress(Space),,,,,,,,---- -- ----- -- ------ - ------- --- ----------<br>------------- ------ ------ ---- ---- ------- ----- -- ----<br>-------- ------- -- ---------- --- - --- ----- ----- ----<br>---- --- --- ----- --- ---- ---- ------- ----- ---- -------<br>--- --- as ----- -- --- ---- -- --- ---- -- ------ ------<br>--- ----- -- ----,128371.18499993812,128370.63999997918,128090.589,128095.47499998007,128098.647,128393.77,,41,as
screen,html.Screen,2_1_0_1_42,2021-04-30T09:50:07.634Z,,,,,,,,,,,,,,,,,53,,,,,,,,,,,,,,392.2849999168102,,response,,,,99,,,,,,,Space,keypress(Space),,,,,,,,---- -- ----- -- ------ - ------- --- ----------<br>------------- ------ ------ ---- ---- ------- ----- -- ----<br>-------- ------- -- ---------- --- - --- ----- ----- ----<br>---- --- --- ----- --- ---- ---- ------- ----- ---- -------<br>--- --- -- close -- --- ---- -- --- ---- -- ------ ------<br>--- ----- -- ----,128786.5499999607,128786.05499991681,128365.348,128371.28500000108,128393.77,128819.699,,42,close
screen,html.Screen,2_1_0_1_43,2021-04-30T09:50:08.010Z,,,,,,,,,,,,,,,,,53,,,,,,,,,,,,,,342.30599993283977,,response,,,,99,,,,,,,Space,keypress(Space),,,,,,,,---- -- ----- -- ------ - ------- --- ----------<br>------------- ------ ------ ---- ---- ------- ----- -- ----<br>-------- ------- -- ---------- --- - --- ----- ----- ----<br>---- --- --- ----- --- ---- ---- ------- ----- ---- -------<br>--- --- -- ----- as --- ---- -- --- ---- -- ------ ------<br>--- ----- -- ----,129163.23499998543,129162.00499993283,128772.505,128786.65999998339,128819.699,129165.41,,43,as
screen,html.Screen,2_1_0_1_44,2021-04-30T09:50:08.452Z,,,,,,,,,,,,,,,,,53,,,,,,,,,,,,,,437.88999995883205,,response,,,,99,,,,,,,Space,keypress(Space),,,,,,,,---- -- ----- -- ------ - ------- --- ----------<br>------------- ------ ------ ---- ---- ------- ----- -- ----<br>-------- ------- -- ---------- --- - --- ----- ----- ----<br>---- --- --- ----- --- ---- ---- ------- ----- ---- -------<br>--- --- -- ----- -- you ---- -- --- ---- -- ------ ------<br>--- ----- -- ----,129604.44000002462,129603.29999995884,129154.86,129163.59999997076,129165.41,129630.918,,44,you
screen,html.Screen,2_1_0_1_45,2021-04-30T09:50:08.760Z,,,,,,,,,,,,,,,,,53,,,,,,,,,,,,,,280.13699991680915,,response,,,,99,,,,,,,Space,keypress(Space),,,,,,,,---- -- ----- -- ------ - ------- --- ----------<br>------------- ------ ------ ---- ---- ------- ----- -- ----<br>-------- ------- -- ---------- --- - --- ----- ----- ----<br>---- --- --- ----- --- ---- ---- ------- ----- ---- -------<br>--- --- -- ----- -- --- want -- --- ---- -- ------ ------<br>--- ----- -- ----,129912.5500000082,129911.05499991681,129599.023,129604.779999936,129630.918,129943.355,,45,want
screen,html.Screen,2_1_0_1_46,2021-04-30T09:50:09.184Z,,,,,,,,,,,,,,,,,53,,,,,,,,,,,,,,391.88499992758443,,response,,,,99,,,,,,,Space,keypress(Space),,,,,,,,---- -- ----- -- ------ - ------- --- ----------<br>------------- ------ ------ ---- ---- ------- ----- -- ----<br>-------- ------- -- ---------- --- - --- ----- ----- ----<br>---- --- --- ----- --- ---- ---- ------- ----- ---- -------<br>--- --- -- ----- -- --- ---- to --- ---- -- ------ ------<br>--- ----- -- ----,130336.44500002265,130335.23999992758,129907.049,129912.99999994226,129943.355,130369.83,,46,to
screen,html.Screen,2_1_0_1_47,2021-04-30T09:50:09.551Z,,,,,,,,,,,,,,,,,53,,,,,,,,,,,,,,332.5649999129382,,response,,,,99,,,,,,,Space,keypress(Space),,,,,,,,"---- -- ----- -- ------ - ------- --- ----------<br>------------- ------ ------ ---- ---- ------- ----- -- ----<br>-------- ------- -- ---------- --- - --- ----- ----- ----<br>---- --- --- ----- --- ---- ---- ------- ----- ---- -------<br>--- --- -- ----- -- --- ---- -- be, ---- -- ------ ------<br>--- ----- -- ----",130703.70499999262,130702.39499991294,130331.3,130336.75000001676,130369.83,130705.838,,47,"be,"
screen,html.Screen,2_1_0_1_48,2021-04-30T09:50:09.959Z,,,,,,,,,,,,,,,,,53,,,,,,,,,,,,,,404.6669999896403,,response,,,,99,,,,,,,Space,keypress(Space),,,,,,,,---- -- ----- -- ------ - ------- --- ----------<br>------------- ------ ------ ---- ---- ------- ----- -- ----<br>-------- ------- -- ---------- --- - --- ----- ----- ----<br>---- --- --- ----- --- ---- ---- ------- ----- ---- -------<br>--- --- -- ----- -- --- ---- -- --- even -- ------ ------<br>--- ----- -- ----,131111.73499992583,131110.50499998964,130688.355,130704.03499994427,130705.838,131140.176,,48,even
screen,html.Screen,2_1_0_1_49,2021-04-30T09:50:10.258Z,,,,,,,,,,,,,,,,,53,,,,,,,,,,,,,,270.0989999146841,,response,,,,99,,,,,,,Space,keypress(Space),,,,,,,,---- -- ----- -- ------ - ------- --- ----------<br>------------- ------ ------ ---- ---- ------- ----- -- ----<br>-------- ------- -- ---------- --- - --- ----- ----- ----<br>---- --- --- ----- --- ---- ---- ------- ----- ---- -------<br>--- --- -- ----- -- --- ---- -- --- ---- if ------ ------<br>--- ----- -- ----,131410.91500001494,131410.2749999147,131106.199,131112.05499991775,131140.176,131436.296,,49,if
screen,html.Screen,2_1_0_1_50,2021-04-30T09:50:10.508Z,,,,,,,,,,,,,,,,,53,,,,,,,,,,,,,,223.70399991617887,,response,,,,99,,,,,,,Space,keypress(Space),,,,,,,,---- -- ----- -- ------ - ------- --- ----------<br>------------- ------ ------ ---- ---- ------- ----- -- ----<br>-------- ------- -- ---------- --- - --- ----- ----- ----<br>---- --- --- ----- --- ---- ---- ------- ----- ---- -------<br>--- --- -- ----- -- --- ---- -- --- ---- -- that's ------<br>--- ----- -- ----,131661.13999998197,131659.99999991618,131397.31,131411.0749999527,131436.296,131663.119,,50,that's
screen,html.Screen,2_1_0_1_51,2021-04-30T09:50:10.942Z,,,,,,,,,,,,,,,,,53,,,,,,,,,,,,,,431.1959999948158,,response,,,,99,,,,,,,Space,keypress(Space),,,,,,,,---- -- ----- -- ------ - ------- --- ----------<br>------------- ------ ------ ---- ---- ------- ----- -- ----<br>-------- ------- -- ---------- --- - --- ----- ----- ----<br>---- --- --- ----- --- ---- ---- ------- ----- ---- -------<br>--- --- -- ----- -- --- ---- -- --- ---- -- ------ really<br>--- ----- -- ----,132095.4249999486,132094.31499999482,131645.874,131661.44499997608,131663.119,132097.4,,51,really
screen,html.Screen,2_1_0_1_52,2021-04-30T09:50:11.269Z,,,,,,,,,,,,,,,,,53,,,,,,,,,,,,,,323.6099999327271,,response,,,,99,,,,,,,Space,keypress(Space),,,,,,,,---- -- ----- -- ------ - ------- --- ----------<br>------------- ------ ------ ---- ---- ------- ----- -- ----<br>-------- ------- -- ---------- --- - --- ----- ----- ----<br>---- --- --- ----- --- ---- ---- ------- ----- ---- -------<br>--- --- -- ----- -- --- ---- -- --- ---- -- ------ ------<br>not ----- -- ----,132421.5700000059,132421.00999993272,132080.056,132095.7299999427,132097.4,132455.249,,52,not
screen,html.Screen,2_1_0_1_53,2021-04-30T09:50:11.611Z,,,,,,,,,,,,,,,,,53,,,,,,,,,,,,,,307.88600001559826,,response,,,,99,,,,,,,Space,keypress(Space),,,,,,,,---- -- ----- -- ------ - ------- --- ----------<br>------------- ------ ------ ---- ---- ------- ----- -- ----<br>-------- ------- -- ---------- --- - --- ----- ----- ----<br>---- --- --- ----- --- ---- ---- ------- ----- ---- -------<br>--- --- -- ----- -- --- ---- -- --- ---- -- ------ ------<br>--- close -- ----,132763.74500000384,132763.1350000156,132414.308,132421.7049999861,132455.249,132783.253,,53,close
screen,html.Screen,2_1_0_1_54,2021-04-30T09:50:12.090Z,,,,,,,,,,,,,,,,,53,,,,,,,,,,,,,,459.487000016059,,response,,,,99,,,,,,,Space,keypress(Space),,,,,,,,---- -- ----- -- ------ - ------- --- ----------<br>------------- ------ ------ ---- ---- ------- ----- -- ----<br>-------- ------- -- ---------- --- - --- ----- ----- ----<br>---- --- --- ----- --- ---- ---- ------- ----- ---- -------<br>--- --- -- ----- -- --- ---- -- --- ---- -- ------ ------<br>--- ----- at ----,133243.18999995012,133242.74000001606,132756.375,132763.84999998845,132783.253,133269.023,,54,at
screen,html.Screen,2_1_0_1_55,2021-04-30T09:50:12.595Z,,,,,,,,,,,,,,,,,53,,,,,,,,,,,,,,477.6519999439479,,response,,,,99,,,,,,,Space,keypress(Space),,,,,,,,---- -- ----- -- ------ - ------- --- ----------<br>------------- ------ ------ ---- ---- ------- ----- -- ----<br>-------- ------- -- ---------- --- - --- ----- ----- ----<br>---- --- --- ----- --- ---- ---- ------- ----- ---- -------<br>--- --- -- ----- -- --- ---- -- --- ---- -- ------ ------<br>--- ----- -- all.,133747.82499996945,133746.67499994393,133232.154,133243.29499993473,133269.023,133750.639,,55,all.
Item 99,flow.Loop,2_1_0_1,2021-04-30T09:50:12.595Z,,,,,,,,,,,,,,,,,,,,,,,,,,,,,,,25154.80499994394,,completion,,,,,B,,,,,,,,,,,silence,,,,,133748.38999996427,133746.67499994393,108575.242,108576.78499992471,108591.87,133750.639,,,
Question 1,html.Screen,2_1_0_2,2021-04-30T09:50:16.234Z,,,,,,,,,,,,,,,,,,,,,,,,,,,,true,FALSE,,3634.1559999617457,,response,,,,99,B,,,,,,FALSE,click #choice-2,,,,silence,,,,,137386.76000002306,137384.79499996174,133744.877,133748.68499999866,133750.639,137397.378,,,
Question 2,html.Screen,2_1_0_3,2021-04-30T09:50:23.268Z,,,,,,,,,,,,,,,,,,,,,,,,,,,,true,TRUE,,7021.702000021498,,response,,,,99,B,,,,,,TRUE,click #choice-1,,,,silence,,,,,144421.19000002276,144419.0800000215,137373.112,137386.83999993373,137397.378,144422.525,,,
Item 99,flow.Sequence,2_1_0,2021-04-30T09:50:23.268Z,,,,,,,,,,,,,,,,,,,,,,,,,,,,,,,45834.47300002149,,completion,,,,,,,,,,,,,,,,,,,,,144421.29999992903,144419.0800000215,98563.996,98580.19499992952,98584.607,144422.525,,,
Holding screen,html.Screen,2_1_1_0,2021-04-30T09:50:33.246Z,,,,,,,,,,,,,,,,,,,,,,,,,,,,,,,9992.236999999994,,timeout,,,,,,,,,,,,,,,,,,,,,154399.49999994133,154398.191,144407.384,144421.37499991804,144422.525,154414.762,,,
screen,html.Screen,2_1_1_1_0,2021-04-30T09:50:34.517Z,,,,,,,,,,,,,,,,,54,,,,,,,,,,,,,,1254.2279999182792,,response,,,,100,,,,,,,Space,keypress(Space),,,,,,,,At --- ---- --- ------ ----- ------- ---- -- --- ------- --<br>------- ---------- ------ -- ----- -- ----- -- ---- ------<br>--- ----- --- --- ------ -------- ----- --- ------ ----- --<br>----- ----- ---------- --- --- ------ ------ ---- -- ------<br>------- --- ------ ----- --- ---- ------- -- ---- --- --<br>------- ------,155670.26499996427,155668.98999991827,154398.191,154399.9049999984,154414.762,155698.754,,0,At
screen,html.Screen,2_1_1_1_1,2021-04-30T09:50:34.946Z,,,,,,,,,,,,,,,,,54,,,,,,,,,,,,,,398.84099994107964,,response,,,,100,,,,,,,Space,keypress(Space),,,,,,,,-- the ---- --- ------ ----- ------- ---- -- --- ------- --<br>------- ---------- ------ -- ----- -- ----- -- ---- ------<br>--- ----- --- --- ------ -------- ----- --- ------ ----- --<br>----- ----- ---------- --- --- ------ ------ ---- -- ------<br>------- --- ------ ----- --- ---- ------- -- ---- --- --<br>------- ------,156098.7249999307,156097.59499994107,155664.709,155670.57499999646,155698.754,156133.192,,1,the
screen,html.Screen,2_1_1_1_2,2021-04-30T09:50:35.182Z,,,,,,,,,,,,,,,,,54,,,,,,,,,,,,,,201.23300000818563,,response,,,,100,,,,,,,Space,keypress(Space),,,,,,,,-- --- time --- ------ ----- ------- ---- -- --- ------- --<br>------- ---------- ------ -- ----- -- ----- -- ---- ------<br>--- ----- --- --- ------ -------- ----- --- ------ ----- --<br>----- ----- ---------- --- --- ------ ------ ---- -- ------<br>------- --- ------ ----- --- ---- ------- -- ---- --- --<br>------- ------,156335.57999995537,156334.4250000082,156087.437,156099.04000000097,156133.192,156337.63,,2,time
screen,html.Screen,2_1_1_1_3,2021-04-30T09:50:35.553Z,,,,,,,,,,,,,,,,,54,,,,,,,,,,,,,,367.50499993830454,,response,,,,100,,,,,,,Space,keypress(Space),,,,,,,,-- --- ---- the ------ ----- ------- ---- -- --- ------- --<br>------- ---------- ------ -- ----- -- ----- -- ---- ------<br>--- ----- --- --- ------ -------- ----- --- ------ ----- --<br>----- ----- ---------- --- --- ------ ------ ---- -- ------<br>------- --- ------ ----- --- ---- ------- -- ---- --- --<br>------- ------,156706.27999992575,156705.1349999383,156334.276,156335.88999998756,156337.63,156717.179,,3,the
screen,html.Screen,2_1_1_1_4,2021-04-30T09:50:35.747Z,,,,,,,,,,,,,,,,,54,,,,,,,,,,,,,,181.43099991651252,,response,,,,100,,,,,,,Space,keypress(Space),,,,,,,,-- --- ---- --- French ----- ------- ---- -- --- ------- --<br>------- ---------- ------ -- ----- -- ----- -- ---- ------<br>--- ----- --- --- ------ -------- ----- --- ------ ----- --<br>----- ----- ---------- --- --- ------ ------ ---- -- ------<br>------- --- ------ ----- --- ---- ------- -- ---- --- --<br>------- ------,156899.7799999779,156898.60999991652,156704.539,156706.5799999982,156717.179,156928.352,,4,French
screen,html.Screen,2_1_1_1_5,2021-04-30T09:50:36.327Z,,,,,,,,,,,,,,,,,54,,,,,,,,,,,,,,550.542999949248,,response,,,,100,,,,,,,Space,keypress(Space),,,,,,,,-- --- ---- --- ------ crown ------- ---- -- --- ------- --<br>------- ---------- ------ -- ----- -- ----- -- ---- ------<br>--- ----- --- --- ------ -------- ----- --- ------ ----- --<br>----- ----- ---------- --- --- ------ ------ ---- -- ------<br>------- --- ------ ----- --- ---- ------- -- ---- --- --<br>------- ------,157480.0899999682,157478.89499994926,156900.615,156900.0750000123,156928.352,157508.669,,5,crown
screen,html.Screen,2_1_1_1_6,2021-04-30T09:50:36.644Z,,,,,,,,,,,,,,,,,54,,,,,,,,,,,,,,287.5309999824967,,response,,,,100,,,,,,,Space,keypress(Space),,,,,,,,-- --- ---- --- ------ ----- secured ---- -- --- ------- --<br>------- ---------- ------ -- ----- -- ----- -- ---- ------<br>--- ----- --- --- ------ -------- ----- --- ------ ----- --<br>----- ----- ---------- --- --- ------ ------ ---- -- ------<br>------- --- ------ ----- --- ---- ------- -- ---- --- --<br>------- ------,157796.69500002638,157796.1999999825,157468.597,157480.38999992423,157508.669,157821.907,,6,secured
screen,html.Screen,2_1_1_1_7,2021-04-30T09:50:37.020Z,,,,,,,,,,,,,,,,,54,,,,,,,,,,,,,,350.1279999377439,,response,,,,100,,,,,,,Space,keypress(Space),,,,,,,,-- --- ---- --- ------ ----- ------- much -- --- ------- --<br>------- ---------- ------ -- ----- -- ----- -- ---- ------<br>--- ----- --- --- ------ -------- ----- --- ------ ----- --<br>----- ----- ---------- --- --- ------ ------ ---- -- ------<br>------- --- ------ ----- --- ---- ------- -- ---- --- --<br>------- ------,158173.12499997206,158172.03499993775,157782.334,157796.7850000132,157821.907,158195.334,,7,much
screen,html.Screen,2_1_1_1_8,2021-04-30T09:50:37.411Z,,,,,,,,,,,,,,,,,54,,,,,,,,,,,,,,367.30099998021615,,response,,,,100,,,,,,,Space,keypress(Space),,,,,,,,-- --- ---- --- ------ ----- ------- ---- of --- ------- --<br>------- ---------- ------ -- ----- -- ----- -- ---- ------<br>--- ----- --- --- ------ -------- ----- --- ------ ----- --<br>----- ----- ---------- --- --- ------ ------ ---- -- ------<br>------- --- ------ ----- --- ---- ------- -- ---- --- --<br>------- ------,158563.7749999296,158562.63499998022,158164.784,158173.4249999281,158195.334,158565.834,,8,of
screen,html.Screen,2_1_1_1_9,2021-04-30T09:50:37.744Z,,,,,,,,,,,,,,,,,54,,,,,,,,,,,,,,330.4909999796946,,response,,,,100,,,,,,,Space,keypress(Space),,,,,,,,-- --- ---- --- ------ ----- ------- ---- -- its ------- --<br>------- ---------- ------ -- ----- -- ----- -- ---- ------<br>--- ----- --- --- ------ -------- ----- --- ------ ----- --<br>----- ----- ---------- --- --- ------ ------ ---- -- ------<br>------- --- ------ ----- --- ---- ------- -- ---- --- --<br>------- ------,158897.4600000074,158896.3249999797,158558.473,158564.07500000205,158565.834,158928.682,,9,its
screen,html.Screen,2_1_1_1_10,2021-04-30T09:50:38.040Z,,,,,,,,,,,,,,,,,54,,,,,,,,,,,,,,263.6729999482923,,response,,,,100,,,,,,,Space,keypress(Space),,,,,,,,-- --- ---- --- ------ ----- ------- ---- -- --- revenue --<br>------- ---------- ------ -- ----- -- ----- -- ---- ------<br>--- ----- --- --- ------ -------- ----- --- ------ ----- --<br>----- ----- ---------- --- --- ------ ------ ---- -- ------<br>------- --- ------ ----- --- ---- ------- -- ---- --- --<br>------- ------,159192.9699999746,159192.3549999483,158882.496,158897.75999996345,158928.682,159226.508,,10,revenue
screen,html.Screen,2_1_1_1_11,2021-04-30T09:50:38.429Z,,,,,,,,,,,,,,,,,54,,,,,,,,,,,,,,354.3669999850972,,response,,,,100,,,,,,,Space,keypress(Space),,,,,,,,-- --- ---- --- ------ ----- ------- ---- -- --- ------- by<br>------- ---------- ------ -- ----- -- ----- -- ---- ------<br>--- ----- --- --- ------ -------- ----- --- ------ ----- --<br>----- ----- ---------- --- --- ------ ------ ---- -- ------<br>------- --- ------ ----- --- ---- ------- -- ---- --- --<br>------- ------,159582.14499999303,159580.8749999851,159182.974,159193.1049999548,159226.508,159602.337,,11,by
screen,html.Screen,2_1_1_1_12,2021-04-30T09:50:38.735Z,,,,,,,,,,,,,,,,,54,,,,,,,,,,,,,,284.20800001575844,,response,,,,100,,,,,,,Space,keypress(Space),,,,,,,,-- --- ---- --- ------ ----- ------- ---- -- --- ------- --<br>issuing ---------- ------ -- ----- -- ----- -- ---- ------<br>--- ----- --- --- ------ -------- ----- --- ------ ----- --<br>----- ----- ---------- --- --- ------ ------ ---- -- ------<br>------- --- ------ ----- --- ---- ------- -- ---- --- --<br>------- ------,159887.6600000076,159886.54500001576,159577.873,159582.48500002082,159602.337,159912.825,,12,issuing
screen,html.Screen,2_1_1_1_13,2021-04-30T09:50:39.097Z,,,,,,,,,,,,,,,,,54,,,,,,,,,,,,,,336.30500001105247,,response,,,,100,,,,,,,Space,keypress(Space),,,,,,,,-- --- ---- --- ------ ----- ------- ---- -- --- ------- --<br>------- government ------ -- ----- -- ----- -- ---- ------<br>--- ----- --- --- ------ -------- ----- --- ------ ----- --<br>----- ----- ---------- --- --- ------ ------ ---- -- ------<br>------- --- ------ ----- --- ---- ------- -- ---- --- --<br>------- ------,160250.21999992896,160249.13000001106,159884.384,159887.95499992557,159912.825,160274.84,,13,government
screen,html.Screen,2_1_1_1_14,2021-04-30T09:50:39.406Z,,,,,,,,,,,,,,,,,54,,,,,,,,,,,,,,283.44499991912744,,response,,,,100,,,,,,,Space,keypress(Space),,,,,,,,-- --- ---- --- ------ ----- ------- ---- -- --- ------- --<br>------- ---------- bonds. -- ----- -- ----- -- ---- ------<br>--- ----- --- --- ------ -------- ----- --- ------ ----- --<br>----- ----- ---------- --- --- ------ ------ ---- -- ------<br>------- --- ------ ----- --- ---- ------- -- ---- --- --<br>------- ------,160559.4249999849,160558.28499991912,160239.966,160250.48499996774,160274.84,160588.905,,14,bonds.
screen,html.Screen,2_1_1_1_15,2021-04-30T09:50:39.774Z,,,,,,,,,,,,,,,,,54,,,,,,,,,,,,,,337.1750000047323,,response,,,,100,,,,,,,Space,keypress(Space),,,,,,,,-- --- ---- --- ------ ----- ------- ---- -- --- ------- --<br>------- ---------- ------ In ----- -- ----- -- ---- ------<br>--- ----- --- --- ------ -------- ----- --- ------ ----- --<br>----- ----- ---------- --- --- ------ ------ ---- -- ------<br>------- --- ------ ----- --- ---- ------- -- ---- --- --<br>------- ------,160927.29499994311,160926.08000000473,160552.31,160559.73999993876,160588.905,160929.497,,15,In
screen,html.Screen,2_1_1_1_16,2021-04-30T09:50:40.131Z,,,,,,,,,,,,,,,,,54,,,,,,,,,,,,,,353.6729999514937,,response,,,,100,,,,,,,Space,keypress(Space),,,,,,,,"-- --- ---- --- ------ ----- ------- ---- -- --- ------- --<br>------- ---------- ------ -- 1727, -- ----- -- ---- ------<br>--- ----- --- --- ------ -------- ----- --- ------ ----- --<br>----- ----- ---------- --- --- ------ ------ ---- -- ------<br>------- --- ------ ----- --- ---- ------- -- ---- --- --<br>------- ------",161284.244999988,161283.1699999515,160928.142,160927.6349999709,160929.497,161305.634,,16,"1727,"
screen,html.Screen,2_1_1_1_17,2021-04-30T09:50:40.557Z,,,,,,,,,,,,,,,,,54,,,,,,,,,,,,,,403.93599994815304,,response,,,,100,,,,,,,Space,keypress(Space),,,,,,,,-- --- ---- --- ------ ----- ------- ---- -- --- ------- --<br>------- ---------- ------ -- ----- in ----- -- ---- ------<br>--- ----- --- --- ------ -------- ----- --- ------ ----- --<br>----- ----- ---------- --- --- ------ ------ ---- -- ------<br>------- --- ------ ----- --- ---- ------- -- ---- --- --<br>------- ------,161710.02499992028,161709.56999994814,161279.404,161284.57499993965,161305.634,161729.968,,17,in
screen,html.Screen,2_1_1_1_18,2021-04-30T09:50:40.876Z,,,,,,,,,,,,,,,,,54,,,,,,,,,,,,,,298.17699998931494,,response,,,,100,,,,,,,Space,keypress(Space),,,,,,,,-- --- ---- --- ------ ----- ------- ---- -- --- ------- --<br>------- ---------- ------ -- ----- -- order -- ---- ------<br>--- ----- --- --- ------ -------- ----- --- ------ ----- --<br>----- ----- ---------- --- --- ------ ------ ---- -- ------<br>------- --- ------ ----- --- ---- ------- -- ---- --- --<br>------- ------,162028.7150000222,162028.1449999893,161702.85,161710.15499997884,161729.968,162057.115,,18,order
screen,html.Screen,2_1_1_1_19,2021-04-30T09:50:41.188Z,,,,,,,,,,,,,,,,,54,,,,,,,,,,,,,,283.84999998123385,,response,,,,100,,,,,,,Space,keypress(Space),,,,,,,,-- --- ---- --- ------ ----- ------- ---- -- --- ------- --<br>------- ---------- ------ -- ----- -- ----- to ---- ------<br>--- ----- --- --- ------ -------- ----- --- ------ ----- --<br>----- ----- ---------- --- --- ------ ------ ---- -- ------<br>------- --- ------ ----- --- ---- ------- -- ---- --- --<br>------- ------,162341.54499997385,162340.96499998122,162027.964,162028.82499992847,162057.115,162372.264,,19,to
screen,html.Screen,2_1_1_1_20,2021-04-30T09:50:41.606Z,,,,,,,,,,,,,,,,,54,,,,,,,,,,,,,,385.3109999377921,,response,,,,100,,,,,,,Space,keypress(Space),,,,,,,,-- --- ---- --- ------ ----- ------- ---- -- --- ------- --<br>------- ---------- ------ -- ----- -- ----- -- save ------<br>--- ----- --- --- ------ -------- ----- --- ------ ----- --<br>----- ----- ---------- --- --- ------ ------ ---- -- ------<br>------- --- ------ ----- --- ---- ------- -- ---- --- --<br>------- ------,162758.85500002187,162757.5749999378,162329.934,162341.67999995407,162372.264,162761.032,,20,save
screen,html.Screen,2_1_1_1_21,2021-04-30T09:50:41.902Z,,,,,,,,,,,,,,,,,54,,,,,,,,,,,,,,293.8829999860609,,response,,,,100,,,,,,,Space,keypress(Space),,,,,,,,"-- --- ---- --- ------ ----- ------- ---- -- --- ------- --<br>------- ---------- ------ -- ----- -- ----- -- ---- money,<br>--- ----- --- --- ------ -------- ----- --- ------ ----- --<br>----- ----- ---------- --- --- ------ ------ ---- -- ------<br>------- --- ------ ----- --- ---- ------- -- ---- --- --<br>------- ------",163055.45500002336,163054.91499998607,162759.664,162759.1900000116,162761.032,163082.036,,21,"money,"
screen,html.Screen,2_1_1_1_22,2021-04-30T09:50:42.283Z,,,,,,,,,,,,,,,,,54,,,,,,,,,,,,,,353.2190000185219,,response,,,,100,,,,,,,Space,keypress(Space),,,,,,,,-- --- ---- --- ------ ----- ------- ---- -- --- ------- --<br>------- ---------- ------ -- ----- -- ----- -- ---- ------<br>the ----- --- --- ------ -------- ----- --- ------ ----- --<br>----- ----- ---------- --- --- ------ ------ ---- -- ------<br>------- --- ------ ----- --- ---- ------- -- ---- --- --<br>------- ------,163435.76999998186,163435.25500001851,163044.595,163055.56000000797,163082.036,163457.486,,22,the
screen,html.Screen,2_1_1_1_23,2021-04-30T09:50:42.540Z,,,,,,,,,,,,,,,,,54,,,,,,,,,,,,,,234.85899998855894,,response,,,,100,,,,,,,Space,keypress(Space),,,,,,,,-- --- ---- --- ------ ----- ------- ---- -- --- ------- --<br>------- ---------- ------ -- ----- -- ----- -- ---- ------<br>--- state --- --- ------ -------- ----- --- ------ ----- --<br>----- ----- ---------- --- --- ------ ------ ---- -- ------<br>------- --- ------ ----- --- ---- ------- -- ---- --- --<br>------- ------,163693.2149999775,163692.34499998856,163423.925,163435.88000000454,163457.486,163723.494,,23,state
screen,html.Screen,2_1_1_1_24,2021-04-30T09:50:42.805Z,,,,,,,,,,,,,,,,,54,,,,,,,,,,,,,,233.2359999762266,,response,,,,100,,,,,,,Space,keypress(Space),,,,,,,,-- --- ---- --- ------ ----- ------- ---- -- --- ------- --<br>------- ---------- ------ -- ----- -- ----- -- ---- ------<br>--- ----- cut --- ------ -------- ----- --- ------ ----- --<br>----- ----- ---------- --- --- ------ ------ ---- -- ------<br>------- --- ------ ----- --- ---- ------- -- ---- --- --<br>------- ------,163958.0549999373,163956.72999997623,163687.52,163693.4599999804,163723.494,163960.212,,24,cut
screen,html.Screen,2_1_1_1_25,2021-04-30T09:50:43.122Z,,,,,,,,,,,,,,,,,54,,,,,,,,,,,,,,313.288000010245,,response,,,,100,,,,,,,Space,keypress(Space),,,,,,,,-- --- ---- --- ------ ----- ------- ---- -- --- ------- --<br>------- ---------- ------ -- ----- -- ----- -- ---- ------<br>--- ----- --- the ------ -------- ----- --- ------ ----- --<br>----- ----- ---------- --- --- ------ ------ ---- -- ------<br>------- --- ------ ----- --- ---- ------- -- ---- --- --<br>------- ------,164274.82499997132,164273.50000001024,163945.267,163958.44499999657,163960.212,164277.073,,25,the
screen,html.Screen,2_1_1_1_26,2021-04-30T09:50:43.513Z,,,,,,,,,,,,,,,,,54,,,,,,,,,,,,,,388.1819999998843,,response,,,,100,,,,,,,Space,keypress(Space),,,,,,,,-- --- ---- --- ------ ----- ------- ---- -- --- ------- --<br>------- ---------- ------ -- ----- -- ----- -- ---- ------<br>--- ----- --- --- bonds' -------- ----- --- ------ ----- --<br>----- ----- ---------- --- --- ------ ------ ---- -- ------<br>------- --- ------ ----- --- ---- ------- -- ---- --- --<br>------- ------,164666.58499999903,164665.2549999999,164260.517,164275.17499995884,164277.073,164695.978,,26,bonds'
screen,html.Screen,2_1_1_1_27,2021-04-30T09:50:43.985Z,,,,,,,,,,,,,,,,,54,,,,,,,,,,,,,,441.2419999168487,,response,,,,100,,,,,,,Space,keypress(Space),,,,,,,,-- --- ---- --- ------ ----- ------- ---- -- --- ------- --<br>------- ---------- ------ -- ----- -- ----- -- ---- ------<br>--- ----- --- --- ------ interest ----- --- ------ ----- --<br>----- ----- ---------- --- --- ------ ------ ---- -- ------<br>------- --- ------ ----- --- ---- ------- -- ---- --- --<br>------- ------,165138.5199999204,165137.21999991685,164660.681,164666.94000002462,164695.978,165140.698,,27,interest
screen,html.Screen,2_1_1_1_28,2021-04-30T09:50:44.253Z,,,,,,,,,,,,,,,,,54,,,,,,,,,,,,,,265.3919999458303,,response,,,,100,,,,,,,Space,keypress(Space),,,,,,,,-- --- ---- --- ------ ----- ------- ---- -- --- ------- --<br>------- ---------- ------ -- ----- -- ----- -- ---- ------<br>--- ----- --- --- ------ -------- rate. --- ------ ----- --<br>----- ----- ---------- --- --- ------ ------ ---- -- ------<br>------- --- ------ ----- --- ---- ------- -- ---- --- --<br>------- ------,165406.57999995165,165406.08999994583,165135.669,165138.88500002213,165140.698,165430.388,,28,rate.
screen,html.Screen,2_1_1_1_29,2021-04-30T09:50:44.546Z,,,,,,,,,,,,,,,,,54,,,,,,,,,,,,,,267.90199997115997,,response,,,,100,,,,,,,Space,keypress(Space),,,,,,,,-- --- ---- --- ------ ----- ------- ---- -- --- ------- --<br>------- ---------- ------ -- ----- -- ----- -- ---- ------<br>--- ----- --- --- ------ -------- ----- The ------ ----- --<br>----- ----- ---------- --- --- ------ ------ ---- -- ------<br>------- --- ------ ----- --- ---- ------- -- ---- --- --<br>------- ------,165699.3899999652,165698.28999997117,165390.966,165406.69999993406,165430.388,165726.737,,29,The
screen,html.Screen,2_1_1_1_30,2021-04-30T09:50:44.880Z,,,,,,,,,,,,,,,,,54,,,,,,,,,,,,,,304.8229999157775,,response,,,,100,,,,,,,Space,keypress(Space),,,,,,,,-- --- ---- --- ------ ----- ------- ---- -- --- ------- --<br>------- ---------- ------ -- ----- -- ----- -- ---- ------<br>--- ----- --- --- ------ -------- ----- --- market ----- --<br>----- ----- ---------- --- --- ------ ------ ---- -- ------<br>------- --- ------ ----- --- ---- ------- -- ---- --- --<br>------- ------,166032.72000001743,166031.55999991577,165691.657,165699.6999999974,165726.737,166056.608,,30,market
screen,html.Screen,2_1_1_1_31,2021-04-30T09:50:45.167Z,,,,,,,,,,,,,,,,,54,,,,,,,,,,,,,,262.9069999810308,,response,,,,100,,,,,,,Space,keypress(Space),,,,,,,,-- --- ---- --- ------ ----- ------- ---- -- --- ------- --<br>------- ---------- ------ -- ----- -- ----- -- ---- ------<br>--- ----- --- --- ------ -------- ----- --- ------ value --<br>----- ----- ---------- --- --- ------ ------ ---- -- ------<br>------- --- ------ ----- --- ---- ------- -- ---- --- --<br>------- ------,166320.19999995828,166319.51499998104,166018.087,166033.02500001155,166056.608,166351.135,,31,value
screen,html.Screen,2_1_1_1_32,2021-04-30T09:50:45.484Z,,,,,,,,,,,,,,,,,54,,,,,,,,,,,,,,285.5649999154266,,response,,,,100,,,,,,,Space,keypress(Space),,,,,,,,-- --- ---- --- ------ ----- ------- ---- -- --- ------- --<br>------- ---------- ------ -- ----- -- ----- -- ---- ------<br>--- ----- --- --- ------ -------- ----- --- ------ ----- of<br>----- ----- ---------- --- --- ------ ------ ---- -- ------<br>------- --- ------ ----- --- ---- ------- -- ---- --- --<br>------- ------,166637.31000002008,166636.69999991544,166318.332,166320.28500002343,166351.135,166665.72,,32,of
screen,html.Screen,2_1_1_1_33,2021-04-30T09:50:45.979Z,,,,,,,,,,,,,,,,,54,,,,,,,,,,,,,,466.27499994516256,,response,,,,100,,,,,,,Space,keypress(Space),,,,,,,,-- --- ---- --- ------ ----- ------- ---- -- --- ------- --<br>------- ---------- ------ -- ----- -- ----- -- ---- ------<br>--- ----- --- --- ------ -------- ----- --- ------ ----- --<br>these ----- ---------- --- --- ------ ------ ---- -- ------<br>------- --- ------ ----- --- ---- ------- -- ---- --- --<br>------- ------,167132.50499998685,167131.99499994516,166621.532,166637.43499992415,166665.72,167163.781,,33,these
screen,html.Screen,2_1_1_1_34,2021-04-30T09:50:46.228Z,,,,,,,,,,,,,,,,,54,,,,,,,,,,,,,,217.14399994674022,,response,,,,100,,,,,,,Space,keypress(Space),,,,,,,,-- --- ---- --- ------ ----- ------- ---- -- --- ------- --<br>------- ---------- ------ -- ----- -- ----- -- ---- ------<br>--- ----- --- --- ------ -------- ----- --- ------ ----- --<br>----- bonds ---------- --- --- ------ ------ ---- -- ------<br>------- --- ------ ----- --- ---- ------- -- ---- --- --<br>------- ------,167381.44499994814,167380.92499994673,167122.567,167132.60999997146,167163.781,167414.021,,34,bonds
screen,html.Screen,2_1_1_1_35,2021-04-30T09:50:46.558Z,,,,,,,,,,,,,,,,,54,,,,,,,,,,,,,,296.154000014707,,response,,,,100,,,,,,,Space,keypress(Space),,,,,,,,"-- --- ---- --- ------ ----- ------- ---- -- --- ------- --<br>------- ---------- ------ -- ----- -- ----- -- ---- ------<br>--- ----- --- --- ------ -------- ----- --- ------ ----- --<br>----- ----- plummeted, --- --- ------ ------ ---- -- ------<br>------- --- ------ ----- --- ---- ------- -- ---- --- --<br>------- ------",167711.46000002045,167710.17500001471,167367.463,167381.55499997083,167414.021,167742.567,,35,"plummeted,"
screen,html.Screen,2_1_1_1_36,2021-04-30T09:50:46.989Z,,,,,,,,,,,,,,,,,54,,,,,,,,,,,,,,398.7030000218947,,response,,,,100,,,,,,,Space,keypress(Space),,,,,,,,-- --- ---- --- ------ ----- ------- ---- -- --- ------- --<br>------- ---------- ------ -- ----- -- ----- -- ---- ------<br>--- ----- --- --- ------ -------- ----- --- ------ ----- --<br>----- ----- ---------- and --- ------ ------ ---- -- ------<br>------- --- ------ ----- --- ---- ------- -- ---- --- --<br>------- ------,168142.55500002764,168141.2700000219,167699.552,167711.76999993622,167742.567,168164.736,,36,and
screen,html.Screen,2_1_1_1_37,2021-04-30T09:50:47.332Z,,,,,,,,,,,,,,,,,54,,,,,,,,,,,,,,319.2539999787987,,response,,,,100,,,,,,,Space,keypress(Space),,,,,,,,-- --- ---- --- ------ ----- ------- ---- -- --- ------- --<br>------- ---------- ------ -- ----- -- ----- -- ---- ------<br>--- ----- --- --- ------ -------- ----- --- ------ ----- --<br>----- ----- ---------- --- the ------ ------ ---- -- ------<br>------- --- ------ ----- --- ---- ------- -- ---- --- --<br>------- ------,168484.68999995384,168483.9899999788,168130.385,168142.99500000197,168164.736,168513.312,,37,the
screen,html.Screen,2_1_1_1_38,2021-04-30T09:50:47.591Z,,,,,,,,,,,,,,,,,54,,,,,,,,,,,,,,229.22800000655116,,response,,,,100,,,,,,,Space,keypress(Space),,,,,,,,-- --- ---- --- ------ ----- ------- ---- -- --- ------- --<br>------- ---------- ------ -- ----- -- ----- -- ---- ------<br>--- ----- --- --- ------ -------- ----- --- ------ ----- --<br>----- ----- ---------- --- --- market ------ ---- -- ------<br>------- --- ------ ----- --- ---- ------- -- ---- --- --<br>------- ------,168743.67499991786,168742.54000000656,168478.383,168484.85999996774,168513.312,168765.99,,38,market
screen,html.Screen,2_1_1_1_39,2021-04-30T09:50:47.839Z,,,,,,,,,,,,,,,,,54,,,,,,,,,,,,,,225.28999995836057,,response,,,,100,,,,,,,Space,keypress(Space),,,,,,,,-- --- ---- --- ------ ----- ------- ---- -- --- ------- --<br>------- ---------- ------ -- ----- -- ----- -- ---- ------<br>--- ----- --- --- ------ -------- ----- --- ------ ----- --<br>----- ----- ---------- --- --- ------ became ---- -- ------<br>------- --- ------ ----- --- ---- ------- -- ---- --- --<br>------- ------,168992.44499998167,168991.27999995835,168736.279,168743.96999995224,168765.99,169007.596,,39,became
screen,html.Screen,2_1_1_1_40,2021-04-30T09:50:48.172Z,,,,,,,,,,,,,,,,,54,,,,,,,,,,,,,,316.5589999220392,,response,,,,100,,,,,,,Space,keypress(Space),,,,,,,,-- --- ---- --- ------ ----- ------- ---- -- --- ------- --<br>------- ---------- ------ -- ----- -- ----- -- ---- ------<br>--- ----- --- --- ------ -------- ----- --- ------ ----- --<br>----- ----- ---------- --- --- ------ ------ wary -- ------<br>------- --- ------ ----- --- ---- ------- -- ---- --- --<br>------- ------,169324.71999991685,169324.15499992203,168979.383,168992.7499999758,169007.596,169344.658,,40,wary
screen,html.Screen,2_1_1_1_41,2021-04-30T09:50:48.480Z,,,,,,,,,,,,,,,,,54,,,,,,,,,,,,,,286.7669999122736,,response,,,,100,,,,,,,Space,keypress(Space),,,,,,,,-- --- ---- --- ------ ----- ------- ---- -- --- ------- --<br>------- ---------- ------ -- ----- -- ----- -- ---- ------<br>--- ----- --- --- ------ -------- ----- --- ------ ----- --<br>----- ----- ---------- --- --- ------ ------ ---- of ------<br>------- --- ------ ----- --- ---- ------- -- ---- --- --<br>------- ------,169632.65499996487,169631.42499991227,169324.257,169324.8349999776,169344.658,169663.082,,41,of
screen,html.Screen,2_1_1_1_42,2021-04-30T09:50:48.807Z,,,,,,,,,,,,,,,,,54,,,,,,,,,,,,,,296.0029999804101,,response,,,,100,,,,,,,Space,keypress(Space),,,,,,,,-- --- ---- --- ------ ----- ------- ---- -- --- ------- --<br>------- ---------- ------ -- ----- -- ----- -- ---- ------<br>--- ----- --- --- ------ -------- ----- --- ------ ----- --<br>----- ----- ---------- --- --- ------ ------ ---- -- French<br>------- --- ------ ----- --- ---- ------- -- ---- --- --<br>------- ------,169960.20500001032,169959.0849999804,169626.136,169632.9699999187,169663.082,169994.271,,42,French
screen,html.Screen,2_1_1_1_43,2021-04-30T09:50:49.170Z,,,,,,,,,,,,,,,,,54,,,,,,,,,,,,,,327.96399997052504,,response,,,,100,,,,,,,Space,keypress(Space),,,,,,,,-- --- ---- --- ------ ----- ------- ---- -- --- ------- --<br>------- ---------- ------ -- ----- -- ----- -- ---- ------<br>--- ----- --- --- ------ -------- ----- --- ------ ----- --<br>----- ----- ---------- --- --- ------ ------ ---- -- ------<br>credit. --- ------ ----- --- ---- ------- -- ---- --- --<br>------- ------,170323.4049999155,170322.23499997053,169951.588,169960.50499996636,169994.271,170333.334,,43,credit.
screen,html.Screen,2_1_1_1_44,2021-04-30T09:50:49.528Z,,,,,,,,,,,,,,,,,54,,,,,,,,,,,,,,346.85599998457474,,response,,,,100,,,,,,,Space,keypress(Space),,,,,,,,-- --- ---- --- ------ ----- ------- ---- -- --- ------- --<br>------- ---------- ------ -- ----- -- ----- -- ---- ------<br>--- ----- --- --- ------ -------- ----- --- ------ ----- --<br>----- ----- ---------- --- --- ------ ------ ---- -- ------<br>------- The ------ ----- --- ---- ------- -- ---- --- --<br>------- ------,170681.31499993615,170680.18999998458,170312.459,170323.6999999499,170333.334,170707.863,,44,The
screen,html.Screen,2_1_1_1_45,2021-04-30T09:50:49.723Z,,,,,,,,,,,,,,,,,54,,,,,,,,,,,,,,166.98199998389464,,response,,,,100,,,,,,,Space,keypress(Space),,,,,,,,-- --- ---- --- ------ ----- ------- ---- -- --- ------- --<br>------- ---------- ------ -- ----- -- ----- -- ---- ------<br>--- ----- --- --- ------ -------- ----- --- ------ ----- --<br>----- ----- ---------- --- --- ------ ------ ---- -- ------<br>------- --- French ----- --- ---- ------- -- ---- --- --<br>------- ------,170876.24000001233,170874.8449999839,170666.838,170681.60999997053,170707.863,170878.372,,45,French
screen,html.Screen,2_1_1_1_46,2021-04-30T09:50:49.927Z,,,,,,,,,,,,,,,,,54,,,,,,,,,,,,,,200.04299999630894,,response,,,,100,,,,,,,Space,keypress(Space),,,,,,,,-- --- ---- --- ------ ----- ------- ---- -- --- ------- --<br>------- ---------- ------ -- ----- -- ----- -- ---- ------<br>--- ----- --- --- ------ -------- ----- --- ------ ----- --<br>----- ----- ---------- --- --- ------ ------ ---- -- ------<br>------- --- ------ state --- ---- ------- -- ---- --- --<br>------- ------,171079.70000000205,171078.4149999963,170866.823,170876.58499996178,170878.372,171081.85,,46,state
screen,html.Screen,2_1_1_1_47,2021-04-30T09:50:50.360Z,,,,,,,,,,,,,,,,,54,,,,,,,,,,,,,,430.5200000112818,,response,,,,100,,,,,,,Space,keypress(Space),,,,,,,,-- --- ---- --- ------ ----- ------- ---- -- --- ------- --<br>------- ---------- ------ -- ----- -- ----- -- ---- ------<br>--- ----- --- --- ------ -------- ----- --- ------ ----- --<br>----- ----- ---------- --- --- ------ ------ ---- -- ------<br>------- --- ------ ----- was ---- ------- -- ---- --- --<br>------- ------,171513.49499996286,171512.3700000113,171078.303,171080.04999998957,171081.85,171543.22,,47,was
screen,html.Screen,2_1_1_1_48,2021-04-30T09:50:50.742Z,,,,,,,,,,,,,,,,,54,,,,,,,,,,,,,,350.3599999162543,,response,,,,100,,,,,,,Space,keypress(Space),,,,,,,,-- --- ---- --- ------ ----- ------- ---- -- --- ------- --<br>------- ---------- ------ -- ----- -- ----- -- ---- ------<br>--- ----- --- --- ------ -------- ----- --- ------ ----- --<br>----- ----- ---------- --- --- ------ ------ ---- -- ------<br>------- --- ------ ----- --- left ------- -- ---- --- --<br>------- ------,171894.78500001132,171893.57999991626,171498.525,171513.7949999189,171543.22,171922.43,,48,left
screen,html.Screen,2_1_1_1_49,2021-04-30T09:50:50.975Z,,,,,,,,,,,,,,,,,54,,,,,,,,,,,,,,204.76999998808606,,response,,,,100,,,,,,,Space,keypress(Space),,,,,,,,-- --- ---- --- ------ ----- ------- ---- -- --- ------- --<br>------- ---------- ------ -- ----- -- ----- -- ---- ------<br>--- ----- --- --- ------ -------- ----- --- ------ ----- --<br>----- ----- ---------- --- --- ------ ------ ---- -- ------<br>------- --- ------ ----- --- ---- without -- ---- --- --<br>------- ------,172128.41499992646,172127.19999998808,171882.358,171895.23000002373,171922.43,172160.113,,49,without
screen,html.Screen,2_1_1_1_50,2021-04-30T09:50:51.248Z,,,,,,,,,,,,,,,,,54,,,,,,,,,,,,,,240.8619999968214,,response,,,,100,,,,,,,Space,keypress(Space),,,,,,,,-- --- ---- --- ------ ----- ------- ---- -- --- ------- --<br>------- ---------- ------ -- ----- -- ----- -- ---- ------<br>--- ----- --- --- ------ -------- ----- --- ------ ----- --<br>----- ----- ---------- --- --- ------ ------ ---- -- ------<br>------- --- ------ ----- --- ---- ------- an ---- --- --<br>------- ------,172401.52499999385,172400.97499999683,172113.956,172128.73499991838,172160.113,172433.902,,50,an
screen,html.Screen,2_1_1_1_51,2021-04-30T09:50:51.525Z,,,,,,,,,,,,,,,,,54,,,,,,,,,,,,,,243.4879999679979,,response,,,,100,,,,,,,Space,keypress(Space),,,,,,,,-- --- ---- --- ------ ----- ------- ---- -- --- ------- --<br>------- ---------- ------ -- ----- -- ----- -- ---- ------<br>--- ----- --- --- ------ -------- ----- --- ------ ----- --<br>----- ----- ---------- --- --- ------ ------ ---- -- ------<br>------- --- ------ ----- --- ---- ------- -- easy --- --<br>------- ------,172678.0199999921,172677.389999968,172397.594,172401.6399999382,172433.902,172700.749,,51,easy
screen,html.Screen,2_1_1_1_52,2021-04-30T09:50:51.856Z,,,,,,,,,,,,,,,,,54,,,,,,,,,,,,,,307.4759999977541,,response,,,,100,,,,,,,Space,keypress(Space),,,,,,,,-- --- ---- --- ------ ----- ------- ---- -- --- ------- --<br>------- ---------- ------ -- ----- -- ----- -- ---- ------<br>--- ----- --- --- ------ -------- ----- --- ------ ----- --<br>----- ----- ---------- --- --- ------ ------ ---- -- ------<br>------- --- ------ ----- --- ---- ------- -- ---- way --<br>------- ------,173009.39499994274,173008.22499999776,172669.923,172678.1750000082,172700.749,173021.992,,52,way
screen,html.Screen,2_1_1_1_53,2021-04-30T09:50:52.266Z,,,,,,,,,,,,,,,,,54,,,,,,,,,,,,,,396.2979999432282,,response,,,,100,,,,,,,Space,keypress(Space),,,,,,,,-- --- ---- --- ------ ----- ------- ---- -- --- ------- --<br>------- ---------- ------ -- ----- -- ----- -- ---- ------<br>--- ----- --- --- ------ -------- ----- --- ------ ----- --<br>----- ----- ---------- --- --- ------ ------ ---- -- ------<br>------- --- ------ ----- --- ---- ------- -- ---- --- of<br>------- ------,173418.91999996733,173418.28999994323,172996.469,173009.68999997713,173021.992,173445.312,,53,of
screen,html.Screen,2_1_1_1_54,2021-04-30T09:50:52.658Z,,,,,,,,,,,,,,,,,54,,,,,,,,,,,,,,364.34299999001087,,response,,,,100,,,,,,,Space,keypress(Space),,,,,,,,-- --- ---- --- ------ ----- ------- ---- -- --- ------- --<br>------- ---------- ------ -- ----- -- ----- -- ---- ------<br>--- ----- --- --- ------ -------- ----- --- ------ ----- --<br>----- ----- ---------- --- --- ------ ------ ---- -- ------<br>------- --- ------ ----- --- ---- ------- -- ---- --- --<br>raising ------,173810.99999998696,173809.65499999002,173405.284,173419.01999991387,173445.312,173813.195,,54,raising
screen,html.Screen,2_1_1_1_55,2021-04-30T09:50:53.102Z,,,,,,,,,,,,,,,,,54,,,,,,,,,,,,,,440.7799999996205,,response,,,,100,,,,,,,Space,keypress(Space),,,,,,,,-- --- ---- --- ------ ----- ------- ---- -- --- ------- --<br>------- ---------- ------ -- ----- -- ----- -- ---- ------<br>--- ----- --- --- ------ -------- ----- --- ------ ----- --<br>----- ----- ---------- --- --- ------ ------ ---- -- ------<br>------- --- ------ ----- --- ---- ------- -- ---- --- --<br>------- money.,174255.12500002515,174253.97499999963,173804.087,173811.36499997228,173813.195,174285.018,,55,money.
Item 100,flow.Loop,2_1_1_1,2021-04-30T09:50:53.103Z,,,,,,,,,,,,,,,,,,,,,,,,,,,,,,,19839.21299999964,,completion,,,,,B,,,,,,,,,,,silence,,,,,174255.66000002436,174253.97499999963,154398.191,154399.80000001378,154414.762,174285.018,,,
Question 1,html.Screen,2_1_1_2,2021-04-30T09:50:55.359Z,,,,,,,,,,,,,,,,,,,,,,,,,,,,true,TRUE,,2225.962000020925,,response,,,,100,B,,,,,,TRUE,click #choice-1,,,,silence,,,,,176512.39499996882,176510.98000002094,174246.793,174255.90999994893,174285.018,176523.356,,,
Question 2,html.Screen,2_1_1_3,2021-04-30T09:50:57.379Z,,,,,,,,,,,,,,,,,,,,,,,,,,,,true,FALSE,,2006.328999957681,,response,,,,100,B,,,,,,FALSE,click #choice-2,,,,silence,,,,,178532.25499996915,178529.68499995768,176496.832,176512.49999995343,176523.356,178542.957,,,
Item 100,flow.Sequence,2_1_1,2021-04-30T09:50:57.379Z,,,,,,,,,,,,,,,,,,,,,,,,,,,,,,,34107.15999995769,,completion,,,,,,,,,,,,,,,,,,,,,178532.40499994718,178529.68499995768,144407.384,144421.35499999858,144422.525,178542.957,,,
End of Practice,html.Page,2_1_2,2021-04-30T09:51:00.258Z,,,,,,,,,,,,,,,,,,,,,,,,,,,,,,,2867.883000025933,,form submission,,,,,,,,,,,,,,,,,,,,,181411.23500000685,181410.84000002593,178526.254,178532.4799999362,178542.957,181420.749,,,
Practice,flow.Sequence,2_1,2021-04-30T09:51:00.258Z,,,,,,,,,,,,,,,,,,,,,,,,,,,,,,,82826.23300002592,,completion,,,,,,,,,,,,,,,,,,,,,181411.4899999695,181410.84000002593,98563.996,98580.16000001226,98584.607,181420.749,,,
Trap_instruction,html.Page,2_2_0,2021-04-30T09:51:03.082Z,,,,,,,,,,,,,,,,,,,,,,,,,,,,,,,2814.4009999640402,,form submission,,,,,,,,,,,,,,,,,,,,,184235.4199999245,184235.14999996405,181393.125,181411.689999979,181420.749,184243.863,,,
trap_trial,html.Screen,2_2_1,2021-04-30T09:51:05.748Z,,,,,,,,,,,,,,,,,,,,,,,,,,,,true,1,,2655.2069999267114,,response,,,,,,,,,,,1,click #choice-1,,,,,,,,,186901.22999995947,186899.06999992672,184219.19,184235.4949999135,184243.863,186913.89,,,
end of trap trial,html.Page,2_2_2,2021-04-30T09:51:07.165Z,,,,,,,,,,,,,,,,,,,,,,,,,,,,,,,1403.33999992779,,form submission,,,,,,,,,,,,,,,,,,,,,188317.89499998558,188317.2299999278,186897.189,186901.39000001363,186913.89,188326.453,,,
Trap 1,flow.Sequence,2_2,2021-04-30T09:51:07.165Z,,,,,,,,,,,,,,,,,,,,,,,,,,,,,,,6896.480999927793,,completion,,,,,,,,,,,,,,,,,,,,,188318.339999998,188317.2299999278,181393.125,181411.63500002585,181420.749,188326.453,,,
Standby,html.Page,2_3_0,2021-04-30T09:51:15.162Z,,,,,,,,,,,,,,,,,,,,,,,,,,,,,,,8003.831999999995,,timeout,,,,,,,,,,,,,,,,,,,,,196314.79500001296,196313.661,188309.978,188318.73499997891,188326.453,196330.285,,,
Holding screen,html.Screen,2_3_1_0_0,2021-04-30T09:51:22.161Z,,,,,,,,,,,,,,,,,,,,,,,,,,,,,,,6999.962999999989,,timeout,,,,,,,,,,,,,,,,,,,,,203314.25499997567,203313.566,196313.661,196315.28500001878,196330.285,203330.248,,,
screen,html.Screen,2_3_1_0_1_0,2021-04-30T09:51:24.128Z,,,,,,,,,,,,,,,,,51,,,,,,,,,,,,,,1949.0519999364915,,response,,,,13,B,,,,,,Space,keypress(Space),,,,lyrical,,,,American -------- --- --- ---- --- --- ------ -- --------<br>---- --------- --- ------- ------------ ---------- ---------<br>--- ---------- ------- ---------- ------- -- -------- ----<br>---- --- ------ ----- ------ -- ---- --- ----- -- - -------<br>-------- -- --- --- -- ----- ----------- ----- -----------<br>---- --- ---------- --- ---- --- -- ----------,205280.59500001837,205279.29999993648,203313.566,203314.61499992292,203330.248,205313.807,,0,American
screen,html.Screen,2_3_1_0_1_1,2021-04-30T09:51:24.426Z,,,,,,,,,,,,,,,,,51,,,,,,,,,,,,,,264.3679999150627,,response,,,,13,B,,,,,,Space,keypress(Space),,,,lyrical,,,,-------- industry --- --- ---- --- --- ------ -- --------<br>---- --------- --- ------- ------------ ---------- ---------<br>--- ---------- ------- ---------- ------- -- -------- ----<br>---- --- ------ ----- ------ -- ---- --- ----- -- - -------<br>-------- -- --- --- -- ----- ----------- ----- -----------<br>---- --- ---------- --- ---- --- -- ----------,205579.4149999274,205578.17499991506,205280.212,205280.93000000808,205313.807,205609.254,,1,industry
screen,html.Screen,2_3_1_0_1_2,2021-04-30T09:51:24.644Z,,,,,,,,,,,,,,,,,51,,,,,,,,,,,,,,186.24600000746432,,response,,,,13,B,,,,,,Space,keypress(Space),,,,lyrical,,,,-------- -------- may --- ---- --- --- ------ -- --------<br>---- --------- --- ------- ------------ ---------- ---------<br>--- ---------- ------- ---------- ------- -- -------- ----<br>---- --- ------ ----- ------ -- ---- --- ----- -- - -------<br>-------- -- --- --- -- ----- ----------- ----- -----------<br>---- --- ---------- --- ---- --- -- ----------,205796.6599999927,205795.50000000745,205565.938,205579.70999996178,205609.254,205829.473,,2,may
screen,html.Screen,2_3_1_0_1_3,2021-04-30T09:51:24.891Z,,,,,,,,,,,,,,,,,51,,,,,,,,,,,,,,213.09699993231334,,response,,,,13,B,,,,,,Space,keypress(Space),,,,lyrical,,,,-------- -------- --- not ---- --- --- ------ -- --------<br>---- --------- --- ------- ------------ ---------- ---------<br>--- ---------- ------- ---------- ------- -- -------- ----<br>---- --- ------ ----- ------ -- ---- --- ----- -- - -------<br>-------- -- --- --- -- ----- ----------- ----- -----------<br>---- --- ---------- --- ---- --- -- ----------,206043.7249999959,206042.5699999323,205781.526,205796.95999994874,205829.473,206069.312,,3,not
screen,html.Screen,2_3_1_0_1_4,2021-04-30T09:51:25.131Z,,,,,,,,,,,,,,,,,51,,,,,,,,,,,,,,213.3329999120033,,response,,,,13,B,,,,,,Space,keypress(Space),,,,lyrical,,,,-------- -------- --- --- know --- --- ------ -- --------<br>---- --------- --- ------- ------------ ---------- ---------<br>--- ---------- ------- ---------- ------- -- -------- ----<br>---- --- ------ ----- ------ -- ---- --- ----- -- - -------<br>-------- -- --- --- -- ----- ----------- ----- -----------<br>---- --- ---------- --- ---- --- -- ----------,206283.80500001367,206282.644999912,206032.194,206044.05999998562,206069.312,206309.444,,4,know
screen,html.Screen,2_3_1_0_1_5,2021-04-30T09:51:25.322Z,,,,,,,,,,,,,,,,,51,,,,,,,,,,,,,,164.1710000244493,,response,,,,13,B,,,,,,Space,keypress(Space),,,,lyrical,,,,"-------- -------- --- --- ---- it, --- ------ -- --------<br>---- --------- --- ------- ------------ ---------- ---------<br>--- ---------- ------- ---------- ------- -- -------- ----<br>---- --- ------ ----- ------ -- ---- --- ----- -- - -------<br>-------- -- --- --- -- ----- ----------- ----- -----------<br>---- --- ---------- --- ---- --- -- ----------",206474.9099999899,206473.61500002444,206279.27,206284.09999993164,206309.444,206499.134,,5,"it,"
screen,html.Screen,2_3_1_0_1_6,2021-04-30T09:51:25.660Z,,,,,,,,,,,,,,,,,51,,,,,,,,,,,,,,312.6159999934898,,response,,,,13,B,,,,,,Space,keypress(Space),,,,lyrical,,,,-------- -------- --- --- ---- --- but ------ -- --------<br>---- --------- --- ------- ------------ ---------- ---------<br>--- ---------- ------- ---------- ------- -- -------- ----<br>---- --- ------ ----- ------ -- ---- --- ----- -- - -------<br>-------- -- --- --- -- ----- ----------- ----- -----------<br>---- --- ---------- --- ---- --- -- ----------,206812.98499996774,206811.74999999348,206469.409,206475.25999997742,206499.134,206839.25,,6,but
screen,html.Screen,2_3_1_0_1_7,2021-04-30T09:51:25.872Z,,,,,,,,,,,,,,,,,51,,,,,,,,,,,,,,184.49500001315027,,response,,,,13,B,,,,,,Space,keypress(Space),,,,lyrical,,,,-------- -------- --- --- ---- --- --- debate -- --------<br>---- --------- --- ------- ------------ ---------- ---------<br>--- ---------- ------- ---------- ------- -- -------- ----<br>---- --- ------ ----- ------ -- ---- --- ----- -- - -------<br>-------- -- --- --- -- ----- ----------- ----- -----------<br>---- --- ---------- --- ---- --- -- ----------,207024.9049999984,207023.74500001315,206810.691,206813.27499996405,206839.25,207027.227,,7,debate
screen,html.Screen,2_3_1_0_1_8,2021-04-30T09:51:26.069Z,,,,,,,,,,,,,,,,,51,,,,,,,,,,,,,,193.69799991411855,,response,,,,13,B,,,,,,Space,keypress(Space),,,,lyrical,,,,-------- -------- --- --- ---- --- --- ------ in --------<br>---- --------- --- ------- ------------ ---------- ---------<br>--- ---------- ------- ---------- ------- -- -------- ----<br>---- --- ------ ----- ------ -- ---- --- ----- -- - -------<br>-------- -- --- --- -- ----- ----------- ----- -----------<br>---- --- ---------- --- ---- --- -- ----------,207222.08999993745,207220.92499991413,207014.927,207025.21999995224,207027.227,207249.417,,8,in
screen,html.Screen,2_3_1_0_1_9,2021-04-30T09:51:26.411Z,,,,,,,,,,,,,,,,,51,,,,,,,,,,,,,,312.92299994584755,,response,,,,13,B,,,,,,Space,keypress(Space),,,,lyrical,,,,-------- -------- --- --- ---- --- --- ------ -- Congress<br>---- --------- --- ------- ------------ ---------- ---------<br>--- ---------- ------- ---------- ------- -- -------- ----<br>---- --- ------ ----- ------ -- ---- --- ----- -- - -------<br>-------- -- --- --- -- ----- ----------- ----- -----------<br>---- --- ---------- --- ---- --- -- ----------,207563.45000001602,207562.33999994583,207210.586,207222.39499993157,207249.417,207565.51,,9,Congress
screen,html.Screen,2_3_1_0_1_10,2021-04-30T09:51:26.632Z,,,,,,,,,,,,,,,,,51,,,,,,,,,,,,,,218.28999997559004,,response,,,,13,B,,,,,,Space,keypress(Space),,,,lyrical,,,,-------- -------- --- --- ---- --- --- ------ -- --------<br>over --------- --- ------- ------------ ---------- ---------<br>--- ---------- ------- ---------- ------- -- -------- ----<br>---- --- ------ ----- ------ -- ---- --- ----- -- - -------<br>-------- -- --- --- -- ----- ----------- ----- -----------<br>---- --- ---------- --- ---- --- -- ----------,207785.09999997914,207783.7999999756,207557.578,207563.79499996547,207565.51,207809.381,,10,over
screen,html.Screen,2_3_1_0_1_11,2021-04-30T09:51:26.876Z,,,,,,,,,,,,,,,,,51,,,,,,,,,,,,,,217.72900002455572,,response,,,,13,B,,,,,,Space,keypress(Space),,,,lyrical,,,,-------- -------- --- --- ---- --- --- ------ -- --------<br>---- reforming --- ------- ------------ ---------- ---------<br>--- ---------- ------- ---------- ------- -- -------- ----<br>---- --- ------ ----- ------ -- ---- --- ----- -- - -------<br>-------- -- --- --- -- ----- ----------- ----- -----------<br>---- --- ---------- --- ---- --- -- ----------,208028.5750000039,208027.11000002455,207782.129,207785.5499999132,207809.381,208058.942,,11,reforming
screen,html.Screen,2_3_1_0_1_12,2021-04-30T09:51:27.250Z,,,,,,,,,,,,,,,,,51,,,,,,,,,,,,,,342.1679999770422,,response,,,,13,B,,,,,,Space,keypress(Space),,,,lyrical,,,,-------- -------- --- --- ---- --- --- ------ -- --------<br>---- --------- the ------- ------------ ---------- ---------<br>--- ---------- ------- ---------- ------- -- -------- ----<br>---- --- ------ ----- ------ -- ---- --- ----- -- - -------<br>-------- -- --- --- -- ----- ----------- ----- -----------<br>---- --- ---------- --- ---- --- -- ----------,208403.36499991827,208401.10999997705,208020.944,208028.99499994237,208058.942,208421.424,,12,the
screen,html.Screen,2_3_1_0_1_13,2021-04-30T09:51:27.476Z,,,,,,,,,,,,,,,,,51,,,,,,,,,,,,,,206.75099996163044,,response,,,,13,B,,,,,,Space,keypress(Space),,,,lyrical,,,,-------- -------- --- --- ---- --- --- ------ -- --------<br>---- --------- --- federal ------------ ---------- ---------<br>--- ---------- ------- ---------- ------- -- -------- ----<br>---- --- ------ ----- ------ -- ---- --- ----- -- - -------<br>-------- -- --- --- -- ----- ----------- ----- -----------<br>---- --- ---------- --- ---- --- -- ----------,208629.33999998495,208628.17499996163,208397.368,208403.91999995336,208421.424,208648.951,,13,federal
screen,html.Screen,2_3_1_0_1_14,2021-04-30T09:51:27.722Z,,,,,,,,,,,,,,,,,51,,,,,,,,,,,,,,224.85900001914706,,response,,,,13,B,,,,,,Space,keypress(Space),,,,lyrical,,,,-------- -------- --- --- ---- --- --- ------ -- --------<br>---- --------- --- ------- government's ---------- ---------<br>--- ---------- ------- ---------- ------- -- -------- ----<br>---- --- ------ ----- ------ -- ---- --- ----- -- - -------<br>-------- -- --- --- -- ----- ----------- ----- -----------<br>---- --- ---------- --- ---- --- -- ----------,208874.97499992605,208873.81000001915,208621.321,208629.63500001933,208648.951,208909.177,,14,government's
screen,html.Screen,2_3_1_0_1_15,2021-04-30T09:51:27.837Z,,,,,,,,,,,,,,,,,51,,,,,,,,,,,,,,80.06300002444186,,response,,,,13,B,,,,,,Space,keypress(Space),,,,lyrical,,,,-------- -------- --- --- ---- --- --- ------ -- --------<br>---- --------- --- ------- ------------ regulatory ---------<br>--- ---------- ------- ---------- ------- -- -------- ----<br>---- --- ------ ----- ------ -- ---- --- ----- -- - -------<br>-------- -- --- --- -- ----- ----------- ----- -----------<br>---- --- ---------- --- ---- --- -- ----------,208990.35999993794,208989.24000002444,208864.702,208875.2749999985,208909.177,208993.736,,15,regulatory
screen,html.Screen,2_3_1_0_1_16,2021-04-30T09:51:28.386Z,,,,,,,,,,,,,,,,,51,,,,,,,,,,,,,,543.5990000008896,,response,,,,13,B,,,,,,Space,keypress(Space),,,,lyrical,,,,-------- -------- --- --- ---- --- --- ------ -- --------<br>---- --------- --- ------- ------------ ---------- apparatus<br>--- ---------- ------- ---------- ------- -- -------- ----<br>---- --- ------ ----- ------ -- ---- --- ----- -- - -------<br>-------- -- --- --- -- ----- ----------- ----- -----------<br>---- --- ---------- --- ---- --- -- ----------,209538.6999999173,209537.3350000009,208977.286,208990.66499993205,208993.736,209559.325,,16,apparatus
screen,html.Screen,2_3_1_0_1_17,2021-04-30T09:51:29.002Z,,,,,,,,,,,,,,,,,51,,,,,,,,,,,,,,594.2500000038999,,response,,,,13,B,,,,,,Space,keypress(Space),,,,lyrical,,,,-------- -------- --- --- ---- --- --- ------ -- --------<br>---- --------- --- ------- ------------ ---------- ---------<br>may ---------- ------- ---------- ------- -- -------- ----<br>---- --- ------ ----- ------ -- ---- --- ----- -- - -------<br>-------- -- --- --- -- ----- ----------- ----- -----------<br>---- --- ---------- --- ---- --- -- ----------,210155.049999943,210153.5750000039,209527.366,209539.05999998096,209559.325,210189.491,,17,may
screen,html.Screen,2_3_1_0_1_18,2021-04-30T09:51:29.232Z,,,,,,,,,,,,,,,,,51,,,,,,,,,,,,,,194.47399992813007,,response,,,,13,B,,,,,,Space,keypress(Space),,,,lyrical,,,,-------- -------- --- --- ---- --- --- ------ -- --------<br>---- --------- --- ------- ------------ ---------- ---------<br>--- profoundly ------- ---------- ------- -- -------- ----<br>---- --- ------ ----- ------ -- ---- --- ----- -- - -------<br>-------- -- --- --- -- ----- ----------- ----- -----------<br>---- --- ---------- --- ---- --- -- ----------,210385.30999992508,210383.96499992814,210140.933,210155.4049999686,210189.491,210387.462,,18,profoundly
screen,html.Screen,2_3_1_0_1_19,2021-04-30T09:51:29.744Z,,,,,,,,,,,,,,,,,51,,,,,,,,,,,,,,508.5529999475111,,response,,,,13,B,,,,,,Space,keypress(Space),,,,lyrical,,,,-------- -------- --- --- ---- --- --- ------ -- --------<br>---- --------- --- ------- ------------ ---------- ---------<br>--- ---------- improve ---------- ------- -- -------- ----<br>---- --- ------ ----- ------ -- ---- --- ----- -- - -------<br>-------- -- --- --- -- ----- ----------- ----- -----------<br>---- --- ---------- --- ---- --- -- ----------,210897.27999991737,210896.0149999475,210374.058,210385.66999998875,210387.462,210899.501,,19,improve
screen,html.Screen,2_3_1_0_1_20,2021-04-30T09:51:30.248Z,,,,,,,,,,,,,,,,,51,,,,,,,,,,,,,,500.57400001230417,,response,,,,13,B,,,,,,Space,keypress(Space),,,,lyrical,,,,-------- -------- --- --- ---- --- --- ------ -- --------<br>---- --------- --- ------- ------------ ---------- ---------<br>--- ---------- ------- companies' ------- -- -------- ----<br>---- --- ------ ----- ------ -- ---- --- ----- -- - -------<br>-------- -- --- --- -- ----- ----------- ----- -----------<br>---- --- ---------- --- ---- --- -- ----------,211401.37500001583,211400.0750000123,210882.796,210897.64999994077,210899.501,211428.882,,20,companies'
screen,html.Screen,2_3_1_0_1_21,2021-04-30T09:51:30.602Z,,,,,,,,,,,,,,,,,51,,,,,,,,,,,,,,324.89299999011564,,response,,,,13,B,,,,,,Space,keypress(Space),,,,lyrical,,,,-------- -------- --- --- ---- --- --- ------ -- --------<br>---- --------- --- ------- ------------ ---------- ---------<br>--- ---------- ------- ---------- ability -- -------- ----<br>---- --- ------ ----- ------ -- ---- --- ----- -- - -------<br>-------- -- --- --- -- ----- ----------- ----- -----------<br>---- --- ---------- --- ---- --- -- ----------,211754.99499996658,211753.77499999013,211399.691,211401.69500000775,211428.882,211757.005,,21,ability
screen,html.Screen,2_3_1_0_1_22,2021-04-30T09:51:30.789Z,,,,,,,,,,,,,,,,,51,,,,,,,,,,,,,,183.49999994772952,,response,,,,13,B,,,,,,Space,keypress(Space),,,,lyrical,,,,-------- -------- --- --- ---- --- --- ------ -- --------<br>---- --------- --- ------- ------------ ---------- ---------<br>--- ---------- ------- ---------- ------- to -------- ----<br>---- --- ------ ----- ------ -- ---- --- ----- -- - -------<br>-------- -- --- --- -- ----- ----------- ----- -----------<br>---- --- ---------- --- ---- --- -- ----------,211941.7099999264,211940.50499994773,211753.39,211755.29499992263,211757.005,211969.287,,22,to
screen,html.Screen,2_3_1_0_1_23,2021-04-30T09:51:31.050Z,,,,,,,,,,,,,,,,,51,,,,,,,,,,,,,,232.50299996277317,,response,,,,13,B,,,,,,Space,keypress(Space),,,,lyrical,,,,-------- -------- --- --- ---- --- --- ------ -- --------<br>---- --------- --- ------- ------------ ---------- ---------<br>--- ---------- ------- ---------- ------- -- survive. ----<br>---- --- ------ ----- ------ -- ---- --- ----- -- - -------<br>-------- -- --- --- -- ----- ----------- ----- -----------<br>---- --- ---------- --- ---- --- -- ----------,212202.9099999927,212201.78999996278,211940.349,211942.00499996077,211969.287,212204.936,,23,survive.
screen,html.Screen,2_3_1_0_1_24,2021-04-30T09:51:31.506Z,,,,,,,,,,,,,,,,,51,,,,,,,,,,,,,,452.44399998965673,,response,,,,13,B,,,,,,Space,keypress(Space),,,,lyrical,,,,-------- -------- --- --- ---- --- --- ------ -- --------<br>---- --------- --- ------- ------------ ---------- ---------<br>--- ---------- ------- ---------- ------- -- -------- This<br>---- --- ------ ----- ------ -- ---- --- ----- -- - -------<br>-------- -- --- --- -- ----- ----------- ----- -----------<br>---- --- ---------- --- ---- --- -- ----------,212658.82499993313,212657.37999998964,212193.953,212203.20500002708,212204.936,212678.909,,24,This
screen,html.Screen,2_3_1_0_1_25,2021-04-30T09:51:31.908Z,,,,,,,,,,,,,,,,,51,,,,,,,,,,,,,,380.92599996362696,,response,,,,13,B,,,,,,Space,keypress(Space),,,,lyrical,,,,-------- -------- --- --- ---- --- --- ------ -- --------<br>---- --------- --- ------- ------------ ---------- ---------<br>--- ---------- ------- ---------- ------- -- -------- ----<br>week --- ------ ----- ------ -- ---- --- ----- -- - -------<br>-------- -- --- --- -- ----- ----------- ----- -----------<br>---- --- ---------- --- ---- --- -- ----------,213061.21999991592,213059.83499996364,212655.22,212659.16499996092,212678.909,213063.46,,25,week
screen,html.Screen,2_3_1_0_1_26,2021-04-30T09:51:32.256Z,,,,,,,,,,,,,,,,,51,,,,,,,,,,,,,,344.41499991712044,,response,,,,13,B,,,,,,Space,keypress(Space),,,,lyrical,,,,-------- -------- --- --- ---- --- --- ------ -- --------<br>---- --------- --- ------- ------------ ---------- ---------<br>--- ---------- ------- ---------- ------- -- -------- ----<br>---- the ------ ----- ------ -- ---- --- ----- -- - -------<br>-------- -- --- --- -- ----- ----------- ----- -----------<br>---- --- ---------- --- ---- --- -- ----------,213409.2749999836,213407.8749999171,213061.028,213061.57999997959,213063.46,213411.415,,26,the
screen,html.Screen,2_3_1_0_1_27,2021-04-30T09:51:32.524Z,,,,,,,,,,,,,,,,,51,,,,,,,,,,,,,,264.56999997983803,,response,,,,13,B,,,,,,Space,keypress(Space),,,,lyrical,,,,-------- -------- --- --- ---- --- --- ------ -- --------<br>---- --------- --- ------- ------------ ---------- ---------<br>--- ---------- ------- ---------- ------- -- -------- ----<br>---- --- Senate ----- ------ -- ---- --- ----- -- - -------<br>-------- -- --- --- -- ----- ----------- ----- -----------<br>---- --- ---------- --- ---- --- -- ----------,213677.41499992553,213675.98499997985,213397.055,213409.68499996234,213411.415,213699.128,,27,Senate
screen,html.Screen,2_3_1_0_1_28,2021-04-30T09:51:32.802Z,,,,,,,,,,,,,,,,,51,,,,,,,,,,,,,,254.31199995384668,,response,,,,13,B,,,,,,Space,keypress(Space),,,,lyrical,,,,-------- -------- --- --- ---- --- --- ------ -- --------<br>---- --------- --- ------- ------------ ---------- ---------<br>--- ---------- ------- ---------- ------- -- -------- ----<br>---- --- ------ seems ------ -- ---- --- ----- -- - -------<br>-------- -- --- --- -- ----- ----------- ----- -----------<br>---- --- ---------- --- ---- --- -- ----------,213954.86499997787,213953.43999995384,213678.303,213677.76499991305,213699.128,213956.984,,28,seems
screen,html.Screen,2_3_1_0_1_29,2021-04-30T09:51:33.137Z,,,,,,,,,,,,,,,,,51,,,,,,,,,,,,,,332.3909999348107,,response,,,,13,B,,,,,,Space,keypress(Space),,,,lyrical,,,,-------- -------- --- --- ---- --- --- ------ -- --------<br>---- --------- --- ------- ------------ ---------- ---------<br>--- ---------- ------- ---------- ------- -- -------- ----<br>---- --- ------ ----- poised -- ---- --- ----- -- - -------<br>-------- -- --- --- -- ----- ----------- ----- -----------<br>---- --- ---------- --- ---- --- -- ----------,214290.2400000021,214289.3749999348,213946.241,213955.22000000346,213956.984,214309.124,,29,poised
screen,html.Screen,2_3_1_0_1_30,2021-04-30T09:51:33.484Z,,,,,,,,,,,,,,,,,51,,,,,,,,,,,,,,326.30600002390565,,response,,,,13,B,,,,,,Space,keypress(Space),,,,lyrical,,,,-------- -------- --- --- ---- --- --- ------ -- --------<br>---- --------- --- ------- ------------ ---------- ---------<br>--- ---------- ------- ---------- ------- -- -------- ----<br>---- --- ------ ----- ------ to ---- --- ----- -- - -------<br>-------- -- --- --- -- ----- ----------- ----- -----------<br>---- --- ---------- --- ---- --- -- ----------,214636.5549999755,214635.43000002392,214290.29,214290.45999993104,214309.124,214656.938,,30,to
screen,html.Screen,2_3_1_0_1_31,2021-04-30T09:51:33.730Z,,,,,,,,,,,,,,,,,51,,,,,,,,,,,,,,224.2619999452436,,response,,,,13,B,,,,,,Space,keypress(Space),,,,lyrical,,,,-------- -------- --- --- ---- --- --- ------ -- --------<br>---- --------- --- ------- ------------ ---------- ---------<br>--- ---------- ------- ---------- ------- -- -------- ----<br>---- --- ------ ----- ------ -- join --- ----- -- - -------<br>-------- -- --- --- -- ----- ----------- ----- -----------<br>---- --- ---------- --- ---- --- -- ----------,214882.8949999297,214881.19999994524,214625.305,214636.88499992713,214656.938,214884.963,,31,join
screen,html.Screen,2_3_1_0_1_32,2021-04-30T09:51:34.061Z,,,,,,,,,,,,,,,,,51,,,,,,,,,,,,,,327.4619999178685,,response,,,,13,B,,,,,,Space,keypress(Space),,,,lyrical,,,,-------- -------- --- --- ---- --- --- ------ -- --------<br>---- --------- --- ------- ------------ ---------- ---------<br>--- ---------- ------- ---------- ------- -- -------- ----<br>---- --- ------ ----- ------ -- ---- the ----- -- - -------<br>-------- -- --- --- -- ----- ----------- ----- -----------<br>---- --- ---------- --- ---- --- -- ----------,215213.71499996167,215212.42499991786,214872.127,214883.24499991722,214884.963,215224.063,,32,the
screen,html.Screen,2_3_1_0_1_33,2021-04-30T09:51:34.389Z,,,,,,,,,,,,,,,,,51,,,,,,,,,,,,,,316.64199993395596,,response,,,,13,B,,,,,,Space,keypress(Space),,,,lyrical,,,,-------- -------- --- --- ---- --- --- ------ -- --------<br>---- --------- --- ------- ------------ ---------- ---------<br>--- ---------- ------- ---------- ------- -- -------- ----<br>---- --- ------ ----- ------ -- ---- --- House -- - -------<br>-------- -- --- --- -- ----- ----------- ----- -----------<br>---- --- ---------- --- ---- --- -- ----------,215542.0799999265,215540.70499993395,215201.92,215214.06999998726,215224.063,215569.563,,33,House
screen,html.Screen,2_3_1_0_1_34,2021-04-30T09:51:34.613Z,,,,,,,,,,,,,,,,,51,,,,,,,,,,,,,,195.52700000078767,,response,,,,13,B,,,,,,Space,keypress(Space),,,,lyrical,,,,-------- -------- --- --- ---- --- --- ------ -- --------<br>---- --------- --- ------- ------------ ---------- ---------<br>--- ---------- ------- ---------- ------- -- -------- ----<br>---- --- ------ ----- ------ -- ---- --- ----- in - -------<br>-------- -- --- --- -- ----- ----------- ----- -----------<br>---- --- ---------- --- ---- --- -- ----------,215766.40999992378,215765.09000000078,215540.741,215542.3899999587,215569.563,215768.64,,34,in
screen,html.Screen,2_3_1_0_1_35,2021-04-30T09:51:34.969Z,,,,,,,,,,,,,,,,,51,,,,,,,,,,,,,,351.9600000238279,,response,,,,13,B,,,,,,Space,keypress(Space),,,,lyrical,,,,-------- -------- --- --- ---- --- --- ------ -- --------<br>---- --------- --- ------- ------------ ---------- ---------<br>--- ---------- ------- ---------- ------- -- -------- ----<br>---- --- ------ ----- ------ -- ---- --- ----- -- a -------<br>-------- -- --- --- -- ----- ----------- ----- -----------<br>---- --- ---------- --- ---- --- -- ----------,216121.8499999959,216120.60000002384,215760.975,215766.83500001673,215768.64,216149.522,,35,a
screen,html.Screen,2_3_1_0_1_36,2021-04-30T09:51:35.213Z,,,,,,,,,,,,,,,,,51,,,,,,,,,,,,,,215.21799998998176,,response,,,,13,B,,,,,,Space,keypress(Space),,,,lyrical,,,,-------- -------- --- --- ---- --- --- ------ -- --------<br>---- --------- --- ------- ------------ ---------- ---------<br>--- ---------- ------- ---------- ------- -- -------- ----<br>---- --- ------ ----- ------ -- ---- --- ----- -- - massive<br>-------- -- --- --- -- ----- ----------- ----- -----------<br>---- --- ---------- --- ---- --- -- ----------,216366.16999993566,216364.73999998998,216118.782,216122.1900000237,216149.522,216389.292,,36,massive
screen,html.Screen,2_3_1_0_1_37,2021-04-30T09:51:35.706Z,,,,,,,,,,,,,,,,,51,,,,,,,,,,,,,,468.53299995549605,,response,,,,13,B,,,,,,Space,keypress(Space),,,,lyrical,,,,-------- -------- --- --- ---- --- --- ------ -- --------<br>---- --------- --- ------- ------------ ---------- ---------<br>--- ---------- ------- ---------- ------- -- -------- ----<br>---- --- ------ ----- ------ -- ---- --- ----- -- - -------<br>overhaul -- --- --- -- ----- ----------- ----- -----------<br>---- --- ---------- --- ---- --- -- ----------,216859.2850000132,216857.82499995548,216357.648,216366.51999992318,216389.292,216861.433,,37,overhaul
