sender,sender_type,sender_id,timestamp,meta,,Blues,Classical,Country,Dance,Electronic,Folk,Gospel,Hip-Hop,Jazz,Latin,Musical/Film,New-age,Pop,Prolific_id,Provo_ID,R&B,Rap,Reggae,Religious,Rock,Soul,Swing,Traditional,age,artist_name,correct,correctResponse,distraction,duration,education,ended_on,familiarity,gender,headphone_check_performance,item,list,music_frequency,offensiveness,pleasantness,position_correct,preference,response,response_action,snippet_file,song_name,song_rating,sound,stimulus_1,stimulus_2,stimulus_3,text,time_commit,time_end,time_render,time_run,time_show,time_switch,url,word,word_ID
Prolific ID,html.Form,0,2022-02-15T16:44:54.159Z,"{""labjs_version"":""20.2.2"",""labjs_build"":{""flavor"":""production"",""commit"":""a25486e0c714a0ae2ce03ff94b7bb6896854dcfa""},""location"":""https://run.pavlovia.org/mvasilev/prolific2_music_b/"",""userAgent"":""Mozilla/5.0 (Windows NT 10.0; Win64; x64) AppleWebKit/537.36 (KHTML, like Gecko) Chrome/97.0.4692.99 Safari/537.36 OPR/83.0.4254.46"",""platform"":""Win32"",""language"":""en-GB"",""locale"":""en-GB"",""timeZone"":""Europe/London"",""timezoneOffset"":0,""screen_width"":1920,""screen_height"":1080,""scroll_width"":1879,""scroll_height"":914,""window_innerWidth"":1879,""window_innerHeight"":962,""devicePixelRatio"":1}",,,,,,,,,,,,,,,5c6838ea5f8d580001e8a8ab,,,,,,,,,,,,,,,14408.597000002235,,form submission,,,,,,,,,,,,,,,,,,,,,24166.60000000149,24166.400000002235,9741.147,9756.20000000298,9757.803,24172.246,{},,
Introduction,html.Screen,1_0,2022-02-15T16:44:57.713Z,,,,,,,,,,,,,,,,,,,,,,,,,,,,,,,3547.054000000746,,response,,,,,,,,,,,continue,click button,,,,,,,,,27720.800000000745,27719.300000000745,24155.496,24166.900000002235,24172.246,27725.808,,,
Volume calibration,html.Screen,1_1,2022-02-15T16:45:13.027Z,,,,,,,,,,,,,,,,,,,,,,,,,,,,,,,15307.492000000744,,response,,,,,,,,,,,continue,click button,,,,,,,,,43035.60000000149,43033.300000000745,27709.108,27720.900000002235,27725.808,43041.124,,,
Task instructions,html.Screen,1_2,2022-02-15T16:45:19.100Z,,,,,,,,,,,,,,,,,,,,,,,,,,,,,,,6066.076000002977,,response,,,,,,,,,,,continue,click button,,,,,,,,,49107.900000002235,49107.20000000298,43024.351,43035.70000000298,43041.124,49113.838,,,
Sounds,html.Screen,1_3_0_0,2022-02-15T16:45:23.345Z,,,,,,,,,,,,,,,,,,,,,,,,,,,,,,,4254.197999999997,,timeout,,,,,,,,,1,,,,,,,,S,O,I,,53352.800000000745,53351.372,49097.096,49108.10000000149,49113.838,53368.036,,,
Judgement,html.Screen,1_3_0_1,2022-02-15T16:45:24.876Z,,,,,,,,,,,,,,,,,,,,,,,,,,,,true,1,,1515.264000000745,,response,,,,,,,,,1,,1,click #choice-1,,,,,S,O,I,,54884.10000000149,54883.300000000745,53351.372,53352.800000000745,53368.036,54902.861,,,
Trial,flow.Sequence,1_3_0,2022-02-15T16:45:24.876Z,,,,,,,,,,,,,,,,,,,,,,,,,,,,,,,5769.462000000742,,completion,,,,,,,,,1,,,,,,,,S,O,I,,54884.300000000745,54883.300000000745,49097.096,49108,49113.838,54902.861,,,
Sounds,html.Screen,1_3_1_0,2022-02-15T16:45:29.133Z,,,,,,,,,,,,,,,,,,,,,,,,,,,,,,,4254.276000000005,,timeout,,,,,,,,,2,,,,,,,,O,S,I,,59140.800000000745,59140.436,54886.202,54884.400000002235,54902.861,59157.137,,,
Judgement,html.Screen,1_3_1_1,2022-02-15T16:45:29.488Z,,,,,,,,,,,,,,,,,,,,,,,,,,,,true,2,,338.26300000223273,,response,,,,,,,,,2,,2,click #choice-2,,,,,O,S,I,,59496.60000000149,59495.400000002235,59140.436,59140.900000002235,59157.137,59507.519,,,
Trial,flow.Sequence,1_3_1,2022-02-15T16:45:29.489Z,,,,,,,,,,,,,,,,,,,,,,,,,,,,,,,4592.539000002238,,completion,,,,,,,,,2,,,,,,,,O,S,I,,59496.900000002235,59495.400000002235,54886.202,54884.300000000745,54902.861,59507.519,,,
Sounds,html.Screen,1_3_2_0,2022-02-15T16:45:33.738Z,,,,,,,,,,,,,,,,,,,,,,,,,,,,,,,4254.184999999998,,timeout,,,,,,,,,1,,,,,,,,S,I,O,,63745.400000002235,63745.009,59490.86,59497,59507.519,63761.704,,,
Judgement,html.Screen,1_3_2_1,2022-02-15T16:45:34.014Z,,,,,,,,,,,,,,,,,,,,,,,,,,,,true,1,,259.4960000029823,,response,,,,,,,,,1,,1,click #choice-1,,,,,S,I,O,,64022.10000000149,64021.20000000298,63745.009,63745.5,63761.704,64028.612,,,
Trial,flow.Sequence,1_3_2,2022-02-15T16:45:34.014Z,,,,,,,,,,,,,,,,,,,,,,,,,,,,,,,4513.68100000298,,completion,,,,,,,,,1,,,,,,,,S,I,O,,64022.20000000298,64021.20000000298,59490.86,59497,59507.519,64028.612,,,
Sounds,html.Screen,1_3_3_0,2022-02-15T16:45:38.259Z,,,,,,,,,,,,,,,,,,,,,,,,,,,,,,,4254.358,,timeout,,,,,,,,,3,,,,,,,,I,O,S,,68267,68266.214,64011.967,64022.20000000298,64028.612,68282.97,,,
Judgement,html.Screen,1_3_3_1,2022-02-15T16:45:38.578Z,,,,,,,,,,,,,,,,,,,,,,,,,,,,true,3,,302.3300000007439,,response,,,,,,,,,3,,3,click #choice-3,,,,,I,O,S,,68586,68585.30000000075,68266.214,68267,68282.97,68616.585,,,
Trial,flow.Sequence,1_3_3,2022-02-15T16:45:38.578Z,,,,,,,,,,,,,,,,,,,,,,,,,,,,,,,4556.688000000744,,completion,,,,,,,,,3,,,,,,,,I,O,S,,68586.10000000149,68585.30000000075,64011.967,64022.20000000298,64028.612,68616.585,,,
Sounds,html.Screen,1_3_4_0,2022-02-15T16:45:42.847Z,,,,,,,,,,,,,,,,,,,,,,,,,,,,,,,4254.231999999989,,timeout,,,,,,,,,3,,,,,,,,O,I,S,,72854.5,72854.106,68599.942,68586.20000000298,68616.585,72870.817,,,
Judgement,html.Screen,1_3_4_1,2022-02-15T16:45:43.157Z,,,,,,,,,,,,,,,,,,,,,,,,,,,,true,3,,292.68300000000454,,response,,,,,,,,,3,,3,click #choice-3,,,,,O,I,S,,73164.90000000224,73163.5,72854.106,72854.5,72870.817,73171.144,,,
Trial,flow.Sequence,1_3_4,2022-02-15T16:45:43.157Z,,,,,,,,,,,,,,,,,,,,,,,,,,,,,,,4546.914999999994,,completion,,,,,,,,,3,,,,,,,,O,I,S,,73165.20000000298,73163.5,68599.942,68586.10000000149,68616.585,73171.144,,,
Sounds,html.Screen,1_3_5_0,2022-02-15T16:45:47.401Z,,,,,,,,,,,,,,,,,,,,,,,,,,,,,,,4254.241999999998,,timeout,,,,,,,,,2,,,,,,,,I,S,O,,77409.10000000149,77408.727,73154.458,73165.30000000075,73171.144,77425.386,,,
Judgement,html.Screen,1_3_5_1,2022-02-15T16:45:47.712Z,,,,,,,,,,,,,,,,,,,,,,,,,,,,true,2,,293.91400000074646,,response,,,,,,,,,2,,2,click #choice-2,,,,,I,S,O,,77720.20000000298,77719.30000000075,77408.727,77409.10000000149,77425.386,77725.687,,,
Trial,flow.Sequence,1_3_5,2022-02-15T16:45:47.712Z,,,,,,,,,,,,,,,,,,,,,,,,,,,,,,,4548.156000000745,,completion,,,,,,,,,2,,,,,,,,I,S,O,,77720.20000000298,77719.30000000075,73154.458,73165.20000000298,73171.144,77725.687,,,
Task,flow.Loop,1_3,2022-02-15T16:45:47.715Z,,,,,,,,,,,,,,,,,,,,,,,,,,,,,,,28605.46200000074,,completion,,,1,,,,,,,,,,,,,,,,,,77722.40000000224,77719.30000000075,49097.096,49108,49113.838,77725.687,,,
Trap,html.Screen,1_4,2022-02-15T16:45:47.715Z,,,,,,,,,,,,,,,,,,,,,,,,,,,,,,,NaN,,skipped,,,,,,,,,,,,,,,,,,,,,77723.10000000149,77719.30000000075,,77723,,77725.687,,,
Thanks,html.Screen,1_5,2022-02-15T16:45:51.250Z,,,,,,,,,,,,,,,,,,,,,,,,,,,,,,,3531.6130000007397,,response,,,,,,,,,,,continue,click button,,,,,,,,,81258,81257.30000000075,77709.005,77723.10000000149,77725.687,83147.931,,,
Headphone screening,flow.Sequence,1,2022-02-15T16:45:51.250Z,,,,,,,,,,,,,,,,,,,,,,,,,,,,,,,57085.054000000746,,completion,,,,,,,,,,,,,,,,,,,,,81258,81257.30000000075,24155.496,24166.900000002235,24172.246,83147.931,,,
Instructions,html.Page,2_0,2022-02-15T16:46:12.646Z,,,,,,,,,,,,,,,,,,,,,,,,,,,,,,,19506.169000001493,,form submission,,,,,,,,,,,,,,,,,,,,,102654.20000000298,102654.10000000149,83114.353,83155.5,83147.931,102667.257,,,
Holding screen,html.Screen,2_1_0_0,2022-02-15T16:46:22.637Z,,,,,,,,,,,,,,,,,,,,,,,,,,,,,,,10043.320000000007,,timeout,,,,,,,,,,,,,,,,,,,,,112644.40000000224,112643.845,102650.514,102654.5,102667.257,112710.577,,,
screen,html.Screen,2_1_0_1_0,2022-02-15T16:46:23.627Z,,,,,,,,,,,,,,,,,53,,,,,,,,,,,,,,923.2230000007403,,response,,,,99,,,,,,,Space,keypress(Space),,,,,,,,When -- ----- -- ------ - ------- --- ----------<br>------------- ------ ------ ---- ---- ------- ----- -- ----<br>-------- ------- -- ---------- --- - --- ----- ----- ----<br>---- --- --- ----- --- ---- ---- ------- ----- ---- -------<br>--- --- -- ----- -- --- ---- -- --- ---- -- ------ ------<br>--- ----- -- ----,113635.40000000224,113633.80000000075,112643.845,112644.5,112710.577,113644.947,,0,When
screen,html.Screen,2_1_0_1_1,2022-02-15T16:46:24.491Z,,,,,,,,,,,,,,,,,53,,,,,,,,,,,,,,853.15300000149,,response,,,,99,,,,,,,Space,keypress(Space),,,,,,,,---- it ----- -- ------ - ------- --- ----------<br>------------- ------ ------ ---- ---- ------- ----- -- ----<br>-------- ------- -- ---------- --- - --- ----- ----- ----<br>---- --- --- ----- --- ---- ---- ------- ----- ---- -------<br>--- --- -- ----- -- --- ---- -- --- ---- -- ------ ------<br>--- ----- -- ----,114499.10000000149,114498.10000000149,113628.201,113635.40000000224,113644.947,114512.465,,1,it
screen,html.Screen,2_1_0_1_2,2022-02-15T16:46:24.883Z,,,,,,,,,,,,,,,,,53,,,,,,,,,,,,,,377.83500000074855,,response,,,,99,,,,,,,Space,keypress(Space),,,,,,,,---- -- comes -- ------ - ------- --- ----------<br>------------- ------ ------ ---- ---- ------- ----- -- ----<br>-------- ------- -- ---------- --- - --- ----- ----- ----<br>---- --- --- ----- --- ---- ---- ------- ----- ---- -------<br>--- --- -- ----- -- --- ---- -- --- ---- -- ------ ------<br>--- ----- -- ----,114891.20000000298,114890.30000000075,114495.652,114499.40000000224,114512.465,114896.17,,2,comes
screen,html.Screen,2_1_0_1_3,2022-02-15T16:46:25.211Z,,,,,,,,,,,,,,,,,53,,,,,,,,,,,,,,322.030000002982,,response,,,,99,,,,,,,Space,keypress(Space),,,,,,,,---- -- ----- to ------ - ------- --- ----------<br>------------- ------ ------ ---- ---- ------- ----- -- ----<br>-------- ------- -- ---------- --- - --- ----- ----- ----<br>---- --- --- ----- --- ---- ---- ------- ----- ---- -------<br>--- --- -- ----- -- --- ---- -- --- ---- -- ------ ------<br>--- ----- -- ----,115219.10000000149,115218.20000000298,114879.585,114891.5,114896.17,115229.956,,3,to
screen,html.Screen,2_1_0_1_4,2022-02-15T16:46:25.619Z,,,,,,,,,,,,,,,,,53,,,,,,,,,,,,,,396.1440000014845,,response,,,,99,,,,,,,Space,keypress(Space),,,,,,,,---- -- ----- -- having - ------- --- ----------<br>------------- ------ ------ ---- ---- ------- ----- -- ----<br>-------- ------- -- ---------- --- - --- ----- ----- ----<br>---- --- --- ----- --- ---- ---- ------- ----- ---- -------<br>--- --- -- ----- -- --- ---- -- --- ---- -- ------ ------<br>--- ----- -- ----,115627,115626.10000000149,115213.269,115219.30000000075,115229.956,115630.19,,4,having
screen,html.Screen,2_1_0_1_5,2022-02-15T16:46:25.979Z,,,,,,,,,,,,,,,,,53,,,,,,,,,,,,,,355.8099999999977,,response,,,,99,,,,,,,Space,keypress(Space),,,,,,,,---- -- ----- -- ------ a ------- --- ----------<br>------------- ------ ------ ---- ---- ------- ----- -- ----<br>-------- ------- -- ---------- --- - --- ----- ----- ----<br>---- --- --- ----- --- ---- ---- ------- ----- ---- -------<br>--- --- -- ----- -- --- ---- -- --- ---- -- ------ ------<br>--- ----- -- ----,115986.90000000224,115986,115613.466,115627.30000000075,115630.19,115997.425,,5,a
screen,html.Screen,2_1_0_1_6,2022-02-15T16:46:26.522Z,,,,,,,,,,,,,,,,,53,,,,,,,,,,,,,,532.0749999999971,,response,,,,99,,,,,,,Space,keypress(Space),,,,,,,,---- -- ----- -- ------ - lasting --- ----------<br>------------- ------ ------ ---- ---- ------- ----- -- ----<br>-------- ------- -- ---------- --- - --- ----- ----- ----<br>---- --- --- ----- --- ---- ---- ------- ----- ---- -------<br>--- --- -- ----- -- --- ---- -- --- ---- -- ------ ------<br>--- ----- -- ----,116530,116529.5,115980.641,115987.10000000149,115997.425,116555.027,,6,lasting
screen,html.Screen,2_1_0_1_7,2022-02-15T16:46:26.914Z,,,,,,,,,,,,,,,,,53,,,,,,,,,,,,,,366.47299999999814,,response,,,,99,,,,,,,Space,keypress(Space),,,,,,,,---- -- ----- -- ------ - ------- and ----------<br>------------- ------ ------ ---- ---- ------- ----- -- ----<br>-------- ------- -- ---------- --- - --- ----- ----- ----<br>---- --- --- ----- --- ---- ---- ------- ----- ---- -------<br>--- --- -- ----- -- --- ---- -- --- ---- -- ------ ------<br>--- ----- -- ----,116922,116921.5,116514.575,116530.10000000149,116555.027,116931.561,,7,and
screen,html.Screen,2_1_0_1_8,2022-02-15T16:46:27.434Z,,,,,,,,,,,,,,,,,53,,,,,,,,,,,,,,510.23900000074354,,response,,,,99,,,,,,,Space,keypress(Space),,,,,,,,---- -- ----- -- ------ - ------- --- fulfilling<br>------------- ------ ------ ---- ---- ------- ----- -- ----<br>-------- ------- -- ---------- --- - --- ----- ----- ----<br>---- --- --- ----- --- ---- ---- ------- ----- ---- -------<br>--- --- -- ----- -- --- ---- -- --- ---- -- ------ ------<br>--- ----- -- ----,117442.40000000224,117441.80000000075,116914.8,116922.10000000149,116931.561,117448.806,,8,fulfilling
screen,html.Screen,2_1_0_1_9,2022-02-15T16:46:27.875Z,,,,,,,,,,,,,,,,,53,,,,,,,,,,,,,,433.3940000029834,,response,,,,99,,,,,,,Space,keypress(Space),,,,,,,,"---- -- ----- -- ------ - ------- --- ----------<br>relationship, ------ ------ ---- ---- ------- ----- -- ----<br>-------- ------- -- ---------- --- - --- ----- ----- ----<br>---- --- --- ----- --- ---- ---- ------- ----- ---- -------<br>--- --- -- ----- -- --- ---- -- --- ---- -- ------ ------<br>--- ----- -- ----",117883,117882.20000000298,117431.917,117442.40000000224,117448.806,117899.335,,9,"relationship,"
screen,html.Screen,2_1_0_1_10,2022-02-15T16:46:28.434Z,,,,,,,,,,,,,,,,,53,,,,,,,,,,,,,,542.2650000014837,,response,,,,99,,,,,,,Space,keypress(Space),,,,,,,,---- -- ----- -- ------ - ------- --- ----------<br>------------- common ------ ---- ---- ------- ----- -- ----<br>-------- ------- -- ---------- --- - --- ----- ----- ----<br>---- --- --- ----- --- ---- ---- ------- ----- ---- -------<br>--- --- -- ----- -- --- ---- -- --- ---- -- ------ ------<br>--- ----- -- ----,118442.20000000298,118441.60000000149,117882.607,117883.20000000298,117899.335,118449.728,,10,common
screen,html.Screen,2_1_0_1_11,2022-02-15T16:46:29.275Z,,,,,,,,,,,,,,,,,53,,,,,,,,,,,,,,832.4720000029774,,response,,,,99,,,,,,,Space,keypress(Space),,,,,,,,---- -- ----- -- ------ - ------- --- ----------<br>------------- ------ wisdom ---- ---- ------- ----- -- ----<br>-------- ------- -- ---------- --- - --- ----- ----- ----<br>---- --- --- ----- --- ---- ---- ------- ----- ---- -------<br>--- --- -- ----- -- --- ---- -- --- ---- -- ------ ------<br>--- ----- -- ----,119283.10000000149,119282.20000000298,118433.077,118442.20000000298,118449.728,119300.721,,11,wisdom
screen,html.Screen,2_1_0_1_12,2022-02-15T16:46:29.747Z,,,,,,,,,,,,,,,,,53,,,,,,,,,,,,,,453.17900000223017,,response,,,,99,,,,,,,Space,keypress(Space),,,,,,,,---- -- ----- -- ------ - ------- --- ----------<br>------------- ------ ------ says ---- ------- ----- -- ----<br>-------- ------- -- ---------- --- - --- ----- ----- ----<br>---- --- --- ----- --- ---- ---- ------- ----- ---- -------<br>--- --- -- ----- -- --- ---- -- --- ---- -- ------ ------<br>--- ----- -- ----,119754.60000000149,119753.90000000224,119267.293,119283.20000000298,119300.721,119767.738,,12,says
screen,html.Screen,2_1_0_1_13,2022-02-15T16:46:30.115Z,,,,,,,,,,,,,,,,,53,,,,,,,,,,,,,,354.36200000149256,,response,,,,99,,,,,,,Space,keypress(Space),,,,,,,,---- -- ----- -- ------ - ------- --- ----------<br>------------- ------ ------ ---- that ------- ----- -- ----<br>-------- ------- -- ---------- --- - --- ----- ----- ----<br>---- --- --- ----- --- ---- ---- ------- ----- ---- -------<br>--- --- -- ----- -- --- ---- -- --- ---- -- ------ ------<br>--- ----- -- ----,120123.10000000149,120122.10000000149,119751.152,119754.70000000298,119767.738,120134.788,,13,that
screen,html.Screen,2_1_0_1_14,2022-02-15T16:46:30.435Z,,,,,,,,,,,,,,,,,53,,,,,,,,,,,,,,307.5120000007446,,response,,,,99,,,,,,,Space,keypress(Space),,,,,,,,---- -- ----- -- ------ - ------- --- ----------<br>------------- ------ ------ ---- ---- feeling ----- -- ----<br>-------- ------- -- ---------- --- - --- ----- ----- ----<br>---- --- --- ----- --- ---- ---- ------- ----- ---- -------<br>--- --- -- ----- -- --- ---- -- --- ---- -- ------ ------<br>--- ----- -- ----,120443.20000000298,120442.30000000075,120118.095,120123.20000000298,120134.788,120451.776,,14,feeling
screen,html.Screen,2_1_0_1_15,2022-02-15T16:46:30.771Z,,,,,,,,,,,,,,,,,53,,,,,,,,,,,,,,326.52400000074704,,response,,,,99,,,,,,,Space,keypress(Space),,,,,,,,---- -- ----- -- ------ - ------- --- ----------<br>------------- ------ ------ ---- ---- ------- close -- ----<br>-------- ------- -- ---------- --- - --- ----- ----- ----<br>---- --- --- ----- --- ---- ---- ------- ----- ---- -------<br>--- --- -- ----- -- --- ---- -- --- ---- -- ------ ------<br>--- ----- -- ----,120779.10000000149,120778.30000000075,120435.162,120443.30000000075,120451.776,120785.421,,15,close
screen,html.Screen,2_1_0_1_16,2022-02-15T16:46:31.051Z,,,,,,,,,,,,,,,,,53,,,,,,,,,,,,,,272.37900000074296,,response,,,,99,,,,,,,Space,keypress(Space),,,,,,,,---- -- ----- -- ------ - ------- --- ----------<br>------------- ------ ------ ---- ---- ------- ----- to ----<br>-------- ------- -- ---------- --- - --- ----- ----- ----<br>---- --- --- ----- --- ---- ---- ------- ----- ---- -------<br>--- --- -- ----- -- --- ---- -- --- ---- -- ------ ------<br>--- ----- -- ----,121058.30000000075,121057.80000000075,120768.634,120779.30000000075,120785.421,121069.159,,16,to
screen,html.Screen,2_1_0_1_17,2022-02-15T16:46:31.347Z,,,,,,,,,,,,,,,,,53,,,,,,,,,,,,,,284.94100000149047,,response,,,,99,,,,,,,Space,keypress(Space),,,,,,,,---- -- ----- -- ------ - ------- --- ----------<br>------------- ------ ------ ---- ---- ------- ----- -- your<br>-------- ------- -- ---------- --- - --- ----- ----- ----<br>---- --- --- ----- --- ---- ---- ------- ----- ---- -------<br>--- --- -- ----- -- --- ---- -- --- ---- -- ------ ------<br>--- ----- -- ----,121355,121354.10000000149,121052.338,121058.40000000224,121069.159,121369.365,,17,your
screen,html.Screen,2_1_0_1_18,2022-02-15T16:46:31.748Z,,,,,,,,,,,,,,,,,53,,,,,,,,,,,,,,384.835000002975,,response,,,,99,,,,,,,Space,keypress(Space),,,,,,,,---- -- ----- -- ------ - ------- --- ----------<br>------------- ------ ------ ---- ---- ------- ----- -- ----<br>romantic ------- -- ---------- --- - --- ----- ----- ----<br>---- --- --- ----- --- ---- ---- ------- ----- ---- -------<br>--- --- -- ----- -- --- ---- -- --- ---- -- ------ ------<br>--- ----- -- ----,121755.10000000149,121754.20000000298,121352.617,121355.20000000298,121369.365,121769.655,,18,romantic
screen,html.Screen,2_1_0_1_19,2022-02-15T16:46:32.020Z,,,,,,,,,,,,,,,,,53,,,,,,,,,,,,,,256.6450000007462,,response,,,,99,,,,,,,Space,keypress(Space),,,,,,,,---- -- ----- -- ------ - ------- --- ----------<br>------------- ------ ------ ---- ---- ------- ----- -- ----<br>-------- partner -- ---------- --- - --- ----- ----- ----<br>---- --- --- ----- --- ---- ---- ------- ----- ---- -------<br>--- --- -- ----- -- --- ---- -- --- ---- -- ------ ------<br>--- ----- -- ----,122027.10000000149,122026.30000000075,121753.105,121755.40000000224,121769.655,122036.662,,19,partner
screen,html.Screen,2_1_0_1_20,2022-02-15T16:46:32.347Z,,,,,,,,,,,,,,,,,53,,,,,,,,,,,,,,316.9380000014935,,response,,,,99,,,,,,,Space,keypress(Space),,,,,,,,---- -- ----- -- ------ - ------- --- ----------<br>------------- ------ ------ ---- ---- ------- ----- -- ----<br>-------- ------- is ---------- --- - --- ----- ----- ----<br>---- --- --- ----- --- ---- ---- ------- ----- ---- -------<br>--- --- -- ----- -- --- ---- -- --- ---- -- ------ ------<br>--- ----- -- ----,122354.20000000298,122353.60000000149,122019.865,122027.40000000224,122036.662,122370.445,,20,is
screen,html.Screen,2_1_0_1_21,2022-02-15T16:46:33.211Z,,,,,,,,,,,,,,,,,53,,,,,,,,,,,,,,847.2550000029732,,response,,,,99,,,,,,,Space,keypress(Space),,,,,,,,---- -- ----- -- ------ - ------- --- ----------<br>------------- ------ ------ ---- ---- ------- ----- -- ----<br>-------- ------- -- paramount. --- - --- ----- ----- ----<br>---- --- --- ----- --- ---- ---- ------- ----- ---- -------<br>--- --- -- ----- -- --- ---- -- --- ---- -- ------ ------<br>--- ----- -- ----,123218.10000000149,123217.70000000298,122353.737,122354.30000000075,122370.445,123221.106,,21,paramount.
screen,html.Screen,2_1_0_1_22,2022-02-15T16:46:33.613Z,,,,,,,,,,,,,,,,,53,,,,,,,,,,,,,,398.2940000022354,,response,,,,99,,,,,,,Space,keypress(Space),,,,,,,,---- -- ----- -- ------ - ------- --- ----------<br>------------- ------ ------ ---- ---- ------- ----- -- ----<br>-------- ------- -- ---------- But - --- ----- ----- ----<br>---- --- --- ----- --- ---- ---- ------- ----- ---- -------<br>--- --- -- ----- -- --- ---- -- --- ---- -- ------ ------<br>--- ----- -- ----,123620.20000000298,123619.40000000224,123204.33,123218.30000000075,123221.106,123652.865,,22,But
screen,html.Screen,2_1_0_1_23,2022-02-15T16:46:33.908Z,,,,,,,,,,,,,,,,,53,,,,,,,,,,,,,,261.7350000014849,,response,,,,99,,,,,,,Space,keypress(Space),,,,,,,,---- -- ----- -- ------ - ------- --- ----------<br>------------- ------ ------ ---- ---- ------- ----- -- ----<br>-------- ------- -- ---------- --- a --- ----- ----- ----<br>---- --- --- ----- --- ---- ---- ------- ----- ---- -------<br>--- --- -- ----- -- --- ---- -- --- ---- -- ------ ------<br>--- ----- -- ----,123915.40000000224,123914.60000000149,123604.823,123620.40000000224,123652.865,123921.959,,23,a
screen,html.Screen,2_1_0_1_24,2022-02-15T16:46:34.235Z,,,,,,,,,,,,,,,,,53,,,,,,,,,,,,,,319.74100000297767,,response,,,,99,,,,,,,Space,keypress(Space),,,,,,,,---- -- ----- -- ------ - ------- --- ----------<br>------------- ------ ------ ---- ---- ------- ----- -- ----<br>-------- ------- -- ---------- --- - new ----- ----- ----<br>---- --- --- ----- --- ---- ---- ------- ----- ---- -------<br>--- --- -- ----- -- --- ---- -- --- ---- -- ------ ------<br>--- ----- -- ----,124242.30000000075,124241.70000000298,123905.207,123915.60000000149,123921.959,124255.642,,24,new
screen,html.Screen,2_1_0_1_25,2022-02-15T16:46:34.547Z,,,,,,,,,,,,,,,,,53,,,,,,,,,,,,,,298.55800000297313,,response,,,,99,,,,,,,Space,keypress(Space),,,,,,,,---- -- ----- -- ------ - ------- --- ----------<br>------------- ------ ------ ---- ---- ------- ----- -- ----<br>-------- ------- -- ---------- --- - --- study ----- ----<br>---- --- --- ----- --- ---- ---- ------- ----- ---- -------<br>--- --- -- ----- -- --- ---- -- --- ---- -- ------ ------<br>--- ----- -- ----,124555.10000000149,124554.20000000298,124238.876,124242.30000000075,124255.642,124572.554,,25,study
screen,html.Screen,2_1_0_1_26,2022-02-15T16:46:34.803Z,,,,,,,,,,,,,,,,,53,,,,,,,,,,,,,,237.5460000014864,,response,,,,99,,,,,,,Space,keypress(Space),,,,,,,,---- -- ----- -- ------ - ------- --- ----------<br>------------- ------ ------ ---- ---- ------- ----- -- ----<br>-------- ------- -- ---------- --- - --- ----- finds ----<br>---- --- --- ----- --- ---- ---- ------- ----- ---- -------<br>--- --- -- ----- -- --- ---- -- --- ---- -- ------ ------<br>--- ----- -- ----,124810.90000000224,124810.10000000149,124555.804,124555.30000000075,124572.554,124822.867,,26,finds
screen,html.Screen,2_1_0_1_27,2022-02-15T16:46:35.027Z,,,,,,,,,,,,,,,,,53,,,,,,,,,,,,,,211.33300000298186,,response,,,,99,,,,,,,Space,keypress(Space),,,,,,,,---- -- ----- -- ------ - ------- --- ----------<br>------------- ------ ------ ---- ---- ------- ----- -- ----<br>-------- ------- -- ---------- --- - --- ----- ----- that<br>---- --- --- ----- --- ---- ---- ------- ----- ---- -------<br>--- --- -- ----- -- --- ---- -- --- ---- -- ------ ------<br>--- ----- -- ----,125035,125034.20000000298,124806.164,124811.30000000075,124822.867,125056.488,,27,that
screen,html.Screen,2_1_0_1_28,2022-02-15T16:46:35.604Z,,,,,,,,,,,,,,,,,53,,,,,,,,,,,,,,553.8120000007475,,response,,,,99,,,,,,,Space,keypress(Space),,,,,,,,---- -- ----- -- ------ - ------- --- ----------<br>------------- ------ ------ ---- ---- ------- ----- -- ----<br>-------- ------- -- ---------- --- - --- ----- ----- ----<br>it's --- --- ----- --- ---- ---- ------- ----- ---- -------<br>--- --- -- ----- -- --- ---- -- --- ---- -- ------ ------<br>--- ----- -- ----,125611.10000000149,125610.30000000075,125023.016,125035.20000000298,125056.488,125623.602,,28,it's
screen,html.Screen,2_1_0_1_29,2022-02-15T16:46:36.019Z,,,,,,,,,,,,,,,,,53,,,,,,,,,,,,,,402.39800000000105,,response,,,,99,,,,,,,Space,keypress(Space),,,,,,,,---- -- ----- -- ------ - ------- --- ----------<br>------------- ------ ------ ---- ---- ------- ----- -- ----<br>-------- ------- -- ---------- --- - --- ----- ----- ----<br>---- not --- ----- --- ---- ---- ------- ----- ---- -------<br>--- --- -- ----- -- --- ---- -- --- ---- -- ------ ------<br>--- ----- -- ----,126027,126026,125606.926,125611.30000000075,125623.602,126040.59,,29,not
screen,html.Screen,2_1_0_1_30,2022-02-15T16:46:36.306Z,,,,,,,,,,,,,,,,,53,,,,,,,,,,,,,,272.81000000223867,,response,,,,99,,,,,,,Space,keypress(Space),,,,,,,,---- -- ----- -- ------ - ------- --- ----------<br>------------- ------ ------ ---- ---- ------- ----- -- ----<br>-------- ------- -- ---------- --- - --- ----- ----- ----<br>---- --- how ----- --- ---- ---- ------- ----- ---- -------<br>--- --- -- ----- -- --- ---- -- --- ---- -- ------ ------<br>--- ----- -- ----,126313.90000000224,126313.40000000224,126023.891,126027.20000000298,126040.59,126324.187,,30,how
screen,html.Screen,2_1_0_1_31,2022-02-15T16:46:36.594Z,,,,,,,,,,,,,,,,,53,,,,,,,,,,,,,,277.1130000007397,,response,,,,99,,,,,,,Space,keypress(Space),,,,,,,,---- -- ----- -- ------ - ------- --- ----------<br>------------- ------ ------ ---- ---- ------- ----- -- ----<br>-------- ------- -- ---------- --- - --- ----- ----- ----<br>---- --- --- close --- ---- ---- ------- ----- ---- -------<br>--- --- -- ----- -- --- ---- -- --- ---- -- ------ ------<br>--- ----- -- ----,126601.80000000075,126601.30000000075,126307.476,126314.10000000149,126324.187,126607.798,,31,close
screen,html.Screen,2_1_0_1_32,2022-02-15T16:46:36.850Z,,,,,,,,,,,,,,,,,53,,,,,,,,,,,,,,249.50200000074983,,response,,,,99,,,,,,,Space,keypress(Space),,,,,,,,---- -- ----- -- ------ - ------- --- ----------<br>------------- ------ ------ ---- ---- ------- ----- -- ----<br>-------- ------- -- ---------- --- - --- ----- ----- ----<br>---- --- --- ----- you ---- ---- ------- ----- ---- -------<br>--- --- -- ----- -- --- ---- -- --- ---- -- ------ ------<br>--- ----- -- ----,126857.70000000298,126857.30000000075,126591.106,126601.90000000224,126607.798,126874.751,,32,you
screen,html.Screen,2_1_0_1_33,2022-02-15T16:46:37.194Z,,,,,,,,,,,,,,,,,53,,,,,,,,,,,,,,326.5490000007412,,response,,,,99,,,,,,,Space,keypress(Space),,,,,,,,---- -- ----- -- ------ - ------- --- ----------<br>------------- ------ ------ ---- ---- ------- ----- -- ----<br>-------- ------- -- ---------- --- - --- ----- ----- ----<br>---- --- --- ----- --- feel ---- ------- ----- ---- -------<br>--- --- -- ----- -- --- ---- -- --- ---- -- ------ ------<br>--- ----- -- ----,127201.60000000149,127201.30000000075,126858.08,126858.10000000149,126874.751,127208.436,,33,feel
screen,html.Screen,2_1_0_1_34,2022-02-15T16:46:37.531Z,,,,,,,,,,,,,,,,,53,,,,,,,,,,,,,,329.5639999999985,,response,,,,99,,,,,,,Space,keypress(Space),,,,,,,,---- -- ----- -- ------ - ------- --- ----------<br>------------- ------ ------ ---- ---- ------- ----- -- ----<br>-------- ------- -- ---------- --- - --- ----- ----- ----<br>---- --- --- ----- --- ---- that ------- ----- ---- -------<br>--- --- -- ----- -- --- ---- -- --- ---- -- ------ ------<br>--- ----- -- ----,127538.80000000075,127538,127191.758,127201.70000000298,127208.436,127542.065,,34,that
screen,html.Screen,2_1_0_1_35,2022-02-15T16:46:37.915Z,,,,,,,,,,,,,,,,,53,,,,,,,,,,,,,,380.1350000029779,,response,,,,99,,,,,,,Space,keypress(Space),,,,,,,,---- -- ----- -- ------ - ------- --- ----------<br>------------- ------ ------ ---- ---- ------- ----- -- ----<br>-------- ------- -- ---------- --- - --- ----- ----- ----<br>---- --- --- ----- --- ---- ---- matters ----- ---- -------<br>--- --- -- ----- -- --- ---- -- --- ---- -- ------ ------<br>--- ----- -- ----,127923,127922.20000000298,127525.355,127539,127542.065,127925.804,,35,matters
screen,html.Screen,2_1_0_1_36,2022-02-15T16:46:38.258Z,,,,,,,,,,,,,,,,,53,,,,,,,,,,,,,,339.59600000223145,,response,,,,99,,,,,,,Space,keypress(Space),,,,,,,,"---- -- ----- -- ------ - ------- --- ----------<br>------------- ------ ------ ---- ---- ------- ----- -- ----<br>-------- ------- -- ---------- --- - --- ----- ----- ----<br>---- --- --- ----- --- ---- ---- ------- most, ---- -------<br>--- --- -- ----- -- --- ---- -- --- ---- -- ------ ------<br>--- ----- -- ----",128265.90000000224,128265.40000000224,127909.118,127923.30000000075,127925.804,128276.18,,36,"most,"
screen,html.Screen,2_1_0_1_37,2022-02-15T16:46:38.682Z,,,,,,,,,,,,,,,,,53,,,,,,,,,,,,,,413.22000000224216,,response,,,,99,,,,,,,Space,keypress(Space),,,,,,,,---- -- ----- -- ------ - ------- --- ----------<br>------------- ------ ------ ---- ---- ------- ----- -- ----<br>-------- ------- -- ---------- --- - --- ----- ----- ----<br>---- --- --- ----- --- ---- ---- ------- ----- it's -------<br>--- --- -- ----- -- --- ---- -- --- ---- -- ------ ------<br>--- ----- -- ----,128690,128689.40000000224,128259.581,128266,128276.18,128693.221,,37,it's
screen,html.Screen,2_1_0_1_38,2022-02-15T16:46:39.060Z,,,,,,,,,,,,,,,,,53,,,,,,,,,,,,,,373.3790000014851,,response,,,,99,,,,,,,Space,keypress(Space),,,,,,,,---- -- ----- -- ------ - ------- --- ----------<br>------------- ------ ------ ---- ---- ------- ----- -- ----<br>-------- ------- -- ---------- --- - --- ----- ----- ----<br>---- --- --- ----- --- ---- ---- ------- ----- ---- whether<br>--- --- -- ----- -- --- ---- -- --- ---- -- ------ ------<br>--- ----- -- ----,129067.5,129066.60000000149,128676.525,128690.10000000149,128693.221,129077.149,,38,whether
screen,html.Screen,2_1_0_1_39,2022-02-15T16:46:39.371Z,,,,,,,,,,,,,,,,,53,,,,,,,,,,,,,,301.05100000297534,,response,,,,99,,,,,,,Space,keypress(Space),,,,,,,,---- -- ----- -- ------ - ------- --- ----------<br>------------- ------ ------ ---- ---- ------- ----- -- ----<br>-------- ------- -- ---------- --- - --- ----- ----- ----<br>---- --- --- ----- --- ---- ---- ------- ----- ---- -------<br>you --- -- ----- -- --- ---- -- --- ---- -- ------ ------<br>--- ----- -- ----,129379.10000000149,129378.20000000298,129060.211,129067.70000000298,129077.149,129393.967,,39,you
screen,html.Screen,2_1_0_1_40,2022-02-15T16:46:39.572Z,,,,,,,,,,,,,,,,,53,,,,,,,,,,,,,,184.33300000074087,,response,,,,99,,,,,,,Space,keypress(Space),,,,,,,,---- -- ----- -- ------ - ------- --- ----------<br>------------- ------ ------ ---- ---- ------- ----- -- ----<br>-------- ------- -- ---------- --- - --- ----- ----- ----<br>---- --- --- ----- --- ---- ---- ------- ----- ---- -------<br>--- are -- ----- -- --- ---- -- --- ---- -- ------ ------<br>--- ----- -- ----,129579.80000000075,129578.30000000075,129377.418,129379.30000000075,129393.967,129594.293,,40,are
screen,html.Screen,2_1_0_1_41,2022-02-15T16:46:39.772Z,,,,,,,,,,,,,,,,,53,,,,,,,,,,,,,,183.9070000029751,,response,,,,99,,,,,,,Space,keypress(Space),,,,,,,,---- -- ----- -- ------ - ------- --- ----------<br>------------- ------ ------ ---- ---- ------- ----- -- ----<br>-------- ------- -- ---------- --- - --- ----- ----- ----<br>---- --- --- ----- --- ---- ---- ------- ----- ---- -------<br>--- --- as ----- -- --- ---- -- --- ---- -- ------ ------<br>--- ----- -- ----,129779.10000000149,129778.20000000298,129577.617,129580,129594.293,129794.403,,41,as
screen,html.Screen,2_1_0_1_42,2022-02-15T16:46:40.115Z,,,,,,,,,,,,,,,,,53,,,,,,,,,,,,,,327.7970000029745,,response,,,,99,,,,,,,Space,keypress(Space),,,,,,,,---- -- ----- -- ------ - ------- --- ----------<br>------------- ------ ------ ---- ---- ------- ----- -- ----<br>-------- ------- -- ---------- --- - --- ----- ----- ----<br>---- --- --- ----- --- ---- ---- ------- ----- ---- -------<br>--- --- -- close -- --- ---- -- --- ---- -- ------ ------<br>--- ----- -- ----,130123.10000000149,130122.20000000298,129777.812,129779.30000000075,129794.403,130128.055,,42,close
screen,html.Screen,2_1_0_1_43,2022-02-15T16:46:40.402Z,,,,,,,,,,,,,,,,,53,,,,,,,,,,,,,,281.445000000007,,response,,,,99,,,,,,,Space,keypress(Space),,,,,,,,---- -- ----- -- ------ - ------- --- ----------<br>------------- ------ ------ ---- ---- ------- ----- -- ----<br>-------- ------- -- ---------- --- - --- ----- ----- ----<br>---- --- --- ----- --- ---- ---- ------- ----- ---- -------<br>--- --- -- ----- as --- ---- -- --- ---- -- ------ ------<br>--- ----- -- ----,130409.90000000224,130409.5,130111.338,130123.20000000298,130128.055,130411.596,,43,as
screen,html.Screen,2_1_0_1_44,2022-02-15T16:46:40.674Z,,,,,,,,,,,,,,,,,53,,,,,,,,,,,,,,269.903999999995,,response,,,,99,,,,,,,Space,keypress(Space),,,,,,,,---- -- ----- -- ------ - ------- --- ----------<br>------------- ------ ------ ---- ---- ------- ----- -- ----<br>-------- ------- -- ---------- --- - --- ----- ----- ----<br>---- --- --- ----- --- ---- ---- ------- ----- ---- -------<br>--- --- -- ----- -- you ---- -- --- ---- -- ------ ------<br>--- ----- -- ----,130682,130681.5,130395.149,130410,130411.596,130695.31,,44,you
screen,html.Screen,2_1_0_1_45,2022-02-15T16:46:40.835Z,,,,,,,,,,,,,,,,,53,,,,,,,,,,,,,,146.69000000000233,,response,,,,99,,,,,,,Space,keypress(Space),,,,,,,,---- -- ----- -- ------ - ------- --- ----------<br>------------- ------ ------ ---- ---- ------- ----- -- ----<br>-------- ------- -- ---------- --- - --- ----- ----- ----<br>---- --- --- ----- --- ---- ---- ------- ----- ---- -------<br>--- --- -- ----- -- --- want -- --- ---- -- ------ ------<br>--- ----- -- ----,130843,130842,130678.514,130682,130695.31,130845.395,,45,want
screen,html.Screen,2_1_0_1_46,2022-02-15T16:46:40.978Z,,,,,,,,,,,,,,,,,53,,,,,,,,,,,,,,140.10499999999593,,response,,,,99,,,,,,,Space,keypress(Space),,,,,,,,---- -- ----- -- ------ - ------- --- ----------<br>------------- ------ ------ ---- ---- ------- ----- -- ----<br>-------- ------- -- ---------- --- - --- ----- ----- ----<br>---- --- --- ----- --- ---- ---- ------- ----- ---- -------<br>--- --- -- ----- -- --- ---- to --- ---- -- ------ ------<br>--- ----- -- ----,130986.10000000149,130985.5,130828.829,130843.20000000298,130845.395,130995.581,,46,to
screen,html.Screen,2_1_0_1_47,2022-02-15T16:46:41.626Z,,,,,,,,,,,,,,,,,53,,,,,,,,,,,,,,637.9189999999944,,response,,,,99,,,,,,,Space,keypress(Space),,,,,,,,"---- -- ----- -- ------ - ------- --- ----------<br>------------- ------ ------ ---- ---- ------- ----- -- ----<br>-------- ------- -- ---------- --- - --- ----- ----- ----<br>---- --- --- ----- --- ---- ---- ------- ----- ---- -------<br>--- --- -- ----- -- --- ---- -- be, ---- -- ------ ------<br>--- ----- -- ----",131634.1000000015,131633.5,130978.831,130986.20000000298,130995.581,131646.218,,47,"be,"
screen,html.Screen,2_1_0_1_48,2022-02-15T16:46:42.003Z,,,,,,,,,,,,,,,,,53,,,,,,,,,,,,,,363.38200000149664,,response,,,,99,,,,,,,Space,keypress(Space),,,,,,,,---- -- ----- -- ------ - ------- --- ----------<br>------------- ------ ------ ---- ---- ------- ----- -- ----<br>-------- ------- -- ---------- --- - --- ----- ----- ----<br>---- --- --- ----- --- ---- ---- ------- ----- ---- -------<br>--- --- -- ----- -- --- ---- -- --- even -- ------ ------<br>--- ----- -- ----,132010.1000000015,132009.6000000015,131629.418,131634.1000000015,131646.218,132013.265,,48,even
screen,html.Screen,2_1_0_1_49,2022-02-15T16:46:42.283Z,,,,,,,,,,,,,,,,,53,,,,,,,,,,,,,,276.93500000296626,,response,,,,99,,,,,,,Space,keypress(Space),,,,,,,,---- -- ----- -- ------ - ------- --- ----------<br>------------- ------ ------ ---- ---- ------- ----- -- ----<br>-------- ------- -- ---------- --- - --- ----- ----- ----<br>---- --- --- ----- --- ---- ---- ------- ----- ---- -------<br>--- --- -- ----- -- --- ---- -- --- ---- if ------ ------<br>--- ----- -- ----,132291,132290.20000000298,131996.519,132010.20000000298,132013.265,132296.934,,49,if
screen,html.Screen,2_1_0_1_50,2022-02-15T16:46:42.411Z,,,,,,,,,,,,,,,,,53,,,,,,,,,,,,,,121.26600000297185,,response,,,,99,,,,,,,Space,keypress(Space),,,,,,,,---- -- ----- -- ------ - ------- --- ----------<br>------------- ------ ------ ---- ---- ------- ----- -- ----<br>-------- ------- -- ---------- --- - --- ----- ----- ----<br>---- --- --- ----- --- ---- ---- ------- ----- ---- -------<br>--- --- -- ----- -- --- ---- -- --- ---- -- that's ------<br>--- ----- -- ----,132419.1000000015,132418.20000000298,132280.303,132291.30000000075,132296.934,132430.421,,50,that's
screen,html.Screen,2_1_0_1_51,2022-02-15T16:46:42.835Z,,,,,,,,,,,,,,,,,53,,,,,,,,,,,,,,411.679000001488,,response,,,,99,,,,,,,Space,keypress(Space),,,,,,,,---- -- ----- -- ------ - ------- --- ----------<br>------------- ------ ------ ---- ---- ------- ----- -- ----<br>-------- ------- -- ---------- --- - --- ----- ----- ----<br>---- --- --- ----- --- ---- ---- ------- ----- ---- -------<br>--- --- -- ----- -- --- ---- -- --- ---- -- ------ really<br>--- ----- -- ----,132843,132842.1000000015,132413.81,132419.30000000075,132430.421,132847.362,,51,really
screen,html.Screen,2_1_0_1_52,2022-02-15T16:46:43.186Z,,,,,,,,,,,,,,,,,53,,,,,,,,,,,,,,346.1380000000063,,response,,,,99,,,,,,,Space,keypress(Space),,,,,,,,---- -- ----- -- ------ - ------- --- ----------<br>------------- ------ ------ ---- ---- ------- ----- -- ----<br>-------- ------- -- ---------- --- - --- ----- ----- ----<br>---- --- --- ----- --- ---- ---- ------- ----- ---- -------<br>--- --- -- ----- -- --- ---- -- --- ---- -- ------ ------<br>not ----- -- ----,133193.90000000224,133193.5,132830.732,132843.20000000298,132847.362,133197.809,,52,not
screen,html.Screen,2_1_0_1_53,2022-02-15T16:46:43.475Z,,,,,,,,,,,,,,,,,53,,,,,,,,,,,,,,284.1909999999916,,response,,,,99,,,,,,,Space,keypress(Space),,,,,,,,---- -- ----- -- ------ - ------- --- ----------<br>------------- ------ ------ ---- ---- ------- ----- -- ----<br>-------- ------- -- ---------- --- - --- ----- ----- ----<br>---- --- --- ----- --- ---- ---- ------- ----- ---- -------<br>--- --- -- ----- -- --- ---- -- --- ---- -- ------ ------<br>--- close -- ----,133482.90000000224,133482,133181.207,133194,133197.809,133498.188,,53,close
screen,html.Screen,2_1_0_1_54,2022-02-15T16:46:43.765Z,,,,,,,,,,,,,,,,,53,,,,,,,,,,,,,,273.1120000007504,,response,,,,99,,,,,,,Space,keypress(Space),,,,,,,,---- -- ----- -- ------ - ------- --- ----------<br>------------- ------ ------ ---- ---- ------- ----- -- ----<br>-------- ------- -- ---------- --- - --- ----- ----- ----<br>---- --- --- ----- --- ---- ---- ------- ----- ---- -------<br>--- --- -- ----- -- --- ---- -- --- ---- -- ------ ------<br>--- ----- at ----,133772,133771.30000000075,133481.494,133483.1000000015,133498.188,133781.824,,54,at
screen,html.Screen,2_1_0_1_55,2022-02-15T16:46:44.004Z,,,,,,,,,,,,,,,,,53,,,,,,,,,,,,,,228.57600000224193,,response,,,,99,,,,,,,Space,keypress(Space),,,,,,,,---- -- ----- -- ------ - ------- --- ----------<br>------------- ------ ------ ---- ---- ------- ----- -- ----<br>-------- ------- -- ---------- --- - --- ----- ----- ----<br>---- --- --- ----- --- ---- ---- ------- ----- ---- -------<br>--- --- -- ----- -- --- ---- -- --- ---- -- ------ ------<br>--- ----- -- all.,134011.30000000075,134010.40000000224,133765.147,133772.30000000075,133781.824,134015.201,,55,all.
Item 99,flow.Loop,2_1_0_1,2022-02-15T16:46:44.004Z,,,,,,,,,,,,,,,,,,,,,,,,,,,,,,,21299.82300000223,,completion,,,,,B,,,,,,,,,,,silence,,,,,134011.70000000298,134010.40000000224,112643.845,112644.5,112710.577,134015.201,,,
Question 1,html.Screen,2_1_0_2,2022-02-15T16:46:49.097Z,,,,,,,,,,,,,,,,,,,,,,,,,,,,true,FALSE,,5088.099000000744,,response,,,,99,B,,,,,,FALSE,click #choice-2,,,,silence,,,,,139104.30000000075,139103.30000000075,133998.627,134011.90000000224,134015.201,139120.36,,,
Question 2,html.Screen,2_1_0_3,2022-02-15T16:46:55.165Z,,,,,,,,,,,,,,,,,,,,,,,,,,,,true,TRUE,,6051.040000002249,,response,,,,99,B,,,,,,TRUE,click #choice-1,,,,silence,,,,,145172.1000000015,145171.40000000224,139103.633,139104.40000000224,139120.36,145193.067,,,
Item 99,flow.Sequence,2_1_0,2022-02-15T16:46:55.165Z,,,,,,,,,,,,,,,,,,,,,,,,,,,,,,,42504.14300000224,,completion,,,,,,,,,,,,,,,,,,,,,145172.20000000298,145171.40000000224,102650.514,102654.5,102667.257,145193.067,,,
Holding screen,html.Screen,2_1_1_0,2022-02-15T16:47:05.163Z,,,,,,,,,,,,,,,,,,,,,,,,,,,,,,,9993.25999999998,,timeout,,,,,,,,,,,,,,,,,,,,,155170.70000000298,155169.882,145176.354,145172.30000000075,145193.067,155186.327,,,
screen,html.Screen,2_1_1_1_0,2022-02-15T16:47:05.932Z,,,,,,,,,,,,,,,,,54,,,,,,,,,,,,,,752.2730000014999,,response,,,,100,,,,,,,Space,keypress(Space),,,,,,,,At --- ---- --- ------ ----- ------- ---- -- --- ------- --<br>------- ---------- ------ -- ----- -- ----- -- ---- ------<br>--- ----- --- --- ------ -------- ----- --- ------ ----- --<br>----- ----- ---------- --- --- ------ ------ ---- -- ------<br>------- --- ------ ----- --- ---- ------- -- ---- --- --<br>------- ------,155939.6000000015,155938.6000000015,155169.882,155171,155186.327,155953.811,,0,At
screen,html.Screen,2_1_1_1_1,2022-02-15T16:47:06.312Z,,,,,,,,,,,,,,,,,54,,,,,,,,,,,,,,365.5890000022482,,response,,,,100,,,,,,,Space,keypress(Space),,,,,,,,-- the ---- --- ------ ----- ------- ---- -- --- ------- --<br>------- ---------- ------ -- ----- -- ----- -- ---- ------<br>--- ----- --- --- ------ -------- ----- --- ------ ----- --<br>----- ----- ---------- --- --- ------ ------ ---- -- ------<br>------- --- ------ ----- --- ---- ------- -- ---- --- --<br>------- ------,156319.90000000224,156319.40000000224,155937.19,155939.80000000075,155953.811,156344.279,,1,the
screen,html.Screen,2_1_1_1_2,2022-02-15T16:47:06.666Z,,,,,,,,,,,,,,,,,54,,,,,,,,,,,,,,329.1210000022256,,response,,,,100,,,,,,,Space,keypress(Space),,,,,,,,-- --- time --- ------ ----- ------- ---- -- --- ------- --<br>------- ---------- ------ -- ----- -- ----- -- ---- ------<br>--- ----- --- --- ------ -------- ----- --- ------ ----- --<br>----- ----- ---------- --- --- ------ ------ ---- -- ------<br>------- --- ------ ----- --- ---- ------- -- ---- --- --<br>------- ------,156673.80000000075,156673.40000000224,156304.161,156320,156344.279,156687.916,,2,time
screen,html.Screen,2_1_1_1_3,2022-02-15T16:47:06.947Z,,,,,,,,,,,,,,,,,54,,,,,,,,,,,,,,266.1840000014927,,response,,,,100,,,,,,,Space,keypress(Space),,,,,,,,-- --- ---- the ------ ----- ------- ---- -- --- ------- --<br>------- ---------- ------ -- ----- -- ----- -- ---- ------<br>--- ----- --- --- ------ -------- ----- --- ------ ----- --<br>----- ----- ---------- --- --- ------ ------ ---- -- ------<br>------- --- ------ ----- --- ---- ------- -- ---- --- --<br>------- ------,156955,156954.1000000015,156671.336,156673.80000000075,156687.916,156971.614,,3,the
screen,html.Screen,2_1_1_1_4,2022-02-15T16:47:07.299Z,,,,,,,,,,,,,,,,,54,,,,,,,,,,,,,,334.58600000297884,,response,,,,100,,,,,,,Space,keypress(Space),,,,,,,,-- --- ---- --- French ----- ------- ---- -- --- ------- --<br>------- ---------- ------ -- ----- -- ----- -- ---- ------<br>--- ----- --- --- ------ -------- ----- --- ------ ----- --<br>----- ----- ---------- --- --- ------ ------ ---- -- ------<br>------- --- ------ ----- --- ---- ------- -- ---- --- --<br>------- ------,157307,157306.20000000298,156954.796,156955.20000000298,156971.614,157322.003,,4,French
screen,html.Screen,2_1_1_1_5,2022-02-15T16:47:07.819Z,,,,,,,,,,,,,,,,,54,,,,,,,,,,,,,,504.19700000298326,,response,,,,100,,,,,,,Space,keypress(Space),,,,,,,,-- --- ---- --- ------ crown ------- ---- -- --- ------- --<br>------- ---------- ------ -- ----- -- ----- -- ---- ------<br>--- ----- --- --- ------ -------- ----- --- ------ ----- --<br>----- ----- ---------- --- --- ------ ------ ---- -- ------<br>------- --- ------ ----- --- ---- ------- -- ---- --- --<br>------- ------,157827,157826.20000000298,157305.182,157307.20000000298,157322.003,157839.072,,5,crown
screen,html.Screen,2_1_1_1_6,2022-02-15T16:47:08.147Z,,,,,,,,,,,,,,,,,54,,,,,,,,,,,,,,314.8280000022496,,response,,,,100,,,,,,,Space,keypress(Space),,,,,,,,-- --- ---- --- ------ ----- secured ---- -- --- ------- --<br>------- ---------- ------ -- ----- -- ----- -- ---- ------<br>--- ----- --- --- ------ -------- ----- --- ------ ----- --<br>----- ----- ---------- --- --- ------ ------ ---- -- ------<br>------- --- ------ ----- --- ---- ------- -- ---- --- --<br>------- ------,158154.5,158153.90000000224,157822.421,157827.20000000298,157839.072,158180.949,,6,secured
screen,html.Screen,2_1_1_1_7,2022-02-15T16:47:08.475Z,,,,,,,,,,,,,,,,,54,,,,,,,,,,,,,,301.251000002987,,response,,,,100,,,,,,,Space,keypress(Space),,,,,,,,-- --- ---- --- ------ ----- ------- much -- --- ------- --<br>------- ---------- ------ -- ----- -- ----- -- ---- ------<br>--- ----- --- --- ------ -------- ----- --- ------ ----- --<br>----- ----- ---------- --- --- ------ ------ ---- -- ------<br>------- --- ------ ----- --- ---- ------- -- ---- --- --<br>------- ------,158483.1000000015,158482.20000000298,158139.435,158154.70000000298,158180.949,158489.652,,7,much
screen,html.Screen,2_1_1_1_8,2022-02-15T16:47:08.787Z,,,,,,,,,,,,,,,,,54,,,,,,,,,,,,,,304.6480000007432,,response,,,,100,,,,,,,Space,keypress(Space),,,,,,,,-- --- ---- --- ------ ----- ------- ---- of --- ------- --<br>------- ---------- ------ -- ----- -- ----- -- ---- ------<br>--- ----- --- --- ------ -------- ----- --- ------ ----- --<br>----- ----- ---------- --- --- ------ ------ ---- -- ------<br>------- --- ------ ----- --- ---- ------- -- ---- --- --<br>------- ------,158795.1000000015,158794.30000000075,158473.072,158483.20000000298,158489.652,158806.794,,8,of
screen,html.Screen,2_1_1_1_9,2022-02-15T16:47:09.028Z,,,,,,,,,,,,,,,,,54,,,,,,,,,,,,,,227.3060000014957,,response,,,,100,,,,,,,Space,keypress(Space),,,,,,,,-- --- ---- --- ------ ----- ------- ---- -- its ------- --<br>------- ---------- ------ -- ----- -- ----- -- ---- ------<br>--- ----- --- --- ------ -------- ----- --- ------ ----- --<br>----- ----- ---------- --- --- ------ ------ ---- -- ------<br>------- --- ------ ----- --- ---- ------- -- ---- --- --<br>------- ------,159035.1000000015,159034.1000000015,158790.084,158795.30000000075,158806.794,159040.191,,9,its
screen,html.Screen,2_1_1_1_10,2022-02-15T16:47:09.156Z,,,,,,,,,,,,,,,,,54,,,,,,,,,,,,,,122.10900000075344,,response,,,,100,,,,,,,Space,keypress(Space),,,,,,,,-- --- ---- --- ------ ----- ------- ---- -- --- revenue --<br>------- ---------- ------ -- ----- -- ----- -- ---- ------<br>--- ----- --- --- ------ -------- ----- --- ------ ----- --<br>----- ----- ---------- --- --- ------ ------ ---- -- ------<br>------- --- ------ ----- --- ---- ------- -- ---- --- --<br>------- ------,159163.20000000298,159162.30000000075,159023.707,159035.30000000075,159040.191,159173.759,,10,revenue
screen,html.Screen,2_1_1_1_11,2022-02-15T16:47:09.643Z,,,,,,,,,,,,,,,,,54,,,,,,,,,,,,,,476.4410000029893,,response,,,,100,,,,,,,Space,keypress(Space),,,,,,,,-- --- ---- --- ------ ----- ------- ---- -- --- ------- by<br>------- ---------- ------ -- ----- -- ----- -- ---- ------<br>--- ----- --- --- ------ -------- ----- --- ------ ----- --<br>----- ----- ---------- --- --- ------ ------ ---- -- ------<br>------- --- ------ ----- --- ---- ------- -- ---- --- --<br>------- ------,159651.1000000015,159650.20000000298,159157.139,159163.30000000075,159173.759,159657.693,,11,by
screen,html.Screen,2_1_1_1_12,2022-02-15T16:47:10.027Z,,,,,,,,,,,,,,,,,54,,,,,,,,,,,,,,376.3070000000007,,response,,,,100,,,,,,,Space,keypress(Space),,,,,,,,-- --- ---- --- ------ ----- ------- ---- -- --- ------- --<br>issuing ---------- ------ -- ----- -- ----- -- ---- ------<br>--- ----- --- --- ------ -------- ----- --- ------ ----- --<br>----- ----- ---------- --- --- ------ ------ ---- -- ------<br>------- --- ------ ----- --- ---- ------- -- ---- --- --<br>------- ------,160034.90000000224,160034,159640.811,159651.30000000075,159657.693,160041.25,,12,issuing
screen,html.Screen,2_1_1_1_13,2022-02-15T16:47:10.483Z,,,,,,,,,,,,,,,,,54,,,,,,,,,,,,,,448.95000000298023,,response,,,,100,,,,,,,Space,keypress(Space),,,,,,,,-- --- ---- --- ------ ----- ------- ---- -- --- ------- --<br>------- government ------ -- ----- -- ----- -- ---- ------<br>--- ----- --- --- ------ -------- ----- --- ------ ----- --<br>----- ----- ---------- --- --- ------ ------ ---- -- ------<br>------- --- ------ ----- --- ---- ------- -- ---- --- --<br>------- ------,160491.1000000015,160490.20000000298,160024.517,160035.1000000015,160041.25,160508.562,,13,government
screen,html.Screen,2_1_1_1_14,2022-02-15T16:47:11.139Z,,,,,,,,,,,,,,,,,54,,,,,,,,,,,,,,637.5380000014848,,response,,,,100,,,,,,,Space,keypress(Space),,,,,,,,-- --- ---- --- ------ ----- ------- ---- -- --- ------- --<br>------- ---------- bonds. -- ----- -- ----- -- ---- ------<br>--- ----- --- --- ------ -------- ----- --- ------ ----- --<br>----- ----- ---------- --- --- ------ ------ ---- -- ------<br>------- --- ------ ----- --- ---- ------- -- ---- --- --<br>------- ------,161146.90000000224,161146.1000000015,160491.856,160491.30000000075,160508.562,161159.204,,14,bonds.
screen,html.Screen,2_1_1_1_15,2022-02-15T16:47:11.555Z,,,,,,,,,,,,,,,,,54,,,,,,,,,,,,,,403.09600000074715,,response,,,,100,,,,,,,Space,keypress(Space),,,,,,,,-- --- ---- --- ------ ----- ------- ---- -- --- ------- --<br>------- ---------- ------ In ----- -- ----- -- ---- ------<br>--- ----- --- --- ------ -------- ----- --- ------ ----- --<br>----- ----- ---------- --- --- ------ ------ ---- -- ------<br>------- --- ------ ----- --- ---- ------- -- ---- --- --<br>------- ------,161563.1000000015,161562.30000000075,161142.311,161147.20000000298,161159.204,161576.202,,15,In
screen,html.Screen,2_1_1_1_16,2022-02-15T16:47:11.795Z,,,,,,,,,,,,,,,,,54,,,,,,,,,,,,,,225.99800000299,,response,,,,100,,,,,,,Space,keypress(Space),,,,,,,,"-- --- ---- --- ------ ----- ------- ---- -- --- ------- --<br>------- ---------- ------ -- 1727, -- ----- -- ---- ------<br>--- ----- --- --- ------ -------- ----- --- ------ ----- --<br>----- ----- ---------- --- --- ------ ------ ---- -- ------<br>------- --- ------ ----- --- ---- ------- -- ---- --- --<br>------- ------",161803.1000000015,161802.20000000298,161559.396,161563.20000000298,161576.202,161809.725,,16,"1727,"
screen,html.Screen,2_1_1_1_17,2022-02-15T16:47:13.178Z,,,,,,,,,,,,,,,,,54,,,,,,,,,,,,,,1375.6750000022294,,response,,,,100,,,,,,,Space,keypress(Space),,,,,,,,-- --- ---- --- ------ ----- ------- ---- -- --- ------- --<br>------- ---------- ------ -- ----- in ----- -- ---- ------<br>--- ----- --- --- ------ -------- ----- --- ------ ----- --<br>----- ----- ---------- --- --- ------ ------ ---- -- ------<br>------- --- ------ ----- --- ---- ------- -- ---- --- --<br>------- ------,163185.80000000075,163185.40000000224,161793.077,161803.30000000075,161809.725,163194.315,,17,in
screen,html.Screen,2_1_1_1_18,2022-02-15T16:47:13.651Z,,,,,,,,,,,,,,,,,54,,,,,,,,,,,,,,463.48500000074273,,response,,,,100,,,,,,,Space,keypress(Space),,,,,,,,-- --- ---- --- ------ ----- ------- ---- -- --- ------- --<br>------- ---------- ------ -- ----- -- order -- ---- ------<br>--- ----- --- --- ------ -------- ----- --- ------ ----- --<br>----- ----- ---------- --- --- ------ ------ ---- -- ------<br>------- --- ------ ----- --- ---- ------- -- ---- --- --<br>------- ------,163658.30000000075,163657.80000000075,163177.772,163185.80000000075,163194.315,163661.556,,18,order
screen,html.Screen,2_1_1_1_19,2022-02-15T16:47:13.932Z,,,,,,,,,,,,,,,,,54,,,,,,,,,,,,,,276.6440000029688,,response,,,,100,,,,,,,Space,keypress(Space),,,,,,,,-- --- ---- --- ------ ----- ------- ---- -- --- ------- --<br>------- ---------- ------ -- ----- -- ----- to ---- ------<br>--- ----- --- --- ------ -------- ----- --- ------ ----- --<br>----- ----- ---------- --- --- ------ ------ ---- -- ------<br>------- --- ------ ----- --- ---- ------- -- ---- --- --<br>------- ------,163939.1000000015,163938.20000000298,163644.832,163658.30000000075,163661.556,163945.129,,19,to
screen,html.Screen,2_1_1_1_20,2022-02-15T16:47:14.156Z,,,,,,,,,,,,,,,,,54,,,,,,,,,,,,,,217.1710000007588,,response,,,,100,,,,,,,Space,keypress(Space),,,,,,,,-- --- ---- --- ------ ----- ------- ---- -- --- ------- --<br>------- ---------- ------ -- ----- -- ----- -- save ------<br>--- ----- --- --- ------ -------- ----- --- ------ ----- --<br>----- ----- ---------- --- --- ------ ------ ---- -- ------<br>------- --- ------ ----- --- ---- ------- -- ---- --- --<br>------- ------,164163.1000000015,164162.30000000075,163928.437,163939.30000000075,163945.129,164178.908,,20,save
screen,html.Screen,2_1_1_1_21,2022-02-15T16:47:14.475Z,,,,,,,,,,,,,,,,,54,,,,,,,,,,,,,,303.2920000029844,,response,,,,100,,,,,,,Space,keypress(Space),,,,,,,,"-- --- ---- --- ------ ----- ------- ---- -- --- ------- --<br>------- ---------- ------ -- ----- -- ----- -- ---- money,<br>--- ----- --- --- ------ -------- ----- --- ------ ----- --<br>----- ----- ---------- --- --- ------ ------ ---- -- ------<br>------- --- ------ ----- --- ---- ------- -- ---- --- --<br>------- ------",164483.1000000015,164482.20000000298,164162.156,164163.30000000075,164178.908,164495.83,,21,"money,"
screen,html.Screen,2_1_1_1_22,2022-02-15T16:47:14.730Z,,,,,,,,,,,,,,,,,54,,,,,,,,,,,,,,241.77000000150292,,response,,,,100,,,,,,,Space,keypress(Space),,,,,,,,-- --- ---- --- ------ ----- ------- ---- -- --- ------- --<br>------- ---------- ------ -- ----- -- ----- -- ---- ------<br>the ----- --- --- ------ -------- ----- --- ------ ----- --<br>----- ----- ---------- --- --- ------ ------ ---- -- ------<br>------- --- ------ ----- --- ---- ------- -- ---- --- --<br>------- ------,164738.1000000015,164737.6000000015,164479.145,164483.30000000075,164495.83,164746.001,,22,the
screen,html.Screen,2_1_1_1_23,2022-02-15T16:47:15.034Z,,,,,,,,,,,,,,,,,54,,,,,,,,,,,,,,295.4990000000107,,response,,,,100,,,,,,,Space,keypress(Space),,,,,,,,-- --- ---- --- ------ ----- ------- ---- -- --- ------- --<br>------- ---------- ------ -- ----- -- ----- -- ---- ------<br>--- state --- --- ------ -------- ----- --- ------ ----- --<br>----- ----- ---------- --- --- ------ ------ ---- -- ------<br>------- --- ------ ----- --- ---- ------- -- ---- --- --<br>------- ------,165042,165041.5,164729.262,164738.20000000298,164746.001,165046.366,,23,state
screen,html.Screen,2_1_1_1_24,2022-02-15T16:47:15.331Z,,,,,,,,,,,,,,,,,54,,,,,,,,,,,,,,291.6339999999909,,response,,,,100,,,,,,,Space,keypress(Space),,,,,,,,-- --- ---- --- ------ ----- ------- ---- -- --- ------- --<br>------- ---------- ------ -- ----- -- ----- -- ---- ------<br>--- ----- cut --- ------ -------- ----- --- ------ ----- --<br>----- ----- ---------- --- --- ------ ------ ---- -- ------<br>------- --- ------ ----- --- ---- ------- -- ---- --- --<br>------- ------,165338.80000000075,165338,165029.608,165042.1000000015,165046.366,165346.523,,24,cut
screen,html.Screen,2_1_1_1_25,2022-02-15T16:47:15.532Z,,,,,,,,,,,,,,,,,54,,,,,,,,,,,,,,191.67700000299374,,response,,,,100,,,,,,,Space,keypress(Space),,,,,,,,-- --- ---- --- ------ ----- ------- ---- -- --- ------- --<br>------- ---------- ------ -- ----- -- ----- -- ---- ------<br>--- ----- --- the ------ -------- ----- --- ------ ----- --<br>----- ----- ---------- --- --- ------ ------ ---- -- ------<br>------- --- ------ ----- --- ---- ------- -- ---- --- --<br>------- ------,165539.20000000298,165538.20000000298,165330.018,165339,165346.523,165546.81,,25,the
screen,html.Screen,2_1_1_1_26,2022-02-15T16:47:15.787Z,,,,,,,,,,,,,,,,,54,,,,,,,,,,,,,,247.19000000000233,,response,,,,100,,,,,,,Space,keypress(Space),,,,,,,,-- --- ---- --- ------ ----- ------- ---- -- --- ------- --<br>------- ---------- ------ -- ----- -- ----- -- ---- ------<br>--- ----- --- --- bonds' -------- ----- --- ------ ----- --<br>----- ----- ---------- --- --- ------ ------ ---- -- ------<br>------- --- ------ ----- --- ---- ------- -- ---- --- --<br>------- ------,165794.90000000224,165794,165530.189,165539.30000000075,165546.81,165796.989,,26,bonds'
screen,html.Screen,2_1_1_1_27,2022-02-15T16:47:16.483Z,,,,,,,,,,,,,,,,,54,,,,,,,,,,,,,,692.8110000007437,,response,,,,100,,,,,,,Space,keypress(Space),,,,,,,,-- --- ---- --- ------ ----- ------- ---- -- --- ------- --<br>------- ---------- ------ -- ----- -- ----- -- ---- ------<br>--- ----- --- --- ------ interest ----- --- ------ ----- --<br>----- ----- ---------- --- --- ------ ------ ---- -- ------<br>------- --- ------ ----- --- ---- ------- -- ---- --- --<br>------- ------,166490.30000000075,166489.80000000075,165780.381,165795.1000000015,165796.989,166497.615,,27,interest
screen,html.Screen,2_1_1_1_28,2022-02-15T16:47:16.770Z,,,,,,,,,,,,,,,,,54,,,,,,,,,,,,,,279.68500000075437,,response,,,,100,,,,,,,Space,keypress(Space),,,,,,,,-- --- ---- --- ------ ----- ------- ---- -- --- ------- --<br>------- ---------- ------ -- ----- -- ----- -- ---- ------<br>--- ----- --- --- ------ -------- rate. --- ------ ----- --<br>----- ----- ---------- --- --- ------ ------ ---- -- ------<br>------- --- ------ ----- --- ---- ------- -- ---- --- --<br>------- ------,166777.70000000298,166777.30000000075,166480.936,166490.30000000075,166497.615,166781.238,,28,rate.
screen,html.Screen,2_1_1_1_29,2022-02-15T16:47:17.074Z,,,,,,,,,,,,,,,,,54,,,,,,,,,,,,,,300.2619999999879,,response,,,,100,,,,,,,Space,keypress(Space),,,,,,,,-- --- ---- --- ------ ----- ------- ---- -- --- ------- --<br>------- ---------- ------ -- ----- -- ----- -- ---- ------<br>--- ----- --- --- ------ -------- ----- The ------ ----- --<br>----- ----- ---------- --- --- ------ ------ ---- -- ------<br>------- --- ------ ----- --- ---- ------- -- ---- --- --<br>------- ------,167082,167081.5,166764.556,166777.80000000075,166781.238,167098.278,,29,The
screen,html.Screen,2_1_1_1_30,2022-02-15T16:47:17.330Z,,,,,,,,,,,,,,,,,54,,,,,,,,,,,,,,239.22200000000885,,response,,,,100,,,,,,,Space,keypress(Space),,,,,,,,-- --- ---- --- ------ ----- ------- ---- -- --- ------- --<br>------- ---------- ------ -- ----- -- ----- -- ---- ------<br>--- ----- --- --- ------ -------- ----- --- market ----- --<br>----- ----- ---------- --- --- ------ ------ ---- -- ------<br>------- --- ------ ----- --- ---- ------- -- ---- --- --<br>------- ------,167337.90000000224,167337.5,167081.532,167082.20000000298,167098.278,167348.502,,30,market
screen,html.Screen,2_1_1_1_31,2022-02-15T16:47:17.570Z,,,,,,,,,,,,,,,,,54,,,,,,,,,,,,,,228.99799999999232,,response,,,,100,,,,,,,Space,keypress(Space),,,,,,,,-- --- ---- --- ------ ----- ------- ---- -- --- ------- --<br>------- ---------- ------ -- ----- -- ----- -- ---- ------<br>--- ----- --- --- ------ -------- ----- --- ------ value --<br>----- ----- ---------- --- --- ------ ------ ---- -- ------<br>------- --- ------ ----- --- ---- ------- -- ---- --- --<br>------- ------,167578,167577.5,167331.795,167338,167348.502,167582.275,,31,value
screen,html.Screen,2_1_1_1_32,2022-02-15T16:47:17.866Z,,,,,,,,,,,,,,,,,54,,,,,,,,,,,,,,291.2250000000058,,response,,,,100,,,,,,,Space,keypress(Space),,,,,,,,-- --- ---- --- ------ ----- ------- ---- -- --- ------- --<br>------- ---------- ------ -- ----- -- ----- -- ---- ------<br>--- ----- --- --- ------ -------- ----- --- ------ ----- of<br>----- ----- ---------- --- --- ------ ------ ---- -- ------<br>------- --- ------ ----- --- ---- ------- -- ---- --- --<br>------- ------,167874.1000000015,167873.5,167565.405,167578.1000000015,167582.275,167882.366,,32,of
screen,html.Screen,2_1_1_1_33,2022-02-15T16:47:18.099Z,,,,,,,,,,,,,,,,,54,,,,,,,,,,,,,,223.73400000148104,,response,,,,100,,,,,,,Space,keypress(Space),,,,,,,,-- --- ---- --- ------ ----- ------- ---- -- --- ------- --<br>------- ---------- ------ -- ----- -- ----- -- ---- ------<br>--- ----- --- --- ------ -------- ----- --- ------ ----- --<br>these ----- ---------- --- --- ------ ------ ---- -- ------<br>------- --- ------ ----- --- ---- ------- -- ---- --- --<br>------- ------,168106.90000000224,168106.1000000015,167865.651,167874.20000000298,167882.366,168116.117,,33,these
screen,html.Screen,2_1_1_1_34,2022-02-15T16:47:18.386Z,,,,,,,,,,,,,,,,,54,,,,,,,,,,,,,,277.38300000000163,,response,,,,100,,,,,,,Space,keypress(Space),,,,,,,,-- --- ---- --- ------ ----- ------- ---- -- --- ------- --<br>------- ---------- ------ -- ----- -- ----- -- ---- ------<br>--- ----- --- --- ------ -------- ----- --- ------ ----- --<br>----- bonds ---------- --- --- ------ ------ ---- -- ------<br>------- --- ------ ----- --- ---- ------- -- ---- --- --<br>------- ------,168393.90000000224,168393.5,168099.224,168107.1000000015,168116.117,168399.499,,34,bonds
screen,html.Screen,2_1_1_1_35,2022-02-15T16:47:18.795Z,,,,,,,,,,,,,,,,,54,,,,,,,,,,,,,,402.7010000029695,,response,,,,100,,,,,,,Space,keypress(Space),,,,,,,,"-- --- ---- --- ------ ----- ------- ---- -- --- ------- --<br>------- ---------- ------ -- ----- -- ----- -- ---- ------<br>--- ----- --- --- ------ -------- ----- --- ------ ----- --<br>----- ----- plummeted, --- --- ------ ------ ---- -- ------<br>------- --- ------ ----- --- ---- ------- -- ---- --- --<br>------- ------",168803,168802.20000000298,168382.893,168394,168399.499,168816.735,,35,"plummeted,"
screen,html.Screen,2_1_1_1_36,2022-02-15T16:47:19.164Z,,,,,,,,,,,,,,,,,54,,,,,,,,,,,,,,353.565000000759,,response,,,,100,,,,,,,Space,keypress(Space),,,,,,,,-- --- ---- --- ------ ----- ------- ---- -- --- ------- --<br>------- ---------- ------ -- ----- -- ----- -- ---- ------<br>--- ----- --- --- ------ -------- ----- --- ------ ----- --<br>----- ----- ---------- and --- ------ ------ ---- -- ------<br>------- --- ------ ----- --- ---- ------- -- ---- --- --<br>------- ------,169171.1000000015,169170.30000000075,168799.985,168803.30000000075,168816.735,169183.681,,36,and
screen,html.Screen,2_1_1_1_37,2022-02-15T16:47:19.411Z,,,,,,,,,,,,,,,,,54,,,,,,,,,,,,,,234.61900000073365,,response,,,,100,,,,,,,Space,keypress(Space),,,,,,,,-- --- ---- --- ------ ----- ------- ---- -- --- ------- --<br>------- ---------- ------ -- ----- -- ----- -- ---- ------<br>--- ----- --- --- ------ -------- ----- --- ------ ----- --<br>----- ----- ---------- --- the ------ ------ ---- -- ------<br>------- --- ------ ----- --- ---- ------- -- ---- --- --<br>------- ------,169419.1000000015,169418.30000000075,169167.072,169171.30000000075,169183.681,169434.037,,37,the
screen,html.Screen,2_1_1_1_38,2022-02-15T16:47:19.611Z,,,,,,,,,,,,,,,,,54,,,,,,,,,,,,,,184.16300000296906,,response,,,,100,,,,,,,Space,keypress(Space),,,,,,,,-- --- ---- --- ------ ----- ------- ---- -- --- ------- --<br>------- ---------- ------ -- ----- -- ----- -- ---- ------<br>--- ----- --- --- ------ -------- ----- --- ------ ----- --<br>----- ----- ---------- --- --- market ------ ---- -- ------<br>------- --- ------ ----- --- ---- ------- -- ---- --- --<br>------- ------,169619,169618.20000000298,169417.363,169419.30000000075,169434.037,169634.228,,38,market
screen,html.Screen,2_1_1_1_39,2022-02-15T16:47:19.851Z,,,,,,,,,,,,,,,,,54,,,,,,,,,,,,,,223.97200000297744,,response,,,,100,,,,,,,Space,keypress(Space),,,,,,,,-- --- ---- --- ------ ----- ------- ---- -- --- ------- --<br>------- ---------- ------ -- ----- -- ----- -- ---- ------<br>--- ----- --- --- ------ -------- ----- --- ------ ----- --<br>----- ----- ---------- --- --- ------ became ---- -- ------<br>------- --- ------ ----- --- ---- ------- -- ---- --- --<br>------- ------,169859,169858.20000000298,169617.548,169619.20000000298,169634.228,169867.871,,39,became
screen,html.Screen,2_1_1_1_40,2022-02-15T16:47:20.186Z,,,,,,,,,,,,,,,,,54,,,,,,,,,,,,,,325.62899999998626,,response,,,,100,,,,,,,Space,keypress(Space),,,,,,,,-- --- ---- --- ------ ----- ------- ---- -- --- ------- --<br>------- ---------- ------ -- ----- -- ----- -- ---- ------<br>--- ----- --- --- ------ -------- ----- --- ------ ----- --<br>----- ----- ---------- --- --- ------ ------ wary -- ------<br>------- --- ------ ----- --- ---- ------- -- ---- --- --<br>------- ------,170193.90000000224,170193.5,169851.051,169859.30000000075,169867.871,170201.338,,40,wary
screen,html.Screen,2_1_1_1_41,2022-02-15T16:47:20.507Z,,,,,,,,,,,,,,,,,54,,,,,,,,,,,,,,312.7620000015013,,response,,,,100,,,,,,,Space,keypress(Space),,,,,,,,-- --- ---- --- ------ ----- ------- ---- -- --- ------- --<br>------- ---------- ------ -- ----- -- ----- -- ---- ------<br>--- ----- --- --- ------ -------- ----- --- ------ ----- --<br>----- ----- ---------- --- --- ------ ------ ---- of ------<br>------- --- ------ ----- --- ---- ------- -- ---- --- --<br>------- ------,170514.90000000224,170514.1000000015,170184.784,170194,170201.338,170518.343,,41,of
screen,html.Screen,2_1_1_1_42,2022-02-15T16:47:20.859Z,,,,,,,,,,,,,,,,,54,,,,,,,,,,,,,,347.75700000149664,,response,,,,100,,,,,,,Space,keypress(Space),,,,,,,,-- --- ---- --- ------ ----- ------- ---- -- --- ------- --<br>------- ---------- ------ -- ----- -- ----- -- ---- ------<br>--- ----- --- --- ------ -------- ----- --- ------ ----- --<br>----- ----- ---------- --- --- ------ ------ ---- -- French<br>------- --- ------ ----- --- ---- ------- -- ---- --- --<br>------- ------,170867,170866.1000000015,170501.717,170515.20000000298,170518.343,170899.76,,42,French
screen,html.Screen,2_1_1_1_43,2022-02-15T16:47:21.178Z,,,,,,,,,,,,,,,,,54,,,,,,,,,,,,,,285.64000000222586,,response,,,,100,,,,,,,Space,keypress(Space),,,,,,,,-- --- ---- --- ------ ----- ------- ---- -- --- ------- --<br>------- ---------- ------ -- ----- -- ----- -- ---- ------<br>--- ----- --- --- ------ -------- ----- --- ------ ----- --<br>----- ----- ---------- --- --- ------ ------ ---- -- ------<br>credit. --- ------ ----- --- ---- ------- -- ---- --- --<br>------- ------,171185.90000000224,171185.40000000224,170852.148,170867.1000000015,170899.76,171202.371,,43,credit.
screen,html.Screen,2_1_1_1_44,2022-02-15T16:47:21.523Z,,,,,,,,,,,,,,,,,54,,,,,,,,,,,,,,327.8290000029665,,response,,,,100,,,,,,,Space,keypress(Space),,,,,,,,-- --- ---- --- ------ ----- ------- ---- -- --- ------- --<br>------- ---------- ------ -- ----- -- ----- -- ---- ------<br>--- ----- --- --- ------ -------- ----- --- ------ ----- --<br>----- ----- ---------- --- --- ------ ------ ---- -- ------<br>------- The ------ ----- --- ---- ------- -- ---- --- --<br>------- ------,171531.1000000015,171530.20000000298,171185.795,171185.90000000224,171202.371,171536.03,,44,The
screen,html.Screen,2_1_1_1_45,2022-02-15T16:47:21.883Z,,,,,,,,,,,,,,,,,54,,,,,,,,,,,,,,354.1700000029814,,response,,,,100,,,,,,,Space,keypress(Space),,,,,,,,-- --- ---- --- ------ ----- ------- ---- -- --- ------- --<br>------- ---------- ------ -- ----- -- ----- -- ---- ------<br>--- ----- --- --- ------ -------- ----- --- ------ ----- --<br>----- ----- ---------- --- --- ------ ------ ---- -- ------<br>------- --- French ----- --- ---- ------- -- ---- --- --<br>------- ------,171891,171890.20000000298,171519.296,171531.30000000075,171536.03,171903.216,,45,French
screen,html.Screen,2_1_1_1_46,2022-02-15T16:47:22.194Z,,,,,,,,,,,,,,,,,54,,,,,,,,,,,,,,298.2840000000142,,response,,,,100,,,,,,,Space,keypress(Space),,,,,,,,-- --- ---- --- ------ ----- ------- ---- -- --- ------- --<br>------- ---------- ------ -- ----- -- ----- -- ---- ------<br>--- ----- --- --- ------ -------- ----- --- ------ ----- --<br>----- ----- ---------- --- --- ------ ------ ---- -- ------<br>------- --- ------ state --- ---- ------- -- ---- --- --<br>------- ------,172202,172201.5,171886.479,171891.1000000015,171903.216,172203.365,,46,state
screen,html.Screen,2_1_1_1_47,2022-02-15T16:47:22.508Z,,,,,,,,,,,,,,,,,54,,,,,,,,,,,,,,310.93500000075437,,response,,,,100,,,,,,,Space,keypress(Space),,,,,,,,-- --- ---- --- ------ ----- ------- ---- -- --- ------- --<br>------- ---------- ------ -- ----- -- ----- -- ---- ------<br>--- ----- --- --- ------ -------- ----- --- ------ ----- --<br>----- ----- ---------- --- --- ------ ------ ---- -- ------<br>------- --- ------ ----- was ---- ------- -- ---- --- --<br>------- ------,172515.1000000015,172514.30000000075,172186.812,172202.1000000015,172203.365,172520.357,,47,was
screen,html.Screen,2_1_1_1_48,2022-02-15T16:47:22.796Z,,,,,,,,,,,,,,,,,54,,,,,,,,,,,,,,281.943000000756,,response,,,,100,,,,,,,Space,keypress(Space),,,,,,,,-- --- ---- --- ------ ----- ------- ---- -- --- ------- --<br>------- ---------- ------ -- ----- -- ----- -- ---- ------<br>--- ----- --- --- ------ -------- ----- --- ------ ----- --<br>----- ----- ---------- --- --- ------ ------ ---- -- ------<br>------- --- ------ ----- --- left ------- -- ---- --- --<br>------- ------,172803.1000000015,172802.30000000075,172503.603,172515.30000000075,172520.357,172820.83,,48,left
screen,html.Screen,2_1_1_1_49,2022-02-15T16:47:23.050Z,,,,,,,,,,,,,,,,,54,,,,,,,,,,,,,,236.77000000150292,,response,,,,100,,,,,,,Space,keypress(Space),,,,,,,,-- --- ---- --- ------ ----- ------- ---- -- --- ------- --<br>------- ---------- ------ -- ----- -- ----- -- ---- ------<br>--- ----- --- --- ------ -------- ----- --- ------ ----- --<br>----- ----- ---------- --- --- ------ ------ ---- -- ------<br>------- --- ------ ----- --- ---- without -- ---- --- --<br>------- ------,173057.90000000224,173057.6000000015,172787.455,172803.30000000075,172820.83,173087.589,,49,without
screen,html.Screen,2_1_1_1_50,2022-02-15T16:47:23.347Z,,,,,,,,,,,,,,,,,54,,,,,,,,,,,,,,266.611000002973,,response,,,,100,,,,,,,Space,keypress(Space),,,,,,,,-- --- ---- --- ------ ----- ------- ---- -- --- ------- --<br>------- ---------- ------ -- ----- -- ----- -- ---- ------<br>--- ----- --- --- ------ -------- ----- --- ------ ----- --<br>----- ----- ---------- --- --- ------ ------ ---- -- ------<br>------- --- ------ ----- --- ---- ------- an ---- --- --<br>------- ------,173355.1000000015,173354.20000000298,173070.885,173058,173087.589,173371.424,,50,an
screen,html.Screen,2_1_1_1_51,2022-02-15T16:47:23.659Z,,,,,,,,,,,,,,,,,54,,,,,,,,,,,,,,294.67600000149105,,response,,,,100,,,,,,,Space,keypress(Space),,,,,,,,-- --- ---- --- ------ ----- ------- ---- -- --- ------- --<br>------- ---------- ------ -- ----- -- ----- -- ---- ------<br>--- ----- --- --- ------ -------- ----- --- ------ ----- --<br>----- ----- ---------- --- --- ------ ------ ---- -- ------<br>------- --- ------ ----- --- ---- ------- -- easy --- --<br>------- ------,173667,173666.1000000015,173354.692,173355.30000000075,173371.424,173671.513,,51,easy
screen,html.Screen,2_1_1_1_52,2022-02-15T16:47:23.964Z,,,,,,,,,,,,,,,,,54,,,,,,,,,,,,,,298.58700000148383,,response,,,,100,,,,,,,Space,keypress(Space),,,,,,,,-- --- ---- --- ------ ----- ------- ---- -- --- ------- --<br>------- ---------- ------ -- ----- -- ----- -- ---- ------<br>--- ----- --- --- ------ -------- ----- --- ------ ----- --<br>----- ----- ---------- --- --- ------ ------ ---- -- ------<br>------- --- ------ ----- --- ---- ------- -- ---- way --<br>------- ------,173971.30000000075,173970.1000000015,173654.83,173667.20000000298,173671.513,173988.68,,52,way
screen,html.Screen,2_1_1_1_53,2022-02-15T16:47:24.276Z,,,,,,,,,,,,,,,,,54,,,,,,,,,,,,,,293.820000000007,,response,,,,100,,,,,,,Space,keypress(Space),,,,,,,,-- --- ---- --- ------ ----- ------- ---- -- --- ------- --<br>------- ---------- ------ -- ----- -- ----- -- ---- ------<br>--- ----- --- --- ------ -------- ----- --- ------ ----- --<br>----- ----- ---------- --- --- ------ ------ ---- -- ------<br>------- --- ------ ----- --- ---- ------- -- ---- --- of<br>------- ------,174283.70000000298,174282.5,173971.84,173971.5,173988.68,174305.516,,53,of
screen,html.Screen,2_1_1_1_54,2022-02-15T16:47:24.731Z,,,,,,,,,,,,,,,,,54,,,,,,,,,,,,,,432.48399999999674,,response,,,,100,,,,,,,Space,keypress(Space),,,,,,,,-- --- ---- --- ------ ----- ------- ---- -- --- ------- --<br>------- ---------- ------ -- ----- -- ----- -- ---- ------<br>--- ----- --- --- ------ -------- ----- --- ------ ----- --<br>----- ----- ---------- --- --- ------ ------ ---- -- ------<br>------- --- ------ ----- --- ---- ------- -- ---- --- --<br>raising ------,174738.90000000224,174738,174288.887,174283.90000000224,174305.516,174756.091,,54,raising
screen,html.Screen,2_1_1_1_55,2022-02-15T16:47:25.082Z,,,,,,,,,,,,,,,,,54,,,,,,,,,,,,,,333.4090000000142,,response,,,,100,,,,,,,Space,keypress(Space),,,,,,,,-- --- ---- --- ------ ----- ------- ---- -- --- ------- --<br>------- ---------- ------ -- ----- -- ----- -- ---- ------<br>--- ----- --- --- ------ -------- ----- --- ------ ----- --<br>----- ----- ---------- --- --- ------ ------ ---- -- ------<br>------- --- ------ ----- --- ---- ------- -- ---- --- --<br>------- money.,175090,175089.5,174739.258,174739.1000000015,174756.091,175106.244,,55,money.
Item 100,flow.Loop,2_1_1_1,2022-02-15T16:47:25.083Z,,,,,,,,,,,,,,,,,,,,,,,,,,,,,,,19903.17300000001,,completion,,,,,B,,,,,,,,,,,silence,,,,,175090.20000000298,175089.5,155169.882,155170.90000000224,155186.327,175106.244,,,
Question 1,html.Screen,2_1_1_2,2022-02-15T16:47:28.572Z,,,,,,,,,,,,,,,,,,,,,,,,,,,,true,TRUE,,3473.156000002229,,response,,,,100,B,,,,,,TRUE,click #choice-1,,,,silence,,,,,178580.1000000015,178579.40000000224,175089.521,175090.20000000298,175106.244,178593.223,,,
Question 2,html.Screen,2_1_1_3,2022-02-15T16:47:30.760Z,,,,,,,,,,,,,,,,,,,,,,,,,,,,true,FALSE,,2173.977000002982,,response,,,,100,B,,,,,,FALSE,click #choice-2,,,,silence,,,,,180767.90000000224,180767.20000000298,178576.519,178580.20000000298,178593.223,180778.633,,,
Item 100,flow.Sequence,2_1_1,2022-02-15T16:47:30.760Z,,,,,,,,,,,,,,,,,,,,,,,,,,,,,,,35574.13300000297,,completion,,,,,,,,,,,,,,,,,,,,,180768,180767.20000000298,145176.354,145172.30000000075,145193.067,180778.633,,,
End of Practice,html.Page,2_1_2,2022-02-15T16:47:34.840Z,,,,,,,,,,,,,,,,,,,,,,,,,,,,,,,4069.5670000029786,,form submission,,,,,,,,,,,,,,,,,,,,,184848.40000000224,184848.20000000298,180761.83,180768,180778.633,184866.179,,,
Practice,flow.Sequence,2_1,2022-02-15T16:47:34.840Z,,,,,,,,,,,,,,,,,,,,,,,,,,,,,,,82180.94300000298,,completion,,,,,,,,,,,,,,,,,,,,,184848.5,184848.20000000298,102650.514,102654.30000000075,102667.257,184866.179,,,
Trap_instruction,html.Page,2_2_0,2022-02-15T16:47:39.034Z,,,,,,,,,,,,,,,,,,,,,,,,,,,,,,,4176.121000000741,,form submission,,,,,,,,,,,,,,,,,,,,,189042.40000000224,189042.30000000075,184849.287,184848.5,184866.179,189053.534,,,
trap_trial,html.Screen,2_2_1,2022-02-15T16:47:41.058Z,,,,,,,,,,,,,,,,,,,,,,,,,,,,true,1,,2011.566000001476,,response,,,,,,,,,,,1,click #choice-1,,,,,,,,,191065.70000000298,191065.1000000015,189036.985,189042.5,189053.534,191072.253,,,
end of trap trial,html.Page,2_2_2,2022-02-15T16:47:42.378Z,,,,,,,,,,,,,,,,,,,,,,,,,,,,,,,1313.8470000014931,,form submission,,,,,,,,,,,,,,,,,,,,,192386.1000000015,192386.1000000015,191055.492,191065.80000000075,191072.253,192390.243,,,
Trap 1,flow.Sequence,2_2,2022-02-15T16:47:42.378Z,,,,,,,,,,,,,,,,,,,,,,,,,,,,,,,7519.921000001486,,completion,,,,,,,,,,,,,,,,,,,,,192386.20000000298,192386.1000000015,184849.287,184848.5,184866.179,192390.243,,,
Standby,html.Page,2_3_0,2022-02-15T16:47:50.374Z,,,,,,,,,,,,,,,,,,,,,,,,,,,,,,,8007.928000000014,,timeout,,,,,,,,,,,,,,,,,,,,,200381.80000000075,200381.429,192373.5,192386.30000000075,192390.243,200398.171,,,
Holding screen,html.Screen,2_3_1_0_0,2022-02-15T16:47:57.381Z,,,,,,,,,,,,,,,,,,,,,,,,,,,,,,,7006.978000000003,,timeout,,,,,,,,,,,,,,,,,,,,,207389.5,207388.412,200381.429,200381.90000000224,200398.171,207405.149,,,
screen,html.Screen,2_3_1_0_1_0,2022-02-15T16:47:58.114Z,,,,,,,,,,,,,,,,,15,,,,,,,,,,,,,,716.3509999999951,,response,,,,7,B,,,,,,Space,keypress(Space),,,,lyrical,,,,Greg --------- ---------- - --- ------- -- --- ------------<br>----- -- -------- ------- ---- ------ - -------- ---- -----<br>--- ------- ---- -- --- -------- --- - ----- ------ ---- --<br>-------- --- -------- -------- --- -------- ---- -- ----- -<br>-------- ---- --- ---------- --------- -- ------- ------ -<br>--------- ----- -----,208122.20000000298,208121.5,207388.412,207389.70000000298,207405.149,208145.746,,0,Greg
screen,html.Screen,2_3_1_0_1_1,2022-02-15T16:47:58.658Z,,,,,,,,,,,,,,,,,15,,,,,,,,,,,,,,519.5540000007313,,response,,,,7,B,,,,,,Space,keypress(Space),,,,lyrical,,,,"---- Anderson, ---------- - --- ------- -- --- ------------<br>----- -- -------- ------- ---- ------ - -------- ---- -----<br>--- ------- ---- -- --- -------- --- - ----- ------ ---- --<br>-------- --- -------- -------- --- -------- ---- -- ----- -<br>-------- ---- --- ---------- --------- -- ------- ------ -<br>--------- ----- -----",208665.70000000298,208665.30000000075,208105.815,208122.20000000298,208145.746,208673.081,,1,"Anderson,"
screen,html.Screen,2_3_1_0_1_2,2022-02-15T16:47:59.282Z,,,,,,,,,,,,,,,,,15,,,,,,,,,,,,,,616.4189999999944,,response,,,,7,B,,,,,,Space,keypress(Space),,,,lyrical,,,,---- --------- considered - --- ------- -- --- ------------<br>----- -- -------- ------- ---- ------ - -------- ---- -----<br>--- ------- ---- -- --- -------- --- - ----- ------ ---- --<br>-------- --- -------- -------- --- -------- ---- -- ----- -<br>-------- ---- --- ---------- --------- -- ------- ------ -<br>--------- ----- -----,209289.80000000075,209289.5,208656.415,208665.70000000298,208673.081,209308.076,,2,considered
screen,html.Screen,2_3_1_0_1_3,2022-02-15T16:47:59.706Z,,,,,,,,,,,,,,,,,15,,,,,,,,,,,,,,405.32400000223424,,response,,,,7,B,,,,,,Space,keypress(Space),,,,lyrical,,,,---- --------- ---------- a --- ------- -- --- ------------<br>----- -- -------- ------- ---- ------ - -------- ---- -----<br>--- ------- ---- -- --- -------- --- - ----- ------ ---- --<br>-------- --- -------- -------- --- -------- ---- -- ----- -<br>-------- ---- --- ---------- --------- -- ------- ------ -<br>--------- ----- -----,209714.30000000075,209713.40000000224,209273.792,209289.90000000224,209308.076,209724.181,,3,a
screen,html.Screen,2_3_1_0_1_4,2022-02-15T16:48:00.314Z,,,,,,,,,,,,,,,,,15,,,,,,,,,,,,,,597.1190000007336,,response,,,,7,B,,,,,,Space,keypress(Space),,,,lyrical,,,,---- --------- ---------- - key ------- -- --- ------------<br>----- -- -------- ------- ---- ------ - -------- ---- -----<br>--- ------- ---- -- --- -------- --- - ----- ------ ---- --<br>-------- --- -------- -------- --- -------- ---- -- ----- -<br>-------- ---- --- ---------- --------- -- ------- ------ -<br>--------- ----- -----,210321.80000000075,210321.30000000075,209707.438,209714.40000000224,209724.181,210324.777,,4,key
screen,html.Screen,2_3_1_0_1_5,2022-02-15T16:48:00.898Z,,,,,,,,,,,,,,,,,15,,,,,,,,,,,,,,580.6230000022333,,response,,,,7,B,,,,,,Space,keypress(Space),,,,lyrical,,,,---- --------- ---------- - --- witness -- --- ------------<br>----- -- -------- ------- ---- ------ - -------- ---- -----<br>--- ------- ---- -- --- -------- --- - ----- ------ ---- --<br>-------- --- -------- -------- --- -------- ---- -- ----- -<br>-------- ---- --- ---------- --------- -- ------- ------ -<br>--------- ----- -----,210905.80000000075,210905.40000000224,210308.044,210321.90000000224,210324.777,210908.682,,5,witness
screen,html.Screen,2_3_1_0_1_6,2022-02-15T16:48:01.218Z,,,,,,,,,,,,,,,,,15,,,,,,,,,,,,,,316.8179999999993,,response,,,,7,B,,,,,,Space,keypress(Space),,,,lyrical,,,,---- --------- ---------- - --- ------- by --- ------------<br>----- -- -------- ------- ---- ------ - -------- ---- -----<br>--- ------- ---- -- --- -------- --- - ----- ------ ---- --<br>-------- --- -------- -------- --- -------- ---- -- ----- -<br>-------- ---- --- ---------- --------- -- ------- ------ -<br>--------- ----- -----,211226.1000000015,211225.5,210891.986,210905.90000000224,210908.682,211242.388,,6,by
screen,html.Screen,2_3_1_0_1_7,2022-02-15T16:48:01.498Z,,,,,,,,,,,,,,,,,15,,,,,,,,,,,,,,263.0120000022289,,response,,,,7,B,,,,,,Space,keypress(Space),,,,lyrical,,,,---- --------- ---------- - --- ------- -- the ------------<br>----- -- -------- ------- ---- ------ - -------- ---- -----<br>--- ------- ---- -- --- -------- --- - ----- ------ ---- --<br>-------- --- -------- -------- --- -------- ---- -- ----- -<br>-------- ---- --- ---------- --------- -- ------- ------ -<br>--------- ----- -----,211505.90000000224,211505.40000000224,211225.629,211226.20000000298,211242.388,211509.361,,7,the
screen,html.Screen,2_3_1_0_1_8,2022-02-15T16:48:01.762Z,,,,,,,,,,,,,,,,,15,,,,,,,,,,,,,,260.03900000223075,,response,,,,7,B,,,,,,Space,keypress(Space),,,,lyrical,,,,"---- --------- ---------- - --- ------- -- --- prosecution,<br>----- -- -------- ------- ---- ------ - -------- ---- -----<br>--- ------- ---- -- --- -------- --- - ----- ------ ---- --<br>-------- --- -------- -------- --- -------- ---- -- ----- -<br>-------- ---- --- ---------- --------- -- ------- ------ -<br>--------- ----- -----",211769.80000000075,211769.40000000224,211492.579,211506,211509.361,211776.14,,8,"prosecution,"
screen,html.Screen,2_3_1_0_1_9,2022-02-15T16:48:02.498Z,,,,,,,,,,,,,,,,,15,,,,,,,,,,,,,,729.359999999986,,response,,,,7,B,,,,,,Space,keypress(Space),,,,lyrical,,,,---- --------- ---------- - --- ------- -- --- ------------<br>vowed -- -------- ------- ---- ------ - -------- ---- -----<br>--- ------- ---- -- --- -------- --- - ----- ------ ---- --<br>-------- --- -------- -------- --- -------- ---- -- ----- -<br>-------- ---- --- ---------- --------- -- ------- ------ -<br>--------- ----- -----,212506,212505.5,211759.473,211769.90000000224,211776.14,212510.261,,9,vowed
screen,html.Screen,2_3_1_0_1_10,2022-02-15T16:48:02.810Z,,,,,,,,,,,,,,,,,15,,,,,,,,,,,,,,307.2390000000014,,response,,,,7,B,,,,,,Space,keypress(Space),,,,lyrical,,,,---- --------- ---------- - --- ------- -- --- ------------<br>----- he -------- ------- ---- ------ - -------- ---- -----<br>--- ------- ---- -- --- -------- --- - ----- ------ ---- --<br>-------- --- -------- -------- --- -------- ---- -- ----- -<br>-------- ---- --- ---------- --------- -- ------- ------ -<br>--------- ----- -----,212817.90000000224,212817.5,212493.606,212506,212510.261,212827.196,,10,he
screen,html.Screen,2_3_1_0_1_11,2022-02-15T16:48:03.098Z,,,,,,,,,,,,,,,,,15,,,,,,,,,,,,,,278.2040000022389,,response,,,,7,B,,,,,,Space,keypress(Space),,,,lyrical,,,,---- --------- ---------- - --- ------- -- --- ------------<br>----- -- wouldn't ------- ---- ------ - -------- ---- -----<br>--- ------- ---- -- --- -------- --- - ----- ------ ---- --<br>-------- --- -------- -------- --- -------- ---- -- ----- -<br>-------- ---- --- ---------- --------- -- ------- ------ -<br>--------- ----- -----,213105.80000000075,213105.40000000224,212810.608,212818,212827.196,213110.801,,11,wouldn't
screen,html.Screen,2_3_1_0_1_12,2022-02-15T16:48:03.466Z,,,,,,,,,,,,,,,,,15,,,,,,,,,,,,,,362.69899999999325,,response,,,,7,B,,,,,,Space,keypress(Space),,,,lyrical,,,,---- --------- ---------- - --- ------- -- --- ------------<br>----- -- -------- testify ---- ------ - -------- ---- -----<br>--- ------- ---- -- --- -------- --- - ----- ------ ---- --<br>-------- --- -------- -------- --- -------- ---- -- ----- -<br>-------- ---- --- ---------- --------- -- ------- ------ -<br>--------- ----- -----,213474,213473.5,213094.156,213105.90000000224,213110.801,213477.84,,12,testify
screen,html.Screen,2_3_1_0_1_13,2022-02-15T16:48:03.754Z,,,,,,,,,,,,,,,,,15,,,,,,,,,,,,,,283.46000000074855,,response,,,,7,B,,,,,,Space,keypress(Space),,,,lyrical,,,,---- --------- ---------- - --- ------- -- --- ------------<br>----- -- -------- ------- when ------ - -------- ---- -----<br>--- ------- ---- -- --- -------- --- - ----- ------ ---- --<br>-------- --- -------- -------- --- -------- ---- -- ----- -<br>-------- ---- --- ---------- --------- -- ------- ------ -<br>--------- ----- -----,213761.90000000224,213761.30000000075,213461.159,213474.1000000015,213477.84,213778.229,,13,when
screen,html.Screen,2_3_1_0_1_14,2022-02-15T16:48:04.026Z,,,,,,,,,,,,,,,,,15,,,,,,,,,,,,,,255.1710000022431,,response,,,,7,B,,,,,,Space,keypress(Space),,,,lyrical,,,,---- --------- ---------- - --- ------- -- --- ------------<br>----- -- -------- ------- ---- served - -------- ---- -----<br>--- ------- ---- -- --- -------- --- - ----- ------ ---- --<br>-------- --- -------- -------- --- -------- ---- -- ----- -<br>-------- ---- --- ---------- --------- -- ------- ------ -<br>--------- ----- -----,214034,214033.40000000224,213761.522,213762,213778.229,214045.152,,14,served
screen,html.Screen,2_3_1_0_1_15,2022-02-15T16:48:04.394Z,,,,,,,,,,,,,,,,,15,,,,,,,,,,,,,,356.34799999999814,,response,,,,7,B,,,,,,Space,keypress(Space),,,,lyrical,,,,---- --------- ---------- - --- ------- -- --- ------------<br>----- -- -------- ------- ---- ------ a -------- ---- -----<br>--- ------- ---- -- --- -------- --- - ----- ------ ---- --<br>-------- --- -------- -------- --- -------- ---- -- ----- -<br>-------- ---- --- ---------- --------- -- ------- ------ -<br>--------- ----- -----,214402.20000000298,214401.5,214028.417,214034,214045.152,214412.137,,15,a
screen,html.Screen,2_3_1_0_1_16,2022-02-15T16:48:04.714Z,,,,,,,,,,,,,,,,,15,,,,,,,,,,,,,,309.2630000022473,,response,,,,7,B,,,,,,Space,keypress(Space),,,,lyrical,,,,---- --------- ---------- - --- ------- -- --- ------------<br>----- -- -------- ------- ---- ------ - subpoena ---- -----<br>--- ------- ---- -- --- -------- --- - ----- ------ ---- --<br>-------- --- -------- -------- --- -------- ---- -- ----- -<br>-------- ---- --- ---------- --------- -- ------- ------ -<br>--------- ----- -----,214722,214721.40000000224,214395.483,214402.30000000075,214412.137,214729.144,,16,subpoena
screen,html.Screen,2_3_1_0_1_17,2022-02-15T16:48:05.418Z,,,,,,,,,,,,,,,,,15,,,,,,,,,,,,,,696.2560000022349,,response,,,,7,B,,,,,,Space,keypress(Space),,,,lyrical,,,,---- --------- ---------- - --- ------- -- --- ------------<br>----- -- -------- ------- ---- ------ - -------- last -----<br>--- ------- ---- -- --- -------- --- - ----- ------ ---- --<br>-------- --- -------- -------- --- -------- ---- -- ----- -<br>-------- ---- --- ---------- --------- -- ------- ------ -<br>--------- ----- -----,215425.90000000224,215425.40000000224,214712.507,214722,214729.144,215429.853,,17,last
screen,html.Screen,2_3_1_0_1_18,2022-02-15T16:48:05.778Z,,,,,,,,,,,,,,,,,15,,,,,,,,,,,,,,355.5470000022324,,response,,,,7,B,,,,,,Space,keypress(Space),,,,lyrical,,,,---- --------- ---------- - --- ------- -- --- ------------<br>----- -- -------- ------- ---- ------ - -------- ---- week.<br>--- ------- ---- -- --- -------- --- - ----- ------ ---- --<br>-------- --- -------- -------- --- -------- ---- -- ----- -<br>-------- ---- --- ---------- --------- -- ------- ------ -<br>--------- ----- -----,215786.5,215785.40000000224,215413.096,215425.90000000224,215429.853,215796.888,,18,week.
screen,html.Screen,2_3_1_0_1_19,2022-02-15T16:48:06.130Z,,,,,,,,,,,,,,,,,15,,,,,,,,,,,,,,340.6119999999937,,response,,,,7,B,,,,,,Space,keypress(Space),,,,lyrical,,,,---- --------- ---------- - --- ------- -- --- ------------<br>----- -- -------- ------- ---- ------ - -------- ---- -----<br>His ------- ---- -- --- -------- --- - ----- ------ ---- --<br>-------- --- -------- -------- --- -------- ---- -- ----- -<br>-------- ---- --- ---------- --------- -- ------- ------ -<br>--------- ----- -----,216137.90000000224,216137.5,215780.247,215786.5,215796.888,216147.222,,19,His
screen,html.Screen,2_3_1_0_1_20,2022-02-15T16:48:06.426Z,,,,,,,,,,,,,,,,,15,,,,,,,,,,,,,,286.0780000007362,,response,,,,7,B,,,,,,Space,keypress(Space),,,,lyrical,,,,---- --------- ---------- - --- ------- -- --- ------------<br>----- -- -------- ------- ---- ------ - -------- ---- -----<br>--- lawyers ---- -- --- -------- --- - ----- ------ ---- --<br>-------- --- -------- -------- --- -------- ---- -- ----- -<br>-------- ---- --- ---------- --------- -- ------- ------ -<br>--------- ----- -----,216433.80000000075,216433.30000000075,216130.523,216137.90000000224,216147.222,216447.549,,20,lawyers
screen,html.Screen,2_3_1_0_1_21,2022-02-15T16:48:06.674Z,,,,,,,,,,,,,,,,,15,,,,,,,,,,,,,,233.8510000022361,,response,,,,7,B,,,,,,Space,keypress(Space),,,,lyrical,,,,---- --------- ---------- - --- ------- -- --- ------------<br>----- -- -------- ------- ---- ------ - -------- ---- -----<br>--- ------- said -- --- -------- --- - ----- ------ ---- --<br>-------- --- -------- -------- --- -------- ---- -- ----- -<br>-------- ---- --- ---------- --------- -- ------- ------ -<br>--------- ----- -----,216681.90000000224,216681.40000000224,216430.841,216433.90000000224,216447.549,216697.827,,21,said
screen,html.Screen,2_3_1_0_1_22,2022-02-15T16:48:06.938Z,,,,,,,,,,,,,,,,,15,,,,,,,,,,,,,,247.47300000075484,,response,,,,7,B,,,,,,Space,keypress(Space),,,,lyrical,,,,---- --------- ---------- - --- ------- -- --- ------------<br>----- -- -------- ------- ---- ------ - -------- ---- -----<br>--- ------- ---- he --- -------- --- - ----- ------ ---- --<br>-------- --- -------- -------- --- -------- ---- -- ----- -<br>-------- ---- --- ---------- --------- -- ------- ------ -<br>--------- ----- -----,216945.80000000075,216945.30000000075,216681.055,216681.90000000224,216697.827,216948.002,,22,he
screen,html.Screen,2_3_1_0_1_23,2022-02-15T16:48:07.194Z,,,,,,,,,,,,,,,,,15,,,,,,,,,,,,,,253.29800000073737,,response,,,,7,B,,,,,,Space,keypress(Space),,,,lyrical,,,,---- --------- ---------- - --- ------- -- --- ------------<br>----- -- -------- ------- ---- ------ - -------- ---- -----<br>--- ------- ---- -- was -------- --- - ----- ------ ---- --<br>-------- --- -------- -------- --- -------- ---- -- ----- -<br>-------- ---- --- ---------- --------- -- ------- ------ -<br>--------- ----- -----,217201.80000000075,217201.30000000075,216931.315,216945.80000000075,216948.002,217214.992,,23,was
screen,html.Screen,2_3_1_0_1_24,2022-02-15T16:48:07.514Z,,,,,,,,,,,,,,,,,15,,,,,,,,,,,,,,306.20800000298186,,response,,,,7,B,,,,,,Space,keypress(Space),,,,lyrical,,,,---- --------- ---------- - --- ------- -- --- ------------<br>----- -- -------- ------- ---- ------ - -------- ---- -----<br>--- ------- ---- -- --- prepared --- - ----- ------ ---- --<br>-------- --- -------- -------- --- -------- ---- -- ----- -<br>-------- ---- --- ---------- --------- -- ------- ------ -<br>--------- ----- -----,217521.70000000298,217521.20000000298,217198.247,217201.80000000075,217214.992,217531.922,,24,prepared
screen,html.Screen,2_3_1_0_1_25,2022-02-15T16:48:07.858Z,,,,,,,,,,,,,,,,,15,,,,,,,,,,,,,,333.3780000007537,,response,,,,7,B,,,,,,Space,keypress(Space),,,,lyrical,,,,---- --------- ---------- - --- ------- -- --- ------------<br>----- -- -------- ------- ---- ------ - -------- ---- -----<br>--- ------- ---- -- --- -------- for - ----- ------ ---- --<br>-------- --- -------- -------- --- -------- ---- -- ----- -<br>-------- ---- --- ---------- --------- -- ------- ------ -<br>--------- ----- -----,217865.80000000075,217865.30000000075,217515.23,217521.70000000298,217531.922,217882.264,,25,for
screen,html.Screen,2_3_1_0_1_26,2022-02-15T16:48:08.146Z,,,,,,,,,,,,,,,,,15,,,,,,,,,,,,,,271.1360000022396,,response,,,,7,B,,,,,,Space,keypress(Space),,,,lyrical,,,,---- --------- ---------- - --- ------- -- --- ------------<br>----- -- -------- ------- ---- ------ - -------- ---- -----<br>--- ------- ---- -- --- -------- --- a ----- ------ ---- --<br>-------- --- -------- -------- --- -------- ---- -- ----- -<br>-------- ---- --- ---------- --------- -- ------- ------ -<br>--------- ----- -----,218153.80000000075,218153.40000000224,217865.66,217865.80000000075,217882.264,218165.928,,26,a
screen,html.Screen,2_3_1_0_1_27,2022-02-15T16:48:08.434Z,,,,,,,,,,,,,,,,,15,,,,,,,,,,,,,,275.47200000222074,,response,,,,7,B,,,,,,Space,keypress(Space),,,,lyrical,,,,---- --------- ---------- - --- ------- -- --- ------------<br>----- -- -------- ------- ---- ------ - -------- ---- -----<br>--- ------- ---- -- --- -------- --- - third ------ ---- --<br>-------- --- -------- -------- --- -------- ---- -- ----- -<br>-------- ---- --- ---------- --------- -- ------- ------ -<br>--------- ----- -----,218441.80000000075,218441.40000000224,218149.265,218153.90000000224,218165.928,218449.494,,27,third
screen,html.Screen,2_3_1_0_1_28,2022-02-15T16:48:08.706Z,,,,,,,,,,,,,,,,,15,,,,,,,,,,,,,,263.9060000022291,,response,,,,7,B,,,,,,Space,keypress(Space),,,,lyrical,,,,---- --------- ---------- - --- ------- -- --- ------------<br>----- -- -------- ------- ---- ------ - -------- ---- -----<br>--- ------- ---- -- --- -------- --- - ----- prison ---- --<br>-------- --- -------- -------- --- -------- ---- -- ----- -<br>-------- ---- --- ---------- --------- -- ------- ------ -<br>--------- ----- -----,218713.80000000075,218713.40000000224,218432.798,218441.90000000224,218449.494,218716.476,,28,prison
screen,html.Screen,2_3_1_0_1_29,2022-02-15T16:48:09.018Z,,,,,,,,,,,,,,,,,15,,,,,,,,,,,,,,308.82400000074995,,response,,,,7,B,,,,,,Space,keypress(Space),,,,lyrical,,,,---- --------- ---------- - --- ------- -- --- ------------<br>----- -- -------- ------- ---- ------ - -------- ---- -----<br>--- ------- ---- -- --- -------- --- - ----- ------ stay --<br>-------- --- -------- -------- --- -------- ---- -- ----- -<br>-------- ---- --- ---------- --------- -- ------- ------ -<br>--------- ----- -----,219025.90000000224,219025.30000000075,218699.732,218713.80000000075,218716.476,219033.453,,29,stay
screen,html.Screen,2_3_1_0_1_30,2022-02-15T16:48:09.370Z,,,,,,,,,,,,,,,,,15,,,,,,,,,,,,,,343.94700000222656,,response,,,,7,B,,,,,,Space,keypress(Space),,,,lyrical,,,,---- --------- ---------- - --- ------- -- --- ------------<br>----- -- -------- ------- ---- ------ - -------- ---- -----<br>--- ------- ---- -- --- -------- --- - ----- ------ ---- to<br>-------- --- -------- -------- --- -------- ---- -- ----- -<br>-------- ---- --- ---------- --------- -- ------- ------ -<br>--------- ----- -----,219377.90000000224,219377.40000000224,219016.732,219025.90000000224,219033.453,219383.769,,30,to
screen,html.Screen,2_3_1_0_1_31,2022-02-15T16:48:09.722Z,,,,,,,,,,,,,,,,,15,,,,,,,,,,,,,,345.73099999999977,,response,,,,7,B,,,,,,Space,keypress(Space),,,,lyrical,,,,---- --------- ---------- - --- ------- -- --- ------------<br>----- -- -------- ------- ---- ------ - -------- ---- -----<br>--- ------- ---- -- --- -------- --- - ----- ------ ---- --<br>maintain --- -------- -------- --- -------- ---- -- ----- -<br>-------- ---- --- ---------- --------- -- ------- ------ -<br>--------- ----- -----,219730,219729.5,219367.129,219378,219383.769,219734.175,,31,maintain
screen,html.Screen,2_3_1_0_1_32,2022-02-15T16:48:10.090Z,,,,,,,,,,,,,,,,,15,,,,,,,,,,,,,,363.2250000022468,,response,,,,7,B,,,,,,Space,keypress(Space),,,,lyrical,,,,---- --------- ---------- - --- ------- -- --- ------------<br>----- -- -------- ------- ---- ------ - -------- ---- -----<br>--- ------- ---- -- --- -------- --- - ----- ------ ---- --<br>-------- his -------- -------- --- -------- ---- -- ----- -<br>-------- ---- --- ---------- --------- -- ------- ------ -<br>--------- ----- -----,220097.80000000075,220097.40000000224,219717.491,219730.40000000224,219734.175,220101.216,,32,his
screen,html.Screen,2_3_1_0_1_33,2022-02-15T16:48:10.474Z,,,,,,,,,,,,,,,,,15,,,,,,,,,,,,,,380.1840000022494,,response,,,,7,B,,,,,,Space,keypress(Space),,,,lyrical,,,,---- --------- ---------- - --- ------- -- --- ------------<br>----- -- -------- ------- ---- ------ - -------- ---- -----<br>--- ------- ---- -- --- -------- --- - ----- ------ ---- --<br>-------- --- silence. -------- --- -------- ---- -- ----- -<br>-------- ---- --- ---------- --------- -- ------- ------ -<br>--------- ----- -----,220481.90000000224,220481.40000000224,220084.55,220097.90000000224,220101.216,220484.889,,33,silence.
screen,html.Screen,2_3_1_0_1_34,2022-02-15T16:48:10.826Z,,,,,,,,,,,,,,,,,15,,,,,,,,,,,,,,348.6110000000044,,response,,,,7,B,,,,,,Space,keypress(Space),,,,lyrical,,,,---- --------- ---------- - --- ------- -- --- ------------<br>----- -- -------- ------- ---- ------ - -------- ---- -----<br>--- ------- ---- -- --- -------- --- - ----- ------ ---- --<br>-------- --- -------- Anderson --- -------- ---- -- ----- -<br>-------- ---- --- ---------- --------- -- ------- ------ -<br>--------- ----- -----,220833.70000000298,220833.5,220468.175,220482,220484.889,220835.204,,34,Anderson
screen,html.Screen,2_3_1_0_1_35,2022-02-15T16:48:11.122Z,,,,,,,,,,,,,,,,,15,,,,,,,,,,,,,,294.09600000074715,,response,,,,7,B,,,,,,Space,keypress(Space),,,,lyrical,,,,---- --------- ---------- - --- ------- -- --- ------------<br>----- -- -------- ------- ---- ------ - -------- ---- -----<br>--- ------- ---- -- --- -------- --- - ----- ------ ---- --<br>-------- --- -------- -------- was -------- ---- -- ----- -<br>-------- ---- --- ---------- --------- -- ------- ------ -<br>--------- ----- -----,221129.70000000298,221129.30000000075,220818.521,220833.90000000224,220835.204,221135.503,,35,was
screen,html.Screen,2_3_1_0_1_36,2022-02-15T16:48:11.468Z,,,,,,,,,,,,,,,,,15,,,,,,,,,,,,,,339.8970000022382,,response,,,,7,B,,,,,,Space,keypress(Space),,,,lyrical,,,,---- --------- ---------- - --- ------- -- --- ------------<br>----- -- -------- ------- ---- ------ - -------- ---- -----<br>--- ------- ---- -- --- -------- --- - ----- ------ ---- --<br>-------- --- -------- -------- --- released ---- -- ----- -<br>-------- ---- --- ---------- --------- -- ------- ------ -<br>--------- ----- -----,221475.80000000075,221475.40000000224,221118.806,221129.80000000075,221135.503,221485.85,,36,released
screen,html.Screen,2_3_1_0_1_37,2022-02-15T16:48:11.762Z,,,,,,,,,,,,,,,,,15,,,,,,,,,,,,,,283.55000000222935,,response,,,,7,B,,,,,,Space,keypress(Space),,,,lyrical,,,,---- --------- ---------- - --- ------- -- --- ------------<br>----- -- -------- ------- ---- ------ - -------- ---- -----<br>--- ------- ---- -- --- -------- --- - ----- ------ ---- --<br>-------- --- -------- -------- --- -------- July -- ----- -<br>-------- ---- --- ---------- --------- -- ------- ------ -<br>--------- ----- -----,221769.70000000298,221769.40000000224,221469.175,221475.90000000224,221485.85,221786.201,,37,July
screen,html.Screen,2_3_1_0_1_38,2022-02-15T16:48:12.082Z,,,,,,,,,,,,,,,,,15,,,,,,,,,,,,,,303.0990000007441,,response,,,,7,B,,,,,,Space,keypress(Space),,,,lyrical,,,,---- --------- ---------- - --- ------- -- --- ------------<br>----- -- -------- ------- ---- ------ - -------- ---- -----<br>--- ------- ---- -- --- -------- --- - ----- ------ ---- --<br>-------- --- -------- -------- --- -------- ---- 20 ----- -<br>-------- ---- --- ---------- --------- -- ------- ------ -<br>--------- ----- -----,222089.70000000298,222089.30000000075,221769.518,221769.80000000075,221786.201,222103.132,,38,20
screen,html.Screen,2_3_1_0_1_39,2022-02-15T16:48:13.202Z,,,,,,,,,,,,,,,,,15,,,,,,,,,,,,,,1106.4680000014778,,response,,,,7,B,,,,,,Space,keypress(Space),,,,lyrical,,,,---- --------- ---------- - --- ------- -- --- ------------<br>----- -- -------- ------- ---- ------ - -------- ---- -----<br>--- ------- ---- -- --- -------- --- - ----- ------ ---- --<br>-------- --- -------- -------- --- -------- ---- -- after -<br>-------- ---- --- ---------- --------- -- ------- ------ -<br>--------- ----- -----,223210.20000000298,223209.6000000015,222086.487,222089.80000000075,222103.132,223220.932,,39,after
screen,html.Screen,2_3_1_0_1_40,2022-02-15T16:48:13.522Z,,,,,,,,,,,,,,,,,15,,,,,,,,,,,,,,308.5679999999993,,response,,,,7,B,,,,,,Space,keypress(Space),,,,lyrical,,,,---- --------- ---------- - --- ------- -- --- ------------<br>----- -- -------- ------- ---- ------ - -------- ---- -----<br>--- ------- ---- -- --- -------- --- - ----- ------ ---- --<br>-------- --- -------- -------- --- -------- ---- -- ----- a<br>-------- ---- --- ---------- --------- -- ------- ------ -<br>--------- ----- -----,223530.20000000298,223529.5,223204.357,223210.30000000075,223220.932,223537.897,,40,a
