sender,sender_type,sender_id,timestamp,meta,,Blues,Classical,Country,Dance,Electronic,Folk,Gospel,Hip-Hop,Jazz,Latin,Musical/Film,New-age,Pop,Prolific_id,Provo_ID,R&B,Rap,Reggae,Religious,Rock,Soul,Swing,Traditional,age,artist_name,correct,correctResponse,distraction,duration,education,ended_on,familiarity,gender,headphone_check_performance,item,list,music_frequency,offensiveness,pleasantness,position_correct,preference,response,response_action,snippet_file,song_name,song_rating,sound,stimulus_1,stimulus_2,stimulus_3,text,time_commit,time_end,time_render,time_run,time_show,time_switch,url,word,word_ID
Prolific ID,html.Form,0,2022-02-17T14:41:01.963Z,"{""labjs_version"":""20.2.2"",""labjs_build"":{""flavor"":""production"",""commit"":""a25486e0c714a0ae2ce03ff94b7bb6896854dcfa""},""location"":""https://run.pavlovia.org/mvasilev/prolific2_music_e/"",""userAgent"":""Mozilla/5.0 (Windows NT 10.0; Win64; x64) AppleWebKit/537.36 (KHTML, like Gecko) Chrome/98.0.4758.80 Safari/537.36 Edg/98.0.1108.50"",""platform"":""Win32"",""language"":""en-GB"",""locale"":""en-GB"",""timeZone"":""Europe/London"",""timezoneOffset"":0,""screen_width"":1366,""screen_height"":768,""scroll_width"":1366,""scroll_height"":569,""window_innerWidth"":1366,""window_innerHeight"":617,""devicePixelRatio"":1}",,,,,,,,,,,,,,,5ab552656db3e700011bea12,,,,,,,,,,,,,,,5434.266000011921,,form submission,,,,,,,,,,,,,,,,,,,,,53237.700000047684,53235.30000001192,47351.496,47331.40000003576,47801.034,53278.995,{},,
Introduction,html.Screen,1_0,2022-02-17T14:41:04.482Z,,,,,,,,,,,,,,,,,,,,,,,,,,,,,,,2475.1050000238392,,response,,,,,,,,,,,continue,click button,,,,,,,,,55756.80000001192,55754.10000002384,53212.434,53239,53278.995,55776.545,,,
Volume calibration,html.Screen,1_1,2022-02-17T14:41:24.215Z,,,,,,,,,,,,,,,,,,,,,,,,,,,,,,,19705.955,,response,,,,,,,,,,,continue,click button,,,,,,,,,75489.60000002384,75482.5,55759.92,55757.200000047684,55776.545,75507.264,,,
Task instructions,html.Screen,1_2,2022-02-17T14:41:29.768Z,,,,,,,,,,,,,,,,,,,,,,,,,,,,,,,5531.236000000004,,response,,,,,,,,,,,continue,click button,,,,,,,,,81042.20000004768,81038.5,75490.607,75489.80000001192,75507.264,81051.814,,,
Sounds,html.Screen,1_3_0_0,2022-02-17T14:41:34.011Z,,,,,,,,,,,,,,,,,,,,,,,,,,,,,,,4245.9330000000045,,timeout,,,,,,,,,1,,,,,,,,S,I,O,,85286,85281.007,81035.147,81042.60000002384,81051.814,85297.747,,,
Judgement,html.Screen,1_3_0_1,2022-02-17T14:41:35.364Z,,,,,,,,,,,,,,,,,,,,,,,,,,,,true,1,,1338.1530000357598,,response,,,,,,,,,1,,1,click #choice-1,,,,,S,I,O,,86639.10000002384,86635.90000003576,85281.007,85286.30000001192,85297.747,86646.341,,,
Trial,flow.Sequence,1_3_0,2022-02-17T14:41:35.365Z,,,,,,,,,,,,,,,,,,,,,,,,,,,,,,,5584.086000035764,,completion,,,,,,,,,1,,,,,,,,S,I,O,,86639.80000001192,86635.90000003576,81035.147,81042.5,81051.814,86646.341,,,
Sounds,html.Screen,1_3_1_0,2022-02-17T14:41:39.602Z,,,,,,,,,,,,,,,,,,,,,,,,,,,,,,,4245.830000000002,,timeout,,,,,,,,,3,,,,,,,,I,O,S,,90876.80000001192,90875.526,86629.692,86640.10000002384,86646.341,90892.171,,,
Judgement,html.Screen,1_3_1_1,2022-02-17T14:41:40.170Z,,,,,,,,,,,,,,,,,,,,,,,,,,,,true,3,,549.0290000476816,,response,,,,,,,,,3,,3,click #choice-3,,,,,I,O,S,,91444.5,91441.20000004768,90875.526,90877,90892.171,91458.297,,,
Trial,flow.Sequence,1_3_1,2022-02-17T14:41:40.171Z,,,,,,,,,,,,,,,,,,,,,,,,,,,,,,,4794.859000047683,,completion,,,,,,,,,3,,,,,,,,I,O,S,,91445.30000001192,91441.20000004768,86629.692,86640.10000002384,86646.341,91458.297,,,
Sounds,html.Screen,1_3_2_0,2022-02-17T14:41:44.414Z,,,,,,,,,,,,,,,,,,,,,,,,,,,,,,,4245.828999999998,,timeout,,,,,,,,,2,,,,,,,,I,S,O,,95688.60000002384,95687.472,91441.643,91445.80000001192,91458.297,95704.126,,,
Judgement,html.Screen,1_3_2_1,2022-02-17T14:41:44.810Z,,,,,,,,,,,,,,,,,,,,,,,,,,,,true,2,,377.37399999999616,,response,,,,,,,,,2,,2,click #choice-2,,,,,I,S,O,,96085.10000002384,96081.5,95687.472,95689.10000002384,95704.126,96087.101,,,
Trial,flow.Sequence,1_3_2,2022-02-17T14:41:44.811Z,,,,,,,,,,,,,,,,,,,,,,,,,,,,,,,4623.202999999994,,completion,,,,,,,,,2,,,,,,,,I,S,O,,96085.5,96081.5,91441.643,91445.70000004768,91458.297,96087.101,,,
Sounds,html.Screen,1_3_3_0,2022-02-17T14:41:49.043Z,,,,,,,,,,,,,,,,,,,,,,,,,,,,,,,4245.8369999999995,,timeout,,,,,,,,,3,,,,,,,,O,I,S,,100317.5,100316.294,96070.445,96085.80000001192,96087.101,100332.938,,,
Judgement,html.Screen,1_3_3_1,2022-02-17T14:41:49.283Z,,,,,,,,,,,,,,,,,,,,,,,,,,,,true,3,,222.6620000238472,,response,,,,,,,,,3,,3,click #choice-3,,,,,O,I,S,,100558,100555.60000002384,100316.294,100317.70000004768,100332.938,100566.053,,,
Trial,flow.Sequence,1_3_3,2022-02-17T14:41:49.284Z,,,,,,,,,,,,,,,,,,,,,,,,,,,,,,,4468.499000023847,,completion,,,,,,,,,3,,,,,,,,O,I,S,,100558.40000003576,100555.60000002384,96070.445,96085.70000004768,96087.101,100566.053,,,
Sounds,html.Screen,1_3_4_0,2022-02-17T14:41:53.522Z,,,,,,,,,,,,,,,,,,,,,,,,,,,,,,,4245.839000000007,,timeout,,,,,,,,,2,,,,,,,,O,S,I,,104796.5,104795.217,100549.399,100558.70000004768,100566.053,104811.892,,,
Judgement,html.Screen,1_3_4_1,2022-02-17T14:41:53.930Z,,,,,,,,,,,,,,,,,,,,,,,,,,,,true,2,,390.20800002383476,,response,,,,,,,,,2,,2,click #choice-2,,,,,O,S,I,,105204.5,105202.10000002384,104795.217,104796.80000001192,104811.892,105228.138,,,
Trial,flow.Sequence,1_3_4,2022-02-17T14:41:53.930Z,,,,,,,,,,,,,,,,,,,,,,,,,,,,,,,4636.047000023842,,completion,,,,,,,,,2,,,,,,,,O,S,I,,105204.90000003576,105202.10000002384,100549.399,100558.70000004768,100566.053,105228.138,,,
Sounds,html.Screen,1_3_5_0,2022-02-17T14:41:58.184Z,,,,,,,,,,,,,,,,,,,,,,,,,,,,,,,4245.844999999987,,timeout,,,,,,,,,1,,,,,,,,S,O,I,,109458.20000004768,109457.335,105211.492,105205.10000002384,105228.138,109473.983,,,
Judgement,html.Screen,1_3_5_1,2022-02-17T14:41:58.570Z,,,,,,,,,,,,,,,,,,,,,,,,,,,,true,1,,367.81700001192803,,response,,,,,,,,,1,,1,click #choice-1,,,,,S,O,I,,109844.80000001192,109841.80000001192,109457.335,109458.40000003576,109473.983,109856.958,,,
Trial,flow.Sequence,1_3_5,2022-02-17T14:41:58.571Z,,,,,,,,,,,,,,,,,,,,,,,,,,,,,,,4613.662000011915,,completion,,,,,,,,,1,,,,,,,,S,O,I,,109845.30000001192,109841.80000001192,105211.492,105205,105228.138,109856.958,,,
Task,flow.Loop,1_3,2022-02-17T14:41:58.578Z,,,,,,,,,,,,,,,,,,,,,,,,,,,,,,,28789.986000011922,,completion,,,1,,,,,,,,,,,,,,,,,,109852.70000004768,109841.80000001192,81035.147,81042.5,81051.814,109856.958,,,
Trap,html.Screen,1_4,2022-02-17T14:41:58.585Z,,,,,,,,,,,,,,,,,,,,,,,,,,,,,,,NaN,,skipped,,,,,,,,,,,,,,,,,,,,,109859.60000002384,109841.80000001192,,109859.30000001192,,109856.958,,,
Thanks,html.Screen,1_5,2022-02-17T14:42:01.510Z,,,,,,,,,,,,,,,,,,,,,,,,,,,,,,,2925.442000035764,,response,,,,,,,,,,,continue,click button,,,,,,,,,112785.20000004768,112782.40000003576,109840.278,109859.80000001192,109856.958,115901.071,,,
Headphone screening,flow.Sequence,1,2022-02-17T14:42:01.511Z,,,,,,,,,,,,,,,,,,,,,,,,,,,,,,,59503.40500003576,,completion,,,,,,,,,,,,,,,,,,,,,112785.40000003576,112782.40000003576,53212.434,53239,53278.995,115901.071,,,
Instructions,html.Page,2_0,2022-02-17T14:42:36.108Z,,,,,,,,,,,,,,,,,,,,,,,,,,,,,,,31479.829000035767,,form submission,,,,,,,,,,,,,,,,,,,,,147382.5,147380.90000003576,115884.417,115906.80000001192,115901.071,147386.873,,,
Holding screen,html.Screen,2_1_0_0,2022-02-17T14:42:46.104Z,,,,,,,,,,,,,,,,,,,,,,,,,,,,,,,10040.157999999996,,timeout,,,,,,,,,,,,,,,,,,,,,157378.5,157377.254,147370.215,147382.90000003576,147386.873,157427.031,,,
screen,html.Screen,2_1_0_1_0,2022-02-17T14:42:47.003Z,,,,,,,,,,,,,,,,,53,,,,,,,,,,,,,,845.1690000476956,,response,,,,99,,,,,,,Space,keypress(Space),,,,,,,,When -- ----- -- ------ - ------- --- ----------<br>------------- ------ ------ ---- ---- ------- ----- -- ----<br>-------- ------- -- ---------- --- - --- ----- ----- ----<br>---- --- --- ----- --- ---- ---- ------- ----- ---- -------<br>--- --- -- ----- -- --- ---- -- --- ---- -- ------ ------<br>--- ----- -- ----,158277.10000002384,158272.20000004768,157377.254,157378.90000003576,157427.031,158293.124,,0,When
screen,html.Screen,2_1_0_1_1,2022-02-17T14:42:47.543Z,,,,,,,,,,,,,,,,,53,,,,,,,,,,,,,,522.8759999999893,,response,,,,99,,,,,,,Space,keypress(Space),,,,,,,,---- it ----- -- ------ - ------- --- ----------<br>------------- ------ ------ ---- ---- ------- ----- -- ----<br>-------- ------- -- ---------- --- - --- ----- ----- ----<br>---- --- --- ----- --- ---- ---- ------- ----- ---- -------<br>--- --- -- ----- -- --- ---- -- --- ---- -- ------ ------<br>--- ----- -- ----,158816.70000004768,158816,158276.186,158277.30000001192,158293.124,158825.838,,1,it
screen,html.Screen,2_1_0_1_2,2022-02-17T14:42:47.984Z,,,,,,,,,,,,,,,,,53,,,,,,,,,,,,,,430.3620000476949,,response,,,,99,,,,,,,Space,keypress(Space),,,,,,,,---- -- comes -- ------ - ------- --- ----------<br>------------- ------ ------ ---- ---- ------- ----- -- ----<br>-------- ------- -- ---------- --- - --- ----- ----- ----<br>---- --- --- ----- --- ---- ---- ------- ----- ---- -------<br>--- --- -- ----- -- --- ---- -- --- ---- -- ------ ------<br>--- ----- -- ----,159257.40000003576,159256.20000004768,158808.991,158816.80000001192,158825.838,159291.923,,2,comes
screen,html.Screen,2_1_0_1_3,2022-02-17T14:42:48.371Z,,,,,,,,,,,,,,,,,53,,,,,,,,,,,,,,352.5769999999902,,response,,,,99,,,,,,,Space,keypress(Space),,,,,,,,---- -- ----- to ------ - ------- --- ----------<br>------------- ------ ------ ---- ---- ------- ----- -- ----<br>-------- ------- -- ---------- --- - --- ----- ----- ----<br>---- --- --- ----- --- ---- ---- ------- ----- ---- -------<br>--- --- -- ----- -- --- ---- -- --- ---- -- ------ ------<br>--- ----- -- ----,159645.10000002384,159644.5,159275.226,159257.80000001192,159291.923,159658.229,,3,to
screen,html.Screen,2_1_0_1_4,2022-02-17T14:42:48.791Z,,,,,,,,,,,,,,,,,53,,,,,,,,,,,,,,405.57100001192885,,response,,,,99,,,,,,,Space,keypress(Space),,,,,,,,---- -- ----- -- having - ------- --- ----------<br>------------- ------ ------ ---- ---- ------- ----- -- ----<br>-------- ------- -- ---------- --- - --- ----- ----- ----<br>---- --- --- ----- --- ---- ---- ------- ----- ---- -------<br>--- --- -- ----- -- --- ---- -- --- ---- -- ------ ------<br>--- ----- -- ----,160065,160063.80000001192,159641.514,159645.40000003576,159658.229,160074.482,,4,having
screen,html.Screen,2_1_0_1_5,2022-02-17T14:42:49.163Z,,,,,,,,,,,,,,,,,53,,,,,,,,,,,,,,361.71800004769466,,response,,,,99,,,,,,,Space,keypress(Space),,,,,,,,---- -- ----- -- ------ a ------- --- ----------<br>------------- ------ ------ ---- ---- ------- ----- -- ----<br>-------- ------- -- ---------- --- - --- ----- ----- ----<br>---- --- --- ----- --- ---- ---- ------- ----- ---- -------<br>--- --- -- ----- -- --- ---- -- --- ---- -- ------ ------<br>--- ----- -- ----,160437.10000002384,160436.20000004768,160057.773,160065.30000001192,160074.482,160440.748,,5,a
screen,html.Screen,2_1_0_1_6,2022-02-17T14:42:49.573Z,,,,,,,,,,,,,,,,,53,,,,,,,,,,,,,,405.0520000119286,,response,,,,99,,,,,,,Space,keypress(Space),,,,,,,,---- -- ----- -- ------ - lasting --- ----------<br>------------- ------ ------ ---- ---- ------- ----- -- ----<br>-------- ------- -- ---------- --- - --- ----- ----- ----<br>---- --- --- ----- --- ---- ---- ------- ----- ---- -------<br>--- --- -- ----- -- --- ---- -- --- ---- -- ------ ------<br>--- ----- -- ----,160847,160845.80000001192,160424.099,160437.30000001192,160440.748,160857.034,,6,lasting
screen,html.Screen,2_1_0_1_7,2022-02-17T14:42:49.978Z,,,,,,,,,,,,,,,,,53,,,,,,,,,,,,,,393.6660000476695,,response,,,,99,,,,,,,Space,keypress(Space),,,,,,,,---- -- ----- -- ------ - ------- and ----------<br>------------- ------ ------ ---- ---- ------- ----- -- ----<br>-------- ------- -- ---------- --- - --- ----- ----- ----<br>---- --- --- ----- --- ---- ---- ------- ----- ---- -------<br>--- --- -- ----- -- --- ---- -- --- ---- -- ------ ------<br>--- ----- -- ----,161251.5,161250.70000004768,160840.345,160847.30000001192,160857.034,161257.918,,7,and
screen,html.Screen,2_1_0_1_8,2022-02-17T14:42:50.484Z,,,,,,,,,,,,,,,,,53,,,,,,,,,,,,,,498.68200002383674,,response,,,,99,,,,,,,Space,keypress(Space),,,,,,,,---- -- ----- -- ------ - ------- --- fulfilling<br>------------- ------ ------ ---- ---- ------- ----- -- ----<br>-------- ------- -- ---------- --- - --- ----- ----- ----<br>---- --- --- ----- --- ---- ---- ------- ----- ---- -------<br>--- --- -- ----- -- --- ---- -- --- ---- -- ------ ------<br>--- ----- -- ----,161757.60000002384,161756.60000002384,161239.952,161251.80000001192,161257.918,161772.891,,8,fulfilling
screen,html.Screen,2_1_0_1_9,2022-02-17T14:42:51.207Z,,,,,,,,,,,,,,,,,53,,,,,,,,,,,,,,707.4090000119177,,response,,,,99,,,,,,,Space,keypress(Space),,,,,,,,"---- -- ----- -- ------ - ------- --- ----------<br>relationship, ------ ------ ---- ---- ------- ----- -- ----<br>-------- ------- -- ---------- --- - --- ----- ----- ----<br>---- --- --- ----- --- ---- ---- ------- ----- ---- -------<br>--- --- -- ----- -- --- ---- -- --- ---- -- ------ ------<br>--- ----- -- ----",162481.10000002384,162480.30000001192,161756.119,161757.90000003576,161772.891,162488.782,,9,"relationship,"
screen,html.Screen,2_1_0_1_10,2022-02-17T14:42:51.705Z,,,,,,,,,,,,,,,,,53,,,,,,,,,,,,,,489.7179999999935,,response,,,,99,,,,,,,Space,keypress(Space),,,,,,,,---- -- ----- -- ------ - ------- --- ----------<br>------------- common ------ ---- ---- ------- ----- -- ----<br>-------- ------- -- ---------- --- - --- ----- ----- ----<br>---- --- --- ----- --- ---- ---- ------- ----- ---- -------<br>--- --- -- ----- -- --- ---- -- --- ---- -- ------ ------<br>--- ----- -- ----,162979.30000001192,162978.5,162472.071,162481.30000001192,162488.782,162988.462,,10,common
screen,html.Screen,2_1_0_1_11,2022-02-17T14:42:52.433Z,,,,,,,,,,,,,,,,,53,,,,,,,,,,,,,,717.8380000119214,,response,,,,99,,,,,,,Space,keypress(Space),,,,,,,,---- -- ----- -- ------ - ------- --- ----------<br>------------- ------ wisdom ---- ---- ------- ----- -- ----<br>-------- ------- -- ---------- --- - --- ----- ----- ----<br>---- --- --- ----- --- ---- ---- ------- ----- ---- -------<br>--- --- -- ----- -- --- ---- -- --- ---- -- ------ ------<br>--- ----- -- ----,163707.40000003576,163706.30000001192,162971.605,162979.60000002384,162988.462,163720.965,,11,wisdom
screen,html.Screen,2_1_0_1_12,2022-02-17T14:42:53.160Z,,,,,,,,,,,,,,,,,53,,,,,,,,,,,,,,711.9350000357663,,response,,,,99,,,,,,,Space,keypress(Space),,,,,,,,---- -- ----- -- ------ - ------- --- ----------<br>------------- ------ ------ says ---- ------- ----- -- ----<br>-------- ------- -- ---------- --- - --- ----- ----- ----<br>---- --- --- ----- --- ---- ---- ------- ----- ---- -------<br>--- --- -- ----- -- --- ---- -- --- ---- -- ------ ------<br>--- ----- -- ----,164433.60000002384,164432.90000003576,163704.204,163707.60000002384,163720.965,164436.841,,12,says
screen,html.Screen,2_1_0_1_13,2022-02-17T14:42:53.590Z,,,,,,,,,,,,,,,,,53,,,,,,,,,,,,,,426.75900002385606,,response,,,,99,,,,,,,Space,keypress(Space),,,,,,,,---- -- ----- -- ------ - ------- --- ----------<br>------------- ------ ------ ---- that ------- ----- -- ----<br>-------- ------- -- ---------- --- - --- ----- ----- ----<br>---- --- --- ----- --- ---- ---- ------- ----- ---- -------<br>--- --- -- ----- -- --- ---- -- --- ---- -- ------ ------<br>--- ----- -- ----,164864.30000001192,164863.60000002384,164420.175,164433.80000001192,164436.841,164869.758,,13,that
screen,html.Screen,2_1_0_1_14,2022-02-17T14:42:54.051Z,,,,,,,,,,,,,,,,,53,,,,,,,,,,,,,,454.14200003576116,,response,,,,99,,,,,,,Space,keypress(Space),,,,,,,,---- -- ----- -- ------ - ------- --- ----------<br>------------- ------ ------ ---- ---- feeling ----- -- ----<br>-------- ------- -- ---------- --- - --- ----- ----- ----<br>---- --- --- ----- --- ---- ---- ------- ----- ---- -------<br>--- --- -- ----- -- --- ---- -- --- ---- -- ------ ------<br>--- ----- -- ----,165324.80000001192,165323.90000003576,164853.082,164864.5,164869.758,165336.007,,14,feeling
screen,html.Screen,2_1_0_1_15,2022-02-17T14:42:54.443Z,,,,,,,,,,,,,,,,,53,,,,,,,,,,,,,,380.49299999998766,,response,,,,99,,,,,,,Space,keypress(Space),,,,,,,,---- -- ----- -- ------ - ------- --- ----------<br>------------- ------ ------ ---- ---- ------- close -- ----<br>-------- ------- -- ---------- --- - --- ----- ----- ----<br>---- --- --- ----- --- ---- ---- ------- ----- ---- -------<br>--- --- -- ----- -- --- ---- -- --- ---- -- ------ ------<br>--- ----- -- ----,165717.20000004768,165716.5,165319.295,165325,165336.007,165737.469,,15,close
screen,html.Screen,2_1_0_1_16,2022-02-17T14:42:54.728Z,,,,,,,,,,,,,,,,,53,,,,,,,,,,,,,,263.63100002383,,response,,,,99,,,,,,,Space,keypress(Space),,,,,,,,---- -- ----- -- ------ - ------- --- ----------<br>------------- ------ ------ ---- ---- ------- ----- to ----<br>-------- ------- -- ---------- --- - --- ----- ----- ----<br>---- --- --- ----- --- ---- ---- ------- ----- ---- -------<br>--- --- -- ----- -- --- ---- -- --- ---- -- ------ ------<br>--- ----- -- ----,166001.90000003576,166001.10000002384,165702.261,165717.40000003576,165737.469,166018.678,,16,to
screen,html.Screen,2_1_0_1_17,2022-02-17T14:42:55.121Z,,,,,,,,,,,,,,,,,53,,,,,,,,,,,,,,375.4220000238274,,response,,,,99,,,,,,,Space,keypress(Space),,,,,,,,---- -- ----- -- ------ - ------- --- ----------<br>------------- ------ ------ ---- ---- ------- ----- -- your<br>-------- ------- -- ---------- --- - --- ----- ----- ----<br>---- --- --- ----- --- ---- ---- ------- ----- ---- -------<br>--- --- -- ----- -- --- ---- -- --- ---- -- ------ ------<br>--- ----- -- ----,166394.80000001192,166394.10000002384,166001.968,166002.10000002384,166018.678,166401.585,,17,your
screen,html.Screen,2_1_0_1_18,2022-02-17T14:42:55.614Z,,,,,,,,,,,,,,,,,53,,,,,,,,,,,,,,484.81500003577094,,response,,,,99,,,,,,,Space,keypress(Space),,,,,,,,---- -- ----- -- ------ - ------- --- ----------<br>------------- ------ ------ ---- ---- ------- ----- -- ----<br>romantic ------- -- ---------- --- - --- ----- ----- ----<br>---- --- --- ----- --- ---- ---- ------- ----- ---- -------<br>--- --- -- ----- -- --- ---- -- --- ---- -- ------ ------<br>--- ----- -- ----,166887.40000003576,166886.40000003576,166384.917,166395,166401.585,166901.125,,18,romantic
screen,html.Screen,2_1_0_1_19,2022-02-17T14:42:56.258Z,,,,,,,,,,,,,,,,,53,,,,,,,,,,,,,,629.5750000476837,,response,,,,99,,,,,,,Space,keypress(Space),,,,,,,,---- -- ----- -- ------ - ------- --- ----------<br>------------- ------ ------ ---- ---- ------- ----- -- ----<br>-------- partner -- ---------- --- - --- ----- ----- ----<br>---- --- --- ----- --- ---- ---- ------- ----- ---- -------<br>--- --- -- ----- -- --- ---- -- --- ---- -- ------ ------<br>--- ----- -- ----,167531.40000003576,167530.70000004768,166884.43,166887.80000001192,166901.125,167533.816,,19,partner
screen,html.Screen,2_1_0_1_20,2022-02-17T14:42:56.614Z,,,,,,,,,,,,,,,,,53,,,,,,,,,,,,,,353.3840000476921,,response,,,,99,,,,,,,Space,keypress(Space),,,,,,,,---- -- ----- -- ------ - ------- --- ----------<br>------------- ------ ------ ---- ---- ------- ----- -- ----<br>-------- ------- is ---------- --- - --- ----- ----- ----<br>---- --- --- ----- --- ---- ---- ------- ----- ---- -------<br>--- --- -- ----- -- --- ---- -- --- ---- -- ------ ------<br>--- ----- -- ----,167888,167887.20000004768,167517.126,167531.70000004768,167533.816,167900.146,,20,is
screen,html.Screen,2_1_0_1_21,2022-02-17T14:42:57.000Z,,,,,,,,,,,,,,,,,53,,,,,,,,,,,,,,372.3539999999921,,response,,,,99,,,,,,,Space,keypress(Space),,,,,,,,---- -- ----- -- ------ - ------- --- ----------<br>------------- ------ ------ ---- ---- ------- ----- -- ----<br>-------- ------- -- paramount. --- - --- ----- ----- ----<br>---- --- --- ----- --- ---- ---- ------- ----- ---- -------<br>--- --- -- ----- -- --- ---- -- --- ---- -- ------ ------<br>--- ----- -- ----,168273.40000003576,168272.5,167883.445,167888.20000004768,167900.146,168283.099,,21,paramount.
screen,html.Screen,2_1_0_1_22,2022-02-17T14:42:57.450Z,,,,,,,,,,,,,,,,,53,,,,,,,,,,,,,,439.50100002385443,,response,,,,99,,,,,,,Space,keypress(Space),,,,,,,,---- -- ----- -- ------ - ------- --- ----------<br>------------- ------ ------ ---- ---- ------- ----- -- ----<br>-------- ------- -- ---------- But - --- ----- ----- ----<br>---- --- --- ----- --- ---- ---- ------- ----- ---- -------<br>--- --- -- ----- -- --- ---- -- --- ---- -- ------ ------<br>--- ----- -- ----,168723.40000003576,168722.60000002384,168266.404,168273.70000004768,168283.099,168732.636,,22,But
screen,html.Screen,2_1_0_1_23,2022-02-17T14:42:57.723Z,,,,,,,,,,,,,,,,,53,,,,,,,,,,,,,,263.8640000000014,,response,,,,99,,,,,,,Space,keypress(Space),,,,,,,,---- -- ----- -- ------ - ------- --- ----------<br>------------- ------ ------ ---- ---- ------- ----- -- ----<br>-------- ------- -- ---------- --- a --- ----- ----- ----<br>---- --- --- ----- --- ---- ---- ------- ----- ---- -------<br>--- --- -- ----- -- --- ---- -- --- ---- -- ------ ------<br>--- ----- -- ----,168997.20000004768,168996.5,168715.957,168723.60000002384,168732.636,168999.026,,23,a
screen,html.Screen,2_1_0_1_24,2022-02-17T14:42:57.909Z,,,,,,,,,,,,,,,,,53,,,,,,,,,,,,,,182.8740000357502,,response,,,,99,,,,,,,Space,keypress(Space),,,,,,,,---- -- ----- -- ------ - ------- --- ----------<br>------------- ------ ------ ---- ---- ------- ----- -- ----<br>-------- ------- -- ---------- --- - new ----- ----- ----<br>---- --- --- ----- --- ---- ---- ------- ----- ---- -------<br>--- --- -- ----- -- --- ---- -- --- ---- -- ------ ------<br>--- ----- -- ----,169182.60000002384,169181.90000003576,168982.38,168997.40000003576,168999.026,169198.883,,24,new
screen,html.Screen,2_1_0_1_25,2022-02-17T14:42:58.296Z,,,,,,,,,,,,,,,,,53,,,,,,,,,,,,,,370.51700003576116,,response,,,,99,,,,,,,Space,keypress(Space),,,,,,,,---- -- ----- -- ------ - ------- --- ----------<br>------------- ------ ------ ---- ---- ------- ----- -- ----<br>-------- ------- -- ---------- --- - --- study ----- ----<br>---- --- --- ----- --- ---- ---- ------- ----- ---- -------<br>--- --- -- ----- -- --- ---- -- --- ---- -- ------ ------<br>--- ----- -- ----,169570.10000002384,169569.40000003576,169182.176,169182.80000001192,169198.883,169581.846,,25,study
screen,html.Screen,2_1_0_1_26,2022-02-17T14:42:58.656Z,,,,,,,,,,,,,,,,,53,,,,,,,,,,,,,,347.35400004769326,,response,,,,99,,,,,,,Space,keypress(Space),,,,,,,,---- -- ----- -- ------ - ------- --- ----------<br>------------- ------ ------ ---- ---- ------- ----- -- ----<br>-------- ------- -- ---------- --- - --- ----- finds ----<br>---- --- --- ----- --- ---- ---- ------- ----- ---- -------<br>--- --- -- ----- -- --- ---- -- --- ---- -- ------ ------<br>--- ----- -- ----,169929.90000003576,169929.20000004768,169565.135,169571.70000004768,169581.846,169964.105,,26,finds
screen,html.Screen,2_1_0_1_27,2022-02-17T14:42:58.960Z,,,,,,,,,,,,,,,,,53,,,,,,,,,,,,,,268.7950000357523,,response,,,,99,,,,,,,Space,keypress(Space),,,,,,,,---- -- ----- -- ------ - ------- --- ----------<br>------------- ------ ------ ---- ---- ------- ----- -- ----<br>-------- ------- -- ---------- --- - --- ----- ----- that<br>---- --- --- ----- --- ---- ---- ------- ----- ---- -------<br>--- --- -- ----- -- --- ---- -- --- ---- -- ------ ------<br>--- ----- -- ----,170233.80000001192,170232.90000003576,169914.78,169930.10000002384,169964.105,170247.858,,27,that
screen,html.Screen,2_1_0_1_28,2022-02-17T14:42:59.198Z,,,,,,,,,,,,,,,,,53,,,,,,,,,,,,,,222.94200001191348,,response,,,,99,,,,,,,Space,keypress(Space),,,,,,,,---- -- ----- -- ------ - ------- --- ----------<br>------------- ------ ------ ---- ---- ------- ----- -- ----<br>-------- ------- -- ---------- --- - --- ----- ----- ----<br>it's --- --- ----- --- ---- ---- ------- ----- ---- -------<br>--- --- -- ----- -- --- ---- -- --- ---- -- ------ ------<br>--- ----- -- ----,170471.5,170470.80000001192,170231.167,170234,170247.858,170480.961,,28,it's
screen,html.Screen,2_1_0_1_29,2022-02-17T14:42:59.421Z,,,,,,,,,,,,,,,,,53,,,,,,,,,,,,,,213.6390000238316,,response,,,,99,,,,,,,Space,keypress(Space),,,,,,,,---- -- ----- -- ------ - ------- --- ----------<br>------------- ------ ------ ---- ---- ------- ----- -- ----<br>-------- ------- -- ---------- --- - --- ----- ----- ----<br>---- not --- ----- --- ---- ---- ------- ----- ---- -------<br>--- --- -- ----- -- --- ---- -- --- ---- -- ------ ------<br>--- ----- -- ----,170695.30000001192,170694.60000002384,170464.266,170471.60000002384,170480.961,170697.366,,29,not
screen,html.Screen,2_1_0_1_30,2022-02-17T14:42:59.630Z,,,,,,,,,,,,,,,,,53,,,,,,,,,,,,,,205.73400002383278,,response,,,,99,,,,,,,Space,keypress(Space),,,,,,,,---- -- ----- -- ------ - ------- --- ----------<br>------------- ------ ------ ---- ---- ------- ----- -- ----<br>-------- ------- -- ---------- --- - --- ----- ----- ----<br>---- --- how ----- --- ---- ---- ------- ----- ---- -------<br>--- --- -- ----- -- --- ---- -- --- ---- -- ------ ------<br>--- ----- -- ----,170903.90000003576,170903.10000002384,170680.714,170695.40000003576,170697.366,170913.895,,30,how
screen,html.Screen,2_1_0_1_31,2022-02-17T14:42:59.827Z,,,,,,,,,,,,,,,,,53,,,,,,,,,,,,,,186.10500000001048,,response,,,,99,,,,,,,Space,keypress(Space),,,,,,,,---- -- ----- -- ------ - ------- --- ----------<br>------------- ------ ------ ---- ---- ------- ----- -- ----<br>-------- ------- -- ---------- --- - --- ----- ----- ----<br>---- --- --- close --- ---- ---- ------- ----- ---- -------<br>--- --- -- ----- -- --- ---- -- --- ---- -- ------ ------<br>--- ----- -- ----,171100.90000003576,171100,170897.165,170904.10000002384,170913.895,171113.684,,31,close
screen,html.Screen,2_1_0_1_32,2022-02-17T14:43:00.068Z,,,,,,,,,,,,,,,,,53,,,,,,,,,,,,,,227.01600004767533,,response,,,,99,,,,,,,Space,keypress(Space),,,,,,,,---- -- ----- -- ------ - ------- --- ----------<br>------------- ------ ------ ---- ---- ------- ----- -- ----<br>-------- ------- -- ---------- --- - --- ----- ----- ----<br>---- --- --- ----- you ---- ---- ------- ----- ---- -------<br>--- --- -- ----- -- --- ---- -- --- ---- -- ------ ------<br>--- ----- -- ----,171341.40000003576,171340.70000004768,171097.002,171101.20000004768,171113.684,171346.751,,32,you
screen,html.Screen,2_1_0_1_33,2022-02-17T14:43:00.309Z,,,,,,,,,,,,,,,,,53,,,,,,,,,,,,,,234.84900002385257,,response,,,,99,,,,,,,Space,keypress(Space),,,,,,,,---- -- ----- -- ------ - ------- --- ----------<br>------------- ------ ------ ---- ---- ------- ----- -- ----<br>-------- ------- -- ---------- --- - --- ----- ----- ----<br>---- --- --- ----- --- feel ---- ------- ----- ---- -------<br>--- --- -- ----- -- --- ---- -- --- ---- -- ------ ------<br>--- ----- -- ----,171582.40000003576,171581.60000002384,171330.089,171341.60000002384,171346.751,171596.586,,33,feel
screen,html.Screen,2_1_0_1_34,2022-02-17T14:43:00.530Z,,,,,,,,,,,,,,,,,53,,,,,,,,,,,,,,207.0140000238316,,response,,,,99,,,,,,,Space,keypress(Space),,,,,,,,---- -- ----- -- ------ - ------- --- ----------<br>------------- ------ ------ ---- ---- ------- ----- -- ----<br>-------- ------- -- ---------- --- - --- ----- ----- ----<br>---- --- --- ----- --- ---- that ------- ----- ---- -------<br>--- --- -- ----- -- --- ---- -- --- ---- -- ------ ------<br>--- ----- -- ----,171804.30000001192,171803.60000002384,171579.828,171582.70000004768,171596.586,171813.014,,34,that
screen,html.Screen,2_1_0_1_35,2022-02-17T14:43:00.750Z,,,,,,,,,,,,,,,,,53,,,,,,,,,,,,,,210.28600001192535,,response,,,,99,,,,,,,Space,keypress(Space),,,,,,,,---- -- ----- -- ------ - ------- --- ----------<br>------------- ------ ------ ---- ---- ------- ----- -- ----<br>-------- ------- -- ---------- --- - --- ----- ----- ----<br>---- --- --- ----- --- ---- ---- matters ----- ---- -------<br>--- --- -- ----- -- --- ---- -- --- ---- -- ------ ------<br>--- ----- -- ----,172024,172023.30000001192,171796.284,171804.5,171813.014,172029.397,,35,matters
screen,html.Screen,2_1_0_1_36,2022-02-17T14:43:00.977Z,,,,,,,,,,,,,,,,,53,,,,,,,,,,,,,,221.20300002384465,,response,,,,99,,,,,,,Space,keypress(Space),,,,,,,,"---- -- ----- -- ------ - ------- --- ----------<br>------------- ------ ------ ---- ---- ------- ----- -- ----<br>-------- ------- -- ---------- --- - --- ----- ----- ----<br>---- --- --- ----- --- ---- ---- ------- most, ---- -------<br>--- --- -- ----- -- --- ---- -- --- ---- -- ------ ------<br>--- ----- -- ----",172251.40000003576,172250.60000002384,172012.749,172024.20000004768,172029.397,172263.813,,36,"most,"
screen,html.Screen,2_1_0_1_37,2022-02-17T14:43:01.199Z,,,,,,,,,,,,,,,,,53,,,,,,,,,,,,,,208.48700001192628,,response,,,,99,,,,,,,Space,keypress(Space),,,,,,,,---- -- ----- -- ------ - ------- --- ----------<br>------------- ------ ------ ---- ---- ------- ----- -- ----<br>-------- ------- -- ---------- --- - --- ----- ----- ----<br>---- --- --- ----- --- ---- ---- ------- ----- it's -------<br>--- --- -- ----- -- --- ---- -- --- ---- -- ------ ------<br>--- ----- -- ----,172473.10000002384,172472.30000001192,172245.837,172251.60000002384,172263.813,172478.95,,37,it's
screen,html.Screen,2_1_0_1_38,2022-02-17T14:43:01.590Z,,,,,,,,,,,,,,,,,53,,,,,,,,,,,,,,384.54999999998836,,response,,,,99,,,,,,,Space,keypress(Space),,,,,,,,---- -- ----- -- ------ - ------- --- ----------<br>------------- ------ ------ ---- ---- ------- ----- -- ----<br>-------- ------- -- ---------- --- - --- ----- ----- ----<br>---- --- --- ----- --- ---- ---- ------- ----- ---- whether<br>--- --- -- ----- -- --- ---- -- --- ---- -- ------ ------<br>--- ----- -- ----,172864.20000004768,172863.5,172462.346,172473.20000004768,172478.95,172878.604,,38,whether
screen,html.Screen,2_1_0_1_39,2022-02-17T14:43:01.908Z,,,,,,,,,,,,,,,,,53,,,,,,,,,,,,,,302.8960000000079,,response,,,,99,,,,,,,Space,keypress(Space),,,,,,,,---- -- ----- -- ------ - ------- --- ----------<br>------------- ------ ------ ---- ---- ------- ----- -- ----<br>-------- ------- -- ---------- --- - --- ----- ----- ----<br>---- --- --- ----- --- ---- ---- ------- ----- ---- -------<br>you --- -- ----- -- --- ---- -- --- ---- -- ------ ------<br>--- ----- -- ----,173182.30000001192,173181.5,172861.894,172864.5,172878.604,173194.976,,39,you
screen,html.Screen,2_1_0_1_40,2022-02-17T14:43:02.246Z,,,,,,,,,,,,,,,,,53,,,,,,,,,,,,,,324.12400002384675,,response,,,,99,,,,,,,Space,keypress(Space),,,,,,,,---- -- ----- -- ------ - ------- --- ----------<br>------------- ------ ------ ---- ---- ------- ----- -- ----<br>-------- ------- -- ---------- --- - --- ----- ----- ----<br>---- --- --- ----- --- ---- ---- ------- ----- ---- -------<br>--- are -- ----- -- --- ---- -- --- ---- -- ------ ------<br>--- ----- -- ----,173519.70000004768,173519.10000002384,173178.27,173182.5,173194.976,173527.976,,40,are
screen,html.Screen,2_1_0_1_41,2022-02-17T14:43:02.523Z,,,,,,,,,,,,,,,,,53,,,,,,,,,,,,,,268.0240000000049,,response,,,,99,,,,,,,Space,keypress(Space),,,,,,,,---- -- ----- -- ------ - ------- --- ----------<br>------------- ------ ------ ---- ---- ------- ----- -- ----<br>-------- ------- -- ---------- --- - --- ----- ----- ----<br>---- --- --- ----- --- ---- ---- ------- ----- ---- -------<br>--- --- as ----- -- --- ---- -- --- ---- -- ------ ------<br>--- ----- -- ----,173796.80000001192,173796,173511.275,173520,173527.976,173811.024,,41,as
screen,html.Screen,2_1_0_1_42,2022-02-17T14:43:02.934Z,,,,,,,,,,,,,,,,,53,,,,,,,,,,,,,,395.8760000357579,,response,,,,99,,,,,,,Space,keypress(Space),,,,,,,,---- -- ----- -- ------ - ------- --- ----------<br>------------- ------ ------ ---- ---- ------- ----- -- ----<br>-------- ------- -- ---------- --- - --- ----- ----- ----<br>---- --- --- ----- --- ---- ---- ------- ----- ---- -------<br>--- --- -- close -- --- ---- -- --- ---- -- ------ ------<br>--- ----- -- ----,174207.60000002384,174206.90000003576,173794.327,173796.90000003576,173811.024,174210.61,,42,close
screen,html.Screen,2_1_0_1_43,2022-02-17T14:43:03.203Z,,,,,,,,,,,,,,,,,53,,,,,,,,,,,,,,265.1900000119349,,response,,,,99,,,,,,,Space,keypress(Space),,,,,,,,---- -- ----- -- ------ - ------- --- ----------<br>------------- ------ ------ ---- ---- ------- ----- -- ----<br>-------- ------- -- ---------- --- - --- ----- ----- ----<br>---- --- --- ----- --- ---- ---- ------- ----- ---- -------<br>--- --- -- ----- as --- ---- -- --- ---- -- ------ ------<br>--- ----- -- ----,174476.40000003576,174475.80000001192,174193.935,174207.80000001192,174210.61,174493.711,,43,as
screen,html.Screen,2_1_0_1_44,2022-02-17T14:43:03.504Z,,,,,,,,,,,,,,,,,53,,,,,,,,,,,,,,283.3890000238316,,response,,,,99,,,,,,,Space,keypress(Space),,,,,,,,---- -- ----- -- ------ - ------- --- ----------<br>------------- ------ ------ ---- ---- ------- ----- -- ----<br>-------- ------- -- ---------- --- - --- ----- ----- ----<br>---- --- --- ----- --- ---- ---- ------- ----- ---- -------<br>--- --- -- ----- -- you ---- -- --- ---- -- ------ ------<br>--- ----- -- ----,174778,174777.10000002384,174477.013,174476.60000002384,174493.711,174793.392,,44,you
screen,html.Screen,2_1_0_1_45,2022-02-17T14:43:03.986Z,,,,,,,,,,,,,,,,,53,,,,,,,,,,,,,,465.9080000119284,,response,,,,99,,,,,,,Space,keypress(Space),,,,,,,,---- -- ----- -- ------ - ------- --- ----------<br>------------- ------ ------ ---- ---- ------- ----- -- ----<br>-------- ------- -- ---------- --- - --- ----- ----- ----<br>---- --- --- ----- --- ---- ---- ------- ----- ---- -------<br>--- --- -- ----- -- --- want -- --- ---- -- ------ ------<br>--- ----- -- ----,175260.30000001192,175259.30000001192,174776.697,174778.10000002384,174793.392,175276.289,,45,want
screen,html.Screen,2_1_0_1_46,2022-02-17T14:43:04.283Z,,,,,,,,,,,,,,,,,53,,,,,,,,,,,,,,280.0110000119312,,response,,,,99,,,,,,,Space,keypress(Space),,,,,,,,---- -- ----- -- ------ - ------- --- ----------<br>------------- ------ ------ ---- ---- ------- ----- -- ----<br>-------- ------- -- ---------- --- - --- ----- ----- ----<br>---- --- --- ----- --- ---- ---- ------- ----- ---- -------<br>--- --- -- ----- -- --- ---- to --- ---- -- ------ ------<br>--- ----- -- ----,175557,175556.30000001192,175259.555,175260.5,175276.289,175559.27,,46,to
screen,html.Screen,2_1_0_1_47,2022-02-17T14:43:04.643Z,,,,,,,,,,,,,,,,,53,,,,,,,,,,,,,,356.5300000119314,,response,,,,99,,,,,,,Space,keypress(Space),,,,,,,,"---- -- ----- -- ------ - ------- --- ----------<br>------------- ------ ------ ---- ---- ------- ----- -- ----<br>-------- ------- -- ---------- --- - --- ----- ----- ----<br>---- --- --- ----- --- ---- ---- ------- ----- ---- -------<br>--- --- -- ----- -- --- ---- -- be, ---- -- ------ ------<br>--- ----- -- ----",175916.60000002384,175915.80000001192,175542.61,175557,175559.27,175925.654,,47,"be,"
screen,html.Screen,2_1_0_1_48,2022-02-17T14:43:05.041Z,,,,,,,,,,,,,,,,,53,,,,,,,,,,,,,,388.9460000238323,,response,,,,99,,,,,,,Space,keypress(Space),,,,,,,,---- -- ----- -- ------ - ------- --- ----------<br>------------- ------ ------ ---- ---- ------- ----- -- ----<br>-------- ------- -- ---------- --- - --- ----- ----- ----<br>---- --- --- ----- --- ---- ---- ------- ----- ---- -------<br>--- --- -- ----- -- --- ---- -- --- even -- ------ ------<br>--- ----- -- ----,176315.30000001192,176314.60000002384,175908.913,175916.80000001192,175925.654,176325.214,,48,even
screen,html.Screen,2_1_0_1_49,2022-02-17T14:43:05.424Z,,,,,,,,,,,,,,,,,53,,,,,,,,,,,,,,372.2859999999928,,response,,,,99,,,,,,,Space,keypress(Space),,,,,,,,---- -- ----- -- ------ - ------- --- ----------<br>------------- ------ ------ ---- ---- ------- ----- -- ----<br>-------- ------- -- ---------- --- - --- ----- ----- ----<br>---- --- --- ----- --- ---- ---- ------- ----- ---- -------<br>--- --- -- ----- -- --- ---- -- --- ---- if ------ ------<br>--- ----- -- ----,176698.30000001192,176697.5,176308.522,176315.5,176325.214,176708.2,,49,if
screen,html.Screen,2_1_0_1_50,2022-02-17T14:43:05.826Z,,,,,,,,,,,,,,,,,53,,,,,,,,,,,,,,391.1000000119093,,response,,,,99,,,,,,,Space,keypress(Space),,,,,,,,---- -- ----- -- ------ - ------- --- ----------<br>------------- ------ ------ ---- ---- ------- ----- -- ----<br>-------- ------- -- ---------- --- - --- ----- ----- ----<br>---- --- --- ----- --- ---- ---- ------- ----- ---- -------<br>--- --- -- ----- -- --- ---- -- --- ---- -- that's ------<br>--- ----- -- ----,177100,177099.30000001192,176691.495,176698.60000002384,176708.2,177107.779,,50,that's
screen,html.Screen,2_1_0_1_51,2022-02-17T14:43:06.312Z,,,,,,,,,,,,,,,,,53,,,,,,,,,,,,,,476.92100004767417,,response,,,,99,,,,,,,Space,keypress(Space),,,,,,,,---- -- ----- -- ------ - ------- --- ----------<br>------------- ------ ------ ---- ---- ------- ----- -- ----<br>-------- ------- -- ---------- --- - --- ----- ----- ----<br>---- --- --- ----- --- ---- ---- ------- ----- ---- -------<br>--- --- -- ----- -- --- ---- -- --- ---- -- ------ really<br>--- ----- -- ----,177585.40000003576,177584.70000004768,177091.121,177100.10000002384,177107.779,177590.615,,51,really
screen,html.Screen,2_1_0_1_52,2022-02-17T14:43:06.752Z,,,,,,,,,,,,,,,,,53,,,,,,,,,,,,,,434.2850000357721,,response,,,,99,,,,,,,Space,keypress(Space),,,,,,,,---- -- ----- -- ------ - ------- --- ----------<br>------------- ------ ------ ---- ---- ------- ----- -- ----<br>-------- ------- -- ---------- --- - --- ----- ----- ----<br>---- --- --- ----- --- ---- ---- ------- ----- ---- -------<br>--- --- -- ----- -- --- ---- -- --- ---- -- ------ ------<br>not ----- -- ----,178025.90000003576,178024.90000003576,177573.971,177585.60000002384,177590.615,178040.219,,52,not
screen,html.Screen,2_1_0_1_53,2022-02-17T14:43:07.026Z,,,,,,,,,,,,,,,,,53,,,,,,,,,,,,,,259.08100001190905,,response,,,,99,,,,,,,Space,keypress(Space),,,,,,,,---- -- ----- -- ------ - ------- --- ----------<br>------------- ------ ------ ---- ---- ------- ----- -- ----<br>-------- ------- -- ---------- --- - --- ----- ----- ----<br>---- --- --- ----- --- ---- ---- ------- ----- ---- -------<br>--- --- -- ----- -- --- ---- -- --- ---- -- ------ ------<br>--- close -- ----,178300.10000002384,178299.30000001192,178023.513,178026.20000004768,178040.219,178306.609,,53,close
screen,html.Screen,2_1_0_1_54,2022-02-17T14:43:07.427Z,,,,,,,,,,,,,,,,,53,,,,,,,,,,,,,,393.6910000119242,,response,,,,99,,,,,,,Space,keypress(Space),,,,,,,,---- -- ----- -- ------ - ------- --- ----------<br>------------- ------ ------ ---- ---- ------- ----- -- ----<br>-------- ------- -- ---------- --- - --- ----- ----- ----<br>---- --- --- ----- --- ---- ---- ------- ----- ---- -------<br>--- --- -- ----- -- --- ---- -- --- ---- -- ------ ------<br>--- ----- at ----,178701,178700.30000001192,178289.917,178300.20000004768,178306.609,178706.207,,54,at
screen,html.Screen,2_1_0_1_55,2022-02-17T14:43:08.554Z,,,,,,,,,,,,,,,,,53,,,,,,,,,,,,,,1120.7930000000051,,response,,,,99,,,,,,,Space,keypress(Space),,,,,,,,---- -- ----- -- ------ - ------- --- ----------<br>------------- ------ ------ ---- ---- ------- ----- -- ----<br>-------- ------- -- ---------- --- - --- ----- ----- ----<br>---- --- --- ----- --- ---- ---- ------- ----- ---- -------<br>--- --- -- ----- -- --- ---- -- --- ---- -- ------ ------<br>--- ----- -- all.,179827.80000001192,179827,178689.528,178701.20000004768,178706.207,179838.419,,55,all.
Item 99,flow.Loop,2_1_0_1,2022-02-17T14:43:08.554Z,,,,,,,,,,,,,,,,,,,,,,,,,,,,,,,22399.969000000012,,completion,,,,,E,,,,,,,,,,,silence,,,,,179828.20000004768,179827,157377.254,157378.80000001192,157427.031,179838.419,,,
Question 1,html.Screen,2_1_0_2,2022-02-17T14:43:13.547Z,,,,,,,,,,,,,,,,,,,,,,,,,,,,true,FALSE,,4978.781000047689,,response,,,,99,E,,,,,,FALSE,click #choice-2,,,,silence,,,,,184821,184817.20000004768,179821.77,179828.40000003576,179838.419,184833.554,,,
Question 2,html.Screen,2_1_0_3,2022-02-17T14:43:17.395Z,,,,,,,,,,,,,,,,,,,,,,,,,,,,true,TRUE,,3832.546000023838,,response,,,,99,E,,,,,,TRUE,click #choice-1,,,,silence,,,,,188669,188666.10000002384,184816.863,184821.30000001192,184833.554,188679.765,,,
Item 99,flow.Sequence,2_1_0,2022-02-17T14:43:17.396Z,,,,,,,,,,,,,,,,,,,,,,,,,,,,,,,41279.22700002385,,completion,,,,,,,,,,,,,,,,,,,,,188669.40000003576,188666.10000002384,147370.215,147382.90000003576,147386.873,188679.765,,,
Holding screen,html.Screen,2_1_1_0,2022-02-17T14:43:27.397Z,,,,,,,,,,,,,,,,,,,,,,,,,,,,,,,10006.905999999988,,timeout,,,,,,,,,,,,,,,,,,,,,198671,198670.001,188663.111,188669.70000004768,188679.765,198686.671,,,
screen,html.Screen,2_1_1_1_0,2022-02-17T14:43:28.222Z,,,,,,,,,,,,,,,,,54,,,,,,,,,,,,,,807.6290000119188,,response,,,,100,,,,,,,Space,keypress(Space),,,,,,,,At --- ---- --- ------ ----- ------- ---- -- --- ------- --<br>------- ---------- ------ -- ----- -- ----- -- ---- ------<br>--- ----- --- --- ------ -------- ----- --- ------ ----- --<br>----- ----- ---------- --- --- ------ ------ ---- -- ------<br>------- --- ------ ----- --- ---- ------- -- ---- --- --<br>------- ------,199495.5,199494.30000001192,198670.001,198671.30000001192,198686.671,199502.548,,0,At
screen,html.Screen,2_1_1_1_1,2022-02-17T14:43:28.557Z,,,,,,,,,,,,,,,,,54,,,,,,,,,,,,,,327.65200004767394,,response,,,,100,,,,,,,Space,keypress(Space),,,,,,,,-- the ---- --- ------ ----- ------- ---- -- --- ------- --<br>------- ---------- ------ -- ----- -- ----- -- ---- ------<br>--- ----- --- --- ------ -------- ----- --- ------ ----- --<br>----- ----- ---------- --- --- ------ ------ ---- -- ------<br>------- --- ------ ----- --- ---- ------- -- ---- --- --<br>------- ------,199831,199830.20000004768,199485.832,199495.70000004768,199502.548,199835.51,,1,the
screen,html.Screen,2_1_1_1_2,2022-02-17T14:43:28.725Z,,,,,,,,,,,,,,,,,54,,,,,,,,,,,,,,162.9899999999907,,response,,,,100,,,,,,,Space,keypress(Space),,,,,,,,-- --- time --- ------ ----- ------- ---- -- --- ------- --<br>------- ---------- ------ -- ----- -- ----- -- ---- ------<br>--- ----- --- --- ------ -------- ----- --- ------ ----- --<br>----- ----- ---------- --- --- ------ ------ ---- -- ------<br>------- --- ------ ----- --- ---- ------- -- ---- --- --<br>------- ------,199999.10000002384,199998.5,199818.857,199831.20000004768,199835.51,200002.013,,2,time
screen,html.Screen,2_1_1_1_3,2022-02-17T14:43:29.025Z,,,,,,,,,,,,,,,,,54,,,,,,,,,,,,,,296.28700001191464,,response,,,,100,,,,,,,Space,keypress(Space),,,,,,,,-- --- ---- the ------ ----- ------- ---- -- --- ------- --<br>------- ---------- ------ -- ----- -- ----- -- ---- ------<br>--- ----- --- --- ------ -------- ----- --- ------ ----- --<br>----- ----- ---------- --- --- ------ ------ ---- -- ------<br>------- --- ------ ----- --- ---- ------- -- ---- --- --<br>------- ------,200299,200298.30000001192,199985.366,199999.30000001192,200002.013,200301.722,,3,the
screen,html.Screen,2_1_1_1_4,2022-02-17T14:43:29.217Z,,,,,,,,,,,,,,,,,54,,,,,,,,,,,,,,188.67800003575394,,response,,,,100,,,,,,,Space,keypress(Space),,,,,,,,-- --- ---- --- French ----- ------- ---- -- --- ------- --<br>------- ---------- ------ -- ----- -- ----- -- ---- ------<br>--- ----- --- --- ------ -------- ----- --- ------ ----- --<br>----- ----- ---------- --- --- ------ ------ ---- -- ------<br>------- --- ------ ----- --- ---- ------- -- ---- --- --<br>------- ------,200491,200490.40000003576,200285.058,200299.20000004768,200301.722,200501.607,,4,French
screen,html.Screen,2_1_1_1_5,2022-02-17T14:43:29.580Z,,,,,,,,,,,,,,,,,54,,,,,,,,,,,,,,351.59300004769466,,response,,,,100,,,,,,,Space,keypress(Space),,,,,,,,-- --- ---- --- ------ crown ------- ---- -- --- ------- --<br>------- ---------- ------ -- ----- -- ----- -- ---- ------<br>--- ----- --- --- ------ -------- ----- --- ------ ----- --<br>----- ----- ---------- --- --- ------ ------ ---- -- ------<br>------- --- ------ ----- --- ---- ------- -- ---- --- --<br>------- ------,200853.90000003576,200853.20000004768,200484.857,200491.30000001192,200501.607,200867.895,,5,crown
screen,html.Screen,2_1_1_1_6,2022-02-17T14:43:29.930Z,,,,,,,,,,,,,,,,,54,,,,,,,,,,,,,,335.00500003577326,,response,,,,100,,,,,,,Space,keypress(Space),,,,,,,,-- --- ---- --- ------ ----- secured ---- -- --- ------- --<br>------- ---------- ------ -- ----- -- ----- -- ---- ------<br>--- ----- --- --- ------ -------- ----- --- ------ ----- --<br>----- ----- ---------- --- --- ------ ------ ---- -- ------<br>------- --- ------ ----- --- ---- ------- -- ---- --- --<br>------- ------,201204.30000001192,201202.90000003576,200851.171,200854.20000004768,200867.895,201217.563,,6,secured
screen,html.Screen,2_1_1_1_7,2022-02-17T14:43:30.391Z,,,,,,,,,,,,,,,,,54,,,,,,,,,,,,,,446.93700000000536,,response,,,,100,,,,,,,Space,keypress(Space),,,,,,,,-- --- ---- --- ------ ----- ------- much -- --- ------- --<br>------- ---------- ------ -- ----- -- ----- -- ---- ------<br>--- ----- --- --- ------ -------- ----- --- ------ ----- --<br>----- ----- ---------- --- --- ------ ------ ---- -- ------<br>------- --- ------ ----- --- ---- ------- -- ---- --- --<br>------- ------,201665.20000004768,201664.5,201200.833,201204.5,201217.563,201686.928,,7,much
screen,html.Screen,2_1_1_1_8,2022-02-17T14:43:30.816Z,,,,,,,,,,,,,,,,,54,,,,,,,,,,,,,,402.6720000238274,,response,,,,100,,,,,,,Space,keypress(Space),,,,,,,,-- --- ---- --- ------ ----- ------- ---- of --- ------- --<br>------- ---------- ------ -- ----- -- ----- -- ---- ------<br>--- ----- --- --- ------ -------- ----- --- ------ ----- --<br>----- ----- ---------- --- --- ------ ------ ---- -- ------<br>------- --- ------ ----- --- ---- ------- -- ---- --- --<br>------- ------,202090.40000003576,202089.60000002384,201650.39,201665.40000003576,201686.928,202100.028,,8,of
screen,html.Screen,2_1_1_1_9,2022-02-17T14:43:31.146Z,,,,,,,,,,,,,,,,,54,,,,,,,,,,,,,,319.0720000238507,,response,,,,100,,,,,,,Space,keypress(Space),,,,,,,,-- --- ---- --- ------ ----- ------- ---- -- its ------- --<br>------- ---------- ------ -- ----- -- ----- -- ---- ------<br>--- ----- --- --- ------ -------- ----- --- ------ ----- --<br>----- ----- ---------- --- --- ------ ------ ---- -- ------<br>------- --- ------ ----- --- ---- ------- -- ---- --- --<br>------- ------,202420,202419.10000002384,202083.304,202090.60000002384,202100.028,202433.019,,9,its
screen,html.Screen,2_1_1_1_10,2022-02-17T14:43:31.683Z,,,,,,,,,,,,,,,,,54,,,,,,,,,,,,,,523.3810000357626,,response,,,,100,,,,,,,Space,keypress(Space),,,,,,,,-- --- ---- --- ------ ----- ------- ---- -- --- revenue --<br>------- ---------- ------ -- ----- -- ----- -- ---- ------<br>--- ----- --- --- ------ -------- ----- --- ------ ----- --<br>----- ----- ---------- --- --- ------ ------ ---- -- ------<br>------- --- ------ ----- --- ---- ------- -- ---- --- --<br>------- ------,202957,202956.40000003576,202416.313,202420.10000002384,202433.019,202965.992,,10,revenue
screen,html.Screen,2_1_1_1_11,2022-02-17T14:43:32.231Z,,,,,,,,,,,,,,,,,54,,,,,,,,,,,,,,538.1080000238435,,response,,,,100,,,,,,,Space,keypress(Space),,,,,,,,-- --- ---- --- ------ ----- ------- ---- -- --- ------- by<br>------- ---------- ------ -- ----- -- ----- -- ---- ------<br>--- ----- --- --- ------ -------- ----- --- ------ ----- --<br>----- ----- ---------- --- --- ------ ------ ---- -- ------<br>------- --- ------ ----- --- ---- ------- -- ---- --- --<br>------- ------,203504.90000003576,203504.10000002384,202949.125,202957.30000001192,202965.992,203515.242,,11,by
screen,html.Screen,2_1_1_1_12,2022-02-17T14:43:32.663Z,,,,,,,,,,,,,,,,,54,,,,,,,,,,,,,,421.3580000238435,,response,,,,100,,,,,,,Space,keypress(Space),,,,,,,,-- --- ---- --- ------ ----- ------- ---- -- --- ------- --<br>issuing ---------- ------ -- ----- -- ----- -- ---- ------<br>--- ----- --- --- ------ -------- ----- --- ------ ----- --<br>----- ----- ---------- --- --- ------ ------ ---- -- ------<br>------- --- ------ ----- --- ---- ------- -- ---- --- --<br>------- ------,203937.30000001192,203936.60000002384,203498.588,203505.20000004768,203515.242,203948.2,,12,issuing
screen,html.Screen,2_1_1_1_13,2022-02-17T14:43:32.908Z,,,,,,,,,,,,,,,,,54,,,,,,,,,,,,,,233.29999999998836,,response,,,,100,,,,,,,Space,keypress(Space),,,,,,,,-- --- ---- --- ------ ----- ------- ---- -- --- ------- --<br>------- government ------ -- ----- -- ----- -- ---- ------<br>--- ----- --- --- ------ -------- ----- --- ------ ----- --<br>----- ----- ---------- --- --- ------ ------ ---- -- ------<br>------- --- ------ ----- --- ---- ------- -- ---- --- --<br>------- ------,204182.30000001192,204181.5,203931.493,203937.60000002384,203948.2,204197.945,,13,government
screen,html.Screen,2_1_1_1_14,2022-02-17T14:43:33.411Z,,,,,,,,,,,,,,,,,54,,,,,,,,,,,,,,485.9550000357558,,response,,,,100,,,,,,,Space,keypress(Space),,,,,,,,-- --- ---- --- ------ ----- ------- ---- -- --- ------- --<br>------- ---------- bonds. -- ----- -- ----- -- ---- ------<br>--- ----- --- --- ------ -------- ----- --- ------ ----- --<br>----- ----- ---------- --- --- ------ ------ ---- -- ------<br>------- --- ------ ----- --- ---- ------- -- ---- --- --<br>------- ------,204684.60000002384,204683.90000003576,204181.257,204182.60000002384,204197.945,204697.473,,14,bonds.
screen,html.Screen,2_1_1_1_15,2022-02-17T14:43:33.872Z,,,,,,,,,,,,,,,,,54,,,,,,,,,,,,,,447.2270000476856,,response,,,,100,,,,,,,Space,keypress(Space),,,,,,,,-- --- ---- --- ------ ----- ------- ---- -- --- ------- --<br>------- ---------- ------ In ----- -- ----- -- ---- ------<br>--- ----- --- --- ------ -------- ----- --- ------ ----- --<br>----- ----- ---------- --- --- ------ ------ ---- -- ------<br>------- --- ------ ----- --- ---- ------- -- ---- --- --<br>------- ------,205145.40000003576,205144.70000004768,204680.75,204684.90000003576,204697.473,205171.533,,15,In
screen,html.Screen,2_1_1_1_16,2022-02-17T14:43:34.078Z,,,,,,,,,,,,,,,,,54,,,,,,,,,,,,,,179.26700001192512,,response,,,,100,,,,,,,Space,keypress(Space),,,,,,,,"-- --- ---- --- ------ ----- ------- ---- -- --- ------- --<br>------- ---------- ------ -- 1727, -- ----- -- ---- ------<br>--- ----- --- --- ------ -------- ----- --- ------ ----- --<br>----- ----- ---------- --- --- ------ ------ ---- -- ------<br>------- --- ------ ----- --- ---- ------- -- ---- --- --<br>------- ------",205351.60000002384,205350.80000001192,205130.358,205145.60000002384,205171.533,205363.5,,16,"1727,"
screen,html.Screen,2_1_1_1_17,2022-02-17T14:43:34.271Z,,,,,,,,,,,,,,,,,54,,,,,,,,,,,,,,180.4000000357628,,response,,,,100,,,,,,,Space,keypress(Space),,,,,,,,-- --- ---- --- ------ ----- ------- ---- -- --- ------- --<br>------- ---------- ------ -- ----- in ----- -- ---- ------<br>--- ----- --- --- ------ -------- ----- --- ------ ----- --<br>----- ----- ---------- --- --- ------ ------ ---- -- ------<br>------- --- ------ ----- --- ---- ------- -- ---- --- --<br>------- ------,205544.60000002384,205543.90000003576,205346.803,205351.80000001192,205363.5,205546.587,,17,in
screen,html.Screen,2_1_1_1_18,2022-02-17T14:43:34.731Z,,,,,,,,,,,,,,,,,54,,,,,,,,,,,,,,457.91300000000047,,response,,,,100,,,,,,,Space,keypress(Space),,,,,,,,-- --- ---- --- ------ ----- ------- ---- -- --- ------- --<br>------- ---------- ------ -- ----- -- order -- ---- ------<br>--- ----- --- --- ------ -------- ----- --- ------ ----- --<br>----- ----- ---------- --- --- ------ ------ ---- -- ------<br>------- --- ------ ----- --- ---- ------- -- ---- --- --<br>------- ------,206005.30000001192,206004.5,205529.936,205544.70000004768,205546.587,206012.844,,18,order
screen,html.Screen,2_1_1_1_19,2022-02-17T14:43:34.982Z,,,,,,,,,,,,,,,,,54,,,,,,,,,,,,,,242.35600004767184,,response,,,,100,,,,,,,Space,keypress(Space),,,,,,,,-- --- ---- --- ------ ----- ------- ---- -- --- ------- --<br>------- ---------- ------ -- ----- -- ----- to ---- ------<br>--- ----- --- --- ------ -------- ----- --- ------ ----- --<br>----- ----- ---------- --- --- ------ ------ ---- -- ------<br>------- --- ------ ----- --- ---- ------- -- ---- --- --<br>------- ------,206256,206255.20000004768,205996.139,206005.40000003576,206012.844,206262.562,,19,to
screen,html.Screen,2_1_1_1_20,2022-02-17T14:43:35.175Z,,,,,,,,,,,,,,,,,54,,,,,,,,,,,,,,185.73800001191557,,response,,,,100,,,,,,,Space,keypress(Space),,,,,,,,-- --- ---- --- ------ ----- ------- ---- -- --- ------- --<br>------- ---------- ------ -- ----- -- ----- -- save ------<br>--- ----- --- --- ------ -------- ----- --- ------ ----- --<br>----- ----- ---------- --- --- ------ ------ ---- -- ------<br>------- --- ------ ----- --- ---- ------- -- ---- --- --<br>------- ------,206449.10000002384,206448.30000001192,206245.902,206256.30000001192,206262.562,206462.403,,20,save
screen,html.Screen,2_1_1_1_21,2022-02-17T14:43:35.366Z,,,,,,,,,,,,,,,,,54,,,,,,,,,,,,,,176.59700000000885,,response,,,,100,,,,,,,Space,keypress(Space),,,,,,,,"-- --- ---- --- ------ ----- ------- ---- -- --- ------- --<br>------- ---------- ------ -- ----- -- ----- -- ---- money,<br>--- ----- --- --- ------ -------- ----- --- ------ ----- --<br>----- ----- ---------- --- --- ------ ------ ---- -- ------<br>------- --- ------ ----- --- ---- ------- -- ---- --- --<br>------- ------",206639.70000004768,206639,206445.707,206449.30000001192,206462.403,206645.507,,21,"money,"
screen,html.Screen,2_1_1_1_22,2022-02-17T14:43:35.873Z,,,,,,,,,,,,,,,,,54,,,,,,,,,,,,,,500.7930000119086,,response,,,,100,,,,,,,Space,keypress(Space),,,,,,,,-- --- ---- --- ------ ----- ------- ---- -- --- ------- --<br>------- ---------- ------ -- ----- -- ----- -- ---- ------<br>the ----- --- --- ------ -------- ----- --- ------ ----- --<br>----- ----- ---------- --- --- ------ ------ ---- -- ------<br>------- --- ------ ----- --- ---- ------- -- ---- --- --<br>------- ------,207147.30000001192,207146.30000001192,206628.86,206639.90000003576,206645.507,207161.727,,22,the
screen,html.Screen,2_1_1_1_23,2022-02-17T14:43:36.169Z,,,,,,,,,,,,,,,,,54,,,,,,,,,,,,,,280.4730000476702,,response,,,,100,,,,,,,Space,keypress(Space),,,,,,,,-- --- ---- --- ------ ----- ------- ---- -- --- ------- --<br>------- ---------- ------ -- ----- -- ----- -- ---- ------<br>--- state --- --- ------ -------- ----- --- ------ ----- --<br>----- ----- ---------- --- --- ------ ------ ---- -- ------<br>------- --- ------ ----- --- ---- ------- -- ---- --- --<br>------- ------,207443,207442.20000004768,207145.011,207147.5,207161.727,207470.417,,23,state
screen,html.Screen,2_1_1_1_24,2022-02-17T14:43:36.417Z,,,,,,,,,,,,,,,,,54,,,,,,,,,,,,,,219.3830000119342,,response,,,,100,,,,,,,Space,keypress(Space),,,,,,,,-- --- ---- --- ------ ----- ------- ---- -- --- ------- --<br>------- ---------- ------ -- ----- -- ----- -- ---- ------<br>--- ----- cut --- ------ -------- ----- --- ------ ----- --<br>----- ----- ---------- --- --- ------ ------ ---- -- ------<br>------- --- ------ ----- --- ---- ------- -- ---- --- --<br>------- ------,207690.40000003576,207689.80000001192,207428.068,207443.20000004768,207470.417,207694.517,,24,cut
screen,html.Screen,2_1_1_1_25,2022-02-17T14:43:36.632Z,,,,,,,,,,,,,,,,,54,,,,,,,,,,,,,,210.48300000000745,,response,,,,100,,,,,,,Space,keypress(Space),,,,,,,,-- --- ---- --- ------ ----- ------- ---- -- --- ------- --<br>------- ---------- ------ -- ----- -- ----- -- ---- ------<br>--- ----- --- the ------ -------- ----- --- ------ ----- --<br>----- ----- ---------- --- --- ------ ------ ---- -- ------<br>------- --- ------ ----- --- ---- ------- -- ---- --- --<br>------- ------,207905.80000001192,207905,207677.841,207690.70000004768,207694.517,207910.946,,25,the
screen,html.Screen,2_1_1_1_26,2022-02-17T14:43:36.822Z,,,,,,,,,,,,,,,,,54,,,,,,,,,,,,,,183.65400002384558,,response,,,,100,,,,,,,Space,keypress(Space),,,,,,,,-- --- ---- --- ------ ----- ------- ---- -- --- ------- --<br>------- ---------- ------ -- ----- -- ----- -- ---- ------<br>--- ----- --- --- bonds' -------- ----- --- ------ ----- --<br>----- ----- ---------- --- --- ------ ------ ---- -- ------<br>------- --- ------ ----- --- ---- ------- -- ---- --- --<br>------- ------,208095.5,208094.60000002384,207894.299,207906,207910.946,208110.777,,26,bonds'
screen,html.Screen,2_1_1_1_27,2022-02-17T14:43:37.105Z,,,,,,,,,,,,,,,,,54,,,,,,,,,,,,,,266.72299999999814,,response,,,,100,,,,,,,Space,keypress(Space),,,,,,,,-- --- ---- --- ------ ----- ------- ---- -- --- ------- --<br>------- ---------- ------ -- ----- -- ----- -- ---- ------<br>--- ----- --- --- ------ interest ----- --- ------ ----- --<br>----- ----- ---------- --- --- ------ ------ ---- -- ------<br>------- --- ------ ----- --- ---- ------- -- ---- --- --<br>------- ------,208378.40000003576,208377.5,208094.095,208095.70000004768,208110.777,208393.859,,27,interest
screen,html.Screen,2_1_1_1_28,2022-02-17T14:43:37.546Z,,,,,,,,,,,,,,,,,54,,,,,,,,,,,,,,425.2410000238451,,response,,,,100,,,,,,,Space,keypress(Space),,,,,,,,-- --- ---- --- ------ ----- ------- ---- -- --- ------- --<br>------- ---------- ------ -- ----- -- ----- -- ---- ------<br>--- ----- --- --- ------ -------- rate. --- ------ ----- --<br>----- ----- ---------- --- --- ------ ------ ---- -- ------<br>------- --- ------ ----- --- ---- ------- -- ---- --- --<br>------- ------,208819.80000001192,208819.10000002384,208377.152,208378.60000002384,208393.859,208826.759,,28,rate.
screen,html.Screen,2_1_1_1_29,2022-02-17T14:43:38.051Z,,,,,,,,,,,,,,,,,54,,,,,,,,,,,,,,497.9410000476928,,response,,,,100,,,,,,,Space,keypress(Space),,,,,,,,-- --- ---- --- ------ ----- ------- ---- -- --- ------- --<br>------- ---------- ------ -- ----- -- ----- -- ---- ------<br>--- ----- --- --- ------ -------- ----- The ------ ----- --<br>----- ----- ---------- --- --- ------ ------ ---- -- ------<br>------- --- ------ ----- --- ---- ------- -- ---- --- --<br>------- ------,209325.40000003576,209324.70000004768,208810.042,208820,208826.759,209359.586,,29,The
screen,html.Screen,2_1_1_1_30,2022-02-17T14:43:38.340Z,,,,,,,,,,,,,,,,,54,,,,,,,,,,,,,,253.61400004767347,,response,,,,100,,,,,,,Space,keypress(Space),,,,,,,,-- --- ---- --- ------ ----- ------- ---- -- --- ------- --<br>------- ---------- ------ -- ----- -- ----- -- ---- ------<br>--- ----- --- --- ------ -------- ----- --- market ----- --<br>----- ----- ---------- --- --- ------ ------ ---- -- ------<br>------- --- ------ ----- --- ---- ------- -- ---- --- --<br>------- ------,209613.90000003576,209613.20000004768,209342.879,209325.60000002384,209359.586,209625.981,,30,market
screen,html.Screen,2_1_1_1_31,2022-02-17T14:43:38.561Z,,,,,,,,,,,,,,,,,54,,,,,,,,,,,,,,208.21900004768395,,response,,,,100,,,,,,,Space,keypress(Space),,,,,,,,-- --- ---- --- ------ ----- ------- ---- -- --- ------- --<br>------- ---------- ------ -- ----- -- ----- -- ---- ------<br>--- ----- --- --- ------ -------- ----- --- ------ value --<br>----- ----- ---------- --- --- ------ ------ ---- -- ------<br>------- --- ------ ----- --- ---- ------- -- ---- --- --<br>------- ------,209835,209834.20000004768,209609.265,209614.10000002384,209625.981,209842.411,,31,value
screen,html.Screen,2_1_1_1_32,2022-02-17T14:43:38.910Z,,,,,,,,,,,,,,,,,54,,,,,,,,,,,,,,341.1890000238491,,response,,,,100,,,,,,,Space,keypress(Space),,,,,,,,-- --- ---- --- ------ ----- ------- ---- -- --- ------- --<br>------- ---------- ------ -- ----- -- ----- -- ---- ------<br>--- ----- --- --- ------ -------- ----- --- ------ ----- of<br>----- ----- ---------- --- --- ------ ------ ---- -- ------<br>------- --- ------ ----- --- ---- ------- -- ---- --- --<br>------- ------,210184.30000001192,210183.60000002384,209825.719,209835.20000004768,209842.411,210192.075,,32,of
screen,html.Screen,2_1_1_1_33,2022-02-17T14:43:39.224Z,,,,,,,,,,,,,,,,,54,,,,,,,,,,,,,,305.2250000119093,,response,,,,100,,,,,,,Space,keypress(Space),,,,,,,,-- --- ---- --- ------ ----- ------- ---- -- --- ------- --<br>------- ---------- ------ -- ----- -- ----- -- ---- ------<br>--- ----- --- --- ------ -------- ----- --- ------ ----- --<br>these ----- ---------- --- --- ------ ------ ---- -- ------<br>------- --- ------ ----- --- ---- ------- -- ---- --- --<br>------- ------,210498.20000004768,210497.30000001192,210175.372,210184.5,210192.075,210508.432,,33,these
screen,html.Screen,2_1_1_1_34,2022-02-17T14:43:39.433Z,,,,,,,,,,,,,,,,,54,,,,,,,,,,,,,,197.86800001192023,,response,,,,100,,,,,,,Space,keypress(Space),,,,,,,,-- --- ---- --- ------ ----- ------- ---- -- --- ------- --<br>------- ---------- ------ -- ----- -- ----- -- ---- ------<br>--- ----- --- --- ------ -------- ----- --- ------ ----- --<br>----- bonds ---------- --- --- ------ ------ ---- -- ------<br>------- --- ------ ----- --- ---- ------- -- ---- --- --<br>------- ------,210707,210706.30000001192,210491.733,210498.40000003576,210508.432,210727.679,,34,bonds
screen,html.Screen,2_1_1_1_35,2022-02-17T14:43:39.871Z,,,,,,,,,,,,,,,,,54,,,,,,,,,,,,,,416.22100003575906,,response,,,,100,,,,,,,Space,keypress(Space),,,,,,,,"-- --- ---- --- ------ ----- ------- ---- -- --- ------- --<br>------- ---------- ------ -- ----- -- ----- -- ---- ------<br>--- ----- --- --- ------ -------- ----- --- ------ ----- --<br>----- ----- plummeted, --- --- ------ ------ ---- -- ------<br>------- --- ------ ----- --- ---- ------- -- ---- --- --<br>------- ------",211144.70000004768,211143.90000003576,210691.536,210707.30000001192,210727.679,211157.809,,35,"plummeted,"
screen,html.Screen,2_1_1_1_36,2022-02-17T14:43:40.390Z,,,,,,,,,,,,,,,,,54,,,,,,,,,,,,,,503.7910000238335,,response,,,,100,,,,,,,Space,keypress(Space),,,,,,,,-- --- ---- --- ------ ----- ------- ---- -- --- ------- --<br>------- ---------- ------ -- ----- -- ----- -- ---- ------<br>--- ----- --- --- ------ -------- ----- --- ------ ----- --<br>----- ----- ---------- and --- ------ ------ ---- -- ------<br>------- --- ------ ----- --- ---- ------- -- ---- --- --<br>------- ------,211663.80000001192,211661.60000002384,211141.116,211144.80000001192,211157.809,211673.976,,36,and
screen,html.Screen,2_1_1_1_37,2022-02-17T14:43:40.592Z,,,,,,,,,,,,,,,,,54,,,,,,,,,,,,,,191.62400002384675,,response,,,,100,,,,,,,Space,keypress(Space),,,,,,,,-- --- ---- --- ------ ----- ------- ---- -- --- ------- --<br>------- ---------- ------ -- ----- -- ----- -- ---- ------<br>--- ----- --- --- ------ -------- ----- --- ------ ----- --<br>----- ----- ---------- --- the ------ ------ ---- -- ------<br>------- --- ------ ----- --- ---- ------- -- ---- --- --<br>------- ------,211866.40000003576,211865.60000002384,211657.263,211664,211673.976,211873.772,,37,the
screen,html.Screen,2_1_1_1_38,2022-02-17T14:43:40.780Z,,,,,,,,,,,,,,,,,54,,,,,,,,,,,,,,179.12800003576558,,response,,,,100,,,,,,,Space,keypress(Space),,,,,,,,-- --- ---- --- ------ ----- ------- ---- -- --- ------- --<br>------- ---------- ------ -- ----- -- ----- -- ---- ------<br>--- ----- --- --- ------ -------- ----- --- ------ ----- --<br>----- ----- ---------- --- --- market ------ ---- -- ------<br>------- --- ------ ----- --- ---- ------- -- ---- --- --<br>------- ------,212053.60000002384,212052.90000003576,211857.069,211866.5,211873.772,212056.888,,38,market
screen,html.Screen,2_1_1_1_39,2022-02-17T14:43:41.055Z,,,,,,,,,,,,,,,,,54,,,,,,,,,,,,,,271.21200002383557,,response,,,,100,,,,,,,Space,keypress(Space),,,,,,,,-- --- ---- --- ------ ----- ------- ---- -- --- ------- --<br>------- ---------- ------ -- ----- -- ----- -- ---- ------<br>--- ----- --- --- ------ -------- ----- --- ------ ----- --<br>----- ----- ---------- --- --- ------ became ---- -- ------<br>------- --- ------ ----- --- ---- ------- -- ---- --- --<br>------- ------,212328.90000003576,212328.10000002384,212040.243,212053.90000003576,212056.888,212339.994,,39,became
screen,html.Screen,2_1_1_1_40,2022-02-17T14:43:41.408Z,,,,,,,,,,,,,,,,,54,,,,,,,,,,,,,,341.40600003575673,,response,,,,100,,,,,,,Space,keypress(Space),,,,,,,,-- --- ---- --- ------ ----- ------- ---- -- --- ------- --<br>------- ---------- ------ -- ----- -- ----- -- ---- ------<br>--- ----- --- --- ------ -------- ----- --- ------ ----- --<br>----- ----- ---------- --- --- ------ ------ wary -- ------<br>------- --- ------ ----- --- ---- ------- -- ---- --- --<br>------- ------,212682.10000002384,212681.40000003576,212323.266,212329,212339.994,212689.634,,40,wary
screen,html.Screen,2_1_1_1_41,2022-02-17T14:43:41.731Z,,,,,,,,,,,,,,,,,54,,,,,,,,,,,,,,314.3660000000091,,response,,,,100,,,,,,,Space,keypress(Space),,,,,,,,-- --- ---- --- ------ ----- ------- ---- -- --- ------- --<br>------- ---------- ------ -- ----- -- ----- -- ---- ------<br>--- ----- --- --- ------ -------- ----- --- ------ ----- --<br>----- ----- ---------- --- --- ------ ------ ---- of ------<br>------- --- ------ ----- --- ---- ------- -- ---- --- --<br>------- ------,213004.60000002384,213004,212672.928,212682.20000004768,212689.634,213025.567,,41,of
screen,html.Screen,2_1_1_1_42,2022-02-17T14:43:41.966Z,,,,,,,,,,,,,,,,,54,,,,,,,,,,,,,,213.1330000476737,,response,,,,100,,,,,,,Space,keypress(Space),,,,,,,,-- --- ---- --- ------ ----- ------- ---- -- --- ------- --<br>------- ---------- ------ -- ----- -- ----- -- ---- ------<br>--- ----- --- --- ------ -------- ----- --- ------ ----- --<br>----- ----- ---------- --- --- ------ ------ ---- -- French<br>------- --- ------ ----- --- ---- ------- -- ---- --- --<br>------- ------,213239.70000004768,213238.70000004768,212989.29,213004.90000003576,213025.567,213255.749,,42,French
screen,html.Screen,2_1_1_1_43,2022-02-17T14:43:42.349Z,,,,,,,,,,,,,,,,,54,,,,,,,,,,,,,,366.35100002383115,,response,,,,100,,,,,,,Space,keypress(Space),,,,,,,,-- --- ---- --- ------ ----- ------- ---- -- --- ------- --<br>------- ---------- ------ -- ----- -- ----- -- ---- ------<br>--- ----- --- --- ------ -------- ----- --- ------ ----- --<br>----- ----- ---------- --- --- ------ ------ ---- -- ------<br>credit. --- ------ ----- --- ---- ------- -- ---- --- --<br>------- ------,213622.90000003576,213622.10000002384,213239.043,213239.90000003576,213255.749,213638.667,,43,credit.
screen,html.Screen,2_1_1_1_44,2022-02-17T14:43:42.788Z,,,,,,,,,,,,,,,,,54,,,,,,,,,,,,,,422.43300002385513,,response,,,,100,,,,,,,Space,keypress(Space),,,,,,,,-- --- ---- --- ------ ----- ------- ---- -- --- ------- --<br>------- ---------- ------ -- ----- -- ----- -- ---- ------<br>--- ----- --- --- ------ -------- ----- --- ------ ----- --<br>----- ----- ---------- --- --- ------ ------ ---- -- ------<br>------- The ------ ----- --- ---- ------- -- ---- --- --<br>------- ------,214061.80000001192,214061.10000002384,213621.998,213623.10000002384,213638.667,214071.659,,44,The
screen,html.Screen,2_1_1_1_45,2022-02-17T14:43:42.985Z,,,,,,,,,,,,,,,,,54,,,,,,,,,,,,,,186.8409999999858,,response,,,,100,,,,,,,Space,keypress(Space),,,,,,,,-- --- ---- --- ------ ----- ------- ---- -- --- ------- --<br>------- ---------- ------ -- ----- -- ----- -- ---- ------<br>--- ----- --- --- ------ -------- ----- --- ------ ----- --<br>----- ----- ---------- --- --- ------ ------ ---- -- ------<br>------- --- French ----- --- ---- ------- -- ---- --- --<br>------- ------,214259.30000001192,214258.5,214054.91,214061.90000003576,214071.659,214271.367,,45,French
screen,html.Screen,2_1_1_1_46,2022-02-17T14:43:43.162Z,,,,,,,,,,,,,,,,,54,,,,,,,,,,,,,,163.63300000000163,,response,,,,100,,,,,,,Space,keypress(Space),,,,,,,,-- --- ---- --- ------ ----- ------- ---- -- --- ------- --<br>------- ---------- ------ -- ----- -- ----- -- ---- ------<br>--- ----- --- --- ------ -------- ----- --- ------ ----- --<br>----- ----- ---------- --- --- ------ ------ ---- -- ------<br>------- --- ------ state --- ---- ------- -- ---- --- --<br>------- ------,214435.70000004768,214435,214254.713,214259.60000002384,214271.367,214454.569,,46,state
screen,html.Screen,2_1_1_1_47,2022-02-17T14:43:43.469Z,,,,,,,,,,,,,,,,,54,,,,,,,,,,,,,,287.73100001193234,,response,,,,100,,,,,,,Space,keypress(Space),,,,,,,,-- --- ---- --- ------ ----- ------- ---- -- --- ------- --<br>------- ---------- ------ -- ----- -- ----- -- ---- ------<br>--- ----- --- --- ------ -------- ----- --- ------ ----- --<br>----- ----- ---------- --- --- ------ ------ ---- -- ------<br>------- --- ------ ----- was ---- ------- -- ---- --- --<br>------- ------,214743.30000001192,214742.30000001192,214437.878,214435.90000003576,214454.569,214754.293,,47,was
screen,html.Screen,2_1_1_1_48,2022-02-17T14:43:43.795Z,,,,,,,,,,,,,,,,,54,,,,,,,,,,,,,,313.9070000476786,,response,,,,100,,,,,,,Space,keypress(Space),,,,,,,,-- --- ---- --- ------ ----- ------- ---- -- --- ------- --<br>------- ---------- ------ -- ----- -- ----- -- ---- ------<br>--- ----- --- --- ------ -------- ----- --- ------ ----- --<br>----- ----- ---------- --- --- ------ ------ ---- -- ------<br>------- --- ------ ----- --- left ------- -- ---- --- --<br>------- ------,215068.90000003576,215068.20000004768,214737.573,214743.5,214754.293,215101.962,,48,left
screen,html.Screen,2_1_1_1_49,2022-02-17T14:43:43.970Z,,,,,,,,,,,,,,,,,54,,,,,,,,,,,,,,141.43800003576325,,response,,,,100,,,,,,,Space,keypress(Space),,,,,,,,-- --- ---- --- ------ ----- ------- ---- -- --- ------- --<br>------- ---------- ------ -- ----- -- ----- -- ---- ------<br>--- ----- --- --- ------ -------- ----- --- ------ ----- --<br>----- ----- ---------- --- --- ------ ------ ---- -- ------<br>------- --- ------ ----- --- ---- without -- ---- --- --<br>------- ------,215244,215243.40000003576,215053.946,215069.20000004768,215101.962,215253.784,,49,without
screen,html.Screen,2_1_1_1_50,2022-02-17T14:43:44.310Z,,,,,,,,,,,,,,,,,54,,,,,,,,,,,,,,329.1160000357486,,response,,,,100,,,,,,,Space,keypress(Space),,,,,,,,-- --- ---- --- ------ ----- ------- ---- -- --- ------- --<br>------- ---------- ------ -- ----- -- ----- -- ---- ------<br>--- ----- --- --- ------ -------- ----- --- ------ ----- --<br>----- ----- ---------- --- --- ------ ------ ---- -- ------<br>------- --- ------ ----- --- ---- ------- an ---- --- --<br>------- ------,215583.70000004768,215582.90000003576,215237.102,215244.30000001192,215253.784,215586.756,,50,an
screen,html.Screen,2_1_1_1_51,2022-02-17T14:43:44.555Z,,,,,,,,,,,,,,,,,54,,,,,,,,,,,,,,241.8440000238479,,response,,,,100,,,,,,,Space,keypress(Space),,,,,,,,-- --- ---- --- ------ ----- ------- ---- -- --- ------- --<br>------- ---------- ------ -- ----- -- ----- -- ---- ------<br>--- ----- --- --- ------ -------- ----- --- ------ ----- --<br>----- ----- ---------- --- --- ------ ------ ---- -- ------<br>------- --- ------ ----- --- ---- ------- -- easy --- --<br>------- ------,215829.30000001192,215828.60000002384,215570.093,215583.90000003576,215586.756,215836.51,,51,easy
screen,html.Screen,2_1_1_1_52,2022-02-17T14:43:44.737Z,,,,,,,,,,,,,,,,,54,,,,,,,,,,,,,,173.9899999999907,,response,,,,100,,,,,,,Space,keypress(Space),,,,,,,,-- --- ---- --- ------ ----- ------- ---- -- --- ------- --<br>------- ---------- ------ -- ----- -- ----- -- ---- ------<br>--- ----- --- --- ------ -------- ----- --- ------ ----- --<br>----- ----- ---------- --- --- ------ ------ ---- -- ------<br>------- --- ------ ----- --- ---- ------- -- ---- way --<br>------- ------,216011.10000002384,216010.5,215819.861,215829.5,215836.51,216019.704,,52,way
screen,html.Screen,2_1_1_1_53,2022-02-17T14:43:45.073Z,,,,,,,,,,,,,,,,,54,,,,,,,,,,,,,,326.096000011923,,response,,,,100,,,,,,,Space,keypress(Space),,,,,,,,-- --- ---- --- ------ ----- ------- ---- -- --- ------- --<br>------- ---------- ------ -- ----- -- ----- -- ---- ------<br>--- ----- --- --- ------ -------- ----- --- ------ ----- --<br>----- ----- ---------- --- --- ------ ------ ---- -- ------<br>------- --- ------ ----- --- ---- ------- -- ---- --- of<br>------- ------,216346.60000002384,216345.80000001192,216003.007,216011.30000001192,216019.704,216352.666,,53,of
screen,html.Screen,2_1_1_1_54,2022-02-17T14:43:45.386Z,,,,,,,,,,,,,,,,,54,,,,,,,,,,,,,,306.73400003576535,,response,,,,100,,,,,,,Space,keypress(Space),,,,,,,,-- --- ---- --- ------ ----- ------- ---- -- --- ------- --<br>------- ---------- ------ -- ----- -- ----- -- ---- ------<br>--- ----- --- --- ------ -------- ----- --- ------ ----- --<br>----- ----- ---------- --- --- ------ ------ ---- -- ------<br>------- --- ------ ----- --- ---- ------- -- ---- --- --<br>raising ------,216660.20000004768,216659.40000003576,216336.013,216346.80000001192,216352.666,216669.085,,54,raising
screen,html.Screen,2_1_1_1_55,2022-02-17T14:43:45.843Z,,,,,,,,,,,,,,,,,54,,,,,,,,,,,,,,447.2150000119291,,response,,,,100,,,,,,,Space,keypress(Space),,,,,,,,-- --- ---- --- ------ ----- ------- ---- -- --- ------- --<br>------- ---------- ------ -- ----- -- ----- -- ---- ------<br>--- ----- --- --- ------ -------- ----- --- ------ ----- --<br>----- ----- ---------- --- --- ------ ------ ---- -- ------<br>------- --- ------ ----- --- ---- ------- -- ---- --- --<br>------- money.,217117,217116.30000001192,216652.381,216660.40000003576,216669.085,217150.486,,55,money.
Item 100,flow.Loop,2_1_1_1,2022-02-17T14:43:45.843Z,,,,,,,,,,,,,,,,,,,,,,,,,,,,,,,18429.62900001192,,completion,,,,,E,,,,,,,,,,,silence,,,,,217117.30000001192,217116.30000001192,198670.001,198671.20000004768,198686.671,217150.486,,,
Question 1,html.Screen,2_1_1_2,2022-02-17T14:43:48.712Z,,,,,,,,,,,,,,,,,,,,,,,,,,,,true,TRUE,,2831.6140000238374,,response,,,,100,E,,,,,,TRUE,click #choice-1,,,,silence,,,,,219985.70000004768,219982.10000002384,217101.921,217117.5,217150.486,219999.151,,,
Question 2,html.Screen,2_1_1_3,2022-02-17T14:43:51.964Z,,,,,,,,,,,,,,,,,,,,,,,,,,,,true,FALSE,,3235.3489999999874,,response,,,,100,E,,,,,,FALSE,click #choice-2,,,,silence,,,,,223238.10000002384,223234.5,219982.59,219986,219999.151,223245.918,,,
Item 100,flow.Sequence,2_1_1,2022-02-17T14:43:51.965Z,,,,,,,,,,,,,,,,,,,,,,,,,,,,,,,34554.734999999986,,completion,,,,,,,,,,,,,,,,,,,,,223238.60000002384,223234.5,188663.111,188669.70000004768,188679.765,223245.918,,,
End of Practice,html.Page,2_1_2,2022-02-17T14:43:56.308Z,,,,,,,,,,,,,,,,,,,,,,,,,,,,,,,4334.581999999995,,form submission,,,,,,,,,,,,,,,,,,,,,227581.60000002384,227580.5,223229.272,223238.80000001192,223245.918,227591.69,,,
Practice,flow.Sequence,2_1,2022-02-17T14:43:56.308Z,,,,,,,,,,,,,,,,,,,,,,,,,,,,,,,80193.62700000001,,completion,,,,,,,,,,,,,,,,,,,,,227581.90000003576,227580.5,147370.215,147382.80000001192,147386.873,227591.69,,,
Trap_instruction,html.Page,2_2_0,2022-02-17T14:44:00.361Z,,,,,,,,,,,,,,,,,,,,,,,,,,,,,,,4042.2100000357605,,form submission,,,,,,,,,,,,,,,,,,,,,231635,231633.90000003576,227575.018,227582.10000002384,227591.69,231687.66,,,
trap_trial,html.Screen,2_2_1,2022-02-17T14:44:03.451Z,,,,,,,,,,,,,,,,,,,,,,,,,,,,true,1,,3034.3399999999965,,response,,,,,,,,,,,1,click #choice-1,,,,,,,,,234724.60000002384,234722,231621.056,231635.10000002384,231687.66,234734.706,,,
end of trap trial,html.Page,2_2_2,2022-02-17T14:44:04.938Z,,,,,,,,,,,,,,,,,,,,,,,,,,,,,,,1475.5940000119153,,form submission,,,,,,,,,,,,,,,,,,,,,236211.60000002384,236210.30000001192,234718.055,234724.80000001192,234734.706,236216.554,,,
Trap 1,flow.Sequence,2_2,2022-02-17T14:44:04.938Z,,,,,,,,,,,,,,,,,,,,,,,,,,,,,,,8618.610000011919,,completion,,,,,,,,,,,,,,,,,,,,,236212,236210.30000001192,227575.018,227582,227591.69,236216.554,,,
Standby,html.Page,2_3_0,2022-02-17T14:44:12.919Z,,,,,,,,,,,,,,,,,,,,,,,,,,,,,,,7992.249000000011,,timeout,,,,,,,,,,,,,,,,,,,,,244192.90000003576,244192.08,236199.917,236212.20000004768,236216.554,244208.803,,,
Holding screen,html.Screen,2_3_1_0_0,2022-02-17T14:44:19.912Z,,,,,,,,,,,,,,,,,,,,,,,,,,,,,,,6993.157999999996,,timeout,,,,,,,,,,,,,,,,,,,,,251186,251185.229,244192.08,244193.20000004768,244208.803,251201.961,,,
screen,html.Screen,2_3_1_0_1_0,2022-02-17T14:44:22.221Z,,,,,,,,,,,,,,,,,11,,,,,,,,,,,,,,2291.8390000119107,,response,,,,4,E,,,,,,Space,keypress(Space),,,,lyrical,,,,Known -- ---- --- -- --- -------- ------------ ---------- --<br>- ------- ------ --------- -- ------------ -- --- ---- -----<br>------ ---- ---- ------ ------ ------- --- ----- ---------<br>---- --- -------- -------- --- --- -- ------- --- --- -----<br>-- --- ------ ------- --- --- -------- ---- --------- --<br>---------- -- -------- ----------------,253495.10000002384,253493.80000001192,251185.229,251186.20000004768,251201.961,253499.9,,0,Known
screen,html.Screen,2_3_1_0_1_1,2022-02-17T14:44:22.566Z,,,,,,,,,,,,,,,,,11,,,,,,,,,,,,,,339.0000000357686,,response,,,,4,E,,,,,,Space,keypress(Space),,,,lyrical,,,,----- as ---- --- -- --- -------- ------------ ---------- --<br>- ------- ------ --------- -- ------------ -- --- ---- -----<br>------ ---- ---- ------ ------ ------- --- ----- ---------<br>---- --- -------- -------- --- --- -- ------- --- --- -----<br>-- --- ------ ------- --- --- -------- ---- --------- --<br>---------- -- -------- ----------------,253839.70000004768,253838.90000003576,253482.931,253495.30000001192,253499.9,253849.387,,1,as
screen,html.Screen,2_3_1_0_1_2,2022-02-17T14:44:22.747Z,,,,,,,,,,,,,,,,,11,,,,,,,,,,,,,,170.5130000357749,,response,,,,4,E,,,,,,Space,keypress(Space),,,,lyrical,,,,----- -- Rapa --- -- --- -------- ------------ ---------- --<br>- ------- ------ --------- -- ------------ -- --- ---- -----<br>------ ---- ---- ------ ------ ------- --- ----- ---------<br>---- --- -------- -------- --- --- -- ------- --- --- -----<br>-- --- ------ ------- --- --- -------- ---- --------- --<br>---------- -- -------- ----------------,254020.70000004768,254019.90000003576,253832.648,253839.90000003576,253849.387,254032.487,,2,Rapa
screen,html.Screen,2_3_1_0_1_3,2022-02-17T14:44:22.972Z,,,,,,,,,,,,,,,,,11,,,,,,,,,,,,,,212.71300004769,,response,,,,4,E,,,,,,Space,keypress(Space),,,,lyrical,,,,----- -- ---- Nui -- --- -------- ------------ ---------- --<br>- ------- ------ --------- -- ------------ -- --- ---- -----<br>------ ---- ---- ------ ------ ------- --- ----- ---------<br>---- --- -------- -------- --- --- -- ------- --- --- -----<br>-- --- ------ ------- --- --- -------- ---- --------- --<br>---------- -- -------- ----------------,254245.90000003576,254245.20000004768,254015.8,254020.90000003576,254032.487,254248.912,,3,Nui
screen,html.Screen,2_3_1_0_1_4,2022-02-17T14:44:23.200Z,,,,,,,,,,,,,,,,,11,,,,,,,,,,,,,,223.9880000357516,,response,,,,4,E,,,,,,Space,keypress(Space),,,,lyrical,,,,----- -- ---- --- to --- -------- ------------ ---------- --<br>- ------- ------ --------- -- ------------ -- --- ---- -----<br>------ ---- ---- ------ ------ ------- --- ----- ---------<br>---- --- -------- -------- --- --- -- ------- --- --- -----<br>-- --- ------ ------- --- --- -------- ---- --------- --<br>---------- -- -------- ----------------,254473.5,254472.90000003576,254232.243,254246.10000002384,254248.912,254482.028,,4,to
screen,html.Screen,2_3_1_0_1_5,2022-02-17T14:44:23.642Z,,,,,,,,,,,,,,,,,11,,,,,,,,,,,,,,433.47200000000885,,response,,,,4,E,,,,,,Space,keypress(Space),,,,lyrical,,,,----- -- ---- --- -- the -------- ------------ ---------- --<br>- ------- ------ --------- -- ------------ -- --- ---- -----<br>------ ---- ---- ------ ------ ------- --- ----- ---------<br>---- --- -------- -------- --- --- -- ------- --- --- -----<br>-- --- ------ ------- --- --- -------- ---- --------- --<br>---------- -- -------- ----------------,254916.30000001192,254915.5,254465.361,254473.80000001192,254482.028,254931.714,,5,the
screen,html.Screen,2_3_1_0_1_6,2022-02-17T14:44:23.802Z,,,,,,,,,,,,,,,,,11,,,,,,,,,,,,,,143.28599999999278,,response,,,,4,E,,,,,,Space,keypress(Space),,,,lyrical,,,,----- -- ---- --- -- --- island's ------------ ---------- --<br>- ------- ------ --------- -- ------------ -- --- ---- -----<br>------ ---- ---- ------ ------ ------- --- ----- ---------<br>---- --- -------- -------- --- --- -- ------- --- --- -----<br>-- --- ------ ------- --- --- -------- ---- --------- --<br>---------- -- -------- ----------------,255075.70000004768,255075,254914.903,254916.5,254931.714,255081.415,,6,island's
screen,html.Screen,2_3_1_0_1_7,2022-02-17T14:44:24.128Z,,,,,,,,,,,,,,,,,11,,,,,,,,,,,,,,319.8850000119128,,response,,,,4,E,,,,,,Space,keypress(Space),,,,lyrical,,,,"----- -- ---- --- -- --- -------- inhabitants, ---------- --<br>- ------- ------ --------- -- ------------ -- --- ---- -----<br>------ ---- ---- ------ ------ ------- --- ----- ---------<br>---- --- -------- -------- --- --- -- ------- --- --- -----<br>-- --- ------ ------- --- --- -------- ---- --------- --<br>---------- -- -------- ----------------",255402.40000003576,255401.30000001192,255064.764,255076,255081.415,255414.463,,7,"inhabitants,"
screen,html.Screen,2_3_1_0_1_8,2022-02-17T14:44:24.352Z,,,,,,,,,,,,,,,,,11,,,,,,,,,,,,,,210.7370000476949,,response,,,,4,E,,,,,,Space,keypress(Space),,,,lyrical,,,,----- -- ---- --- -- --- -------- ------------ Rongorongo --<br>- ------- ------ --------- -- ------------ -- --- ---- -----<br>------ ---- ---- ------ ------ ------- --- ----- ---------<br>---- --- -------- -------- --- --- -- ------- --- --- -----<br>-- --- ------ ------- --- --- -------- ---- --------- --<br>---------- -- -------- ----------------,255625.90000003576,255625.20000004768,255397.772,255402.5,255414.463,255631.07,,8,Rongorongo
screen,html.Screen,2_3_1_0_1_9,2022-02-17T14:44:25.608Z,,,,,,,,,,,,,,,,,11,,,,,,,,,,,,,,1249.6300000476767,,response,,,,4,E,,,,,,Space,keypress(Space),,,,lyrical,,,,----- -- ---- --- -- --- -------- ------------ ---------- is<br>- ------- ------ --------- -- ------------ -- --- ---- -----<br>------ ---- ---- ------ ------ ------- --- ----- ---------<br>---- --- -------- -------- --- --- -- ------- --- --- -----<br>-- --- ------ ------- --- --- -------- ---- --------- --<br>---------- -- -------- ----------------,256882.30000001192,256880.70000004768,255614.227,255626.10000002384,255631.07,256896.366,,9,is
screen,html.Screen,2_3_1_0_1_10,2022-02-17T14:44:25.963Z,,,,,,,,,,,,,,,,,11,,,,,,,,,,,,,,339.5340000357537,,response,,,,4,E,,,,,,Space,keypress(Space),,,,lyrical,,,,----- -- ---- --- -- --- -------- ------------ ---------- --<br>a ------- ------ --------- -- ------------ -- --- ---- -----<br>------ ---- ---- ------ ------ ------- --- ----- ---------<br>---- --- -------- -------- --- --- -- ------- --- --- -----<br>-- --- ------ ------- --- --- -------- ---- --------- --<br>---------- -- -------- ----------------,257236.60000002384,257235.90000003576,256879.623,256882.60000002384,256896.366,257246.03,,10,a
screen,html.Screen,2_3_1_0_1_11,2022-02-17T14:44:26.393Z,,,,,,,,,,,,,,,,,11,,,,,,,,,,,,,,420.47000000000116,,response,,,,4,E,,,,,,Space,keypress(Space),,,,lyrical,,,,----- -- ---- --- -- --- -------- ------------ ---------- --<br>- writing ------ --------- -- ------------ -- --- ---- -----<br>------ ---- ---- ------ ------ ------- --- ----- ---------<br>---- --- -------- -------- --- --- -- ------- --- --- -----<br>-- --- ------ ------- --- --- -------- ---- --------- --<br>---------- -- -------- ----------------,257667.30000001192,257666.5,257229.309,257236.80000001192,257246.03,257678.973,,11,writing
screen,html.Screen,2_3_1_0_1_12,2022-02-17T14:44:26.951Z,,,,,,,,,,,,,,,,,11,,,,,,,,,,,,,,545.0270000000019,,response,,,,4,E,,,,,,Space,keypress(Space),,,,lyrical,,,,----- -- ---- --- -- --- -------- ------------ ---------- --<br>- ------- system --------- -- ------------ -- --- ---- -----<br>------ ---- ---- ------ ------ ------- --- ----- ---------<br>---- --- -------- -------- --- --- -- ------- --- --- -----<br>-- --- ------ ------- --- --- -------- ---- --------- --<br>---------- -- -------- ----------------,258224.90000003576,258224,257662.224,257667.40000003576,257678.973,258228.785,,12,system
screen,html.Screen,2_3_1_0_1_13,2022-02-17T14:44:27.425Z,,,,,,,,,,,,,,,,,11,,,,,,,,,,,,,,469.6150000357593,,response,,,,4,E,,,,,,Space,keypress(Space),,,,lyrical,,,,----- -- ---- --- -- --- -------- ------------ ---------- --<br>- ------- ------ comprised -- ------------ -- --- ---- -----<br>------ ---- ---- ------ ------ ------- --- ----- ---------<br>---- --- -------- -------- --- --- -- ------- --- --- -----<br>-- --- ------ ------- --- --- -------- ---- --------- --<br>---------- -- -------- ----------------,258699.10000002384,258698.40000003576,258211.67,258225,258228.785,258711.296,,13,comprised
screen,html.Screen,2_3_1_0_1_14,2022-02-17T14:44:27.779Z,,,,,,,,,,,,,,,,,11,,,,,,,,,,,,,,340.9040000476816,,response,,,,4,E,,,,,,Space,keypress(Space),,,,lyrical,,,,----- -- ---- --- -- --- -------- ------------ ---------- --<br>- ------- ------ --------- of ------------ -- --- ---- -----<br>------ ---- ---- ------ ------ ------- --- ----- ---------<br>---- --- -------- -------- --- --- -- ------- --- --- -----<br>-- --- ------ ------- --- --- -------- ---- --------- --<br>---------- -- -------- ----------------,259052.90000003576,259052.20000004768,258694.533,258699.30000001192,258711.296,259060.92,,14,of
screen,html.Screen,2_3_1_0_1_15,2022-02-17T14:44:28.227Z,,,,,,,,,,,,,,,,,11,,,,,,,,,,,,,,439.18000002382905,,response,,,,4,E,,,,,,Space,keypress(Space),,,,lyrical,,,,----- -- ---- --- -- --- -------- ------------ ---------- --<br>- ------- ------ --------- -- pictographs. -- --- ---- -----<br>------ ---- ---- ------ ------ ------- --- ----- ---------<br>---- --- -------- -------- --- --- -- ------- --- --- -----<br>-- --- ------ ------- --- --- -------- ---- --------- --<br>---------- -- -------- ----------------,259501,259500.10000002384,259044.209,259053,259060.92,259510.469,,15,pictographs.
screen,html.Screen,2_3_1_0_1_16,2022-02-17T14:44:28.700Z,,,,,,,,,,,,,,,,,11,,,,,,,,,,,,,,462.83100001190905,,response,,,,4,E,,,,,,Space,keypress(Space),,,,lyrical,,,,----- -- ---- --- -- --- -------- ------------ ---------- --<br>- ------- ------ --------- -- ------------ It --- ---- -----<br>------ ---- ---- ------ ------ ------- --- ----- ---------<br>---- --- -------- -------- --- --- -- ------- --- --- -----<br>-- --- ------ ------- --- --- -------- ---- --------- --<br>---------- -- -------- ----------------,259974.10000002384,259973.30000001192,259493.764,259501.20000004768,259510.469,259976.635,,16,It
screen,html.Screen,2_3_1_0_1_17,2022-02-17T14:44:28.882Z,,,,,,,,,,,,,,,,,11,,,,,,,,,,,,,,178.96500002383254,,response,,,,4,E,,,,,,Space,keypress(Space),,,,lyrical,,,,----- -- ---- --- -- --- -------- ------------ ---------- --<br>- ------- ------ --------- -- ------------ -- has ---- -----<br>------ ---- ---- ------ ------ ------- --- ----- ---------<br>---- --- -------- -------- --- --- -- ------- --- --- -----<br>-- --- ------ ------- --- --- -------- ---- --------- --<br>---------- -- -------- ----------------,260156.20000004768,260155.60000002384,259959.975,259974.30000001192,259976.635,260159.782,,17,has
screen,html.Screen,2_3_1_0_1_18,2022-02-17T14:44:29.271Z,,,,,,,,,,,,,,,,,11,,,,,,,,,,,,,,383.81800002383534,,response,,,,4,E,,,,,,Space,keypress(Space),,,,lyrical,,,,----- -- ---- --- -- --- -------- ------------ ---------- --<br>- ------- ------ --------- -- ------------ -- --- been -----<br>------ ---- ---- ------ ------ ------- --- ----- ---------<br>---- --- -------- -------- --- --- -- ------- --- --- -----<br>-- --- ------ ------- --- --- -------- ---- --------- --<br>---------- -- -------- ----------------,260544.40000003576,260543.60000002384,260143.116,260156.40000003576,260159.782,260559.436,,18,been
screen,html.Screen,2_3_1_0_1_19,2022-02-17T14:44:29.645Z,,,,,,,,,,,,,,,,,11,,,,,,,,,,,,,,359.06400000001304,,response,,,,4,E,,,,,,Space,keypress(Space),,,,lyrical,,,,----- -- ---- --- -- --- -------- ------------ ---------- --<br>- ------- ------ --------- -- ------------ -- --- ---- found<br>------ ---- ---- ------ ------ ------- --- ----- ---------<br>---- --- -------- -------- --- --- -- ------- --- --- -----<br>-- --- ------ ------- --- --- -------- ---- --------- --<br>---------- -- -------- ----------------,260919.20000004768,260918.5,260542.729,260546,260559.436,260925.722,,19,found
screen,html.Screen,2_3_1_0_1_20,2022-02-17T14:44:30.005Z,,,,,,,,,,,,,,,,,11,,,,,,,,,,,,,,352.47800004767487,,response,,,,4,E,,,,,,Space,keypress(Space),,,,lyrical,,,,----- -- ---- --- -- --- -------- ------------ ---------- --<br>- ------- ------ --------- -- ------------ -- --- ---- -----<br>carved ---- ---- ------ ------ ------- --- ----- ---------<br>---- --- -------- -------- --- --- -- ------- --- --- -----<br>-- --- ------ ------- --- --- -------- ---- --------- --<br>---------- -- -------- ----------------,261278.90000003576,261278.20000004768,260909.051,260919.5,260925.722,261292.109,,20,carved
screen,html.Screen,2_3_1_0_1_21,2022-02-17T14:44:30.420Z,,,,,,,,,,,,,,,,,11,,,,,,,,,,,,,,400.9910000238451,,response,,,,4,E,,,,,,Space,keypress(Space),,,,lyrical,,,,----- -- ---- --- -- --- -------- ------------ ---------- --<br>- ------- ------ --------- -- ------------ -- --- ---- -----<br>------ into ---- ------ ------ ------- --- ----- ---------<br>---- --- -------- -------- --- --- -- ------- --- --- -----<br>-- --- ------ ------- --- --- -------- ---- --------- --<br>---------- -- -------- ----------------,261694,261693.10000002384,261275.337,261279.10000002384,261292.109,261708.308,,21,into
screen,html.Screen,2_3_1_0_1_22,2022-02-17T14:44:30.629Z,,,,,,,,,,,,,,,,,11,,,,,,,,,,,,,,193.99200001193094,,response,,,,4,E,,,,,,Space,keypress(Space),,,,lyrical,,,,----- -- ---- --- -- --- -------- ------------ ---------- --<br>- ------- ------ --------- -- ------------ -- --- ---- -----<br>------ ---- many ------ ------ ------- --- ----- ---------<br>---- --- -------- -------- --- --- -- ------- --- --- -----<br>-- --- ------ ------- --- --- -------- ---- --------- --<br>---------- -- -------- ----------------,261903,261902.30000001192,261691.598,261694.20000004768,261708.308,261908.067,,22,many
screen,html.Screen,2_3_1_0_1_23,2022-02-17T14:44:31.031Z,,,,,,,,,,,,,,,,,11,,,,,,,,,,,,,,396.1330000476737,,response,,,,4,E,,,,,,Space,keypress(Space),,,,lyrical,,,,----- -- ---- --- -- --- -------- ------------ ---------- --<br>- ------- ------ --------- -- ------------ -- --- ---- -----<br>------ ---- ---- oblong ------ ------- --- ----- ---------<br>---- --- -------- -------- --- --- -- ------- --- --- -----<br>-- --- ------ ------- --- --- -------- ---- --------- --<br>---------- -- -------- ----------------,262304.90000003576,262304.2000000477,261891.407,261903.20000004768,261908.067,262307.696,,23,oblong
screen,html.Screen,2_3_1_0_1_24,2022-02-17T14:44:31.458Z,,,,,,,,,,,,,,,,,11,,,,,,,,,,,,,,423.50400004768744,,response,,,,4,E,,,,,,Space,keypress(Space),,,,lyrical,,,,----- -- ---- --- -- --- -------- ------------ ---------- --<br>- ------- ------ --------- -- ------------ -- --- ---- -----<br>------ ---- ---- ------ wooden ------- --- ----- ---------<br>---- --- -------- -------- --- --- -- ------- --- --- -----<br>-- --- ------ ------- --- --- -------- ---- --------- --<br>---------- -- -------- ----------------,262732.3000000119,262731.2000000477,262291.029,262305.10000002384,262307.696,262740.621,,24,wooden
screen,html.Screen,2_3_1_0_1_25,2022-02-17T14:44:32.039Z,,,,,,,,,,,,,,,,,11,,,,,,,,,,,,,,571.6790000119363,,response,,,,4,E,,,,,,Space,keypress(Space),,,,lyrical,,,,----- -- ---- --- -- --- -------- ------------ ---------- --<br>- ------- ------ --------- -- ------------ -- --- ---- -----<br>------ ---- ---- ------ ------ tablets --- ----- ---------<br>---- --- -------- -------- --- --- -- ------- --- --- -----<br>-- --- ------ ------- --- --- -------- ---- --------- --<br>---------- -- -------- ----------------,263313.3000000119,263312.3000000119,262724.015,262732.40000003576,262740.621,263323.408,,25,tablets
screen,html.Screen,2_3_1_0_1_26,2022-02-17T14:44:32.561Z,,,,,,,,,,,,,,,,,11,,,,,,,,,,,,,,510.7920000476879,,response,,,,4,E,,,,,,Space,keypress(Space),,,,lyrical,,,,----- -- ---- --- -- --- -------- ------------ ---------- --<br>- ------- ------ --------- -- ------------ -- --- ---- -----<br>------ ---- ---- ------ ------ ------- and ----- ---------<br>---- --- -------- -------- --- --- -- ------- --- --- -----<br>-- --- ------ ------- --- --- -------- ---- --------- --<br>---------- -- -------- ----------------,263835.10000002384,263834.2000000477,263306.682,263313.5,263323.408,263839.511,,26,and
screen,html.Screen,2_3_1_0_1_27,2022-02-17T14:44:32.763Z,,,,,,,,,,,,,,,,,11,,,,,,,,,,,,,,196.28900001192233,,response,,,,4,E,,,,,,Space,keypress(Space),,,,lyrical,,,,----- -- ---- --- -- --- -------- ------------ ---------- --<br>- ------- ------ --------- -- ------------ -- --- ---- -----<br>------ ---- ---- ------ ------ ------- --- other ---------<br>---- --- -------- -------- --- --- -- ------- --- --- -----<br>-- --- ------ ------- --- --- -------- ---- --------- --<br>---------- -- -------- ----------------,264036.5,264035.8000000119,263822.869,263835.40000003576,263839.511,264039.307,,27,other
screen,html.Screen,2_3_1_0_1_28,2022-02-17T14:44:33.188Z,,,,,,,,,,,,,,,,,11,,,,,,,,,,,,,,421.6930000000284,,response,,,,4,E,,,,,,Space,keypress(Space),,,,lyrical,,,,----- -- ---- --- -- --- -------- ------------ ---------- --<br>- ------- ------ --------- -- ------------ -- --- ---- -----<br>------ ---- ---- ------ ------ ------- --- ----- artifacts<br>---- --- -------- -------- --- --- -- ------- --- --- -----<br>-- --- ------ ------- --- --- -------- ---- --------- --<br>---------- -- -------- ----------------,264461.90000003576,264461,264022.657,264036.7000000477,264039.307,264472.271,,28,artifacts
screen,html.Screen,2_3_1_0_1_29,2022-02-17T14:44:33.726Z,,,,,,,,,,,,,,,,,11,,,,,,,,,,,,,,526.8290000238339,,response,,,,4,E,,,,,,Space,keypress(Space),,,,lyrical,,,,----- -- ---- --- -- --- -------- ------------ ---------- --<br>- ------- ------ --------- -- ------------ -- --- ---- -----<br>------ ---- ---- ------ ------ ------- --- ----- ---------<br>from --- -------- -------- --- --- -- ------- --- --- -----<br>-- --- ------ ------- --- --- -------- ---- --------- --<br>---------- -- -------- ----------------,264999.7000000477,264999.10000002384,264455.563,264462.10000002384,264472.271,265005.027,,29,from
screen,html.Screen,2_3_1_0_1_30,2022-02-17T14:44:34.061Z,,,,,,,,,,,,,,,,,11,,,,,,,,,,,,,,329.3730000357609,,response,,,,4,E,,,,,,Space,keypress(Space),,,,lyrical,,,,----- -- ---- --- -- --- -------- ------------ ---------- --<br>- ------- ------ --------- -- ------------ -- --- ---- -----<br>------ ---- ---- ------ ------ ------- --- ----- ---------<br>---- the -------- -------- --- --- -- ------- --- --- -----<br>-- --- ------ ------- --- --- -------- ---- --------- --<br>---------- -- -------- ----------------,265335.2000000477,265334.40000003576,264988.372,264999.90000003576,265005.027,265338.044,,30,the
screen,html.Screen,2_3_1_0_1_31,2022-02-17T14:44:34.256Z,,,,,,,,,,,,,,,,,11,,,,,,,,,,,,,,191.4560000000056,,response,,,,4,E,,,,,,Space,keypress(Space),,,,lyrical,,,,----- -- ---- --- -- --- -------- ------------ ---------- --<br>- ------- ------ --------- -- ------------ -- --- ---- -----<br>------ ---- ---- ------ ------ ------- --- ----- ---------<br>---- --- island's -------- --- --- -- ------- --- --- -----<br>-- --- ------ ------- --- --- -------- ---- --------- --<br>---------- -- -------- ----------------,265530.2000000477,265529.5,265321.385,265335.3000000119,265338.044,265537.89,,31,island's
screen,html.Screen,2_3_1_0_1_32,2022-02-17T14:44:34.736Z,,,,,,,,,,,,,,,,,11,,,,,,,,,,,,,,471.31000004766975,,response,,,,4,E,,,,,,Space,keypress(Space),,,,lyrical,,,,----- -- ---- --- -- --- -------- ------------ ---------- --<br>- ------- ------ --------- -- ------------ -- --- ---- -----<br>------ ---- ---- ------ ------ ------- --- ----- ---------<br>---- --- -------- history. --- --- -- ------- --- --- -----<br>-- --- ------ ------- --- --- -------- ---- --------- --<br>---------- -- -------- ----------------,266009.90000003576,266009.2000000477,265521.203,265530.40000003576,265537.89,266021.035,,32,history.
screen,html.Screen,2_3_1_0_1_33,2022-02-17T14:44:35.202Z,,,,,,,,,,,,,,,,,11,,,,,,,,,,,,,,453.9650000000256,,response,,,,4,E,,,,,,Space,keypress(Space),,,,lyrical,,,,----- -- ---- --- -- --- -------- ------------ ---------- --<br>- ------- ------ --------- -- ------------ -- --- ---- -----<br>------ ---- ---- ------ ------ ------- --- ----- ---------<br>---- --- -------- -------- The --- -- ------- --- --- -----<br>-- --- ------ ------- --- --- -------- ---- --------- --<br>---------- -- -------- ----------------,266475.8000000119,266475,266004.042,266010.2000000477,266021.035,266486.941,,33,The
screen,html.Screen,2_3_1_0_1_34,2022-02-17T14:44:35.473Z,,,,,,,,,,,,,,,,,11,,,,,,,,,,,,,,259.65900002385024,,response,,,,4,E,,,,,,Space,keypress(Space),,,,lyrical,,,,----- -- ---- --- -- --- -------- ------------ ---------- --<br>- ------- ------ --------- -- ------------ -- --- ---- -----<br>------ ---- ---- ------ ------ ------- --- ----- ---------<br>---- --- -------- -------- --- art -- ------- --- --- -----<br>-- --- ------ ------- --- --- -------- ---- --------- --<br>---------- -- -------- ----------------,266747.2000000477,266746.60000002384,266470.246,266476,266486.941,266753.336,,34,art
screen,html.Screen,2_3_1_0_1_35,2022-02-17T14:44:35.826Z,,,,,,,,,,,,,,,,,11,,,,,,,,,,,,,,345.56400003575254,,response,,,,4,E,,,,,,Space,keypress(Space),,,,lyrical,,,,----- -- ---- --- -- --- -------- ------------ ---------- --<br>- ------- ------ --------- -- ------------ -- --- ---- -----<br>------ ---- ---- ------ ------ ------- --- ----- ---------<br>---- --- -------- -------- --- --- of ------- --- --- -----<br>-- --- ------ ------- --- --- -------- ---- --------- --<br>---------- -- -------- ----------------,267099.60000002384,267098.90000003576,266736.66,266747.40000003576,266753.336,267102.978,,35,of
screen,html.Screen,2_3_1_0_1_36,2022-02-17T14:44:36.132Z,,,,,,,,,,,,,,,,,11,,,,,,,,,,,,,,302.42200003576,,response,,,,4,E,,,,,,Space,keypress(Space),,,,lyrical,,,,----- -- ---- --- -- --- -------- ------------ ---------- --<br>- ------- ------ --------- -- ------------ -- --- ---- -----<br>------ ---- ---- ------ ------ ------- --- ----- ---------<br>---- --- -------- -------- --- --- -- writing --- --- -----<br>-- --- ------ ------- --- --- -------- ---- --------- --<br>---------- -- -------- ----------------,267406.10000002384,267405.40000003576,267086.311,267099.8000000119,267102.978,267419.394,,36,writing
screen,html.Screen,2_3_1_0_1_37,2022-02-17T14:44:36.643Z,,,,,,,,,,,,,,,,,11,,,,,,,,,,,,,,496.70600002387073,,response,,,,4,E,,,,,,Space,keypress(Space),,,,lyrical,,,,----- -- ---- --- -- --- -------- ------------ ---------- --<br>- ------- ------ --------- -- ------------ -- --- ---- -----<br>------ ---- ---- ------ ------ ------- --- ----- ---------<br>---- --- -------- -------- --- --- -- ------- was --- -----<br>-- --- ------ ------- --- --- -------- ---- --------- --<br>---------- -- -------- ----------------,267916.90000003576,267916.10000002384,267402.682,267406.3000000119,267419.394,267918.861,,37,was
screen,html.Screen,2_3_1_0_1_38,2022-02-17T14:44:37.034Z,,,,,,,,,,,,,,,,,11,,,,,,,,,,,,,,388.23900002386654,,response,,,,4,E,,,,,,Space,keypress(Space),,,,lyrical,,,,----- -- ---- --- -- --- -------- ------------ ---------- --<br>- ------- ------ --------- -- ------------ -- --- ---- -----<br>------ ---- ---- ------ ------ ------- --- ----- ---------<br>---- --- -------- -------- --- --- -- ------- --- not -----<br>-- --- ------ ------- --- --- -------- ---- --------- --<br>---------- -- -------- ----------------,268307.8000000119,268307.10000002384,267902.18,267917.10000002384,267918.861,268318.597,,38,not
screen,html.Screen,2_3_1_0_1_39,2022-02-17T14:44:37.424Z,,,,,,,,,,,,,,,,,11,,,,,,,,,,,,,,378.60300004767487,,response,,,,4,E,,,,,,Space,keypress(Space),,,,lyrical,,,,----- -- ---- --- -- --- -------- ------------ ---------- --<br>- ------- ------ --------- -- ------------ -- --- ---- -----<br>------ ---- ---- ------ ------ ------- --- ----- ---------<br>---- --- -------- -------- --- --- -- ------- --- --- known<br>-- --- ------ ------- --- --- -------- ---- --------- --<br>---------- -- -------- ----------------,268697.90000003576,268697.2000000477,268301.803,268307.90000003576,268318.597,268701.446,,39,known
