sender,sender_type,sender_id,timestamp,meta,,Blues,Classical,Country,Dance,Electronic,Folk,Gospel,Hip-Hop,Jazz,Latin,Musical/Film,New-age,Pop,Prolific_id,Provo_ID,R&B,Rap,Reggae,Religious,Rock,Soul,Swing,Traditional,age,artist_name,correct,correctResponse,distraction,duration,education,ended_on,familiarity,gender,headphone_check_performance,item,list,music_frequency,offensiveness,pleasantness,position_correct,preference,response,response_action,snippet_file,song_name,song_rating,sound,stimulus_1,stimulus_2,stimulus_3,text,time_commit,time_end,time_render,time_run,time_show,time_switch,url,word,word_ID
Prolific ID,html.Form,0,2022-02-17T14:58:38.280Z,"{""labjs_version"":""20.2.2"",""labjs_build"":{""flavor"":""production"",""commit"":""a25486e0c714a0ae2ce03ff94b7bb6896854dcfa""},""location"":""https://run.pavlovia.org/mvasilev/prolific2_music_e/"",""userAgent"":""Mozilla/5.0 (Windows NT 10.0; Win64; x64) AppleWebKit/537.36 (KHTML, like Gecko) Chrome/98.0.4758.102 Safari/537.36"",""platform"":""Win32"",""language"":""en-GB"",""locale"":""en-GB"",""timeZone"":""Europe/London"",""timezoneOffset"":0,""screen_width"":1920,""screen_height"":1080,""scroll_width"":1920,""scroll_height"":889,""window_innerWidth"":1920,""window_innerHeight"":937,""devicePixelRatio"":1}",,,,,,,,,,,,,,,60b8a2ea5eb4ad8ae98302f9,,,,,,,,,,,,,,,7661.576999999999,,form submission,,,,,,,,,,,,,,,,,,,,,20809.5,20809,13113.757,13125.900000000373,13147.423,20814.038,{},,
Introduction,html.Screen,1_0,2022-02-17T14:58:45.592Z,,,,,,,,,,,,,,,,,,,,,,,,,,,,,,,7304.4619999999995,,response,,,,,,,,,,,continue,click button,,,,,,,,,28121.5,28118.5,20797.682,20809.900000000373,20814.038,28130.764,,,
Volume calibration,html.Screen,1_1,2022-02-17T14:59:07.707Z,,,,,,,,,,,,,,,,,,,,,,,,,,,,,,,22102.636000000373,,response,,,,,,,,,,,continue,click button,,,,,,,,,50236.70000000112,50233.40000000037,28114.142,28121.60000000149,28130.764,50247.518,,,
Task instructions,html.Screen,1_2,2022-02-17T14:59:36.782Z,,,,,,,,,,,,,,,,,,,,,,,,,,,,,,,29061.68200000112,,response,,,,,,,,,,,continue,click button,,,,,,,,,79310.90000000037,79309.20000000112,50230.922,50236.90000000037,50247.518,79314.041,,,
Sounds,html.Screen,1_3_0_0,2022-02-17T14:59:41.020Z,,,,,,,,,,,,,,,,,,,,,,,,,,,,,,,4250.005000000005,,timeout,,,,,,,,,1,,,,,,,,S,O,I,,83549.5,83547.618,79297.332,79311,79314.041,83564.046,,,
Judgement,html.Screen,1_3_0_1,2022-02-17T14:59:42.350Z,,,,,,,,,,,,,,,,,,,,,,,,,,,,true,1,,1314.054000001488,,response,,,,,,,,,1,,1,click #choice-1,,,,,S,O,I,,84879.30000000075,84878.10000000149,83547.618,83549.60000000149,83564.046,84880.735,,,
Trial,flow.Sequence,1_3_0,2022-02-17T14:59:42.350Z,,,,,,,,,,,,,,,,,,,,,,,,,,,,,,,5564.059000001493,,completion,,,,,,,,,1,,,,,,,,S,O,I,,84879.60000000149,84878.10000000149,79297.332,79311,79314.041,84880.735,,,
Sounds,html.Screen,1_3_1_0,2022-02-17T14:59:46.586Z,,,,,,,,,,,,,,,,,,,,,,,,,,,,,,,4250.0869999999995,,timeout,,,,,,,,,3,,,,,,,,O,I,S,,89115,89114.306,84864.118,84879.70000000112,84880.735,89130.822,,,
Judgement,html.Screen,1_3_1_1,2022-02-17T14:59:47.279Z,,,,,,,,,,,,,,,,,,,,,,,,,,,,true,3,,676.1779999999999,,response,,,,,,,,,3,,3,click #choice-3,,,,,O,I,S,,89808.20000000112,89807,89114.306,89115.10000000149,89130.822,89814.156,,,
Trial,flow.Sequence,1_3_1,2022-02-17T14:59:47.279Z,,,,,,,,,,,,,,,,,,,,,,,,,,,,,,,4926.264999999999,,completion,,,,,,,,,3,,,,,,,,O,I,S,,89808.5,89807,84864.118,84879.70000000112,84880.735,89814.156,,,
Sounds,html.Screen,1_3_2_0,2022-02-17T14:59:51.520Z,,,,,,,,,,,,,,,,,,,,,,,,,,,,,,,4249.967000000004,,timeout,,,,,,,,,1,,,,,,,,S,I,O,,94049.40000000037,94047.48,89797.637,89808.70000000112,89814.156,94064.123,,,
Judgement,html.Screen,1_3_2_1,2022-02-17T14:59:52.183Z,,,,,,,,,,,,,,,,,,,,,,,,,,,,true,1,,647.2770000003657,,response,,,,,,,,,1,,1,click #choice-1,,,,,S,I,O,,94712.20000000112,94711.40000000037,94047.48,94050,94064.123,94714.09,,,
Trial,flow.Sequence,1_3_2,2022-02-17T14:59:52.183Z,,,,,,,,,,,,,,,,,,,,,,,,,,,,,,,4897.24400000037,,completion,,,,,,,,,1,,,,,,,,S,I,O,,94712.5,94711.40000000037,89797.637,89808.60000000149,89814.156,94714.09,,,
Sounds,html.Screen,1_3_3_0,2022-02-17T14:59:56.420Z,,,,,,,,,,,,,,,,,,,,,,,,,,,,,,,4250.233999999997,,timeout,,,,,,,,,2,,,,,,,,I,S,O,,98949.70000000112,98947.62,94697.364,94712.70000000112,94714.09,98964.324,,,
Judgement,html.Screen,1_3_3_1,2022-02-17T14:59:57.088Z,,,,,,,,,,,,,,,,,,,,,,,,,,,,true,2,,651.8760000011243,,response,,,,,,,,,2,,2,click #choice-2,,,,,I,S,O,,99617,99616.20000000112,98947.62,98949.90000000037,98964.324,99630.874,,,
Trial,flow.Sequence,1_3_3,2022-02-17T14:59:57.088Z,,,,,,,,,,,,,,,,,,,,,,,,,,,,,,,4902.110000001121,,completion,,,,,,,,,2,,,,,,,,I,S,O,,99617.20000000112,99616.20000000112,94697.364,94712.60000000149,94714.09,99630.874,,,
Sounds,html.Screen,1_3_4_0,2022-02-17T15:00:01.336Z,,,,,,,,,,,,,,,,,,,,,,,,,,,,,,,4249.828000000009,,timeout,,,,,,,,,2,,,,,,,,O,S,I,,103865.10000000149,103864.405,99614.387,99617.30000000075,99630.874,103880.702,,,
Judgement,html.Screen,1_3_4_1,2022-02-17T15:00:01.840Z,,,,,,,,,,,,,,,,,,,,,,,,,,,,true,2,,487.89800000148534,,response,,,,,,,,,2,,2,click #choice-2,,,,,O,S,I,,104369.10000000149,104368.60000000149,103864.405,103865.20000000112,103880.702,104380.71,,,
Trial,flow.Sequence,1_3_4,2022-02-17T15:00:01.840Z,,,,,,,,,,,,,,,,,,,,,,,,,,,,,,,4737.726000001494,,completion,,,,,,,,,2,,,,,,,,O,S,I,,104369.30000000075,104368.60000000149,99614.387,99617.30000000075,99630.874,104380.71,,,
Sounds,html.Screen,1_3_5_0,2022-02-17T15:00:06.086Z,,,,,,,,,,,,,,,,,,,,,,,,,,,,,,,4250.069999999992,,timeout,,,,,,,,,3,,,,,,,,I,O,S,,108615.5,108614.237,104364.228,104369.40000000037,104380.71,108630.78,,,
Judgement,html.Screen,1_3_5_1,2022-02-17T15:00:06.729Z,,,,,,,,,,,,,,,,,,,,,,,,,,,,true,3,,626.7200000000012,,response,,,,,,,,,3,,3,click #choice-3,,,,,I,O,S,,109258.30000000075,109257.5,108614.237,108615.70000000112,108630.78,109264.101,,,
Trial,flow.Sequence,1_3_5,2022-02-17T15:00:06.729Z,,,,,,,,,,,,,,,,,,,,,,,,,,,,,,,4876.789999999994,,completion,,,,,,,,,3,,,,,,,,I,O,S,,109258.5,109257.5,104364.228,104369.40000000037,104380.71,109264.101,,,
Task,flow.Loop,1_3,2022-02-17T15:00:06.736Z,,,,,,,,,,,,,,,,,,,,,,,,,,,,,,,29943.459000000003,,completion,,,1,,,,,,,,,,,,,,,,,,109265,109257.5,79297.332,79311,79314.041,109264.101,,,
Trap,html.Screen,1_4,2022-02-17T15:00:06.737Z,,,,,,,,,,,,,,,,,,,,,,,,,,,,,,,NaN,,skipped,,,,,,,,,,,,,,,,,,,,,109266.30000000075,109257.5,,109266.20000000112,,109264.101,,,
Thanks,html.Screen,1_5,2022-02-17T15:00:10.130Z,,,,,,,,,,,,,,,,,,,,,,,,,,,,,,,3394.399000000005,,response,,,,,,,,,,,continue,click button,,,,,,,,,112659.30000000075,112658.5,109247.364,109266.5,109264.101,116997.376,,,
Headphone screening,flow.Sequence,1,2022-02-17T15:00:10.130Z,,,,,,,,,,,,,,,,,,,,,,,,,,,,,,,91844.462,,completion,,,,,,,,,,,,,,,,,,,,,112659.5,112658.5,20797.682,20809.800000000745,20814.038,116997.376,,,
Instructions,html.Page,2_0,2022-02-17T15:00:45.224Z,,,,,,,,,,,,,,,,,,,,,,,,,,,,,,,30755.224000001486,,form submission,,,,,,,,,,,,,,,,,,,,,147753.30000000075,147752.6000000015,116980.987,116997.20000000112,116997.376,147764.119,,,
Holding screen,html.Screen,2_1_0_0,2022-02-17T15:00:55.219Z,,,,,,,,,,,,,,,,,,,,,,,,,,,,,,,9999.97199999998,,timeout,,,,,,,,,,,,,,,,,,,,,157748.30000000075,157747.477,147747.651,147753.6000000015,147764.119,157764.091,,,
screen,html.Screen,2_1_0_1_0,2022-02-17T15:00:56.716Z,,,,,,,,,,,,,,,,,53,,,,,,,,,,,,,,1475.4090000000142,,response,,,,99,,,,,,,Space,keypress(Space),,,,,,,,When -- ----- -- ------ - ------- --- ----------<br>------------- ------ ------ ---- ---- ------- ----- -- ----<br>-------- ------- -- ---------- --- - --- ----- ----- ----<br>---- --- --- ----- --- ---- ---- ------- ----- ---- -------<br>--- --- -- ----- -- --- ---- -- --- ---- -- ------ ------<br>--- ----- -- ----,159245.6000000015,159239.5,157747.477,157748.6000000015,157764.091,159268.205,,0,When
screen,html.Screen,2_1_0_1_1,2022-02-17T15:00:57.477Z,,,,,,,,,,,,,,,,,53,,,,,,,,,,,,,,737.1950000003853,,response,,,,99,,,,,,,Space,keypress(Space),,,,,,,,---- it ----- -- ------ - ------- --- ----------<br>------------- ------ ------ ---- ---- ------- ----- -- ----<br>-------- ------- -- ---------- --- - --- ----- ----- ----<br>---- --- --- ----- --- ---- ---- ------- ----- ---- -------<br>--- --- -- ----- -- --- ---- -- --- ---- -- ------ ------<br>--- ----- -- ----,160006.6000000015,160005.40000000037,159230.87,159245.80000000075,159268.205,160014.146,,1,it
screen,html.Screen,2_1_0_1_2,2022-02-17T15:00:58.157Z,,,,,,,,,,,,,,,,,53,,,,,,,,,,,,,,671.7540000003646,,response,,,,99,,,,,,,Space,keypress(Space),,,,,,,,---- -- comes -- ------ - ------- --- ----------<br>------------- ------ ------ ---- ---- ------- ----- -- ----<br>-------- ------- -- ---------- --- - --- ----- ----- ----<br>---- --- --- ----- --- ---- ---- ------- ----- ---- -------<br>--- --- -- ----- -- --- ---- -- --- ---- -- ------ ------<br>--- ----- -- ----,160687.1000000015,160685.90000000037,159997.448,160006.90000000037,160014.146,160697.458,,2,comes
screen,html.Screen,2_1_0_1_3,2022-02-17T15:00:58.845Z,,,,,,,,,,,,,,,,,53,,,,,,,,,,,,,,676.1420000014768,,response,,,,99,,,,,,,Space,keypress(Space),,,,,,,,---- -- ----- to ------ - ------- --- ----------<br>------------- ------ ------ ---- ---- ------- ----- -- ----<br>-------- ------- -- ---------- --- - --- ----- ----- ----<br>---- --- --- ----- --- ---- ---- ------- ----- ---- -------<br>--- --- -- ----- -- --- ---- -- --- ---- -- ------ ------<br>--- ----- -- ----,161374.70000000112,161373.6000000015,160680.803,160687.30000000075,160697.458,161380.825,,3,to
screen,html.Screen,2_1_0_1_4,2022-02-17T15:00:59.572Z,,,,,,,,,,,,,,,,,53,,,,,,,,,,,,,,719.9750000007334,,response,,,,99,,,,,,,Space,keypress(Space),,,,,,,,---- -- ----- -- having - ------- --- ----------<br>------------- ------ ------ ---- ---- ------- ----- -- ----<br>-------- ------- -- ---------- --- - --- ----- ----- ----<br>---- --- --- ----- --- ---- ---- ------- ----- ---- -------<br>--- --- -- ----- -- --- ---- -- --- ---- -- ------ ------<br>--- ----- -- ----,162101.30000000075,162100.80000000075,161364.387,161374.90000000037,161380.825,162114.05,,4,having
screen,html.Screen,2_1_0_1_5,2022-02-17T15:01:00.269Z,,,,,,,,,,,,,,,,,53,,,,,,,,,,,,,,683.7500000007567,,response,,,,99,,,,,,,Space,keypress(Space),,,,,,,,---- -- ----- -- ------ a ------- --- ----------<br>------------- ------ ------ ---- ---- ------- ----- -- ----<br>-------- ------- -- ---------- --- - --- ----- ----- ----<br>---- --- --- ----- --- ---- ---- ------- ----- ---- -------<br>--- --- -- ----- -- --- ---- -- --- ---- -- ------ ------<br>--- ----- -- ----,162799,162797.80000000075,162097.718,162101.40000000037,162114.05,162814.423,,5,a
screen,html.Screen,2_1_0_1_6,2022-02-17T15:01:00.966Z,,,,,,,,,,,,,,,,,53,,,,,,,,,,,,,,679.8770000007353,,response,,,,99,,,,,,,Space,keypress(Space),,,,,,,,---- -- ----- -- ------ - lasting --- ----------<br>------------- ------ ------ ---- ---- ------- ----- -- ----<br>-------- ------- -- ---------- --- - --- ----- ----- ----<br>---- --- --- ----- --- ---- ---- ------- ----- ---- -------<br>--- --- -- ----- -- --- ---- -- --- ---- -- ------ ------<br>--- ----- -- ----,163495.40000000037,163494.30000000075,162797.61,162799.30000000075,162814.423,163528.227,,6,lasting
screen,html.Screen,2_1_0_1_7,2022-02-17T15:01:01.566Z,,,,,,,,,,,,,,,,,53,,,,,,,,,,,,,,566.4730000011041,,response,,,,99,,,,,,,Space,keypress(Space),,,,,,,,---- -- ----- -- ------ - ------- and ----------<br>------------- ------ ------ ---- ---- ------- ----- -- ----<br>-------- ------- -- ---------- --- - --- ----- ----- ----<br>---- --- --- ----- --- ---- ---- ------- ----- ---- -------<br>--- --- -- ----- -- --- ---- -- --- ---- -- ------ ------<br>--- ----- -- ----,164095.90000000037,164094.70000000112,163480.974,163495.6000000015,163528.227,164114.125,,7,and
screen,html.Screen,2_1_0_1_8,2022-02-17T15:01:02.302Z,,,,,,,,,,,,,,,,,53,,,,,,,,,,,,,,716.4750000014901,,response,,,,99,,,,,,,Space,keypress(Space),,,,,,,,---- -- ----- -- ------ - ------- --- fulfilling<br>------------- ------ ------ ---- ---- ------- ----- -- ----<br>-------- ------- -- ---------- --- - --- ----- ----- ----<br>---- --- --- ----- --- ---- ---- ------- ----- ---- -------<br>--- --- -- ----- -- --- ---- -- --- ---- -- ------ ------<br>--- ----- -- ----,164832,164830.6000000015,164080.796,164096.20000000112,164114.125,164847.527,,8,fulfilling
screen,html.Screen,2_1_0_1_9,2022-02-17T15:01:03.133Z,,,,,,,,,,,,,,,,,53,,,,,,,,,,,,,,814.1730000011157,,response,,,,99,,,,,,,Space,keypress(Space),,,,,,,,"---- -- ----- -- ------ - ------- --- ----------<br>relationship, ------ ------ ---- ---- ------- ----- -- ----<br>-------- ------- -- ---------- --- - --- ----- ----- ----<br>---- --- --- ----- --- ---- ---- ------- ----- ---- -------<br>--- --- -- ----- -- --- ---- -- --- ---- -- ------ ------<br>--- ----- -- ----",165662.20000000112,165661.70000000112,164830.861,164832.30000000075,164847.527,165664.08,,9,"relationship,"
screen,html.Screen,2_1_0_1_10,2022-02-17T15:01:03.990Z,,,,,,,,,,,,,,,,,53,,,,,,,,,,,,,,854.5200000015029,,response,,,,99,,,,,,,Space,keypress(Space),,,,,,,,---- -- ----- -- ------ - ------- --- ----------<br>------------- common ------ ---- ---- ------- ----- -- ----<br>-------- ------- -- ---------- --- - --- ----- ----- ----<br>---- --- --- ----- --- ---- ---- ------- ----- ---- -------<br>--- --- -- ----- -- --- ---- -- --- ---- -- ------ ------<br>--- ----- -- ----,166519.90000000037,166518.6000000015,165647.698,165662.40000000037,165664.08,166530.777,,10,common
screen,html.Screen,2_1_0_1_11,2022-02-17T15:01:04.782Z,,,,,,,,,,,,,,,,,53,,,,,,,,,,,,,,780.0230000007432,,response,,,,99,,,,,,,Space,keypress(Space),,,,,,,,---- -- ----- -- ------ - ------- --- ----------<br>------------- ------ wisdom ---- ---- ------- ----- -- ----<br>-------- ------- -- ---------- --- - --- ----- ----- ----<br>---- --- --- ----- --- ---- ---- ------- ----- ---- -------<br>--- --- -- ----- -- --- ---- -- --- ---- -- ------ ------<br>--- ----- -- ----,167312,167310.80000000075,166514.124,166520.1000000015,166530.777,167340.999,,11,wisdom
screen,html.Screen,2_1_0_1_12,2022-02-17T15:01:05.532Z,,,,,,,,,,,,,,,,,53,,,,,,,,,,,,,,720.4010000003618,,response,,,,99,,,,,,,Space,keypress(Space),,,,,,,,---- -- ----- -- ------ - ------- --- ----------<br>------------- ------ ------ says ---- ------- ----- -- ----<br>-------- ------- -- ---------- --- - --- ----- ----- ----<br>---- --- --- ----- --- ---- ---- ------- ----- ---- -------<br>--- --- -- ----- -- --- ---- -- --- ---- -- ------ ------<br>--- ----- -- ----,168062,168061.40000000037,167297.47,167312.30000000075,167340.999,168064.05,,12,says
screen,html.Screen,2_1_0_1_13,2022-02-17T15:01:06.213Z,,,,,,,,,,,,,,,,,53,,,,,,,,,,,,,,677.6500000011292,,response,,,,99,,,,,,,Space,keypress(Space),,,,,,,,---- -- ----- -- ------ - ------- --- ----------<br>------------- ------ ------ ---- that ------- ----- -- ----<br>-------- ------- -- ---------- --- - --- ----- ----- ----<br>---- --- --- ----- --- ---- ---- ------- ----- ---- -------<br>--- --- -- ----- -- --- ---- -- --- ---- -- ------ ------<br>--- ----- -- ----,168742.20000000112,168741.70000000112,168047.405,168062,168064.05,168747.324,,13,that
screen,html.Screen,2_1_0_1_14,2022-02-17T15:01:06.935Z,,,,,,,,,,,,,,,,,53,,,,,,,,,,,,,,716.0760000003793,,response,,,,99,,,,,,,Space,keypress(Space),,,,,,,,---- -- ----- -- ------ - ------- --- ----------<br>------------- ------ ------ ---- ---- feeling ----- -- ----<br>-------- ------- -- ---------- --- - --- ----- ----- ----<br>---- --- --- ----- --- ---- ---- ------- ----- ---- -------<br>--- --- -- ----- -- --- ---- -- --- ---- -- ------ ------<br>--- ----- -- ----,169464.5,169463.40000000037,168730.675,168742.30000000075,168747.324,169480.859,,14,feeling
screen,html.Screen,2_1_0_1_15,2022-02-17T15:01:07.550Z,,,,,,,,,,,,,,,,,53,,,,,,,,,,,,,,597.6410000000033,,response,,,,99,,,,,,,Space,keypress(Space),,,,,,,,---- -- ----- -- ------ - ------- --- ----------<br>------------- ------ ------ ---- ---- ------- close -- ----<br>-------- ------- -- ---------- --- - --- ----- ----- ----<br>---- --- --- ----- --- ---- ---- ------- ----- ---- -------<br>--- --- -- ----- -- --- ---- -- --- ---- -- ------ ------<br>--- ----- -- ----,170079.40000000037,170078.5,169464.026,169464.70000000112,169480.859,170108.134,,15,close
screen,html.Screen,2_1_0_1_16,2022-02-17T15:01:08.103Z,,,,,,,,,,,,,,,,,53,,,,,,,,,,,,,,522.9660000014992,,response,,,,99,,,,,,,Space,keypress(Space),,,,,,,,---- -- ----- -- ------ - ------- --- ----------<br>------------- ------ ------ ---- ---- ------- ----- to ----<br>-------- ------- -- ---------- --- - --- ----- ----- ----<br>---- --- --- ----- --- ---- ---- ------- ----- ---- -------<br>--- --- -- ----- -- --- ---- -- --- ---- -- ------ ------<br>--- ----- -- ----,170632.30000000075,170631.1000000015,170064.339,170079.70000000112,170108.134,170647.676,,16,to
screen,html.Screen,2_1_0_1_17,2022-02-17T15:01:08.734Z,,,,,,,,,,,,,,,,,53,,,,,,,,,,,,,,615.2240000003658,,response,,,,99,,,,,,,Space,keypress(Space),,,,,,,,---- -- ----- -- ------ - ------- --- ----------<br>------------- ------ ------ ---- ---- ------- ----- -- your<br>-------- ------- -- ---------- --- - --- ----- ----- ----<br>---- --- --- ----- --- ---- ---- ------- ----- ---- -------<br>--- --- -- ----- -- --- ---- -- --- ---- -- ------ ------<br>--- ----- -- ----,171263.80000000075,171262.90000000037,170631.057,170632.6000000015,170647.676,171280.958,,17,your
screen,html.Screen,2_1_0_1_18,2022-02-17T15:01:09.415Z,,,,,,,,,,,,,,,,,53,,,,,,,,,,,,,,662.3420000007318,,response,,,,99,,,,,,,Space,keypress(Space),,,,,,,,---- -- ----- -- ------ - ------- --- ----------<br>------------- ------ ------ ---- ---- ------- ----- -- ----<br>romantic ------- -- ---------- --- - --- ----- ----- ----<br>---- --- --- ----- --- ---- ---- ------- ----- ---- -------<br>--- --- -- ----- -- --- ---- -- --- ---- -- ------ ------<br>--- ----- -- ----,171944.40000000037,171943.30000000075,171264.28,171263.90000000037,171280.958,171947.487,,18,romantic
screen,html.Screen,2_1_0_1_19,2022-02-17T15:01:10.143Z,,,,,,,,,,,,,,,,,53,,,,,,,,,,,,,,723.7130000011239,,response,,,,99,,,,,,,Space,keypress(Space),,,,,,,,---- -- ----- -- ------ - ------- --- ----------<br>------------- ------ ------ ---- ---- ------- ----- -- ----<br>-------- partner -- ---------- --- - --- ----- ----- ----<br>---- --- --- ----- --- ---- ---- ------- ----- ---- -------<br>--- --- -- ----- -- --- ---- -- --- ---- -- ------ ------<br>--- ----- -- ----,172672.20000000112,172671.20000000112,171931.068,171944.70000000112,171947.487,172680.952,,19,partner
screen,html.Screen,2_1_0_1_20,2022-02-17T15:01:10.783Z,,,,,,,,,,,,,,,,,53,,,,,,,,,,,,,,630.1480000014999,,response,,,,99,,,,,,,Space,keypress(Space),,,,,,,,---- -- ----- -- ------ - ------- --- ----------<br>------------- ------ ------ ---- ---- ------- ----- -- ----<br>-------- ------- is ---------- --- - --- ----- ----- ----<br>---- --- --- ----- --- ---- ---- ------- ----- ---- -------<br>--- --- -- ----- -- --- ---- -- --- ---- -- ------ ------<br>--- ----- -- ----,173312.30000000075,173311.1000000015,172664.395,172672.30000000075,172680.952,173338.348,,20,is
screen,html.Screen,2_1_0_1_21,2022-02-17T15:01:11.750Z,,,,,,,,,,,,,,,,,53,,,,,,,,,,,,,,940.752000001492,,response,,,,99,,,,,,,Space,keypress(Space),,,,,,,,---- -- ----- -- ------ - ------- --- ----------<br>------------- ------ ------ ---- ---- ------- ----- -- ----<br>-------- ------- -- paramount. --- - --- ----- ----- ----<br>---- --- --- ----- --- ---- ---- ------- ----- ---- -------<br>--- --- -- ----- -- --- ---- -- --- ---- -- ------ ------<br>--- ----- -- ----,174280,174279.1000000015,173297.672,173312.6000000015,173338.348,174297.575,,21,paramount.
screen,html.Screen,2_1_0_1_22,2022-02-17T15:01:12.429Z,,,,,,,,,,,,,,,,,53,,,,,,,,,,,,,,660.8250000003609,,response,,,,99,,,,,,,Space,keypress(Space),,,,,,,,---- -- ----- -- ------ - ------- --- ----------<br>------------- ------ ------ ---- ---- ------- ----- -- ----<br>-------- ------- -- ---------- But - --- ----- ----- ----<br>---- --- --- ----- --- ---- ---- ------- ----- ---- -------<br>--- --- -- ----- -- --- ---- -- --- ---- -- ------ ------<br>--- ----- -- ----,174959,174958.40000000037,174280.685,174280.20000000112,174297.575,174964.019,,22,But
screen,html.Screen,2_1_0_1_23,2022-02-17T15:01:12.959Z,,,,,,,,,,,,,,,,,53,,,,,,,,,,,,,,523.6810000011174,,response,,,,99,,,,,,,Space,keypress(Space),,,,,,,,---- -- ----- -- ------ - ------- --- ----------<br>------------- ------ ------ ---- ---- ------- ----- -- ----<br>-------- ------- -- ---------- --- a --- ----- ----- ----<br>---- --- --- ----- --- ---- ---- ------- ----- ---- -------<br>--- --- -- ----- -- --- ---- -- --- ---- -- ------ ------<br>--- ----- -- ----,175488.80000000075,175487.70000000112,174947.67,174959,174964.019,175497.424,,23,a
screen,html.Screen,2_1_0_1_24,2022-02-17T15:01:13.582Z,,,,,,,,,,,,,,,,,53,,,,,,,,,,,,,,613.7760000011185,,response,,,,99,,,,,,,Space,keypress(Space),,,,,,,,---- -- ----- -- ------ - ------- --- ----------<br>------------- ------ ------ ---- ---- ------- ----- -- ----<br>-------- ------- -- ---------- --- - new ----- ----- ----<br>---- --- --- ----- --- ---- ---- ------- ----- ---- -------<br>--- --- -- ----- -- --- ---- -- --- ---- -- ------ ------<br>--- ----- -- ----,176111.80000000075,176111.20000000112,175480.859,175489,175497.424,176114.068,,24,new
screen,html.Screen,2_1_0_1_25,2022-02-17T15:01:14.223Z,,,,,,,,,,,,,,,,,53,,,,,,,,,,,,,,637.8320000003732,,response,,,,99,,,,,,,Space,keypress(Space),,,,,,,,---- -- ----- -- ------ - ------- --- ----------<br>------------- ------ ------ ---- ---- ------- ----- -- ----<br>-------- ------- -- ---------- --- - --- study ----- ----<br>---- --- --- ----- --- ---- ---- ------- ----- ---- -------<br>--- --- -- ----- -- --- ---- -- --- ---- -- ------ ------<br>--- ----- -- ----,176753,176751.90000000037,176097.694,176111.90000000037,176114.068,176764.141,,25,study
screen,html.Screen,2_1_0_1_26,2022-02-17T15:01:14.798Z,,,,,,,,,,,,,,,,,53,,,,,,,,,,,,,,562.8589999999967,,response,,,,99,,,,,,,Space,keypress(Space),,,,,,,,---- -- ----- -- ------ - ------- --- ----------<br>------------- ------ ------ ---- ---- ------- ----- -- ----<br>-------- ------- -- ---------- --- - --- ----- finds ----<br>---- --- --- ----- --- ---- ---- ------- ----- ---- -------<br>--- --- -- ----- -- --- ---- -- --- ---- -- ------ ------<br>--- ----- -- ----,177327.5,177327,176747.491,176753.30000000075,176764.141,177330.703,,26,finds
screen,html.Screen,2_1_0_1_27,2022-02-17T15:01:15.358Z,,,,,,,,,,,,,,,,,53,,,,,,,,,,,,,,556.497000001109,,response,,,,99,,,,,,,Space,keypress(Space),,,,,,,,---- -- ----- -- ------ - ------- --- ----------<br>------------- ------ ------ ---- ---- ------- ----- -- ----<br>-------- ------- -- ---------- --- - --- ----- ----- that<br>---- --- --- ----- --- ---- ---- ------- ----- ---- -------<br>--- --- -- ----- -- --- ---- -- --- ---- -- ------ ------<br>--- ----- -- ----,177888,177887.20000000112,177314.132,177327.70000000112,177330.703,177897.394,,27,that
screen,html.Screen,2_1_0_1_28,2022-02-17T15:01:16.071Z,,,,,,,,,,,,,,,,,53,,,,,,,,,,,,,,702.1059999999998,,response,,,,99,,,,,,,Space,keypress(Space),,,,,,,,---- -- ----- -- ------ - ------- --- ----------<br>------------- ------ ------ ---- ---- ------- ----- -- ----<br>-------- ------- -- ---------- --- - --- ----- ----- ----<br>it's --- --- ----- --- ---- ---- ------- ----- ---- -------<br>--- --- -- ----- -- --- ---- -- --- ---- -- ------ ------<br>--- ----- -- ----,178600.1000000015,178599.5,177880.698,177888.1000000015,177897.394,178614.102,,28,it's
screen,html.Screen,2_1_0_1_29,2022-02-17T15:01:16.600Z,,,,,,,,,,,,,,,,,53,,,,,,,,,,,,,,514.4980000014766,,response,,,,99,,,,,,,Space,keypress(Space),,,,,,,,---- -- ----- -- ------ - ------- --- ----------<br>------------- ------ ------ ---- ---- ------- ----- -- ----<br>-------- ------- -- ---------- --- - --- ----- ----- ----<br>---- not --- ----- --- ---- ---- ------- ----- ---- -------<br>--- --- -- ----- -- --- ---- -- --- ---- -- ------ ------<br>--- ----- -- ----,179130,179128.6000000015,178597.755,178600.30000000075,178614.102,179147.682,,29,not
screen,html.Screen,2_1_0_1_30,2022-02-17T15:01:17.280Z,,,,,,,,,,,,,,,,,53,,,,,,,,,,,,,,661.1180000007444,,response,,,,99,,,,,,,Space,keypress(Space),,,,,,,,---- -- ----- -- ------ - ------- --- ----------<br>------------- ------ ------ ---- ---- ------- ----- -- ----<br>-------- ------- -- ---------- --- - --- ----- ----- ----<br>---- --- how ----- --- ---- ---- ------- ----- ---- -------<br>--- --- -- ----- -- --- ---- -- --- ---- -- ------ ------<br>--- ----- -- ----,179809.6000000015,179808.80000000075,179130.747,179130.30000000075,179147.682,179814.103,,30,how
screen,html.Screen,2_1_0_1_31,2022-02-17T15:01:17.847Z,,,,,,,,,,,,,,,,,53,,,,,,,,,,,,,,561.8969999999972,,response,,,,99,,,,,,,Space,keypress(Space),,,,,,,,---- -- ----- -- ------ - ------- --- ----------<br>------------- ------ ------ ---- ---- ------- ----- -- ----<br>-------- ------- -- ---------- --- - --- ----- ----- ----<br>---- --- --- close --- ---- ---- ------- ----- ---- -------<br>--- --- -- ----- -- --- ---- -- --- ---- -- ------ ------<br>--- ----- -- ----,180376.6000000015,180376,179797.371,179809.80000000075,179814.103,180380.736,,31,close
screen,html.Screen,2_1_0_1_32,2022-02-17T15:01:18.416Z,,,,,,,,,,,,,,,,,53,,,,,,,,,,,,,,563.7639999999956,,response,,,,99,,,,,,,Space,keypress(Space),,,,,,,,---- -- ----- -- ------ - ------- --- ----------<br>------------- ------ ------ ---- ---- ------- ----- -- ----<br>-------- ------- -- ---------- --- - --- ----- ----- ----<br>---- --- --- ----- you ---- ---- ------- ----- ---- -------<br>--- --- -- ----- -- --- ---- -- --- ---- -- ------ ------<br>--- ----- -- ----,180945.5,180944.5,180364.21,180376.70000000112,180380.736,180970.959,,32,you
screen,html.Screen,2_1_0_1_33,2022-02-17T15:01:19.023Z,,,,,,,,,,,,,,,,,53,,,,,,,,,,,,,,580.741000001115,,response,,,,99,,,,,,,Space,keypress(Space),,,,,,,,---- -- ----- -- ------ - ------- --- ----------<br>------------- ------ ------ ---- ---- ------- ----- -- ----<br>-------- ------- -- ---------- --- - --- ----- ----- ----<br>---- --- --- ----- --- feel ---- ------- ----- ---- -------<br>--- --- -- ----- -- --- ---- -- --- ---- -- ------ ------<br>--- ----- -- ----,181552.40000000037,181551.70000000112,180931.071,180945.80000000075,180970.959,181564.155,,33,feel
screen,html.Screen,2_1_0_1_34,2022-02-17T15:01:19.696Z,,,,,,,,,,,,,,,,,53,,,,,,,,,,,,,,660.3450000000012,,response,,,,99,,,,,,,Space,keypress(Space),,,,,,,,---- -- ----- -- ------ - ------- --- ----------<br>------------- ------ ------ ---- ---- ------- ----- -- ----<br>-------- ------- -- ---------- --- - --- ----- ----- ----<br>---- --- --- ----- --- ---- that ------- ----- ---- -------<br>--- --- -- ----- -- --- ---- -- --- ---- -- ------ ------<br>--- ----- -- ----,182225.70000000112,182224.5,181547.494,181552.40000000037,181564.155,182230.766,,34,that
screen,html.Screen,2_1_0_1_35,2022-02-17T15:01:20.383Z,,,,,,,,,,,,,,,,,53,,,,,,,,,,,,,,681.5340000007418,,response,,,,99,,,,,,,Space,keypress(Space),,,,,,,,---- -- ----- -- ------ - ------- --- ----------<br>------------- ------ ------ ---- ---- ------- ----- -- ----<br>-------- ------- -- ---------- --- - --- ----- ----- ----<br>---- --- --- ----- --- ---- ---- matters ----- ---- -------<br>--- --- -- ----- -- --- ---- -- --- ---- -- ------ ------<br>--- ----- -- ----,182913.1000000015,182912.30000000075,182214.26,182226,182230.766,182930.825,,35,matters
screen,html.Screen,2_1_0_1_36,2022-02-17T15:01:21.112Z,,,,,,,,,,,,,,,,,53,,,,,,,,,,,,,,710.375000001106,,response,,,,99,,,,,,,Space,keypress(Space),,,,,,,,"---- -- ----- -- ------ - ------- --- ----------<br>------------- ------ ------ ---- ---- ------- ----- -- ----<br>-------- ------- -- ---------- --- - --- ----- ----- ----<br>---- --- --- ----- --- ---- ---- ------- most, ---- -------<br>--- --- -- ----- -- --- ---- -- --- ---- -- ------ ------<br>--- ----- -- ----",183642.5,183641.20000000112,182914.144,182913.5,182930.825,183647.495,,36,"most,"
screen,html.Screen,2_1_0_1_37,2022-02-17T15:01:21.697Z,,,,,,,,,,,,,,,,,53,,,,,,,,,,,,,,577.9050000003772,,response,,,,99,,,,,,,Space,keypress(Space),,,,,,,,---- -- ----- -- ------ - ------- --- ----------<br>------------- ------ ------ ---- ---- ------- ----- -- ----<br>-------- ------- -- ---------- --- - --- ----- ----- ----<br>---- --- --- ----- --- ---- ---- ------- ----- it's -------<br>--- --- -- ----- -- --- ---- -- --- ---- -- ------ ------<br>--- ----- -- ----,184226.70000000112,184225.40000000037,183630.793,183642.80000000075,183647.495,184230.786,,37,it's
screen,html.Screen,2_1_0_1_38,2022-02-17T15:01:22.319Z,,,,,,,,,,,,,,,,,53,,,,,,,,,,,,,,617.4140000011248,,response,,,,99,,,,,,,Space,keypress(Space),,,,,,,,---- -- ----- -- ------ - ------- --- ----------<br>------------- ------ ------ ---- ---- ------- ----- -- ----<br>-------- ------- -- ---------- --- - --- ----- ----- ----<br>---- --- --- ----- --- ---- ---- ------- ----- ---- whether<br>--- --- -- ----- -- --- ---- -- --- ---- -- ------ ------<br>--- ----- -- ----,184848.90000000037,184848.20000000112,184214.012,184226.90000000037,184230.786,184864.085,,38,whether
screen,html.Screen,2_1_0_1_39,2022-02-17T15:01:23.040Z,,,,,,,,,,,,,,,,,53,,,,,,,,,,,,,,704.8150000003807,,response,,,,99,,,,,,,Space,keypress(Space),,,,,,,,---- -- ----- -- ------ - ------- --- ----------<br>------------- ------ ------ ---- ---- ------- ----- -- ----<br>-------- ------- -- ---------- --- - --- ----- ----- ----<br>---- --- --- ----- --- ---- ---- ------- ----- ---- -------<br>you --- -- ----- -- --- ---- -- --- ---- -- ------ ------<br>--- ----- -- ----,185570.5,185568.90000000037,184847.444,184849,184864.085,185580.786,,39,you
screen,html.Screen,2_1_0_1_40,2022-02-17T15:01:23.624Z,,,,,,,,,,,,,,,,,53,,,,,,,,,,,,,,572.3140000014973,,response,,,,99,,,,,,,Space,keypress(Space),,,,,,,,---- -- ----- -- ------ - ------- --- ----------<br>------------- ------ ------ ---- ---- ------- ----- -- ----<br>-------- ------- -- ---------- --- - --- ----- ----- ----<br>---- --- --- ----- --- ---- ---- ------- ----- ---- -------<br>--- are -- ----- -- --- ---- -- --- ---- -- ------ ------<br>--- ----- -- ----,186154.20000000112,186153.1000000015,185564.214,185570.70000000112,185580.786,186164.214,,40,are
screen,html.Screen,2_1_0_1_41,2022-02-17T15:01:24.193Z,,,,,,,,,,,,,,,,,53,,,,,,,,,,,,,,557.2859999999928,,response,,,,99,,,,,,,Space,keypress(Space),,,,,,,,---- -- ----- -- ------ - ------- --- ----------<br>------------- ------ ------ ---- ---- ------- ----- -- ----<br>-------- ------- -- ---------- --- - --- ----- ----- ----<br>---- --- --- ----- --- ---- ---- ------- ----- ---- -------<br>--- --- as ----- -- --- ---- -- --- ---- -- ------ ------<br>--- ----- -- ----,186722.6000000015,186721.5,186147.447,186154.5,186164.214,186730.813,,41,as
screen,html.Screen,2_1_0_1_42,2022-02-17T15:01:24.799Z,,,,,,,,,,,,,,,,,53,,,,,,,,,,,,,,597.5870000003779,,response,,,,99,,,,,,,Space,keypress(Space),,,,,,,,---- -- ----- -- ------ - ------- --- ----------<br>------------- ------ ------ ---- ---- ------- ----- -- ----<br>-------- ------- -- ---------- --- - --- ----- ----- ----<br>---- --- --- ----- --- ---- ---- ------- ----- ---- -------<br>--- --- -- close -- --- ---- -- --- ---- -- ------ ------<br>--- ----- -- ----,187329,187328.40000000037,186714.202,186722.80000000075,186730.813,187330.737,,42,close
screen,html.Screen,2_1_0_1_43,2022-02-17T15:01:25.464Z,,,,,,,,,,,,,,,,,53,,,,,,,,,,,,,,662.2630000000063,,response,,,,99,,,,,,,Space,keypress(Space),,,,,,,,---- -- ----- -- ------ - ------- --- ----------<br>------------- ------ ------ ---- ---- ------- ----- -- ----<br>-------- ------- -- ---------- --- - --- ----- ----- ----<br>---- --- --- ----- --- ---- ---- ------- ----- ---- -------<br>--- --- -- ----- as --- ---- -- --- ---- -- ------ ------<br>--- ----- -- ----,187993.80000000075,187993,187314.346,187329.1000000015,187330.737,187997.401,,43,as
screen,html.Screen,2_1_0_1_44,2022-02-17T15:01:26.081Z,,,,,,,,,,,,,,,,,53,,,,,,,,,,,,,,612.49900000036,,response,,,,99,,,,,,,Space,keypress(Space),,,,,,,,---- -- ----- -- ------ - ------- --- ----------<br>------------- ------ ------ ---- ---- ------- ----- -- ----<br>-------- ------- -- ---------- --- - --- ----- ----- ----<br>---- --- --- ----- --- ---- ---- ------- ----- ---- -------<br>--- --- -- ----- -- you ---- -- --- ---- -- ------ ------<br>--- ----- -- ----,188611.20000000112,188609.90000000037,187980.733,187993.90000000037,187997.401,188614.131,,44,you
screen,html.Screen,2_1_0_1_45,2022-02-17T15:01:26.738Z,,,,,,,,,,,,,,,,,53,,,,,,,,,,,,,,652.4690000014962,,response,,,,99,,,,,,,Space,keypress(Space),,,,,,,,---- -- ----- -- ------ - ------- --- ----------<br>------------- ------ ------ ---- ---- ------- ----- -- ----<br>-------- ------- -- ---------- --- - --- ----- ----- ----<br>---- --- --- ----- --- ---- ---- ------- ----- ---- -------<br>--- --- -- ----- -- --- want -- --- ---- -- ------ ------<br>--- ----- -- ----,189268,189266.6000000015,188597.575,188611.5,188614.131,189280.876,,45,want
screen,html.Screen,2_1_0_1_46,2022-02-17T15:01:27.362Z,,,,,,,,,,,,,,,,,53,,,,,,,,,,,,,,609.7240000015008,,response,,,,99,,,,,,,Space,keypress(Space),,,,,,,,---- -- ----- -- ------ - ------- --- ----------<br>------------- ------ ------ ---- ---- ------- ----- -- ----<br>-------- ------- -- ---------- --- - --- ----- ----- ----<br>---- --- --- ----- --- ---- ---- ------- ----- ---- -------<br>--- --- -- ----- -- --- ---- to --- ---- -- ------ ------<br>--- ----- -- ----,189891.70000000112,189890.6000000015,189264.289,189268.5,189280.876,189897.527,,46,to
screen,html.Screen,2_1_0_1_47,2022-02-17T15:01:28.089Z,,,,,,,,,,,,,,,,,53,,,,,,,,,,,,,,720.2730000007432,,response,,,,99,,,,,,,Space,keypress(Space),,,,,,,,"---- -- ----- -- ------ - ------- --- ----------<br>------------- ------ ------ ---- ---- ------- ----- -- ----<br>-------- ------- -- ---------- --- - --- ----- ----- ----<br>---- --- --- ----- --- ---- ---- ------- ----- ---- -------<br>--- --- -- ----- -- --- ---- -- be, ---- -- ------ ------<br>--- ----- -- ----",190619.1000000015,190617.80000000075,189880.717,189892,189897.527,190630.841,,47,"be,"
screen,html.Screen,2_1_0_1_48,2022-02-17T15:01:28.753Z,,,,,,,,,,,,,,,,,53,,,,,,,,,,,,,,650.8590000011318,,response,,,,99,,,,,,,Space,keypress(Space),,,,,,,,---- -- ----- -- ------ - ------- --- ----------<br>------------- ------ ------ ---- ---- ------- ----- -- ----<br>-------- ------- -- ---------- --- - --- ----- ----- ----<br>---- --- --- ----- --- ---- ---- ------- ----- ---- -------<br>--- --- -- ----- -- --- ---- -- --- even -- ------ ------<br>--- ----- -- ----,191282.90000000037,191281.70000000112,190614.145,190619.5,190630.841,191297.535,,48,even
screen,html.Screen,2_1_0_1_49,2022-02-17T15:01:29.385Z,,,,,,,,,,,,,,,,,53,,,,,,,,,,,,,,616.5650000014866,,response,,,,99,,,,,,,Space,keypress(Space),,,,,,,,---- -- ----- -- ------ - ------- --- ----------<br>------------- ------ ------ ---- ---- ------- ----- -- ----<br>-------- ------- -- ---------- --- - --- ----- ----- ----<br>---- --- --- ----- --- ---- ---- ------- ----- ---- -------<br>--- --- -- ----- -- --- ---- -- --- ---- if ------ ------<br>--- ----- -- ----,191915.30000000075,191914.1000000015,191280.727,191283,191297.535,191931.029,,49,if
screen,html.Screen,2_1_0_1_50,2022-02-17T15:01:29.960Z,,,,,,,,,,,,,,,,,53,,,,,,,,,,,,,,558.171000001108,,response,,,,99,,,,,,,Space,keypress(Space),,,,,,,,---- -- ----- -- ------ - ------- --- ----------<br>------------- ------ ------ ---- ---- ------- ----- -- ----<br>-------- ------- -- ---------- --- - --- ----- ----- ----<br>---- --- --- ----- --- ---- ---- ------- ----- ---- -------<br>--- --- -- ----- -- --- ---- -- --- ---- -- that's ------<br>--- ----- -- ----,192489.70000000112,192489.20000000112,191914.319,191915.5,191931.029,192497.4,,50,that's
screen,html.Screen,2_1_0_1_51,2022-02-17T15:01:30.585Z,,,,,,,,,,,,,,,,,53,,,,,,,,,,,,,,617.0000000003783,,response,,,,99,,,,,,,Space,keypress(Space),,,,,,,,---- -- ----- -- ------ - ------- --- ----------<br>------------- ------ ------ ---- ---- ------- ----- -- ----<br>-------- ------- -- ---------- --- - --- ----- ----- ----<br>---- --- --- ----- --- ---- ---- ------- ----- ---- -------<br>--- --- -- ----- -- --- ---- -- --- ---- -- ------ really<br>--- ----- -- ----,193115.5,193114.40000000037,192481.015,192489.90000000037,192497.4,193131.078,,51,really
screen,html.Screen,2_1_0_1_52,2022-02-17T15:01:31.216Z,,,,,,,,,,,,,,,,,53,,,,,,,,,,,,,,614.5220000014815,,response,,,,99,,,,,,,Space,keypress(Space),,,,,,,,---- -- ----- -- ------ - ------- --- ----------<br>------------- ------ ------ ---- ---- ------- ----- -- ----<br>-------- ------- -- ---------- --- - --- ----- ----- ----<br>---- --- --- ----- --- ---- ---- ------- ----- ---- -------<br>--- --- -- ----- -- --- ---- -- --- ---- -- ------ ------<br>not ----- -- ----,193746.40000000037,193745.6000000015,193114.124,193115.90000000037,193131.078,193780.735,,52,not
screen,html.Screen,2_1_0_1_53,2022-02-17T15:01:31.818Z,,,,,,,,,,,,,,,,,53,,,,,,,,,,,,,,565.9650000011316,,response,,,,99,,,,,,,Space,keypress(Space),,,,,,,,---- -- ----- -- ------ - ------- --- ----------<br>------------- ------ ------ ---- ---- ------- ----- -- ----<br>-------- ------- -- ---------- --- - --- ----- ----- ----<br>---- --- --- ----- --- ---- ---- ------- ----- ---- -------<br>--- --- -- ----- -- --- ---- -- --- ---- -- ------ ------<br>--- close -- ----,194348.30000000075,194346.70000000112,193764.129,193746.5,193780.735,194364.411,,53,close
screen,html.Screen,2_1_0_1_54,2022-02-17T15:01:32.401Z,,,,,,,,,,,,,,,,,53,,,,,,,,,,,,,,565.9890000003797,,response,,,,99,,,,,,,Space,keypress(Space),,,,,,,,---- -- ----- -- ------ - ------- --- ----------<br>------------- ------ ------ ---- ---- ------- ----- -- ----<br>-------- ------- -- ---------- --- - --- ----- ----- ----<br>---- --- --- ----- --- ---- ---- ------- ----- ---- -------<br>--- --- -- ----- -- --- ---- -- --- ---- -- ------ ------<br>--- ----- at ----,194931.40000000037,194930.40000000037,194347.38,194348.5,194364.411,194947.533,,54,at
screen,html.Screen,2_1_0_1_55,2022-02-17T15:01:33.473Z,,,,,,,,,,,,,,,,,53,,,,,,,,,,,,,,1054.5670000014943,,response,,,,99,,,,,,,Space,keypress(Space),,,,,,,,---- -- ----- -- ------ - ------- --- ----------<br>------------- ------ ------ ---- ---- ------- ----- -- ----<br>-------- ------- -- ---------- --- - --- ----- ----- ----<br>---- --- --- ----- --- ---- ---- ------- ----- ---- -------<br>--- --- -- ----- -- --- ---- -- --- ---- -- ------ ------<br>--- ----- -- all.,196002.70000000112,196002.1000000015,194930.718,194931.70000000112,194947.533,196014.13,,55,all.
Item 99,flow.Loop,2_1_0_1,2022-02-17T15:01:33.473Z,,,,,,,,,,,,,,,,,,,,,,,,,,,,,,,38238.009000001504,,completion,,,,,E,,,,,,,,,,,silence,,,,,196003.20000000112,196002.1000000015,157747.477,157748.40000000037,157764.091,196014.13,,,
Question 1,html.Screen,2_1_0_2,2022-02-17T15:01:39.861Z,,,,,,,,,,,,,,,,,,,,,,,,,,,,true,FALSE,,6376.570000001113,,response,,,,99,E,,,,,,FALSE,click #choice-2,,,,silence,,,,,202391.6000000015,202390.70000000112,195997.586,196003.40000000037,196014.13,202397.401,,,
Question 2,html.Screen,2_1_0_3,2022-02-17T15:01:45.214Z,,,,,,,,,,,,,,,,,,,,,,,,,,,,false,TRUE,,5346.098999999987,,response,,,,99,E,,,,,,FALSE,click #choice-2,,,,silence,,,,,207744.40000000037,207743.5,202380.768,202391.70000000112,202397.401,207747.415,,,
Item 99,flow.Sequence,2_1_0,2022-02-17T15:01:45.215Z,,,,,,,,,,,,,,,,,,,,,,,,,,,,,,,59979.380999999994,,completion,,,,,,,,,,,,,,,,,,,,,207744.6000000015,207743.5,147747.651,147753.6000000015,147764.119,207747.415,,,
Holding screen,html.Screen,2_1_1_0,2022-02-17T15:01:55.202Z,,,,,,,,,,,,,,,,,,,,,,,,,,,,,,,10000.035999999993,,timeout,,,,,,,,,,,,,,,,,,,,,217732.1000000015,217730.881,207730.828,207744.90000000037,207747.415,217747.451,,,
screen,html.Screen,2_1_1_1_0,2022-02-17T15:01:55.956Z,,,,,,,,,,,,,,,,,54,,,,,,,,,,,,,,738.1490000014892,,response,,,,100,,,,,,,Space,keypress(Space),,,,,,,,At --- ---- --- ------ ----- ------- ---- -- --- ------- --<br>------- ---------- ------ -- ----- -- ----- -- ---- ------<br>--- ----- --- --- ------ -------- ----- --- ------ ----- --<br>----- ----- ---------- --- --- ------ ------ ---- -- ------<br>------- --- ------ ----- --- ---- ------- -- ---- --- --<br>------- ------,218486.30000000075,218485.6000000015,217730.881,217732.40000000037,217747.451,218497.586,,0,At
screen,html.Screen,2_1_1_1_1,2022-02-17T15:01:56.533Z,,,,,,,,,,,,,,,,,54,,,,,,,,,,,,,,564.0140000014799,,response,,,,100,,,,,,,Space,keypress(Space),,,,,,,,-- the ---- --- ------ ----- ------- ---- -- --- ------- --<br>------- ---------- ------ -- ----- -- ----- -- ---- ------<br>--- ----- --- --- ------ -------- ----- --- ------ ----- --<br>----- ----- ---------- --- --- ------ ------ ---- -- ------<br>------- --- ------ ----- --- ---- ------- -- ---- --- --<br>------- ------,219062.70000000112,219061.6000000015,218480.749,218486.5,218497.586,219091.844,,1,the
screen,html.Screen,2_1_1_1_2,2022-02-17T15:01:57.318Z,,,,,,,,,,,,,,,,,54,,,,,,,,,,,,,,754.3560000011057,,response,,,,100,,,,,,,Space,keypress(Space),,,,,,,,-- --- time --- ------ ----- ------- ---- -- --- ------- --<br>------- ---------- ------ -- ----- -- ----- -- ---- ------<br>--- ----- --- --- ------ -------- ----- --- ------ ----- --<br>----- ----- ---------- --- --- ------ ------ ---- -- ------<br>------- --- ------ ----- --- ---- ------- -- ---- --- --<br>------- ------,219847.6000000015,219846.20000000112,219047.647,219062.90000000037,219091.844,219864.129,,2,time
screen,html.Screen,2_1_1_1_3,2022-02-17T15:01:58.077Z,,,,,,,,,,,,,,,,,54,,,,,,,,,,,,,,741.7710000003863,,response,,,,100,,,,,,,Space,keypress(Space),,,,,,,,-- --- ---- the ------ ----- ------- ---- -- --- ------- --<br>------- ---------- ------ -- ----- -- ----- -- ---- ------<br>--- ----- --- --- ------ -------- ----- --- ------ ----- --<br>----- ----- ---------- --- --- ------ ------ ---- -- ------<br>------- --- ------ ----- --- ---- ------- -- ---- --- --<br>------- ------,220607,220605.90000000037,219847.722,219847.90000000037,219864.129,220614.146,,3,the
screen,html.Screen,2_1_1_1_4,2022-02-17T15:01:58.645Z,,,,,,,,,,,,,,,,,54,,,,,,,,,,,,,,559.8539999999921,,response,,,,100,,,,,,,Space,keypress(Space),,,,,,,,-- --- ---- --- French ----- ------- ---- -- --- ------- --<br>------- ---------- ------ -- ----- -- ----- -- ---- ------<br>--- ----- --- --- ------ -------- ----- --- ------ ----- --<br>----- ----- ---------- --- --- ------ ------ ---- -- ------<br>------- --- ------ ----- --- ---- ------- -- ---- --- --<br>------- ------,221175.1000000015,221174,220597.593,220607.30000000075,220614.146,221180.769,,4,French
screen,html.Screen,2_1_1_1_5,2022-02-17T15:01:59.340Z,,,,,,,,,,,,,,,,,54,,,,,,,,,,,,,,688.6310000003723,,response,,,,100,,,,,,,Space,keypress(Space),,,,,,,,-- --- ---- --- ------ crown ------- ---- -- --- ------- --<br>------- ---------- ------ -- ----- -- ----- -- ---- ------<br>--- ----- --- --- ------ -------- ----- --- ------ ----- --<br>----- ----- ---------- --- --- ------ ------ ---- -- ------<br>------- --- ------ ----- --- ---- ------- -- ---- --- --<br>------- ------,221870,221869.40000000037,221164.14,221175.30000000075,221180.769,221881.048,,5,crown
screen,html.Screen,2_1_1_1_6,2022-02-17T15:01:59.949Z,,,,,,,,,,,,,,,,,54,,,,,,,,,,,,,,597.0520000014803,,response,,,,100,,,,,,,Space,keypress(Space),,,,,,,,-- --- ---- --- ------ ----- secured ---- -- --- ------- --<br>------- ---------- ------ -- ----- -- ----- -- ---- ------<br>--- ----- --- --- ------ -------- ----- --- ------ ----- --<br>----- ----- ---------- --- --- ------ ------ ---- -- ------<br>------- --- ------ ----- --- ---- ------- -- ---- --- --<br>------- ------,222479.40000000037,222478.1000000015,221864.154,221870.1000000015,221881.048,222511.326,,6,secured
screen,html.Screen,2_1_1_1_7,2022-02-17T15:02:00.733Z,,,,,,,,,,,,,,,,,54,,,,,,,,,,,,,,750.8740000011167,,response,,,,100,,,,,,,Space,keypress(Space),,,,,,,,-- --- ---- --- ------ ----- ------- much -- --- ------- --<br>------- ---------- ------ -- ----- -- ----- -- ---- ------<br>--- ----- --- --- ------ -------- ----- --- ------ ----- --<br>----- ----- ---------- --- --- ------ ------ ---- -- ------<br>------- --- ------ ----- --- ---- ------- -- ---- --- --<br>------- ------,223263.30000000075,223262.20000000112,222464.364,222479.5,222511.326,223280.93,,7,much
screen,html.Screen,2_1_1_1_8,2022-02-17T15:02:01.326Z,,,,,,,,,,,,,,,,,54,,,,,,,,,,,,,,573.4700000003795,,response,,,,100,,,,,,,Space,keypress(Space),,,,,,,,-- --- ---- --- ------ ----- ------- ---- of --- ------- --<br>------- ---------- ------ -- ----- -- ----- -- ---- ------<br>--- ----- --- --- ------ -------- ----- --- ------ ----- --<br>----- ----- ---------- --- --- ------ ------ ---- -- ------<br>------- --- ------ ----- --- ---- ------- -- ---- --- --<br>------- ------,223855.6000000015,223854.40000000037,223264.059,223263.6000000015,223280.93,223864.197,,8,of
screen,html.Screen,2_1_1_1_9,2022-02-17T15:02:01.862Z,,,,,,,,,,,,,,,,,54,,,,,,,,,,,,,,526.4030000015046,,response,,,,100,,,,,,,Space,keypress(Space),,,,,,,,-- --- ---- --- ------ ----- ------- ---- -- its ------- --<br>------- ---------- ------ -- ----- -- ----- -- ---- ------<br>--- ----- --- --- ------ -------- ----- --- ------ ----- --<br>----- ----- ---------- --- --- ------ ------ ---- -- ------<br>------- --- ------ ----- --- ---- ------- -- ---- --- --<br>------- ------,224391.6000000015,224390.6000000015,223847.732,223855.80000000075,223864.197,224397.415,,9,its
screen,html.Screen,2_1_1_1_10,2022-02-17T15:02:02.422Z,,,,,,,,,,,,,,,,,54,,,,,,,,,,,,,,553.3850000007369,,response,,,,100,,,,,,,Space,keypress(Space),,,,,,,,-- --- ---- --- ------ ----- ------- ---- -- --- revenue --<br>------- ---------- ------ -- ----- -- ----- -- ---- ------<br>--- ----- --- --- ------ -------- ----- --- ------ ----- --<br>----- ----- ---------- --- --- ------ ------ ---- -- ------<br>------- --- ------ ----- --- ---- ------- -- ---- --- --<br>------- ------,224952.1000000015,224950.80000000075,224380.868,224391.90000000037,224397.415,224964.093,,10,revenue
screen,html.Screen,2_1_1_1_11,2022-02-17T15:02:03.085Z,,,,,,,,,,,,,,,,,54,,,,,,,,,,,,,,649.9070000000065,,response,,,,100,,,,,,,Space,keypress(Space),,,,,,,,-- --- ---- --- ------ ----- ------- ---- -- --- ------- by<br>------- ---------- ------ -- ----- -- ----- -- ---- ------<br>--- ----- --- --- ------ -------- ----- --- ------ ----- --<br>----- ----- ---------- --- --- ------ ------ ---- -- ------<br>------- --- ------ ----- --- ---- ------- -- ---- --- --<br>------- ------,225614.6000000015,225614,224947.62,224952.40000000037,224964.093,225630.938,,11,by
screen,html.Screen,2_1_1_1_12,2022-02-17T15:02:04.230Z,,,,,,,,,,,,,,,,,54,,,,,,,,,,,,,,1128.1620000014955,,response,,,,100,,,,,,,Space,keypress(Space),,,,,,,,-- --- ---- --- ------ ----- ------- ---- -- --- ------- --<br>issuing ---------- ------ -- ----- -- ----- -- ---- ------<br>--- ----- --- --- ------ -------- ----- --- ------ ----- --<br>----- ----- ---------- --- --- ------ ------ ---- -- ------<br>------- --- ------ ----- --- ---- ------- -- ---- --- --<br>------- ------,226760.40000000037,226759.1000000015,225614.318,225614.70000000112,225630.938,226764.151,,12,issuing
screen,html.Screen,2_1_1_1_13,2022-02-17T15:02:05.124Z,,,,,,,,,,,,,,,,,54,,,,,,,,,,,,,,889.6490000007325,,response,,,,100,,,,,,,Space,keypress(Space),,,,,,,,-- --- ---- --- ------ ----- ------- ---- -- --- ------- --<br>------- government ------ -- ----- -- ----- -- ---- ------<br>--- ----- --- --- ------ -------- ----- --- ------ ----- --<br>----- ----- ---------- --- --- ------ ------ ---- -- ------<br>------- --- ------ ----- --- ---- ------- -- ---- --- --<br>------- ------,227654.30000000075,227653.80000000075,226747.34,226760.70000000112,226764.151,227664.106,,13,government
screen,html.Screen,2_1_1_1_14,2022-02-17T15:02:05.661Z,,,,,,,,,,,,,,,,,54,,,,,,,,,,,,,,526.4940000014903,,response,,,,100,,,,,,,Space,keypress(Space),,,,,,,,-- --- ---- --- ------ ----- ------- ---- -- --- ------- --<br>------- ---------- bonds. -- ----- -- ----- -- ---- ------<br>--- ----- --- --- ------ -------- ----- --- ------ ----- --<br>----- ----- ---------- --- --- ------ ------ ---- -- ------<br>------- --- ------ ----- --- ---- ------- -- ---- --- --<br>------- ------,228191.20000000112,228190.6000000015,227647.582,227654.5,227664.106,228197.43,,14,bonds.
screen,html.Screen,2_1_1_1_15,2022-02-17T15:02:06.471Z,,,,,,,,,,,,,,,,,54,,,,,,,,,,,,,,802.4700000003795,,response,,,,100,,,,,,,Space,keypress(Space),,,,,,,,-- --- ---- --- ------ ----- ------- ---- -- --- ------- --<br>------- ---------- ------ In ----- -- ----- -- ---- ------<br>--- ----- --- --- ------ -------- ----- --- ------ ----- --<br>----- ----- ---------- --- --- ------ ------ ---- -- ------<br>------- --- ------ ----- --- ---- ------- -- ---- --- --<br>------- ------,229000.80000000075,228999.90000000037,228180.888,228191.30000000075,228197.43,229014.413,,15,In
screen,html.Screen,2_1_1_1_16,2022-02-17T15:02:07.462Z,,,,,,,,,,,,,,,,,54,,,,,,,,,,,,,,976.7870000011171,,response,,,,100,,,,,,,Space,keypress(Space),,,,,,,,"-- --- ---- --- ------ ----- ------- ---- -- --- ------- --<br>------- ---------- ------ -- 1727, -- ----- -- ---- ------<br>--- ----- --- --- ------ -------- ----- --- ------ ----- --<br>----- ----- ---------- --- --- ------ ------ ---- -- ------<br>------- --- ------ ----- --- ---- ------- -- ---- --- --<br>------- ------",229992.20000000112,229991.20000000112,228997.67,229001,229014.413,229997.465,,16,"1727,"
screen,html.Screen,2_1_1_1_17,2022-02-17T15:02:08.094Z,,,,,,,,,,,,,,,,,54,,,,,,,,,,,,,,625.435000000376,,response,,,,100,,,,,,,Space,keypress(Space),,,,,,,,-- --- ---- --- ------ ----- ------- ---- -- --- ------- --<br>------- ---------- ------ -- ----- in ----- -- ---- ------<br>--- ----- --- --- ------ -------- ----- --- ------ ----- --<br>----- ----- ---------- --- --- ------ ------ ---- -- ------<br>------- --- ------ ----- --- ---- ------- -- ---- --- --<br>------- ------,230623.6000000015,230622.90000000037,229980.927,229992.40000000037,229997.465,230630.751,,17,in
screen,html.Screen,2_1_1_1_18,2022-02-17T15:02:08.693Z,,,,,,,,,,,,,,,,,54,,,,,,,,,,,,,,591.7490000000107,,response,,,,100,,,,,,,Space,keypress(Space),,,,,,,,-- --- ---- --- ------ ----- ------- ---- -- --- ------- --<br>------- ---------- ------ -- ----- -- order -- ---- ------<br>--- ----- --- --- ------ -------- ----- --- ------ ----- --<br>----- ----- ---------- --- --- ------ ------ ---- -- ------<br>------- --- ------ ----- --- ---- ------- -- ---- --- --<br>------- ------,231223,231222.5,230614.273,230623.70000000112,230630.751,231230.737,,18,order
screen,html.Screen,2_1_1_1_19,2022-02-17T15:02:09.271Z,,,,,,,,,,,,,,,,,54,,,,,,,,,,,,,,568.7630000000063,,response,,,,100,,,,,,,Space,keypress(Space),,,,,,,,-- --- ---- --- ------ ----- ------- ---- -- --- ------- --<br>------- ---------- ------ -- ----- -- ----- to ---- ------<br>--- ----- --- --- ------ -------- ----- --- ------ ----- --<br>----- ----- ---------- --- --- ------ ------ ---- -- ------<br>------- --- ------ ----- --- ---- ------- -- ---- --- --<br>------- ------,231800.90000000037,231799.5,231214.05,231223.20000000112,231230.737,231814.341,,19,to
screen,html.Screen,2_1_1_1_20,2022-02-17T15:02:09.902Z,,,,,,,,,,,,,,,,,54,,,,,,,,,,,,,,616.9590000007593,,response,,,,100,,,,,,,Space,keypress(Space),,,,,,,,-- --- ---- --- ------ ----- ------- ---- -- --- ------- --<br>------- ---------- ------ -- ----- -- ----- -- save ------<br>--- ----- --- --- ------ -------- ----- --- ------ ----- --<br>----- ----- ---------- --- --- ------ ------ ---- -- ------<br>------- --- ------ ----- --- ---- ------- -- ---- --- --<br>------- ------,232432.1000000015,232431.30000000075,231797.431,231801.30000000075,231814.341,232447.616,,20,save
screen,html.Screen,2_1_1_1_21,2022-02-17T15:02:10.647Z,,,,,,,,,,,,,,,,,54,,,,,,,,,,,,,,727.8839999999909,,response,,,,100,,,,,,,Space,keypress(Space),,,,,,,,"-- --- ---- --- ------ ----- ------- ---- -- --- ------- --<br>------- ---------- ------ -- ----- -- ----- -- ---- money,<br>--- ----- --- --- ------ -------- ----- --- ------ ----- --<br>----- ----- ---------- --- --- ------ ------ ---- -- ------<br>------- --- ------ ----- --- ---- ------- -- ---- --- --<br>------- ------",233176.70000000112,233175.5,232430.825,232432.30000000075,232447.616,233180.722,,21,"money,"
screen,html.Screen,2_1_1_1_22,2022-02-17T15:02:11.328Z,,,,,,,,,,,,,,,,,54,,,,,,,,,,,,,,675.6780000003637,,response,,,,100,,,,,,,Space,keypress(Space),,,,,,,,-- --- ---- --- ------ ----- ------- ---- -- --- ------- --<br>------- ---------- ------ -- ----- -- ----- -- ---- ------<br>the ----- --- --- ------ -------- ----- --- ------ ----- --<br>----- ----- ---------- --- --- ------ ------ ---- -- ------<br>------- --- ------ ----- --- ---- ------- -- ---- --- --<br>------- ------,233857.6000000015,233856.40000000037,233164.334,233176.90000000037,233180.722,233864.154,,22,the
screen,html.Screen,2_1_1_1_23,2022-02-17T15:02:11.927Z,,,,,,,,,,,,,,,,,54,,,,,,,,,,,,,,591.9460000014806,,response,,,,100,,,,,,,Space,keypress(Space),,,,,,,,-- --- ---- --- ------ ----- ------- ---- -- --- ------- --<br>------- ---------- ------ -- ----- -- ----- -- ---- ------<br>--- state --- --- ------ -------- ----- --- ------ ----- --<br>----- ----- ---------- --- --- ------ ------ ---- -- ------<br>------- --- ------ ----- --- ---- ------- -- ---- --- --<br>------- ------,234457.5,234456.1000000015,233847.59,233857.90000000037,233864.154,234464.16,,23,state
screen,html.Screen,2_1_1_1_24,2022-02-17T15:02:12.536Z,,,,,,,,,,,,,,,,,54,,,,,,,,,,,,,,600.3399999999965,,response,,,,100,,,,,,,Space,keypress(Space),,,,,,,,-- --- ---- --- ------ ----- ------- ---- -- --- ------- --<br>------- ---------- ------ -- ----- -- ----- -- ---- ------<br>--- ----- cut --- ------ -------- ----- --- ------ ----- --<br>----- ----- ---------- --- --- ------ ------ ---- -- ------<br>------- --- ------ ----- --- ---- ------- -- ---- --- --<br>------- ------,235066,235064.5,234447.649,234457.80000000075,234464.16,235080.72,,24,cut
screen,html.Screen,2_1_1_1_25,2022-02-17T15:02:13.071Z,,,,,,,,,,,,,,,,,54,,,,,,,,,,,,,,519.380000001489,,response,,,,100,,,,,,,Space,keypress(Space),,,,,,,,-- --- ---- --- ------ ----- ------- ---- -- --- ------- --<br>------- ---------- ------ -- ----- -- ----- -- ---- ------<br>--- ----- --- the ------ -------- ----- --- ------ ----- --<br>----- ----- ---------- --- --- ------ ------ ---- -- ------<br>------- --- ------ ----- --- ---- ------- -- ---- --- --<br>------- ------,235601.30000000075,235600.1000000015,235064.197,235068.30000000075,235080.72,235614.091,,25,the
screen,html.Screen,2_1_1_1_26,2022-02-17T15:02:13.720Z,,,,,,,,,,,,,,,,,54,,,,,,,,,,,,,,634.4090000000142,,response,,,,100,,,,,,,Space,keypress(Space),,,,,,,,-- --- ---- --- ------ ----- ------- ---- -- --- ------- --<br>------- ---------- ------ -- ----- -- ----- -- ---- ------<br>--- ----- --- --- bonds' -------- ----- --- ------ ----- --<br>----- ----- ---------- --- --- ------ ------ ---- -- ------<br>------- --- ------ ----- --- ---- ------- -- ---- --- --<br>------- ------,236249.70000000112,236248.5,235597.734,235601.6000000015,235614.091,236264.172,,26,bonds'
screen,html.Screen,2_1_1_1_27,2022-02-17T15:02:14.456Z,,,,,,,,,,,,,,,,,54,,,,,,,,,,,,,,720.0280000011262,,response,,,,100,,,,,,,Space,keypress(Space),,,,,,,,-- --- ---- --- ------ ----- ------- ---- -- --- ------- --<br>------- ---------- ------ -- ----- -- ----- -- ---- ------<br>--- ----- --- --- ------ interest ----- --- ------ ----- --<br>----- ----- ---------- --- --- ------ ------ ---- -- ------<br>------- --- ------ ----- --- ---- ------- -- ---- --- --<br>------- ------,236985.5,236984.20000000112,236247.44,236249.90000000037,236264.172,236997.453,,27,interest
screen,html.Screen,2_1_1_1_28,2022-02-17T15:02:15.278Z,,,,,,,,,,,,,,,,,54,,,,,,,,,,,,,,810.0469999999914,,response,,,,100,,,,,,,Space,keypress(Space),,,,,,,,-- --- ---- --- ------ ----- ------- ---- -- --- ------- --<br>------- ---------- ------ -- ----- -- ----- -- ---- ------<br>--- ----- --- --- ------ -------- rate. --- ------ ----- --<br>----- ----- ---------- --- --- ------ ------ ---- -- ------<br>------- --- ------ ----- --- ---- ------- -- ---- --- --<br>------- ------,237808.1000000015,237807.5,236980.91,236985.80000000075,236997.453,237814.033,,28,rate.
screen,html.Screen,2_1_1_1_29,2022-02-17T15:02:15.855Z,,,,,,,,,,,,,,,,,54,,,,,,,,,,,,,,569.8670000003767,,response,,,,100,,,,,,,Space,keypress(Space),,,,,,,,-- --- ---- --- ------ ----- ------- ---- -- --- ------- --<br>------- ---------- ------ -- ----- -- ----- -- ---- ------<br>--- ----- --- --- ------ -------- ----- The ------ ----- --<br>----- ----- ---------- --- --- ------ ------ ---- -- ------<br>------- --- ------ ----- --- ---- ------- -- ---- --- --<br>------- ------,238384.70000000112,238383.90000000037,237797.398,237808.20000000112,237814.033,238397.622,,29,The
screen,html.Screen,2_1_1_1_30,2022-02-17T15:02:16.416Z,,,,,,,,,,,,,,,,,54,,,,,,,,,,,,,,547.4780000014871,,response,,,,100,,,,,,,Space,keypress(Space),,,,,,,,-- --- ---- --- ------ ----- ------- ---- -- --- ------- --<br>------- ---------- ------ -- ----- -- ----- -- ---- ------<br>--- ----- --- --- ------ -------- ----- --- market ----- --<br>----- ----- ---------- --- --- ------ ------ ---- -- ------<br>------- --- ------ ----- --- ---- ------- -- ---- --- --<br>------- ------,238946.40000000037,238945.1000000015,238380.755,238384.80000000075,238397.622,238964.166,,30,market
screen,html.Screen,2_1_1_1_31,2022-02-17T15:02:16.953Z,,,,,,,,,,,,,,,,,54,,,,,,,,,,,,,,517.6340000007476,,response,,,,100,,,,,,,Space,keypress(Space),,,,,,,,-- --- ---- --- ------ ----- ------- ---- -- --- ------- --<br>------- ---------- ------ -- ----- -- ----- -- ---- ------<br>--- ----- --- --- ------ -------- ----- --- ------ value --<br>----- ----- ---------- --- --- ------ ------ ---- -- ------<br>------- --- ------ ----- --- ---- ------- -- ---- --- --<br>------- ------,239483,239481.80000000075,238930.957,238946.70000000112,238964.166,239497.382,,31,value
screen,html.Screen,2_1_1_1_32,2022-02-17T15:02:17.480Z,,,,,,,,,,,,,,,,,54,,,,,,,,,,,,,,511.4180000007327,,response,,,,100,,,,,,,Space,keypress(Space),,,,,,,,-- --- ---- --- ------ ----- ------- ---- -- --- ------- --<br>------- ---------- ------ -- ----- -- ----- -- ---- ------<br>--- ----- --- --- ------ -------- ----- --- ------ ----- of<br>----- ----- ---------- --- --- ------ ------ ---- -- ------<br>------- --- ------ ----- --- ---- ------- -- ---- --- --<br>------- ------,240009.90000000037,240008.80000000075,239480.796,239483.30000000075,239497.382,240014.114,,32,of
screen,html.Screen,2_1_1_1_33,2022-02-17T15:02:17.992Z,,,,,,,,,,,,,,,,,54,,,,,,,,,,,,,,506.9860000014887,,response,,,,100,,,,,,,Space,keypress(Space),,,,,,,,-- --- ---- --- ------ ----- ------- ---- -- --- ------- --<br>------- ---------- ------ -- ----- -- ----- -- ---- ------<br>--- ----- --- --- ------ -------- ----- --- ------ ----- --<br>these ----- ---------- --- --- ------ ------ ---- -- ------<br>------- --- ------ ----- --- ---- ------- -- ---- --- --<br>------- ------,240522.40000000037,240521.1000000015,239997.416,240010.1000000015,240014.114,240530.821,,33,these
screen,html.Screen,2_1_1_1_34,2022-02-17T15:02:18.647Z,,,,,,,,,,,,,,,,,54,,,,,,,,,,,,,,645.6790000000037,,response,,,,100,,,,,,,Space,keypress(Space),,,,,,,,-- --- ---- --- ------ ----- ------- ---- -- --- ------- --<br>------- ---------- ------ -- ----- -- ----- -- ---- ------<br>--- ----- --- --- ------ -------- ----- --- ------ ----- --<br>----- bonds ---------- --- --- ------ ------ ---- -- ------<br>------- --- ------ ----- --- ---- ------- -- ---- --- --<br>------- ------,241177.30000000075,241176.5,240514.13,240522.6000000015,240530.821,241180.775,,34,bonds
screen,html.Screen,2_1_1_1_35,2022-02-17T15:02:19.576Z,,,,,,,,,,,,,,,,,54,,,,,,,,,,,,,,924.1250000003783,,response,,,,100,,,,,,,Space,keypress(Space),,,,,,,,"-- --- ---- --- ------ ----- ------- ---- -- --- ------- --<br>------- ---------- ------ -- ----- -- ----- -- ---- ------<br>--- ----- --- --- ------ -------- ----- --- ------ ----- --<br>----- ----- plummeted, --- --- ------ ------ ---- -- ------<br>------- --- ------ ----- --- ---- ------- -- ---- --- --<br>------- ------",242106.20000000112,242104.90000000037,241164.12,241177.5,241180.775,242114.148,,35,"plummeted,"
screen,html.Screen,2_1_1_1_36,2022-02-17T15:02:20.351Z,,,,,,,,,,,,,,,,,54,,,,,,,,,,,,,,766.1520000007586,,response,,,,100,,,,,,,Space,keypress(Space),,,,,,,,-- --- ---- --- ------ ----- ------- ---- -- --- ------- --<br>------- ---------- ------ -- ----- -- ----- -- ---- ------<br>--- ----- --- --- ------ -------- ----- --- ------ ----- --<br>----- ----- ---------- and --- ------ ------ ---- -- ------<br>------- --- ------ ----- --- ---- ------- -- ---- --- --<br>------- ------,242880.80000000075,242880.30000000075,242097.681,242106.70000000112,242114.148,242897.557,,36,and
screen,html.Screen,2_1_1_1_37,2022-02-17T15:02:20.903Z,,,,,,,,,,,,,,,,,54,,,,,,,,,,,,,,534.7430000007444,,response,,,,100,,,,,,,Space,keypress(Space),,,,,,,,-- --- ---- --- ------ ----- ------- ---- -- --- ------- --<br>------- ---------- ------ -- ----- -- ----- -- ---- ------<br>--- ----- --- --- ------ -------- ----- --- ------ ----- --<br>----- ----- ---------- --- the ------ ------ ---- -- ------<br>------- --- ------ ----- --- ---- ------- -- ---- --- --<br>------- ------,243432.70000000112,243432.30000000075,242880.776,242880.90000000037,242897.557,243447.608,,37,the
screen,html.Screen,2_1_1_1_38,2022-02-17T15:02:21.552Z,,,,,,,,,,,,,,,,,54,,,,,,,,,,,,,,633.1920000007376,,response,,,,100,,,,,,,Space,keypress(Space),,,,,,,,-- --- ---- --- ------ ----- ------- ---- -- --- ------- --<br>------- ---------- ------ -- ----- -- ----- -- ---- ------<br>--- ----- --- --- ------ -------- ----- --- ------ ----- --<br>----- ----- ---------- --- --- market ------ ---- -- ------<br>------- --- ------ ----- --- ---- ------- -- ---- --- --<br>------- ------,244081.30000000075,244080.80000000075,243431.023,243432.80000000075,243447.608,244097.602,,38,market
screen,html.Screen,2_1_1_1_39,2022-02-17T15:02:22.151Z,,,,,,,,,,,,,,,,,54,,,,,,,,,,,,,,582.5980000011041,,response,,,,100,,,,,,,Space,keypress(Space),,,,,,,,-- --- ---- --- ------ ----- ------- ---- -- --- ------- --<br>------- ---------- ------ -- ----- -- ----- -- ---- ------<br>--- ----- --- --- ------ -------- ----- --- ------ ----- --<br>----- ----- ---------- --- --- ------ became ---- -- ------<br>------- --- ------ ----- --- ---- ------- -- ---- --- --<br>------- ------,244680.80000000075,244680.20000000112,244080.923,244081.5,244097.602,244697.583,,39,became
screen,html.Screen,2_1_1_1_40,2022-02-17T15:02:22.761Z,,,,,,,,,,,,,,,,,54,,,,,,,,,,,,,,591.9169999999867,,response,,,,100,,,,,,,Space,keypress(Space),,,,,,,,-- --- ---- --- ------ ----- ------- ---- -- --- ------- --<br>------- ---------- ------ -- ----- -- ----- -- ---- ------<br>--- ----- --- --- ------ -------- ----- --- ------ ----- --<br>----- ----- ---------- --- --- ------ ------ wary -- ------<br>------- --- ------ ----- --- ---- ------- -- ---- --- --<br>------- ------,245290.70000000112,245289.5,244680.847,244680.90000000037,244697.583,245297.424,,40,wary
screen,html.Screen,2_1_1_1_41,2022-02-17T15:02:23.256Z,,,,,,,,,,,,,,,,,54,,,,,,,,,,,,,,487.67600000149105,,response,,,,100,,,,,,,Space,keypress(Space),,,,,,,,-- --- ---- --- ------ ----- ------- ---- -- --- ------- --<br>------- ---------- ------ -- ----- -- ----- -- ---- ------<br>--- ----- --- --- ------ -------- ----- --- ------ ----- --<br>----- ----- ---------- --- --- ------ ------ ---- of ------<br>------- --- ------ ----- --- ---- ------- -- ---- --- --<br>------- ------,245785.80000000075,245785.1000000015,245280.692,245291,245297.424,245797.64,,41,of
screen,html.Screen,2_1_1_1_42,2022-02-17T15:02:23.848Z,,,,,,,,,,,,,,,,,54,,,,,,,,,,,,,,579.359999999986,,response,,,,100,,,,,,,Space,keypress(Space),,,,,,,,-- --- ---- --- ------ ----- ------- ---- -- --- ------- --<br>------- ---------- ------ -- ----- -- ----- -- ---- ------<br>--- ----- --- --- ------ -------- ----- --- ------ ----- --<br>----- ----- ---------- --- --- ------ ------ ---- -- French<br>------- --- ------ ----- --- ---- ------- -- ---- --- --<br>------- ------,246377.80000000075,246377,245780.832,245786.1000000015,245797.64,246380.782,,42,French
screen,html.Screen,2_1_1_1_43,2022-02-17T15:02:24.896Z,,,,,,,,,,,,,,,,,54,,,,,,,,,,,,,,1044.3180000014836,,response,,,,100,,,,,,,Space,keypress(Space),,,,,,,,-- --- ---- --- ------ ----- ------- ---- -- --- ------- --<br>------- ---------- ------ -- ----- -- ----- -- ---- ------<br>--- ----- --- --- ------ -------- ----- --- ------ ----- --<br>----- ----- ---------- --- --- ------ ------ ---- -- ------<br>credit. --- ------ ----- --- ---- ------- -- ---- --- --<br>------- ------,247425.90000000037,247425.1000000015,246364.325,246378,246380.782,247430.717,,43,credit.
screen,html.Screen,2_1_1_1_44,2022-02-17T15:02:25.424Z,,,,,,,,,,,,,,,,,54,,,,,,,,,,,,,,522.4830000011134,,response,,,,100,,,,,,,Space,keypress(Space),,,,,,,,-- --- ---- --- ------ ----- ------- ---- -- --- ------- --<br>------- ---------- ------ -- ----- -- ----- -- ---- ------<br>--- ----- --- --- ------ -------- ----- --- ------ ----- --<br>----- ----- ---------- --- --- ------ ------ ---- -- ------<br>------- The ------ ----- --- ---- ------- -- ---- --- --<br>------- ------,247953.90000000037,247953.20000000112,247414.329,247426,247430.717,247964.073,,44,The
screen,html.Screen,2_1_1_1_45,2022-02-17T15:02:26.073Z,,,,,,,,,,,,,,,,,54,,,,,,,,,,,,,,637.6270000011136,,response,,,,100,,,,,,,Space,keypress(Space),,,,,,,,-- --- ---- --- ------ ----- ------- ---- -- --- ------- --<br>------- ---------- ------ -- ----- -- ----- -- ---- ------<br>--- ----- --- --- ------ -------- ----- --- ------ ----- --<br>----- ----- ---------- --- --- ------ ------ ---- -- ------<br>------- --- French ----- --- ---- ------- -- ---- --- --<br>------- ------,248602.80000000075,248601.70000000112,247947.417,247953.90000000037,247964.073,248614.153,,45,French
screen,html.Screen,2_1_1_1_46,2022-02-17T15:02:26.794Z,,,,,,,,,,,,,,,,,54,,,,,,,,,,,,,,708.0470000011264,,response,,,,100,,,,,,,Space,keypress(Space),,,,,,,,-- --- ---- --- ------ ----- ------- ---- -- --- ------- --<br>------- ---------- ------ -- ----- -- ----- -- ---- ------<br>--- ----- --- --- ------ -------- ----- --- ------ ----- --<br>----- ----- ---------- --- --- ------ ------ ---- -- ------<br>------- --- ------ state --- ---- ------- -- ---- --- --<br>------- ------,249323.30000000075,249322.20000000112,248597.546,248603.1000000015,248614.153,249330.782,,46,state
screen,html.Screen,2_1_1_1_47,2022-02-17T15:02:27.283Z,,,,,,,,,,,,,,,,,54,,,,,,,,,,,,,,480.2179999999935,,response,,,,100,,,,,,,Space,keypress(Space),,,,,,,,-- --- ---- --- ------ ----- ------- ---- -- --- ------- --<br>------- ---------- ------ -- ----- -- ----- -- ---- ------<br>--- ----- --- --- ------ -------- ----- --- ------ ----- --<br>----- ----- ---------- --- --- ------ ------ ---- -- ------<br>------- --- ------ ----- was ---- ------- -- ---- --- --<br>------- ------,249812.20000000112,249811,249314.073,249323.6000000015,249330.782,249846.462,,47,was
screen,html.Screen,2_1_1_1_48,2022-02-17T15:02:27.770Z,,,,,,,,,,,,,,,,,54,,,,,,,,,,,,,,451.73800000111805,,response,,,,100,,,,,,,Space,keypress(Space),,,,,,,,-- --- ---- --- ------ ----- ------- ---- -- --- ------- --<br>------- ---------- ------ -- ----- -- ----- -- ---- ------<br>--- ----- --- --- ------ -------- ----- --- ------ ----- --<br>----- ----- ---------- --- --- ------ ------ ---- -- ------<br>------- --- ------ ----- --- left ------- -- ---- --- --<br>------- ------,250299.30000000075,250298.20000000112,249797.454,249812.40000000037,249846.462,250314.168,,48,left
screen,html.Screen,2_1_1_1_49,2022-02-17T15:02:28.323Z,,,,,,,,,,,,,,,,,54,,,,,,,,,,,,,,536.7320000003674,,response,,,,100,,,,,,,Space,keypress(Space),,,,,,,,-- --- ---- --- ------ ----- ------- ---- -- --- ------- --<br>------- ---------- ------ -- ----- -- ----- -- ---- ------<br>--- ----- --- --- ------ -------- ----- --- ------ ----- --<br>----- ----- ---------- --- --- ------ ------ ---- -- ------<br>------- --- ------ ----- --- ---- without -- ---- --- --<br>------- ------,250852.1000000015,250850.90000000037,250297.511,250299.6000000015,250314.168,250864.163,,49,without
screen,html.Screen,2_1_1_1_50,2022-02-17T15:02:28.953Z,,,,,,,,,,,,,,,,,54,,,,,,,,,,,,,,618.0370000011171,,response,,,,100,,,,,,,Space,keypress(Space),,,,,,,,-- --- ---- --- ------ ----- ------- ---- -- --- ------- --<br>------- ---------- ------ -- ----- -- ----- -- ---- ------<br>--- ----- --- --- ------ -------- ----- --- ------ ----- --<br>----- ----- ---------- --- --- ------ ------ ---- -- ------<br>------- --- ------ ----- --- ---- ------- an ---- --- --<br>------- ------,251483,251482.20000000112,250847.467,250852.40000000037,250864.163,251497.408,,50,an
screen,html.Screen,2_1_1_1_51,2022-02-17T15:02:29.570Z,,,,,,,,,,,,,,,,,54,,,,,,,,,,,,,,600.7920000011218,,response,,,,100,,,,,,,Space,keypress(Space),,,,,,,,-- --- ---- --- ------ ----- ------- ---- -- --- ------- --<br>------- ---------- ------ -- ----- -- ----- -- ---- ------<br>--- ----- --- --- ------ -------- ----- --- ------ ----- --<br>----- ----- ---------- --- --- ------ ------ ---- -- ------<br>------- --- ------ ----- --- ---- ------- -- easy --- --<br>------- ------,252099.6000000015,252098.20000000112,251480.932,251483.1000000015,251497.408,252114.198,,51,easy
screen,html.Screen,2_1_1_1_52,2022-02-17T15:02:30.089Z,,,,,,,,,,,,,,,,,54,,,,,,,,,,,,,,503.70200000036857,,response,,,,100,,,,,,,Space,keypress(Space),,,,,,,,-- --- ---- --- ------ ----- ------- ---- -- --- ------- --<br>------- ---------- ------ -- ----- -- ----- -- ---- ------<br>--- ----- --- --- ------ -------- ----- --- ------ ----- --<br>----- ----- ---------- --- --- ------ ------ ---- -- ------<br>------- --- ------ ----- --- ---- ------- -- ---- way --<br>------- ------,252618.80000000075,252617.90000000037,252097.666,252099.80000000075,252114.198,252630.773,,52,way
screen,html.Screen,2_1_1_1_53,2022-02-17T15:02:30.619Z,,,,,,,,,,,,,,,,,54,,,,,,,,,,,,,,516.4270000011311,,response,,,,100,,,,,,,Space,keypress(Space),,,,,,,,-- --- ---- --- ------ ----- ------- ---- -- --- ------- --<br>------- ---------- ------ -- ----- -- ----- -- ---- ------<br>--- ----- --- --- ------ -------- ----- --- ------ ----- --<br>----- ----- ---------- --- --- ------ ------ ---- -- ------<br>------- --- ------ ----- --- ---- ------- -- ---- --- of<br>------- ------,253148.5,253147.20000000112,252614.242,252618.90000000037,252630.773,253164.137,,53,of
screen,html.Screen,2_1_1_1_54,2022-02-17T15:02:31.219Z,,,,,,,,,,,,,,,,,54,,,,,,,,,,,,,,583.2630000003846,,response,,,,100,,,,,,,Space,keypress(Space),,,,,,,,-- --- ---- --- ------ ----- ------- ---- -- --- ------- --<br>------- ---------- ------ -- ----- -- ----- -- ---- ------<br>--- ----- --- --- ------ -------- ----- --- ------ ----- --<br>----- ----- ---------- --- --- ------ ------ ---- -- ------<br>------- --- ------ ----- --- ---- ------- -- ---- --- --<br>raising ------,253748.80000000075,253747.40000000037,253147.399,253148.90000000037,253164.137,253764.094,,54,raising
screen,html.Screen,2_1_1_1_55,2022-02-17T15:02:32.057Z,,,,,,,,,,,,,,,,,54,,,,,,,,,,,,,,822.2060000007332,,response,,,,100,,,,,,,Space,keypress(Space),,,,,,,,-- --- ---- --- ------ ----- ------- ---- -- --- ------- --<br>------- ---------- ------ -- ----- -- ----- -- ---- ------<br>--- ----- --- --- ------ -------- ----- --- ------ ----- --<br>----- ----- ---------- --- --- ------ ------ ---- -- ------<br>------- --- ------ ----- --- ---- ------- -- ---- --- --<br>------- money.,254587,254586.30000000075,253747.611,253749.1000000015,253764.094,254597.376,,55,money.
Item 100,flow.Loop,2_1_1_1,2022-02-17T15:02:32.058Z,,,,,,,,,,,,,,,,,,,,,,,,,,,,,,,36838.849000000744,,completion,,,,,E,,,,,,,,,,,silence,,,,,254587.1000000015,254586.30000000075,217730.881,217732.30000000075,217747.451,254597.376,,,
Question 1,html.Screen,2_1_1_2,2022-02-17T15:02:34.790Z,,,,,,,,,,,,,,,,,,,,,,,,,,,,true,TRUE,,2720.9240000007558,,response,,,,100,E,,,,,,TRUE,click #choice-1,,,,silence,,,,,257319.1000000015,257318.30000000075,254580.875,254587.30000000075,254597.376,257330.979,,,
Question 2,html.Screen,2_1_1_3,2022-02-17T15:02:37.238Z,,,,,,,,,,,,,,,,,,,,,,,,,,,,true,FALSE,,2435.621000001498,,response,,,,100,E,,,,,,FALSE,click #choice-2,,,,silence,,,,,259767.20000000112,259766.6000000015,257314.412,257319.20000000112,257330.979,259780.725,,,
Item 100,flow.Sequence,2_1_1,2022-02-17T15:02:37.238Z,,,,,,,,,,,,,,,,,,,,,,,,,,,,,,,52019.18500000148,,completion,,,,,,,,,,,,,,,,,,,,,259767.5,259766.6000000015,207730.828,207744.70000000112,207747.415,259780.725,,,
End of Practice,html.Page,2_1_2,2022-02-17T15:02:42.656Z,,,,,,,,,,,,,,,,,,,,,,,,,,,,,,,5403.575000000739,,form submission,,,,,,,,,,,,,,,,,,,,,265185.2000000011,265184.30000000075,259764.247,259767.6000000015,259780.725,265197.43,,,
Practice,flow.Sequence,2_1,2022-02-17T15:02:42.656Z,,,,,,,,,,,,,,,,,,,,,,,,,,,,,,,117420.18100000074,,completion,,,,,,,,,,,,,,,,,,,,,265185.30000000075,265184.30000000075,147747.651,147753.5,147764.119,265197.43,,,
Trap_instruction,html.Page,2_2_0,2022-02-17T15:02:47.856Z,,,,,,,,,,,,,,,,,,,,,,,,,,,,,,,5187.170000001497,,form submission,,,,,,,,,,,,,,,,,,,,,270385.2000000011,270384.6000000015,265180.929,265185.4000000004,265197.43,270397.328,,,
trap_trial,html.Screen,2_2_1,2022-02-17T15:02:51.944Z,,,,,,,,,,,,,,,,,,,,,,,,,,,,true,1,,4075.1720000000205,,response,,,,,,,,,,,1,click #choice-1,,,,,,,,,274473.2000000011,274472.5,270381.033,270385.2000000011,270397.328,274480.695,,,
end of trap trial,html.Page,2_2_2,2022-02-17T15:02:54.209Z,,,,,,,,,,,,,,,,,,,,,,,,,,,,,,,2257.405000001483,,form submission,,,,,,,,,,,,,,,,,,,,,276738.7000000011,276738.1000000015,274464.175,274473.30000000075,274480.695,276747.386,,,
Trap 1,flow.Sequence,2_2,2022-02-17T15:02:54.209Z,,,,,,,,,,,,,,,,,,,,,,,,,,,,,,,11540.670000001497,,completion,,,,,,,,,,,,,,,,,,,,,276738.9000000004,276738.1000000015,265180.929,265185.4000000004,265197.43,276747.386,,,
Standby,html.Page,2_3_0,2022-02-17T15:03:02.202Z,,,,,,,,,,,,,,,,,,,,,,,,,,,,,,,7999.934000000008,,timeout,,,,,,,,,,,,,,,,,,,,,284731.1000000015,284730.666,276730.805,276739,276747.386,284747.32,,,
Holding screen,html.Screen,2_3_1_0_0,2022-02-17T15:03:09.202Z,,,,,,,,,,,,,,,,,,,,,,,,,,,,,,,7000.381999999983,,timeout,,,,,,,,,,,,,,,,,,,,,291731.5,291730.919,284730.666,284731.2000000011,284747.32,291747.702,,,
screen,html.Screen,2_3_1_0_1_0,2022-02-17T15:03:09.929Z,,,,,,,,,,,,,,,,,11,,,,,,,,,,,,,,709.5980000007548,,response,,,,4,E,,,,,,Space,keypress(Space),,,,lyrical,,,,Known -- ---- --- -- --- -------- ------------ ---------- --<br>- ------- ------ --------- -- ------------ -- --- ---- -----<br>------ ---- ---- ------ ------ ------- --- ----- ---------<br>---- --- -------- -------- --- --- -- ------- --- --- -----<br>-- --- ------ ------- --- --- -------- ---- --------- --<br>---------- -- -------- ----------------,292458.6000000015,292457.30000000075,291730.919,291731.7000000011,291747.702,292464.086,,0,Known
screen,html.Screen,2_3_1_0_1_1,2022-02-17T15:03:10.470Z,,,,,,,,,,,,,,,,,11,,,,,,,,,,,,,,535.0140000014799,,response,,,,4,E,,,,,,Space,keypress(Space),,,,lyrical,,,,----- as ---- --- -- --- -------- ------------ ---------- --<br>- ------- ------ --------- -- ------------ -- --- ---- -----<br>------ ---- ---- ------ ------ ------- --- ----- ---------<br>---- --- -------- -------- --- --- -- ------- --- --- -----<br>-- --- ------ ------- --- --- -------- ---- --------- --<br>---------- -- -------- ----------------,292999.7000000011,292999.1000000015,292447.555,292458.9000000004,292464.086,293014.025,,1,as
screen,html.Screen,2_3_1_0_1_2,2022-02-17T15:03:11.022Z,,,,,,,,,,,,,,,,,11,,,,,,,,,,,,,,536.9749999999767,,response,,,,4,E,,,,,,Space,keypress(Space),,,,lyrical,,,,----- -- Rapa --- -- --- -------- ------------ ---------- --<br>- ------- ------ --------- -- ------------ -- --- ---- -----<br>------ ---- ---- ------ ------ ------- --- ----- ---------<br>---- --- -------- -------- --- --- -- ------- --- --- -----<br>-- --- ------ ------- --- --- -------- ---- --------- --<br>---------- -- -------- ----------------,293551.5,293551,292997.458,292999.80000000075,293014.025,293564.01,,2,Rapa
screen,html.Screen,2_3_1_0_1_3,2022-02-17T15:03:11.663Z,,,,,,,,,,,,,,,,,11,,,,,,,,,,,,,,627.8900000003632,,response,,,,4,E,,,,,,Space,keypress(Space),,,,lyrical,,,,----- -- ---- Nui -- --- -------- ------------ ---------- --<br>- ------- ------ --------- -- ------------ -- --- ---- -----<br>------ ---- ---- ------ ------ ------- --- ----- ---------<br>---- --- -------- -------- --- --- -- ------- --- --- -----<br>-- --- ------ ------- --- --- -------- ---- --------- --<br>---------- -- -------- ----------------,294192.80000000075,294191.9000000004,293547.345,293551.6000000015,293564.01,294214.134,,3,Nui
screen,html.Screen,2_3_1_0_1_4,2022-02-17T15:03:12.352Z,,,,,,,,,,,,,,,,,11,,,,,,,,,,,,,,666.0660000010976,,response,,,,4,E,,,,,,Space,keypress(Space),,,,lyrical,,,,----- -- ---- --- to --- -------- ------------ ---------- --<br>- ------- ------ --------- -- ------------ -- --- ---- -----<br>------ ---- ---- ------ ------ ------- --- ----- ---------<br>---- --- -------- -------- --- --- -- ------- --- --- -----<br>-- --- ------ ------- --- --- -------- ---- --------- --<br>---------- -- -------- ----------------,294881.2000000011,294880.2000000011,294180.735,294193,294214.134,294897.622,,4,to
screen,html.Screen,2_3_1_0_1_5,2022-02-17T15:03:12.998Z,,,,,,,,,,,,,,,,,11,,,,,,,,,,,,,,629.6780000007711,,response,,,,4,E,,,,,,Space,keypress(Space),,,,lyrical,,,,----- -- ---- --- -- the -------- ------------ ---------- --<br>- ------- ------ --------- -- ------------ -- --- ---- -----<br>------ ---- ---- ------ ------ ------- --- ----- ---------<br>---- --- -------- -------- --- --- -- ------- --- --- -----<br>-- --- ------ ------- --- --- -------- ---- --------- --<br>---------- -- -------- ----------------,295527.7000000011,295527.30000000075,294880.677,294881.4000000004,294897.622,295530.71,,5,the
screen,html.Screen,2_3_1_0_1_6,2022-02-17T15:03:13.672Z,,,,,,,,,,,,,,,,,11,,,,,,,,,,,,,,669.9900000010966,,response,,,,4,E,,,,,,Space,keypress(Space),,,,lyrical,,,,----- -- ---- --- -- --- island's ------------ ---------- --<br>- ------- ------ --------- -- ------------ -- --- ---- -----<br>------ ---- ---- ------ ------ ------- --- ----- ---------<br>---- --- -------- -------- --- --- -- ------- --- --- -----<br>-- --- ------ ------- --- --- -------- ---- --------- --<br>---------- -- -------- ----------------,296201.9000000004,296200.7000000011,295514.238,295527.80000000075,295530.71,296214.074,,6,island's
screen,html.Screen,2_3_1_0_1_7,2022-02-17T15:03:14.496Z,,,,,,,,,,,,,,,,,11,,,,,,,,,,,,,,810.7260000007227,,response,,,,4,E,,,,,,Space,keypress(Space),,,,lyrical,,,,"----- -- ---- --- -- --- -------- inhabitants, ---------- --<br>- ------- ------ --------- -- ------------ -- --- ---- -----<br>------ ---- ---- ------ ------ ------- --- ----- ---------<br>---- --- -------- -------- --- --- -- ------- --- --- -----<br>-- --- ------ ------- --- --- -------- ---- --------- --<br>---------- -- -------- ----------------",297025.9000000004,297024.80000000075,296197.342,296202.30000000075,296214.074,297030.794,,7,"inhabitants,"
screen,html.Screen,2_3_1_0_1_8,2022-02-17T15:03:15.712Z,,,,,,,,,,,,,,,,,11,,,,,,,,,,,,,,1210.1060000003781,,response,,,,4,E,,,,,,Space,keypress(Space),,,,lyrical,,,,----- -- ---- --- -- --- -------- ------------ Rongorongo --<br>- ------- ------ --------- -- ------------ -- --- ---- -----<br>------ ---- ---- ------ ------ ------- --- ----- ---------<br>---- --- -------- -------- --- --- -- ------- --- --- -----<br>-- --- ------ ------- --- --- -------- ---- --------- --<br>---------- -- -------- ----------------,298242,298240.9000000004,297014.024,297026.2000000011,297030.794,298247.444,,8,Rongorongo
screen,html.Screen,2_3_1_0_1_9,2022-02-17T15:03:16.369Z,,,,,,,,,,,,,,,,,11,,,,,,,,,,,,,,649.6560000014724,,response,,,,4,E,,,,,,Space,keypress(Space),,,,lyrical,,,,----- -- ---- --- -- --- -------- ------------ ---------- is<br>- ------- ------ --------- -- ------------ -- --- ---- -----<br>------ ---- ---- ------ ------ ------- --- ----- ---------<br>---- --- -------- -------- --- --- -- ------- --- --- -----<br>-- --- ------ ------- --- --- -------- ---- --------- --<br>---------- -- -------- ----------------,298898.30000000075,298897.1000000015,298230.883,298242.2000000011,298247.444,298914.173,,9,is
screen,html.Screen,2_3_1_0_1_10,2022-02-17T15:03:16.953Z,,,,,,,,,,,,,,,,,11,,,,,,,,,,,,,,566.9270000014803,,response,,,,4,E,,,,,,Space,keypress(Space),,,,lyrical,,,,----- -- ---- --- -- --- -------- ------------ ---------- --<br>a ------- ------ --------- -- ------------ -- --- ---- -----<br>------ ---- ---- ------ ------ ------- --- ----- ---------<br>---- --- -------- -------- --- --- -- ------- --- --- -----<br>-- --- ------ ------- --- --- -------- ---- --------- --<br>---------- -- -------- ----------------,299482.30000000075,299481.1000000015,298897.45,298898.5,298914.173,299497.498,,10,a
screen,html.Screen,2_3_1_0_1_11,2022-02-17T15:03:17.745Z,,,,,,,,,,,,,,,,,11,,,,,,,,,,,,,,775.4020000003511,,response,,,,4,E,,,,,,Space,keypress(Space),,,,lyrical,,,,----- -- ---- --- -- --- -------- ------------ ---------- --<br>- writing ------ --------- -- ------------ -- --- ---- -----<br>------ ---- ---- ------ ------ ------- --- ----- ---------<br>---- --- -------- -------- --- --- -- ------- --- --- -----<br>-- --- ------ ------- --- --- -------- ---- --------- --<br>---------- -- -------- ----------------,300274.2000000011,300272.9000000004,299480.972,299484.80000000075,299497.498,300280.81,,11,writing
screen,html.Screen,2_3_1_0_1_12,2022-02-17T15:03:18.408Z,,,,,,,,,,,,,,,,,11,,,,,,,,,,,,,,655.9900000007474,,response,,,,4,E,,,,,,Space,keypress(Space),,,,lyrical,,,,----- -- ---- --- -- --- -------- ------------ ---------- --<br>- ------- system --------- -- ------------ -- --- ---- -----<br>------ ---- ---- ------ ------ ------- --- ----- ---------<br>---- --- -------- -------- --- --- -- ------- --- --- -----<br>-- --- ------ ------- --- --- -------- ---- --------- --<br>---------- -- -------- ----------------,300937.6000000015,300936.80000000075,300264.136,300274.4000000004,300280.81,300947.608,,12,system
screen,html.Screen,2_3_1_0_1_13,2022-02-17T15:03:19.193Z,,,,,,,,,,,,,,,,,11,,,,,,,,,,,,,,773.7920000003651,,response,,,,4,E,,,,,,Space,keypress(Space),,,,lyrical,,,,----- -- ---- --- -- --- -------- ------------ ---------- --<br>- ------- ------ comprised -- ------------ -- --- ---- -----<br>------ ---- ---- ------ ------ ------- --- ----- ---------<br>---- --- -------- -------- --- --- -- ------- --- --- -----<br>-- --- ------ ------- --- --- -------- ---- --------- --<br>---------- -- -------- ----------------,301722.6000000015,301721.4000000004,300930.738,300937.80000000075,300947.608,301730.878,,13,comprised
screen,html.Screen,2_3_1_0_1_14,2022-02-17T15:03:19.769Z,,,,,,,,,,,,,,,,,11,,,,,,,,,,,,,,566.5220000003465,,response,,,,4,E,,,,,,Space,keypress(Space),,,,lyrical,,,,----- -- ---- --- -- --- -------- ------------ ---------- --<br>- ------- ------ --------- of ------------ -- --- ---- -----<br>------ ---- ---- ------ ------ ------- --- ----- ---------<br>---- --- -------- -------- --- --- -- ------- --- --- -----<br>-- --- ------ ------- --- --- -------- ---- --------- --<br>---------- -- -------- ----------------,302298.5,302297.4000000004,301714.26,301722.9000000004,301730.878,302314.249,,14,of
screen,html.Screen,2_3_1_0_1_15,2022-02-17T15:03:20.979Z,,,,,,,,,,,,,,,,,11,,,,,,,,,,,,,,1192.5510000007343,,response,,,,4,E,,,,,,Space,keypress(Space),,,,lyrical,,,,----- -- ---- --- -- --- -------- ------------ ---------- --<br>- ------- ------ --------- -- pictographs. -- --- ---- -----<br>------ ---- ---- ------ ------ ------- --- ----- ---------<br>---- --- -------- -------- --- --- -- ------- --- --- -----<br>-- --- ------ ------- --- --- -------- ---- --------- --<br>---------- -- -------- ----------------,303508.1000000015,303506.80000000075,302297.455,302298.80000000075,302314.249,303514.103,,15,pictographs.
screen,html.Screen,2_3_1_0_1_16,2022-02-17T15:03:21.473Z,,,,,,,,,,,,,,,,,11,,,,,,,,,,,,,,487.5970000011148,,response,,,,4,E,,,,,,Space,keypress(Space),,,,lyrical,,,,----- -- ---- --- -- --- -------- ------------ ---------- --<br>- ------- ------ --------- -- ------------ It --- ---- -----<br>------ ---- ---- ------ ------ ------- --- ----- ---------<br>---- --- -------- -------- --- --- -- ------- --- --- -----<br>-- --- ------ ------- --- --- -------- ---- --------- --<br>---------- -- -------- ----------------,304002.80000000075,304001.7000000011,303497.423,303508.30000000075,303514.103,304014.305,,16,It
screen,html.Screen,2_3_1_0_1_17,2022-02-17T15:03:22.025Z,,,,,,,,,,,,,,,,,11,,,,,,,,,,,,,,539.2950000014971,,response,,,,4,E,,,,,,Space,keypress(Space),,,,lyrical,,,,----- -- ---- --- -- --- -------- ------------ ---------- --<br>- ------- ------ --------- -- ------------ -- has ---- -----<br>------ ---- ---- ------ ------ ------- --- ----- ---------<br>---- --- -------- -------- --- --- -- ------- --- --- -----<br>-- --- ------ ------- --- --- -------- ---- --------- --<br>---------- -- -------- ----------------,304554.80000000075,304553.6000000015,303997.437,304003.1000000015,304014.305,304564.192,,17,has
screen,html.Screen,2_3_1_0_1_18,2022-02-17T15:03:22.738Z,,,,,,,,,,,,,,,,,11,,,,,,,,,,,,,,701.6080000007642,,response,,,,4,E,,,,,,Space,keypress(Space),,,,lyrical,,,,----- -- ---- --- -- --- -------- ------------ ---------- --<br>- ------- ------ --------- -- ------------ -- --- been -----<br>------ ---- ---- ------ ------ ------- --- ----- ---------<br>---- --- -------- -------- --- --- -- ------- --- --- -----<br>-- --- ------ ------- --- --- -------- ---- --------- --<br>---------- -- -------- ----------------,305267,305265.80000000075,304547.598,304555,304564.192,305280.85,,18,been
screen,html.Screen,2_3_1_0_1_19,2022-02-17T15:03:23.448Z,,,,,,,,,,,,,,,,,11,,,,,,,,,,,,,,696.4500000007683,,response,,,,4,E,,,,,,Space,keypress(Space),,,,lyrical,,,,----- -- ---- --- -- --- -------- ------------ ---------- --<br>- ------- ------ --------- -- ------------ -- --- ---- found<br>------ ---- ---- ------ ------ ------- --- ----- ---------<br>---- --- -------- -------- --- --- -- ------- --- --- -----<br>-- --- ------ ------- --- --- -------- ---- --------- --<br>---------- -- -------- ----------------,305977.7000000011,305977.30000000075,305264.116,305267.30000000075,305280.85,305980.706,,19,found
screen,html.Screen,2_3_1_0_1_20,2022-02-17T15:03:24.153Z,,,,,,,,,,,,,,,,,11,,,,,,,,,,,,,,700.6940000003669,,response,,,,4,E,,,,,,Space,keypress(Space),,,,lyrical,,,,----- -- ---- --- -- --- -------- ------------ ---------- --<br>- ------- ------ --------- -- ------------ -- --- ---- -----<br>carved ---- ---- ------ ------ ------- --- ----- ---------<br>---- --- -------- -------- --- --- -- ------- --- --- -----<br>-- --- ------ ------- --- --- -------- ---- --------- --<br>---------- -- -------- ----------------,306682.2000000011,306681.4000000004,305964.119,305977.9000000004,305980.706,306697.641,,20,carved
screen,html.Screen,2_3_1_0_1_21,2022-02-17T15:03:24.770Z,,,,,,,,,,,,,,,,,11,,,,,,,,,,,,,,600.4590000014869,,response,,,,4,E,,,,,,Space,keypress(Space),,,,lyrical,,,,----- -- ---- --- -- --- -------- ------------ ---------- --<br>- ------- ------ --------- -- ------------ -- --- ---- -----<br>------ into ---- ------ ------ ------- --- ----- ---------<br>---- --- -------- -------- --- --- -- ------- --- --- -----<br>-- --- ------ ------- --- --- -------- ---- --------- --<br>---------- -- -------- ----------------,307299.2000000011,307298.1000000015,306680.932,306682.4000000004,306697.641,307314.313,,21,into
screen,html.Screen,2_3_1_0_1_22,2022-02-17T15:03:25.449Z,,,,,,,,,,,,,,,,,11,,,,,,,,,,,,,,663.3870000010938,,response,,,,4,E,,,,,,Space,keypress(Space),,,,lyrical,,,,----- -- ---- --- -- --- -------- ------------ ---------- --<br>- ------- ------ --------- -- ------------ -- --- ---- -----<br>------ ---- many ------ ------ ------- --- ----- ---------<br>---- --- -------- -------- --- --- -- ------- --- --- -----<br>-- --- ------ ------- --- --- -------- ---- --------- --<br>---------- -- -------- ----------------,307978.2000000011,307977.7000000011,307297.692,307299.5,307314.313,307997.717,,22,many
screen,html.Screen,2_3_1_0_1_23,2022-02-17T15:03:26.242Z,,,,,,,,,,,,,,,,,11,,,,,,,,,,,,,,772.5830000007409,,response,,,,4,E,,,,,,Space,keypress(Space),,,,lyrical,,,,----- -- ---- --- -- --- -------- ------------ ---------- --<br>- ------- ------ --------- -- ------------ -- --- ---- -----<br>------ ---- ---- oblong ------ ------- --- ----- ---------<br>---- --- -------- -------- --- --- -- ------- --- --- -----<br>-- --- ------ ------- --- --- -------- ---- --------- --<br>---------- -- -------- ----------------,308771.6000000015,308770.30000000075,307964.114,307978.30000000075,307997.717,308780.8,,23,oblong
screen,html.Screen,2_3_1_0_1_24,2022-02-17T15:03:26.938Z,,,,,,,,,,,,,,,,,11,,,,,,,,,,,,,,685.5000000007567,,response,,,,4,E,,,,,,Space,keypress(Space),,,,lyrical,,,,----- -- ---- --- -- --- -------- ------------ ---------- --<br>- ------- ------ --------- -- ------------ -- --- ---- -----<br>------ ---- ---- ------ wooden ------- --- ----- ---------<br>---- --- -------- -------- --- --- -- ------- --- --- -----<br>-- --- ------ ------- --- --- -------- ---- --------- --<br>---------- -- -------- ----------------,309467.1000000015,309466.30000000075,308764.322,308771.80000000075,308780.8,309480.702,,24,wooden
screen,html.Screen,2_3_1_0_1_25,2022-02-17T15:03:27.746Z,,,,,,,,,,,,,,,,,11,,,,,,,,,,,,,,793.5980000007548,,response,,,,4,E,,,,,,Space,keypress(Space),,,,lyrical,,,,----- -- ---- --- -- --- -------- ------------ ---------- --<br>- ------- ------ --------- -- ------------ -- --- ---- -----<br>------ ---- ---- ------ ------ tablets --- ----- ---------<br>---- --- -------- -------- --- --- -- ------- --- --- -----<br>-- --- ------ ------- --- --- -------- ---- --------- --<br>---------- -- -------- ----------------,310275.4000000004,310274.30000000075,309464.279,309467.2000000011,309480.702,310280.838,,25,tablets
screen,html.Screen,2_3_1_0_1_26,2022-02-17T15:03:28.403Z,,,,,,,,,,,,,,,,,11,,,,,,,,,,,,,,650.1620000000112,,response,,,,4,E,,,,,,Space,keypress(Space),,,,lyrical,,,,----- -- ---- --- -- --- -------- ------------ ---------- --<br>- ------- ------ --------- -- ------------ -- --- ---- -----<br>------ ---- ---- ------ ------ ------- and ----- ---------<br>---- --- -------- -------- --- --- -- ------- --- --- -----<br>-- --- ------ ------- --- --- -------- ---- --------- --<br>---------- -- -------- ----------------,310932.30000000075,310931,310264.193,310275.80000000075,310280.838,310947.495,,26,and
screen,html.Screen,2_3_1_0_1_27,2022-02-17T15:03:29.018Z,,,,,,,,,,,,,,,,,11,,,,,,,,,,,,,,598.9050000003772,,response,,,,4,E,,,,,,Space,keypress(Space),,,,lyrical,,,,----- -- ---- --- -- --- -------- ------------ ---------- --<br>- ------- ------ --------- -- ------------ -- --- ---- -----<br>------ ---- ---- ------ ------ ------- --- other ---------<br>---- --- -------- -------- --- --- -- ------- --- --- -----<br>-- --- ------ ------- --- --- -------- ---- --------- --<br>---------- -- -------- ----------------,311547.2000000011,311546.4000000004,310930.944,310932.6000000015,310947.495,311564.145,,27,other
screen,html.Screen,2_3_1_0_1_28,2022-02-17T15:03:29.859Z,,,,,,,,,,,,,,,,,11,,,,,,,,,,,,,,822.9550000014715,,response,,,,4,E,,,,,,Space,keypress(Space),,,,lyrical,,,,----- -- ---- --- -- --- -------- ------------ ---------- --<br>- ------- ------ --------- -- ------------ -- --- ---- -----<br>------ ---- ---- ------ ------ ------- --- ----- artifacts<br>---- --- -------- -------- --- --- -- ------- --- --- -----<br>-- --- ------ ------- --- --- -------- ---- --------- --<br>---------- -- -------- ----------------,312388.1000000015,312387.1000000015,311547.448,311547.4000000004,311564.145,312397.554,,28,artifacts
screen,html.Screen,2_3_1_0_1_29,2022-02-17T15:03:30.563Z,,,,,,,,,,,,,,,,,11,,,,,,,,,,,,,,693.5460000014864,,response,,,,4,E,,,,,,Space,keypress(Space),,,,lyrical,,,,----- -- ---- --- -- --- -------- ------------ ---------- --<br>- ------- ------ --------- -- ------------ -- --- ---- -----<br>------ ---- ---- ------ ------ ------- --- ----- ---------<br>from --- -------- -------- --- --- -- ------- --- --- -----<br>-- --- ------ ------- --- --- -------- ---- --------- --<br>---------- -- -------- ----------------,313092.30000000075,313091.1000000015,312380.993,312388.5,312397.554,313097.461,,29,from
screen,html.Screen,2_3_1_0_1_30,2022-02-17T15:03:31.259Z,,,,,,,,,,,,,,,,,11,,,,,,,,,,,,,,689.8390000007348,,response,,,,4,E,,,,,,Space,keypress(Space),,,,lyrical,,,,----- -- ---- --- -- --- -------- ------------ ---------- --<br>- ------- ------ --------- -- ------------ -- --- ---- -----<br>------ ---- ---- ------ ------ ------- --- ----- ---------<br>---- the -------- -------- --- --- -- ------- --- --- -----<br>-- --- ------ ------- --- --- -------- ---- --------- --<br>---------- -- -------- ----------------,313788.1000000015,313787.30000000075,313081.022,313092.6000000015,313097.461,313797.64,,30,the
screen,html.Screen,2_3_1_0_1_31,2022-02-17T15:03:32.162Z,,,,,,,,,,,,,,,,,11,,,,,,,,,,,,,,892.859999999986,,response,,,,4,E,,,,,,Space,keypress(Space),,,,lyrical,,,,----- -- ---- --- -- --- -------- ------------ ---------- --<br>- ------- ------ --------- -- ------------ -- --- ---- -----<br>------ ---- ---- ------ ------ ------- --- ----- ---------<br>---- --- island's -------- --- --- -- ------- --- --- -----<br>-- --- ------ ------- --- --- -------- ---- --------- --<br>---------- -- -------- ----------------,314691.1000000015,314690.5,313780.772,313788.30000000075,313797.64,314697.438,,31,island's
screen,html.Screen,2_3_1_0_1_32,2022-02-17T15:03:32.971Z,,,,,,,,,,,,,,,,,11,,,,,,,,,,,,,,802.0619999999763,,response,,,,4,E,,,,,,Space,keypress(Space),,,,lyrical,,,,----- -- ---- --- -- --- -------- ------------ ---------- --<br>- ------- ------ --------- -- ------------ -- --- ---- -----<br>------ ---- ---- ------ ------ ------- --- ----- ---------<br>---- --- -------- history. --- --- -- ------- --- --- -----<br>-- --- ------ ------- --- --- -------- ---- --------- --<br>---------- -- -------- ----------------,315500.6000000015,315499.5,314680.879,314691.4000000004,314697.438,315514.305,,32,history.
screen,html.Screen,2_3_1_0_1_33,2022-02-17T15:03:33.451Z,,,,,,,,,,,,,,,,,11,,,,,,,,,,,,,,464.8950000011246,,response,,,,4,E,,,,,,Space,keypress(Space),,,,lyrical,,,,----- -- ---- --- -- --- -------- ------------ ---------- --<br>- ------- ------ --------- -- ------------ -- --- ---- -----<br>------ ---- ---- ------ ------ ------- --- ----- ---------<br>---- --- -------- -------- The --- -- ------- --- --- -----<br>-- --- ------ ------- --- --- -------- ---- --------- --<br>---------- -- -------- ----------------,315980.30000000075,315979.2000000011,315497.444,315500.9000000004,315514.305,315997.412,,33,The
screen,html.Screen,2_3_1_0_1_34,2022-02-17T15:03:33.947Z,,,,,,,,,,,,,,,,,11,,,,,,,,,,,,,,477.7880000011064,,response,,,,4,E,,,,,,Space,keypress(Space),,,,lyrical,,,,----- -- ---- --- -- --- -------- ------------ ---------- --<br>- ------- ------ --------- -- ------------ -- --- ---- -----<br>------ ---- ---- ------ ------ ------- --- ----- ---------<br>---- --- -------- -------- --- art -- ------- --- --- -----<br>-- --- ------ ------- --- --- -------- ---- --------- --<br>---------- -- -------- ----------------,316476.30000000075,316475.2000000011,315980.741,315980.5,315997.412,316480.778,,34,art
screen,html.Screen,2_3_1_0_1_35,2022-02-17T15:03:34.379Z,,,,,,,,,,,,,,,,,11,,,,,,,,,,,,,,426.72200000000885,,response,,,,4,E,,,,,,Space,keypress(Space),,,,lyrical,,,,----- -- ---- --- -- --- -------- ------------ ---------- --<br>- ------- ------ --------- -- ------------ -- --- ---- -----<br>------ ---- ---- ------ ------ ------- --- ----- ---------<br>---- --- -------- -------- --- --- of ------- --- --- -----<br>-- --- ------ ------- --- --- -------- ---- --------- --<br>---------- -- -------- ----------------,316908.6000000015,316907.5,316464.079,316476.6000000015,316480.778,316914.13,,35,of
screen,html.Screen,2_3_1_0_1_36,2022-02-17T15:03:34.899Z,,,,,,,,,,,,,,,,,11,,,,,,,,,,,,,,513.3699999999953,,response,,,,4,E,,,,,,Space,keypress(Space),,,,lyrical,,,,----- -- ---- --- -- --- -------- ------------ ---------- --<br>- ------- ------ --------- -- ------------ -- --- ---- -----<br>------ ---- ---- ------ ------ ------- --- ----- ---------<br>---- --- -------- -------- --- --- -- writing --- --- -----<br>-- --- ------ ------- --- --- -------- ---- --------- --<br>---------- -- -------- ----------------,317428.6000000015,317427.5,316897.608,316908.9000000004,316914.13,317462.879,,36,writing
screen,html.Screen,2_3_1_0_1_37,2022-02-17T15:03:35.315Z,,,,,,,,,,,,,,,,,11,,,,,,,,,,,,,,380.62099999998463,,response,,,,4,E,,,,,,Space,keypress(Space),,,,lyrical,,,,----- -- ---- --- -- --- -------- ------------ ---------- --<br>- ------- ------ --------- -- ------------ -- --- ---- -----<br>------ ---- ---- ------ ------ ------- --- ----- ---------<br>---- --- -------- -------- --- --- -- ------- was --- -----<br>-- --- ------ ------- --- --- -------- ---- --------- --<br>---------- -- -------- ----------------,317844.30000000075,317843.5,317414.161,317428.9000000004,317462.879,317847.415,,37,was
screen,html.Screen,2_3_1_0_1_38,2022-02-17T15:03:35.737Z,,,,,,,,,,,,,,,,,11,,,,,,,,,,,,,,419.08500000002095,,response,,,,4,E,,,,,,Space,keypress(Space),,,,lyrical,,,,----- -- ---- --- -- --- -------- ------------ ---------- --<br>- ------- ------ --------- -- ------------ -- --- ---- -----<br>------ ---- ---- ------ ------ ------- --- ----- ---------<br>---- --- -------- -------- --- --- -- ------- --- not -----<br>-- --- ------ ------- --- --- -------- ---- --------- --<br>---------- -- -------- ----------------,318266.80000000075,318266.5,317830.933,317844.5,317847.415,318280.699,,38,not
screen,html.Screen,2_3_1_0_1_39,2022-02-17T15:03:36.298Z,,,,,,,,,,,,,,,,,11,,,,,,,,,,,,,,545.8009999999776,,response,,,,4,E,,,,,,Space,keypress(Space),,,,lyrical,,,,----- -- ---- --- -- --- -------- ------------ ---------- --<br>- ------- ------ --------- -- ------------ -- --- ---- -----<br>------ ---- ---- ------ ------ ------- --- ----- ---------<br>---- --- -------- -------- --- --- -- ------- --- --- known<br>-- --- ------ ------- --- --- -------- ---- --------- --<br>---------- -- -------- ----------------,318827,318826.5,318264.035,318267,318280.699,318830.874,,39,known
