sender,sender_type,sender_id,timestamp,meta,,Blues,Classical,Country,Dance,Electronic,Folk,Gospel,Hip-Hop,Jazz,Latin,Musical/Film,New-age,Pop,Prolific_id,Provo_ID,R&B,Rap,Reggae,Religious,Rock,Soul,Swing,Traditional,age,artist_name,correct,correctResponse,distraction,duration,education,ended_on,familiarity,gender,headphone_check_performance,item,list,music_frequency,offensiveness,pleasantness,position_correct,preference,response,response_action,snippet_file,song_name,song_rating,sound,stimulus_1,stimulus_2,stimulus_3,text,time_commit,time_end,time_render,time_run,time_show,time_switch,url,word,word_ID
Prolific ID,html.Form,0,2022-02-02T16:06:24.795Z,"{""labjs_version"":""20.2.2"",""labjs_build"":{""flavor"":""production"",""commit"":""a25486e0c714a0ae2ce03ff94b7bb6896854dcfa""},""location"":""https://run.pavlovia.org/mvasilev/prolific2_music_d/"",""userAgent"":""Mozilla/5.0 (Windows NT 10.0; Win64; x64) AppleWebKit/537.36 (KHTML, like Gecko) Chrome/97.0.4692.99 Safari/537.36"",""platform"":""Win32"",""language"":""en-GB"",""locale"":""en-GB"",""timeZone"":""Europe/London"",""timezoneOffset"":0,""screen_width"":1536,""screen_height"":864,""scroll_width"":1536,""scroll_height"":706,""window_innerWidth"":1536,""window_innerHeight"":754,""devicePixelRatio"":1.25}",,,,,,,,,,,,,,,60d3457b4b0840ff0b8435a4,,,,,,,,,,,,,,,16821.332999952316,,form submission,,,,,,,,,,,,,,,,,,,,,21249.899999976158,21248.799999952316,4410.837,4415.899999976158,4427.467,21271.897,{},,
Introduction,html.Screen,1_0,2022-02-02T16:06:30.047Z,,,,,,,,,,,,,,,,,,,,,,,,,,,,,,,5225.302999928474,,response,,,,,,,,,,,continue,click button,,,,,,,,,26501.799999952316,26497.199999928474,21238.77,21250.699999928474,21271.897,26503.397,,,
Volume calibration,html.Screen,1_1,2022-02-02T16:06:34.254Z,,,,,,,,,,,,,,,,,,,,,,,,,,,,,,,4198.602999999999,,response,,,,,,,,,,,continue,click button,,,,,,,,,30708.299999952316,30702,26486.815,26502.099999904633,26503.397,30718.663,,,
Task instructions,html.Screen,1_2,2022-02-02T16:06:48.644Z,,,,,,,,,,,,,,,,,,,,,,,,,,,,,,,14378.636999952316,,response,,,,,,,,,,,continue,click button,,,,,,,,,45098.699999928474,45097.299999952316,30702.013,30708.5,30718.663,45113.852,,,
Sounds,html.Screen,1_3_0_0,2022-02-02T16:06:52.896Z,,,,,,,,,,,,,,,,,,,,,,,,,,,,,,,4248.531000000003,,timeout,,,,,,,,,2,,,,,,,,O,S,I,,49351,49345.754,45097.383,45099.09999990463,45113.852,49362.383,,,
Judgement,html.Screen,1_3_0_1,2022-02-02T16:06:55.709Z,,,,,,,,,,,,,,,,,,,,,,,,,,,,true,2,,2799.9169999523147,,response,,,,,,,,,2,,2,click #choice-2,,,,,O,S,I,,52163.89999997616,52162.299999952316,49345.754,49351.299999952316,49362.383,52178.14,,,
Trial,flow.Sequence,1_3_0,2022-02-02T16:06:55.710Z,,,,,,,,,,,,,,,,,,,,,,,,,,,,,,,7048.447999952317,,completion,,,,,,,,,2,,,,,,,,O,S,I,,52164.5,52162.299999952316,45097.383,45099.09999990463,45113.852,52178.14,,,
Sounds,html.Screen,1_3_1_0,2022-02-02T16:06:59.957Z,,,,,,,,,,,,,,,,,,,,,,,,,,,,,,,4248.690000000002,,timeout,,,,,,,,,2,,,,,,,,I,S,O,,56411.59999990463,56410.392,52161.468,52165.199999928474,52178.14,56426.83,,,
Judgement,html.Screen,1_3_1_1,2022-02-02T16:07:00.456Z,,,,,,,,,,,,,,,,,,,,,,,,,,,,true,2,,482.3699999284727,,response,,,,,,,,,2,,2,click #choice-2,,,,,I,S,O,,56910.799999952316,56909.199999928474,56410.392,56411.89999997616,56426.83,56926.526,,,
Trial,flow.Sequence,1_3_1,2022-02-02T16:07:00.457Z,,,,,,,,,,,,,,,,,,,,,,,,,,,,,,,4731.059999928475,,completion,,,,,,,,,2,,,,,,,,I,S,O,,56911.39999997616,56909.199999928474,52161.468,52164.799999952316,52178.14,56926.526,,,
Sounds,html.Screen,1_3_2_0,2022-02-02T16:07:04.705Z,,,,,,,,,,,,,,,,,,,,,,,,,,,,,,,4248.721000000005,,timeout,,,,,,,,,3,,,,,,,,O,I,S,,61159.799999952316,61158.434,56909.813,56911.699999928474,56926.526,61175.247,,,
Judgement,html.Screen,1_3_2_1,2022-02-02T16:07:06.030Z,,,,,,,,,,,,,,,,,,,,,,,,,,,,true,3,,1308.3529999046295,,response,,,,,,,,,3,,3,click #choice-3,,,,,O,I,S,,62485,62483.59999990463,61158.434,61160.09999990463,61175.247,62491.31,,,
Trial,flow.Sequence,1_3_2,2022-02-02T16:07:06.031Z,,,,,,,,,,,,,,,,,,,,,,,,,,,,,,,5557.073999904635,,completion,,,,,,,,,3,,,,,,,,O,I,S,,62485.5,62483.59999990463,56909.813,56911.59999990463,56926.526,62491.31,,,
Sounds,html.Screen,1_3_3_0,2022-02-02T16:07:10.270Z,,,,,,,,,,,,,,,,,,,,,,,,,,,,,,,4248.760000000009,,timeout,,,,,,,,,1,,,,,,,,S,I,O,,66724.89999997616,66723.415,62474.903,62485.799999952316,62491.31,66740.07,,,
Judgement,html.Screen,1_3_3_1,2022-02-02T16:07:11.033Z,,,,,,,,,,,,,,,,,,,,,,,,,,,,true,1,,746.7299999523093,,response,,,,,,,,,1,,1,click #choice-1,,,,,S,I,O,,67488,67486.79999995232,66723.415,66725.09999990463,66740.07,67489.582,,,
Trial,flow.Sequence,1_3_3,2022-02-02T16:07:11.034Z,,,,,,,,,,,,,,,,,,,,,,,,,,,,,,,4995.489999952319,,completion,,,,,,,,,1,,,,,,,,S,I,O,,67488.39999997616,67486.79999995232,62474.903,62485.699999928474,62491.31,67489.582,,,
Sounds,html.Screen,1_3_4_0,2022-02-02T16:07:15.268Z,,,,,,,,,,,,,,,,,,,,,,,,,,,,,,,4248.794000000009,,timeout,,,,,,,,,1,,,,,,,,S,O,I,,71723,71721.733,67473.132,67488.59999990463,67489.582,71738.376,,,
Judgement,html.Screen,1_3_4_1,2022-02-02T16:07:16.004Z,,,,,,,,,,,,,,,,,,,,,,,,,,,,true,1,,719.5239999761543,,response,,,,,,,,,1,,1,click #choice-1,,,,,S,O,I,,72459,72457.89999997616,71721.733,71723.29999995232,71738.376,72471.272,,,
Trial,flow.Sequence,1_3_4,2022-02-02T16:07:16.005Z,,,,,,,,,,,,,,,,,,,,,,,,,,,,,,,4968.317999976163,,completion,,,,,,,,,1,,,,,,,,S,O,I,,72459.29999995232,72457.89999997616,67473.132,67488.59999990463,67489.582,72471.272,,,
Sounds,html.Screen,1_3_5_0,2022-02-02T16:07:20.249Z,,,,,,,,,,,,,,,,,,,,,,,,,,,,,,,4248.816000000006,,timeout,,,,,,,,,3,,,,,,,,I,O,S,,76704.69999992847,76703.53,72454.603,72459.59999990463,72471.272,76720.088,,,
Judgement,html.Screen,1_3_5_1,2022-02-02T16:07:21.371Z,,,,,,,,,,,,,,,,,,,,,,,,,,,,true,3,,1104.611999928471,,response,,,,,,,,,3,,3,click #choice-3,,,,,I,O,S,,77826.39999997616,77824.69999992847,76703.53,76704.89999997616,76720.088,77836.081,,,
Trial,flow.Sequence,1_3_5,2022-02-02T16:07:21.371Z,,,,,,,,,,,,,,,,,,,,,,,,,,,,,,,5353.427999928477,,completion,,,,,,,,,3,,,,,,,,I,O,S,,77826.69999992847,77824.69999992847,72454.603,72459.5,72471.272,77836.081,,,
Task,flow.Loop,1_3,2022-02-02T16:07:21.380Z,,,,,,,,,,,,,,,,,,,,,,,,,,,,,,,32710.847999928475,,completion,,,1,,,,,,,,,,,,,,,,,,77834.89999997616,77824.69999992847,45097.383,45099,45113.852,77836.081,,,
Trap,html.Screen,1_4,2022-02-02T16:07:21.382Z,,,,,,,,,,,,,,,,,,,,,,,,,,,,,,,NaN,,skipped,,,,,,,,,,,,,,,,,,,,,77837.19999992847,77824.69999992847,,77836.89999997616,,77836.081,,,
Thanks,html.Screen,1_5,2022-02-02T16:07:26.786Z,,,,,,,,,,,,,,,,,,,,,,,,,,,,,,,5404.218999952311,,response,,,,,,,,,,,continue,click button,,,,,,,,,83241.59999990463,83240.29999995232,77819.485,77837.29999995232,77836.081,87416.142,,,
Headphone screening,flow.Sequence,1,2022-02-02T16:07:26.787Z,,,,,,,,,,,,,,,,,,,,,,,,,,,,,,,61968.40299995232,,completion,,,,,,,,,,,,,,,,,,,,,83241.89999997616,83240.29999995232,21238.77,21250.699999928474,21271.897,87416.142,,,
Instructions,html.Page,2_0,2022-02-02T16:07:55.747Z,,,,,,,,,,,,,,,,,,,,,,,,,,,,,,,24785.557999928467,,form submission,,,,,,,,,,,,,,,,,,,,,112202.09999990463,112201.69999992847,87399.496,87408.39999997616,87416.142,112207.88,,,
Holding screen,html.Screen,2_1_0_0,2022-02-02T16:08:05.734Z,,,,,,,,,,,,,,,,,,,,,,,,,,,,,,,10013.297999999995,,timeout,,,,,,,,,,,,,,,,,,,,,122189.5,122188.073,112191.435,112202.5,112207.88,122221.178,,,
screen,html.Screen,2_1_0_1_0,2022-02-02T16:08:07.829Z,,,,,,,,,,,,,,,,,53,,,,,,,,,,,,,,2057.9219999046327,,response,,,,99,,,,,,,Space,keypress(Space),,,,,,,,When -- ----- -- ------ - ------- --- ----------<br>------------- ------ ------ ---- ---- ------- ----- -- ----<br>-------- ------- -- ---------- --- - --- ----- ----- ----<br>---- --- --- ----- --- ---- ---- ------- ----- ---- -------<br>--- --- -- ----- -- --- ---- -- --- ---- -- ------ ------<br>--- ----- -- ----,124284,124279.09999990463,122188.073,122189.79999995232,122221.178,124287.112,,0,When
screen,html.Screen,2_1_0_1_1,2022-02-02T16:08:08.622Z,,,,,,,,,,,,,,,,,53,,,,,,,,,,,,,,789.0879999284807,,response,,,,99,,,,,,,Space,keypress(Space),,,,,,,,---- it ----- -- ------ - ------- --- ----------<br>------------- ------ ------ ---- ---- ------- ----- -- ----<br>-------- ------- -- ---------- --- - --- ----- ----- ----<br>---- --- --- ----- --- ---- ---- ------- ----- ---- -------<br>--- --- -- ----- -- --- ---- -- --- ---- -- ------ ------<br>--- ----- -- ----,125077.09999990463,125076.19999992847,124270.44,124284.19999992847,124287.112,125086.879,,1,it
screen,html.Screen,2_1_0_1_2,2022-02-02T16:08:09.257Z,,,,,,,,,,,,,,,,,53,,,,,,,,,,,,,,624.1209999999992,,response,,,,99,,,,,,,Space,keypress(Space),,,,,,,,---- -- comes -- ------ - ------- --- ----------<br>------------- ------ ------ ---- ---- ------- ----- -- ----<br>-------- ------- -- ---------- --- - --- ----- ----- ----<br>---- --- --- ----- --- ---- ---- ------- ----- ---- -------<br>--- --- -- ----- -- --- ---- -- --- ---- -- ------ ------<br>--- ----- -- ----,125711.89999997616,125711,125070.389,125077.29999995232,125086.879,125720.097,,2,comes
screen,html.Screen,2_1_0_1_3,2022-02-02T16:08:09.707Z,,,,,,,,,,,,,,,,,53,,,,,,,,,,,,,,441.60299992848013,,response,,,,99,,,,,,,Space,keypress(Space),,,,,,,,---- -- ----- to ------ - ------- --- ----------<br>------------- ------ ------ ---- ---- ------- ----- -- ----<br>-------- ------- -- ---------- --- - --- ----- ----- ----<br>---- --- --- ----- --- ---- ---- ------- ----- ---- -------<br>--- --- -- ----- -- --- ---- -- --- ---- -- ------ ------<br>--- ----- -- ----,126162.59999990463,126161.69999992847,125703.513,125712.09999990463,125720.097,126169.884,,3,to
screen,html.Screen,2_1_0_1_4,2022-02-02T16:08:10.162Z,,,,,,,,,,,,,,,,,53,,,,,,,,,,,,,,446.2159999046271,,response,,,,99,,,,,,,Space,keypress(Space),,,,,,,,---- -- ----- -- having - ------- --- ----------<br>------------- ------ ------ ---- ---- ------- ----- -- ----<br>-------- ------- -- ---------- --- - --- ----- ----- ----<br>---- --- --- ----- --- ---- ---- ------- ----- ---- -------<br>--- --- -- ----- -- --- ---- -- --- ---- -- ------ ------<br>--- ----- -- ----,126617,126616.09999990463,126153.53,126162.69999992847,126169.884,126619.67,,4,having
screen,html.Screen,2_1_0_1_5,2022-02-02T16:08:10.621Z,,,,,,,,,,,,,,,,,53,,,,,,,,,,,,,,455.7299999761599,,response,,,,99,,,,,,,Space,keypress(Space),,,,,,,,---- -- ----- -- ------ a ------- --- ----------<br>------------- ------ ------ ---- ---- ------- ----- -- ----<br>-------- ------- -- ---------- --- - --- ----- ----- ----<br>---- --- --- ----- --- ---- ---- ------- ----- ---- -------<br>--- --- -- ----- -- --- ---- -- --- ---- -- ------ ------<br>--- ----- -- ----,127076.19999992847,127075.39999997616,126603.298,126617.09999990463,126619.67,127086.488,,5,a
screen,html.Screen,2_1_0_1_6,2022-02-02T16:08:11.005Z,,,,,,,,,,,,,,,,,53,,,,,,,,,,,,,,372.9119999761606,,response,,,,99,,,,,,,Space,keypress(Space),,,,,,,,---- -- ----- -- ------ - lasting --- ----------<br>------------- ------ ------ ---- ---- ------- ----- -- ----<br>-------- ------- -- ---------- --- - --- ----- ----- ----<br>---- --- --- ----- --- ---- ---- ------- ----- ---- -------<br>--- --- -- ----- -- --- ---- -- --- ---- -- ------ ------<br>--- ----- -- ----,127460.09999990463,127459.39999997616,127069.669,127076.39999997616,127086.488,127469.396,,6,lasting
screen,html.Screen,2_1_0_1_7,2022-02-02T16:08:11.424Z,,,,,,,,,,,,,,,,,53,,,,,,,,,,,,,,409.4039999523229,,response,,,,99,,,,,,,Space,keypress(Space),,,,,,,,---- -- ----- -- ------ - ------- and ----------<br>------------- ------ ------ ---- ---- ------- ----- -- ----<br>-------- ------- -- ---------- --- - --- ----- ----- ----<br>---- --- --- ----- --- ---- ---- ------- ----- ---- -------<br>--- --- -- ----- -- --- ---- -- --- ---- -- ------ ------<br>--- ----- -- ----,127879.5,127878.79999995232,127452.818,127460.29999995232,127469.396,127885.865,,7,and
screen,html.Screen,2_1_0_1_8,2022-02-02T16:08:11.838Z,,,,,,,,,,,,,,,,,53,,,,,,,,,,,,,,407.0349999761529,,response,,,,99,,,,,,,Space,keypress(Space),,,,,,,,---- -- ----- -- ------ - ------- --- fulfilling<br>------------- ------ ------ ---- ---- ------- ----- -- ----<br>-------- ------- -- ---------- --- - --- ----- ----- ----<br>---- --- --- ----- --- ---- ---- ------- ----- ---- -------<br>--- --- -- ----- -- --- ---- -- --- ---- -- ------ ------<br>--- ----- -- ----,128293.69999992847,128292.89999997616,127869.503,127879.69999992847,127885.865,128302.442,,8,fulfilling
screen,html.Screen,2_1_0_1_9,2022-02-02T16:08:12.257Z,,,,,,,,,,,,,,,,,53,,,,,,,,,,,,,,409.1579999046371,,response,,,,99,,,,,,,Space,keypress(Space),,,,,,,,"---- -- ----- -- ------ - ------- --- ----------<br>relationship, ------ ------ ---- ---- ------- ----- -- ----<br>-------- ------- -- ---------- --- - --- ----- ----- ----<br>---- --- --- ----- --- ---- ---- ------- ----- ---- -------<br>--- --- -- ----- -- --- ---- -- --- ---- -- ------ ------<br>--- ----- -- ----",128712.5,128711.59999990463,128285.94,128293.89999997616,128302.442,128719.051,,9,"relationship,"
screen,html.Screen,2_1_0_1_10,2022-02-02T16:08:12.631Z,,,,,,,,,,,,,,,,,53,,,,,,,,,,,,,,365.94899999999325,,response,,,,99,,,,,,,Space,keypress(Space),,,,,,,,---- -- ----- -- ------ - ------- --- ----------<br>------------- common ------ ---- ---- ------- ----- -- ----<br>-------- ------- -- ---------- --- - --- ----- ----- ----<br>---- --- --- ----- --- ---- ---- ------- ----- ---- -------<br>--- --- -- ----- -- --- ---- -- --- ---- -- ------ ------<br>--- ----- -- ----,129085.89999997616,129085,128702.565,128712.69999992847,128719.051,129102.482,,10,common
screen,html.Screen,2_1_0_1_11,2022-02-02T16:08:13.004Z,,,,,,,,,,,,,,,,,53,,,,,,,,,,,,,,355.7179999284708,,response,,,,99,,,,,,,Space,keypress(Space),,,,,,,,---- -- ----- -- ------ - ------- --- ----------<br>------------- ------ wisdom ---- ---- ------- ----- -- ----<br>-------- ------- -- ---------- --- - --- ----- ----- ----<br>---- --- --- ----- --- ---- ---- ------- ----- ---- -------<br>--- --- -- ----- -- --- ---- -- --- ---- -- ------ ------<br>--- ----- -- ----,129459.09999990463,129458.19999992847,129085.645,129086.09999990463,129102.482,129468.802,,11,wisdom
screen,html.Screen,2_1_0_1_12,2022-02-02T16:08:13.408Z,,,,,,,,,,,,,,,,,53,,,,,,,,,,,,,,393.99799995232024,,response,,,,99,,,,,,,Space,keypress(Space),,,,,,,,---- -- ----- -- ------ - ------- --- ----------<br>------------- ------ ------ says ---- ------- ----- -- ----<br>-------- ------- -- ---------- --- - --- ----- ----- ----<br>---- --- --- ----- --- ---- ---- ------- ----- ---- -------<br>--- --- -- ----- -- --- ---- -- --- ---- -- ------ ------<br>--- ----- -- ----,129863.59999990463,129862.79999995232,129452.337,129459.19999992847,129468.802,129868.565,,12,says
screen,html.Screen,2_1_0_1_13,2022-02-02T16:08:13.774Z,,,,,,,,,,,,,,,,,53,,,,,,,,,,,,,,359.73499995231396,,response,,,,99,,,,,,,Space,keypress(Space),,,,,,,,---- -- ----- -- ------ - ------- --- ----------<br>------------- ------ ------ ---- that ------- ----- -- ----<br>-------- ------- -- ---------- --- - --- ----- ----- ----<br>---- --- --- ----- --- ---- ---- ------- ----- ---- -------<br>--- --- -- ----- -- --- ---- -- --- ---- -- ------ ------<br>--- ----- -- ----,130229.09999990463,130228.29999995232,129852.176,129863.79999995232,129868.565,130235.148,,13,that
screen,html.Screen,2_1_0_1_14,2022-02-02T16:08:14.202Z,,,,,,,,,,,,,,,,,53,,,,,,,,,,,,,,421.35199999999895,,response,,,,99,,,,,,,Space,keypress(Space),,,,,,,,---- -- ----- -- ------ - ------- --- ----------<br>------------- ------ ------ ---- ---- feeling ----- -- ----<br>-------- ------- -- ---------- --- - --- ----- ----- ----<br>---- --- --- ----- --- ---- ---- ------- ----- ---- -------<br>--- --- -- ----- -- --- ---- -- --- ---- -- ------ ------<br>--- ----- -- ----,130657.29999995232,130656.5,130218.601,130229.29999995232,130235.148,130668.495,,14,feeling
screen,html.Screen,2_1_0_1_15,2022-02-02T16:08:14.555Z,,,,,,,,,,,,,,,,,53,,,,,,,,,,,,,,341.2049999284791,,response,,,,99,,,,,,,Space,keypress(Space),,,,,,,,---- -- ----- -- ------ - ------- --- ----------<br>------------- ------ ------ ---- ---- ------- close -- ----<br>-------- ------- -- ---------- --- - --- ----- ----- ----<br>---- --- --- ----- --- ---- ---- ------- ----- ---- -------<br>--- --- -- ----- -- --- ---- -- --- ---- -- ------ ------<br>--- ----- -- ----,131010.5,131009.69999992847,130651.825,130657.5,130668.495,131018.322,,15,close
screen,html.Screen,2_1_0_1_16,2022-02-02T16:08:14.948Z,,,,,,,,,,,,,,,,,53,,,,,,,,,,,,,,384.47799995231617,,response,,,,99,,,,,,,Space,keypress(Space),,,,,,,,---- -- ----- -- ------ - ------- --- ----------<br>------------- ------ ------ ---- ---- ------- ----- to ----<br>-------- ------- -- ---------- --- - --- ----- ----- ----<br>---- --- --- ----- --- ---- ---- ------- ----- ---- -------<br>--- --- -- ----- -- --- ---- -- --- ---- -- ------ ------<br>--- ----- -- ----,131403.59999990463,131402.79999995232,131001.77,131010.69999992847,131018.322,131418.3,,16,to
screen,html.Screen,2_1_0_1_17,2022-02-02T16:08:15.334Z,,,,,,,,,,,,,,,,,53,,,,,,,,,,,,,,370.4999999523279,,response,,,,99,,,,,,,Space,keypress(Space),,,,,,,,---- -- ----- -- ------ - ------- --- ----------<br>------------- ------ ------ ---- ---- ------- ----- -- your<br>-------- ------- -- ---------- --- - --- ----- ----- ----<br>---- --- --- ----- --- ---- ---- ------- ----- ---- -------<br>--- --- -- ----- -- --- ---- -- --- ---- -- ------ ------<br>--- ----- -- ----,131789.59999990463,131788.79999995232,131401.607,131403.69999992847,131418.3,131801.55,,17,your
screen,html.Screen,2_1_0_1_18,2022-02-02T16:08:15.645Z,,,,,,,,,,,,,,,,,53,,,,,,,,,,,,,,298.3499999761698,,response,,,,99,,,,,,,Space,keypress(Space),,,,,,,,---- -- ----- -- ------ - ------- --- ----------<br>------------- ------ ------ ---- ---- ------- ----- -- ----<br>romantic ------- -- ---------- --- - --- ----- ----- ----<br>---- --- --- ----- --- ---- ---- ------- ----- ---- -------<br>--- --- -- ----- -- --- ---- -- --- ---- -- ------ ------<br>--- ----- -- ----,132100.69999992847,132099.89999997616,131784.829,131789.89999997616,131801.55,132134.772,,18,romantic
screen,html.Screen,2_1_0_1_19,2022-02-02T16:08:16.020Z,,,,,,,,,,,,,,,,,53,,,,,,,,,,,,,,339.9279999284772,,response,,,,99,,,,,,,Space,keypress(Space),,,,,,,,---- -- ----- -- ------ - ------- --- ----------<br>------------- ------ ------ ---- ---- ------- ----- -- ----<br>-------- partner -- ---------- --- - --- ----- ----- ----<br>---- --- --- ----- --- ---- ---- ------- ----- ---- -------<br>--- --- -- ----- -- --- ---- -- --- ---- -- ------ ------<br>--- ----- -- ----,132475.5,132474.69999992847,132118.002,132100.79999995232,132134.772,132484.669,,19,partner
screen,html.Screen,2_1_0_1_20,2022-02-02T16:08:16.362Z,,,,,,,,,,,,,,,,,53,,,,,,,,,,,,,,332.3310000000056,,response,,,,99,,,,,,,Space,keypress(Space),,,,,,,,---- -- ----- -- ------ - ------- --- ----------<br>------------- ------ ------ ---- ---- ------- ----- -- ----<br>-------- ------- is ---------- --- - --- ----- ----- ----<br>---- --- --- ----- --- ---- ---- ------- ----- ---- -------<br>--- --- -- ----- -- --- ---- -- --- ---- -- ------ ------<br>--- ----- -- ----,132817.69999992847,132817,132467.852,132475.69999992847,132484.669,132834.479,,20,is
screen,html.Screen,2_1_0_1_21,2022-02-02T16:08:16.705Z,,,,,,,,,,,,,,,,,53,,,,,,,,,,,,,,325.1209999046405,,response,,,,99,,,,,,,Space,keypress(Space),,,,,,,,---- -- ----- -- ------ - ------- --- ----------<br>------------- ------ ------ ---- ---- ------- ----- -- ----<br>-------- ------- -- paramount. --- - --- ----- ----- ----<br>---- --- --- ----- --- ---- ---- ------- ----- ---- -------<br>--- --- -- ----- -- --- ---- -- --- ---- -- ------ ------<br>--- ----- -- ----,133160.29999995232,133159.59999990463,132818.19,132817.89999997616,132834.479,133167.584,,21,paramount.
screen,html.Screen,2_1_0_1_22,2022-02-02T16:08:17.081Z,,,,,,,,,,,,,,,,,53,,,,,,,,,,,,,,368.2159999523137,,response,,,,99,,,,,,,Space,keypress(Space),,,,,,,,---- -- ----- -- ------ - ------- --- ----------<br>------------- ------ ------ ---- ---- ------- ----- -- ----<br>-------- ------- -- ---------- But - --- ----- ----- ----<br>---- --- --- ----- --- ---- ---- ------- ----- ---- -------<br>--- --- -- ----- -- --- ---- -- --- ---- -- ------ ------<br>--- ----- -- ----,133536.69999992847,133535.79999995232,133150.877,133160.5,133167.584,133550.856,,22,But
screen,html.Screen,2_1_0_1_23,2022-02-02T16:08:17.393Z,,,,,,,,,,,,,,,,,53,,,,,,,,,,,,,,297.0439999761584,,response,,,,99,,,,,,,Space,keypress(Space),,,,,,,,---- -- ----- -- ------ - ------- --- ----------<br>------------- ------ ------ ---- ---- ------- ----- -- ----<br>-------- ------- -- ---------- --- a --- ----- ----- ----<br>---- --- --- ----- --- ---- ---- ------- ----- ---- -------<br>--- --- -- ----- -- --- ---- -- --- ---- -- ------ ------<br>--- ----- -- ----,133848.79999995232,133847.89999997616,133534.221,133536.79999995232,133550.856,133874.525,,23,a
screen,html.Screen,2_1_0_1_24,2022-02-02T16:08:17.786Z,,,,,,,,,,,,,,,,,53,,,,,,,,,,,,,,365.9750000000058,,response,,,,99,,,,,,,Space,keypress(Space),,,,,,,,---- -- ----- -- ------ - ------- --- ----------<br>------------- ------ ------ ---- ---- ------- ----- -- ----<br>-------- ------- -- ---------- --- - new ----- ----- ----<br>---- --- --- ----- --- ---- ---- ------- ----- ---- -------<br>--- --- -- ----- -- --- ---- -- --- ---- -- ------ ------<br>--- ----- -- ----,134241.39999997616,134240.5,133834.164,133849,133874.525,134250.649,,24,new
screen,html.Screen,2_1_0_1_25,2022-02-02T16:08:18.100Z,,,,,,,,,,,,,,,,,53,,,,,,,,,,,,,,303.55099992846954,,response,,,,99,,,,,,,Space,keypress(Space),,,,,,,,---- -- ----- -- ------ - ------- --- ----------<br>------------- ------ ------ ---- ---- ------- ----- -- ----<br>-------- ------- -- ---------- --- - --- study ----- ----<br>---- --- --- ----- --- ---- ---- ------- ----- ---- -------<br>--- --- -- ----- -- --- ---- -- --- ---- -- ------ ------<br>--- ----- -- ----,134555.09999990463,134554.19999992847,134233.992,134241.59999990463,134250.649,134567.15,,25,study
screen,html.Screen,2_1_0_1_26,2022-02-02T16:08:18.428Z,,,,,,,,,,,,,,,,,53,,,,,,,,,,,,,,315.4499999046384,,response,,,,99,,,,,,,Space,keypress(Space),,,,,,,,---- -- ----- -- ------ - ------- --- ----------<br>------------- ------ ------ ---- ---- ------- ----- -- ----<br>-------- ------- -- ---------- --- - --- ----- finds ----<br>---- --- --- ----- --- ---- ---- ------- ----- ---- -------<br>--- --- -- ----- -- --- ---- -- --- ---- -- ------ ------<br>--- ----- -- ----,134883.19999992847,134882.59999990463,134550.62,134555.19999992847,134567.15,134916.861,,26,finds
screen,html.Screen,2_1_0_1_27,2022-02-02T16:08:18.747Z,,,,,,,,,,,,,,,,,53,,,,,,,,,,,,,,284.6389999999956,,response,,,,99,,,,,,,Space,keypress(Space),,,,,,,,---- -- ----- -- ------ - ------- --- ----------<br>------------- ------ ------ ---- ---- ------- ----- -- ----<br>-------- ------- -- ---------- --- - --- ----- ----- that<br>---- --- --- ----- --- ---- ---- ------- ----- ---- -------<br>--- --- -- ----- -- --- ---- -- --- ---- -- ------ ------<br>--- ----- -- ----,135202.39999997616,135201.5,134900.445,134883.39999997616,134916.861,135216.761,,27,that
screen,html.Screen,2_1_0_1_28,2022-02-02T16:08:19.170Z,,,,,,,,,,,,,,,,,53,,,,,,,,,,,,,,407.7390000000014,,response,,,,99,,,,,,,Space,keypress(Space),,,,,,,,---- -- ----- -- ------ - ------- --- ----------<br>------------- ------ ------ ---- ---- ------- ----- -- ----<br>-------- ------- -- ---------- --- - --- ----- ----- ----<br>it's --- --- ----- --- ---- ---- ------- ----- ---- -------<br>--- --- -- ----- -- --- ---- -- --- ---- -- ------ ------<br>--- ----- -- ----,135625.39999997616,135624.5,135200.304,135202.5,135216.761,135633.289,,28,it's
screen,html.Screen,2_1_0_1_29,2022-02-02T16:08:19.443Z,,,,,,,,,,,,,,,,,53,,,,,,,,,,,,,,264.3109999046428,,response,,,,99,,,,,,,Space,keypress(Space),,,,,,,,---- -- ----- -- ------ - ------- --- ----------<br>------------- ------ ------ ---- ---- ------- ----- -- ----<br>-------- ------- -- ---------- --- - --- ----- ----- ----<br>---- not --- ----- --- ---- ---- ------- ----- ---- -------<br>--- --- -- ----- -- --- ---- -- --- ---- -- ------ ------<br>--- ----- -- ----,135898.29999995232,135897.59999990463,135616.848,135625.69999992847,135633.289,135927.157,,29,not
screen,html.Screen,2_1_0_1_30,2022-02-02T16:08:19.816Z,,,,,,,,,,,,,,,,,53,,,,,,,,,,,,,,343.5429999284679,,response,,,,99,,,,,,,Space,keypress(Space),,,,,,,,---- -- ----- -- ------ - ------- --- ----------<br>------------- ------ ------ ---- ---- ------- ----- -- ----<br>-------- ------- -- ---------- --- - --- ----- ----- ----<br>---- --- how ----- --- ---- ---- ------- ----- ---- -------<br>--- --- -- ----- -- --- ---- -- --- ---- -- ------ ------<br>--- ----- -- ----,136271.5,136270.69999992847,135883.195,135898.5,135927.157,136283.45,,30,how
screen,html.Screen,2_1_0_1_31,2022-02-02T16:08:20.132Z,,,,,,,,,,,,,,,,,53,,,,,,,,,,,,,,304.2499999284628,,response,,,,99,,,,,,,Space,keypress(Space),,,,,,,,---- -- ----- -- ------ - ------- --- ----------<br>------------- ------ ------ ---- ---- ------- ----- -- ----<br>-------- ------- -- ---------- --- - --- ----- ----- ----<br>---- --- --- close --- ---- ---- ------- ----- ---- -------<br>--- --- -- ----- -- --- ---- -- --- ---- -- ------ ------<br>--- ----- -- ----,136588.29999995232,136587.69999992847,136266.721,136271.69999992847,136283.45,136599.956,,31,close
screen,html.Screen,2_1_0_1_32,2022-02-02T16:08:20.409Z,,,,,,,,,,,,,,,,,53,,,,,,,,,,,,,,265.143999904627,,response,,,,99,,,,,,,Space,keypress(Space),,,,,,,,---- -- ----- -- ------ - ------- --- ----------<br>------------- ------ ------ ---- ---- ------- ----- -- ----<br>-------- ------- -- ---------- --- - --- ----- ----- ----<br>---- --- --- ----- you ---- ---- ------- ----- ---- -------<br>--- --- -- ----- -- --- ---- -- --- ---- -- ------ ------<br>--- ----- -- ----,136865.59999990463,136865.09999990463,136583.247,136588.59999990463,136599.956,136885.696,,32,you
screen,html.Screen,2_1_0_1_33,2022-02-02T16:08:20.762Z,,,,,,,,,,,,,,,,,53,,,,,,,,,,,,,,332.00399992847815,,response,,,,99,,,,,,,Space,keypress(Space),,,,,,,,---- -- ----- -- ------ - ------- --- ----------<br>------------- ------ ------ ---- ---- ------- ----- -- ----<br>-------- ------- -- ---------- --- - --- ----- ----- ----<br>---- --- --- ----- --- feel ---- ------- ----- ---- -------<br>--- --- -- ----- -- --- ---- -- --- ---- -- ------ ------<br>--- ----- -- ----,137218,137217.69999992847,136849.81,136865.69999992847,136885.696,137232.651,,33,feel
screen,html.Screen,2_1_0_1_34,2022-02-02T16:08:21.073Z,,,,,,,,,,,,,,,,,53,,,,,,,,,,,,,,295.94899990462,,response,,,,99,,,,,,,Space,keypress(Space),,,,,,,,---- -- ----- -- ------ - ------- --- ----------<br>------------- ------ ------ ---- ---- ------- ----- -- ----<br>-------- ------- -- ---------- --- - --- ----- ----- ----<br>---- --- --- ----- --- ---- that ------- ----- ---- -------<br>--- --- -- ----- -- --- ---- -- --- ---- -- ------ ------<br>--- ----- -- ----,137529.5,137528.59999990463,137216.034,137218.09999990463,137232.651,137532.624,,34,that
screen,html.Screen,2_1_0_1_35,2022-02-02T16:08:21.371Z,,,,,,,,,,,,,,,,,53,,,,,,,,,,,,,,293.3759999999893,,response,,,,99,,,,,,,Space,keypress(Space),,,,,,,,---- -- ----- -- ------ - ------- --- ----------<br>------------- ------ ------ ---- ---- ------- ----- -- ----<br>-------- ------- -- ---------- --- - --- ----- ----- ----<br>---- --- --- ----- --- ---- ---- matters ----- ---- -------<br>--- --- -- ----- -- --- ---- -- --- ---- -- ------ ------<br>--- ----- -- ----,137826.89999997616,137826,137515.841,137529.69999992847,137532.624,137832.54,,35,matters
screen,html.Screen,2_1_0_1_36,2022-02-02T16:08:21.666Z,,,,,,,,,,,,,,,,,53,,,,,,,,,,,,,,288.85999997615,,response,,,,99,,,,,,,Space,keypress(Space),,,,,,,,"---- -- ----- -- ------ - ------- --- ----------<br>------------- ------ ------ ---- ---- ------- ----- -- ----<br>-------- ------- -- ---------- --- - --- ----- ----- ----<br>---- --- --- ----- --- ---- ---- ------- most, ---- -------<br>--- --- -- ----- -- --- ---- -- --- ---- -- ------ ------<br>--- ----- -- ----",138122.39999997616,138121.39999997616,137816.108,137827.29999995232,137832.54,138132.649,,36,"most,"
screen,html.Screen,2_1_0_1_37,2022-02-02T16:08:22.390Z,,,,,,,,,,,,,,,,,53,,,,,,,,,,,,,,712.5509999284695,,response,,,,99,,,,,,,Space,keypress(Space),,,,,,,,---- -- ----- -- ------ - ------- --- ----------<br>------------- ------ ------ ---- ---- ------- ----- -- ----<br>-------- ------- -- ---------- --- - --- ----- ----- ----<br>---- --- --- ----- --- ---- ---- ------- ----- it's -------<br>--- --- -- ----- -- --- ---- -- --- ---- -- ------ ------<br>--- ----- -- ----,138846,138845.19999992847,138115.976,138123.79999995232,138132.649,138848.905,,37,it's
screen,html.Screen,2_1_0_1_38,2022-02-02T16:08:22.733Z,,,,,,,,,,,,,,,,,53,,,,,,,,,,,,,,339.39499995231745,,response,,,,99,,,,,,,Space,keypress(Space),,,,,,,,---- -- ----- -- ------ - ------- --- ----------<br>------------- ------ ------ ---- ---- ------- ----- -- ----<br>-------- ------- -- ---------- --- - --- ----- ----- ----<br>---- --- --- ----- --- ---- ---- ------- ----- ---- whether<br>--- --- -- ----- -- --- ---- -- --- ---- -- ------ ------<br>--- ----- -- ----,139189.19999992847,139188.29999995232,138832.49,138846.19999992847,138848.905,139198.876,,38,whether
screen,html.Screen,2_1_0_1_39,2022-02-02T16:08:22.960Z,,,,,,,,,,,,,,,,,53,,,,,,,,,,,,,,216.22399990464328,,response,,,,99,,,,,,,Space,keypress(Space),,,,,,,,---- -- ----- -- ------ - ------- --- ----------<br>------------- ------ ------ ---- ---- ------- ----- -- ----<br>-------- ------- -- ---------- --- - --- ----- ----- ----<br>---- --- --- ----- --- ---- ---- ------- ----- ---- -------<br>you --- -- ----- -- --- ---- -- --- ---- -- ------ ------<br>--- ----- -- ----,139415.89999997616,139415.09999990463,139182.393,139189.29999995232,139198.876,139432.325,,39,you
screen,html.Screen,2_1_0_1_40,2022-02-02T16:08:23.203Z,,,,,,,,,,,,,,,,,53,,,,,,,,,,,,,,226.17499999998836,,response,,,,99,,,,,,,Space,keypress(Space),,,,,,,,---- -- ----- -- ------ - ------- --- ----------<br>------------- ------ ------ ---- ---- ------- ----- -- ----<br>-------- ------- -- ---------- --- - --- ----- ----- ----<br>---- --- --- ----- --- ---- ---- ------- ----- ---- -------<br>--- are -- ----- -- --- ---- -- --- ---- -- ------ ------<br>--- ----- -- ----,139659.19999992847,139658.5,139415.612,139416.09999990463,139432.325,139665.296,,40,are
screen,html.Screen,2_1_0_1_41,2022-02-02T16:08:23.429Z,,,,,,,,,,,,,,,,,53,,,,,,,,,,,,,,219.30399990463047,,response,,,,99,,,,,,,Space,keypress(Space),,,,,,,,---- -- ----- -- ------ - ------- --- ----------<br>------------- ------ ------ ---- ---- ------- ----- -- ----<br>-------- ------- -- ---------- --- - --- ----- ----- ----<br>---- --- --- ----- --- ---- ---- ------- ----- ---- -------<br>--- --- as ----- -- --- ---- -- --- ---- -- ------ ------<br>--- ----- -- ----,139885.39999997616,139884.59999990463,139648.858,139659.5,139665.296,139898.816,,41,as
screen,html.Screen,2_1_0_1_42,2022-02-02T16:08:23.648Z,,,,,,,,,,,,,,,,,53,,,,,,,,,,,,,,204.68400000000838,,response,,,,99,,,,,,,Space,keypress(Space),,,,,,,,---- -- ----- -- ------ - ------- --- ----------<br>------------- ------ ------ ---- ---- ------- ----- -- ----<br>-------- ------- -- ---------- --- - --- ----- ----- ----<br>---- --- --- ----- --- ---- ---- ------- ----- ---- -------<br>--- --- -- close -- --- ---- -- --- ---- -- ------ ------<br>--- ----- -- ----,140104.19999992847,140103.5,139882.057,139885.59999990463,139898.816,140115.201,,42,close
screen,html.Screen,2_1_0_1_43,2022-02-02T16:08:23.889Z,,,,,,,,,,,,,,,,,53,,,,,,,,,,,,,,229.4989999284735,,response,,,,99,,,,,,,Space,keypress(Space),,,,,,,,---- -- ----- -- ------ - ------- --- ----------<br>------------- ------ ------ ---- ---- ------- ----- -- ----<br>-------- ------- -- ---------- --- - --- ----- ----- ----<br>---- --- --- ----- --- ---- ---- ------- ----- ---- -------<br>--- --- -- ----- as --- ---- -- --- ---- -- ------ ------<br>--- ----- -- ----,140345.5,140344.69999992847,140098.461,140104.39999997616,140115.201,140348.366,,43,as
screen,html.Screen,2_1_0_1_44,2022-02-02T16:08:24.253Z,,,,,,,,,,,,,,,,,53,,,,,,,,,,,,,,359.6339999999909,,response,,,,99,,,,,,,Space,keypress(Space),,,,,,,,---- -- ----- -- ------ - ------- --- ----------<br>------------- ------ ------ ---- ---- ------- ----- -- ----<br>-------- ------- -- ---------- --- - --- ----- ----- ----<br>---- --- --- ----- --- ---- ---- ------- ----- ---- -------<br>--- --- -- ----- -- you ---- -- --- ---- -- ------ ------<br>--- ----- -- ----,140708.79999995232,140708,140331.655,140345.69999992847,140348.366,140714.91,,44,you
screen,html.Screen,2_1_0_1_45,2022-02-02T16:08:24.530Z,,,,,,,,,,,,,,,,,53,,,,,,,,,,,,,,270.48999997615465,,response,,,,99,,,,,,,Space,keypress(Space),,,,,,,,---- -- ----- -- ------ - ------- --- ----------<br>------------- ------ ------ ---- ---- ------- ----- -- ----<br>-------- ------- -- ---------- --- - --- ----- ----- ----<br>---- --- --- ----- --- ---- ---- ------- ----- ---- -------<br>--- --- -- ----- -- --- want -- --- ---- -- ------ ------<br>--- ----- -- ----,140986.29999995232,140985.39999997616,140698.548,140709,140714.91,140998.355,,45,want
screen,html.Screen,2_1_0_1_46,2022-02-02T16:08:24.884Z,,,,,,,,,,,,,,,,,53,,,,,,,,,,,,,,341.2449999046221,,response,,,,99,,,,,,,Space,keypress(Space),,,,,,,,---- -- ----- -- ------ - ------- --- ----------<br>------------- ------ ------ ---- ---- ------- ----- -- ----<br>-------- ------- -- ---------- --- - --- ----- ----- ----<br>---- --- --- ----- --- ---- ---- ------- ----- ---- -------<br>--- --- -- ----- -- --- ---- to --- ---- -- ------ ------<br>--- ----- -- ----,141340.29999995232,141339.59999990463,140981.648,140986.5,140998.355,141347.979,,46,to
screen,html.Screen,2_1_0_1_47,2022-02-02T16:08:25.123Z,,,,,,,,,,,,,,,,,53,,,,,,,,,,,,,,230.12099990464048,,response,,,,99,,,,,,,Space,keypress(Space),,,,,,,,"---- -- ----- -- ------ - ------- --- ----------<br>------------- ------ ------ ---- ---- ------- ----- -- ----<br>-------- ------- -- ---------- --- - --- ----- ----- ----<br>---- --- --- ----- --- ---- ---- ------- ----- ---- -------<br>--- --- -- ----- -- --- ---- -- be, ---- -- ------ ------<br>--- ----- -- ----",141579,141578.09999990463,141331.283,141340.5,141347.979,141581.261,,47,"be,"
screen,html.Screen,2_1_0_1_48,2022-02-02T16:08:25.662Z,,,,,,,,,,,,,,,,,53,,,,,,,,,,,,,,536.4389999284758,,response,,,,99,,,,,,,Space,keypress(Space),,,,,,,,---- -- ----- -- ------ - ------- --- ----------<br>------------- ------ ------ ---- ---- ------- ----- -- ----<br>-------- ------- -- ---------- --- - --- ----- ----- ----<br>---- --- --- ----- --- ---- ---- ------- ----- ---- -------<br>--- --- -- ----- -- --- ---- -- --- even -- ------ ------<br>--- ----- -- ----,142118.5,142117.69999992847,141564.897,141579.09999990463,141581.261,142131.48,,48,even
screen,html.Screen,2_1_0_1_49,2022-02-02T16:08:25.938Z,,,,,,,,,,,,,,,,,53,,,,,,,,,,,,,,262.5199999999895,,response,,,,99,,,,,,,Space,keypress(Space),,,,,,,,---- -- ----- -- ------ - ------- --- ----------<br>------------- ------ ------ ---- ---- ------- ----- -- ----<br>-------- ------- -- ---------- --- - --- ----- ----- ----<br>---- --- --- ----- --- ---- ---- ------- ----- ---- -------<br>--- --- -- ----- -- --- ---- -- --- ---- if ------ ------<br>--- ----- -- ----,142394.59999990463,142394,142114.413,142118.69999992847,142131.48,142397.639,,49,if
screen,html.Screen,2_1_0_1_50,2022-02-02T16:08:26.257Z,,,,,,,,,,,,,,,,,53,,,,,,,,,,,,,,314.960999904637,,response,,,,99,,,,,,,Space,keypress(Space),,,,,,,,---- -- ----- -- ------ - ------- --- ----------<br>------------- ------ ------ ---- ---- ------- ----- -- ----<br>-------- ------- -- ---------- --- - --- ----- ----- ----<br>---- --- --- ----- --- ---- ---- ------- ----- ---- -------<br>--- --- -- ----- -- --- ---- -- --- ---- -- that's ------<br>--- ----- -- ----,142713.39999997616,142712.59999990463,142381.293,142394.79999995232,142397.639,142731.223,,50,that's
screen,html.Screen,2_1_0_1_51,2022-02-02T16:08:26.622Z,,,,,,,,,,,,,,,,,53,,,,,,,,,,,,,,346.67699997616,,response,,,,99,,,,,,,Space,keypress(Space),,,,,,,,---- -- ----- -- ------ - ------- --- ----------<br>------------- ------ ------ ---- ---- ------- ----- -- ----<br>-------- ------- -- ---------- --- - --- ----- ----- ----<br>---- --- --- ----- --- ---- ---- ------- ----- ---- -------<br>--- --- -- ----- -- --- ---- -- --- ---- -- ------ really<br>--- ----- -- ----,143078.59999990463,143077.89999997616,142697.821,142713.59999990463,142731.223,143080.766,,51,really
screen,html.Screen,2_1_0_1_52,2022-02-02T16:08:26.974Z,,,,,,,,,,,,,,,,,53,,,,,,,,,,,,,,349.1339999761549,,response,,,,99,,,,,,,Space,keypress(Space),,,,,,,,---- -- ----- -- ------ - ------- --- ----------<br>------------- ------ ------ ---- ---- ------- ----- -- ----<br>-------- ------- -- ---------- --- - --- ----- ----- ----<br>---- --- --- ----- --- ---- ---- ------- ----- ---- -------<br>--- --- -- ----- -- --- ---- -- --- ---- -- ------ ------<br>not ----- -- ----,143430.69999992847,143429.89999997616,143064.404,143078.69999992847,143080.766,143447.455,,52,not
screen,html.Screen,2_1_0_1_53,2022-02-02T16:08:27.242Z,,,,,,,,,,,,,,,,,53,,,,,,,,,,,,,,249.74499992848723,,response,,,,99,,,,,,,Space,keypress(Space),,,,,,,,---- -- ----- -- ------ - ------- --- ----------<br>------------- ------ ------ ---- ---- ------- ----- -- ----<br>-------- ------- -- ---------- --- - --- ----- ----- ----<br>---- --- --- ----- --- ---- ---- ------- ----- ---- -------<br>--- --- -- ----- -- --- ---- -- --- ---- -- ------ ------<br>--- close -- ----,143698.39999997616,143697.19999992847,143430.973,143430.89999997616,143447.455,143713.957,,53,close
screen,html.Screen,2_1_0_1_54,2022-02-02T16:08:27.465Z,,,,,,,,,,,,,,,,,53,,,,,,,,,,,,,,206.94299997616326,,response,,,,99,,,,,,,Space,keypress(Space),,,,,,,,---- -- ----- -- ------ - ------- --- ----------<br>------------- ------ ------ ---- ---- ------- ----- -- ----<br>-------- ------- -- ---------- --- - --- ----- ----- ----<br>---- --- --- ----- --- ---- ---- ------- ----- ---- -------<br>--- --- -- ----- -- --- ---- -- --- ---- -- ------ ------<br>--- ----- at ----,143921.59999990463,143920.89999997616,143697.424,143698.79999995232,143713.957,143930.669,,54,at
screen,html.Screen,2_1_0_1_55,2022-02-02T16:08:27.815Z,,,,,,,,,,,,,,,,,53,,,,,,,,,,,,,,340.03099992848,,response,,,,99,,,,,,,Space,keypress(Space),,,,,,,,---- -- ----- -- ------ - ------- --- ----------<br>------------- ------ ------ ---- ---- ------- ----- -- ----<br>-------- ------- -- ---------- --- - --- ----- ----- ----<br>---- --- --- ----- --- ---- ---- ------- ----- ---- -------<br>--- --- -- ----- -- --- ---- -- --- ---- -- ------ ------<br>--- ----- -- all.,144271.39999997616,144270.69999992847,143913.789,143921.79999995232,143930.669,144280.319,,55,all.
Item 99,flow.Loop,2_1_0_1,2022-02-02T16:08:27.815Z,,,,,,,,,,,,,,,,,,,,,,,,,,,,,,,22049.521999928475,,completion,,,,,D,,,,,,,,,,,silence,,,,,144271.79999995232,144270.69999992847,122188.073,122189.69999992847,122221.178,144280.319,,,
Question 1,html.Screen,2_1_0_2,2022-02-02T16:08:33.206Z,,,,,,,,,,,,,,,,,,,,,,,,,,,,true,FALSE,,5380.980999952328,,response,,,,99,D,,,,,,FALSE,click #choice-2,,,,silence,,,,,149662.79999995232,149661.29999995232,144263.939,144272,144280.319,149678.716,,,
Question 2,html.Screen,2_1_0_3,2022-02-02T16:08:40.096Z,,,,,,,,,,,,,,,,,,,,,,,,,,,,true,TRUE,,6872.483999928489,,response,,,,99,D,,,,,,TRUE,click #choice-1,,,,silence,,,,,156552.39999997616,156551.19999992847,149662.09,149663.09999990463,149678.716,156559.548,,,
Item 99,flow.Sequence,2_1_0,2022-02-02T16:08:40.096Z,,,,,,,,,,,,,,,,,,,,,,,,,,,,,,,44343.31999992847,,completion,,,,,,,,,,,,,,,,,,,,,156552.69999992847,156551.19999992847,112191.435,112202.39999997616,112207.88,156559.548,,,
Holding screen,html.Screen,2_1_1_0,2022-02-02T16:08:50.085Z,,,,,,,,,,,,,,,,,,,,,,,,,,,,,,,9996.900999999983,,timeout,,,,,,,,,,,,,,,,,,,,,166540.89999997616,166539.821,156543.201,156552.89999997616,156559.548,166556.449,,,
screen,html.Screen,2_1_1_1_0,2022-02-02T16:08:50.676Z,,,,,,,,,,,,,,,,,54,,,,,,,,,,,,,,574.5510000000068,,response,,,,100,,,,,,,Space,keypress(Space),,,,,,,,At --- ---- --- ------ ----- ------- ---- -- --- ------- --<br>------- ---------- ------ -- ----- -- ----- -- ---- ------<br>--- ----- --- --- ------ -------- ----- --- ------ ----- --<br>----- ----- ---------- --- --- ------ ------ ---- -- ------<br>------- --- ------ ----- --- ---- ------- -- ---- --- --<br>------- ------,167131.89999997616,167131,166539.821,166541.19999992847,166556.449,167139.428,,0,At
screen,html.Screen,2_1_1_1_1,2022-02-02T16:08:51.112Z,,,,,,,,,,,,,,,,,54,,,,,,,,,,,,,,428.17199990461813,,response,,,,100,,,,,,,Space,keypress(Space),,,,,,,,-- the ---- --- ------ ----- ------- ---- -- --- ------- --<br>------- ---------- ------ -- ----- -- ----- -- ---- ------<br>--- ----- --- --- ------ -------- ----- --- ------ ----- --<br>----- ----- ---------- --- --- ------ ------ ---- -- ------<br>------- --- ------ ----- --- ---- ------- -- ---- --- --<br>------- ------,167568.39999997616,167567.59999990463,167122.851,167132.09999990463,167139.428,167572.491,,1,the
screen,html.Screen,2_1_1_1_2,2022-02-02T16:08:51.474Z,,,,,,,,,,,,,,,,,54,,,,,,,,,,,,,,356.90899997614906,,response,,,,100,,,,,,,Space,keypress(Space),,,,,,,,-- --- time --- ------ ----- ------- ---- -- --- ------- --<br>------- ---------- ------ -- ----- -- ----- -- ---- ------<br>--- ----- --- --- ------ -------- ----- --- ------ ----- --<br>----- ----- ---------- --- --- ------ ------ ---- -- ------<br>------- --- ------ ----- --- ---- ------- -- ---- --- --<br>------- ------,167930,167929.39999997616,167556.141,167568.5,167572.491,167939.278,,2,time
screen,html.Screen,2_1_1_1_3,2022-02-02T16:08:51.829Z,,,,,,,,,,,,,,,,,54,,,,,,,,,,,,,,345.3219999046414,,response,,,,100,,,,,,,Space,keypress(Space),,,,,,,,-- --- ---- the ------ ----- ------- ---- -- --- ------- --<br>------- ---------- ------ -- ----- -- ----- -- ---- ------<br>--- ----- --- --- ------ -------- ----- --- ------ ----- --<br>----- ----- ---------- --- --- ------ ------ ---- -- ------<br>------- --- ------ ----- --- ---- ------- -- ---- --- --<br>------- ------,168285.29999995232,168284.59999990463,167922.691,167930.19999992847,167939.278,168288.905,,3,the
screen,html.Screen,2_1_1_1_4,2022-02-02T16:08:52.155Z,,,,,,,,,,,,,,,,,54,,,,,,,,,,,,,,321.69499990463373,,response,,,,100,,,,,,,Space,keypress(Space),,,,,,,,-- --- ---- --- French ----- ------- ---- -- --- ------- --<br>------- ---------- ------ -- ----- -- ----- -- ---- ------<br>--- ----- --- --- ------ -------- ----- --- ------ ----- --<br>----- ----- ---------- --- --- ------ ------ ---- -- ------<br>------- --- ------ ----- --- ---- ------- -- ---- --- --<br>------- ------,168611.5,168610.59999990463,168272.565,168285.5,168288.905,168622.473,,4,French
screen,html.Screen,2_1_1_1_5,2022-02-02T16:08:52.602Z,,,,,,,,,,,,,,,,,54,,,,,,,,,,,,,,434.62699990463443,,response,,,,100,,,,,,,Space,keypress(Space),,,,,,,,-- --- ---- --- ------ crown ------- ---- -- --- ------- --<br>------- ---------- ------ -- ----- -- ----- -- ---- ------<br>--- ----- --- --- ------ -------- ----- --- ------ ----- --<br>----- ----- ---------- --- --- ------ ------ ---- -- ------<br>------- --- ------ ----- --- ---- ------- -- ---- --- --<br>------- ------,169057.79999995232,169057.09999990463,168605.769,168611.69999992847,168622.473,169072.26,,5,crown
screen,html.Screen,2_1_1_1_6,2022-02-02T16:08:52.963Z,,,,,,,,,,,,,,,,,54,,,,,,,,,,,,,,346.03999995230697,,response,,,,100,,,,,,,Space,keypress(Space),,,,,,,,-- --- ---- --- ------ ----- secured ---- -- --- ------- --<br>------- ---------- ------ -- ----- -- ----- -- ---- ------<br>--- ----- --- --- ------ -------- ----- --- ------ ----- --<br>----- ----- ---------- --- --- ------ ------ ---- -- ------<br>------- --- ------ ----- --- ---- ------- -- ---- --- --<br>------- ------,169419.09999990463,169418.29999995232,169055.306,169058.09999990463,169072.26,169421.923,,6,secured
screen,html.Screen,2_1_1_1_7,2022-02-02T16:08:53.302Z,,,,,,,,,,,,,,,,,54,,,,,,,,,,,,,,335.77699992846465,,response,,,,100,,,,,,,Space,keypress(Space),,,,,,,,-- --- ---- --- ------ ----- ------- much -- --- ------- --<br>------- ---------- ------ -- ----- -- ----- -- ---- ------<br>--- ----- --- --- ------ -------- ----- --- ------ ----- --<br>----- ----- ---------- --- --- ------ ------ ---- -- ------<br>------- --- ------ ----- --- ---- ------- -- ---- --- --<br>------- ------,169758.39999997616,169757.69999992847,169405.328,169419.29999995232,169421.923,169772.144,,7,much
screen,html.Screen,2_1_1_1_8,2022-02-02T16:08:53.674Z,,,,,,,,,,,,,,,,,54,,,,,,,,,,,,,,357.45599990463234,,response,,,,100,,,,,,,Space,keypress(Space),,,,,,,,-- --- ---- --- ------ ----- ------- ---- of --- ------- --<br>------- ---------- ------ -- ----- -- ----- -- ---- ------<br>--- ----- --- --- ------ -------- ----- --- ------ ----- --<br>----- ----- ---------- --- --- ------ ------ ---- -- ------<br>------- --- ------ ----- --- ---- ------- -- ---- --- --<br>------- ------,170130.39999997616,170129.59999990463,169755.118,169758.59999990463,169772.144,170138.29,,8,of
screen,html.Screen,2_1_1_1_9,2022-02-02T16:08:53.955Z,,,,,,,,,,,,,,,,,54,,,,,,,,,,,,,,272.20999999999185,,response,,,,100,,,,,,,Space,keypress(Space),,,,,,,,-- --- ---- --- ------ ----- ------- ---- -- its ------- --<br>------- ---------- ------ -- ----- -- ----- -- ---- ------<br>--- ----- --- --- ------ -------- ----- --- ------ ----- --<br>----- ----- ---------- --- --- ------ ------ ---- -- ------<br>------- --- ------ ----- --- ---- ------- -- ---- --- --<br>------- ------,170411.29999995232,170410.5,170121.626,170130.69999992847,170138.29,170421.878,,9,its
screen,html.Screen,2_1_1_1_10,2022-02-02T16:08:54.312Z,,,,,,,,,,,,,,,,,54,,,,,,,,,,,,,,345.52199997616117,,response,,,,100,,,,,,,Space,keypress(Space),,,,,,,,-- --- ---- --- ------ ----- ------- ---- -- --- revenue --<br>------- ---------- ------ -- ----- -- ----- -- ---- ------<br>--- ----- --- --- ------ -------- ----- --- ------ ----- --<br>----- ----- ---------- --- --- ------ ------ ---- -- ------<br>------- --- ------ ----- --- ---- ------- -- ---- --- --<br>------- ------,170768.19999992847,170767.39999997616,170405.147,170411.5,170421.878,170771.409,,10,revenue
screen,html.Screen,2_1_1_1_11,2022-02-02T16:08:54.731Z,,,,,,,,,,,,,,,,,54,,,,,,,,,,,,,,415.49099997614394,,response,,,,100,,,,,,,Space,keypress(Space),,,,,,,,-- --- ---- --- ------ ----- ------- ---- -- --- ------- by<br>------- ---------- ------ -- ----- -- ----- -- ---- ------<br>--- ----- --- --- ------ -------- ----- --- ------ ----- --<br>----- ----- ---------- --- --- ------ ------ ---- -- ------<br>------- --- ------ ----- --- ---- ------- -- ---- --- --<br>------- ------,171187.5,171186.89999997616,170755.091,170768.29999995232,170771.409,171204.61,,11,by
screen,html.Screen,2_1_1_1_12,2022-02-02T16:08:55.090Z,,,,,,,,,,,,,,,,,54,,,,,,,,,,,,,,341.0899999284884,,response,,,,100,,,,,,,Space,keypress(Space),,,,,,,,-- --- ---- --- ------ ----- ------- ---- -- --- ------- --<br>issuing ---------- ------ -- ----- -- ----- -- ---- ------<br>--- ----- --- --- ------ -------- ----- --- ------ ----- --<br>----- ----- ---------- --- --- ------ ------ ---- -- ------<br>------- --- ------ ----- --- ---- ------- -- ---- --- --<br>------- ------,171546.39999997616,171545.69999992847,171171.596,171187.59999990463,171204.61,171554.418,,12,issuing
screen,html.Screen,2_1_1_1_13,2022-02-02T16:08:55.429Z,,,,,,,,,,,,,,,,,54,,,,,,,,,,,,,,330.2819999284693,,response,,,,100,,,,,,,Space,keypress(Space),,,,,,,,-- --- ---- --- ------ ----- ------- ---- -- --- ------- --<br>------- government ------ -- ----- -- ----- -- ---- ------<br>--- ----- --- --- ------ -------- ----- --- ------ ----- --<br>----- ----- ---------- --- --- ------ ------ ---- -- ------<br>------- --- ------ ----- --- ---- ------- -- ---- --- --<br>------- ------,171885.5,171884.69999992847,171537.971,171546.59999990463,171554.418,171887.695,,13,government
screen,html.Screen,2_1_1_1_14,2022-02-02T16:08:55.770Z,,,,,,,,,,,,,,,,,54,,,,,,,,,,,,,,338.00499992846744,,response,,,,100,,,,,,,Space,keypress(Space),,,,,,,,-- --- ---- --- ------ ----- ------- ---- -- --- ------- --<br>------- ---------- bonds. -- ----- -- ----- -- ---- ------<br>--- ----- --- --- ------ -------- ----- --- ------ ----- --<br>----- ----- ---------- --- --- ------ ------ ---- -- ------<br>------- --- ------ ----- --- ---- ------- -- ---- --- --<br>------- ------,172226.59999990463,172225.69999992847,171871.201,171885.69999992847,171887.695,172237.829,,14,bonds.
screen,html.Screen,2_1_1_1_15,2022-02-02T16:08:56.249Z,,,,,,,,,,,,,,,,,54,,,,,,,,,,,,,,466.8709999284765,,response,,,,100,,,,,,,Space,keypress(Space),,,,,,,,-- --- ---- --- ------ ----- ------- ---- -- --- ------- --<br>------- ---------- ------ In ----- -- ----- -- ---- ------<br>--- ----- --- --- ------ -------- ----- --- ------ ----- --<br>----- ----- ---------- --- --- ------ ------ ---- -- ------<br>------- --- ------ ----- --- ---- ------- -- ---- --- --<br>------- ------,172705.5,172704.69999992847,172221.223,172226.69999992847,172237.829,172721.114,,15,In
screen,html.Screen,2_1_1_1_16,2022-02-02T16:08:56.833Z,,,,,,,,,,,,,,,,,54,,,,,,,,,,,,,,567.8859999999986,,response,,,,100,,,,,,,Space,keypress(Space),,,,,,,,"-- --- ---- --- ------ ----- ------- ---- -- --- ------- --<br>------- ---------- ------ -- 1727, -- ----- -- ---- ------<br>--- ----- --- --- ------ -------- ----- --- ------ ----- --<br>----- ----- ---------- --- --- ------ ------ ---- -- ------<br>------- --- ------ ----- --- ---- ------- -- ---- --- --<br>------- ------",173289.79999995232,173289,172704.351,172705.69999992847,172721.114,173304.215,,16,"1727,"
screen,html.Screen,2_1_1_1_17,2022-02-02T16:08:57.309Z,,,,,,,,,,,,,,,,,54,,,,,,,,,,,,,,460.2850000000035,,response,,,,100,,,,,,,Space,keypress(Space),,,,,,,,-- --- ---- --- ------ ----- ------- ---- -- --- ------- --<br>------- ---------- ------ -- ----- in ----- -- ---- ------<br>--- ----- --- --- ------ -------- ----- --- ------ ----- --<br>----- ----- ---------- --- --- ------ ------ ---- -- ------<br>------- --- ------ ----- --- ---- ------- -- ---- --- --<br>------- ------,173765.19999992847,173764.5,173287.483,173290,173304.215,173770.603,,17,in
screen,html.Screen,2_1_1_1_18,2022-02-02T16:08:57.685Z,,,,,,,,,,,,,,,,,54,,,,,,,,,,,,,,369.9969999046298,,response,,,,100,,,,,,,Space,keypress(Space),,,,,,,,-- --- ---- --- ------ ----- ------- ---- -- --- ------- --<br>------- ---------- ------ -- ----- -- order -- ---- ------<br>--- ----- --- --- ------ -------- ----- --- ------ ----- --<br>----- ----- ---------- --- --- ------ ------ ---- -- ------<br>------- --- ------ ----- --- ---- ------- -- ---- --- --<br>------- ------,174141.39999997616,174140.59999990463,173753.764,173765.29999995232,173770.603,174153.887,,18,order
screen,html.Screen,2_1_1_1_19,2022-02-02T16:08:58.253Z,,,,,,,,,,,,,,,,,54,,,,,,,,,,,,,,554.7129999046447,,response,,,,100,,,,,,,Space,keypress(Space),,,,,,,,-- --- ---- --- ------ ----- ------- ---- -- --- ------- --<br>------- ---------- ------ -- ----- -- ----- to ---- ------<br>--- ----- --- --- ------ -------- ----- --- ------ ----- --<br>----- ----- ---------- --- --- ------ ------ ---- -- ------<br>------- --- ------ ----- --- ---- ------- -- ---- --- --<br>------- ------,174709.29999995232,174708.59999990463,174136.963,174141.69999992847,174153.887,174720.329,,19,to
screen,html.Screen,2_1_1_1_20,2022-02-02T16:08:58.569Z,,,,,,,,,,,,,,,,,54,,,,,,,,,,,,,,303.9709999523184,,response,,,,100,,,,,,,Space,keypress(Space),,,,,,,,-- --- ---- --- ------ ----- ------- ---- -- --- ------- --<br>------- ---------- ------ -- ----- -- ----- -- save ------<br>--- ----- --- --- ------ -------- ----- --- ------ ----- --<br>----- ----- ---------- --- --- ------ ------ ---- -- ------<br>------- --- ------ ----- --- ---- ------- -- ---- --- --<br>------- ------,175025.09999990463,175024.29999995232,174703.444,174709.5,174720.329,175036.674,,20,save
screen,html.Screen,2_1_1_1_21,2022-02-02T16:08:58.927Z,,,,,,,,,,,,,,,,,54,,,,,,,,,,,,,,345.82600000000093,,response,,,,100,,,,,,,Space,keypress(Space),,,,,,,,"-- --- ---- --- ------ ----- ------- ---- -- --- ------- --<br>------- ---------- ------ -- ----- -- ----- -- ---- money,<br>--- ----- --- --- ------ -------- ----- --- ------ ----- --<br>----- ----- ---------- --- --- ------ ------ ---- -- ------<br>------- --- ------ ----- --- ---- ------- -- ---- --- --<br>------- ------",175383.29999995232,175382.5,175020.331,175025.29999995232,175036.674,175386.526,,21,"money,"
screen,html.Screen,2_1_1_1_22,2022-02-02T16:08:59.314Z,,,,,,,,,,,,,,,,,54,,,,,,,,,,,,,,383.17399992846185,,response,,,,100,,,,,,,Space,keypress(Space),,,,,,,,-- --- ---- --- ------ ----- ------- ---- -- --- ------- --<br>------- ---------- ------ -- ----- -- ----- -- ---- ------<br>the ----- --- --- ------ -------- ----- --- ------ ----- --<br>----- ----- ---------- --- --- ------ ------ ---- -- ------<br>------- --- ------ ----- --- ---- ------- -- ---- --- --<br>------- ------,175770.5,175769.69999992847,175370.099,175383.59999990463,175386.526,175786.448,,22,the
screen,html.Screen,2_1_1_1_23,2022-02-02T16:08:59.602Z,,,,,,,,,,,,,,,,,54,,,,,,,,,,,,,,271.3519999523123,,response,,,,100,,,,,,,Space,keypress(Space),,,,,,,,-- --- ---- --- ------ ----- ------- ---- -- --- ------- --<br>------- ---------- ------ -- ----- -- ----- -- ---- ------<br>--- state --- --- ------ -------- ----- --- ------ ----- --<br>----- ----- ---------- --- --- ------ ------ ---- -- ------<br>------- --- ------ ----- --- ---- ------- -- ---- --- --<br>------- ------,176058.59999990463,176057.79999995232,175769.781,175770.69999992847,175786.448,176069.701,,23,state
screen,html.Screen,2_1_1_1_24,2022-02-02T16:08:59.926Z,,,,,,,,,,,,,,,,,54,,,,,,,,,,,,,,312.39899990463164,,response,,,,100,,,,,,,Space,keypress(Space),,,,,,,,-- --- ---- --- ------ ----- ------- ---- -- --- ------- --<br>------- ---------- ------ -- ----- -- ----- -- ---- ------<br>--- ----- cut --- ------ -------- ----- --- ------ ----- --<br>----- ----- ---------- --- --- ------ ------ ---- -- ------<br>------- --- ------ ----- --- ---- ------- -- ---- --- --<br>------- ------,176382.69999992847,176382.09999990463,176053.174,176058.79999995232,176069.701,176386.163,,24,cut
screen,html.Screen,2_1_1_1_25,2022-02-02T16:09:00.275Z,,,,,,,,,,,,,,,,,54,,,,,,,,,,,,,,344.2369999761577,,response,,,,100,,,,,,,Space,keypress(Space),,,,,,,,-- --- ---- --- ------ ----- ------- ---- -- --- ------- --<br>------- ---------- ------ -- ----- -- ----- -- ---- ------<br>--- ----- --- the ------ -------- ----- --- ------ ----- --<br>----- ----- ---------- --- --- ------ ------ ---- -- ------<br>------- --- ------ ----- --- ---- ------- -- ---- --- --<br>------- ------,176731.09999990463,176730.39999997616,176369.518,176382.79999995232,176386.163,176736.151,,25,the
screen,html.Screen,2_1_1_1_26,2022-02-02T16:09:00.667Z,,,,,,,,,,,,,,,,,54,,,,,,,,,,,,,,385.94899990462,,response,,,,100,,,,,,,Space,keypress(Space),,,,,,,,-- --- ---- --- ------ ----- ------- ---- -- --- ------- --<br>------- ---------- ------ -- ----- -- ----- -- ---- ------<br>--- ----- --- --- bonds' -------- ----- --- ------ ----- --<br>----- ----- ---------- --- --- ------ ------ ---- -- ------<br>------- --- ------ ----- --- ---- ------- -- ---- --- --<br>------- ------,177122.89999997616,177122.09999990463,176719.635,176731.19999992847,176736.151,177136.194,,26,bonds'
screen,html.Screen,2_1_1_1_27,2022-02-02T16:09:01.087Z,,,,,,,,,,,,,,,,,54,,,,,,,,,,,,,,406.1059999523277,,response,,,,100,,,,,,,Space,keypress(Space),,,,,,,,-- --- ---- --- ------ ----- ------- ---- -- --- ------- --<br>------- ---------- ------ -- ----- -- ----- -- ---- ------<br>--- ----- --- --- ------ interest ----- --- ------ ----- --<br>----- ----- ---------- --- --- ------ ------ ---- -- ------<br>------- --- ------ ----- --- ---- ------- -- ---- --- --<br>------- ------,177543.09999990463,177542.29999995232,177119.473,177123.09999990463,177136.194,177552.635,,27,interest
screen,html.Screen,2_1_1_1_28,2022-02-02T16:09:01.384Z,,,,,,,,,,,,,,,,,54,,,,,,,,,,,,,,286.66499995230697,,response,,,,100,,,,,,,Space,keypress(Space),,,,,,,,-- --- ---- --- ------ ----- ------- ---- -- --- ------- --<br>------- ---------- ------ -- ----- -- ----- -- ---- ------<br>--- ----- --- --- ------ -------- rate. --- ------ ----- --<br>----- ----- ---------- --- --- ------ ------ ---- -- ------<br>------- --- ------ ----- --- ---- ------- -- ---- --- --<br>------- ------,177840,177839.29999995232,177535.989,177543.19999992847,177552.635,177852.699,,28,rate.
screen,html.Screen,2_1_1_1_29,2022-02-02T16:09:01.760Z,,,,,,,,,,,,,,,,,54,,,,,,,,,,,,,,363.30100000000675,,response,,,,100,,,,,,,Space,keypress(Space),,,,,,,,-- --- ---- --- ------ ----- ------- ---- -- --- ------- --<br>------- ---------- ------ -- ----- -- ----- -- ---- ------<br>--- ----- --- --- ------ -------- ----- The ------ ----- --<br>----- ----- ---------- --- --- ------ ------ ---- -- ------<br>------- --- ------ ----- --- ---- ------- -- ---- --- --<br>------- ------,178216.79999995232,178216,177836.019,177840.19999992847,177852.699,178218.891,,29,The
screen,html.Screen,2_1_1_1_30,2022-02-02T16:09:02.152Z,,,,,,,,,,,,,,,,,54,,,,,,,,,,,,,,388.80899992847117,,response,,,,100,,,,,,,Space,keypress(Space),,,,,,,,-- --- ---- --- ------ ----- ------- ---- -- --- ------- --<br>------- ---------- ------ -- ----- -- ----- -- ---- ------<br>--- ----- --- --- ------ -------- ----- --- market ----- --<br>----- ----- ---------- --- --- ------ ------ ---- -- ------<br>------- --- ------ ----- --- ---- ------- -- ---- --- --<br>------- ------,178608.5,178607.69999992847,178202.52,178216.89999997616,178218.891,178619.089,,30,market
screen,html.Screen,2_1_1_1_31,2022-02-02T16:09:02.460Z,,,,,,,,,,,,,,,,,54,,,,,,,,,,,,,,296.01099990462535,,response,,,,100,,,,,,,Space,keypress(Space),,,,,,,,-- --- ---- --- ------ ----- ------- ---- -- --- ------- --<br>------- ---------- ------ -- ----- -- ----- -- ---- ------<br>--- ----- --- --- ------ -------- ----- --- ------ value --<br>----- ----- ---------- --- --- ------ ------ ---- -- ------<br>------- --- ------ ----- --- ---- ------- -- ---- --- --<br>------- ------,178915.89999997616,178915.09999990463,178602.424,178608.69999992847,178619.089,178918.718,,31,value
screen,html.Screen,2_1_1_1_32,2022-02-02T16:09:02.818Z,,,,,,,,,,,,,,,,,54,,,,,,,,,,,,,,354.7820000000065,,response,,,,100,,,,,,,Space,keypress(Space),,,,,,,,-- --- ---- --- ------ ----- ------- ---- -- --- ------- --<br>------- ---------- ------ -- ----- -- ----- -- ---- ------<br>--- ----- --- --- ------ -------- ----- --- ------ ----- of<br>----- ----- ---------- --- --- ------ ------ ---- -- ------<br>------- --- ------ ----- --- ---- ------- -- ---- --- --<br>------- ------,179274.19999992847,179273.5,178902.251,178916.19999992847,178918.718,179285.505,,32,of
screen,html.Screen,2_1_1_1_33,2022-02-02T16:09:03.141Z,,,,,,,,,,,,,,,,,54,,,,,,,,,,,,,,311.3949999761535,,response,,,,100,,,,,,,Space,keypress(Space),,,,,,,,-- --- ---- --- ------ ----- ------- ---- -- --- ------- --<br>------- ---------- ------ -- ----- -- ----- -- ---- ------<br>--- ----- --- --- ------ -------- ----- --- ------ ----- --<br>these ----- ---------- --- --- ------ ------ ---- -- ------<br>------- --- ------ ----- --- ---- ------- -- ---- --- --<br>------- ------,179597.69999992847,179596.89999997616,179268.954,179274.39999997616,179285.505,179601.809,,33,these
screen,html.Screen,2_1_1_1_34,2022-02-02T16:09:03.431Z,,,,,,,,,,,,,,,,,54,,,,,,,,,,,,,,284.9909999523079,,response,,,,100,,,,,,,Space,keypress(Space),,,,,,,,-- --- ---- --- ------ ----- ------- ---- -- --- ------- --<br>------- ---------- ------ -- ----- -- ----- -- ---- ------<br>--- ----- --- --- ------ -------- ----- --- ------ ----- --<br>----- bonds ---------- --- --- ------ ------ ---- -- ------<br>------- --- ------ ----- --- ---- ------- -- ---- --- --<br>------- ------,179887.59999990463,179886.79999995232,179585.308,179597.89999997616,179601.809,179902.055,,34,bonds
screen,html.Screen,2_1_1_1_35,2022-02-02T16:09:03.739Z,,,,,,,,,,,,,,,,,54,,,,,,,,,,,,,,292.54499990463955,,response,,,,100,,,,,,,Space,keypress(Space),,,,,,,,"-- --- ---- --- ------ ----- ------- ---- -- --- ------- --<br>------- ---------- ------ -- ----- -- ----- -- ---- ------<br>--- ----- --- --- ------ -------- ----- --- ------ ----- --<br>----- ----- plummeted, --- --- ------ ------ ---- -- ------<br>------- --- ------ ----- --- ---- ------- -- ---- --- --<br>------- ------",180195.29999995232,180194.59999990463,179885.461,179887.69999992847,179902.055,180201.802,,35,"plummeted,"
screen,html.Screen,2_1_1_1_36,2022-02-02T16:09:03.965Z,,,,,,,,,,,,,,,,,54,,,,,,,,,,,,,,218.29799990463653,,response,,,,100,,,,,,,Space,keypress(Space),,,,,,,,-- --- ---- --- ------ ----- ------- ---- -- --- ------- --<br>------- ---------- ------ -- ----- -- ----- -- ---- ------<br>--- ----- --- --- ------ -------- ----- --- ------ ----- --<br>----- ----- ---------- and --- ------ ------ ---- -- ------<br>------- --- ------ ----- --- ---- ------- -- ---- --- --<br>------- ------,180420.89999997616,180420.09999990463,180185.049,180195.5,180201.802,180435.211,,36,and
screen,html.Screen,2_1_1_1_37,2022-02-02T16:09:04.234Z,,,,,,,,,,,,,,,,,54,,,,,,,,,,,,,,254.58899995230604,,response,,,,100,,,,,,,Space,keypress(Space),,,,,,,,-- --- ---- --- ------ ----- ------- ---- -- --- ------- --<br>------- ---------- ------ -- ----- -- ----- -- ---- ------<br>--- ----- --- --- ------ -------- ----- --- ------ ----- --<br>----- ----- ---------- --- the ------ ------ ---- -- ------<br>------- --- ------ ----- --- ---- ------- -- ---- --- --<br>------- ------,180690.5,180689.79999995232,180418.468,180421.09999990463,180435.211,180701.735,,37,the
screen,html.Screen,2_1_1_1_38,2022-02-02T16:09:04.489Z,,,,,,,,,,,,,,,,,54,,,,,,,,,,,,,,243.1649999761721,,response,,,,100,,,,,,,Space,keypress(Space),,,,,,,,-- --- ---- --- ------ ----- ------- ---- -- --- ------- --<br>------- ---------- ------ -- ----- -- ----- -- ---- ------<br>--- ----- --- --- ------ -------- ----- --- ------ ----- --<br>----- ----- ---------- --- --- market ------ ---- -- ------<br>------- --- ------ ----- --- ---- ------- -- ---- --- --<br>------- ------,180945.79999995232,180944.89999997616,180684.924,180690.79999995232,180701.735,180951.293,,38,market
screen,html.Screen,2_1_1_1_39,2022-02-02T16:09:04.726Z,,,,,,,,,,,,,,,,,54,,,,,,,,,,,,,,230.50699995231116,,response,,,,100,,,,,,,Space,keypress(Space),,,,,,,,-- --- ---- --- ------ ----- ------- ---- -- --- ------- --<br>------- ---------- ------ -- ----- -- ----- -- ---- ------<br>--- ----- --- --- ------ -------- ----- --- ------ ----- --<br>----- ----- ---------- --- --- ------ became ---- -- ------<br>------- --- ------ ----- --- ---- ------- -- ---- --- --<br>------- ------,181182.59999990463,181181.79999995232,180935.004,180946,180951.293,181215.455,,39,became
screen,html.Screen,2_1_1_1_40,2022-02-02T16:09:05.064Z,,,,,,,,,,,,,,,,,54,,,,,,,,,,,,,,304.44499997617095,,response,,,,100,,,,,,,Space,keypress(Space),,,,,,,,-- --- ---- --- ------ ----- ------- ---- -- --- ------- --<br>------- ---------- ------ -- ----- -- ----- -- ---- ------<br>--- ----- --- --- ------ -------- ----- --- ------ ----- --<br>----- ----- ---------- --- --- ------ ------ wary -- ------<br>------- --- ------ ----- --- ---- ------- -- ---- --- --<br>------- ------,181520.79999995232,181519.89999997616,181168.184,181182.79999995232,181215.455,181534.607,,40,wary
screen,html.Screen,2_1_1_1_41,2022-02-02T16:09:05.443Z,,,,,,,,,,,,,,,,,54,,,,,,,,,,,,,,363.89300000001094,,response,,,,100,,,,,,,Space,keypress(Space),,,,,,,,-- --- ---- --- ------ ----- ------- ---- -- --- ------- --<br>------- ---------- ------ -- ----- -- ----- -- ---- ------<br>--- ----- --- --- ------ -------- ----- --- ------ ----- --<br>----- ----- ---------- --- --- ------ ------ ---- of ------<br>------- --- ------ ----- --- ---- ------- -- ---- --- --<br>------- ------,181899.29999995232,181898.5,181518.101,181521,181534.607,181925.743,,41,of
screen,html.Screen,2_1_1_1_42,2022-02-02T16:09:05.674Z,,,,,,,,,,,,,,,,,54,,,,,,,,,,,,,,203.95699992848677,,response,,,,100,,,,,,,Space,keypress(Space),,,,,,,,-- --- ---- --- ------ ----- ------- ---- -- --- ------- --<br>------- ---------- ------ -- ----- -- ----- -- ---- ------<br>--- ----- --- --- ------ -------- ----- --- ------ ----- --<br>----- ----- ---------- --- --- ------ ------ ---- -- French<br>------- --- ------ ----- --- ---- ------- -- ---- --- --<br>------- ------,182130.39999997616,182129.69999992847,181884.476,181899.5,181925.743,182134.239,,42,French
screen,html.Screen,2_1_1_1_43,2022-02-02T16:09:06.092Z,,,,,,,,,,,,,,,,,54,,,,,,,,,,,,,,412.96099992847303,,response,,,,100,,,,,,,Space,keypress(Space),,,,,,,,-- --- ---- --- ------ ----- ------- ---- -- --- ------- --<br>------- ---------- ------ -- ----- -- ----- -- ---- ------<br>--- ----- --- --- ------ -------- ----- --- ------ ----- --<br>----- ----- ---------- --- --- ------ ------ ---- -- ------<br>credit. --- ------ ----- --- ---- ------- -- ---- --- --<br>------- ------,182548.09999990463,182547.19999992847,182117.97,182130.59999990463,182134.239,182550.767,,43,credit.
screen,html.Screen,2_1_1_1_44,2022-02-02T16:09:06.487Z,,,,,,,,,,,,,,,,,54,,,,,,,,,,,,,,391.83299990464,,response,,,,100,,,,,,,Space,keypress(Space),,,,,,,,-- --- ---- --- ------ ----- ------- ---- -- --- ------- --<br>------- ---------- ------ -- ----- -- ----- -- ---- ------<br>--- ----- --- --- ------ -------- ----- --- ------ ----- --<br>----- ----- ---------- --- --- ------ ------ ---- -- ------<br>------- The ------ ----- --- ---- ------- -- ---- --- --<br>------- ------,182943.59999990463,182942.59999990463,182534.274,182548.19999992847,182550.767,182950.775,,44,The
screen,html.Screen,2_1_1_1_45,2022-02-02T16:09:06.778Z,,,,,,,,,,,,,,,,,54,,,,,,,,,,,,,,282.62499997616396,,response,,,,100,,,,,,,Space,keypress(Space),,,,,,,,-- --- ---- --- ------ ----- ------- ---- -- --- ------- --<br>------- ---------- ------ -- ----- -- ----- -- ---- ------<br>--- ----- --- --- ------ -------- ----- --- ------ ----- --<br>----- ----- ---------- --- --- ------ ------ ---- -- ------<br>------- --- French ----- --- ---- ------- -- ---- --- --<br>------- ------,183234.19999992847,183233.39999997616,182934.408,182943.69999992847,182950.775,183250.904,,45,French
screen,html.Screen,2_1_1_1_46,2022-02-02T16:09:07.095Z,,,,,,,,,,,,,,,,,54,,,,,,,,,,,,,,299.695999904623,,response,,,,100,,,,,,,Space,keypress(Space),,,,,,,,-- --- ---- --- ------ ----- ------- ---- -- --- ------- --<br>------- ---------- ------ -- ----- -- ----- -- ---- ------<br>--- ----- --- --- ------ -------- ----- --- ------ ----- --<br>----- ----- ---------- --- --- ------ ------ ---- -- ------<br>------- --- ------ state --- ---- ------- -- ---- --- --<br>------- ------,183551.59999990463,183550.59999990463,183234.229,183234.39999997616,183250.904,183567.16,,46,state
screen,html.Screen,2_1_1_1_47,2022-02-02T16:09:07.403Z,,,,,,,,,,,,,,,,,54,,,,,,,,,,,,,,291.4399999046291,,response,,,,100,,,,,,,Space,keypress(Space),,,,,,,,-- --- ---- --- ------ ----- ------- ---- -- --- ------- --<br>------- ---------- ------ -- ----- -- ----- -- ---- ------<br>--- ----- --- --- ------ -------- ----- --- ------ ----- --<br>----- ----- ---------- --- --- ------ ------ ---- -- ------<br>------- --- ------ ----- was ---- ------- -- ---- --- --<br>------- ------,183859.29999995232,183858.59999990463,183550.75,183551.79999995232,183567.16,183867.099,,47,was
screen,html.Screen,2_1_1_1_48,2022-02-02T16:09:07.730Z,,,,,,,,,,,,,,,,,54,,,,,,,,,,,,,,318.20099995232886,,response,,,,100,,,,,,,Space,keypress(Space),,,,,,,,-- --- ---- --- ------ ----- ------- ---- -- --- ------- --<br>------- ---------- ------ -- ----- -- ----- -- ---- ------<br>--- ----- --- --- ------ -------- ----- --- ------ ----- --<br>----- ----- ---------- --- --- ------ ------ ---- -- ------<br>------- --- ------ ----- --- left ------- -- ---- --- --<br>------- ------,184185.79999995232,184185.29999995232,183850.598,183859.5,183867.099,184200.136,,48,left
screen,html.Screen,2_1_1_1_49,2022-02-02T16:09:08.074Z,,,,,,,,,,,,,,,,,54,,,,,,,,,,,,,,329.5639999284758,,response,,,,100,,,,,,,Space,keypress(Space),,,,,,,,-- --- ---- --- ------ ----- ------- ---- -- --- ------- --<br>------- ---------- ------ -- ----- -- ----- -- ---- ------<br>--- ----- --- --- ------ -------- ----- --- ------ ----- --<br>----- ----- ---------- --- --- ------ ------ ---- -- ------<br>------- --- ------ ----- --- ---- without -- ---- --- --<br>------- ------,184530.5,184529.69999992847,184183.805,184185.89999997616,184200.136,184533.447,,49,without
screen,html.Screen,2_1_1_1_50,2022-02-02T16:09:08.347Z,,,,,,,,,,,,,,,,,54,,,,,,,,,,,,,,268.652999904647,,response,,,,100,,,,,,,Space,keypress(Space),,,,,,,,-- --- ---- --- ------ ----- ------- ---- -- --- ------- --<br>------- ---------- ------ -- ----- -- ----- -- ---- ------<br>--- ----- --- --- ------ -------- ----- --- ------ ----- --<br>----- ----- ---------- --- --- ------ ------ ---- -- ------<br>------- --- ------ ----- --- ---- ------- an ---- --- --<br>------- ------,184803,184802.09999990463,184516.676,184530.69999992847,184533.447,184816.875,,50,an
screen,html.Screen,2_1_1_1_51,2022-02-02T16:09:08.648Z,,,,,,,,,,,,,,,,,54,,,,,,,,,,,,,,286.3249999284744,,response,,,,100,,,,,,,Space,keypress(Space),,,,,,,,-- --- ---- --- ------ ----- ------- ---- -- --- ------- --<br>------- ---------- ------ -- ----- -- ----- -- ---- ------<br>--- ----- --- --- ------ -------- ----- --- ------ ----- --<br>----- ----- ---------- --- --- ------ ------ ---- -- ------<br>------- --- ------ ----- --- ---- ------- -- easy --- --<br>------- ------,185104,185103.19999992847,184800.183,184804.19999992847,184816.875,185116.587,,51,easy
screen,html.Screen,2_1_1_1_52,2022-02-02T16:09:08.871Z,,,,,,,,,,,,,,,,,54,,,,,,,,,,,,,,209.8129999761586,,response,,,,100,,,,,,,Space,keypress(Space),,,,,,,,-- --- ---- --- ------ ----- ------- ---- -- --- ------- --<br>------- ---------- ------ -- ----- -- ----- -- ---- ------<br>--- ----- --- --- ------ -------- ----- --- ------ ----- --<br>----- ----- ---------- --- --- ------ ------ ---- -- ------<br>------- --- ------ ----- --- ---- ------- -- ---- way --<br>------- ------,185327.09999990463,185326.39999997616,185100.118,185104.19999992847,185116.587,185333.235,,52,way
screen,html.Screen,2_1_1_1_53,2022-02-02T16:09:09.243Z,,,,,,,,,,,,,,,,,54,,,,,,,,,,,,,,365.36499990464654,,response,,,,100,,,,,,,Space,keypress(Space),,,,,,,,-- --- ---- --- ------ ----- ------- ---- -- --- ------- --<br>------- ---------- ------ -- ----- -- ----- -- ---- ------<br>--- ----- --- --- ------ -------- ----- --- ------ ----- --<br>----- ----- ---------- --- --- ------ ------ ---- -- ------<br>------- --- ------ ----- --- ---- ------- -- ---- --- of<br>------- ------,185699.19999992847,185698.59999990463,185316.76,185327.19999992847,185333.235,185733.271,,53,of
screen,html.Screen,2_1_1_1_54,2022-02-02T16:09:09.573Z,,,,,,,,,,,,,,,,,54,,,,,,,,,,,,,,295.32899990462465,,response,,,,100,,,,,,,Space,keypress(Space),,,,,,,,-- --- ---- --- ------ ----- ------- ---- -- --- ------- --<br>------- ---------- ------ -- ----- -- ----- -- ---- ------<br>--- ----- --- --- ------ -------- ----- --- ------ ----- --<br>----- ----- ---------- --- --- ------ ------ ---- -- ------<br>------- --- ------ ----- --- ---- ------- -- ---- --- --<br>raising ------,186029,186028.59999990463,185716.677,185699.39999997616,185733.271,186032.842,,54,raising
screen,html.Screen,2_1_1_1_55,2022-02-02T16:09:10.032Z,,,,,,,,,,,,,,,,,54,,,,,,,,,,,,,,455.2579999046284,,response,,,,100,,,,,,,Space,keypress(Space),,,,,,,,-- --- ---- --- ------ ----- ------- ---- -- --- ------- --<br>------- ---------- ------ -- ----- -- ----- -- ---- ------<br>--- ----- --- --- ------ -------- ----- --- ------ ----- --<br>----- ----- ---------- --- --- ------ ------ ---- -- ------<br>------- --- ------ ----- --- ---- ------- -- ---- --- --<br>------- money.,186488.69999992847,186488.09999990463,186016.58,186029,186032.842,186499.676,,55,money.
Item 100,flow.Loop,2_1_1_1,2022-02-02T16:09:10.033Z,,,,,,,,,,,,,,,,,,,,,,,,,,,,,,,19931.65099990464,,completion,,,,,D,,,,,,,,,,,silence,,,,,186488.89999997616,186488.09999990463,166539.821,166541.09999990463,166556.449,186499.676,,,
Question 1,html.Screen,2_1_1_2,2022-02-02T16:09:12.967Z,,,,,,,,,,,,,,,,,,,,,,,,,,,,true,TRUE,,2922.2239999761514,,response,,,,100,D,,,,,,TRUE,click #choice-1,,,,silence,,,,,189422.79999995232,189421.89999997616,186482.722,186489.09999990463,186499.676,189431.847,,,
Question 2,html.Screen,2_1_1_3,2022-02-02T16:09:15.077Z,,,,,,,,,,,,,,,,,,,,,,,,,,,,true,FALSE,,2100.4529999523074,,response,,,,100,D,,,,,,FALSE,click #choice-2,,,,silence,,,,,191533.5,191532.29999995232,189415.133,189423,189431.847,191548.043,,,
Item 100,flow.Sequence,2_1_1,2022-02-02T16:09:15.077Z,,,,,,,,,,,,,,,,,,,,,,,,,,,,,,,34972.75199995231,,completion,,,,,,,,,,,,,,,,,,,,,191533.79999995232,191532.29999995232,156543.201,156552.79999995232,156559.548,191548.043,,,
End of Practice,html.Page,2_1_2,2022-02-02T16:09:29.625Z,,,,,,,,,,,,,,,,,,,,,,,,,,,,,,,14532.256999952311,,form submission,,,,,,,,,,,,,,,,,,,,,206080.69999992847,206080.29999995232,191531.178,191533.89999997616,191548.043,206093.065,,,
Practice,flow.Sequence,2_1,2022-02-02T16:09:29.625Z,,,,,,,,,,,,,,,,,,,,,,,,,,,,,,,93872.41999995231,,completion,,,,,,,,,,,,,,,,,,,,,206081,206080.29999995232,112191.435,112202.29999995232,112207.88,206093.065,,,
Trap_instruction,html.Page,2_2_0,2022-02-02T16:09:33.777Z,,,,,,,,,,,,,,,,,,,,,,,,,,,,,,,4139.134999928472,,form submission,,,,,,,,,,,,,,,,,,,,,210232.69999992847,210232.19999992847,206076.184,206081.29999995232,206093.065,210241.494,,,
trap_trial,html.Screen,2_2_1,2022-02-02T16:09:36.716Z,,,,,,,,,,,,,,,,,,,,,,,,,,,,true,1,,2928.905999976152,,response,,,,,,,,,,,1,click #choice-1,,,,,,,,,213172.39999997616,213170.39999997616,210225.091,210232.79999995232,210241.494,213173.893,,,
end of trap trial,html.Page,2_2_2,2022-02-02T16:09:38.803Z,,,,,,,,,,,,,,,,,,,,,,,,,,,,,,,2085.006999976147,,form submission,,,,,,,,,,,,,,,,,,,,,215259.5,215258.89999997616,213157.635,213172.69999992847,213173.893,215273.162,,,
Trap 1,flow.Sequence,2_2,2022-02-02T16:09:38.804Z,,,,,,,,,,,,,,,,,,,,,,,,,,,,,,,9165.834999976156,,completion,,,,,,,,,,,,,,,,,,,,,215259.89999997616,215258.89999997616,206076.184,206081.29999995232,206093.065,215273.162,,,
Standby,html.Page,2_3_0,2022-02-02T16:09:46.799Z,,,,,,,,,,,,,,,,,,,,,,,,,,,,,,,7997.260999999999,,timeout,,,,,,,,,,,,,,,,,,,,,223255.29999995232,223254.078,215256.49,215260.19999992847,215273.162,223270.423,,,
Holding screen,html.Screen,2_3_1_0_0,2022-02-02T16:09:53.797Z,,,,,,,,,,,,,,,,,,,,,,,,,,,,,,,6997.761999999988,,timeout,,,,,,,,,,,,,,,,,,,,,230252.59999990463,230251.551,223254.078,223255.69999992847,223270.423,230268.185,,,
screen,html.Screen,2_3_1_0_1_0,2022-02-02T16:09:54.505Z,,,,,,,,,,,,,,,,,15,,,,,,,,,,,,,,692.5149999284768,,response,,,,7,D,,,,,,Space,keypress(Space),,,,silence,,,,Greg --------- ---------- - --- ------- -- --- ------------<br>----- -- -------- ------- ---- ------ - -------- ---- -----<br>--- ------- ---- -- --- -------- --- - ----- ------ ---- --<br>-------- --- -------- -------- --- -------- ---- -- ----- -<br>-------- ---- --- ---------- --------- -- ------- ------ -<br>--------- ----- -----,230961.39999997616,230960.69999992847,230251.551,230252.89999997616,230268.185,230967.861,,0,Greg
screen,html.Screen,2_3_1_0_1_1,2022-02-02T16:09:54.792Z,,,,,,,,,,,,,,,,,15,,,,,,,,,,,,,,279.33899992847,,response,,,,7,D,,,,,,Space,keypress(Space),,,,silence,,,,"---- Anderson, ---------- - --- ------- -- --- ------------<br>----- -- -------- ------- ---- ------ - -------- ---- -----<br>--- ------- ---- -- --- -------- --- - ----- ------ ---- --<br>-------- --- -------- -------- --- -------- ---- -- ----- -<br>-------- ---- --- ---------- --------- -- ------- ------ -<br>--------- ----- -----",231247.79999995232,231247.19999992847,230951.201,230961.69999992847,230967.861,231250.996,,1,"Anderson,"
screen,html.Screen,2_3_1_0_1_2,2022-02-02T16:09:55.168Z,,,,,,,,,,,,,,,,,15,,,,,,,,,,,,,,372.10399990461883,,response,,,,7,D,,,,,,Space,keypress(Space),,,,silence,,,,---- --------- considered - --- ------- -- --- ------------<br>----- -- -------- ------- ---- ------ - -------- ---- -----<br>--- ------- ---- -- --- -------- --- - ----- ------ ---- --<br>-------- --- -------- -------- --- -------- ---- -- ----- -<br>-------- ---- --- ---------- --------- -- ------- ------ -<br>--------- ----- -----,231623.89999997616,231623.09999990463,231234.759,231247.79999995232,231250.996,231634.269,,2,considered
screen,html.Screen,2_3_1_0_1_3,2022-02-02T16:09:55.537Z,,,,,,,,,,,,,,,,,15,,,,,,,,,,,,,,358.4309999284742,,response,,,,7,D,,,,,,Space,keypress(Space),,,,silence,,,,---- --------- ---------- a --- ------- -- --- ------------<br>----- -- -------- ------- ---- ------ - -------- ---- -----<br>--- ------- ---- -- --- -------- --- - ----- ------ ---- --<br>-------- --- -------- -------- --- -------- ---- -- ----- -<br>-------- ---- --- ---------- --------- -- ------- ------ -<br>--------- ----- -----,231992.89999997616,231992.69999992847,231617.498,231624.09999990463,231634.269,232000.781,,3,a
screen,html.Screen,2_3_1_0_1_4,2022-02-02T16:09:55.874Z,,,,,,,,,,,,,,,,,15,,,,,,,,,,,,,,328.2190000000119,,response,,,,7,D,,,,,,Space,keypress(Space),,,,silence,,,,---- --------- ---------- - key ------- -- --- ------------<br>----- -- -------- ------- ---- ------ - -------- ---- -----<br>--- ------- ---- -- --- -------- --- - ----- ------ ---- --<br>-------- --- -------- -------- --- -------- ---- -- ----- -<br>-------- ---- --- ---------- --------- -- ------- ------ -<br>--------- ----- -----,232329.89999997616,232329,231984.258,231993,232000.781,232333.989,,4,key
screen,html.Screen,2_3_1_0_1_5,2022-02-02T16:09:56.182Z,,,,,,,,,,,,,,,,,15,,,,,,,,,,,,,,303.41099997615675,,response,,,,7,D,,,,,,Space,keypress(Space),,,,silence,,,,---- --------- ---------- - --- witness -- --- ------------<br>----- -- -------- ------- ---- ------ - -------- ---- -----<br>--- ------- ---- -- --- -------- --- - ----- ------ ---- --<br>-------- --- -------- -------- --- -------- ---- -- ----- -<br>-------- ---- --- ---------- --------- -- ------- ------ -<br>--------- ----- -----,232638.39999997616,232637.39999997616,232317.595,232330.09999990463,232333.989,232650.918,,5,witness
screen,html.Screen,2_3_1_0_1_6,2022-02-02T16:09:56.437Z,,,,,,,,,,,,,,,,,15,,,,,,,,,,,,,,241.48199997615302,,response,,,,7,D,,,,,,Space,keypress(Space),,,,silence,,,,---- --------- ---------- - --- ------- by --- ------------<br>----- -- -------- ------- ---- ------ - -------- ---- -----<br>--- ------- ---- -- --- -------- --- - ----- ------ ---- --<br>-------- --- -------- -------- --- -------- ---- -- ----- -<br>-------- ---- --- ---------- --------- -- ------- ------ -<br>--------- ----- -----,232893.19999992847,232892.39999997616,232634.097,232638.69999992847,232650.918,232900.487,,6,by
screen,html.Screen,2_3_1_0_1_7,2022-02-02T16:09:56.845Z,,,,,,,,,,,,,,,,,15,,,,,,,,,,,,,,399.91299997616443,,response,,,,7,D,,,,,,Space,keypress(Space),,,,silence,,,,---- --------- ---------- - --- ------- -- the ------------<br>----- -- -------- ------- ---- ------ - -------- ---- -----<br>--- ------- ---- -- --- -------- --- - ----- ------ ---- --<br>-------- --- -------- -------- --- -------- ---- -- ----- -<br>-------- ---- --- ---------- --------- -- ------- ------ -<br>--------- ----- -----,233301.19999992847,233300.39999997616,232884.021,232893.5,232900.487,233317.182,,7,the
screen,html.Screen,2_3_1_0_1_8,2022-02-02T16:09:57.221Z,,,,,,,,,,,,,,,,,15,,,,,,,,,,,,,,359.0179999284737,,response,,,,7,D,,,,,,Space,keypress(Space),,,,silence,,,,"---- --------- ---------- - --- ------- -- --- prosecution,<br>----- -- -------- ------- ---- ------ - -------- ---- -----<br>--- ------- ---- -- --- -------- --- - ----- ------ ---- --<br>-------- --- -------- -------- --- -------- ---- -- ----- -<br>-------- ---- --- ---------- --------- -- ------- ------ -<br>--------- ----- -----",233676.69999992847,233676.19999992847,233300.667,233301.39999997616,233317.182,233683.589,,8,"prosecution,"
screen,html.Screen,2_3_1_0_1_9,2022-02-02T16:09:57.613Z,,,,,,,,,,,,,,,,,15,,,,,,,,,,,,,,384.4109999999928,,response,,,,7,D,,,,,,Space,keypress(Space),,,,silence,,,,---- --------- ---------- - --- ------- -- --- ------------<br>vowed -- -------- ------- ---- ------ - -------- ---- -----<br>--- ------- ---- -- --- -------- --- - ----- ------ ---- --<br>-------- --- -------- -------- --- -------- ---- -- ----- -<br>-------- ---- --- ---------- --------- -- ------- ------ -<br>--------- ----- -----,234068.79999995232,234068,233667.114,233676.79999995232,233683.589,234083.728,,9,vowed
screen,html.Screen,2_3_1_0_1_10,2022-02-02T16:09:58.055Z,,,,,,,,,,,,,,,,,15,,,,,,,,,,,,,,426.2719999999972,,response,,,,7,D,,,,,,Space,keypress(Space),,,,silence,,,,---- --------- ---------- - --- ------- -- --- ------------<br>----- he -------- ------- ---- ------ - -------- ---- -----<br>--- ------- ---- -- --- -------- --- - ----- ------ ---- --<br>-------- --- -------- -------- --- -------- ---- -- ----- -<br>-------- ---- --- ---------- --------- -- ------- ------ -<br>--------- ----- -----,234510.89999997616,234510,234066.72,234068.89999997616,234083.728,234516.659,,10,he
screen,html.Screen,2_3_1_0_1_11,2022-02-02T16:09:58.473Z,,,,,,,,,,,,,,,,,15,,,,,,,,,,,,,,411.94099990461837,,response,,,,7,D,,,,,,Space,keypress(Space),,,,silence,,,,---- --------- ---------- - --- ------- -- --- ------------<br>----- -- wouldn't ------- ---- ------ - -------- ---- -----<br>--- ------- ---- -- --- -------- --- - ----- ------ ---- --<br>-------- --- -------- -------- --- -------- ---- -- ----- -<br>-------- ---- --- ---------- --------- -- ------- ------ -<br>--------- ----- -----,234929.5,234928.59999990463,234500.287,234511.19999992847,234516.659,234933.184,,11,wouldn't
screen,html.Screen,2_3_1_0_1_12,2022-02-02T16:09:58.878Z,,,,,,,,,,,,,,,,,15,,,,,,,,,,,,,,399.71599997614976,,response,,,,7,D,,,,,,Space,keypress(Space),,,,silence,,,,---- --------- ---------- - --- ------- -- --- ------------<br>----- -- -------- testify ---- ------ - -------- ---- -----<br>--- ------- ---- -- --- -------- --- - ----- ------ ---- --<br>-------- --- -------- -------- --- -------- ---- -- ----- -<br>-------- ---- --- ---------- --------- -- ------- ------ -<br>--------- ----- -----,235333.69999992847,235332.89999997616,234916.664,234929.69999992847,234933.184,235349.96,,12,testify
screen,html.Screen,2_3_1_0_1_13,2022-02-02T16:09:59.242Z,,,,,,,,,,,,,,,,,15,,,,,,,,,,,,,,347.6399999046407,,response,,,,7,D,,,,,,Space,keypress(Space),,,,silence,,,,---- --------- ---------- - --- ------- -- --- ------------<br>----- -- -------- ------- when ------ - -------- ---- -----<br>--- ------- ---- -- --- -------- --- - ----- ------ ---- --<br>-------- --- -------- -------- --- -------- ---- -- ----- -<br>-------- ---- --- ---------- --------- -- ------- ------ -<br>--------- ----- -----,235698.5,235697.59999990463,235333.115,235333.89999997616,235349.96,235732.436,,13,when
screen,html.Screen,2_3_1_0_1_14,2022-02-02T16:09:59.669Z,,,,,,,,,,,,,,,,,15,,,,,,,,,,,,,,391.3639999523293,,response,,,,7,D,,,,,,Space,keypress(Space),,,,silence,,,,---- --------- ---------- - --- ------- -- --- ------------<br>----- -- -------- ------- ---- served - -------- ---- -----<br>--- ------- ---- -- --- -------- --- - ----- ------ ---- --<br>-------- --- -------- -------- --- -------- ---- -- ----- -<br>-------- ---- --- ---------- --------- -- ------- ------ -<br>--------- ----- -----,236124.59999990463,236123.79999995232,235683.159,235698.59999990463,235732.436,236132.956,,14,served
screen,html.Screen,2_3_1_0_1_15,2022-02-02T16:10:00.068Z,,,,,,,,,,,,,,,,,15,,,,,,,,,,,,,,391.0439999999944,,response,,,,7,D,,,,,,Space,keypress(Space),,,,silence,,,,---- --------- ---------- - --- ------- -- --- ------------<br>----- -- -------- ------- ---- ------ a -------- ---- -----<br>--- ------- ---- -- --- -------- --- - ----- ------ ---- --<br>-------- --- -------- -------- --- -------- ---- -- ----- -<br>-------- ---- --- ---------- --------- -- ------- ------ -<br>--------- ----- -----,236524.29999995232,236524,236116.285,236124.89999997616,236132.956,236532.677,,15,a
screen,html.Screen,2_3_1_0_1_16,2022-02-02T16:10:00.443Z,,,,,,,,,,,,,,,,,15,,,,,,,,,,,,,,365.5229999284784,,response,,,,7,D,,,,,,Space,keypress(Space),,,,silence,,,,---- --------- ---------- - --- ------- -- --- ------------<br>----- -- -------- ------- ---- ------ - subpoena ---- -----<br>--- ------- ---- -- --- -------- --- - ----- ------ ---- --<br>-------- --- -------- -------- --- -------- ---- -- ----- -<br>-------- ---- --- ---------- --------- -- ------- ------ -<br>--------- ----- -----,236899.09999990463,236898.19999992847,236516.227,236524.39999997616,236532.677,236915.795,,16,subpoena
screen,html.Screen,2_3_1_0_1_17,2022-02-02T16:10:00.801Z,,,,,,,,,,,,,,,,,15,,,,,,,,,,,,,,340.9049999284616,,response,,,,7,D,,,,,,Space,keypress(Space),,,,silence,,,,---- --------- ---------- - --- ------- -- --- ------------<br>----- -- -------- ------- ---- ------ - -------- last -----<br>--- ------- ---- -- --- -------- --- - ----- ------ ---- --<br>-------- --- -------- -------- --- -------- ---- -- ----- -<br>-------- ---- --- ---------- --------- -- ------- ------ -<br>--------- ----- -----,237257.5,237256.69999992847,236899.306,236899.29999995232,236915.795,237265.969,,17,last
screen,html.Screen,2_3_1_0_1_18,2022-02-02T16:10:01.150Z,,,,,,,,,,,,,,,,,15,,,,,,,,,,,,,,339.6309999046207,,response,,,,7,D,,,,,,Space,keypress(Space),,,,silence,,,,---- --------- ---------- - --- ------- -- --- ------------<br>----- -- -------- ------- ---- ------ - -------- ---- week.<br>--- ------- ---- -- --- -------- --- - ----- ------ ---- --<br>-------- --- -------- -------- --- -------- ---- -- ----- -<br>-------- ---- --- ---------- --------- -- ------- ------ -<br>--------- ----- -----,237606.39999997616,237605.59999990463,237249.233,237257.69999992847,237265.969,237615.767,,18,week.
screen,html.Screen,2_3_1_0_1_19,2022-02-02T16:10:01.706Z,,,,,,,,,,,,,,,,,15,,,,,,,,,,,,,,545.1329999761656,,response,,,,7,D,,,,,,Space,keypress(Space),,,,silence,,,,---- --------- ---------- - --- ------- -- --- ------------<br>----- -- -------- ------- ---- ------ - -------- ---- -----<br>His ------- ---- -- --- -------- --- - ----- ------ ---- --<br>-------- --- -------- -------- --- -------- ---- -- ----- -<br>-------- ---- --- ---------- --------- -- ------- ------ -<br>--------- ----- -----,238161.59999990463,238160.89999997616,237599.076,237606.59999990463,237615.767,238165.322,,19,His
screen,html.Screen,2_3_1_0_1_20,2022-02-02T16:10:02.021Z,,,,,,,,,,,,,,,,,15,,,,,,,,,,,,,,310.67800000001444,,response,,,,7,D,,,,,,Space,keypress(Space),,,,silence,,,,---- --------- ---------- - --- ------- -- --- ------------<br>----- -- -------- ------- ---- ------ - -------- ---- -----<br>--- lawyers ---- -- --- -------- --- - ----- ------ ---- --<br>-------- --- -------- -------- --- -------- ---- -- ----- -<br>-------- ---- --- ---------- --------- -- ------- ------ -<br>--------- ----- -----,238476.79999995232,238476,238148.888,238161.89999997616,238165.322,238481.933,,20,lawyers
screen,html.Screen,2_3_1_0_1_21,2022-02-02T16:10:02.333Z,,,,,,,,,,,,,,,,,15,,,,,,,,,,,,,,306.6669999046426,,response,,,,7,D,,,,,,Space,keypress(Space),,,,silence,,,,---- --------- ---------- - --- ------- -- --- ------------<br>----- -- -------- ------- ---- ------ - -------- ---- -----<br>--- ------- said -- --- -------- --- - ----- ------ ---- --<br>-------- --- -------- -------- --- -------- ---- -- ----- -<br>-------- ---- --- ---------- --------- -- ------- ------ -<br>--------- ----- -----,238789.5,238788.59999990463,238465.459,238477.09999990463,238481.933,238798.491,,21,said
screen,html.Screen,2_3_1_0_1_22,2022-02-02T16:10:02.665Z,,,,,,,,,,,,,,,,,15,,,,,,,,,,,,,,322.3089999523072,,response,,,,7,D,,,,,,Space,keypress(Space),,,,silence,,,,---- --------- ---------- - --- ------- -- --- ------------<br>----- -- -------- ------- ---- ------ - -------- ---- -----<br>--- ------- ---- he --- -------- --- - ----- ------ ---- --<br>-------- --- -------- -------- --- -------- ---- -- ----- -<br>-------- ---- --- ---------- --------- -- ------- ------ -<br>--------- ----- -----,239121.39999997616,239120.79999995232,238782.065,238789.59999990463,238798.491,239131.706,,22,he
screen,html.Screen,2_3_1_0_1_23,2022-02-02T16:10:03.021Z,,,,,,,,,,,,,,,,,15,,,,,,,,,,,,,,345.19399997615255,,response,,,,7,D,,,,,,Space,keypress(Space),,,,silence,,,,---- --------- ---------- - --- ------- -- --- ------------<br>----- -- -------- ------- ---- ------ - -------- ---- -----<br>--- ------- ---- -- was -------- --- - ----- ------ ---- --<br>-------- --- -------- -------- --- -------- ---- -- ----- -<br>-------- ---- --- ---------- --------- -- ------- ------ -<br>--------- ----- -----,239477.39999997616,239476.89999997616,239115.275,239121.5,239131.706,239481.515,,23,was
screen,html.Screen,2_3_1_0_1_24,2022-02-02T16:10:03.446Z,,,,,,,,,,,,,,,,,15,,,,,,,,,,,,,,419.7849999523023,,response,,,,7,D,,,,,,Space,keypress(Space),,,,silence,,,,---- --------- ---------- - --- ------- -- --- ------------<br>----- -- -------- ------- ---- ------ - -------- ---- -----<br>--- ------- ---- -- --- prepared --- - ----- ------ ---- --<br>-------- --- -------- -------- --- -------- ---- -- ----- -<br>-------- ---- --- ---------- --------- -- ------- ------ -<br>--------- ----- -----,239902.29999995232,239901.29999995232,239465.185,239477.5,239481.515,239915.121,,24,prepared
screen,html.Screen,2_3_1_0_1_25,2022-02-02T16:10:03.817Z,,,,,,,,,,,,,,,,,15,,,,,,,,,,,,,,357.47899990461883,,response,,,,7,D,,,,,,Space,keypress(Space),,,,silence,,,,---- --------- ---------- - --- ------- -- --- ------------<br>----- -- -------- ------- ---- ------ - -------- ---- -----<br>--- ------- ---- -- --- -------- for - ----- ------ ---- --<br>-------- --- -------- -------- --- -------- ---- -- ----- -<br>-------- ---- --- ---------- --------- -- ------- ------ -<br>--------- ----- -----,240273.39999997616,240272.59999990463,239898.358,239902.5,239915.121,240281.563,,25,for
screen,html.Screen,2_3_1_0_1_26,2022-02-02T16:10:04.058Z,,,,,,,,,,,,,,,,,15,,,,,,,,,,,,,,232.03699990463792,,response,,,,7,D,,,,,,Space,keypress(Space),,,,silence,,,,---- --------- ---------- - --- ------- -- --- ------------<br>----- -- -------- ------- ---- ------ - -------- ---- -----<br>--- ------- ---- -- --- -------- --- a ----- ------ ---- --<br>-------- --- -------- -------- --- -------- ---- -- ----- -<br>-------- ---- --- ---------- --------- -- ------- ------ -<br>--------- ----- -----,240514.5,240513.59999990463,240264.849,240273.69999992847,240281.563,240531.369,,26,a
screen,html.Screen,2_3_1_0_1_27,2022-02-02T16:10:04.600Z,,,,,,,,,,,,,,,,,15,,,,,,,,,,,,,,524.2309999046265,,response,,,,7,D,,,,,,Space,keypress(Space),,,,silence,,,,---- --------- ---------- - --- ------- -- --- ------------<br>----- -- -------- ------- ---- ------ - -------- ---- -----<br>--- ------- ---- -- --- -------- --- - third ------ ---- --<br>-------- --- -------- -------- --- -------- ---- -- ----- -<br>-------- ---- --- ---------- --------- -- ------- ------ -<br>--------- ----- -----,241056.39999997616,241055.59999990463,240514.896,240514.79999995232,240531.369,241064.617,,27,third
screen,html.Screen,2_3_1_0_1_28,2022-02-02T16:10:04.971Z,,,,,,,,,,,,,,,,,15,,,,,,,,,,,,,,361.4829999046342,,response,,,,7,D,,,,,,Space,keypress(Space),,,,silence,,,,---- --------- ---------- - --- ------- -- --- ------------<br>----- -- -------- ------- ---- ------ - -------- ---- -----<br>--- ------- ---- -- --- -------- --- - ----- prison ---- --<br>-------- --- -------- -------- --- -------- ---- -- ----- -<br>-------- ---- --- ---------- --------- -- ------- ------ -<br>--------- ----- -----,241426.89999997616,241426.09999990463,241048.023,241056.59999990463,241064.617,241430.89,,28,prison
screen,html.Screen,2_3_1_0_1_29,2022-02-02T16:10:05.327Z,,,,,,,,,,,,,,,,,15,,,,,,,,,,,,,,351.7099999046186,,response,,,,7,D,,,,,,Space,keypress(Space),,,,silence,,,,---- --------- ---------- - --- ------- -- --- ------------<br>----- -- -------- ------- ---- ------ - -------- ---- -----<br>--- ------- ---- -- --- -------- --- - ----- ------ stay --<br>-------- --- -------- -------- --- -------- ---- -- ----- -<br>-------- ---- --- ---------- --------- -- ------- ------ -<br>--------- ----- -----,241783.39999997616,241782.59999990463,241414.468,241427.09999990463,241430.89,241797.693,,29,stay
screen,html.Screen,2_3_1_0_1_30,2022-02-02T16:10:05.739Z,,,,,,,,,,,,,,,,,15,,,,,,,,,,,,,,396.106999952317,,response,,,,7,D,,,,,,Space,keypress(Space),,,,silence,,,,---- --------- ---------- - --- ------- -- --- ------------<br>----- -- -------- ------- ---- ------ - -------- ---- -----<br>--- ------- ---- -- --- -------- --- - ----- ------ ---- to<br>-------- --- -------- -------- --- -------- ---- -- ----- -<br>-------- ---- --- ---------- --------- -- ------- ------ -<br>--------- ----- -----,242194.69999992847,242193.79999995232,241781.137,241783.59999990463,241797.693,242197.35,,30,to
screen,html.Screen,2_3_1_0_1_31,2022-02-02T16:10:06.157Z,,,,,,,,,,,,,,,,,15,,,,,,,,,,,,,,415.1499999999942,,response,,,,7,D,,,,,,Space,keypress(Space),,,,silence,,,,---- --------- ---------- - --- ------- -- --- ------------<br>----- -- -------- ------- ---- ------ - -------- ---- -----<br>--- ------- ---- -- --- -------- --- - ----- ------ ---- --<br>maintain --- -------- -------- --- -------- ---- -- ----- -<br>-------- ---- --- ---------- --------- -- ------- ------ -<br>--------- ----- -----,242613.19999992847,242612.5,242180.893,242194.79999995232,242197.35,242630.857,,31,maintain
screen,html.Screen,2_3_1_0_1_32,2022-02-02T16:10:06.508Z,,,,,,,,,,,,,,,,,15,,,,,,,,,,,,,,332.5429999761691,,response,,,,7,D,,,,,,Space,keypress(Space),,,,silence,,,,---- --------- ---------- - --- ------- -- --- ------------<br>----- -- -------- ------- ---- ------ - -------- ---- -----<br>--- ------- ---- -- --- -------- --- - ----- ------ ---- --<br>-------- his -------- -------- --- -------- ---- -- ----- -<br>-------- ---- --- ---------- --------- -- ------- ------ -<br>--------- ----- -----,242964.29999995232,242963.39999997616,242597.545,242613.5,242630.857,242980.735,,32,his
screen,html.Screen,2_3_1_0_1_33,2022-02-02T16:10:06.804Z,,,,,,,,,,,,,,,,,15,,,,,,,,,,,,,,278.4649999284884,,response,,,,7,D,,,,,,Space,keypress(Space),,,,silence,,,,---- --------- ---------- - --- ------- -- --- ------------<br>----- -- -------- ------- ---- ------ - -------- ---- -----<br>--- ------- ---- -- --- -------- --- - ----- ------ ---- --<br>-------- --- silence. -------- --- -------- ---- -- ----- -<br>-------- ---- --- ---------- --------- -- ------- ------ -<br>--------- ----- -----,243259.89999997616,243259.19999992847,242964.069,242964.5,242980.735,243263.569,,33,silence.
screen,html.Screen,2_3_1_0_1_34,2022-02-02T16:10:07.213Z,,,,,,,,,,,,,,,,,15,,,,,,,,,,,,,,404.2309999523277,,response,,,,7,D,,,,,,Space,keypress(Space),,,,silence,,,,---- --------- ---------- - --- ------- -- --- ------------<br>----- -- -------- ------- ---- ------ - -------- ---- -----<br>--- ------- ---- -- --- -------- --- - ----- ------ ---- --<br>-------- --- -------- Anderson --- -------- ---- -- ----- -<br>-------- ---- --- ---------- --------- -- ------- ------ -<br>--------- ----- -----,243668.59999990463,243667.79999995232,243247.003,243260,243263.569,243680.242,,34,Anderson
screen,html.Screen,2_3_1_0_1_35,2022-02-02T16:10:07.582Z,,,,,,,,,,,,,,,,,15,,,,,,,,,,,,,,356.45799992847606,,response,,,,7,D,,,,,,Space,keypress(Space),,,,silence,,,,---- --------- ---------- - --- ------- -- --- ------------<br>----- -- -------- ------- ---- ------ - -------- ---- -----<br>--- ------- ---- -- --- -------- --- - ----- ------ ---- --<br>-------- --- -------- -------- was -------- ---- -- ----- -<br>-------- ---- --- ---------- --------- -- ------- ------ -<br>--------- ----- -----,244037.59999990463,244036.69999992847,243663.621,243668.79999995232,243680.242,244046.976,,35,was
screen,html.Screen,2_3_1_0_1_36,2022-02-02T16:10:07.931Z,,,,,,,,,,,,,,,,,15,,,,,,,,,,,,,,339.42399997616303,,response,,,,7,D,,,,,,Space,keypress(Space),,,,silence,,,,---- --------- ---------- - --- ------- -- --- ------------<br>----- -- -------- ------- ---- ------ - -------- ---- -----<br>--- ------- ---- -- --- -------- --- - ----- ------ ---- --<br>-------- --- -------- -------- --- released ---- -- ----- -<br>-------- ---- --- ---------- --------- -- ------- ------ -<br>--------- ----- -----,244386.89999997616,244386.39999997616,244030.324,244037.79999995232,244046.976,244396.512,,36,released
screen,html.Screen,2_3_1_0_1_37,2022-02-02T16:10:08.294Z,,,,,,,,,,,,,,,,,15,,,,,,,,,,,,,,352.38799997617025,,response,,,,7,D,,,,,,Space,keypress(Space),,,,silence,,,,---- --------- ---------- - --- ------- -- --- ------------<br>----- -- -------- ------- ---- ------ - -------- ---- -----<br>--- ------- ---- -- --- -------- --- - ----- ------ ---- --<br>-------- --- -------- -------- --- -------- July -- ----- -<br>-------- ---- --- ---------- --------- -- ------- ------ -<br>--------- ----- -----,244749.69999992847,244748.89999997616,244380.168,244387,244396.512,244763.358,,37,July
screen,html.Screen,2_3_1_0_1_38,2022-02-02T16:10:08.826Z,,,,,,,,,,,,,,,,,15,,,,,,,,,,,,,,518.2419999046251,,response,,,,7,D,,,,,,Space,keypress(Space),,,,silence,,,,---- --------- ---------- - --- ------- -- --- ------------<br>----- -- -------- ------- ---- ------ - -------- ---- -----<br>--- ------- ---- -- --- -------- --- - ----- ------ ---- --<br>-------- --- -------- -------- --- -------- ---- 20 ----- -<br>-------- ---- --- ---------- --------- -- ------- ------ -<br>--------- ----- -----,245282.39999997616,245281.59999990463,244746.384,244749.89999997616,244763.358,245296.319,,38,20
screen,html.Screen,2_3_1_0_1_39,2022-02-02T16:10:09.563Z,,,,,,,,,,,,,,,,,15,,,,,,,,,,,,,,722.1810000000114,,response,,,,7,D,,,,,,Space,keypress(Space),,,,silence,,,,---- --------- ---------- - --- ------- -- --- ------------<br>----- -- -------- ------- ---- ------ - -------- ---- -----<br>--- ------- ---- -- --- -------- --- - ----- ------ ---- --<br>-------- --- -------- -------- --- -------- ---- -- after -<br>-------- ---- --- ---------- --------- -- ------- ------ -<br>--------- ----- -----,246019.29999995232,246018.5,245279.655,245282.5,245296.319,246029.58,,39,after
screen,html.Screen,2_3_1_0_1_40,2022-02-02T16:10:10.191Z,,,,,,,,,,,,,,,,,15,,,,,,,,,,,,,,617.1199999284872,,response,,,,7,D,,,,,,Space,keypress(Space),,,,silence,,,,---- --------- ---------- - --- ------- -- --- ------------<br>----- -- -------- ------- ---- ------ - -------- ---- -----<br>--- ------- ---- -- --- -------- --- - ----- ------ ---- --<br>-------- --- -------- -------- --- -------- ---- -- ----- a<br>-------- ---- --- ---------- --------- -- ------- ------ -<br>--------- ----- -----,246647.59999990463,246646.69999992847,246012.936,246019.59999990463,246029.58,246662.78,,40,a
