sender,sender_type,sender_id,timestamp,meta,,Blues,Classical,Country,Dance,Electronic,Folk,Gospel,Hip-Hop,Jazz,Latin,Musical/Film,New-age,Pop,Prolific_id,Provo_ID,R&B,Rap,Reggae,Religious,Rock,Soul,Swing,Traditional,age,artist_name,correct,correctResponse,distraction,duration,education,ended_on,familiarity,gender,headphone_check_performance,item,list,music_frequency,offensiveness,pleasantness,position_correct,preference,response,response_action,snippet_file,song_name,song_rating,sound,stimulus_1,stimulus_2,stimulus_3,text,time_commit,time_end,time_render,time_run,time_show,time_switch,url,word,word_ID
Prolific ID,html.Form,0,2022-02-15T13:03:15.093Z,"{""labjs_version"":""20.2.2"",""labjs_build"":{""flavor"":""production"",""commit"":""a25486e0c714a0ae2ce03ff94b7bb6896854dcfa""},""location"":""https://run.pavlovia.org/mvasilev/prolific2_music_e/"",""userAgent"":""Mozilla/5.0 (Windows NT 10.0; Win64; x64) AppleWebKit/537.36 (KHTML, like Gecko) Chrome/98.0.4758.81 Safari/537.36"",""platform"":""Win32"",""language"":""en-GB"",""locale"":""en-GB"",""timeZone"":""Europe/London"",""timezoneOffset"":0,""screen_width"":1536,""screen_height"":864,""scroll_width"":1536,""scroll_height"":706,""window_innerWidth"":1536,""window_innerHeight"":754,""devicePixelRatio"":1.25}",,,,,,,,,,,,,,,6053583d8ec99854b153ffff,,,,,,,,,,,,,,,8981.813999809265,,form submission,,,,,,,,,,,,,,,,,,,,,24136.799999952316,24136.199999809265,15120.657,15135.199999809265,15154.386,24252.197,{},,
Introduction,html.Screen,1_0,2022-02-15T13:03:19.483Z,,,,,,,,,,,,,,,,,,,,,,,,,,,,,,,4271.702999856949,,response,,,,,,,,,,,continue,click button,,,,,,,,,28527,28523.89999985695,24119.007,24137.099999904633,24252.197,28534.51,,,
Volume calibration,html.Screen,1_1,2022-02-15T13:03:55.024Z,,,,,,,,,,,,,,,,,,,,,,,,,,,,,,,35528.990000000005,,response,,,,,,,,,,,continue,click button,,,,,,,,,64067.5,64063.5,28517.951,28527.199999809265,28534.51,64076.017,,,
Task instructions,html.Screen,1_2,2022-02-15T13:03:59.138Z,,,,,,,,,,,,,,,,,,,,,,,,,,,,,,,4104.2829999523165,,response,,,,,,,,,,,continue,click button,,,,,,,,,68181.29999995232,68180.29999995232,64059.523,64067.59999990463,64076.017,68191.766,,,
Sounds,html.Screen,1_3_0_0,2022-02-15T13:04:03.388Z,,,,,,,,,,,,,,,,,,,,,,,,,,,,,,,4248.975999999995,,timeout,,,,,,,,,1,,,,,,,,S,O,I,,72431.09999990463,72424.076,68175.256,68181.5,68191.766,72440.742,,,
Judgement,html.Screen,1_3_0_1,2022-02-15T13:04:05.090Z,,,,,,,,,,,,,,,,,,,,,,,,,,,,true,1,,1691.557999952318,,response,,,,,,,,,1,,1,click #choice-1,,,,,S,O,I,,74133.39999985695,74132.29999995232,72424.076,72431.59999990463,72440.742,74140.318,,,
Trial,flow.Sequence,1_3_0,2022-02-15T13:04:05.090Z,,,,,,,,,,,,,,,,,,,,,,,,,,,,,,,5940.533999952313,,completion,,,,,,,,,1,,,,,,,,S,O,I,,74133.69999980927,74132.29999995232,68175.256,68181.39999985695,68191.766,74140.318,,,
Sounds,html.Screen,1_3_1_0,2022-02-15T13:04:09.331Z,,,,,,,,,,,,,,,,,,,,,,,,,,,,,,,4248.981,,timeout,,,,,,,,,3,,,,,,,,O,I,S,,78374.59999990463,78372.903,74123.746,74134,74140.318,78389.299,,,
Judgement,html.Screen,1_3_1_1,2022-02-15T13:04:09.891Z,,,,,,,,,,,,,,,,,,,,,,,,,,,,true,3,,543.7010000000009,,response,,,,,,,,,3,,3,click #choice-3,,,,,O,I,S,,78934.59999990463,78933,78372.903,78374.89999985695,78389.299,78939.155,,,
Trial,flow.Sequence,1_3_1,2022-02-15T13:04:09.891Z,,,,,,,,,,,,,,,,,,,,,,,,,,,,,,,4792.682000000001,,completion,,,,,,,,,3,,,,,,,,O,I,S,,78934.79999995232,78933,74123.746,74133.79999995232,74140.318,78939.155,,,
Sounds,html.Screen,1_3_2_0,2022-02-15T13:04:14.131Z,,,,,,,,,,,,,,,,,,,,,,,,,,,,,,,4249.048999999999,,timeout,,,,,,,,,1,,,,,,,,S,I,O,,83174.39999985695,83171.632,78922.579,78935,78939.155,83188.204,,,
Judgement,html.Screen,1_3_2_1,2022-02-15T13:04:14.691Z,,,,,,,,,,,,,,,,,,,,,,,,,,,,true,1,,544.7960000000021,,response,,,,,,,,,1,,1,click #choice-1,,,,,S,I,O,,83733.89999985695,83733,83171.632,83174.69999980927,83188.204,83738.011,,,
Trial,flow.Sequence,1_3_2,2022-02-15T13:04:14.691Z,,,,,,,,,,,,,,,,,,,,,,,,,,,,,,,4793.845000000001,,completion,,,,,,,,,1,,,,,,,,S,I,O,,83734.19999980927,83733,78922.579,78934.89999985695,78939.155,83738.011,,,
Sounds,html.Screen,1_3_3_0,2022-02-15T13:04:18.929Z,,,,,,,,,,,,,,,,,,,,,,,,,,,,,,,4249.182000000001,,timeout,,,,,,,,,3,,,,,,,,I,O,S,,87972.79999995232,87970.364,83721.509,83734.29999995232,83738.011,87987.193,,,
Judgement,html.Screen,1_3_3_1,2022-02-15T13:04:19.460Z,,,,,,,,,,,,,,,,,,,,,,,,,,,,true,3,,515.3070000000007,,response,,,,,,,,,3,,3,click #choice-3,,,,,I,O,S,,88503.5,88502.5,87970.364,87973.39999985695,87987.193,88522.334,,,
Trial,flow.Sequence,1_3_3,2022-02-15T13:04:19.460Z,,,,,,,,,,,,,,,,,,,,,,,,,,,,,,,4764.489000000001,,completion,,,,,,,,,3,,,,,,,,I,O,S,,88503.79999995232,88502.5,83721.509,83734.19999980927,83738.011,88522.334,,,
Sounds,html.Screen,1_3_4_0,2022-02-15T13:04:23.711Z,,,,,,,,,,,,,,,,,,,,,,,,,,,,,,,4246.854999999996,,timeout,,,,,,,,,2,,,,,,,,I,S,O,,92754.5,92752.543,88486.911,88504,88522.334,92769.189,,,
Judgement,html.Screen,1_3_4_1,2022-02-15T13:04:24.142Z,,,,,,,,,,,,,,,,,,,,,,,,,,,,true,2,,415.71099985695037,,response,,,,,,,,,2,,2,click #choice-2,,,,,I,S,O,,93185.69999980927,93184.89999985695,92752.543,92754.79999995232,92769.189,93221.366,,,
Trial,flow.Sequence,1_3_4,2022-02-15T13:04:24.143Z,,,,,,,,,,,,,,,,,,,,,,,,,,,,,,,4662.565999856946,,completion,,,,,,,,,2,,,,,,,,I,S,O,,93186.09999990463,93184.89999985695,88486.911,88503.89999985695,88522.334,93221.366,,,
Sounds,html.Screen,1_3_5_0,2022-02-15T13:04:28.410Z,,,,,,,,,,,,,,,,,,,,,,,,,,,,,,,4246.732000000004,,timeout,,,,,,,,,2,,,,,,,,O,S,I,,97453.19999980927,97451.499,93169.275,93186.09999990463,93221.366,97468.098,,,
Judgement,html.Screen,1_3_5_1,2022-02-15T13:04:28.827Z,,,,,,,,,,,,,,,,,,,,,,,,,,,,true,2,,400.3019998569507,,response,,,,,,,,,2,,2,click #choice-2,,,,,O,S,I,,97870.09999990463,97868.39999985695,97451.499,97453.5,97468.098,97884.677,,,
Trial,flow.Sequence,1_3_5,2022-02-15T13:04:28.827Z,,,,,,,,,,,,,,,,,,,,,,,,,,,,,,,4647.033999856954,,completion,,,,,,,,,2,,,,,,,,O,S,I,,97870.19999980927,97868.39999985695,93169.275,93186.09999990463,93221.366,97884.677,,,
Task,flow.Loop,1_3,2022-02-15T13:04:28.831Z,,,,,,,,,,,,,,,,,,,,,,,,,,,,,,,29676.633999856946,,completion,,,1,,,,,,,,,,,,,,,,,,97874.79999995232,97868.39999985695,68175.256,68181.39999985695,68191.766,97884.677,,,
Trap,html.Screen,1_4,2022-02-15T13:04:28.833Z,,,,,,,,,,,,,,,,,,,,,,,,,,,,,,,NaN,,skipped,,,,,,,,,,,,,,,,,,,,,97876,97868.39999985695,,97875.79999995232,,97884.677,,,
Thanks,html.Screen,1_5,2022-02-15T13:04:31.745Z,,,,,,,,,,,,,,,,,,,,,,,,,,,,,,,2902.823000000004,,response,,,,,,,,,,,continue,click button,,,,,,,,,100788.69999980927,100787.5,97868.302,97876.09999990463,97884.677,103616.588,,,
Headphone screening,flow.Sequence,1,2022-02-15T13:04:31.746Z,,,,,,,,,,,,,,,,,,,,,,,,,,,,,,,76535.303,,completion,,,,,,,,,,,,,,,,,,,,,100789,100787.5,24119.007,24137.099999904633,24252.197,103616.588,,,
Instructions,html.Page,2_0,2022-02-15T13:04:40.701Z,,,,,,,,,,,,,,,,,,,,,,,,,,,,,,,6127.211999952313,,form submission,,,,,,,,,,,,,,,,,,,,,109744,109743.79999995232,103599.91,103613.29999995232,103616.588,109748.438,,,
Holding screen,html.Screen,2_1_0_0,2022-02-15T13:04:50.688Z,,,,,,,,,,,,,,,,,,,,,,,,,,,,,,,10197.611000000004,,timeout,,,,,,,,,,,,,,,,,,,,,119731.5,119729.601,109731.952,109744.19999980927,109748.438,119946.049,,,
screen,html.Screen,2_1_0_1_0,2022-02-15T13:04:51.766Z,,,,,,,,,,,,,,,,,53,,,,,,,,,,,,,,857.5509999046335,,response,,,,99,,,,,,,Space,keypress(Space),,,,,,,,When -- ----- -- ------ - ------- --- ----------<br>------------- ------ ------ ---- ---- ------- ----- -- ----<br>-------- ------- -- ---------- --- - --- ----- ----- ----<br>---- --- --- ----- --- ---- ---- ------- ----- ---- -------<br>--- --- -- ----- -- --- ---- -- --- ---- -- ------ ------<br>--- ----- -- ----,120809.09999990463,120803.59999990463,119729.601,119732,119946.049,120812.535,,0,When
screen,html.Screen,2_1_0_1_1,2022-02-15T13:04:52.327Z,,,,,,,,,,,,,,,,,53,,,,,,,,,,,,,,556.3649998569454,,response,,,,99,,,,,,,Space,keypress(Space),,,,,,,,---- it ----- -- ------ - ------- --- ----------<br>------------- ------ ------ ---- ---- ------- ----- -- ----<br>-------- ------- -- ---------- --- - --- ----- ----- ----<br>---- --- --- ----- --- ---- ---- ------- ----- ---- -------<br>--- --- -- ----- -- --- ---- -- --- ---- -- ------ ------<br>--- ----- -- ----,121369.89999985695,121368.89999985695,120795.978,120809.39999985695,120812.535,121379.077,,1,it
screen,html.Screen,2_1_0_1_2,2022-02-15T13:04:52.853Z,,,,,,,,,,,,,,,,,53,,,,,,,,,,,,,,516.2229999523115,,response,,,,99,,,,,,,Space,keypress(Space),,,,,,,,---- -- comes -- ------ - ------- --- ----------<br>------------- ------ ------ ---- ---- ------- ----- -- ----<br>-------- ------- -- ---------- --- - --- ----- ----- ----<br>---- --- --- ----- --- ---- ---- ------- ----- ---- -------<br>--- --- -- ----- -- --- ---- -- --- ---- -- ------ ------<br>--- ----- -- ----,121896.39999985695,121895.29999995232,121362.491,121370.19999980927,121379.077,121912.287,,2,comes
screen,html.Screen,2_1_0_1_3,2022-02-15T13:04:53.293Z,,,,,,,,,,,,,,,,,53,,,,,,,,,,,,,,423.01299995231966,,response,,,,99,,,,,,,Space,keypress(Space),,,,,,,,---- -- ----- to ------ - ------- --- ----------<br>------------- ------ ------ ---- ---- ------- ----- -- ----<br>-------- ------- -- ---------- --- - --- ----- ----- ----<br>---- --- --- ----- --- ---- ---- ------- ----- ---- -------<br>--- --- -- ----- -- --- ---- -- --- ---- -- ------ ------<br>--- ----- -- ----,122336.5,122335.29999995232,121895.66,121896.59999990463,121912.287,122345.51,,3,to
screen,html.Screen,2_1_0_1_4,2022-02-15T13:04:53.750Z,,,,,,,,,,,,,,,,,53,,,,,,,,,,,,,,446.49000000000524,,response,,,,99,,,,,,,Space,keypress(Space),,,,,,,,---- -- ----- -- having - ------- --- ----------<br>------------- ------ ------ ---- ---- ------- ----- -- ----<br>-------- ------- -- ---------- --- - --- ----- ----- ----<br>---- --- --- ----- --- ---- ---- ------- ----- ---- -------<br>--- --- -- ----- -- --- ---- -- --- ---- -- ------ ------<br>--- ----- -- ----,122793.19999980927,122792,122328.903,122336.79999995232,122345.51,122795.486,,4,having
screen,html.Screen,2_1_0_1_5,2022-02-15T13:04:54.151Z,,,,,,,,,,,,,,,,,53,,,,,,,,,,,,,,397.91399985694443,,response,,,,99,,,,,,,Space,keypress(Space),,,,,,,,---- -- ----- -- ------ a ------- --- ----------<br>------------- ------ ------ ---- ---- ------- ----- -- ----<br>-------- ------- -- ---------- --- - --- ----- ----- ----<br>---- --- --- ----- --- ---- ---- ------- ----- ---- -------<br>--- --- -- ----- -- --- ---- -- --- ---- -- ------ ------<br>--- ----- -- ----,123194.5,123193.39999985695,122778.878,122793.39999985695,122795.486,123212.066,,5,a
screen,html.Screen,2_1_0_1_6,2022-02-15T13:04:54.582Z,,,,,,,,,,,,,,,,,53,,,,,,,,,,,,,,412.3339998569427,,response,,,,99,,,,,,,Space,keypress(Space),,,,,,,,---- -- ----- -- ------ - lasting --- ----------<br>------------- ------ ------ ---- ---- ------- ----- -- ----<br>-------- ------- -- ---------- --- - --- ----- ----- ----<br>---- --- --- ----- --- ---- ---- ------- ----- ---- -------<br>--- --- -- ----- -- --- ---- -- --- ---- -- ------ ------<br>--- ----- -- ----,123625.69999980927,123624.39999985695,123195.441,123194.69999980927,123212.066,123628.515,,6,lasting
screen,html.Screen,2_1_0_1_7,2022-02-15T13:04:55.023Z,,,,,,,,,,,,,,,,,53,,,,,,,,,,,,,,436.38499985694943,,response,,,,99,,,,,,,Space,keypress(Space),,,,,,,,---- -- ----- -- ------ - ------- and ----------<br>------------- ------ ------ ---- ---- ------- ----- -- ----<br>-------- ------- -- ---------- --- - --- ----- ----- ----<br>---- --- --- ----- --- ---- ---- ------- ----- ---- -------<br>--- --- -- ----- -- --- ---- -- --- ---- -- ------ ------<br>--- ----- -- ----,124066.19999980927,124064.89999985695,123611.823,123626,123628.515,124078.384,,7,and
screen,html.Screen,2_1_0_1_8,2022-02-15T13:04:55.481Z,,,,,,,,,,,,,,,,,53,,,,,,,,,,,,,,444.81599980925967,,response,,,,99,,,,,,,Space,keypress(Space),,,,,,,,---- -- ----- -- ------ - ------- --- fulfilling<br>------------- ------ ------ ---- ---- ------- ----- -- ----<br>-------- ------- -- ---------- --- - --- ----- ----- ----<br>---- --- --- ----- --- ---- ---- ------- ----- ---- -------<br>--- --- -- ----- -- --- ---- -- --- ---- -- ------ ------<br>--- ----- -- ----,124524.5,124523.19999980927,124061.793,124066.39999985695,124078.384,124528.29,,8,fulfilling
screen,html.Screen,2_1_0_1_9,2022-02-15T13:04:55.979Z,,,,,,,,,,,,,,,,,53,,,,,,,,,,,,,,493.0099999523227,,response,,,,99,,,,,,,Space,keypress(Space),,,,,,,,"---- -- ----- -- ------ - ------- --- ----------<br>relationship, ------ ------ ---- ---- ------- ----- -- ----<br>-------- ------- -- ---------- --- - --- ----- ----- ----<br>---- --- --- ----- --- ---- ---- ------- ----- ---- -------<br>--- --- -- ----- -- --- ---- -- --- ---- -- ------ ------<br>--- ----- -- ----",125022.69999980927,125021.29999995232,124511.637,124524.69999980927,124528.29,125028.188,,9,"relationship,"
screen,html.Screen,2_1_0_1_10,2022-02-15T13:04:56.466Z,,,,,,,,,,,,,,,,,53,,,,,,,,,,,,,,479.61199995232164,,response,,,,99,,,,,,,Space,keypress(Space),,,,,,,,---- -- ----- -- ------ - ------- --- ----------<br>------------- common ------ ---- ---- ------- ----- -- ----<br>-------- ------- -- ---------- --- - --- ----- ----- ----<br>---- --- --- ----- --- ---- ---- ------- ----- ---- -------<br>--- --- -- ----- -- --- ---- -- --- ---- -- ------ ------<br>--- ----- -- ----,125509,125507.79999995232,125011.596,125022.89999985695,125028.188,125511.408,,10,common
screen,html.Screen,2_1_0_1_11,2022-02-15T13:04:56.905Z,,,,,,,,,,,,,,,,,53,,,,,,,,,,,,,,435.2919998092693,,response,,,,99,,,,,,,Space,keypress(Space),,,,,,,,---- -- ----- -- ------ - ------- --- ----------<br>------------- ------ wisdom ---- ---- ------- ----- -- ----<br>-------- ------- -- ---------- --- - --- ----- ----- ----<br>---- --- --- ----- --- ---- ---- ------- ----- ---- -------<br>--- --- -- ----- -- --- ---- -- --- ---- -- ------ ------<br>--- ----- -- ----,125947.79999995232,125946.69999980927,125494.885,125509.19999980927,125511.408,125961.357,,11,wisdom
screen,html.Screen,2_1_0_1_12,2022-02-15T13:04:57.342Z,,,,,,,,,,,,,,,,,53,,,,,,,,,,,,,,422.6429999999964,,response,,,,99,,,,,,,Space,keypress(Space),,,,,,,,---- -- ----- -- ------ - ------- --- ----------<br>------------- ------ ------ says ---- ------- ----- -- ----<br>-------- ------- -- ---------- --- - --- ----- ----- ----<br>---- --- --- ----- --- ---- ---- ------- ----- ---- -------<br>--- --- -- ----- -- --- ---- -- --- ---- -- ------ ------<br>--- ----- -- ----,126385.39999985695,126384,125944.695,125948.09999990463,125961.357,126394.474,,12,says
screen,html.Screen,2_1_0_1_13,2022-02-15T13:04:57.745Z,,,,,,,,,,,,,,,,,53,,,,,,,,,,,,,,392.8259999523143,,response,,,,99,,,,,,,Space,keypress(Space),,,,,,,,---- -- ----- -- ------ - ------- --- ----------<br>------------- ------ ------ ---- that ------- ----- -- ----<br>-------- ------- -- ---------- --- - --- ----- ----- ----<br>---- --- --- ----- --- ---- ---- ------- ----- ---- -------<br>--- --- -- ----- -- --- ---- -- --- ---- -- ------ ------<br>--- ----- -- ----,126788.39999985695,126787.29999995232,126377.857,126385.59999990463,126394.474,126794.403,,13,that
screen,html.Screen,2_1_0_1_14,2022-02-15T13:04:58.171Z,,,,,,,,,,,,,,,,,53,,,,,,,,,,,,,,417.8969999523106,,response,,,,99,,,,,,,Space,keypress(Space),,,,,,,,---- -- ----- -- ------ - ------- --- ----------<br>------------- ------ ------ ---- ---- feeling ----- -- ----<br>-------- ------- -- ---------- --- - --- ----- ----- ----<br>---- --- --- ----- --- ---- ---- ------- ----- ---- -------<br>--- --- -- ----- -- --- ---- -- --- ---- -- ------ ------<br>--- ----- -- ----,127213.59999990463,127212.29999995232,126777.753,126788.69999980927,126794.403,127227.791,,14,feeling
screen,html.Screen,2_1_0_1_15,2022-02-15T13:04:58.621Z,,,,,,,,,,,,,,,,,53,,,,,,,,,,,,,,435.4089998092677,,response,,,,99,,,,,,,Space,keypress(Space),,,,,,,,---- -- ----- -- ------ - ------- --- ----------<br>------------- ------ ------ ---- ---- ------- close -- ----<br>-------- ------- -- ---------- --- - --- ----- ----- ----<br>---- --- --- ----- --- ---- ---- ------- ----- ---- -------<br>--- --- -- ----- -- --- ---- -- --- ---- -- ------ ------<br>--- ----- -- ----,127663.79999995232,127663.19999980927,127211.144,127213.79999995232,127227.791,127677.691,,15,close
screen,html.Screen,2_1_0_1_16,2022-02-15T13:04:59.037Z,,,,,,,,,,,,,,,,,53,,,,,,,,,,,,,,401.4089999046264,,response,,,,99,,,,,,,Space,keypress(Space),,,,,,,,---- -- ----- -- ------ - ------- --- ----------<br>------------- ------ ------ ---- ---- ------- ----- to ----<br>-------- ------- -- ---------- --- - --- ----- ----- ----<br>---- --- --- ----- --- ---- ---- ------- ----- ---- -------<br>--- --- -- ----- -- --- ---- -- --- ---- -- ------ ------<br>--- ----- -- ----,128080.39999985695,128079.09999990463,127660.869,127663.89999985695,127677.691,128094.247,,16,to
screen,html.Screen,2_1_0_1_17,2022-02-15T13:04:59.452Z,,,,,,,,,,,,,,,,,53,,,,,,,,,,,,,,399.85299990462954,,response,,,,99,,,,,,,Space,keypress(Space),,,,,,,,---- -- ----- -- ------ - ------- --- ----------<br>------------- ------ ------ ---- ---- ------- ----- -- your<br>-------- ------- -- ---------- --- - --- ----- ----- ----<br>---- --- --- ----- --- ---- ---- ------- ----- ---- -------<br>--- --- -- ----- -- --- ---- -- --- ---- -- ------ ------<br>--- ----- -- ----,128495.39999985695,128494.09999990463,128077.579,128080.69999980927,128094.247,128510.829,,17,your
screen,html.Screen,2_1_0_1_18,2022-02-15T13:04:59.880Z,,,,,,,,,,,,,,,,,53,,,,,,,,,,,,,,410.6710000000021,,response,,,,99,,,,,,,Space,keypress(Space),,,,,,,,---- -- ----- -- ------ - ------- --- ----------<br>------------- ------ ------ ---- ---- ------- ----- -- ----<br>romantic ------- -- ---------- --- - --- ----- ----- ----<br>---- --- --- ----- --- ---- ---- ------- ----- ---- -------<br>--- --- -- ----- -- --- ---- -- --- ---- -- ------ ------<br>--- ----- -- ----,128923.29999995232,128921.5,128494.164,128495.59999990463,128510.829,128927.249,,18,romantic
screen,html.Screen,2_1_0_1_19,2022-02-15T13:05:00.305Z,,,,,,,,,,,,,,,,,53,,,,,,,,,,,,,,420.0509999523201,,response,,,,99,,,,,,,Space,keypress(Space),,,,,,,,---- -- ----- -- ------ - ------- --- ----------<br>------------- ------ ------ ---- ---- ------- ----- -- ----<br>-------- partner -- ---------- --- - --- ----- ----- ----<br>---- --- --- ----- --- ---- ---- ------- ----- ---- -------<br>--- --- -- ----- -- --- ---- -- --- ---- -- ------ ------<br>--- ----- -- ----,129348.5,129347.29999995232,128910.72,128923.59999990463,128927.249,129360.539,,19,partner
screen,html.Screen,2_1_0_1_20,2022-02-15T13:05:00.693Z,,,,,,,,,,,,,,,,,53,,,,,,,,,,,,,,374.36099985694455,,response,,,,99,,,,,,,Space,keypress(Space),,,,,,,,---- -- ----- -- ------ - ------- --- ----------<br>------------- ------ ------ ---- ---- ------- ----- -- ----<br>-------- ------- is ---------- --- - --- ----- ----- ----<br>---- --- --- ----- --- ---- ---- ------- ----- ---- -------<br>--- --- -- ----- -- --- ---- -- --- ---- -- ------ ------<br>--- ----- -- ----,129736.39999985695,129734.89999985695,129343.901,129348.69999980927,129360.539,129743.737,,20,is
screen,html.Screen,2_1_0_1_21,2022-02-15T13:05:01.098Z,,,,,,,,,,,,,,,,,53,,,,,,,,,,,,,,395.9629998092714,,response,,,,99,,,,,,,Space,keypress(Space),,,,,,,,---- -- ----- -- ------ - ------- --- ----------<br>------------- ------ ------ ---- ---- ------- ----- -- ----<br>-------- ------- -- paramount. --- - --- ----- ----- ----<br>---- --- --- ----- --- ---- ---- ------- ----- ---- -------<br>--- --- -- ----- -- --- ---- -- --- ---- -- ------ ------<br>--- ----- -- ----,130141.29999995232,130139.69999980927,129727.196,129736.69999980927,129743.737,130143.615,,21,paramount.
screen,html.Screen,2_1_0_1_22,2022-02-15T13:05:01.538Z,,,,,,,,,,,,,,,,,53,,,,,,,,,,,,,,436.38499999999476,,response,,,,99,,,,,,,Space,keypress(Space),,,,,,,,---- -- ----- -- ------ - ------- --- ----------<br>------------- ------ ------ ---- ---- ------- ----- -- ----<br>-------- ------- -- ---------- But - --- ----- ----- ----<br>---- --- --- ----- --- ---- ---- ------- ----- ---- -------<br>--- --- -- ----- -- --- ---- -- --- ---- -- ------ ------<br>--- ----- -- ----,130581.19999980927,130580,130127.117,130141.5,130143.615,130593.516,,22,But
screen,html.Screen,2_1_0_1_23,2022-02-15T13:05:01.955Z,,,,,,,,,,,,,,,,,53,,,,,,,,,,,,,,403.6839998092619,,response,,,,99,,,,,,,Space,keypress(Space),,,,,,,,---- -- ----- -- ------ - ------- --- ----------<br>------------- ------ ------ ---- ---- ------- ----- -- ----<br>-------- ------- -- ---------- --- a --- ----- ----- ----<br>---- --- --- ----- --- ---- ---- ------- ----- ---- -------<br>--- --- -- ----- -- --- ---- -- --- ---- -- ------ ------<br>--- ----- -- ----,130998.5,130997.19999980927,130577.016,130581.5,130593.516,131010.151,,23,a
screen,html.Screen,2_1_0_1_24,2022-02-15T13:05:02.359Z,,,,,,,,,,,,,,,,,53,,,,,,,,,,,,,,390.64899995231826,,response,,,,99,,,,,,,Space,keypress(Space),,,,,,,,---- -- ----- -- ------ - ------- --- ----------<br>------------- ------ ------ ---- ---- ------- ----- -- ----<br>-------- ------- -- ---------- --- - new ----- ----- ----<br>---- --- --- ----- --- ---- ---- ------- ----- ---- -------<br>--- --- -- ----- -- --- ---- -- --- ---- -- ------ ------<br>--- ----- -- ----,131402.19999980927,131400.79999995232,130993.555,130998.79999995232,131010.151,131409.981,,24,new
screen,html.Screen,2_1_0_1_25,2022-02-15T13:05:02.782Z,,,,,,,,,,,,,,,,,53,,,,,,,,,,,,,,414.3189999523165,,response,,,,99,,,,,,,Space,keypress(Space),,,,,,,,---- -- ----- -- ------ - ------- --- ----------<br>------------- ------ ------ ---- ---- ------- ----- -- ----<br>-------- ------- -- ---------- --- - --- study ----- ----<br>---- --- --- ----- --- ---- ---- ------- ----- ---- -------<br>--- --- -- ----- -- --- ---- -- --- ---- -- ------ ------<br>--- ----- -- ----,131825.5,131824.29999995232,131393.448,131402.5,131409.981,131860.044,,25,study
screen,html.Screen,2_1_0_1_26,2022-02-15T13:05:03.194Z,,,,,,,,,,,,,,,,,53,,,,,,,,,,,,,,375.2559999523219,,response,,,,99,,,,,,,Space,keypress(Space),,,,,,,,---- -- ----- -- ------ - ------- --- ----------<br>------------- ------ ------ ---- ---- ------- ----- -- ----<br>-------- ------- -- ---------- --- - --- ----- finds ----<br>---- --- --- ----- --- ---- ---- ------- ----- ---- -------<br>--- --- -- ----- -- --- ---- -- --- ---- -- ------ ------<br>--- ----- -- ----,132236.79999995232,132235.29999995232,131843.365,131825.79999995232,131860.044,132243.106,,26,finds
screen,html.Screen,2_1_0_1_27,2022-02-15T13:05:03.574Z,,,,,,,,,,,,,,,,,53,,,,,,,,,,,,,,372.2939998569491,,response,,,,99,,,,,,,Space,keypress(Space),,,,,,,,---- -- ----- -- ------ - ------- --- ----------<br>------------- ------ ------ ---- ---- ------- ----- -- ----<br>-------- ------- -- ---------- --- - --- ----- ----- that<br>---- --- --- ----- --- ---- ---- ------- ----- ---- -------<br>--- --- -- ----- -- --- ---- -- --- ---- -- ------ ------<br>--- ----- -- ----,132616.89999985695,132615.39999985695,132226.608,132237.5,132243.106,132626.357,,27,that
screen,html.Screen,2_1_0_1_28,2022-02-15T13:05:04.001Z,,,,,,,,,,,,,,,,,53,,,,,,,,,,,,,,416.4429999523272,,response,,,,99,,,,,,,Space,keypress(Space),,,,,,,,---- -- ----- -- ------ - ------- --- ----------<br>------------- ------ ------ ---- ---- ------- ----- -- ----<br>-------- ------- -- ---------- --- - --- ----- ----- ----<br>it's --- --- ----- --- ---- ---- ------- ----- ---- -------<br>--- --- -- ----- -- --- ---- -- --- ---- -- ------ ------<br>--- ----- -- ----,133044,133042.79999995232,132609.831,132617.09999990463,132626.357,133059.74,,28,it's
screen,html.Screen,2_1_0_1_29,2022-02-15T13:05:04.400Z,,,,,,,,,,,,,,,,,53,,,,,,,,,,,,,,382.65999985695817,,response,,,,99,,,,,,,Space,keypress(Space),,,,,,,,---- -- ----- -- ------ - ------- --- ----------<br>------------- ------ ------ ---- ---- ------- ----- -- ----<br>-------- ------- -- ---------- --- - --- ----- ----- ----<br>---- not --- ----- --- ---- ---- ------- ----- ---- -------<br>--- --- -- ----- -- --- ---- -- --- ---- -- ------ ------<br>--- ----- -- ----,133443.5,133442.39999985695,133042.923,133044.19999980927,133059.74,133459.529,,29,not
screen,html.Screen,2_1_0_1_30,2022-02-15T13:05:04.817Z,,,,,,,,,,,,,,,,,53,,,,,,,,,,,,,,399.1709998092556,,response,,,,99,,,,,,,Space,keypress(Space),,,,,,,,---- -- ----- -- ------ - ------- --- ----------<br>------------- ------ ------ ---- ---- ------- ----- -- ----<br>-------- ------- -- ---------- --- - --- ----- ----- ----<br>---- --- how ----- --- ---- ---- ------- ----- ---- -------<br>--- --- -- ----- -- --- ---- -- --- ---- -- ------ ------<br>--- ----- -- ----,133859.89999985695,133858.69999980927,133442.981,133443.69999980927,133459.529,133876.211,,30,how
screen,html.Screen,2_1_0_1_31,2022-02-15T13:05:05.210Z,,,,,,,,,,,,,,,,,53,,,,,,,,,,,,,,375.28899999998976,,response,,,,99,,,,,,,Space,keypress(Space),,,,,,,,---- -- ----- -- ------ - ------- --- ----------<br>------------- ------ ------ ---- ---- ------- ----- -- ----<br>-------- ------- -- ---------- --- - --- ----- ----- ----<br>---- --- --- close --- ---- ---- ------- ----- ---- -------<br>--- --- -- ----- -- --- ---- -- --- ---- -- ------ ------<br>--- ----- -- ----,134252.69999980927,134251.5,133859.523,133860.19999980927,133876.211,134259.292,,31,close
screen,html.Screen,2_1_0_1_32,2022-02-15T13:05:05.643Z,,,,,,,,,,,,,,,,,53,,,,,,,,,,,,,,425.30799990464584,,response,,,,99,,,,,,,Space,keypress(Space),,,,,,,,---- -- ----- -- ------ - ------- --- ----------<br>------------- ------ ------ ---- ---- ------- ----- -- ----<br>-------- ------- -- ---------- --- - --- ----- ----- ----<br>---- --- --- ----- you ---- ---- ------- ----- ---- -------<br>--- --- -- ----- -- --- ---- -- --- ---- -- ------ ------<br>--- ----- -- ----,134685.69999980927,134684.59999990463,134242.754,134252.89999985695,134259.292,134692.519,,32,you
screen,html.Screen,2_1_0_1_33,2022-02-15T13:05:06.020Z,,,,,,,,,,,,,,,,,53,,,,,,,,,,,,,,368.98099999999977,,response,,,,99,,,,,,,Space,keypress(Space),,,,,,,,---- -- ----- -- ------ - ------- --- ----------<br>------------- ------ ------ ---- ---- ------- ----- -- ----<br>-------- ------- -- ---------- --- - --- ----- ----- ----<br>---- --- --- ----- --- feel ---- ------- ----- ---- -------<br>--- --- -- ----- -- --- ---- -- --- ---- -- ------ ------<br>--- ----- -- ----,135062.79999995232,135061.5,134676,134685.89999985695,134692.519,135075.889,,33,feel
screen,html.Screen,2_1_0_1_34,2022-02-15T13:05:06.421Z,,,,,,,,,,,,,,,,,53,,,,,,,,,,,,,,387.0109998569533,,response,,,,99,,,,,,,Space,keypress(Space),,,,,,,,---- -- ----- -- ------ - ------- --- ----------<br>------------- ------ ------ ---- ---- ------- ----- -- ----<br>-------- ------- -- ---------- --- - --- ----- ----- ----<br>---- --- --- ----- --- ---- that ------- ----- ---- -------<br>--- --- -- ----- -- --- ---- -- --- ---- -- ------ ------<br>--- ----- -- ----,135464.19999980927,135462.89999985695,135059.267,135063.09999990463,135075.889,135475.756,,34,that
screen,html.Screen,2_1_0_1_35,2022-02-15T13:05:06.829Z,,,,,,,,,,,,,,,,,53,,,,,,,,,,,,,,394.74400000000605,,response,,,,99,,,,,,,Space,keypress(Space),,,,,,,,---- -- ----- -- ------ - ------- --- ----------<br>------------- ------ ------ ---- ---- ------- ----- -- ----<br>-------- ------- -- ---------- --- - --- ----- ----- ----<br>---- --- --- ----- --- ---- ---- matters ----- ---- -------<br>--- --- -- ----- -- --- ---- -- --- ---- -- ------ ------<br>--- ----- -- ----,135871.89999985695,135870.5,135459.145,135464.39999985695,135475.756,135875.562,,35,matters
screen,html.Screen,2_1_0_1_36,2022-02-15T13:05:07.189Z,,,,,,,,,,,,,,,,,53,,,,,,,,,,,,,,354.8379998569435,,response,,,,99,,,,,,,Space,keypress(Space),,,,,,,,"---- -- ----- -- ------ - ------- --- ----------<br>------------- ------ ------ ---- ---- ------- ----- -- ----<br>-------- ------- -- ---------- --- - --- ----- ----- ----<br>---- --- --- ----- --- ---- ---- ------- most, ---- -------<br>--- --- -- ----- -- --- ---- -- --- ---- -- ------ ------<br>--- ----- -- ----",136232.39999985695,136230.39999985695,135859.09,135872.5,135875.562,136242.141,,36,"most,"
screen,html.Screen,2_1_0_1_37,2022-02-15T13:05:07.629Z,,,,,,,,,,,,,,,,,53,,,,,,,,,,,,,,425.9589999046293,,response,,,,99,,,,,,,Space,keypress(Space),,,,,,,,---- -- ----- -- ------ - ------- --- ----------<br>------------- ------ ------ ---- ---- ------- ----- -- ----<br>-------- ------- -- ---------- --- - --- ----- ----- ----<br>---- --- --- ----- --- ---- ---- ------- ----- it's -------<br>--- --- -- ----- -- --- ---- -- --- ---- -- ------ ------<br>--- ----- -- ----,136671.79999995232,136668.09999990463,136225.651,136232.69999980927,136242.141,136675.394,,37,it's
screen,html.Screen,2_1_0_1_38,2022-02-15T13:05:08.041Z,,,,,,,,,,,,,,,,,53,,,,,,,,,,,,,,407.70599990463234,,response,,,,99,,,,,,,Space,keypress(Space),,,,,,,,---- -- ----- -- ------ - ------- --- ----------<br>------------- ------ ------ ---- ---- ------- ----- -- ----<br>-------- ------- -- ---------- --- - --- ----- ----- ----<br>---- --- --- ----- --- ---- ---- ------- ----- ---- whether<br>--- --- -- ----- -- --- ---- -- --- ---- -- ------ ------<br>--- ----- -- ----,137084.19999980927,137083.09999990463,136658.763,136672.39999985695,136675.394,137091.927,,38,whether
screen,html.Screen,2_1_0_1_39,2022-02-15T13:05:08.452Z,,,,,,,,,,,,,,,,,53,,,,,,,,,,,,,,401.37299995232024,,response,,,,99,,,,,,,Space,keypress(Space),,,,,,,,---- -- ----- -- ------ - ------- --- ----------<br>------------- ------ ------ ---- ---- ------- ----- -- ----<br>-------- ------- -- ---------- --- - --- ----- ----- ----<br>---- --- --- ----- --- ---- ---- ------- ----- ---- -------<br>you --- -- ----- -- --- ---- -- --- ---- -- ------ ------<br>--- ----- -- ----,137494.69999980927,137493.29999995232,137075.455,137084.39999985695,137091.927,137508.518,,39,you
screen,html.Screen,2_1_0_1_40,2022-02-15T13:05:08.879Z,,,,,,,,,,,,,,,,,53,,,,,,,,,,,,,,411.98199999998906,,response,,,,99,,,,,,,Space,keypress(Space),,,,,,,,---- -- ----- -- ------ - ------- --- ----------<br>------------- ------ ------ ---- ---- ------- ----- -- ----<br>-------- ------- -- ---------- --- - --- ----- ----- ----<br>---- --- --- ----- --- ---- ---- ------- ----- ---- -------<br>--- are -- ----- -- --- ---- -- --- ---- -- ------ ------<br>--- ----- -- ----,137921.69999980927,137920.5,137491.954,137495,137508.518,137925.112,,40,are
screen,html.Screen,2_1_0_1_41,2022-02-15T13:05:09.270Z,,,,,,,,,,,,,,,,,53,,,,,,,,,,,,,,386.18799995232257,,response,,,,99,,,,,,,Space,keypress(Space),,,,,,,,---- -- ----- -- ------ - ------- --- ----------<br>------------- ------ ------ ---- ---- ------- ----- -- ----<br>-------- ------- -- ---------- --- - --- ----- ----- ----<br>---- --- --- ----- --- ---- ---- ------- ----- ---- -------<br>--- --- as ----- -- --- ---- -- --- ---- -- ------ ------<br>--- ----- -- ----,138312.89999985695,138311.29999995232,137908.577,137922,137925.112,138324.998,,41,as
screen,html.Screen,2_1_0_1_42,2022-02-15T13:05:09.663Z,,,,,,,,,,,,,,,,,53,,,,,,,,,,,,,,379.90199985695654,,response,,,,99,,,,,,,Space,keypress(Space),,,,,,,,---- -- ----- -- ------ - ------- --- ----------<br>------------- ------ ------ ---- ---- ------- ----- -- ----<br>-------- ------- -- ---------- --- - --- ----- ----- ----<br>---- --- --- ----- --- ---- ---- ------- ----- ---- -------<br>--- --- -- close -- --- ---- -- --- ---- -- ------ ------<br>--- ----- -- ----,138706.09999990463,138704.89999985695,138308.475,138313.19999980927,138324.998,138708.21,,42,close
screen,html.Screen,2_1_0_1_43,2022-02-15T13:05:10.032Z,,,,,,,,,,,,,,,,,53,,,,,,,,,,,,,,365.3899999046407,,response,,,,99,,,,,,,Space,keypress(Space),,,,,,,,---- -- ----- -- ------ - ------- --- ----------<br>------------- ------ ------ ---- ---- ------- ----- -- ----<br>-------- ------- -- ---------- --- - --- ----- ----- ----<br>---- --- --- ----- --- ---- ---- ------- ----- ---- -------<br>--- --- -- ----- as --- ---- -- --- ---- -- ------ ------<br>--- ----- -- ----,139074.69999980927,139073.59999990463,138691.695,138706.19999980927,138708.21,139091.657,,43,as
screen,html.Screen,2_1_0_1_44,2022-02-15T13:05:10.515Z,,,,,,,,,,,,,,,,,53,,,,,,,,,,,,,,465.0429998092586,,response,,,,99,,,,,,,Space,keypress(Space),,,,,,,,---- -- ----- -- ------ - ------- --- ----------<br>------------- ------ ------ ---- ---- ------- ----- -- ----<br>-------- ------- -- ---------- --- - --- ----- ----- ----<br>---- --- --- ----- --- ---- ---- ------- ----- ---- -------<br>--- --- -- ----- -- you ---- -- --- ---- -- ------ ------<br>--- ----- -- ----,139557.89999985695,139556.69999980927,139074.908,139074.89999985695,139091.657,139574.718,,44,you
screen,html.Screen,2_1_0_1_45,2022-02-15T13:05:10.878Z,,,,,,,,,,,,,,,,,53,,,,,,,,,,,,,,344.8819999046391,,response,,,,99,,,,,,,Space,keypress(Space),,,,,,,,---- -- ----- -- ------ - ------- --- ----------<br>------------- ------ ------ ---- ---- ------- ----- -- ----<br>-------- ------- -- ---------- --- - --- ----- ----- ----<br>---- --- --- ----- --- ---- ---- ------- ----- ---- -------<br>--- --- -- ----- -- --- want -- --- ---- -- ------ ------<br>--- ----- -- ----,139920.89999985695,139919.59999990463,139558.168,139558.09999990463,139574.718,139924.625,,45,want
screen,html.Screen,2_1_0_1_46,2022-02-15T13:05:11.273Z,,,,,,,,,,,,,,,,,53,,,,,,,,,,,,,,390.27499985694885,,response,,,,99,,,,,,,Space,keypress(Space),,,,,,,,---- -- ----- -- ------ - ------- --- ----------<br>------------- ------ ------ ---- ---- ------- ----- -- ----<br>-------- ------- -- ---------- --- - --- ----- ----- ----<br>---- --- --- ----- --- ---- ---- ------- ----- ---- -------<br>--- --- -- ----- -- --- ---- to --- ---- -- ------ ------<br>--- ----- -- ----,140316,140314.89999985695,139908.101,139921.19999980927,139924.625,140324.486,,46,to
screen,html.Screen,2_1_0_1_47,2022-02-15T13:05:11.624Z,,,,,,,,,,,,,,,,,53,,,,,,,,,,,,,,341.31399995231186,,response,,,,99,,,,,,,Space,keypress(Space),,,,,,,,"---- -- ----- -- ------ - ------- --- ----------<br>------------- ------ ------ ---- ---- ------- ----- -- ----<br>-------- ------- -- ---------- --- - --- ----- ----- ----<br>---- --- --- ----- --- ---- ---- ------- ----- ---- -------<br>--- --- -- ----- -- --- ---- -- be, ---- -- ------ ------<br>--- ----- -- ----",140666.89999985695,140665.79999995232,140308.023,140316.19999980927,140324.486,140674.448,,47,"be,"
screen,html.Screen,2_1_0_1_48,2022-02-15T13:05:12.035Z,,,,,,,,,,,,,,,,,53,,,,,,,,,,,,,,402.2519998092612,,response,,,,99,,,,,,,Space,keypress(Space),,,,,,,,---- -- ----- -- ------ - ------- --- ----------<br>------------- ------ ------ ---- ---- ------- ----- -- ----<br>-------- ------- -- ---------- --- - --- ----- ----- ----<br>---- --- --- ----- --- ---- ---- ------- ----- ---- -------<br>--- --- -- ----- -- --- ---- -- --- even -- ------ ------<br>--- ----- -- ----,141078,141076.69999980927,140657.894,140667.09999990463,140674.448,141091.075,,48,even
screen,html.Screen,2_1_0_1_49,2022-02-15T13:05:12.447Z,,,,,,,,,,,,,,,,,53,,,,,,,,,,,,,,397.92499999998836,,response,,,,99,,,,,,,Space,keypress(Space),,,,,,,,---- -- ----- -- ------ - ------- --- ----------<br>------------- ------ ------ ---- ---- ------- ----- -- ----<br>-------- ------- -- ---------- --- - --- ----- ----- ----<br>---- --- --- ----- --- ---- ---- ------- ----- ---- -------<br>--- --- -- ----- -- --- ---- -- --- ---- if ------ ------<br>--- ----- -- ----,141490.19999980927,141489,141074.454,141078.19999980927,141091.075,141507.735,,49,if
screen,html.Screen,2_1_0_1_50,2022-02-15T13:05:12.840Z,,,,,,,,,,,,,,,,,53,,,,,,,,,,,,,,374.06499995233025,,response,,,,99,,,,,,,Space,keypress(Space),,,,,,,,---- -- ----- -- ------ - ------- --- ----------<br>------------- ------ ------ ---- ---- ------- ----- -- ----<br>-------- ------- -- ---------- --- - --- ----- ----- ----<br>---- --- --- ----- --- ---- ---- ------- ----- ---- -------<br>--- --- -- ----- -- --- ---- -- --- ---- -- that's ------<br>--- ----- -- ----,141882.89999985695,141881.79999995232,141491.066,141490.39999985695,141507.735,141890.804,,50,that's
screen,html.Screen,2_1_0_1_51,2022-02-15T13:05:13.211Z,,,,,,,,,,,,,,,,,53,,,,,,,,,,,,,,362.1959999999963,,response,,,,99,,,,,,,Space,keypress(Space),,,,,,,,---- -- ----- -- ------ - ------- --- ----------<br>------------- ------ ------ ---- ---- ------- ----- -- ----<br>-------- ------- -- ---------- --- - --- ----- ----- ----<br>---- --- --- ----- --- ---- ---- ------- ----- ---- -------<br>--- --- -- ----- -- --- ---- -- --- ---- -- ------ really<br>--- ----- -- ----,142254.59999990463,142253,141874.288,141883.19999980927,141890.804,142257.396,,51,really
screen,html.Screen,2_1_0_1_52,2022-02-15T13:05:13.625Z,,,,,,,,,,,,,,,,,53,,,,,,,,,,,,,,409.6039999999921,,response,,,,99,,,,,,,Space,keypress(Space),,,,,,,,---- -- ----- -- ------ - ------- --- ----------<br>------------- ------ ------ ---- ---- ------- ----- -- ----<br>-------- ------- -- ---------- --- - --- ----- ----- ----<br>---- --- --- ----- --- ---- ---- ------- ----- ---- -------<br>--- --- -- ----- -- --- ---- -- --- ---- -- ------ ------<br>not ----- -- ----,142668.5,142667,142240.759,142254.79999995232,142257.396,142673.978,,52,not
screen,html.Screen,2_1_0_1_53,2022-02-15T13:05:14.036Z,,,,,,,,,,,,,,,,,53,,,,,,,,,,,,,,403.5219999999972,,response,,,,99,,,,,,,Space,keypress(Space),,,,,,,,---- -- ----- -- ------ - ------- --- ----------<br>------------- ------ ------ ---- ---- ------- ----- -- ----<br>-------- ------- -- ---------- --- - --- ----- ----- ----<br>---- --- --- ----- --- ---- ---- ------- ----- ---- -------<br>--- --- -- ----- -- --- ---- -- --- ---- -- ------ ------<br>--- close -- ----,143078.59999990463,143077.5,142657.456,142668.79999995232,142673.978,143090.556,,53,close
screen,html.Screen,2_1_0_1_54,2022-02-15T13:05:14.418Z,,,,,,,,,,,,,,,,,53,,,,,,,,,,,,,,369.04399990462116,,response,,,,99,,,,,,,Space,keypress(Space),,,,,,,,---- -- ----- -- ------ - ------- --- ----------<br>------------- ------ ------ ---- ---- ------- ----- -- ----<br>-------- ------- -- ---------- --- - --- ----- ----- ----<br>---- --- --- ----- --- ---- ---- ------- ----- ---- -------<br>--- --- -- ----- -- --- ---- -- --- ---- -- ------ ------<br>--- ----- at ----,143460.79999995232,143459.59999990463,143074.017,143078.89999985695,143090.556,143473.898,,54,at
screen,html.Screen,2_1_0_1_55,2022-02-15T13:05:14.866Z,,,,,,,,,,,,,,,,,53,,,,,,,,,,,,,,433.80199980927864,,response,,,,99,,,,,,,Space,keypress(Space),,,,,,,,---- -- ----- -- ------ - ------- --- ----------<br>------------- ------ ------ ---- ---- ------- ----- -- ----<br>-------- ------- -- ---------- --- - --- ----- ----- ----<br>---- --- --- ----- --- ---- ---- ------- ----- ---- -------<br>--- --- -- ----- -- --- ---- -- --- ---- -- ------ ------<br>--- ----- -- all.,143909.39999985695,143907.69999980927,143457.237,143461,143473.898,143923.662,,55,all.
Item 99,flow.Loop,2_1_0_1,2022-02-15T13:05:14.867Z,,,,,,,,,,,,,,,,,,,,,,,,,,,,,,,23961.650999809266,,completion,,,,,E,,,,,,,,,,,silence,,,,,143909.89999985695,143907.69999980927,119729.601,119731.69999980927,119946.049,143923.662,,,
Question 1,html.Screen,2_1_0_2,2022-02-15T13:05:20.159Z,,,,,,,,,,,,,,,,,,,,,,,,,,,,true,FALSE,,5277.837999999989,,response,,,,99,E,,,,,,FALSE,click #choice-2,,,,silence,,,,,149202.5,149201.5,143907.123,143910.09999990463,143923.662,149205.877,,,
Question 2,html.Screen,2_1_0_3,2022-02-15T13:05:23.607Z,,,,,,,,,,,,,,,,,,,,,,,,,,,,false,TRUE,,3443.722999904625,,response,,,,99,E,,,,,,FALSE,click #choice-2,,,,silence,,,,,152650.5,152649.59999990463,149189.075,149202.59999990463,149205.877,152654.846,,,
Item 99,flow.Sequence,2_1_0,2022-02-15T13:05:23.608Z,,,,,,,,,,,,,,,,,,,,,,,,,,,,,,,42901.16199990464,,completion,,,,,,,,,,,,,,,,,,,,,152650.69999980927,152649.59999990463,109731.952,109744.19999980927,109748.438,152654.846,,,
Holding screen,html.Screen,2_1_1_0,2022-02-15T13:05:33.594Z,,,,,,,,,,,,,,,,,,,,,,,,,,,,,,,9997.694000000018,,timeout,,,,,,,,,,,,,,,,,,,,,162637,162636.002,152638.386,152650.89999985695,152654.846,162652.54,,,
screen,html.Screen,2_1_1_1_0,2022-02-15T13:05:34.148Z,,,,,,,,,,,,,,,,,54,,,,,,,,,,,,,,537.5599999046244,,response,,,,100,,,,,,,Space,keypress(Space),,,,,,,,At --- ---- --- ------ ----- ------- ---- -- --- ------- --<br>------- ---------- ------ -- ----- -- ----- -- ---- ------<br>--- ----- --- --- ------ -------- ----- --- ------ ----- --<br>----- ----- ---------- --- --- ------ ------ ---- -- ------<br>------- --- ------ ----- --- ---- ------- -- ---- --- --<br>------- ------,163191.19999980927,163190.09999990463,162636.002,162637.29999995232,162652.54,163202.343,,0,At
screen,html.Screen,2_1_1_1_1,2022-02-15T13:05:34.523Z,,,,,,,,,,,,,,,,,54,,,,,,,,,,,,,,362.5569998569554,,response,,,,100,,,,,,,Space,keypress(Space),,,,,,,,-- the ---- --- ------ ----- ------- ---- -- --- ------- --<br>------- ---------- ------ -- ----- -- ----- -- ---- ------<br>--- ----- --- --- ------ -------- ----- --- ------ ----- --<br>----- ----- ---------- --- --- ------ ------ ---- -- ------<br>------- --- ------ ----- --- ---- ------- -- ---- --- --<br>------- ------,163566.09999990463,163564.89999985695,163185.868,163191.39999985695,163202.343,163568.99,,1,the
screen,html.Screen,2_1_1_1_2,2022-02-15T13:05:34.901Z,,,,,,,,,,,,,,,,,54,,,,,,,,,,,,,,374.3099999523256,,response,,,,100,,,,,,,Space,keypress(Space),,,,,,,,-- --- time --- ------ ----- ------- ---- -- --- ------- --<br>------- ---------- ------ -- ----- -- ----- -- ---- ------<br>--- ----- --- --- ------ -------- ----- --- ------ ----- --<br>----- ----- ---------- --- --- ------ ------ ---- -- ------<br>------- --- ------ ----- --- ---- ------- -- ---- --- --<br>------- ------,163944.5,163943.29999995232,163552.288,163566.19999980927,163568.99,163952.202,,2,time
screen,html.Screen,2_1_1_1_3,2022-02-15T13:05:35.268Z,,,,,,,,,,,,,,,,,54,,,,,,,,,,,,,,358.19799985695863,,response,,,,100,,,,,,,Space,keypress(Space),,,,,,,,-- --- ---- the ------ ----- ------- ---- -- --- ------- --<br>------- ---------- ------ -- ----- -- ----- -- ---- ------<br>--- ----- --- --- ------ -------- ----- --- ------ ----- --<br>----- ----- ---------- --- --- ------ ------ ---- -- ------<br>------- --- ------ ----- --- ---- ------- -- ---- --- --<br>------- ------,164311.5,164310.39999985695,163935.704,163944.79999995232,163952.202,164318.794,,3,the
screen,html.Screen,2_1_1_1_4,2022-02-15T13:05:35.663Z,,,,,,,,,,,,,,,,,54,,,,,,,,,,,,,,386.5059999523219,,response,,,,100,,,,,,,Space,keypress(Space),,,,,,,,-- --- ---- --- French ----- ------- ---- -- --- ------- --<br>------- ---------- ------ -- ----- -- ----- -- ---- ------<br>--- ----- --- --- ------ -------- ----- --- ------ ----- --<br>----- ----- ---------- --- --- ------ ------ ---- -- ------<br>------- --- ------ ----- --- ---- ------- -- ---- --- --<br>------- ------,164706.5,164705.29999995232,164302.152,164311.79999995232,164318.794,164718.79,,4,French
screen,html.Screen,2_1_1_1_5,2022-02-15T13:05:36.044Z,,,,,,,,,,,,,,,,,54,,,,,,,,,,,,,,366.70999999999185,,response,,,,100,,,,,,,Space,keypress(Space),,,,,,,,-- --- ---- --- ------ crown ------- ---- -- --- ------- --<br>------- ---------- ------ -- ----- -- ----- -- ---- ------<br>--- ----- --- --- ------ -------- ----- --- ------ ----- --<br>----- ----- ---------- --- --- ------ ------ ---- -- ------<br>------- --- ------ ----- --- ---- ------- -- ---- --- --<br>------- ------,165086.79999995232,165085.5,164702.191,164706.79999995232,164718.79,165102.075,,5,crown
screen,html.Screen,2_1_1_1_6,2022-02-15T13:05:36.423Z,,,,,,,,,,,,,,,,,54,,,,,,,,,,,,,,362.6249998092535,,response,,,,100,,,,,,,Space,keypress(Space),,,,,,,,-- --- ---- --- ------ ----- secured ---- -- --- ------- --<br>------- ---------- ------ -- ----- -- ----- -- ---- ------<br>--- ----- --- --- ------ -------- ----- --- ------ ----- --<br>----- ----- ---------- --- --- ------ ------ ---- -- ------<br>------- --- ------ ----- --- ---- ------- -- ---- --- --<br>------- ------,165465.89999985695,165464.69999980927,165085.381,165087,165102.075,165468.502,,6,secured
screen,html.Screen,2_1_1_1_7,2022-02-15T13:05:36.770Z,,,,,,,,,,,,,,,,,54,,,,,,,,,,,,,,343.4979999999923,,response,,,,100,,,,,,,Space,keypress(Space),,,,,,,,-- --- ---- --- ------ ----- ------- much -- --- ------- --<br>------- ---------- ------ -- ----- -- ----- -- ---- ------<br>--- ----- --- --- ------ -------- ----- --- ------ ----- --<br>----- ----- ---------- --- --- ------ ------ ---- -- ------<br>------- --- ------ ----- --- ---- ------- -- ---- --- --<br>------- ------,165813.29999995232,165812,165451.994,165466.19999980927,165468.502,165818.406,,7,much
screen,html.Screen,2_1_1_1_8,2022-02-15T13:05:37.135Z,,,,,,,,,,,,,,,,,54,,,,,,,,,,,,,,358.69399990464444,,response,,,,100,,,,,,,Space,keypress(Space),,,,,,,,-- --- ---- --- ------ ----- ------- ---- of --- ------- --<br>------- ---------- ------ -- ----- -- ----- -- ---- ------<br>--- ----- --- --- ------ -------- ----- --- ------ ----- --<br>----- ----- ---------- --- --- ------ ------ ---- -- ------<br>------- --- ------ ----- --- ---- ------- -- ---- --- --<br>------- ------,166178.39999985695,166177.09999990463,165801.927,165813.5,165818.406,166185.021,,8,of
screen,html.Screen,2_1_1_1_9,2022-02-15T13:05:37.484Z,,,,,,,,,,,,,,,,,54,,,,,,,,,,,,,,340.4789999999921,,response,,,,100,,,,,,,Space,keypress(Space),,,,,,,,-- --- ---- --- ------ ----- ------- ---- -- its ------- --<br>------- ---------- ------ -- ----- -- ----- -- ---- ------<br>--- ----- --- --- ------ -------- ----- --- ------ ----- --<br>----- ----- ---------- --- --- ------ ------ ---- -- ------<br>------- --- ------ ----- --- ---- ------- -- ---- --- --<br>------- ------,166526.69999980927,166525.5,166168.497,166178.59999990463,166185.021,166534.921,,9,its
screen,html.Screen,2_1_1_1_10,2022-02-15T13:05:37.891Z,,,,,,,,,,,,,,,,,54,,,,,,,,,,,,,,398.1789999046305,,response,,,,100,,,,,,,Space,keypress(Space),,,,,,,,-- --- ---- --- ------ ----- ------- ---- -- --- revenue --<br>------- ---------- ------ -- ----- -- ----- -- ---- ------<br>--- ----- --- --- ------ -------- ----- --- ------ ----- --<br>----- ----- ---------- --- --- ------ ------ ---- -- ------<br>------- --- ------ ----- --- ---- ------- -- ---- --- --<br>------- ------,166934.19999980927,166933.09999990463,166518.403,166526.89999985695,166534.921,166951.654,,10,revenue
screen,html.Screen,2_1_1_1_11,2022-02-15T13:05:38.422Z,,,,,,,,,,,,,,,,,54,,,,,,,,,,,,,,512.1459999523067,,response,,,,100,,,,,,,Space,keypress(Space),,,,,,,,-- --- ---- --- ------ ----- ------- ---- -- --- ------- by<br>------- ---------- ------ -- ----- -- ----- -- ---- ------<br>--- ----- --- --- ------ -------- ----- --- ------ ----- --<br>----- ----- ---------- --- --- ------ ------ ---- -- ------<br>------- --- ------ ----- --- ---- ------- -- ---- --- --<br>------- ------,167465,167463.79999995232,166934.974,166934.5,166951.654,167492.211,,11,by
screen,html.Screen,2_1_1_1_12,2022-02-15T13:05:38.796Z,,,,,,,,,,,,,,,,,54,,,,,,,,,,,,,,345.8889999046223,,response,,,,100,,,,,,,Space,keypress(Space),,,,,,,,-- --- ---- --- ------ ----- ------- ---- -- --- ------- --<br>issuing ---------- ------ -- ----- -- ----- -- ---- ------<br>--- ----- --- --- ------ -------- ----- --- ------ ----- --<br>----- ----- ---------- --- --- ------ ------ ---- -- ------<br>------- --- ------ ----- --- ---- ------- -- ---- --- --<br>------- ------,167839.19999980927,167838.09999990463,167451.487,167465.19999980927,167492.211,167851.379,,12,issuing
screen,html.Screen,2_1_1_1_13,2022-02-15T13:05:39.193Z,,,,,,,,,,,,,,,,,54,,,,,,,,,,,,,,383.0209998569626,,response,,,,100,,,,,,,Space,keypress(Space),,,,,,,,-- --- ---- --- ------ ----- ------- ---- -- --- ------- --<br>------- government ------ -- ----- -- ----- -- ---- ------<br>--- ----- --- --- ------ -------- ----- --- ------ ----- --<br>----- ----- ---------- --- --- ------ ------ ---- -- ------<br>------- --- ------ ----- --- ---- ------- -- ---- --- --<br>------- ------,168236.09999990463,168234.39999985695,167834.769,167839.39999985695,167851.379,168251.291,,13,government
screen,html.Screen,2_1_1_1_14,2022-02-15T13:05:39.575Z,,,,,,,,,,,,,,,,,54,,,,,,,,,,,,,,365.80899990463513,,response,,,,100,,,,,,,Space,keypress(Space),,,,,,,,-- --- ---- --- ------ ----- ------- ---- -- --- ------- --<br>------- ---------- bonds. -- ----- -- ----- -- ---- ------<br>--- ----- --- --- ------ -------- ----- --- ------ ----- --<br>----- ----- ---------- --- --- ------ ------ ---- -- ------<br>------- --- ------ ----- --- ---- ------- -- ---- --- --<br>------- ------,168618.19999980927,168617.09999990463,168234.576,168236.39999985695,168251.291,168634.518,,14,bonds.
screen,html.Screen,2_1_1_1_15,2022-02-15T13:05:39.959Z,,,,,,,,,,,,,,,,,54,,,,,,,,,,,,,,366.28199995230534,,response,,,,100,,,,,,,Space,keypress(Space),,,,,,,,-- --- ---- --- ------ ----- ------- ---- -- --- ------- --<br>------- ---------- ------ In ----- -- ----- -- ---- ------<br>--- ----- --- --- ------ -------- ----- --- ------ ----- --<br>----- ----- ---------- --- --- ------ ------ ---- -- ------<br>------- --- ------ ----- --- ---- ------- -- ---- --- --<br>------- ------,169002,169000.79999995232,168617.883,168618.39999985695,168634.518,169017.788,,15,In
screen,html.Screen,2_1_1_1_16,2022-02-15T13:05:40.354Z,,,,,,,,,,,,,,,,,54,,,,,,,,,,,,,,378.1119998569484,,response,,,,100,,,,,,,Space,keypress(Space),,,,,,,,"-- --- ---- --- ------ ----- ------- ---- -- --- ------- --<br>------- ---------- ------ -- 1727, -- ----- -- ---- ------<br>--- ----- --- --- ------ -------- ----- --- ------ ----- --<br>----- ----- ---------- --- --- ------ ------ ---- -- ------<br>------- --- ------ ----- --- ---- ------- -- ---- --- --<br>------- ------",169397.29999995232,169395.89999985695,169001.113,169002.19999980927,169017.788,169400.933,,16,"1727,"
screen,html.Screen,2_1_1_1_17,2022-02-15T13:05:40.749Z,,,,,,,,,,,,,,,,,54,,,,,,,,,,,,,,389.96699985695886,,response,,,,100,,,,,,,Space,keypress(Space),,,,,,,,-- --- ---- --- ------ ----- ------- ---- -- --- ------- --<br>------- ---------- ------ -- ----- in ----- -- ---- ------<br>--- ----- --- --- ------ -------- ----- --- ------ ----- --<br>----- ----- ---------- --- --- ------ ------ ---- -- ------<br>------- --- ------ ----- --- ---- ------- -- ---- --- --<br>------- ------,169791.69999980927,169790.89999985695,169384.391,169397.5,169400.933,169800.858,,17,in
screen,html.Screen,2_1_1_1_18,2022-02-15T13:05:41.142Z,,,,,,,,,,,,,,,,,54,,,,,,,,,,,,,,382.8419998092577,,response,,,,100,,,,,,,Space,keypress(Space),,,,,,,,-- --- ---- --- ------ ----- ------- ---- -- --- ------- --<br>------- ---------- ------ -- ----- -- order -- ---- ------<br>--- ----- --- --- ------ -------- ----- --- ------ ----- --<br>----- ----- ---------- --- --- ------ ------ ---- -- ------<br>------- --- ------ ----- --- ---- ------- -- ---- --- --<br>------- ------,170184.89999985695,170183.69999980927,169784.294,169791.89999985695,169800.858,170200.867,,18,order
screen,html.Screen,2_1_1_1_19,2022-02-15T13:05:41.503Z,,,,,,,,,,,,,,,,,54,,,,,,,,,,,,,,343.63300000000163,,response,,,,100,,,,,,,Space,keypress(Space),,,,,,,,-- --- ---- --- ------ ----- ------- ---- -- --- ------- --<br>------- ---------- ------ -- ----- -- ----- to ---- ------<br>--- ----- --- --- ------ -------- ----- --- ------ ----- --<br>----- ----- ---------- --- --- ------ ------ ---- -- ------<br>------- --- ------ ----- --- ---- ------- -- ---- --- --<br>------- ------,170545.79999995232,170544.5,170184.169,170185.19999980927,170200.867,170550.641,,19,to
screen,html.Screen,2_1_1_1_20,2022-02-15T13:05:41.864Z,,,,,,,,,,,,,,,,,54,,,,,,,,,,,,,,354.2589998569456,,response,,,,100,,,,,,,Space,keypress(Space),,,,,,,,-- --- ---- --- ------ ----- ------- ---- -- --- ------- --<br>------- ---------- ------ -- ----- -- ----- -- save ------<br>--- ----- --- --- ------ -------- ----- --- ------ ----- --<br>----- ----- ---------- --- --- ------ ------ ---- -- ------<br>------- --- ------ ----- --- ---- ------- -- ---- --- --<br>------- ------,170906.79999995232,170904.89999985695,170533.946,170546,170550.641,170917.215,,20,save
screen,html.Screen,2_1_1_1_21,2022-02-15T13:05:42.231Z,,,,,,,,,,,,,,,,,54,,,,,,,,,,,,,,355.18499985695234,,response,,,,100,,,,,,,Space,keypress(Space),,,,,,,,"-- --- ---- --- ------ ----- ------- ---- -- --- ------- --<br>------- ---------- ------ -- ----- -- ----- -- ---- money,<br>--- ----- --- --- ------ -------- ----- --- ------ ----- --<br>----- ----- ---------- --- --- ------ ------ ---- -- ------<br>------- --- ------ ----- --- ---- ------- -- ---- --- --<br>------- ------",171273.69999980927,171272.39999985695,170900.716,170907,170917.215,171283.785,,21,"money,"
screen,html.Screen,2_1_1_1_22,2022-02-15T13:05:42.605Z,,,,,,,,,,,,,,,,,54,,,,,,,,,,,,,,362.5149999523128,,response,,,,100,,,,,,,Space,keypress(Space),,,,,,,,-- --- ---- --- ------ ----- ------- ---- -- --- ------- --<br>------- ---------- ------ -- ----- -- ----- -- ---- ------<br>the ----- --- --- ------ -------- ----- --- ------ ----- --<br>----- ----- ---------- --- --- ------ ------ ---- -- ------<br>------- --- ------ ----- --- ---- ------- -- ---- --- --<br>------- ------,171647.79999995232,171646.29999995232,171267.268,171273.89999985695,171283.785,171650.374,,22,the
screen,html.Screen,2_1_1_1_23,2022-02-15T13:05:42.998Z,,,,,,,,,,,,,,,,,54,,,,,,,,,,,,,,389.9259999523056,,response,,,,100,,,,,,,Space,keypress(Space),,,,,,,,-- --- ---- --- ------ ----- ------- ---- -- --- ------- --<br>------- ---------- ------ -- ----- -- ----- -- ---- ------<br>--- state --- --- ------ -------- ----- --- ------ ----- --<br>----- ----- ---------- --- --- ------ ------ ---- -- ------<br>------- --- ------ ----- --- ---- ------- -- ---- --- --<br>------- ------,172041.39999985695,172040.29999995232,171633.783,171647.89999985695,171650.374,172050.228,,23,state
screen,html.Screen,2_1_1_1_24,2022-02-15T13:05:43.368Z,,,,,,,,,,,,,,,,,54,,,,,,,,,,,,,,359.2719999999972,,response,,,,100,,,,,,,Space,keypress(Space),,,,,,,,-- --- ---- --- ------ ----- ------- ---- -- --- ------- --<br>------- ---------- ------ -- ----- -- ----- -- ---- ------<br>--- ----- cut --- ------ -------- ----- --- ------ ----- --<br>----- ----- ---------- --- --- ------ ------ ---- -- ------<br>------- --- ------ ----- --- ---- ------- -- ---- --- --<br>------- ------,172410.89999985695,172409.5,172033.759,172041.59999990463,172050.228,172416.841,,24,cut
screen,html.Screen,2_1_1_1_25,2022-02-15T13:05:43.745Z,,,,,,,,,,,,,,,,,54,,,,,,,,,,,,,,370.1590000000142,,response,,,,100,,,,,,,Space,keypress(Space),,,,,,,,-- --- ---- --- ------ ----- ------- ---- -- --- ------- --<br>------- ---------- ------ -- ----- -- ----- -- ---- ------<br>--- ----- --- the ------ -------- ----- --- ------ ----- --<br>----- ----- ---------- --- --- ------ ------ ---- -- ------<br>------- --- ------ ----- --- ---- ------- -- ---- --- --<br>------- ------,172788.39999985695,172787,172400.327,172411.09999990463,172416.841,172800.098,,25,the
screen,html.Screen,2_1_1_1_26,2022-02-15T13:05:44.132Z,,,,,,,,,,,,,,,,,54,,,,,,,,,,,,,,374.20199995231815,,response,,,,100,,,,,,,Space,keypress(Space),,,,,,,,-- --- ---- --- ------ ----- ------- ---- -- --- ------- --<br>------- ---------- ------ -- ----- -- ----- -- ---- ------<br>--- ----- --- --- bonds' -------- ----- --- ------ ----- --<br>----- ----- ---------- --- --- ------ ------ ---- -- ------<br>------- --- ------ ----- --- ---- ------- -- ---- --- --<br>------- ------,173175.39999985695,173174.29999995232,172783.587,172788.59999990463,172800.098,173183.298,,26,bonds'
screen,html.Screen,2_1_1_1_27,2022-02-15T13:05:44.484Z,,,,,,,,,,,,,,,,,54,,,,,,,,,,,,,,342.40199980925536,,response,,,,100,,,,,,,Space,keypress(Space),,,,,,,,-- --- ---- --- ------ ----- ------- ---- -- --- ------- --<br>------- ---------- ------ -- ----- -- ----- -- ---- ------<br>--- ----- --- --- ------ interest ----- --- ------ ----- --<br>----- ----- ---------- --- --- ------ ------ ---- -- ------<br>------- --- ------ ----- --- ---- ------- -- ---- --- --<br>------- ------,173526.89999985695,173525.69999980927,173166.799,173175.69999980927,173183.298,173533.272,,27,interest
screen,html.Screen,2_1_1_1_28,2022-02-15T13:05:44.864Z,,,,,,,,,,,,,,,,,54,,,,,,,,,,,,,,373.0279999523191,,response,,,,100,,,,,,,Space,keypress(Space),,,,,,,,-- --- ---- --- ------ ----- ------- ---- -- --- ------- --<br>------- ---------- ------ -- ----- -- ----- -- ---- ------<br>--- ----- --- --- ------ -------- rate. --- ------ ----- --<br>----- ----- ---------- --- --- ------ ------ ---- -- ------<br>------- --- ------ ----- --- ---- ------- -- ---- --- --<br>------- ------,173907.39999985695,173906.29999995232,173516.75,173527.09999990463,173533.272,173916.467,,28,rate.
screen,html.Screen,2_1_1_1_29,2022-02-15T13:05:45.236Z,,,,,,,,,,,,,,,,,54,,,,,,,,,,,,,,361.73299980926095,,response,,,,100,,,,,,,Space,keypress(Space),,,,,,,,-- --- ---- --- ------ ----- ------- ---- -- --- ------- --<br>------- ---------- ------ -- ----- -- ----- -- ---- ------<br>--- ----- --- --- ------ -------- ----- The ------ ----- --<br>----- ----- ---------- --- --- ------ ------ ---- -- ------<br>------- --- ------ ----- --- ---- ------- -- ---- --- --<br>------- ------,174279.59999990463,174278.19999980927,173899.995,173907.5,173916.467,174283.108,,29,The
screen,html.Screen,2_1_1_1_30,2022-02-15T13:05:45.640Z,,,,,,,,,,,,,,,,,54,,,,,,,,,,,,,,398.5919998092577,,response,,,,100,,,,,,,Space,keypress(Space),,,,,,,,-- --- ---- --- ------ ----- ------- ---- -- --- ------- --<br>------- ---------- ------ -- ----- -- ----- -- ---- ------<br>--- ----- --- --- ------ -------- ----- --- market ----- --<br>----- ----- ---------- --- --- ------ ------ ---- -- ------<br>------- --- ------ ----- --- ---- ------- -- ---- --- --<br>------- ------,174682.79999995232,174681.69999980927,174266.529,174279.69999980927,174283.108,174699.802,,30,market
screen,html.Screen,2_1_1_1_31,2022-02-15T13:05:45.993Z,,,,,,,,,,,,,,,,,54,,,,,,,,,,,,,,335.19800000000396,,response,,,,100,,,,,,,Space,keypress(Space),,,,,,,,-- --- ---- --- ------ ----- ------- ---- -- --- ------- --<br>------- ---------- ------ -- ----- -- ----- -- ---- ------<br>--- ----- --- --- ------ -------- ----- --- ------ value --<br>----- ----- ---------- --- --- ------ ------ ---- -- ------<br>------- --- ------ ----- --- ---- ------- -- ---- --- --<br>------- ------,175036.39999985695,175035,174683.062,174683,174699.802,175049.655,,31,value
screen,html.Screen,2_1_1_1_32,2022-02-15T13:05:46.356Z,,,,,,,,,,,,,,,,,54,,,,,,,,,,,,,,347.94499990463373,,response,,,,100,,,,,,,Space,keypress(Space),,,,,,,,-- --- ---- --- ------ ----- ------- ---- -- --- ------- --<br>------- ---------- ------ -- ----- -- ----- -- ---- ------<br>--- ----- --- --- ------ -------- ----- --- ------ ----- of<br>----- ----- ---------- --- --- ------ ------ ---- -- ------<br>------- --- ------ ----- --- ---- ------- -- ---- --- --<br>------- ------,175399.09999990463,175397.59999990463,175033.045,175036.79999995232,175049.655,175416.297,,32,of
screen,html.Screen,2_1_1_1_33,2022-02-15T13:05:46.704Z,,,,,,,,,,,,,,,,,54,,,,,,,,,,,,,,329.7030000000086,,response,,,,100,,,,,,,Space,keypress(Space),,,,,,,,-- --- ---- --- ------ ----- ------- ---- -- --- ------- --<br>------- ---------- ------ -- ----- -- ----- -- ---- ------<br>--- ----- --- --- ------ -------- ----- --- ------ ----- --<br>these ----- ---------- --- --- ------ ------ ---- -- ------<br>------- --- ------ ----- --- ---- ------- -- ---- --- --<br>------- ------,175747.19999980927,175746,175399.568,175399.29999995232,175416.297,175781.741,,33,these
screen,html.Screen,2_1_1_1_34,2022-02-15T13:05:47.092Z,,,,,,,,,,,,,,,,,54,,,,,,,,,,,,,,351.7589999999909,,response,,,,100,,,,,,,Space,keypress(Space),,,,,,,,-- --- ---- --- ------ ----- ------- ---- -- --- ------- --<br>------- ---------- ------ -- ----- -- ----- -- ---- ------<br>--- ----- --- --- ------ -------- ----- --- ------ ----- --<br>----- bonds ---------- --- --- ------ ------ ---- -- ------<br>------- --- ------ ----- --- ---- ------- -- ---- --- --<br>------- ------,176134.59999990463,176133.5,175732.838,175747.5,175781.741,176149.428,,34,bonds
screen,html.Screen,2_1_1_1_35,2022-02-15T13:05:47.446Z,,,,,,,,,,,,,,,,,54,,,,,,,,,,,,,,338.07199999998556,,response,,,,100,,,,,,,Space,keypress(Space),,,,,,,,"-- --- ---- --- ------ ----- ------- ---- -- --- ------- --<br>------- ---------- ------ -- ----- -- ----- -- ---- ------<br>--- ----- --- --- ------ -------- ----- --- ------ ----- --<br>----- ----- plummeted, --- --- ------ ------ ---- -- ------<br>------- --- ------ ----- --- ---- ------- -- ---- --- --<br>------- ------",176489,176487.5,176132.644,176134.79999995232,176149.428,176499.198,,35,"plummeted,"
screen,html.Screen,2_1_1_1_36,2022-02-15T13:05:47.808Z,,,,,,,,,,,,,,,,,54,,,,,,,,,,,,,,350.6019999523123,,response,,,,100,,,,,,,Space,keypress(Space),,,,,,,,-- --- ---- --- ------ ----- ------- ---- -- --- ------- --<br>------- ---------- ------ -- ----- -- ----- -- ---- ------<br>--- ----- --- --- ------ -------- ----- --- ------ ----- --<br>----- ----- ---------- and --- ------ ------ ---- -- ------<br>------- --- ------ ----- --- ---- ------- -- ---- --- --<br>------- ------,176851.09999990463,176849.79999995232,176482.683,176489.19999980927,176499.198,176865.946,,36,and
screen,html.Screen,2_1_1_1_37,2022-02-15T13:05:48.168Z,,,,,,,,,,,,,,,,,54,,,,,,,,,,,,,,344.35399995232,,response,,,,100,,,,,,,Space,keypress(Space),,,,,,,,-- --- ---- --- ------ ----- ------- ---- -- --- ------- --<br>------- ---------- ------ -- ----- -- ----- -- ---- ------<br>--- ----- --- --- ------ -------- ----- --- ------ ----- --<br>----- ----- ---------- --- the ------ ------ ---- -- ------<br>------- --- ------ ----- --- ---- ------- -- ---- --- --<br>------- ------,177211.29999995232,177210.29999995232,176849.273,176851.29999995232,176865.946,177215.677,,37,the
screen,html.Screen,2_1_1_1_38,2022-02-15T13:05:48.551Z,,,,,,,,,,,,,,,,,54,,,,,,,,,,,,,,377.12299995232024,,response,,,,100,,,,,,,Space,keypress(Space),,,,,,,,-- --- ---- --- ------ ----- ------- ---- -- --- ------- --<br>------- ---------- ------ -- ----- -- ----- -- ---- ------<br>--- ----- --- --- ------ -------- ----- --- ------ ----- --<br>----- ----- ---------- --- --- market ------ ---- -- ------<br>------- --- ------ ----- --- ---- ------- -- ---- --- --<br>------- ------,177593.89999985695,177592.79999995232,177199.189,177211.69999980927,177215.677,177598.93,,38,market
screen,html.Screen,2_1_1_1_39,2022-02-15T13:05:48.924Z,,,,,,,,,,,,,,,,,54,,,,,,,,,,,,,,367.46999985695584,,response,,,,100,,,,,,,Space,keypress(Space),,,,,,,,-- --- ---- --- ------ ----- ------- ---- -- --- ------- --<br>------- ---------- ------ -- ----- -- ----- -- ---- ------<br>--- ----- --- --- ------ -------- ----- --- ------ ----- --<br>----- ----- ---------- --- --- ------ became ---- -- ------<br>------- --- ------ ----- --- ---- ------- -- ---- --- --<br>------- ------,177967.5,177966.39999985695,177582.295,177594.09999990463,177598.93,177982.181,,39,became
screen,html.Screen,2_1_1_1_40,2022-02-15T13:05:49.285Z,,,,,,,,,,,,,,,,,54,,,,,,,,,,,,,,345.0189998092537,,response,,,,100,,,,,,,Space,keypress(Space),,,,,,,,-- --- ---- --- ------ ----- ------- ---- -- --- ------- --<br>------- ---------- ------ -- ----- -- ----- -- ---- ------<br>--- ----- --- --- ------ -------- ----- --- ------ ----- --<br>----- ----- ---------- --- --- ------ ------ wary -- ------<br>------- --- ------ ----- --- ---- ------- -- ---- --- --<br>------- ------,178328.29999995232,178327.19999980927,177965.644,177967.69999980927,177982.181,178332.131,,40,wary
screen,html.Screen,2_1_1_1_41,2022-02-15T13:05:49.646Z,,,,,,,,,,,,,,,,,54,,,,,,,,,,,,,,355.36900000000605,,response,,,,100,,,,,,,Space,keypress(Space),,,,,,,,-- --- ---- --- ------ ----- ------- ---- -- --- ------- --<br>------- ---------- ------ -- ----- -- ----- -- ---- ------<br>--- ----- --- --- ------ -------- ----- --- ------ ----- --<br>----- ----- ---------- --- --- ------ ------ ---- of ------<br>------- --- ------ ----- --- ---- ------- -- ---- --- --<br>------- ------,178689.09999990463,178687.5,178315.489,178328.39999985695,178332.131,178698.675,,41,of
screen,html.Screen,2_1_1_1_42,2022-02-15T13:05:50.006Z,,,,,,,,,,,,,,,,,54,,,,,,,,,,,,,,349.2249998569605,,response,,,,100,,,,,,,Space,keypress(Space),,,,,,,,-- --- ---- --- ------ ----- ------- ---- -- --- ------- --<br>------- ---------- ------ -- ----- -- ----- -- ---- ------<br>--- ----- --- --- ------ -------- ----- --- ------ ----- --<br>----- ----- ---------- --- --- ------ ------ ---- -- French<br>------- --- ------ ----- --- ---- ------- -- ---- --- --<br>------- ------,179049,179047.89999985695,178682.022,178689.29999995232,178698.675,179065.421,,42,French
screen,html.Screen,2_1_1_1_43,2022-02-15T13:05:50.367Z,,,,,,,,,,,,,,,,,54,,,,,,,,,,,,,,343.27899980926304,,response,,,,100,,,,,,,Space,keypress(Space),,,,,,,,-- --- ---- --- ------ ----- ------- ---- -- --- ------- --<br>------- ---------- ------ -- ----- -- ----- -- ---- ------<br>--- ----- --- --- ------ -------- ----- --- ------ ----- --<br>----- ----- ---------- --- --- ------ ------ ---- -- ------<br>credit. --- ------ ----- --- ---- ------- -- ---- --- --<br>------- ------,179410,179408.69999980927,179048.728,179049.19999980927,179065.421,179415.169,,43,credit.
screen,html.Screen,2_1_1_1_44,2022-02-15T13:05:50.747Z,,,,,,,,,,,,,,,,,54,,,,,,,,,,,,,,374.1309999523219,,response,,,,100,,,,,,,Space,keypress(Space),,,,,,,,-- --- ---- --- ------ ----- ------- ---- -- --- ------- --<br>------- ---------- ------ -- ----- -- ----- -- ---- ------<br>--- ----- --- --- ------ -------- ----- --- ------ ----- --<br>----- ----- ---------- --- --- ------ ------ ---- -- ------<br>------- The ------ ----- --- ---- ------- -- ---- --- --<br>------- ------,179790.59999990463,179789.29999995232,179398.659,179410.19999980927,179415.169,179798.427,,44,The
screen,html.Screen,2_1_1_1_45,2022-02-15T13:05:51.125Z,,,,,,,,,,,,,,,,,54,,,,,,,,,,,,,,368.4729998569528,,response,,,,100,,,,,,,Space,keypress(Space),,,,,,,,-- --- ---- --- ------ ----- ------- ---- -- --- ------- --<br>------- ---------- ------ -- ----- -- ----- -- ---- ------<br>--- ----- --- --- ------ -------- ----- --- ------ ----- --<br>----- ----- ---------- --- --- ------ ------ ---- -- ------<br>------- --- French ----- --- ---- ------- -- ---- --- --<br>------- ------,180168.29999995232,180166.89999985695,179781.799,179791,179798.427,180181.641,,45,French
screen,html.Screen,2_1_1_1_46,2022-02-15T13:05:51.500Z,,,,,,,,,,,,,,,,,54,,,,,,,,,,,,,,359.85899999999674,,response,,,,100,,,,,,,Space,keypress(Space),,,,,,,,-- --- ---- --- ------ ----- ------- ---- -- --- ------- --<br>------- ---------- ------ -- ----- -- ----- -- ---- ------<br>--- ----- --- --- ------ -------- ----- --- ------ ----- --<br>----- ----- ---------- --- --- ------ ------ ---- -- ------<br>------- --- ------ state --- ---- ------- -- ---- --- --<br>------- ------,180542.59999990463,180541.5,180165.116,180168.5,180181.641,180548.247,,46,state
screen,html.Screen,2_1_1_1_47,2022-02-15T13:05:51.865Z,,,,,,,,,,,,,,,,,54,,,,,,,,,,,,,,358.55299995231326,,response,,,,100,,,,,,,Space,keypress(Space),,,,,,,,-- --- ---- --- ------ ----- ------- ---- -- --- ------- --<br>------- ---------- ------ -- ----- -- ----- -- ---- ------<br>--- ----- --- --- ------ -------- ----- --- ------ ----- --<br>----- ----- ---------- --- --- ------ ------ ---- -- ------<br>------- --- ------ ----- was ---- ------- -- ---- --- --<br>------- ------,180908.39999985695,180906.79999995232,180531.637,180542.89999985695,180548.247,180914.829,,47,was
screen,html.Screen,2_1_1_1_48,2022-02-15T13:05:52.282Z,,,,,,,,,,,,,,,,,54,,,,,,,,,,,,,,409.37099980926723,,response,,,,100,,,,,,,Space,keypress(Space),,,,,,,,-- --- ---- --- ------ ----- ------- ---- -- --- ------- --<br>------- ---------- ------ -- ----- -- ----- -- ---- ------<br>--- ----- --- --- ------ -------- ----- --- ------ ----- --<br>----- ----- ---------- --- --- ------ ------ ---- -- ------<br>------- --- ------ ----- --- left ------- -- ---- --- --<br>------- ------,181325.5,181324.19999980927,180898.311,180908.69999980927,180914.829,181331.407,,48,left
screen,html.Screen,2_1_1_1_49,2022-02-15T13:05:52.705Z,,,,,,,,,,,,,,,,,54,,,,,,,,,,,,,,415.49299985694233,,response,,,,100,,,,,,,Space,keypress(Space),,,,,,,,-- --- ---- --- ------ ----- ------- ---- -- --- ------- --<br>------- ---------- ------ -- ----- -- ----- -- ---- ------<br>--- ----- --- --- ------ -------- ----- --- ------ ----- --<br>----- ----- ---------- --- --- ------ ------ ---- -- ------<br>------- --- ------ ----- --- ---- without -- ---- --- --<br>------- ------,181748.39999985695,181746.89999985695,181314.824,181325.59999990463,181331.407,181764.778,,49,without
screen,html.Screen,2_1_1_1_50,2022-02-15T13:05:53.079Z,,,,,,,,,,,,,,,,,54,,,,,,,,,,,,,,355.6219998569577,,response,,,,100,,,,,,,Space,keypress(Space),,,,,,,,-- --- ---- --- ------ ----- ------- ---- -- --- ------- --<br>------- ---------- ------ -- ----- -- ----- -- ---- ------<br>--- ----- --- --- ------ -------- ----- --- ------ ----- --<br>----- ----- ---------- --- --- ------ ------ ---- -- ------<br>------- --- ------ ----- --- ---- ------- an ---- --- --<br>------- ------,182121.79999995232,182120.39999985695,181748.121,181748.69999980927,181764.778,182131.212,,50,an
screen,html.Screen,2_1_1_1_51,2022-02-15T13:05:53.475Z,,,,,,,,,,,,,,,,,54,,,,,,,,,,,,,,386.1879998569493,,response,,,,100,,,,,,,Space,keypress(Space),,,,,,,,-- --- ---- --- ------ ----- ------- ---- -- --- ------- --<br>------- ---------- ------ -- ----- -- ----- -- ---- ------<br>--- ----- --- --- ------ -------- ----- --- ------ ----- --<br>----- ----- ---------- --- --- ------ ------ ---- -- ------<br>------- --- ------ ----- --- ---- ------- -- easy --- --<br>------- ------,182518.59999990463,182517.39999985695,182114.655,182121.89999985695,182131.212,182531.204,,51,easy
screen,html.Screen,2_1_1_1_52,2022-02-15T13:05:53.861Z,,,,,,,,,,,,,,,,,54,,,,,,,,,,,,,,371.89599990463466,,response,,,,100,,,,,,,Space,keypress(Space),,,,,,,,-- --- ---- --- ------ ----- ------- ---- -- --- ------- --<br>------- ---------- ------ -- ----- -- ----- -- ---- ------<br>--- ----- --- --- ------ -------- ----- --- ------ ----- --<br>----- ----- ---------- --- --- ------ ------ ---- -- ------<br>------- --- ------ ----- --- ---- ------- -- ---- way --<br>------- ------,182904.09999990463,182903.09999990463,182514.592,182518.79999995232,182531.204,182914.341,,52,way
screen,html.Screen,2_1_1_1_53,2022-02-15T13:05:54.215Z,,,,,,,,,,,,,,,,,54,,,,,,,,,,,,,,342.1590000000142,,response,,,,100,,,,,,,Space,keypress(Space),,,,,,,,-- --- ---- --- ------ ----- ------- ---- -- --- ------- --<br>------- ---------- ------ -- ----- -- ----- -- ---- ------<br>--- ----- --- --- ------ -------- ----- --- ------ ----- --<br>----- ----- ---------- --- --- ------ ------ ---- -- ------<br>------- --- ------ ----- --- ---- ------- -- ---- --- of<br>------- ------,183258,183256.5,182897.818,182904.39999985695,182914.341,183264.28,,53,of
screen,html.Screen,2_1_1_1_54,2022-02-15T13:05:54.630Z,,,,,,,,,,,,,,,,,54,,,,,,,,,,,,,,406.72000000000116,,response,,,,100,,,,,,,Space,keypress(Space),,,,,,,,-- --- ---- --- ------ ----- ------- ---- -- --- ------- --<br>------- ---------- ------ -- ----- -- ----- -- ---- ------<br>--- ----- --- --- ------ -------- ----- --- ------ ----- --<br>----- ----- ---------- --- --- ------ ------ ---- -- ------<br>------- --- ------ ----- --- ---- ------- -- ---- --- --<br>raising ------,183672.69999980927,183671,183247.746,183258.29999995232,183264.28,183680.785,,54,raising
screen,html.Screen,2_1_1_1_55,2022-02-15T13:05:55.019Z,,,,,,,,,,,,,,,,,54,,,,,,,,,,,,,,380.11499985694536,,response,,,,100,,,,,,,Space,keypress(Space),,,,,,,,-- --- ---- --- ------ ----- ------- ---- -- --- ------- --<br>------- ---------- ------ -- ----- -- ----- -- ---- ------<br>--- ----- --- --- ------ -------- ----- --- ------ ----- --<br>----- ----- ---------- --- --- ------ ------ ---- -- ------<br>------- --- ------ ----- --- ---- ------- -- ---- --- --<br>------- money.,184062.19999980927,184060.89999985695,183664.311,183673.09999990463,183680.785,184086.308,,55,money.
Item 100,flow.Loop,2_1_1_1,2022-02-15T13:05:55.020Z,,,,,,,,,,,,,,,,,,,,,,,,,,,,,,,21408.35999985694,,completion,,,,,E,,,,,,,,,,,silence,,,,,184062.69999980927,184060.89999985695,162636.002,162637.19999980927,162652.54,184086.308,,,
Question 1,html.Screen,2_1_1_2,2022-02-15T13:05:57.818Z,,,,,,,,,,,,,,,,,,,,,,,,,,,,true,TRUE,,2773.891999809275,,response,,,,100,E,,,,,,TRUE,click #choice-1,,,,silence,,,,,186861.29999995232,186860.19999980927,184047.547,184062.79999995232,184086.308,186863.342,,,
Question 2,html.Screen,2_1_1_3,2022-02-15T13:06:01.175Z,,,,,,,,,,,,,,,,,,,,,,,,,,,,false,FALSE,,3352.2579999046284,,response,,,,100,E,,,,,,TRUE,click #choice-1,,,,silence,,,,,190217.69999980927,190215.59999990463,186846.74,186861.39999985695,186863.342,190229.327,,,
Item 100,flow.Sequence,2_1_1,2022-02-15T13:06:01.175Z,,,,,,,,,,,,,,,,,,,,,,,,,,,,,,,37560.75399990464,,completion,,,,,,,,,,,,,,,,,,,,,190217.89999985695,190215.59999990463,152638.386,152650.79999995232,152654.846,190229.327,,,
End of Practice,html.Page,2_1_2,2022-02-15T13:06:05.936Z,,,,,,,,,,,,,,,,,,,,,,,,,,,,,,,4749.272999904642,,form submission,,,,,,,,,,,,,,,,,,,,,194978.79999995232,194978.59999990463,190212.714,190218.09999990463,190229.327,194978.089,,,
Practice,flow.Sequence,2_1,2022-02-15T13:06:05.936Z,,,,,,,,,,,,,,,,,,,,,,,,,,,,,,,85230.16199990464,,completion,,,,,,,,,,,,,,,,,,,,,194979.09999990463,194978.59999990463,109731.952,109744.09999990463,109748.438,194978.089,,,
Trap_instruction,html.Page,2_2_0,2022-02-15T13:06:12.188Z,,,,,,,,,,,,,,,,,,,,,,,,,,,,,,,6252.810999856942,,form submission,,,,,,,,,,,,,,,,,,,,,201231.09999990463,201230.89999985695,194961.55,194979.09999990463,194978.089,201293.232,,,
trap_trial,html.Screen,2_2_1,2022-02-15T13:06:15.751Z,,,,,,,,,,,,,,,,,,,,,,,,,,,,true,1,,3500.3679999046435,,response,,,,,,,,,,,1,click #choice-1,,,,,,,,,204794.5,204793.59999990463,201226.623,201231.19999980927,201293.232,204809.049,,,
end of trap trial,html.Page,2_2_2,2022-02-15T13:06:17.430Z,,,,,,,,,,,,,,,,,,,,,,,,,,,,,,,1664.0509999046335,,form submission,,,,,,,,,,,,,,,,,,,,,206473.19999980927,206473.09999990463,204792.422,204794.69999980927,204809.049,206475.328,,,
Trap 1,flow.Sequence,2_2,2022-02-15T13:06:17.430Z,,,,,,,,,,,,,,,,,,,,,,,,,,,,,,,11495.010999904625,,completion,,,,,,,,,,,,,,,,,,,,,206473.39999985695,206473.09999990463,194961.55,194979.09999990463,194978.089,206475.328,,,
Standby,html.Page,2_3_0,2022-02-15T13:06:25.415Z,,,,,,,,,,,,,,,,,,,,,,,,,,,,,,,7998.127999999997,,timeout,,,,,,,,,,,,,,,,,,,,,214458.29999995232,214456.97,206458.735,206473.5,206475.328,214473.456,,,
Holding screen,html.Screen,2_3_1_0_0,2022-02-15T13:06:32.413Z,,,,,,,,,,,,,,,,,,,,,,,,,,,,,,,6998.429999999993,,timeout,,,,,,,,,,,,,,,,,,,,,221456.5,221455.3,214456.97,214458.89999985695,214473.456,221471.886,,,
screen,html.Screen,2_3_1_0_1_0,2022-02-15T13:06:33.308Z,,,,,,,,,,,,,,,,,2,,,,,,,,,,,,,,877.5139998569502,,response,,,,1,E,,,,,,Space,keypress(Space),,,,lyrical,,,,Two ---- ------ --- ------- ---------- ------- ----------<br>--- --------- --- ----------- ------- ----- ------- ---<br>--------- ---- -- --- ---- -- --------- -- ---- -------<br>-- --------- ------ --- ----- ------ ---- --- --------- --<br>------ - ---- -- --- ----------- ------- ---- ----- -----<br>--- -------- - ------ ---- -- ----- ---- --- --- -----------<br>-- -------,222351.19999980927,222349.39999985695,221455.3,221456.89999985695,221471.886,222354.927,,0,Two
screen,html.Screen,2_3_1_0_1_1,2022-02-15T13:06:33.723Z,,,,,,,,,,,,,,,,,2,,,,,,,,,,,,,,409.6729999046365,,response,,,,1,E,,,,,,Space,keypress(Space),,,,lyrical,,,,--- days ------ --- ------- ---------- ------- ----------<br>--- --------- --- ----------- ------- ----- ------- ---<br>--------- ---- -- --- ---- -- --------- -- ---- -------<br>-- --------- ------ --- ----- ------ ---- --- --------- --<br>------ - ---- -- --- ----------- ------- ---- ----- -----<br>--- -------- - ------ ---- -- ----- ---- --- --- -----------<br>-- -------,222766.5,222764.59999990463,222338.367,222351.5,222354.927,222771.48,,1,days
screen,html.Screen,2_3_1_0_1_2,2022-02-15T13:06:34.157Z,,,,,,,,,,,,,,,,,2,,,,,,,,,,,,,,426.6199999046221,,response,,,,1,E,,,,,,Space,keypress(Space),,,,lyrical,,,,"--- ---- later, --- ------- ---------- ------- ----------<br>--- --------- --- ----------- ------- ----- ------- ---<br>--------- ---- -- --- ---- -- --------- -- ---- -------<br>-- --------- ------ --- ----- ------ ---- --- --------- --<br>------ - ---- -- --- ----------- ------- ---- ----- -----<br>--- -------- - ------ ---- -- ----- ---- --- --- -----------<br>-- -------",223199.59999990463,223198.09999990463,222755.003,222766.79999995232,222771.48,223204.73,,2,"later,"
screen,html.Screen,2_3_1_0_1_3,2022-02-15T13:06:34.605Z,,,,,,,,,,,,,,,,,2,,,,,,,,,,,,,,442.2699999999895,,response,,,,1,E,,,,,,Space,keypress(Space),,,,lyrical,,,,--- ---- ------ the ------- ---------- ------- ----------<br>--- --------- --- ----------- ------- ----- ------- ---<br>--------- ---- -- --- ---- -- --------- -- ---- -------<br>-- --------- ------ --- ----- ------ ---- --- --------- --<br>------ - ---- -- --- ----------- ------- ---- ----- -----<br>--- -------- - ------ ---- -- ----- ---- --- --- -----------<br>-- -------,223648.19999980927,223647,223188.199,223200.09999990463,223204.73,223654.594,,3,the
screen,html.Screen,2_3_1_0_1_4,2022-02-15T13:06:35.030Z,,,,,,,,,,,,,,,,,2,,,,,,,,,,,,,,417.0059999046207,,response,,,,1,E,,,,,,Space,keypress(Space),,,,lyrical,,,,--- ---- ------ --- British ---------- ------- ----------<br>--- --------- --- ----------- ------- ----- ------- ---<br>--------- ---- -- --- ---- -- --------- -- ---- -------<br>-- --------- ------ --- ----- ------ ---- --- --------- --<br>------ - ---- -- --- ----------- ------- ---- ----- -----<br>--- -------- - ------ ---- -- ----- ---- --- --- -----------<br>-- -------,224073,224071.59999990463,223637.943,223648.39999985695,223654.594,224087.94,,4,British
screen,html.Screen,2_3_1_0_1_5,2022-02-15T13:06:35.455Z,,,,,,,,,,,,,,,,,2,,,,,,,,,,,,,,408.7599998092628,,response,,,,1,E,,,,,,Space,keypress(Space),,,,lyrical,,,,--- ---- ------ --- ------- astronomer ------- ----------<br>--- --------- --- ----------- ------- ----- ------- ---<br>--------- ---- -- --- ---- -- --------- -- ---- -------<br>-- --------- ------ --- ----- ------ ---- --- --------- --<br>------ - ---- -- --- ----------- ------- ---- ----- -----<br>--- -------- - ------ ---- -- ----- ---- --- --- -----------<br>-- -------,224498.39999985695,224496.69999980927,224071.346,224073.39999985695,224087.94,224504.431,,5,astronomer
screen,html.Screen,2_3_1_0_1_6,2022-02-15T13:06:35.867Z,,,,,,,,,,,,,,,,,2,,,,,,,,,,,,,,403.96899985693744,,response,,,,1,E,,,,,,Space,keypress(Space),,,,lyrical,,,,--- ---- ------ --- ------- ---------- Richard ----------<br>--- --------- --- ----------- ------- ----- ------- ---<br>--------- ---- -- --- ---- -- --------- -- ---- -------<br>-- --------- ------ --- ----- ------ ---- --- --------- --<br>------ - ---- -- --- ----------- ------- ---- ----- -----<br>--- -------- - ------ ---- -- ----- ---- --- --- -----------<br>-- -------,224909.79999995232,224908.39999985695,224487.737,224498.69999980927,224504.431,224920.962,,6,Richard
screen,html.Screen,2_3_1_0_1_7,2022-02-15T13:06:36.255Z,,,,,,,,,,,,,,,,,2,,,,,,,,,,,,,,375.33799995231675,,response,,,,1,E,,,,,,Space,keypress(Space),,,,lyrical,,,,--- ---- ------ --- ------- ---------- ------- Carrington<br>--- --------- --- ----------- ------- ----- ------- ---<br>--------- ---- -- --- ---- -- --------- -- ---- -------<br>-- --------- ------ --- ----- ------ ---- --- --------- --<br>------ - ---- -- --- ----------- ------- ---- ----- -----<br>--- -------- - ------ ---- -- ----- ---- --- --- -----------<br>-- -------,225297.79999995232,225296.29999995232,224904.453,224910.09999990463,224920.962,225304.207,,7,Carrington
screen,html.Screen,2_3_1_0_1_8,2022-02-15T13:06:36.673Z,,,,,,,,,,,,,,,,,2,,,,,,,,,,,,,,410.5929999523214,,response,,,,1,E,,,,,,Space,keypress(Space),,,,lyrical,,,,--- ---- ------ --- ------- ---------- ------- ----------<br>was --------- --- ----------- ------- ----- ------- ---<br>--------- ---- -- --- ---- -- --------- -- ---- -------<br>-- --------- ------ --- ----- ------ ---- --- --------- --<br>------ - ---- -- --- ----------- ------- ---- ----- -----<br>--- -------- - ------ ---- -- ----- ---- --- --- -----------<br>-- -------,225716.5,225714.79999995232,225287.695,225298.09999990463,225304.207,225720.829,,8,was
screen,html.Screen,2_3_1_0_1_9,2022-02-15T13:06:37.099Z,,,,,,,,,,,,,,,,,2,,,,,,,,,,,,,,419.87099980926723,,response,,,,1,E,,,,,,Space,keypress(Space),,,,lyrical,,,,--- ---- ------ --- ------- ---------- ------- ----------<br>--- observing --- ----------- ------- ----- ------- ---<br>--------- ---- -- --- ---- -- --------- -- ---- -------<br>-- --------- ------ --- ----- ------ ---- --- --------- --<br>------ - ---- -- --- ----------- ------- ---- ----- -----<br>--- -------- - ------ ---- -- ----- ---- --- --- -----------<br>-- -------,226142,226140.69999980927,225704.294,225716.69999980927,225720.829,226153.999,,9,observing
screen,html.Screen,2_3_1_0_1_10,2022-02-15T13:06:37.472Z,,,,,,,,,,,,,,,,,2,,,,,,,,,,,,,,359.3009999523056,,response,,,,1,E,,,,,,Space,keypress(Space),,,,lyrical,,,,--- ---- ------ --- ------- ---------- ------- ----------<br>--- --------- the ----------- ------- ----- ------- ---<br>--------- ---- -- --- ---- -- --------- -- ---- -------<br>-- --------- ------ --- ----- ------ ---- --- --------- --<br>------ - ---- -- --- ----------- ------- ---- ----- -----<br>--- -------- - ------ ---- -- ----- ---- --- --- -----------<br>-- -------,226514.69999980927,226513.29999995232,226137.485,226142.19999980927,226153.999,226520.56,,10,the
screen,html.Screen,2_3_1_0_1_11,2022-02-15T13:06:37.910Z,,,,,,,,,,,,,,,,,2,,,,,,,,,,,,,,430.8399998569512,,response,,,,1,E,,,,,,Space,keypress(Space),,,,lyrical,,,,--- ---- ------ --- ------- ---------- ------- ----------<br>--- --------- --- interesting ------- ----- ------- ---<br>--------- ---- -- --- ---- -- --------- -- ---- -------<br>-- --------- ------ --- ----- ------ ---- --- --------- --<br>------ - ---- -- --- ----------- ------- ---- ----- -----<br>--- -------- - ------ ---- -- ----- ---- --- --- -----------<br>-- -------,226952.69999980927,226951.39999985695,226504.065,226515.09999990463,226520.56,226987.306,,11,interesting
screen,html.Screen,2_3_1_0_1_12,2022-02-15T13:06:38.325Z,,,,,,,,,,,,,,,,,2,,,,,,,,,,,,,,378.8939998092537,,response,,,,1,E,,,,,,Space,keypress(Space),,,,lyrical,,,,--- ---- ------ --- ------- ---------- ------- ----------<br>--- --------- --- ----------- sunspot ----- ------- ---<br>--------- ---- -- --- ---- -- --------- -- ---- -------<br>-- --------- ------ --- ----- ------ ---- --- --------- --<br>------ - ---- -- --- ----------- ------- ---- ----- -----<br>--- -------- - ------ ---- -- ----- ---- --- --- -----------<br>-- -------,227368.09999990463,227366.19999980927,226970.485,226952.89999985695,226987.306,227389.113,,12,sunspot
screen,html.Screen,2_3_1_0_1_13,2022-02-15T13:06:38.739Z,,,,,,,,,,,,,,,,,2,,,,,,,,,,,,,,391.3869999999879,,response,,,,1,E,,,,,,Space,keypress(Space),,,,lyrical,,,,--- ---- ------ --- ------- ---------- ------- ----------<br>--- --------- --- ----------- ------- group ------- ---<br>--------- ---- -- --- ---- -- --------- -- ---- -------<br>-- --------- ------ --- ----- ------ ---- --- --------- --<br>------ - ---- -- --- ----------- ------- ---- ----- -----<br>--- -------- - ------ ---- -- ----- ---- --- --- -----------<br>-- -------,227781.69999980927,227780.5,227353.807,227368.39999985695,227389.113,227786.967,,13,group
screen,html.Screen,2_3_1_0_1_14,2022-02-15T13:06:39.147Z,,,,,,,,,,,,,,,,,2,,,,,,,,,,,,,,401.23299980926095,,response,,,,1,E,,,,,,Space,keypress(Space),,,,lyrical,,,,--- ---- ------ --- ------- ---------- ------- ----------<br>--- --------- --- ----------- ------- ----- through ---<br>--------- ---- -- --- ---- -- --------- -- ---- -------<br>-- --------- ------ --- ----- ------ ---- --- --------- --<br>------ - ---- -- --- ----------- ------- ---- ----- -----<br>--- -------- - ------ ---- -- ----- ---- --- --- -----------<br>-- -------,228189.69999980927,228188.19999980927,227770.37,227781.89999985695,227786.967,228203.597,,14,through
screen,html.Screen,2_3_1_0_1_15,2022-02-15T13:06:39.557Z,,,,,,,,,,,,,,,,,2,,,,,,,,,,,,,,395.1029998092563,,response,,,,1,E,,,,,,Space,keypress(Space),,,,lyrical,,,,--- ---- ------ --- ------- ---------- ------- ----------<br>--- --------- --- ----------- ------- ----- ------- his<br>--------- ---- -- --- ---- -- --------- -- ---- -------<br>-- --------- ------ --- ----- ------ ---- --- --------- --<br>------ - ---- -- --- ----------- ------- ---- ----- -----<br>--- -------- - ------ ---- -- ----- ---- --- --- -----------<br>-- -------,228600.09999990463,228598.69999980927,228186.865,228189.89999985695,228203.597,228603.412,,15,his
screen,html.Screen,2_3_1_0_1_16,2022-02-15T13:06:40.006Z,,,,,,,,,,,,,,,,,2,,,,,,,,,,,,,,444.0879999999888,,response,,,,1,E,,,,,,Space,keypress(Space),,,,lyrical,,,,--- ---- ------ --- ------- ---------- ------- ----------<br>--- --------- --- ----------- ------- ----- ------- ---<br>telescope ---- -- --- ---- -- --------- -- ---- -------<br>-- --------- ------ --- ----- ------ ---- --- --------- --<br>------ - ---- -- --- ----------- ------- ---- ----- -----<br>--- -------- - ------ ---- -- ----- ---- --- --- -----------<br>-- -------,229049.5,229047.5,228586.912,228600.29999995232,228603.412,229053.314,,16,telescope
screen,html.Screen,2_3_1_0_1_17,2022-02-15T13:06:40.410Z,,,,,,,,,,,,,,,,,2,,,,,,,,,,,,,,398.98599995230325,,response,,,,1,E,,,,,,Space,keypress(Space),,,,lyrical,,,,--- ---- ------ --- ------- ---------- ------- ----------<br>--- --------- --- ----------- ------- ----- ------- ---<br>--------- when -- --- ---- -- --------- -- ---- -------<br>-- --------- ------ --- ----- ------ ---- --- --------- --<br>------ - ---- -- --- ----------- ------- ---- ----- -----<br>--- -------- - ------ ---- -- ----- ---- --- --- -----------<br>-- -------,229453.5,229452.29999995232,229036.862,229049.79999995232,229053.314,229469.902,,17,when
screen,html.Screen,2_3_1_0_1_18,2022-02-15T13:06:40.849Z,,,,,,,,,,,,,,,,,2,,,,,,,,,,,,,,421.3979999523144,,response,,,,1,E,,,,,,Space,keypress(Space),,,,lyrical,,,,--- ---- ------ --- ------- ---------- ------- ----------<br>--- --------- --- ----------- ------- ----- ------- ---<br>--------- ---- he --- ---- -- --------- -- ---- -------<br>-- --------- ------ --- ----- ------ ---- --- --------- --<br>------ - ---- -- --- ----------- ------- ---- ----- -----<br>--- -------- - ------ ---- -- ----- ---- --- --- -----------<br>-- -------,229892.5,229891.29999995232,229453.351,229453.79999995232,229469.902,229903.117,,18,he
screen,html.Screen,2_3_1_0_1_19,2022-02-15T13:06:41.223Z,,,,,,,,,,,,,,,,,2,,,,,,,,,,,,,,361.4829999046342,,response,,,,1,E,,,,,,Space,keypress(Space),,,,lyrical,,,,--- ---- ------ --- ------- ---------- ------- ----------<br>--- --------- --- ----------- ------- ----- ------- ---<br>--------- ---- -- saw ---- -- --------- -- ---- -------<br>-- --------- ------ --- ----- ------ ---- --- --------- --<br>------ - ---- -- --- ----------- ------- ---- ----- -----<br>--- -------- - ------ ---- -- ----- ---- --- --- -----------<br>-- -------,230266.09999990463,230264.59999990463,229886.546,229892.69999980927,229903.117,230269.689,,19,saw
screen,html.Screen,2_3_1_0_1_20,2022-02-15T13:06:41.614Z,,,,,,,,,,,,,,,,,2,,,,,,,,,,,,,,386.0109998092521,,response,,,,1,E,,,,,,Space,keypress(Space),,,,lyrical,,,,--- ---- ------ --- ------- ---------- ------- ----------<br>--- --------- --- ----------- ------- ----- ------- ---<br>--------- ---- -- --- what -- --------- -- ---- -------<br>-- --------- ------ --- ----- ------ ---- --- --------- --<br>------ - ---- -- --- ----------- ------- ---- ----- -----<br>--- -------- - ------ ---- -- ----- ---- --- --- -----------<br>-- -------,230657,230655.69999980927,230253.193,230266.29999995232,230269.689,230669.602,,20,what
screen,html.Screen,2_3_1_0_1_21,2022-02-15T13:06:41.986Z,,,,,,,,,,,,,,,,,2,,,,,,,,,,,,,,357.8979999999865,,response,,,,1,E,,,,,,Space,keypress(Space),,,,lyrical,,,,--- ---- ------ --- ------- ---------- ------- ----------<br>--- --------- --- ----------- ------- ----- ------- ---<br>--------- ---- -- --- ---- he --------- -- ---- -------<br>-- --------- ------ --- ----- ------ ---- --- --------- --<br>------ - ---- -- --- ----------- ------- ---- ----- -----<br>--- -------- - ------ ---- -- ----- ---- --- --- -----------<br>-- -------,231028.89999985695,231027.5,230653.066,230657.19999980927,230669.602,231036.178,,21,he
screen,html.Screen,2_3_1_0_1_22,2022-02-15T13:06:42.399Z,,,,,,,,,,,,,,,,,2,,,,,,,,,,,,,,404.82199999998556,,response,,,,1,E,,,,,,Space,keypress(Space),,,,lyrical,,,,--- ---- ------ --- ------- ---------- ------- ----------<br>--- --------- --- ----------- ------- ----- ------- ---<br>--------- ---- -- --- ---- -- described -- ---- -------<br>-- --------- ------ --- ----- ------ ---- --- --------- --<br>------ - ---- -- --- ----------- ------- ---- ----- -----<br>--- -------- - ------ ---- -- ----- ---- --- --- -----------<br>-- -------,231442.19999980927,231441,231019.564,231029.09999990463,231036.178,231452.74,,22,described
screen,html.Screen,2_3_1_0_1_23,2022-02-15T13:06:42.810Z,,,,,,,,,,,,,,,,,2,,,,,,,,,,,,,,399.5599999523256,,response,,,,1,E,,,,,,Space,keypress(Space),,,,lyrical,,,,--- ---- ------ --- ------- ---------- ------- ----------<br>--- --------- --- ----------- ------- ----- ------- ---<br>--------- ---- -- --- ---- -- --------- as ---- -------<br>-- --------- ------ --- ----- ------ ---- --- --------- --<br>------ - ---- -- --- ----------- ------- ---- ----- -----<br>--- -------- - ------ ---- -- ----- ---- --- --- -----------<br>-- -------,231853.39999985695,231852.29999995232,231436.268,231442.39999985695,231452.74,231869.33,,23,as
screen,html.Screen,2_3_1_0_1_24,2022-02-15T13:06:43.200Z,,,,,,,,,,,,,,,,,2,,,,,,,,,,,,,,371.6700000000128,,response,,,,1,E,,,,,,Space,keypress(Space),,,,lyrical,,,,"--- ---- ------ --- ------- ---------- ------- ----------<br>--- --------- --- ----------- ------- ----- ------- ---<br>--------- ---- -- --- ---- -- --------- -- ""two -------<br>-- --------- ------ --- ----- ------ ---- --- --------- --<br>------ - ---- -- --- ----------- ------- ---- ----- -----<br>--- -------- - ------ ---- -- ----- ---- --- --- -----------<br>-- -------",232242.69999980927,232241,231852.801,231853.59999990463,231869.33,232252.53,,24,"""two"
screen,html.Screen,2_3_1_0_1_25,2022-02-15T13:06:43.615Z,,,,,,,,,,,,,,,,,2,,,,,,,,,,,,,,403.97000000000116,,response,,,,1,E,,,,,,Space,keypress(Space),,,,lyrical,,,,--- ---- ------ --- ------- ---------- ------- ----------<br>--- --------- --- ----------- ------- ----- ------- ---<br>--------- ---- -- --- ---- -- --------- -- ---- patches<br>-- --------- ------ --- ----- ------ ---- --- --------- --<br>------ - ---- -- --- ----------- ------- ---- ----- -----<br>--- -------- - ------ ---- -- ----- ---- --- --- -----------<br>-- -------,232657.79999995232,232656.5,232236,232243.19999980927,232252.53,232669.126,,25,patches
screen,html.Screen,2_3_1_0_1_26,2022-02-15T13:06:43.972Z,,,,,,,,,,,,,,,,,2,,,,,,,,,,,,,,344.57399980927585,,response,,,,1,E,,,,,,Space,keypress(Space),,,,lyrical,,,,--- ---- ------ --- ------- ---------- ------- ----------<br>--- --------- --- ----------- ------- ----- ------- ---<br>--------- ---- -- --- ---- -- --------- -- ---- -------<br>of --------- ------ --- ----- ------ ---- --- --------- --<br>------ - ---- -- --- ----------- ------- ---- ----- -----<br>--- -------- - ------ ---- -- ----- ---- --- --- -----------<br>-- -------,233014.79999995232,233013.69999980927,232652.603,232658,232669.126,233019.236,,26,of
screen,html.Screen,2_3_1_0_1_27,2022-02-15T13:06:44.298Z,,,,,,,,,,,,,,,,,2,,,,,,,,,,,,,,319.4639998092607,,response,,,,1,E,,,,,,Space,keypress(Space),,,,lyrical,,,,--- ---- ------ --- ------- ---------- ------- ----------<br>--- --------- --- ----------- ------- ----- ------- ---<br>--------- ---- -- --- ---- -- --------- -- ---- -------<br>-- intensely ------ --- ----- ------ ---- --- --------- --<br>------ - ---- -- --- ----------- ------- ---- ----- -----<br>--- -------- - ------ ---- -- ----- ---- --- --- -----------<br>-- -------,233340.89999985695,233338.69999980927,233002.496,233015.5,233019.236,233352.259,,27,intensely
screen,html.Screen,2_3_1_0_1_28,2022-02-15T13:06:44.668Z,,,,,,,,,,,,,,,,,2,,,,,,,,,,,,,,357.64099985695793,,response,,,,1,E,,,,,,Space,keypress(Space),,,,lyrical,,,,--- ---- ------ --- ------- ---------- ------- ----------<br>--- --------- --- ----------- ------- ----- ------- ---<br>--------- ---- -- --- ---- -- --------- -- ---- -------<br>-- --------- bright --- ----- ------ ---- --- --------- --<br>------ - ---- -- --- ----------- ------- ---- ----- -----<br>--- -------- - ------ ---- -- ----- ---- --- --- -----------<br>-- -------,233711,233709.89999985695,233335.636,233341.19999980927,233352.259,233718.869,,28,bright
screen,html.Screen,2_3_1_0_1_29,2022-02-15T13:06:45.041Z,,,,,,,,,,,,,,,,,2,,,,,,,,,,,,,,363.5309998569428,,response,,,,1,E,,,,,,Space,keypress(Space),,,,lyrical,,,,--- ---- ------ --- ------- ---------- ------- ----------<br>--- --------- --- ----------- ------- ----- ------- ---<br>--------- ---- -- --- ---- -- --------- -- ---- -------<br>-- --------- ------ and ----- ------ ---- --- --------- --<br>------ - ---- -- --- ----------- ------- ---- ----- -----<br>--- -------- - ------ ---- -- ----- ---- --- --- -----------<br>-- -------,234083.69999980927,234082.39999985695,233702.343,233711.19999980927,233718.869,234109.049,,29,and
screen,html.Screen,2_3_1_0_1_30,2022-02-15T13:06:45.438Z,,,,,,,,,,,,,,,,,2,,,,,,,,,,,,,,370.15099980926607,,response,,,,1,E,,,,,,Space,keypress(Space),,,,lyrical,,,,--- ---- ------ --- ------- ---------- ------- ----------<br>--- --------- --- ----------- ------- ----- ------- ---<br>--------- ---- -- --- ---- -- --------- -- ---- -------<br>-- --------- ------ --- white ------ ---- --- --------- --<br>------ - ---- -- --- ----------- ------- ---- ----- -----<br>--- -------- - ------ ---- -- ----- ---- --- --- -----------<br>-- -------,234481,234479.19999980927,234068.87,234083.89999985695,234109.049,234485.368,,30,white
screen,html.Screen,2_3_1_0_1_31,2022-02-15T13:06:45.813Z,,,,,,,,,,,,,,,,,2,,,,,,,,,,,,,,369.3319998092775,,response,,,,1,E,,,,,,Space,keypress(Space),,,,lyrical,,,,"--- ---- ------ --- ------- ---------- ------- ----------<br>--- --------- --- ----------- ------- ----- ------- ---<br>--------- ---- -- --- ---- -- --------- -- ---- -------<br>-- --------- ------ --- ----- light"" ---- --- --------- --<br>------ - ---- -- --- ----------- ------- ---- ----- -----<br>--- -------- - ------ ---- -- ----- ---- --- --- -----------<br>-- -------",234856.29999995232,234854.69999980927,234468.845,234481.29999995232,234485.368,234868.689,,31,"light"""
screen,html.Screen,2_3_1_0_1_32,2022-02-15T13:06:46.198Z,,,,,,,,,,,,,,,,,2,,,,,,,,,,,,,,370.91099990461953,,response,,,,1,E,,,,,,Space,keypress(Space),,,,lyrical,,,,--- ---- ------ --- ------- ---------- ------- ----------<br>--- --------- --- ----------- ------- ----- ------- ---<br>--------- ---- -- --- ---- -- --------- -- ---- -------<br>-- --------- ------ --- ----- ------ over --- --------- --<br>------ - ---- -- --- ----------- ------- ---- ----- -----<br>--- -------- - ------ ---- -- ----- ---- --- --- -----------<br>-- -------,235241,235239.59999990463,234852.052,234856.69999980927,234868.689,235251.814,,32,over
screen,html.Screen,2_3_1_0_1_33,2022-02-15T13:06:46.571Z,,,,,,,,,,,,,,,,,2,,,,,,,,,,,,,,361.3859998092521,,response,,,,1,E,,,,,,Space,keypress(Space),,,,lyrical,,,,--- ---- ------ --- ------- ---------- ------- ----------<br>--- --------- --- ----------- ------- ----- ------- ---<br>--------- ---- -- --- ---- -- --------- -- ---- -------<br>-- --------- ------ --- ----- ------ ---- the --------- --<br>------ - ---- -- --- ----------- ------- ---- ----- -----<br>--- -------- - ------ ---- -- ----- ---- --- --- -----------<br>-- -------,235614.5,235613.19999980927,235235.143,235241.29999995232,235251.814,235618.436,,33,the
screen,html.Screen,2_3_1_0_1_34,2022-02-15T13:06:46.970Z,,,,,,,,,,,,,,,,,2,,,,,,,,,,,,,,392.9639998569619,,response,,,,1,E,,,,,,Space,keypress(Space),,,,lyrical,,,,--- ---- ------ --- ------- ---------- ------- ----------<br>--- --------- --- ----------- ------- ----- ------- ---<br>--------- ---- -- --- ---- -- --------- -- ---- -------<br>-- --------- ------ --- ----- ------ ---- --- sunspots. --<br>------ - ---- -- --- ----------- ------- ---- ----- -----<br>--- -------- - ------ ---- -- ----- ---- --- --- -----------<br>-- -------,236012.59999990463,236011.39999985695,235601.907,235614.59999990463,235618.436,236018.306,,34,sunspots.
screen,html.Screen,2_3_1_0_1_35,2022-02-15T13:06:47.355Z,,,,,,,,,,,,,,,,,2,,,,,,,,,,,,,,377.79399990462116,,response,,,,1,E,,,,,,Space,keypress(Space),,,,lyrical,,,,--- ---- ------ --- ------- ---------- ------- ----------<br>--- --------- --- ----------- ------- ----- ------- ---<br>--------- ---- -- --- ---- -- --------- -- ---- -------<br>-- --------- ------ --- ----- ------ ---- --- --------- He<br>------ - ---- -- --- ----------- ------- ---- ----- -----<br>--- -------- - ------ ---- -- ----- ---- --- --- -----------<br>-- -------,236397.69999980927,236396.09999990463,236001.762,236012.89999985695,236018.306,236401.58,,35,He
screen,html.Screen,2_3_1_0_1_36,2022-02-15T13:06:47.771Z,,,,,,,,,,,,,,,,,2,,,,,,,,,,,,,,411.61999980927794,,response,,,,1,E,,,,,,Space,keypress(Space),,,,lyrical,,,,--- ---- ------ --- ------- ---------- ------- ----------<br>--- --------- --- ----------- ------- ----- ------- ---<br>--------- ---- -- --- ---- -- --------- -- ---- -------<br>-- --------- ------ --- ----- ------ ---- --- --------- --<br>jotted - ---- -- --- ----------- ------- ---- ----- -----<br>--- -------- - ------ ---- -- ----- ---- --- --- -----------<br>-- -------,236814.39999985695,236813.19999980927,236384.889,236398,236401.58,236818.178,,36,jotted
screen,html.Screen,2_3_1_0_1_37,2022-02-15T13:06:48.106Z,,,,,,,,,,,,,,,,,2,,,,,,,,,,,,,,329.82199999998556,,response,,,,1,E,,,,,,Space,keypress(Space),,,,lyrical,,,,--- ---- ------ --- ------- ---------- ------- ----------<br>--- --------- --- ----------- ------- ----- ------- ---<br>--------- ---- -- --- ---- -- --------- -- ---- -------<br>-- --------- ------ --- ----- ------ ---- --- --------- --<br>------ a ---- -- --- ----------- ------- ---- ----- -----<br>--- -------- - ------ ---- -- ----- ---- --- --- -----------<br>-- -------,237149.39999985695,237148,236801.618,236814.69999980927,236818.178,237169.25,,37,a
