sender,sender_type,sender_id,timestamp,meta,,Blues,Classical,Country,Dance,Electronic,Folk,Gospel,Hip-Hop,Jazz,Latin,Musical/Film,New-age,Pop,Prolific_id,Provo_ID,R&B,Rap,Reggae,Religious,Rock,Soul,Swing,Traditional,age,artist_name,correct,correctResponse,distraction,duration,education,ended_on,familiarity,gender,headphone_check_performance,item,list,music_frequency,offensiveness,pleasantness,position_correct,preference,response,response_action,snippet_file,song_name,song_rating,sound,stimulus_1,stimulus_2,stimulus_3,text,time_commit,time_end,time_render,time_run,time_show,time_switch,url,word,word_ID
Prolific ID,html.Form,0,2022-02-01T14:47:42.789Z,"{""labjs_version"":""20.2.2"",""labjs_build"":{""flavor"":""production"",""commit"":""a25486e0c714a0ae2ce03ff94b7bb6896854dcfa""},""location"":""https://run.pavlovia.org/mvasilev/prolific2_music_a/"",""userAgent"":""Mozilla/5.0 (Windows NT 10.0; Win64; x64; rv:96.0) Gecko/20100101 Firefox/96.0"",""platform"":""Win32"",""language"":""en-US"",""locale"":""en-GB"",""timeZone"":""Europe/London"",""timezoneOffset"":0,""screen_width"":1536,""screen_height"":864,""scroll_width"":1536,""scroll_height"":691,""window_innerWidth"":1536,""window_innerHeight"":739,""devicePixelRatio"":1.25}",,,,,,,,,,,,,,,5d920df12b679a00182bbc73,,,,,,,,,,,,,,,10221.28,,form submission,,,,,,,,,,,,,,,,,,,,,21728,21727,11505.4,11506,11505.72,21736.16,{},,
Introduction,html.Screen,1_0,2022-02-01T14:48:06.119Z,,,,,,,,,,,,,,,,,,,,,,,,,,,,,,,23311.84,,response,,,,,,,,,,,continue,click button,,,,,,,,,45059,45048,21721.84,21729,21736.16,45061.72,,,
Volume calibration,html.Screen,1_1,2022-02-01T14:48:45.669Z,,,,,,,,,,,,,,,,,,,,,,,,,,,,,,,39534.28,,response,,,,,,,,,,,continue,click button,,,,,,,,,84609,84596,45057.14,45059,45061.72,84610.22,,,
Task instructions,html.Screen,1_2,2022-02-01T14:48:53.523Z,,,,,,,,,,,,,,,,,,,,,,,,,,,,,,,7844.779999999999,,response,,,,,,,,,,,continue,click button,,,,,,,,,92463,92455,84606.96,84610,84610.22,92463.14,,,
Sounds,html.Screen,1_3_0_0,2022-02-01T14:48:57.759Z,,,,,,,,,,,,,,,,,,,,,,,,,,,,,,,4251.680000000008,,timeout,,,,,,,,,1,,,,,,,,S,I,O,,96699,96698.14,92461.34,92464,92463.14,96714.82,,,
Judgement,html.Screen,1_3_0_1,2022-02-01T14:48:59.507Z,,,,,,,,,,,,,,,,,,,,,,,,,,,,true,1,,1725.179999999993,,response,,,,,,,,,1,,1,click #choice-1,,,,,S,I,O,,98447,98440,96698.14,96700,96714.82,98448.74,,,
Trial,flow.Sequence,1_3_0,2022-02-01T14:48:59.507Z,,,,,,,,,,,,,,,,,,,,,,,,,,,,,,,5976.860000000001,,completion,,,,,,,,,1,,,,,,,,S,I,O,,98447,98440,92461.34,92464,92463.14,98448.74,,,
Sounds,html.Screen,1_3_1_0,2022-02-01T14:49:03.745Z,,,,,,,,,,,,,,,,,,,,,,,,,,,,,,,4251.679999999993,,timeout,,,,,,,,,3,,,,,,,,I,O,S,,102685,102683.74,98445.76,98447,98448.74,102700.42,,,
Judgement,html.Screen,1_3_1_1,2022-02-01T14:49:04.738Z,,,,,,,,,,,,,,,,,,,,,,,,,,,,true,3,,972.5800000000017,,response,,,,,,,,,3,,3,click #choice-3,,,,,I,O,S,,103677,103673,102683.74,102685,102700.42,103684.22,,,
Trial,flow.Sequence,1_3_1,2022-02-01T14:49:04.739Z,,,,,,,,,,,,,,,,,,,,,,,,,,,,,,,5224.259999999995,,completion,,,,,,,,,3,,,,,,,,I,O,S,,103678,103673,98445.76,98447,98448.74,103684.22,,,
Sounds,html.Screen,1_3_2_0,2022-02-01T14:49:08.981Z,,,,,,,,,,,,,,,,,,,,,,,,,,,,,,,4251.580000000002,,timeout,,,,,,,,,1,,,,,,,,S,O,I,,107921,107919.12,103675.46,103678,103684.22,107935.8,,,
Judgement,html.Screen,1_3_2_1,2022-02-01T14:49:10.348Z,,,,,,,,,,,,,,,,,,,,,,,,,,,,true,1,,1348.199999999997,,response,,,,,,,,,1,,1,click #choice-1,,,,,S,O,I,,109288,109284,107919.12,107921,107935.8,109302.88,,,
Trial,flow.Sequence,1_3_2,2022-02-01T14:49:10.348Z,,,,,,,,,,,,,,,,,,,,,,,,,,,,,,,5599.779999999999,,completion,,,,,,,,,1,,,,,,,,S,O,I,,109288,109284,103675.46,103678,103684.22,109302.88,,,
Sounds,html.Screen,1_3_3_0,2022-02-01T14:49:14.599Z,,,,,,,,,,,,,,,,,,,,,,,,,,,,,,,4251.720000000001,,timeout,,,,,,,,,2,,,,,,,,O,S,I,,113539,113537.92,109286.46,109289,109302.88,113554.6,,,
Judgement,html.Screen,1_3_3_1,2022-02-01T14:49:15.548Z,,,,,,,,,,,,,,,,,,,,,,,,,,,,true,2,,915.3999999999942,,response,,,,,,,,,2,,2,click #choice-2,,,,,O,S,I,,114488,114470,113537.92,113539,113554.6,114488.22,,,
Trial,flow.Sequence,1_3_3,2022-02-01T14:49:15.549Z,,,,,,,,,,,,,,,,,,,,,,,,,,,,,,,5167.119999999995,,completion,,,,,,,,,2,,,,,,,,O,S,I,,114489,114470,109286.46,109289,109302.88,114488.22,,,
Sounds,html.Screen,1_3_4_0,2022-02-01T14:49:19.785Z,,,,,,,,,,,,,,,,,,,,,,,,,,,,,,,4251.779999999999,,timeout,,,,,,,,,2,,,,,,,,I,S,O,,118724,118723.32,114487.28,114489,114488.22,118740,,,
Judgement,html.Screen,1_3_4_1,2022-02-01T14:49:21.179Z,,,,,,,,,,,,,,,,,,,,,,,,,,,,true,2,,1372,,response,,,,,,,,,2,,2,click #choice-2,,,,,I,S,O,,120119,120112,118723.32,118725,118740,120123.7,,,
Trial,flow.Sequence,1_3_4,2022-02-01T14:49:21.179Z,,,,,,,,,,,,,,,,,,,,,,,,,,,,,,,5623.779999999999,,completion,,,,,,,,,2,,,,,,,,I,S,O,,120120,120112,114487.28,114489,114488.22,120123.7,,,
Sounds,html.Screen,1_3_5_0,2022-02-01T14:49:25.419Z,,,,,,,,,,,,,,,,,,,,,,,,,,,,,,,4251.680000000008,,timeout,,,,,,,,,3,,,,,,,,O,I,S,,124360,124358.7,120117.46,120120,120123.7,124375.38,,,
Judgement,html.Screen,1_3_5_1,2022-02-01T14:49:26.333Z,,,,,,,,,,,,,,,,,,,,,,,,,,,,true,3,,892.6199999999953,,response,,,,,,,,,3,,3,click #choice-3,,,,,O,I,S,,125273,125268,124358.7,124360,124375.38,125275.74,,,
Trial,flow.Sequence,1_3_5,2022-02-01T14:49:26.334Z,,,,,,,,,,,,,,,,,,,,,,,,,,,,,,,5144.300000000003,,completion,,,,,,,,,3,,,,,,,,O,I,S,,125274,125268,120117.46,120120,120123.7,125275.74,,,
Task,flow.Loop,1_3,2022-02-01T14:49:26.334Z,,,,,,,,,,,,,,,,,,,,,,,,,,,,,,,32804.86,,completion,,,1,,,,,,,,,,,,,,,,,,125275,125268,92461.34,92464,92463.14,125275.74,,,
Trap,html.Screen,1_4,2022-02-01T14:49:26.337Z,,,,,,,,,,,,,,,,,,,,,,,,,,,,,,,NaN,,skipped,,,,,,,,,,,,,,,,,,,,,125277,125268,,125277,,125275.74,,,
Thanks,html.Screen,1_5,2022-02-01T14:49:29.403Z,,,,,,,,,,,,,,,,,,,,,,,,,,,,,,,3053.2599999999948,,response,,,,,,,,,,,continue,click button,,,,,,,,,128342,128329,125272.08,125277,125275.74,131578.08,,,
Headphone screening,flow.Sequence,1,2022-02-01T14:49:29.403Z,,,,,,,,,,,,,,,,,,,,,,,,,,,,,,,106592.84,,completion,,,,,,,,,,,,,,,,,,,,,128343,128329,21721.84,21729,21736.16,131578.08,,,
Instructions,html.Page,2_0,2022-02-01T14:49:49.501Z,,,,,,,,,,,,,,,,,,,,,,,,,,,,,,,16862.920000000013,,form submission,,,,,,,,,,,,,,,,,,,,,148441,148441,131574,131574,131578.08,148451.5,,,
Holding screen,html.Screen,2_1_0_0,2022-02-01T14:49:59.500Z,,,,,,,,,,,,,,,,,,,,,,,,,,,,,,,10003.700000000012,,timeout,,,,,,,,,,,,,,,,,,,,,158440,158438.54,148437.72,148442,148451.5,158455.2,,,
screen,html.Screen,2_1_0_1_0,2022-02-01T14:50:00.558Z,,,,,,,,,,,,,,,,,53,,,,,,,,,,,,,,1031.7999999999884,,response,,,,99,,,,,,,Space,keypress(Space),,,,,,,,When -- ----- -- ------ - ------- --- ----------<br>------------- ------ ------ ---- ---- ------- ----- -- ----<br>-------- ------- -- ---------- --- - --- ----- ----- ----<br>---- --- --- ----- --- ---- ---- ------- ----- ---- -------<br>--- --- -- ----- -- --- ---- -- --- ---- -- ------ ------<br>--- ----- -- ----,159499,159487,158438.54,158440,158455.2,159499.44,,0,When
screen,html.Screen,2_1_0_1_1,2022-02-01T14:50:01.061Z,,,,,,,,,,,,,,,,,53,,,,,,,,,,,,,,486.5599999999977,,response,,,,99,,,,,,,Space,keypress(Space),,,,,,,,---- it ----- -- ------ - ------- --- ----------<br>------------- ------ ------ ---- ---- ------- ----- -- ----<br>-------- ------- -- ---------- --- - --- ----- ----- ----<br>---- --- --- ----- --- ---- ---- ------- ----- ---- -------<br>--- --- -- ----- -- --- ---- -- --- ---- -- ------ ------<br>--- ----- -- ----,160001,159986,159498.84,159499,159499.44,160001.8,,1,it
screen,html.Screen,2_1_0_1_2,2022-02-01T14:50:02.141Z,,,,,,,,,,,,,,,,,53,,,,,,,,,,,,,,1062.2000000000116,,response,,,,99,,,,,,,Space,keypress(Space),,,,,,,,---- -- comes -- ------ - ------- --- ----------<br>------------- ------ ------ ---- ---- ------- ----- -- ----<br>-------- ------- -- ---------- --- - --- ----- ----- ----<br>---- --- --- ----- --- ---- ---- ------- ----- ---- -------<br>--- --- -- ----- -- --- ---- -- --- ---- -- ------ ------<br>--- ----- -- ----,161081,161064,160001.3,160002,160001.8,161081.4,,2,comes
screen,html.Screen,2_1_0_1_3,2022-02-01T14:50:02.571Z,,,,,,,,,,,,,,,,,53,,,,,,,,,,,,,,419.6000000000058,,response,,,,99,,,,,,,Space,keypress(Space),,,,,,,,---- -- ----- to ------ - ------- --- ----------<br>------------- ------ ------ ---- ---- ------- ----- -- ----<br>-------- ------- -- ---------- --- - --- ----- ----- ----<br>---- --- --- ----- --- ---- ---- ------- ----- ---- -------<br>--- --- -- ----- -- --- ---- -- --- ---- -- ------ ------<br>--- ----- -- ----,161511,161501,161081.32,161081,161081.4,161511.28,,3,to
screen,html.Screen,2_1_0_1_4,2022-02-01T14:50:02.950Z,,,,,,,,,,,,,,,,,53,,,,,,,,,,,,,,365.72000000000116,,response,,,,99,,,,,,,Space,keypress(Space),,,,,,,,---- -- ----- -- having - ------- --- ----------<br>------------- ------ ------ ---- ---- ------- ----- -- ----<br>-------- ------- -- ---------- --- - --- ----- ----- ----<br>---- --- --- ----- --- ---- ---- ------- ----- ---- -------<br>--- --- -- ----- -- --- ---- -- --- ---- -- ------ ------<br>--- ----- -- ----,161890,161877,161511,161511,161511.28,161890.92,,4,having
screen,html.Screen,2_1_0_1_5,2022-02-01T14:50:03.253Z,,,,,,,,,,,,,,,,,53,,,,,,,,,,,,,,299.0799999999872,,response,,,,99,,,,,,,Space,keypress(Space),,,,,,,,---- -- ----- -- ------ a ------- --- ----------<br>------------- ------ ------ ---- ---- ------- ----- -- ----<br>-------- ------- -- ---------- --- - --- ----- ----- ----<br>---- --- --- ----- --- ---- ---- ------- ----- ---- -------<br>--- --- -- ----- -- --- ---- -- --- ---- -- ------ ------<br>--- ----- -- ----,162193,162190,161890.5,161891,161890.92,162193.62,,5,a
screen,html.Screen,2_1_0_1_6,2022-02-01T14:50:03.715Z,,,,,,,,,,,,,,,,,53,,,,,,,,,,,,,,448.38000000000466,,response,,,,99,,,,,,,Space,keypress(Space),,,,,,,,---- -- ----- -- ------ - lasting --- ----------<br>------------- ------ ------ ---- ---- ------- ----- -- ----<br>-------- ------- -- ---------- --- - --- ----- ----- ----<br>---- --- --- ----- --- ---- ---- ------- ----- ---- -------<br>--- --- -- ----- -- --- ---- -- --- ---- -- ------ ------<br>--- ----- -- ----,162655,162642,162193.04,162193,162193.62,162655.8,,6,lasting
screen,html.Screen,2_1_0_1_7,2022-02-01T14:50:04.012Z,,,,,,,,,,,,,,,,,53,,,,,,,,,,,,,,283.20000000001164,,response,,,,99,,,,,,,Space,keypress(Space),,,,,,,,---- -- ----- -- ------ - ------- and ----------<br>------------- ------ ------ ---- ---- ------- ----- -- ----<br>-------- ------- -- ---------- --- - --- ----- ----- ----<br>---- --- --- ----- --- ---- ---- ------- ----- ---- -------<br>--- --- -- ----- -- --- ---- -- --- ---- -- ------ ------<br>--- ----- -- ----,162951,162939,162655.2,162655,162655.8,162951.94,,7,and
screen,html.Screen,2_1_0_1_8,2022-02-01T14:50:04.634Z,,,,,,,,,,,,,,,,,53,,,,,,,,,,,,,,613.0599999999977,,response,,,,99,,,,,,,Space,keypress(Space),,,,,,,,---- -- ----- -- ------ - ------- --- fulfilling<br>------------- ------ ------ ---- ---- ------- ----- -- ----<br>-------- ------- -- ---------- --- - --- ----- ----- ----<br>---- --- --- ----- --- ---- ---- ------- ----- ---- -------<br>--- --- -- ----- -- --- ---- -- --- ---- -- ------ ------<br>--- ----- -- ----,163575,163565,162951.34,162951,162951.94,163575.48,,8,fulfilling
screen,html.Screen,2_1_0_1_9,2022-02-01T14:50:05.046Z,,,,,,,,,,,,,,,,,53,,,,,,,,,,,,,,394.5199999999895,,response,,,,99,,,,,,,Space,keypress(Space),,,,,,,,"---- -- ----- -- ------ - ------- --- ----------<br>relationship, ------ ------ ---- ---- ------- ----- -- ----<br>-------- ------- -- ---------- --- - --- ----- ----- ----<br>---- --- --- ----- --- ---- ---- ------- ----- ---- -------<br>--- --- -- ----- -- --- ---- -- --- ---- -- ------ ------<br>--- ----- -- ----",163985,163970,163574.88,163575,163575.48,163986.44,,9,"relationship,"
screen,html.Screen,2_1_0_1_10,2022-02-01T14:50:05.522Z,,,,,,,,,,,,,,,,,53,,,,,,,,,,,,,,467.5599999999977,,response,,,,99,,,,,,,Space,keypress(Space),,,,,,,,---- -- ----- -- ------ - ------- --- ----------<br>------------- common ------ ---- ---- ------- ----- -- ----<br>-------- ------- -- ---------- --- - --- ----- ----- ----<br>---- --- --- ----- --- ---- ---- ------- ----- ---- -------<br>--- --- -- ----- -- --- ---- -- --- ---- -- ------ ------<br>--- ----- -- ----,164461,164454,163985.98,163986,163986.44,164461.84,,10,common
screen,html.Screen,2_1_0_1_11,2022-02-01T14:50:05.810Z,,,,,,,,,,,,,,,,,53,,,,,,,,,,,,,,275.1600000000035,,response,,,,99,,,,,,,Space,keypress(Space),,,,,,,,---- -- ----- -- ------ - ------- --- ----------<br>------------- ------ wisdom ---- ---- ------- ----- -- ----<br>-------- ------- -- ---------- --- - --- ----- ----- ----<br>---- --- --- ----- --- ---- ---- ------- ----- ---- -------<br>--- --- -- ----- -- --- ---- -- --- ---- -- ------ ------<br>--- ----- -- ----,164750,164737,164461.26,164461,164461.84,164750.86,,11,wisdom
screen,html.Screen,2_1_0_1_12,2022-02-01T14:50:06.288Z,,,,,,,,,,,,,,,,,53,,,,,,,,,,,,,,469.14000000001397,,response,,,,99,,,,,,,Space,keypress(Space),,,,,,,,---- -- ----- -- ------ - ------- --- ----------<br>------------- ------ ------ says ---- ------- ----- -- ----<br>-------- ------- -- ---------- --- - --- ----- ----- ----<br>---- --- --- ----- --- ---- ---- ------- ----- ---- -------<br>--- --- -- ----- -- --- ---- -- --- ---- -- ------ ------<br>--- ----- -- ----,165228,165220,164750.24,164750,164750.86,165228.84,,12,says
screen,html.Screen,2_1_0_1_13,2022-02-01T14:50:06.593Z,,,,,,,,,,,,,,,,,53,,,,,,,,,,,,,,289.1600000000035,,response,,,,99,,,,,,,Space,keypress(Space),,,,,,,,---- -- ----- -- ------ - ------- --- ----------<br>------------- ------ ------ ---- that ------- ----- -- ----<br>-------- ------- -- ---------- --- - --- ----- ----- ----<br>---- --- --- ----- --- ---- ---- ------- ----- ---- -------<br>--- --- -- ----- -- --- ---- -- --- ---- -- ------ ------<br>--- ----- -- ----,165533,165518,165228.26,165229,165228.84,165533.56,,13,that
screen,html.Screen,2_1_0_1_14,2022-02-01T14:50:06.979Z,,,,,,,,,,,,,,,,,53,,,,,,,,,,,,,,375.4400000000023,,response,,,,99,,,,,,,Space,keypress(Space),,,,,,,,---- -- ----- -- ------ - ------- --- ----------<br>------------- ------ ------ ---- ---- feeling ----- -- ----<br>-------- ------- -- ---------- --- - --- ----- ----- ----<br>---- --- --- ----- --- ---- ---- ------- ----- ---- -------<br>--- --- -- ----- -- --- ---- -- --- ---- -- ------ ------<br>--- ----- -- ----,165919,165909,165533,165533,165533.56,165919.54,,14,feeling
screen,html.Screen,2_1_0_1_15,2022-02-01T14:50:07.357Z,,,,,,,,,,,,,,,,,53,,,,,,,,,,,,,,363.45999999999185,,response,,,,99,,,,,,,Space,keypress(Space),,,,,,,,---- -- ----- -- ------ - ------- --- ----------<br>------------- ------ ------ ---- ---- ------- close -- ----<br>-------- ------- -- ---------- --- - --- ----- ----- ----<br>---- --- --- ----- --- ---- ---- ------- ----- ---- -------<br>--- --- -- ----- -- --- ---- -- --- ---- -- ------ ------<br>--- ----- -- ----,166298,166283,165919.26,165919,165919.54,166299.2,,15,close
screen,html.Screen,2_1_0_1_16,2022-02-01T14:50:07.902Z,,,,,,,,,,,,,,,,,53,,,,,,,,,,,,,,529.7999999999884,,response,,,,99,,,,,,,Space,keypress(Space),,,,,,,,---- -- ----- -- ------ - ------- --- ----------<br>------------- ------ ------ ---- ---- ------- ----- to ----<br>-------- ------- -- ---------- --- - --- ----- ----- ----<br>---- --- --- ----- --- ---- ---- ------- ----- ---- -------<br>--- --- -- ----- -- --- ---- -- --- ---- -- ------ ------<br>--- ----- -- ----,166842,166829,166298.62,166299,166299.2,166843.06,,16,to
screen,html.Screen,2_1_0_1_17,2022-02-01T14:50:08.328Z,,,,,,,,,,,,,,,,,53,,,,,,,,,,,,,,407.9400000000023,,response,,,,99,,,,,,,Space,keypress(Space),,,,,,,,---- -- ----- -- ------ - ------- --- ----------<br>------------- ------ ------ ---- ---- ------- ----- -- your<br>-------- ------- -- ---------- --- - --- ----- ----- ----<br>---- --- --- ----- --- ---- ---- ------- ----- ---- -------<br>--- --- -- ----- -- --- ---- -- --- ---- -- ------ ------<br>--- ----- -- ----,167268,167251,166842.52,166842,166843.06,167268.86,,17,your
screen,html.Screen,2_1_0_1_18,2022-02-01T14:50:08.740Z,,,,,,,,,,,,,,,,,53,,,,,,,,,,,,,,404.14000000001397,,response,,,,99,,,,,,,Space,keypress(Space),,,,,,,,---- -- ----- -- ------ - ------- --- ----------<br>------------- ------ ------ ---- ---- ------- ----- -- ----<br>romantic ------- -- ---------- --- - --- ----- ----- ----<br>---- --- --- ----- --- ---- ---- ------- ----- ---- -------<br>--- --- -- ----- -- --- ---- -- --- ---- -- ------ ------<br>--- ----- -- ----,167680,167673,167268.26,167268,167268.86,167681.14,,18,romantic
screen,html.Screen,2_1_0_1_19,2022-02-01T14:50:09.263Z,,,,,,,,,,,,,,,,,53,,,,,,,,,,,,,,507.85999999998603,,response,,,,99,,,,,,,Space,keypress(Space),,,,,,,,---- -- ----- -- ------ - ------- --- ----------<br>------------- ------ ------ ---- ---- ------- ----- -- ----<br>-------- partner -- ---------- --- - --- ----- ----- ----<br>---- --- --- ----- --- ---- ---- ------- ----- ---- -------<br>--- --- -- ----- -- --- ---- -- --- ---- -- ------ ------<br>--- ----- -- ----,168204,168189,167680.68,167681,167681.14,168205.04,,19,partner
screen,html.Screen,2_1_0_1_20,2022-02-01T14:50:09.659Z,,,,,,,,,,,,,,,,,53,,,,,,,,,,,,,,373.95999999999185,,response,,,,99,,,,,,,Space,keypress(Space),,,,,,,,---- -- ----- -- ------ - ------- --- ----------<br>------------- ------ ------ ---- ---- ------- ----- -- ----<br>-------- ------- is ---------- --- - --- ----- ----- ----<br>---- --- --- ----- --- ---- ---- ------- ----- ---- -------<br>--- --- -- ----- -- --- ---- -- --- ---- -- ------ ------<br>--- ----- -- ----,168598,168579,168204.44,168205,168205.04,168599.38,,20,is
screen,html.Screen,2_1_0_1_21,2022-02-01T14:50:10.029Z,,,,,,,,,,,,,,,,,53,,,,,,,,,,,,,,354.61999999999534,,response,,,,99,,,,,,,Space,keypress(Space),,,,,,,,---- -- ----- -- ------ - ------- --- ----------<br>------------- ------ ------ ---- ---- ------- ----- -- ----<br>-------- ------- -- paramount. --- - --- ----- ----- ----<br>---- --- --- ----- --- ---- ---- ------- ----- ---- -------<br>--- --- -- ----- -- --- ---- -- --- ---- -- ------ ------<br>--- ----- -- ----,168968,168954,168598.88,168599,168599.38,168968.82,,21,paramount.
screen,html.Screen,2_1_0_1_22,2022-02-01T14:50:10.724Z,,,,,,,,,,,,,,,,,53,,,,,,,,,,,,,,689.179999999993,,response,,,,99,,,,,,,Space,keypress(Space),,,,,,,,---- -- ----- -- ------ - ------- --- ----------<br>------------- ------ ------ ---- ---- ------- ----- -- ----<br>-------- ------- -- ---------- But - --- ----- ----- ----<br>---- --- --- ----- --- ---- ---- ------- ----- ---- -------<br>--- --- -- ----- -- --- ---- -- --- ---- -- ------ ------<br>--- ----- -- ----,169664,169658,168968.34,168968,168968.82,169665.02,,22,But
screen,html.Screen,2_1_0_1_23,2022-02-01T14:50:10.994Z,,,,,,,,,,,,,,,,,53,,,,,,,,,,,,,,257.9800000000105,,response,,,,99,,,,,,,Space,keypress(Space),,,,,,,,---- -- ----- -- ------ - ------- --- ----------<br>------------- ------ ------ ---- ---- ------- ----- -- ----<br>-------- ------- -- ---------- --- a --- ----- ----- ----<br>---- --- --- ----- --- ---- ---- ------- ----- ---- -------<br>--- --- -- ----- -- --- ---- -- --- ---- -- ------ ------<br>--- ----- -- ----,169934,169923,169664.54,169664,169665.02,169934.86,,23,a
screen,html.Screen,2_1_0_1_24,2022-02-01T14:50:11.347Z,,,,,,,,,,,,,,,,,53,,,,,,,,,,,,,,332.14000000001397,,response,,,,99,,,,,,,Space,keypress(Space),,,,,,,,---- -- ----- -- ------ - ------- --- ----------<br>------------- ------ ------ ---- ---- ------- ----- -- ----<br>-------- ------- -- ---------- --- - new ----- ----- ----<br>---- --- --- ----- --- ---- ---- ------- ----- ---- -------<br>--- --- -- ----- -- --- ---- -- --- ---- -- ------ ------<br>--- ----- -- ----,170287,170267,169934.28,169934,169934.86,170287.7,,24,new
screen,html.Screen,2_1_0_1_25,2022-02-01T14:50:11.722Z,,,,,,,,,,,,,,,,,53,,,,,,,,,,,,,,355.29999999998836,,response,,,,99,,,,,,,Space,keypress(Space),,,,,,,,---- -- ----- -- ------ - ------- --- ----------<br>------------- ------ ------ ---- ---- ------- ----- -- ----<br>-------- ------- -- ---------- --- - --- study ----- ----<br>---- --- --- ----- --- ---- ---- ------- ----- ---- -------<br>--- --- -- ----- -- --- ---- -- --- ---- -- ------ ------<br>--- ----- -- ----,170661,170643,170287.16,170287,170287.7,170663.08,,25,study
screen,html.Screen,2_1_0_1_26,2022-02-01T14:50:11.998Z,,,,,,,,,,,,,,,,,53,,,,,,,,,,,,,,260.9200000000128,,response,,,,99,,,,,,,Space,keypress(Space),,,,,,,,---- -- ----- -- ------ - ------- --- ----------<br>------------- ------ ------ ---- ---- ------- ----- -- ----<br>-------- ------- -- ---------- --- - --- ----- finds ----<br>---- --- --- ----- --- ---- ---- ------- ----- ---- -------<br>--- --- -- ----- -- --- ---- -- --- ---- -- ------ ------<br>--- ----- -- ----,170937,170924,170662.56,170663,170663.08,170937.88,,26,finds
screen,html.Screen,2_1_0_1_27,2022-02-01T14:50:12.553Z,,,,,,,,,,,,,,,,,53,,,,,,,,,,,,,,548.1199999999953,,response,,,,99,,,,,,,Space,keypress(Space),,,,,,,,---- -- ----- -- ------ - ------- --- ----------<br>------------- ------ ------ ---- ---- ------- ----- -- ----<br>-------- ------- -- ---------- --- - --- ----- ----- that<br>---- --- --- ----- --- ---- ---- ------- ----- ---- -------<br>--- --- -- ----- -- --- ---- -- --- ---- -- ------ ------<br>--- ----- -- ----,171492,171486,170937.32,170937,170937.88,171493.74,,27,that
screen,html.Screen,2_1_0_1_28,2022-02-01T14:50:13.196Z,,,,,,,,,,,,,,,,,53,,,,,,,,,,,,,,632.2600000000093,,response,,,,99,,,,,,,Space,keypress(Space),,,,,,,,---- -- ----- -- ------ - ------- --- ----------<br>------------- ------ ------ ---- ---- ------- ----- -- ----<br>-------- ------- -- ---------- --- - --- ----- ----- ----<br>it's --- --- ----- --- ---- ---- ------- ----- ---- -------<br>--- --- -- ----- -- --- ---- -- --- ---- -- ------ ------<br>--- ----- -- ----,172135,172126,171493.12,171493,171493.74,172136.34,,28,it's
screen,html.Screen,2_1_0_1_29,2022-02-01T14:50:13.469Z,,,,,,,,,,,,,,,,,53,,,,,,,,,,,,,,256.6600000000035,,response,,,,99,,,,,,,Space,keypress(Space),,,,,,,,---- -- ----- -- ------ - ------- --- ----------<br>------------- ------ ------ ---- ---- ------- ----- -- ----<br>-------- ------- -- ---------- --- - --- ----- ----- ----<br>---- not --- ----- --- ---- ---- ------- ----- ---- -------<br>--- --- -- ----- -- --- ---- -- --- ---- -- ------ ------<br>--- ----- -- ----,172409,172393,172135.88,172136,172136.34,172409.52,,29,not
screen,html.Screen,2_1_0_1_30,2022-02-01T14:50:13.845Z,,,,,,,,,,,,,,,,,53,,,,,,,,,,,,,,357.4800000000105,,response,,,,99,,,,,,,Space,keypress(Space),,,,,,,,---- -- ----- -- ------ - ------- --- ----------<br>------------- ------ ------ ---- ---- ------- ----- -- ----<br>-------- ------- -- ---------- --- - --- ----- ----- ----<br>---- --- how ----- --- ---- ---- ------- ----- ---- -------<br>--- --- -- ----- -- --- ---- -- --- ---- -- ------ ------<br>--- ----- -- ----,172785,172767,172409,172409,172409.52,172785.72,,30,how
screen,html.Screen,2_1_0_1_31,2022-02-01T14:50:14.257Z,,,,,,,,,,,,,,,,,53,,,,,,,,,,,,,,403.27999999999884,,response,,,,99,,,,,,,Space,keypress(Space),,,,,,,,---- -- ----- -- ------ - ------- --- ----------<br>------------- ------ ------ ---- ---- ------- ----- -- ----<br>-------- ------- -- ---------- --- - --- ----- ----- ----<br>---- --- --- close --- ---- ---- ------- ----- ---- -------<br>--- --- -- ----- -- --- ---- -- --- ---- -- ------ ------<br>--- ----- -- ----,173197,173189,172785.12,172785,172785.72,173197.6,,31,close
screen,html.Screen,2_1_0_1_32,2022-02-01T14:50:14.499Z,,,,,,,,,,,,,,,,,53,,,,,,,,,,,,,,225.39999999999418,,response,,,,99,,,,,,,Space,keypress(Space),,,,,,,,---- -- ----- -- ------ - ------- --- ----------<br>------------- ------ ------ ---- ---- ------- ----- -- ----<br>-------- ------- -- ---------- --- - --- ----- ----- ----<br>---- --- --- ----- you ---- ---- ------- ----- ---- -------<br>--- --- -- ----- -- --- ---- -- --- ---- -- ------ ------<br>--- ----- -- ----,173440,173423,173197.04,173197,173197.6,173440.16,,32,you
screen,html.Screen,2_1_0_1_33,2022-02-01T14:50:14.711Z,,,,,,,,,,,,,,,,,53,,,,,,,,,,,,,,202.8399999999965,,response,,,,99,,,,,,,Space,keypress(Space),,,,,,,,---- -- ----- -- ------ - ------- --- ----------<br>------------- ------ ------ ---- ---- ------- ----- -- ----<br>-------- ------- -- ---------- --- - --- ----- ----- ----<br>---- --- --- ----- --- feel ---- ------- ----- ---- -------<br>--- --- -- ----- -- --- ---- -- --- ---- -- ------ ------<br>--- ----- -- ----,173651,173643,173439.58,173440,173440.16,173651.82,,33,feel
screen,html.Screen,2_1_0_1_34,2022-02-01T14:50:15.305Z,,,,,,,,,,,,,,,,,53,,,,,,,,,,,,,,585.179999999993,,response,,,,99,,,,,,,Space,keypress(Space),,,,,,,,---- -- ----- -- ------ - ------- --- ----------<br>------------- ------ ------ ---- ---- ------- ----- -- ----<br>-------- ------- -- ---------- --- - --- ----- ----- ----<br>---- --- --- ----- --- ---- that ------- ----- ---- -------<br>--- --- -- ----- -- --- ---- -- --- ---- -- ------ ------<br>--- ----- -- ----,174245,174237,173651.24,173651,173651.82,174246.02,,34,that
screen,html.Screen,2_1_0_1_35,2022-02-01T14:50:15.884Z,,,,,,,,,,,,,,,,,53,,,,,,,,,,,,,,567.9800000000105,,response,,,,99,,,,,,,Space,keypress(Space),,,,,,,,---- -- ----- -- ------ - ------- --- ----------<br>------------- ------ ------ ---- ---- ------- ----- -- ----<br>-------- ------- -- ---------- --- - --- ----- ----- ----<br>---- --- --- ----- --- ---- ---- matters ----- ---- -------<br>--- --- -- ----- -- --- ---- -- --- ---- -- ------ ------<br>--- ----- -- ----,174824,174814,174245.42,174246,174246.02,174824.22,,35,matters
screen,html.Screen,2_1_0_1_36,2022-02-01T14:50:16.447Z,,,,,,,,,,,,,,,,,53,,,,,,,,,,,,,,551.7799999999988,,response,,,,99,,,,,,,Space,keypress(Space),,,,,,,,"---- -- ----- -- ------ - ------- --- ----------<br>------------- ------ ------ ---- ---- ------- ----- -- ----<br>-------- ------- -- ---------- --- - --- ----- ----- ----<br>---- --- --- ----- --- ---- ---- ------- most, ---- -------<br>--- --- -- ----- -- --- ---- -- --- ---- -- ------ ------<br>--- ----- -- ----",175387,175376,174823.64,174824,174824.22,175387.78,,36,"most,"
screen,html.Screen,2_1_0_1_37,2022-02-01T14:50:16.787Z,,,,,,,,,,,,,,,,,53,,,,,,,,,,,,,,332.22000000000116,,response,,,,99,,,,,,,Space,keypress(Space),,,,,,,,---- -- ----- -- ------ - ------- --- ----------<br>------------- ------ ------ ---- ---- ------- ----- -- ----<br>-------- ------- -- ---------- --- - --- ----- ----- ----<br>---- --- --- ----- --- ---- ---- ------- ----- it's -------<br>--- --- -- ----- -- --- ---- -- --- ---- -- ------ ------<br>--- ----- -- ----,175727,175720,175387.26,175387,175387.78,175728.44,,37,it's
screen,html.Screen,2_1_0_1_38,2022-02-01T14:50:17.271Z,,,,,,,,,,,,,,,,,53,,,,,,,,,,,,,,475.5599999999977,,response,,,,99,,,,,,,Space,keypress(Space),,,,,,,,---- -- ----- -- ------ - ------- --- ----------<br>------------- ------ ------ ---- ---- ------- ----- -- ----<br>-------- ------- -- ---------- --- - --- ----- ----- ----<br>---- --- --- ----- --- ---- ---- ------- ----- ---- whether<br>--- --- -- ----- -- --- ---- -- --- ---- -- ------ ------<br>--- ----- -- ----,176211,176204,175726.88,175727,175728.44,176211.96,,38,whether
screen,html.Screen,2_1_0_1_39,2022-02-01T14:50:17.610Z,,,,,,,,,,,,,,,,,53,,,,,,,,,,,,,,321.04000000000815,,response,,,,99,,,,,,,Space,keypress(Space),,,,,,,,---- -- ----- -- ------ - ------- --- ----------<br>------------- ------ ------ ---- ---- ------- ----- -- ----<br>-------- ------- -- ---------- --- - --- ----- ----- ----<br>---- --- --- ----- --- ---- ---- ------- ----- ---- -------<br>you --- -- ----- -- --- ---- -- --- ---- -- ------ ------<br>--- ----- -- ----,176550,176533,176211.38,176211,176211.96,176550.8,,39,you
screen,html.Screen,2_1_0_1_40,2022-02-01T14:50:18.130Z,,,,,,,,,,,,,,,,,53,,,,,,,,,,,,,,513.2000000000116,,response,,,,99,,,,,,,Space,keypress(Space),,,,,,,,---- -- ----- -- ------ - ------- --- ----------<br>------------- ------ ------ ---- ---- ------- ----- -- ----<br>-------- ------- -- ---------- --- - --- ----- ----- ----<br>---- --- --- ----- --- ---- ---- ------- ----- ---- -------<br>--- are -- ----- -- --- ---- -- --- ---- -- ------ ------<br>--- ----- -- ----,177070,177064,176550.26,176550,176550.8,177070.82,,40,are
screen,html.Screen,2_1_0_1_41,2022-02-01T14:50:18.599Z,,,,,,,,,,,,,,,,,53,,,,,,,,,,,,,,462.179999999993,,response,,,,99,,,,,,,Space,keypress(Space),,,,,,,,---- -- ----- -- ------ - ------- --- ----------<br>------------- ------ ------ ---- ---- ------- ----- -- ----<br>-------- ------- -- ---------- --- - --- ----- ----- ----<br>---- --- --- ----- --- ---- ---- ------- ----- ---- -------<br>--- --- as ----- -- --- ---- -- --- ---- -- ------ ------<br>--- ----- -- ----,177539,177533,177070.36,177070,177070.82,177539.76,,41,as
screen,html.Screen,2_1_0_1_42,2022-02-01T14:50:19.078Z,,,,,,,,,,,,,,,,,53,,,,,,,,,,,,,,462.2399999999907,,response,,,,99,,,,,,,Space,keypress(Space),,,,,,,,---- -- ----- -- ------ - ------- --- ----------<br>------------- ------ ------ ---- ---- ------- ----- -- ----<br>-------- ------- -- ---------- --- - --- ----- ----- ----<br>---- --- --- ----- --- ---- ---- ------- ----- ---- -------<br>--- --- -- close -- --- ---- -- --- ---- -- ------ ------<br>--- ----- -- ----,178018,178002,177539.4,177539,177539.76,178018.66,,42,close
screen,html.Screen,2_1_0_1_43,2022-02-01T14:50:19.388Z,,,,,,,,,,,,,,,,,53,,,,,,,,,,,,,,295.3399999999965,,response,,,,99,,,,,,,Space,keypress(Space),,,,,,,,---- -- ----- -- ------ - ------- --- ----------<br>------------- ------ ------ ---- ---- ------- ----- -- ----<br>-------- ------- -- ---------- --- - --- ----- ----- ----<br>---- --- --- ----- --- ---- ---- ------- ----- ---- -------<br>--- --- -- ----- as --- ---- -- --- ---- -- ------ ------<br>--- ----- -- ----,178328,178314,178018.08,178018,178018.66,178329.3,,43,as
screen,html.Screen,2_1_0_1_44,2022-02-01T14:50:19.822Z,,,,,,,,,,,,,,,,,53,,,,,,,,,,,,,,422.70000000001164,,response,,,,99,,,,,,,Space,keypress(Space),,,,,,,,---- -- ----- -- ------ - ------- --- ----------<br>------------- ------ ------ ---- ---- ------- ----- -- ----<br>-------- ------- -- ---------- --- - --- ----- ----- ----<br>---- --- --- ----- --- ---- ---- ------- ----- ---- -------<br>--- --- -- ----- -- you ---- -- --- ---- -- ------ ------<br>--- ----- -- ----,178762,178752,178328.78,178328,178329.3,178763.04,,44,you
screen,html.Screen,2_1_0_1_45,2022-02-01T14:50:20.216Z,,,,,,,,,,,,,,,,,53,,,,,,,,,,,,,,378.95999999999185,,response,,,,99,,,,,,,Space,keypress(Space),,,,,,,,---- -- ----- -- ------ - ------- --- ----------<br>------------- ------ ------ ---- ---- ------- ----- -- ----<br>-------- ------- -- ---------- --- - --- ----- ----- ----<br>---- --- --- ----- --- ---- ---- ------- ----- ---- -------<br>--- --- -- ----- -- --- want -- --- ---- -- ------ ------<br>--- ----- -- ----,179155,179142,178762.46,178762,178763.04,179155.92,,45,want
screen,html.Screen,2_1_0_1_46,2022-02-01T14:50:20.450Z,,,,,,,,,,,,,,,,,53,,,,,,,,,,,,,,220.0799999999872,,response,,,,99,,,,,,,Space,keypress(Space),,,,,,,,---- -- ----- -- ------ - ------- --- ----------<br>------------- ------ ------ ---- ---- ------- ----- -- ----<br>-------- ------- -- ---------- --- - --- ----- ----- ----<br>---- --- --- ----- --- ---- ---- ------- ----- ---- -------<br>--- --- -- ----- -- --- ---- to --- ---- -- ------ ------<br>--- ----- -- ----,179390,179376,179155.36,179156,179155.92,179390.1,,46,to
screen,html.Screen,2_1_0_1_47,2022-02-01T14:50:21.065Z,,,,,,,,,,,,,,,,,53,,,,,,,,,,,,,,595.8999999999942,,response,,,,99,,,,,,,Space,keypress(Space),,,,,,,,"---- -- ----- -- ------ - ------- --- ----------<br>------------- ------ ------ ---- ---- ------- ----- -- ----<br>-------- ------- -- ---------- --- - --- ----- ----- ----<br>---- --- --- ----- --- ---- ---- ------- ----- ---- -------<br>--- --- -- ----- -- --- ---- -- be, ---- -- ------ ------<br>--- ----- -- ----",180005,179986,179389.56,179390,179390.1,180005.32,,47,"be,"
screen,html.Screen,2_1_0_1_48,2022-02-01T14:50:21.618Z,,,,,,,,,,,,,,,,,53,,,,,,,,,,,,,,542.679999999993,,response,,,,99,,,,,,,Space,keypress(Space),,,,,,,,---- -- ----- -- ------ - ------- --- ----------<br>------------- ------ ------ ---- ---- ------- ----- -- ----<br>-------- ------- -- ---------- --- - --- ----- ----- ----<br>---- --- --- ----- --- ---- ---- ------- ----- ---- -------<br>--- --- -- ----- -- --- ---- -- --- even -- ------ ------<br>--- ----- -- ----,180557,180548,180004.74,180005,180005.32,180558.26,,48,even
screen,html.Screen,2_1_0_1_49,2022-02-01T14:50:22.060Z,,,,,,,,,,,,,,,,,53,,,,,,,,,,,,,,428.7399999999907,,response,,,,99,,,,,,,Space,keypress(Space),,,,,,,,---- -- ----- -- ------ - ------- --- ----------<br>------------- ------ ------ ---- ---- ------- ----- -- ----<br>-------- ------- -- ---------- --- - --- ----- ----- ----<br>---- --- --- ----- --- ---- ---- ------- ----- ---- -------<br>--- --- -- ----- -- --- ---- -- --- ---- if ------ ------<br>--- ----- -- ----,181000,180987,180557.7,180557,180558.26,181000.72,,49,if
screen,html.Screen,2_1_0_1_50,2022-02-01T14:50:22.396Z,,,,,,,,,,,,,,,,,53,,,,,,,,,,,,,,328.27999999999884,,response,,,,99,,,,,,,Space,keypress(Space),,,,,,,,---- -- ----- -- ------ - ------- --- ----------<br>------------- ------ ------ ---- ---- ------- ----- -- ----<br>-------- ------- -- ---------- --- - --- ----- ----- ----<br>---- --- --- ----- --- ---- ---- ------- ----- ---- -------<br>--- --- -- ----- -- --- ---- -- --- ---- -- that's ------<br>--- ----- -- ----,181337,181329,181000.12,181000,181000.72,181337.36,,50,that's
screen,html.Screen,2_1_0_1_51,2022-02-01T14:50:22.919Z,,,,,,,,,,,,,,,,,53,,,,,,,,,,,,,,507.64000000001397,,response,,,,99,,,,,,,Space,keypress(Space),,,,,,,,---- -- ----- -- ------ - ------- --- ----------<br>------------- ------ ------ ---- ---- ------- ----- -- ----<br>-------- ------- -- ---------- --- - --- ----- ----- ----<br>---- --- --- ----- --- ---- ---- ------- ----- ---- -------<br>--- --- -- ----- -- --- ---- -- --- ---- -- ------ really<br>--- ----- -- ----,181859,181845,181336.86,181337,181337.36,181859.44,,51,really
screen,html.Screen,2_1_0_1_52,2022-02-01T14:50:23.435Z,,,,,,,,,,,,,,,,,53,,,,,,,,,,,,,,501.5599999999977,,response,,,,99,,,,,,,Space,keypress(Space),,,,,,,,---- -- ----- -- ------ - ------- --- ----------<br>------------- ------ ------ ---- ---- ------- ----- -- ----<br>-------- ------- -- ---------- --- - --- ----- ----- ----<br>---- --- --- ----- --- ---- ---- ------- ----- ---- -------<br>--- --- -- ----- -- --- ---- -- --- ---- -- ------ ------<br>not ----- -- ----,182374,182361,181858.88,181859,181859.44,182375.46,,52,not
screen,html.Screen,2_1_0_1_53,2022-02-01T14:50:24.012Z,,,,,,,,,,,,,,,,,53,,,,,,,,,,,,,,564.5400000000081,,response,,,,99,,,,,,,Space,keypress(Space),,,,,,,,---- -- ----- -- ------ - ------- --- ----------<br>------------- ------ ------ ---- ---- ------- ----- -- ----<br>-------- ------- -- ---------- --- - --- ----- ----- ----<br>---- --- --- ----- --- ---- ---- ------- ----- ---- -------<br>--- --- -- ----- -- --- ---- -- --- ---- -- ------ ------<br>--- close -- ----,182952,182940,182374.86,182374,182375.46,182953.46,,53,close
screen,html.Screen,2_1_0_1_54,2022-02-01T14:50:24.385Z,,,,,,,,,,,,,,,,,53,,,,,,,,,,,,,,360.54000000000815,,response,,,,99,,,,,,,Space,keypress(Space),,,,,,,,---- -- ----- -- ------ - ------- --- ----------<br>------------- ------ ------ ---- ---- ------- ----- -- ----<br>-------- ------- -- ---------- --- - --- ----- ----- ----<br>---- --- --- ----- --- ---- ---- ------- ----- ---- -------<br>--- --- -- ----- -- --- ---- -- --- ---- -- ------ ------<br>--- ----- at ----,183325,183314,182952.84,182952,182953.46,183325.7,,54,at
screen,html.Screen,2_1_0_1_55,2022-02-01T14:50:24.851Z,,,,,,,,,,,,,,,,,53,,,,,,,,,,,,,,457.29999999998836,,response,,,,99,,,,,,,Space,keypress(Space),,,,,,,,---- -- ----- -- ------ - ------- --- ----------<br>------------- ------ ------ ---- ---- ------- ----- -- ----<br>-------- ------- -- ---------- --- - --- ----- ----- ----<br>---- --- --- ----- --- ---- ---- ------- ----- ---- -------<br>--- --- -- ----- -- --- ---- -- --- ---- -- ------ ------<br>--- ----- -- all.,183791,183783,183325.18,183325,183325.7,183792.68,,55,all.
Item 99,flow.Loop,2_1_0_1,2022-02-01T14:50:24.852Z,,,,,,,,,,,,,,,,,,,,,,,,,,,,,,,25327.79999999999,,completion,,,,,A,,,,,,,,,,,silence,,,,,183792,183783,158438.54,158440,158455.2,183792.68,,,
Question 1,html.Screen,2_1_0_2,2022-02-01T14:50:29.243Z,,,,,,,,,,,,,,,,,,,,,,,,,,,,true,FALSE,,4381.320000000007,,response,,,,99,A,,,,,,FALSE,click #choice-2,,,,silence,,,,,188183,188174,183792.08,183792,183792.68,188183.18,,,
Question 2,html.Screen,2_1_0_3,2022-02-01T14:50:35.402Z,,,,,,,,,,,,,,,,,,,,,,,,,,,,true,TRUE,,6145.820000000007,,response,,,,99,A,,,,,,TRUE,click #choice-1,,,,silence,,,,,194342,194329,188181.32,188183,188183.18,194352.22,,,
Item 99,flow.Sequence,2_1_0,2022-02-01T14:50:35.403Z,,,,,,,,,,,,,,,,,,,,,,,,,,,,,,,45877.5,,completion,,,,,,,,,,,,,,,,,,,,,194343,194329,148437.72,148442,148451.5,194352.22,,,
Holding screen,html.Screen,2_1_1_0,2022-02-01T14:50:45.401Z,,,,,,,,,,,,,,,,,,,,,,,,,,,,,,,10003.720000000001,,timeout,,,,,,,,,,,,,,,,,,,,,204341,204339.26,194341.2,194343,194352.22,204355.94,,,
screen,html.Screen,2_1_1_1_0,2022-02-01T14:50:46.133Z,,,,,,,,,,,,,,,,,54,,,,,,,,,,,,,,708.0599999999977,,response,,,,100,,,,,,,Space,keypress(Space),,,,,,,,At --- ---- --- ------ ----- ------- ---- -- --- ------- --<br>------- ---------- ------ -- ----- -- ----- -- ---- ------<br>--- ----- --- --- ------ -------- ----- --- ------ ----- --<br>----- ----- ---------- --- --- ------ ------ ---- -- ------<br>------- --- ------ ----- --- ---- ------- -- ---- --- --<br>------- ------,205072,205064,204339.26,204341,204355.94,205073.64,,0,At
screen,html.Screen,2_1_1_1_1,2022-02-01T14:50:46.707Z,,,,,,,,,,,,,,,,,54,,,,,,,,,,,,,,568.359999999986,,response,,,,100,,,,,,,Space,keypress(Space),,,,,,,,-- the ---- --- ------ ----- ------- ---- -- --- ------- --<br>------- ---------- ------ -- ----- -- ----- -- ---- ------<br>--- ----- --- --- ------ -------- ----- --- ------ ----- --<br>----- ----- ---------- --- --- ------ ------ ---- -- ------<br>------- --- ------ ----- --- ---- ------- -- ---- --- --<br>------- ------,205647,205642,205073.04,205073,205073.64,205647.86,,1,the
screen,html.Screen,2_1_1_1_2,2022-02-01T14:50:46.938Z,,,,,,,,,,,,,,,,,54,,,,,,,,,,,,,,214.14000000001397,,response,,,,100,,,,,,,Space,keypress(Space),,,,,,,,-- --- time --- ------ ----- ------- ---- -- --- ------- --<br>------- ---------- ------ -- ----- -- ----- -- ---- ------<br>--- ----- --- --- ------ -------- ----- --- ------ ----- --<br>----- ----- ---------- --- --- ------ ------ ---- -- ------<br>------- --- ------ ----- --- ---- ------- -- ---- --- --<br>------- ------,205878,205862,205647.28,205647,205647.86,205878.96,,2,time
screen,html.Screen,2_1_1_1_3,2022-02-01T14:50:47.441Z,,,,,,,,,,,,,,,,,54,,,,,,,,,,,,,,498.04000000000815,,response,,,,100,,,,,,,Space,keypress(Space),,,,,,,,-- --- ---- the ------ ----- ------- ---- -- --- ------- --<br>------- ---------- ------ -- ----- -- ----- -- ---- ------<br>--- ----- --- --- ------ -------- ----- --- ------ ----- --<br>----- ----- ---------- --- --- ------ ------ ---- -- ------<br>------- --- ------ ----- --- ---- ------- -- ---- --- --<br>------- ------,206381,206377,205878.42,205879,205878.96,206381.9,,3,the
screen,html.Screen,2_1_1_1_4,2022-02-01T14:50:47.827Z,,,,,,,,,,,,,,,,,54,,,,,,,,,,,,,,369.1000000000058,,response,,,,100,,,,,,,Space,keypress(Space),,,,,,,,-- --- ---- --- French ----- ------- ---- -- --- ------- --<br>------- ---------- ------ -- ----- -- ----- -- ---- ------<br>--- ----- --- --- ------ -------- ----- --- ------ ----- --<br>----- ----- ---------- --- --- ------ ------ ---- -- ------<br>------- --- ------ ----- --- ---- ------- -- ---- --- --<br>------- ------,206766,206751,206381.3,206382,206381.9,206767.12,,4,French
screen,html.Screen,2_1_1_1_5,2022-02-01T14:50:48.181Z,,,,,,,,,,,,,,,,,54,,,,,,,,,,,,,,343.88000000000466,,response,,,,100,,,,,,,Space,keypress(Space),,,,,,,,-- --- ---- --- ------ crown ------- ---- -- --- ------- --<br>------- ---------- ------ -- ----- -- ----- -- ---- ------<br>--- ----- --- --- ------ -------- ----- --- ------ ----- --<br>----- ----- ---------- --- --- ------ ------ ---- -- ------<br>------- --- ------ ----- --- ---- ------- -- ---- --- --<br>------- ------,207122,207111,206766.64,206766,206767.12,207122.42,,5,crown
screen,html.Screen,2_1_1_1_6,2022-02-01T14:50:48.547Z,,,,,,,,,,,,,,,,,54,,,,,,,,,,,,,,347.5799999999872,,response,,,,100,,,,,,,Space,keypress(Space),,,,,,,,-- --- ---- --- ------ ----- secured ---- -- --- ------- --<br>------- ---------- ------ -- ----- -- ----- -- ---- ------<br>--- ----- --- --- ------ -------- ----- --- ------ ----- --<br>----- ----- ---------- --- --- ------ ------ ---- -- ------<br>------- --- ------ ----- --- ---- ------- -- ---- --- --<br>------- ------,207487,207470,207121.82,207122,207122.42,207487.7,,6,secured
screen,html.Screen,2_1_1_1_7,2022-02-01T14:50:49.454Z,,,,,,,,,,,,,,,,,54,,,,,,,,,,,,,,889.2999999999884,,response,,,,100,,,,,,,Space,keypress(Space),,,,,,,,-- --- ---- --- ------ ----- ------- much -- --- ------- --<br>------- ---------- ------ -- ----- -- ----- -- ---- ------<br>--- ----- --- --- ------ -------- ----- --- ------ ----- --<br>----- ----- ---------- --- --- ------ ------ ---- -- ------<br>------- --- ------ ----- --- ---- ------- -- ---- --- --<br>------- ------,208394,208377,207487.4,207488,207487.7,208394.46,,7,much
screen,html.Screen,2_1_1_1_8,2022-02-01T14:50:49.848Z,,,,,,,,,,,,,,,,,54,,,,,,,,,,,,,,388.54000000000815,,response,,,,100,,,,,,,Space,keypress(Space),,,,,,,,-- --- ---- --- ------ ----- ------- ---- of --- ------- --<br>------- ---------- ------ -- ----- -- ----- -- ---- ------<br>--- ----- --- --- ------ -------- ----- --- ------ ----- --<br>----- ----- ---------- --- --- ------ ------ ---- -- ------<br>------- --- ------ ----- --- ---- ------- -- ---- --- --<br>------- ------,208788,208783,208393.86,208394,208394.46,208789,,8,of
screen,html.Screen,2_1_1_1_9,2022-02-01T14:50:50.110Z,,,,,,,,,,,,,,,,,54,,,,,,,,,,,,,,244,,response,,,,100,,,,,,,Space,keypress(Space),,,,,,,,-- --- ---- --- ------ ----- ------- ---- -- its ------- --<br>------- ---------- ------ -- ----- -- ----- -- ---- ------<br>--- ----- --- --- ------ -------- ----- --- ------ ----- --<br>----- ----- ---------- --- --- ------ ------ ---- -- ------<br>------- --- ------ ----- --- ---- ------- -- ---- --- --<br>------- ------,209050,209033,208788.42,208788,208789,209050.22,,9,its
screen,html.Screen,2_1_1_1_10,2022-02-01T14:50:50.576Z,,,,,,,,,,,,,,,,,54,,,,,,,,,,,,,,451.77999999999884,,response,,,,100,,,,,,,Space,keypress(Space),,,,,,,,-- --- ---- --- ------ ----- ------- ---- -- --- revenue --<br>------- ---------- ------ -- ----- -- ----- -- ---- ------<br>--- ----- --- --- ------ -------- ----- --- ------ ----- --<br>----- ----- ---------- --- --- ------ ------ ---- -- ------<br>------- --- ------ ----- --- ---- ------- -- ---- --- --<br>------- ------,209516,209502,209049.88,209050,209050.22,209516.72,,10,revenue
screen,html.Screen,2_1_1_1_11,2022-02-01T14:50:50.957Z,,,,,,,,,,,,,,,,,54,,,,,,,,,,,,,,375.27999999999884,,response,,,,100,,,,,,,Space,keypress(Space),,,,,,,,-- --- ---- --- ------ ----- ------- ---- -- --- ------- by<br>------- ---------- ------ -- ----- -- ----- -- ---- ------<br>--- ----- --- --- ------ -------- ----- --- ------ ----- --<br>----- ----- ---------- --- --- ------ ------ ---- -- ------<br>------- --- ------ ----- --- ---- ------- -- ---- --- --<br>------- ------,209897,209892,209515.9,209516,209516.72,209897.84,,11,by
screen,html.Screen,2_1_1_1_12,2022-02-01T14:50:51.463Z,,,,,,,,,,,,,,,,,54,,,,,,,,,,,,,,494.1600000000035,,response,,,,100,,,,,,,Space,keypress(Space),,,,,,,,-- --- ---- --- ------ ----- ------- ---- -- --- ------- --<br>issuing ---------- ------ -- ----- -- ----- -- ---- ------<br>--- ----- --- --- ------ -------- ----- --- ------ ----- --<br>----- ----- ---------- --- --- ------ ------ ---- -- ------<br>------- --- ------ ----- --- ---- ------- -- ---- --- --<br>------- ------,210403,210392,209897.28,209897,209897.84,210403.96,,12,issuing
screen,html.Screen,2_1_1_1_13,2022-02-01T14:50:52.029Z,,,,,,,,,,,,,,,,,54,,,,,,,,,,,,,,551.0400000000081,,response,,,,100,,,,,,,Space,keypress(Space),,,,,,,,-- --- ---- --- ------ ----- ------- ---- -- --- ------- --<br>------- government ------ -- ----- -- ----- -- ---- ------<br>--- ----- --- --- ------ -------- ----- --- ------ ----- --<br>----- ----- ---------- --- --- ------ ------ ---- -- ------<br>------- --- ------ ----- --- ---- ------- -- ---- --- --<br>------- ------,210969,210955,210403.38,210403,210403.96,210969.82,,13,government
screen,html.Screen,2_1_1_1_14,2022-02-01T14:50:52.574Z,,,,,,,,,,,,,,,,,54,,,,,,,,,,,,,,531.179999999993,,response,,,,100,,,,,,,Space,keypress(Space),,,,,,,,-- --- ---- --- ------ ----- ------- ---- -- --- ------- --<br>------- ---------- bonds. -- ----- -- ----- -- ---- ------<br>--- ----- --- --- ------ -------- ----- --- ------ ----- --<br>----- ----- ---------- --- --- ------ ------ ---- -- ------<br>------- --- ------ ----- --- ---- ------- -- ---- --- --<br>------- ------,211514,211501,210969.26,210969,210969.82,211514.68,,14,bonds.
screen,html.Screen,2_1_1_1_15,2022-02-01T14:50:53.080Z,,,,,,,,,,,,,,,,,54,,,,,,,,,,,,,,503.320000000007,,response,,,,100,,,,,,,Space,keypress(Space),,,,,,,,-- --- ---- --- ------ ----- ------- ---- -- --- ------- --<br>------- ---------- ------ In ----- -- ----- -- ---- ------<br>--- ----- --- --- ------ -------- ----- --- ------ ----- --<br>----- ----- ---------- --- --- ------ ------ ---- -- ------<br>------- --- ------ ----- --- ---- ------- -- ---- --- --<br>------- ------,212020,212018,211514.12,211514,211514.68,212020.9,,15,In
screen,html.Screen,2_1_1_1_16,2022-02-01T14:50:53.400Z,,,,,,,,,,,,,,,,,54,,,,,,,,,,,,,,308.1000000000058,,response,,,,100,,,,,,,Space,keypress(Space),,,,,,,,"-- --- ---- --- ------ ----- ------- ---- -- --- ------- --<br>------- ---------- ------ -- 1727, -- ----- -- ---- ------<br>--- ----- --- --- ------ -------- ----- --- ------ ----- --<br>----- ----- ---------- --- --- ------ ------ ---- -- ------<br>------- --- ------ ----- --- ---- ------- -- ---- --- --<br>------- ------",212340,212329,212020.3,212020,212020.9,212341.02,,16,"1727,"
screen,html.Screen,2_1_1_1_17,2022-02-01T14:50:54.195Z,,,,,,,,,,,,,,,,,54,,,,,,,,,,,,,,785.9800000000105,,response,,,,100,,,,,,,Space,keypress(Space),,,,,,,,-- --- ---- --- ------ ----- ------- ---- -- --- ------- --<br>------- ---------- ------ -- ----- in ----- -- ---- ------<br>--- ----- --- --- ------ -------- ----- --- ------ ----- --<br>----- ----- ---------- --- --- ------ ------ ---- -- ------<br>------- --- ------ ----- --- ---- ------- -- ---- --- --<br>------- ------,213135,213127,212340.52,212340,212341.02,213135.7,,17,in
screen,html.Screen,2_1_1_1_18,2022-02-01T14:50:54.511Z,,,,,,,,,,,,,,,,,54,,,,,,,,,,,,,,304.29999999998836,,response,,,,100,,,,,,,Space,keypress(Space),,,,,,,,-- --- ---- --- ------ ----- ------- ---- -- --- ------- --<br>------- ---------- ------ -- ----- -- order -- ---- ------<br>--- ----- --- --- ------ -------- ----- --- ------ ----- --<br>----- ----- ---------- --- --- ------ ------ ---- -- ------<br>------- --- ------ ----- --- ---- ------- -- ---- --- --<br>------- ------,213451,213440,213135.12,213135,213135.7,213452.28,,18,order
screen,html.Screen,2_1_1_1_19,2022-02-01T14:50:54.895Z,,,,,,,,,,,,,,,,,54,,,,,,,,,,,,,,376.72000000000116,,response,,,,100,,,,,,,Space,keypress(Space),,,,,,,,-- --- ---- --- ------ ----- ------- ---- -- --- ------- --<br>------- ---------- ------ -- ----- -- ----- to ---- ------<br>--- ----- --- --- ------ -------- ----- --- ------ ----- --<br>----- ----- ---------- --- --- ------ ------ ---- -- ------<br>------- --- ------ ----- --- ---- ------- -- ---- --- --<br>------- ------,213835,213829,213451.7,213452,213452.28,213835.86,,19,to
screen,html.Screen,2_1_1_1_20,2022-02-01T14:50:55.112Z,,,,,,,,,,,,,,,,,54,,,,,,,,,,,,,,198.14000000001397,,response,,,,100,,,,,,,Space,keypress(Space),,,,,,,,-- --- ---- --- ------ ----- ------- ---- -- --- ------- --<br>------- ---------- ------ -- ----- -- ----- -- save ------<br>--- ----- --- --- ------ -------- ----- --- ------ ----- --<br>----- ----- ---------- --- --- ------ ------ ---- -- ------<br>------- --- ------ ----- --- ---- ------- -- ---- --- --<br>------- ------,214052,214034,213835.28,213835,213835.86,214052.34,,20,save
screen,html.Screen,2_1_1_1_21,2022-02-01T14:50:55.707Z,,,,,,,,,,,,,,,,,54,,,,,,,,,,,,,,590.6600000000035,,response,,,,100,,,,,,,Space,keypress(Space),,,,,,,,"-- --- ---- --- ------ ----- ------- ---- -- --- ------- --<br>------- ---------- ------ -- ----- -- ----- -- ---- money,<br>--- ----- --- --- ------ -------- ----- --- ------ ----- --<br>----- ----- ---------- --- --- ------ ------ ---- -- ------<br>------- --- ------ ----- --- ---- ------- -- ---- --- --<br>------- ------",214647,214643,214052,214052,214052.34,214648.2,,21,"money,"
screen,html.Screen,2_1_1_1_22,2022-02-01T14:50:56.389Z,,,,,,,,,,,,,,,,,54,,,,,,,,,,,,,,666.7999999999884,,response,,,,100,,,,,,,Space,keypress(Space),,,,,,,,-- --- ---- --- ------ ----- ------- ---- -- --- ------- --<br>------- ---------- ------ -- ----- -- ----- -- ---- ------<br>the ----- --- --- ------ -------- ----- --- ------ ----- --<br>----- ----- ---------- --- --- ------ ------ ---- -- ------<br>------- --- ------ ----- --- ---- ------- -- ---- --- --<br>------- ------,215329,215315,214647.62,214648,214648.2,215330.5,,22,the
screen,html.Screen,2_1_1_1_23,2022-02-01T14:50:57.091Z,,,,,,,,,,,,,,,,,54,,,,,,,,,,,,,,686.5,,response,,,,100,,,,,,,Space,keypress(Space),,,,,,,,-- --- ---- --- ------ ----- ------- ---- -- --- ------- --<br>------- ---------- ------ -- ----- -- ----- -- ---- ------<br>--- state --- --- ------ -------- ----- --- ------ ----- --<br>----- ----- ---------- --- --- ------ ------ ---- -- ------<br>------- --- ------ ----- --- ---- ------- -- ---- --- --<br>------- ------,216032,216017,215329.92,215330,215330.5,216033.3,,23,state
screen,html.Screen,2_1_1_1_24,2022-02-01T14:50:57.368Z,,,,,,,,,,,,,,,,,54,,,,,,,,,,,,,,265.70000000001164,,response,,,,100,,,,,,,Space,keypress(Space),,,,,,,,-- --- ---- --- ------ ----- ------- ---- -- --- ------- --<br>------- ---------- ------ -- ----- -- ----- -- ---- ------<br>--- ----- cut --- ------ -------- ----- --- ------ ----- --<br>----- ----- ---------- --- --- ------ ------ ---- -- ------<br>------- --- ------ ----- --- ---- ------- -- ---- --- --<br>------- ------,216308,216299,216032.74,216032,216033.3,216308.72,,24,cut
screen,html.Screen,2_1_1_1_25,2022-02-01T14:50:57.836Z,,,,,,,,,,,,,,,,,54,,,,,,,,,,,,,,459.27999999999884,,response,,,,100,,,,,,,Space,keypress(Space),,,,,,,,-- --- ---- --- ------ ----- ------- ---- -- --- ------- --<br>------- ---------- ------ -- ----- -- ----- -- ---- ------<br>--- ----- --- the ------ -------- ----- --- ------ ----- --<br>----- ----- ---------- --- --- ------ ------ ---- -- ------<br>------- --- ------ ----- --- ---- ------- -- ---- --- --<br>------- ------,216776,216768,216308.16,216308,216308.72,216777.02,,25,the
screen,html.Screen,2_1_1_1_26,2022-02-01T14:50:58.488Z,,,,,,,,,,,,,,,,,54,,,,,,,,,,,,,,646.9800000000105,,response,,,,100,,,,,,,Space,keypress(Space),,,,,,,,-- --- ---- --- ------ ----- ------- ---- -- --- ------- --<br>------- ---------- ------ -- ----- -- ----- -- ---- ------<br>--- ----- --- --- bonds' -------- ----- --- ------ ----- --<br>----- ----- ---------- --- --- ------ ------ ---- -- ------<br>------- --- ------ ----- --- ---- ------- -- ---- --- --<br>------- ------,217428,217424,216776.5,216776,216777.02,217429.54,,26,bonds'
screen,html.Screen,2_1_1_1_27,2022-02-01T14:50:58.867Z,,,,,,,,,,,,,,,,,54,,,,,,,,,,,,,,368.45999999999185,,response,,,,100,,,,,,,Space,keypress(Space),,,,,,,,-- --- ---- --- ------ ----- ------- ---- -- --- ------- --<br>------- ---------- ------ -- ----- -- ----- -- ---- ------<br>--- ----- --- --- ------ interest ----- --- ------ ----- --<br>----- ----- ---------- --- --- ------ ------ ---- -- ------<br>------- --- ------ ----- --- ---- ------- -- ---- --- --<br>------- ------,217807,217798,217428.94,217428,217429.54,217808.38,,27,interest
screen,html.Screen,2_1_1_1_28,2022-02-01T14:50:59.540Z,,,,,,,,,,,,,,,,,54,,,,,,,,,,,,,,662.6199999999953,,response,,,,100,,,,,,,Space,keypress(Space),,,,,,,,-- --- ---- --- ------ ----- ------- ---- -- --- ------- --<br>------- ---------- ------ -- ----- -- ----- -- ---- ------<br>--- ----- --- --- ------ -------- rate. --- ------ ----- --<br>----- ----- ---------- --- --- ------ ------ ---- -- ------<br>------- --- ------ ----- --- ---- ------- -- ---- --- --<br>------- ------,218480,218471,217807.82,217808,217808.38,218480.6,,28,rate.
screen,html.Screen,2_1_1_1_29,2022-02-01T14:50:59.991Z,,,,,,,,,,,,,,,,,54,,,,,,,,,,,,,,443.3999999999942,,response,,,,100,,,,,,,Space,keypress(Space),,,,,,,,-- --- ---- --- ------ ----- ------- ---- -- --- ------- --<br>------- ---------- ------ -- ----- -- ----- -- ---- ------<br>--- ----- --- --- ------ -------- ----- The ------ ----- --<br>----- ----- ---------- --- --- ------ ------ ---- -- ------<br>------- --- ------ ----- --- ---- ------- -- ---- --- --<br>------- ------,218931,218924,218480,218480,218480.6,218932.1,,29,The
screen,html.Screen,2_1_1_1_30,2022-02-01T14:51:00.678Z,,,,,,,,,,,,,,,,,54,,,,,,,,,,,,,,678.8999999999942,,response,,,,100,,,,,,,Space,keypress(Space),,,,,,,,-- --- ---- --- ------ ----- ------- ---- -- --- ------- --<br>------- ---------- ------ -- ----- -- ----- -- ---- ------<br>--- ----- --- --- ------ -------- ----- --- market ----- --<br>----- ----- ---------- --- --- ------ ------ ---- -- ------<br>------- --- ------ ----- --- ---- ------- -- ---- --- --<br>------- ------,219618,219611,218931.54,218932,218932.1,219618.46,,30,market
screen,html.Screen,2_1_1_1_31,2022-02-01T14:51:00.983Z,,,,,,,,,,,,,,,,,54,,,,,,,,,,,,,,289.54000000000815,,response,,,,100,,,,,,,Space,keypress(Space),,,,,,,,-- --- ---- --- ------ ----- ------- ---- -- --- ------- --<br>------- ---------- ------ -- ----- -- ----- -- ---- ------<br>--- ----- --- --- ------ -------- ----- --- ------ value --<br>----- ----- ---------- --- --- ------ ------ ---- -- ------<br>------- --- ------ ----- --- ---- ------- -- ---- --- --<br>------- ------,219923,219908,219618.14,219618,219618.46,219923.7,,31,value
screen,html.Screen,2_1_1_1_32,2022-02-01T14:51:01.559Z,,,,,,,,,,,,,,,,,54,,,,,,,,,,,,,,562.2999999999884,,response,,,,100,,,,,,,Space,keypress(Space),,,,,,,,-- --- ---- --- ------ ----- ------- ---- -- --- ------- --<br>------- ---------- ------ -- ----- -- ----- -- ---- ------<br>--- ----- --- --- ------ -------- ----- --- ------ ----- of<br>----- ----- ---------- --- --- ------ ------ ---- -- ------<br>------- --- ------ ----- --- ---- ------- -- ---- --- --<br>------- ------,220499,220486,219923.22,219923,219923.7,220499.94,,32,of
screen,html.Screen,2_1_1_1_33,2022-02-01T14:51:01.954Z,,,,,,,,,,,,,,,,,54,,,,,,,,,,,,,,377.0599999999977,,response,,,,100,,,,,,,Space,keypress(Space),,,,,,,,-- --- ---- --- ------ ----- ------- ---- -- --- ------- --<br>------- ---------- ------ -- ----- -- ----- -- ---- ------<br>--- ----- --- --- ------ -------- ----- --- ------ ----- --<br>these ----- ---------- --- --- ------ ------ ---- -- ------<br>------- --- ------ ----- --- ---- ------- -- ---- --- --<br>------- ------,220894,220877,220499.32,220499,220499.94,220896.04,,33,these
screen,html.Screen,2_1_1_1_34,2022-02-01T14:51:02.363Z,,,,,,,,,,,,,,,,,54,,,,,,,,,,,,,,401.95999999999185,,response,,,,100,,,,,,,Space,keypress(Space),,,,,,,,-- --- ---- --- ------ ----- ------- ---- -- --- ------- --<br>------- ---------- ------ -- ----- -- ----- -- ---- ------<br>--- ----- --- --- ------ -------- ----- --- ------ ----- --<br>----- bonds ---------- --- --- ------ ------ ---- -- ------<br>------- --- ------ ----- --- ---- ------- -- ---- --- --<br>------- ------,221303,221298,220895.44,220895,220896.04,221303.98,,34,bonds
screen,html.Screen,2_1_1_1_35,2022-02-01T14:51:02.906Z,,,,,,,,,,,,,,,,,54,,,,,,,,,,,,,,525.0199999999895,,response,,,,100,,,,,,,Space,keypress(Space),,,,,,,,"-- --- ---- --- ------ ----- ------- ---- -- --- ------- --<br>------- ---------- ------ -- ----- -- ----- -- ---- ------<br>--- ----- --- --- ------ -------- ----- --- ------ ----- --<br>----- ----- plummeted, --- --- ------ ------ ---- -- ------<br>------- --- ------ ----- --- ---- ------- -- ---- --- --<br>------- ------",221846,221829,221303.38,221304,221303.98,221846.8,,35,"plummeted,"
screen,html.Screen,2_1_1_1_36,2022-02-01T14:51:03.252Z,,,,,,,,,,,,,,,,,54,,,,,,,,,,,,,,342.20000000001164,,response,,,,100,,,,,,,Space,keypress(Space),,,,,,,,-- --- ---- --- ------ ----- ------- ---- -- --- ------- --<br>------- ---------- ------ -- ----- -- ----- -- ---- ------<br>--- ----- --- --- ------ -------- ----- --- ------ ----- --<br>----- ----- ---------- and --- ------ ------ ---- -- ------<br>------- --- ------ ----- --- ---- ------- -- ---- --- --<br>------- ------,222192,222189,221846.32,221847,221846.8,222192.84,,36,and
screen,html.Screen,2_1_1_1_37,2022-02-01T14:51:03.479Z,,,,,,,,,,,,,,,,,54,,,,,,,,,,,,,,215.1600000000035,,response,,,,100,,,,,,,Space,keypress(Space),,,,,,,,-- --- ---- --- ------ ----- ------- ---- -- --- ------- --<br>------- ---------- ------ -- ----- -- ----- -- ---- ------<br>--- ----- --- --- ------ -------- ----- --- ------ ----- --<br>----- ----- ---------- --- the ------ ------ ---- -- ------<br>------- --- ------ ----- --- ---- ------- -- ---- --- --<br>------- ------,222419,222408,222192.24,222193,222192.84,222419.36,,37,the
screen,html.Screen,2_1_1_1_38,2022-02-01T14:51:04.036Z,,,,,,,,,,,,,,,,,54,,,,,,,,,,,,,,535.640000000014,,response,,,,100,,,,,,,Space,keypress(Space),,,,,,,,-- --- ---- --- ------ ----- ------- ---- -- --- ------- --<br>------- ---------- ------ -- ----- -- ----- -- ---- ------<br>--- ----- --- --- ------ -------- ----- --- ------ ----- --<br>----- ----- ---------- --- --- market ------ ---- -- ------<br>------- --- ------ ----- --- ---- ------- -- ---- --- --<br>------- ------,222976,222955,222418.74,222419,222419.36,222976.12,,38,market
screen,html.Screen,2_1_1_1_39,2022-02-01T14:51:04.774Z,,,,,,,,,,,,,,,,,54,,,,,,,,,,,,,,727.8800000000047,,response,,,,100,,,,,,,Space,keypress(Space),,,,,,,,-- --- ---- --- ------ ----- ------- ---- -- --- ------- --<br>------- ---------- ------ -- ----- -- ----- -- ---- ------<br>--- ----- --- --- ------ -------- ----- --- ------ ----- --<br>----- ----- ---------- --- --- ------ became ---- -- ------<br>------- --- ------ ----- --- ---- ------- -- ---- --- --<br>------- ------,223713,223704,222975.54,222976,222976.12,223714.18,,39,became
screen,html.Screen,2_1_1_1_40,2022-02-01T14:51:05.176Z,,,,,,,,,,,,,,,,,54,,,,,,,,,,,,,,396.820000000007,,response,,,,100,,,,,,,Space,keypress(Space),,,,,,,,-- --- ---- --- ------ ----- ------- ---- -- --- ------- --<br>------- ---------- ------ -- ----- -- ----- -- ---- ------<br>--- ----- --- --- ------ -------- ----- --- ------ ----- --<br>----- ----- ---------- --- --- ------ ------ wary -- ------<br>------- --- ------ ----- --- ---- ------- -- ---- --- --<br>------- ------,224117,224111,223713.84,223713,223714.18,224117.02,,40,wary
screen,html.Screen,2_1_1_1_41,2022-02-01T14:51:05.646Z,,,,,,,,,,,,,,,,,54,,,,,,,,,,,,,,461.9800000000105,,response,,,,100,,,,,,,Space,keypress(Space),,,,,,,,-- --- ---- --- ------ ----- ------- ---- -- --- ------- --<br>------- ---------- ------ -- ----- -- ----- -- ---- ------<br>--- ----- --- --- ------ -------- ----- --- ------ ----- --<br>----- ----- ---------- --- --- ------ ------ ---- of ------<br>------- --- ------ ----- --- ---- ------- -- ---- --- --<br>------- ------,224585,224579,224116.76,224117,224117.02,224586.34,,41,of
screen,html.Screen,2_1_1_1_42,2022-02-01T14:51:06.312Z,,,,,,,,,,,,,,,,,54,,,,,,,,,,,,,,649.6600000000035,,response,,,,100,,,,,,,Space,keypress(Space),,,,,,,,-- --- ---- --- ------ ----- ------- ---- -- --- ------- --<br>------- ---------- ------ -- ----- -- ----- -- ---- ------<br>--- ----- --- --- ------ -------- ----- --- ------ ----- --<br>----- ----- ---------- --- --- ------ ------ ---- -- French<br>------- --- ------ ----- --- ---- ------- -- ---- --- --<br>------- ------,225252,225236,224586,224586,224586.34,225252.42,,42,French
screen,html.Screen,2_1_1_1_43,2022-02-01T14:51:07.103Z,,,,,,,,,,,,,,,,,54,,,,,,,,,,,,,,781.5799999999872,,response,,,,100,,,,,,,Space,keypress(Space),,,,,,,,-- --- ---- --- ------ ----- ------- ---- -- --- ------- --<br>------- ---------- ------ -- ----- -- ----- -- ---- ------<br>--- ----- --- --- ------ -------- ----- --- ------ ----- --<br>----- ----- ---------- --- --- ------ ------ ---- -- ------<br>credit. --- ------ ----- --- ---- ------- -- ---- --- --<br>------- ------,226042,226034,225251.94,225252,225252.42,226042.88,,43,credit.
screen,html.Screen,2_1_1_1_44,2022-02-01T14:51:07.384Z,,,,,,,,,,,,,,,,,54,,,,,,,,,,,,,,271.11999999999534,,response,,,,100,,,,,,,Space,keypress(Space),,,,,,,,-- --- ---- --- ------ ----- ------- ---- -- --- ------- --<br>------- ---------- ------ -- ----- -- ----- -- ---- ------<br>--- ----- --- --- ------ -------- ----- --- ------ ----- --<br>----- ----- ---------- --- --- ------ ------ ---- -- ------<br>------- The ------ ----- --- ---- ------- -- ---- --- --<br>------- ------,226325,226314,226042.4,226043,226042.88,226324.9,,44,The
screen,html.Screen,2_1_1_1_45,2022-02-01T14:51:07.898Z,,,,,,,,,,,,,,,,,54,,,,,,,,,,,,,,504.1000000000058,,response,,,,100,,,,,,,Space,keypress(Space),,,,,,,,-- --- ---- --- ------ ----- ------- ---- -- --- ------- --<br>------- ---------- ------ -- ----- -- ----- -- ---- ------<br>--- ----- --- --- ------ -------- ----- --- ------ ----- --<br>----- ----- ---------- --- --- ------ ------ ---- -- ------<br>------- --- French ----- --- ---- ------- -- ---- --- --<br>------- ------,226837,226829,226324.56,226325,226324.9,226838.46,,45,French
screen,html.Screen,2_1_1_1_46,2022-02-01T14:51:08.268Z,,,,,,,,,,,,,,,,,54,,,,,,,,,,,,,,365.54000000000815,,response,,,,100,,,,,,,Space,keypress(Space),,,,,,,,-- --- ---- --- ------ ----- ------- ---- -- --- ------- --<br>------- ---------- ------ -- ----- -- ----- -- ---- ------<br>--- ----- --- --- ------ -------- ----- --- ------ ----- --<br>----- ----- ---------- --- --- ------ ------ ---- -- ------<br>------- --- ------ state --- ---- ------- -- ---- --- --<br>------- ------,227209,227204,226837.86,226838,226838.46,227209.36,,46,state
screen,html.Screen,2_1_1_1_47,2022-02-01T14:51:09.127Z,,,,,,,,,,,,,,,,,54,,,,,,,,,,,,,,839.640000000014,,response,,,,100,,,,,,,Space,keypress(Space),,,,,,,,-- --- ---- --- ------ ----- ------- ---- -- --- ------- --<br>------- ---------- ------ -- ----- -- ----- -- ---- ------<br>--- ----- --- --- ------ -------- ----- --- ------ ----- --<br>----- ----- ---------- --- --- ------ ------ ---- -- ------<br>------- --- ------ ----- was ---- ------- -- ---- --- --<br>------- ------,228067,228049,227208.8,227209,227209.36,228068.04,,47,was
screen,html.Screen,2_1_1_1_48,2022-02-01T14:51:09.748Z,,,,,,,,,,,,,,,,,54,,,,,,,,,,,,,,604.9599999999919,,response,,,,100,,,,,,,Space,keypress(Space),,,,,,,,-- --- ---- --- ------ ----- ------- ---- -- --- ------- --<br>------- ---------- ------ -- ----- -- ----- -- ---- ------<br>--- ----- --- --- ------ -------- ----- --- ------ ----- --<br>----- ----- ---------- --- --- ------ ------ ---- -- ------<br>------- --- ------ ----- --- left ------- -- ---- --- --<br>------- ------,228689,228673,228067.48,228067,228068.04,228689.08,,48,left
screen,html.Screen,2_1_1_1_49,2022-02-01T14:51:10.114Z,,,,,,,,,,,,,,,,,54,,,,,,,,,,,,,,359.9200000000128,,response,,,,100,,,,,,,Space,keypress(Space),,,,,,,,-- --- ---- --- ------ ----- ------- ---- -- --- ------- --<br>------- ---------- ------ -- ----- -- ----- -- ---- ------<br>--- ----- --- --- ------ -------- ----- --- ------ ----- --<br>----- ----- ---------- --- --- ------ ------ ---- -- ------<br>------- --- ------ ----- --- ---- without -- ---- --- --<br>------- ------,229054,229049,228688.46,228689,228689.08,229054.7,,49,without
screen,html.Screen,2_1_1_1_50,2022-02-01T14:51:10.581Z,,,,,,,,,,,,,,,,,54,,,,,,,,,,,,,,463.29999999998836,,response,,,,100,,,,,,,Space,keypress(Space),,,,,,,,-- --- ---- --- ------ ----- ------- ---- -- --- ------- --<br>------- ---------- ------ -- ----- -- ----- -- ---- ------<br>--- ----- --- --- ------ -------- ----- --- ------ ----- --<br>----- ----- ---------- --- --- ------ ------ ---- -- ------<br>------- --- ------ ----- --- ---- ------- an ---- --- --<br>------- ------,229521,229518,229054.16,229054,229054.7,229522.18,,50,an
screen,html.Screen,2_1_1_1_51,2022-02-01T14:51:11.090Z,,,,,,,,,,,,,,,,,54,,,,,,,,,,,,,,494.820000000007,,response,,,,100,,,,,,,Space,keypress(Space),,,,,,,,-- --- ---- --- ------ ----- ------- ---- -- --- ------- --<br>------- ---------- ------ -- ----- -- ----- -- ---- ------<br>--- ----- --- --- ------ -------- ----- --- ------ ----- --<br>----- ----- ---------- --- --- ------ ------ ---- -- ------<br>------- --- ------ ----- --- ---- ------- -- easy --- --<br>------- ------,230030,230017,229521.6,229522,229522.18,230030.4,,51,easy
screen,html.Screen,2_1_1_1_52,2022-02-01T14:51:11.597Z,,,,,,,,,,,,,,,,,54,,,,,,,,,,,,,,502.6000000000058,,response,,,,100,,,,,,,Space,keypress(Space),,,,,,,,-- --- ---- --- ------ ----- ------- ---- -- --- ------- --<br>------- ---------- ------ -- ----- -- ----- -- ---- ------<br>--- ----- --- --- ------ -------- ----- --- ------ ----- --<br>----- ----- ---------- --- --- ------ ------ ---- -- ------<br>------- --- ------ ----- --- ---- ------- -- ---- way --<br>------- ------,230537,230533,230030.22,230031,230030.4,230538.02,,52,way
screen,html.Screen,2_1_1_1_53,2022-02-01T14:51:12.460Z,,,,,,,,,,,,,,,,,54,,,,,,,,,,,,,,853.9800000000105,,response,,,,100,,,,,,,Space,keypress(Space),,,,,,,,-- --- ---- --- ------ ----- ------- ---- -- --- ------- --<br>------- ---------- ------ -- ----- -- ----- -- ---- ------<br>--- ----- --- --- ------ -------- ----- --- ------ ----- --<br>----- ----- ---------- --- --- ------ ------ ---- -- ------<br>------- --- ------ ----- --- ---- ------- -- ---- --- of<br>------- ------,231401,231392,230537.46,230537,230538.02,231401.52,,53,of
screen,html.Screen,2_1_1_1_54,2022-02-01T14:51:12.891Z,,,,,,,,,,,,,,,,,54,,,,,,,,,,,,,,413.4800000000105,,response,,,,100,,,,,,,Space,keypress(Space),,,,,,,,-- --- ---- --- ------ ----- ------- ---- -- --- ------- --<br>------- ---------- ------ -- ----- -- ----- -- ---- ------<br>--- ----- --- --- ------ -------- ----- --- ------ ----- --<br>----- ----- ---------- --- --- ------ ------ ---- -- ------<br>------- --- ------ ----- --- ---- ------- -- ---- --- --<br>raising ------,231831,231815,231400.94,231401,231401.52,231831.34,,54,raising
screen,html.Screen,2_1_1_1_55,2022-02-01T14:51:13.570Z,,,,,,,,,,,,,,,,,54,,,,,,,,,,,,,,670.6600000000035,,response,,,,100,,,,,,,Space,keypress(Space),,,,,,,,-- --- ---- --- ------ ----- ------- ---- -- --- ------- --<br>------- ---------- ------ -- ----- -- ----- -- ---- ------<br>--- ----- --- --- ------ -------- ----- --- ------ ----- --<br>----- ----- ---------- --- --- ------ ------ ---- -- ------<br>------- --- ------ ----- --- ---- ------- -- ---- --- --<br>------- money.,232510,232502,231831.06,231831,231831.34,232511.7,,55,money.
Item 100,flow.Loop,2_1_1_1,2022-02-01T14:51:13.571Z,,,,,,,,,,,,,,,,,,,,,,,,,,,,,,,28146.059999999998,,completion,,,,,A,,,,,,,,,,,silence,,,,,232511,232502,204339.26,204341,204355.94,232511.7,,,
Question 1,html.Screen,2_1_1_2,2022-02-01T14:51:18.163Z,,,,,,,,,,,,,,,,,,,,,,,,,,,,true,TRUE,,4583.299999999988,,response,,,,100,A,,,,,,TRUE,click #choice-1,,,,silence,,,,,237103,237095,232511.18,232511,232511.7,237118.64,,,
Question 2,html.Screen,2_1_1_3,2022-02-01T14:51:21.583Z,,,,,,,,,,,,,,,,,,,,,,,,,,,,true,FALSE,,3398.359999999986,,response,,,,100,A,,,,,,FALSE,click #choice-2,,,,silence,,,,,240523,240517,237101.5,237103,237118.64,240536.5,,,
Item 100,flow.Sequence,2_1_1,2022-02-01T14:51:21.584Z,,,,,,,,,,,,,,,,,,,,,,,,,,,,,,,46164.78,,completion,,,,,,,,,,,,,,,,,,,,,240524,240517,194341.2,194343,194352.22,240536.5,,,
End of Practice,html.Page,2_1_2,2022-02-01T14:51:26.196Z,,,,,,,,,,,,,,,,,,,,,,,,,,,,,,,4598.5,,form submission,,,,,,,,,,,,,,,,,,,,,245136,245135,240522.22,240524,240536.5,245138.18,,,
Practice,flow.Sequence,2_1,2022-02-01T14:51:26.196Z,,,,,,,,,,,,,,,,,,,,,,,,,,,,,,,96683.5,,completion,,,,,,,,,,,,,,,,,,,,,245136,245135,148437.72,148442,148451.5,245138.18,,,
Trap_instruction,html.Page,2_2_0,2022-02-01T14:51:31.388Z,,,,,,,,,,,,,,,,,,,,,,,,,,,,,,,5188.820000000007,,form submission,,,,,,,,,,,,,,,,,,,,,250328,250327,245132.24,245136,245138.18,250340.18,,,
trap_trial,html.Screen,2_2_1,2022-02-01T14:51:37.774Z,,,,,,,,,,,,,,,,,,,,,,,,,,,,true,1,,6363.820000000007,,response,,,,,,,,,,,1,click #choice-1,,,,,,,,,256714,256704,250324.28,250328,250340.18,256726.06,,,
end of trap trial,html.Page,2_2_2,2022-02-01T14:51:40.029Z,,,,,,,,,,,,,,,,,,,,,,,,,,,,,,,2242.9400000000023,,form submission,,,,,,,,,,,,,,,,,,,,,258969,258969,256711.9,256714,256726.06,258976.84,,,
Trap 1,flow.Sequence,2_2,2022-02-01T14:51:40.030Z,,,,,,,,,,,,,,,,,,,,,,,,,,,,,,,13830.820000000007,,completion,,,,,,,,,,,,,,,,,,,,,258970,258969,245132.24,245136,245138.18,258976.84,,,
Standby,html.Page,2_3_0,2022-02-01T14:51:48.025Z,,,,,,,,,,,,,,,,,,,,,,,,,,,,,,,8003.060000000027,,timeout,,,,,,,,,,,,,,,,,,,,,266964,266963.24,258966.48,258970,258976.84,266979.9,,,
Holding screen,html.Screen,2_3_1_0_0,2022-02-01T14:51:55.027Z,,,,,,,,,,,,,,,,,,,,,,,,,,,,,,,7002.719999999972,,timeout,,,,,,,,,,,,,,,,,,,,,273967,273965.94,266963.24,266965,266979.9,273982.62,,,
screen,html.Screen,2_3_1_0_1_0,2022-02-01T14:51:55.881Z,,,,,,,,,,,,,,,,,48,,,,,,,,,,,,,,831.3800000000047,,response,,,,10,A,,,,,,Space,keypress(Space),,,,silence,,,,As -- --- ------ ------- --------- ----------- --------<br>--------- -------- --- ------- -- ------- ---- -- ------<br>-- --- -------- -------- ---------- ---- ---- ---- ------<br>-- --------- -- ---- -- --- -- --- ------- -- - -----<br>---------- -- -- -- ---- ----- -- ------ -- --- ------<br>-------,274820,274814,273965.94,273968,273982.62,274821.38,,0,As
screen,html.Screen,2_3_1_0_1_1,2022-02-01T14:51:56.436Z,,,,,,,,,,,,,,,,,48,,,,,,,,,,,,,,539.6199999999953,,response,,,,10,A,,,,,,Space,keypress(Space),,,,silence,,,,-- in --- ------ ------- --------- ----------- --------<br>--------- -------- --- ------- -- ------- ---- -- ------<br>-- --- -------- -------- ---------- ---- ---- ---- ------<br>-- --------- -- ---- -- --- -- --- ------- -- - -----<br>---------- -- -- -- ---- ----- -- ------ -- --- ------<br>-------,275376,275361,274820.8,274821,274821.38,275376.74,,1,in
screen,html.Screen,2_3_1_0_1_2,2022-02-01T14:51:56.883Z,,,,,,,,,,,,,,,,,48,,,,,,,,,,,,,,438.2600000000093,,response,,,,10,A,,,,,,Space,keypress(Space),,,,silence,,,,-- -- the ------ ------- --------- ----------- --------<br>--------- -------- --- ------- -- ------- ---- -- ------<br>-- --- -------- -------- ---------- ---- ---- ---- ------<br>-- --------- -- ---- -- --- -- --- ------- -- - -----<br>---------- -- -- -- ---- ----- -- ------ -- --- ------<br>-------,275824,275815,275376.3,275376,275376.74,275824.06,,2,the
screen,html.Screen,2_3_1_0_1_3,2022-02-01T14:51:57.223Z,,,,,,,,,,,,,,,,,48,,,,,,,,,,,,,,317.9400000000023,,response,,,,10,A,,,,,,Space,keypress(Space),,,,silence,,,,-- -- --- United ------- --------- ----------- --------<br>--------- -------- --- ------- -- ------- ---- -- ------<br>-- --- -------- -------- ---------- ---- ---- ---- ------<br>-- --------- -- ---- -- --- -- --- ------- -- - -----<br>---------- -- -- -- ---- ----- -- ------ -- --- ------<br>-------,276162,276142,275823.46,275824,275824.06,276163.56,,3,United
screen,html.Screen,2_3_1_0_1_4,2022-02-01T14:51:57.579Z,,,,,,,,,,,,,,,,,48,,,,,,,,,,,,,,337.4400000000023,,response,,,,10,A,,,,,,Space,keypress(Space),,,,silence,,,,"-- -- --- ------ States, --------- ----------- --------<br>--------- -------- --- ------- -- ------- ---- -- ------<br>-- --- -------- -------- ---------- ---- ---- ---- ------<br>-- --------- -- ---- -- --- -- --- ------- -- - -----<br>---------- -- -- -- ---- ----- -- ------ -- --- ------<br>-------",276519,276501,276162.98,276163,276163.56,276519.64,,4,"States,"
screen,html.Screen,2_3_1_0_1_5,2022-02-01T14:51:58.030Z,,,,,,,,,,,,,,,,,48,,,,,,,,,,,,,,435.35999999998603,,response,,,,10,A,,,,,,Space,keypress(Space),,,,silence,,,,-- -- --- ------ ------- Colombian ----------- --------<br>--------- -------- --- ------- -- ------- ---- -- ------<br>-- --- -------- -------- ---------- ---- ---- ---- ------<br>-- --------- -- ---- -- --- -- --- ------- -- - -----<br>---------- -- -- -- ---- ----- -- ------ -- --- ------<br>-------,276969,276955,276519.1,276519,276519.64,276970.66,,5,Colombian
screen,html.Screen,2_3_1_0_1_6,2022-02-01T14:51:58.410Z,,,,,,,,,,,,,,,,,48,,,,,,,,,,,,,,375.3400000000256,,response,,,,10,A,,,,,,Space,keypress(Space),,,,silence,,,,-- -- --- ------ ------- --------- legislation --------<br>--------- -------- --- ------- -- ------- ---- -- ------<br>-- --- -------- -------- ---------- ---- ---- ---- ------<br>-- --------- -- ---- -- --- -- --- ------- -- - -----<br>---------- -- -- -- ---- ----- -- ------ -- --- ------<br>-------,277349,277346,276970.2,276970,276970.66,277350.36,,6,legislation
screen,html.Screen,2_3_1_0_1_7,2022-02-01T14:51:58.925Z,,,,,,,,,,,,,,,,,48,,,,,,,,,,,,,,510.64000000001397,,response,,,,10,A,,,,,,Space,keypress(Space),,,,silence,,,,-- -- --- ------ ------- --------- ----------- requires<br>--------- -------- --- ------- -- ------- ---- -- ------<br>-- --- -------- -------- ---------- ---- ---- ---- ------<br>-- --------- -- ---- -- --- -- --- ------- -- - -----<br>---------- -- -- -- ---- ----- -- ------ -- --- ------<br>-------,277865,277861,277349.78,277350,277350.36,277865.48,,7,requires
screen,html.Screen,2_3_1_0_1_8,2022-02-01T14:51:59.314Z,,,,,,,,,,,,,,,,,48,,,,,,,,,,,,,,370.5200000000186,,response,,,,10,A,,,,,,Space,keypress(Space),,,,silence,,,,-- -- --- ------ ------- --------- ----------- --------<br>travelers -------- --- ------- -- ------- ---- -- ------<br>-- --- -------- -------- ---------- ---- ---- ---- ------<br>-- --------- -- ---- -- --- -- --- ------- -- - -----<br>---------- -- -- -- ---- ----- -- ------ -- --- ------<br>-------,278253,278236,277864.92,277865,277865.48,278253.8,,8,travelers
screen,html.Screen,2_3_1_0_1_9,2022-02-01T14:51:59.748Z,,,,,,,,,,,,,,,,,48,,,,,,,,,,,,,,420.20000000001164,,response,,,,10,A,,,,,,Space,keypress(Space),,,,silence,,,,-- -- --- ------ ------- --------- ----------- --------<br>--------- entering --- ------- -- ------- ---- -- ------<br>-- --- -------- -------- ---------- ---- ---- ---- ------<br>-- --------- -- ---- -- --- -- --- ------- -- - -----<br>---------- -- -- -- ---- ----- -- ------ -- --- ------<br>-------,278689,278674,278253.22,278253,278253.8,278689.18,,9,entering
screen,html.Screen,2_3_1_0_1_10,2022-02-01T14:52:00.083Z,,,,,,,,,,,,,,,,,48,,,,,,,,,,,,,,327.820000000007,,response,,,,10,A,,,,,,Space,keypress(Space),,,,silence,,,,-- -- --- ------ ------- --------- ----------- --------<br>--------- -------- the ------- -- ------- ---- -- ------<br>-- --- -------- -------- ---------- ---- ---- ---- ------<br>-- --------- -- ---- -- --- -- --- ------- -- - -----<br>---------- -- -- -- ---- ----- -- ------ -- --- ------<br>-------,279023,279017,278688.6,278689,278689.18,279023.84,,10,the
screen,html.Screen,2_3_1_0_1_11,2022-02-01T14:52:00.725Z,,,,,,,,,,,,,,,,,48,,,,,,,,,,,,,,635.1599999999744,,response,,,,10,A,,,,,,Space,keypress(Space),,,,silence,,,,-- -- --- ------ ------- --------- ----------- --------<br>--------- -------- --- country -- ------- ---- -- ------<br>-- --- -------- -------- ---------- ---- ---- ---- ------<br>-- --------- -- ---- -- --- -- --- ------- -- - -----<br>---------- -- -- -- ---- ----- -- ------ -- --- ------<br>-------,279665,279659,279023.38,279023,279023.84,279665.04,,11,country
screen,html.Screen,2_3_1_0_1_12,2022-02-01T14:52:01.052Z,,,,,,,,,,,,,,,,,48,,,,,,,,,,,,,,320.96000000002095,,response,,,,10,A,,,,,,Space,keypress(Space),,,,silence,,,,-- -- --- ------ ------- --------- ----------- --------<br>--------- -------- --- ------- to ------- ---- -- ------<br>-- --- -------- -------- ---------- ---- ---- ---- ------<br>-- --------- -- ---- -- --- -- --- ------- -- - -----<br>---------- -- -- -- ---- ----- -- ------ -- --- ------<br>-------,279992,279986,279664.84,279665,279665.04,279992.66,,12,to
screen,html.Screen,2_3_1_0_1_13,2022-02-01T14:52:01.531Z,,,,,,,,,,,,,,,,,48,,,,,,,,,,,,,,461.3400000000256,,response,,,,10,A,,,,,,Space,keypress(Space),,,,silence,,,,-- -- --- ------ ------- --------- ----------- --------<br>--------- -------- --- ------- -- declare ---- -- ------<br>-- --- -------- -------- ---------- ---- ---- ---- ------<br>-- --------- -- ---- -- --- -- --- ------- -- - -----<br>---------- -- -- -- ---- ----- -- ------ -- --- ------<br>-------,280471,280454,279992.08,279992,279992.66,280471.26,,13,declare
screen,html.Screen,2_3_1_0_1_14,2022-02-01T14:52:01.756Z,,,,,,,,,,,,,,,,,48,,,,,,,,,,,,,,217.7399999999907,,response,,,,10,A,,,,,,Space,keypress(Space),,,,silence,,,,-- -- --- ------ ------- --------- ----------- --------<br>--------- -------- --- ------- -- ------- cash -- ------<br>-- --- -------- -------- ---------- ---- ---- ---- ------<br>-- --------- -- ---- -- --- -- --- ------- -- - -----<br>---------- -- -- -- ---- ----- -- ------ -- --- ------<br>-------,280695,280689,280470.68,280471,280471.26,280696,,14,cash
screen,html.Screen,2_3_1_0_1_15,2022-02-01T14:52:02.211Z,,,,,,,,,,,,,,,,,48,,,,,,,,,,,,,,447,,response,,,,10,A,,,,,,Space,keypress(Space),,,,silence,,,,-- -- --- ------ ------- --------- ----------- --------<br>--------- -------- --- ------- -- ------- ---- in ------<br>-- --- -------- -------- ---------- ---- ---- ---- ------<br>-- --------- -- ---- -- --- -- --- ------- -- - -----<br>---------- -- -- -- ---- ----- -- ------ -- --- ------<br>-------,281151,281143,280695.46,280695,280696,281151.5,,15,in
screen,html.Screen,2_3_1_0_1_16,2022-02-01T14:52:02.734Z,,,,,,,,,,,,,,,,,48,,,,,,,,,,,,,,507.5,,response,,,,10,A,,,,,,Space,keypress(Space),,,,silence,,,,-- -- --- ------ ------- --------- ----------- --------<br>--------- -------- --- ------- -- ------- ---- -- excess<br>-- --- -------- -------- ---------- ---- ---- ---- ------<br>-- --------- -- ---- -- --- -- --- ------- -- - -----<br>---------- -- -- -- ---- ----- -- ------ -- --- ------<br>-------,281673,281659,281150.96,281151,281151.5,281674.42,,16,excess
screen,html.Screen,2_3_1_0_1_17,2022-02-01T14:52:03.095Z,,,,,,,,,,,,,,,,,48,,,,,,,,,,,,,,342.5800000000163,,response,,,,10,A,,,,,,Space,keypress(Space),,,,silence,,,,-- -- --- ------ ------- --------- ----------- --------<br>--------- -------- --- ------- -- ------- ---- -- ------<br>of --- -------- -------- ---------- ---- ---- ---- ------<br>-- --------- -- ---- -- --- -- --- ------- -- - -----<br>---------- -- -- -- ---- ----- -- ------ -- --- ------<br>-------,282035,282017,281673.88,281674,281674.42,282035.38,,17,of
screen,html.Screen,2_3_1_0_1_18,2022-02-01T14:52:03.638Z,,,,,,,,,,,,,,,,,48,,,,,,,,,,,,,,528.6199999999953,,response,,,,10,A,,,,,,Space,keypress(Space),,,,silence,,,,-- -- --- ------ ------- --------- ----------- --------<br>--------- -------- --- ------- -- ------- ---- -- ------<br>-- ten -------- -------- ---------- ---- ---- ---- ------<br>-- --------- -- ---- -- --- -- --- ------- -- - -----<br>---------- -- -- -- ---- ----- -- ------ -- --- ------<br>-------,282578,282564,282034.8,282035,282035.38,282579.16,,18,ten
screen,html.Screen,2_3_1_0_1_19,2022-02-01T14:52:04.098Z,,,,,,,,,,,,,,,,,48,,,,,,,,,,,,,,454.8400000000256,,response,,,,10,A,,,,,,Space,keypress(Space),,,,silence,,,,-- -- --- ------ ------- --------- ----------- --------<br>--------- -------- --- ------- -- ------- ---- -- ------<br>-- --- thousand -------- ---------- ---- ---- ---- ------<br>-- --------- -- ---- -- --- -- --- ------- -- - -----<br>---------- -- -- -- ---- ----- -- ------ -- --- ------<br>-------,283038,283034,282578.62,282578,282579.16,283038.6,,19,thousand
screen,html.Screen,2_3_1_0_1_20,2022-02-01T14:52:04.448Z,,,,,,,,,,,,,,,,,48,,,,,,,,,,,,,,338.4000000000233,,response,,,,10,A,,,,,,Space,keypress(Space),,,,silence,,,,-- -- --- ------ ------- --------- ----------- --------<br>--------- -------- --- ------- -- ------- ---- -- ------<br>-- --- -------- dollars. ---------- ---- ---- ---- ------<br>-- --------- -- ---- -- --- -- --- ------- -- - -----<br>---------- -- -- -- ---- ----- -- ------ -- --- ------<br>-------,283388,283377,283038,283038,283038.6,283388.84,,20,dollars.
screen,html.Screen,2_3_1_0_1_21,2022-02-01T14:52:05.177Z,,,,,,,,,,,,,,,,,48,,,,,,,,,,,,,,722.1599999999744,,response,,,,10,A,,,,,,Space,keypress(Space),,,,silence,,,,-- -- --- ------ ------- --------- ----------- --------<br>--------- -------- --- ------- -- ------- ---- -- ------<br>-- --- -------- -------- Concealing ---- ---- ---- ------<br>-- --------- -- ---- -- --- -- --- ------- -- - -----<br>---------- -- -- -- ---- ----- -- ------ -- --- ------<br>-------,284117,284111,283388.24,283388,283388.84,284118.16,,21,Concealing
screen,html.Screen,2_3_1_0_1_22,2022-02-01T14:52:05.502Z,,,,,,,,,,,,,,,,,48,,,,,,,,,,,,,,320.8400000000256,,response,,,,10,A,,,,,,Space,keypress(Space),,,,silence,,,,-- -- --- ------ ------- --------- ----------- --------<br>--------- -------- --- ------- -- ------- ---- -- ------<br>-- --- -------- -------- ---------- more ---- ---- ------<br>-- --------- -- ---- -- --- -- --- ------- -- - -----<br>---------- -- -- -- ---- ----- -- ------ -- --- ------<br>-------,284442,284439,284117.6,284117,284118.16,284443.04,,22,more
screen,html.Screen,2_3_1_0_1_23,2022-02-01T14:52:05.811Z,,,,,,,,,,,,,,,,,48,,,,,,,,,,,,,,292.96000000002095,,response,,,,10,A,,,,,,Space,keypress(Space),,,,silence,,,,-- -- --- ------ ------- --------- ----------- --------<br>--------- -------- --- ------- -- ------- ---- -- ------<br>-- --- -------- -------- ---------- ---- than ---- ------<br>-- --------- -- ---- -- --- -- --- ------- -- - -----<br>---------- -- -- -- ---- ----- -- ------ -- --- ------<br>-------,284751,284736,284442.44,284443,284443.04,284751.7,,23,than
screen,html.Screen,2_3_1_0_1_24,2022-02-01T14:52:06.032Z,,,,,,,,,,,,,,,,,48,,,,,,,,,,,,,,203.29999999998836,,response,,,,10,A,,,,,,Space,keypress(Space),,,,silence,,,,-- -- --- ------ ------- --------- ----------- --------<br>--------- -------- --- ------- -- ------- ---- -- ------<br>-- --- -------- -------- ---------- ---- ---- that ------<br>-- --------- -- ---- -- --- -- --- ------- -- - -----<br>---------- -- -- -- ---- ----- -- ------ -- --- ------<br>-------,284972,284955,284751.12,284751,284751.7,284972.2,,24,that
screen,html.Screen,2_3_1_0_1_25,2022-02-01T14:52:06.528Z,,,,,,,,,,,,,,,,,48,,,,,,,,,,,,,,481.79999999998836,,response,,,,10,A,,,,,,Space,keypress(Space),,,,silence,,,,-- -- --- ------ ------- --------- ----------- --------<br>--------- -------- --- ------- -- ------- ---- -- ------<br>-- --- -------- -------- ---------- ---- ---- ---- amount<br>-- --------- -- ---- -- --- -- --- ------- -- - -----<br>---------- -- -- -- ---- ----- -- ------ -- --- ------<br>-------,285468,285454,284971.92,284972,284972.2,285468.82,,25,amount
screen,html.Screen,2_3_1_0_1_26,2022-02-01T14:52:06.851Z,,,,,,,,,,,,,,,,,48,,,,,,,,,,,,,,315.179999999993,,response,,,,10,A,,,,,,Space,keypress(Space),,,,silence,,,,-- -- --- ------ ------- --------- ----------- --------<br>--------- -------- --- ------- -- ------- ---- -- ------<br>-- --- -------- -------- ---------- ---- ---- ---- ------<br>to --------- -- ---- -- --- -- --- ------- -- - -----<br>---------- -- -- -- ---- ----- -- ------ -- --- ------<br>-------,285790,285784,285468.22,285469,285468.82,285790.98,,26,to
screen,html.Screen,2_3_1_0_1_27,2022-02-01T14:52:07.377Z,,,,,,,,,,,,,,,,,48,,,,,,,,,,,,,,508.0200000000186,,response,,,,10,A,,,,,,Space,keypress(Space),,,,silence,,,,-- -- --- ------ ------- --------- ----------- --------<br>--------- -------- --- ------- -- ------- ---- -- ------<br>-- --- -------- -------- ---------- ---- ---- ---- ------<br>-- transport -- ---- -- --- -- --- ------- -- - -----<br>---------- -- -- -- ---- ----- -- ------ -- --- ------<br>-------,286317,286299,285790.38,285790,285790.98,286317.9,,27,transport
screen,html.Screen,2_3_1_0_1_28,2022-02-01T14:52:07.816Z,,,,,,,,,,,,,,,,,48,,,,,,,,,,,,,,418.0999999999767,,response,,,,10,A,,,,,,Space,keypress(Space),,,,silence,,,,-- -- --- ------ ------- --------- ----------- --------<br>--------- -------- --- ------- -- ------- ---- -- ------<br>-- --- -------- -------- ---------- ---- ---- ---- ------<br>-- --------- it ---- -- --- -- --- ------- -- - -----<br>---------- -- -- -- ---- ----- -- ------ -- --- ------<br>-------,286756,286736,286317.5,286318,286317.9,286756.66,,28,it
screen,html.Screen,2_3_1_0_1_29,2022-02-01T14:52:08.133Z,,,,,,,,,,,,,,,,,48,,,,,,,,,,,,,,308.3400000000256,,response,,,,10,A,,,,,,Space,keypress(Space),,,,silence,,,,-- -- --- ------ ------- --------- ----------- --------<br>--------- -------- --- ------- -- ------- ---- -- ------<br>-- --- -------- -------- ---------- ---- ---- ---- ------<br>-- --------- -- into -- --- -- --- ------- -- - -----<br>---------- -- -- -- ---- ----- -- ------ -- --- ------<br>-------,287073,287065,286755.94,286756,286756.66,287073.02,,29,into
screen,html.Screen,2_3_1_0_1_30,2022-02-01T14:52:08.554Z,,,,,,,,,,,,,,,,,48,,,,,,,,,,,,,,413.9799999999814,,response,,,,10,A,,,,,,Space,keypress(Space),,,,silence,,,,-- -- --- ------ ------- --------- ----------- --------<br>--------- -------- --- ------- -- ------- ---- -- ------<br>-- --- -------- -------- ---------- ---- ---- ---- ------<br>-- --------- -- ---- or --- -- --- ------- -- - -----<br>---------- -- -- -- ---- ----- -- ------ -- --- ------<br>-------,287494,287487,287072.48,287073,287073.02,287494.82,,30,or
screen,html.Screen,2_3_1_0_1_31,2022-02-01T14:52:08.902Z,,,,,,,,,,,,,,,,,48,,,,,,,,,,,,,,334.179999999993,,response,,,,10,A,,,,,,Space,keypress(Space),,,,silence,,,,-- -- --- ------ ------- --------- ----------- --------<br>--------- -------- --- ------- -- ------- ---- -- ------<br>-- --- -------- -------- ---------- ---- ---- ---- ------<br>-- --------- -- ---- -- out -- --- ------- -- - -----<br>---------- -- -- -- ---- ----- -- ------ -- --- ------<br>-------,287841,287829,287494.4,287494,287494.82,287842.6,,31,out
screen,html.Screen,2_3_1_0_1_32,2022-02-01T14:52:09.114Z,,,,,,,,,,,,,,,,,48,,,,,,,,,,,,,,206.40000000002328,,response,,,,10,A,,,,,,Space,keypress(Space),,,,silence,,,,-- -- --- ------ ------- --------- ----------- --------<br>--------- -------- --- ------- -- ------- ---- -- ------<br>-- --- -------- -------- ---------- ---- ---- ---- ------<br>-- --------- -- ---- -- --- of --- ------- -- - -----<br>---------- -- -- -- ---- ----- -- ------ -- --- ------<br>-------,288054,288049,287842.06,287842,287842.6,288054.64,,32,of
screen,html.Screen,2_3_1_0_1_33,2022-02-01T14:52:09.387Z,,,,,,,,,,,,,,,,,48,,,,,,,,,,,,,,259.35999999998603,,response,,,,10,A,,,,,,Space,keypress(Space),,,,silence,,,,-- -- --- ------ ------- --------- ----------- --------<br>--------- -------- --- ------- -- ------- ---- -- ------<br>-- --- -------- -------- ---------- ---- ---- ---- ------<br>-- --------- -- ---- -- --- -- the ------- -- - -----<br>---------- -- -- -- ---- ----- -- ------ -- --- ------<br>-------,288326,288314,288054.14,288054,288054.64,288327.18,,33,the
screen,html.Screen,2_3_1_0_1_34,2022-02-01T14:52:09.853Z,,,,,,,,,,,,,,,,,48,,,,,,,,,,,,,,455.820000000007,,response,,,,10,A,,,,,,Space,keypress(Space),,,,silence,,,,-- -- --- ------ ------- --------- ----------- --------<br>--------- -------- --- ------- -- ------- ---- -- ------<br>-- --- -------- -------- ---------- ---- ---- ---- ------<br>-- --------- -- ---- -- --- -- --- country -- - -----<br>---------- -- -- -- ---- ----- -- ------ -- --- ------<br>-------,288793,288783,288326.76,288326,288327.18,288793.88,,34,country
screen,html.Screen,2_3_1_0_1_35,2022-02-01T14:52:10.240Z,,,,,,,,,,,,,,,,,48,,,,,,,,,,,,,,379.11999999999534,,response,,,,10,A,,,,,,Space,keypress(Space),,,,silence,,,,-- -- --- ------ ------- --------- ----------- --------<br>--------- -------- --- ------- -- ------- ---- -- ------<br>-- --- -------- -------- ---------- ---- ---- ---- ------<br>-- --------- -- ---- -- --- -- --- ------- is - -----<br>---------- -- -- -- ---- ----- -- ------ -- --- ------<br>-------,289179,289173,288793.38,288793,288793.88,289180.38,,35,is
screen,html.Screen,2_3_1_0_1_36,2022-02-01T14:52:10.616Z,,,,,,,,,,,,,,,,,48,,,,,,,,,,,,,,368.61999999999534,,response,,,,10,A,,,,,,Space,keypress(Space),,,,silence,,,,-- -- --- ------ ------- --------- ----------- --------<br>--------- -------- --- ------- -- ------- ---- -- ------<br>-- --- -------- -------- ---------- ---- ---- ---- ------<br>-- --------- -- ---- -- --- -- --- ------- -- a -----<br>---------- -- -- -- ---- ----- -- ------ -- --- ------<br>-------,289556,289549,289180,289180,289180.38,289556.74,,36,a
screen,html.Screen,2_3_1_0_1_37,2022-02-01T14:52:11.290Z,,,,,,,,,,,,,,,,,48,,,,,,,,,,,,,,663.2600000000093,,response,,,,10,A,,,,,,Space,keypress(Space),,,,silence,,,,-- -- --- ------ ------- --------- ----------- --------<br>--------- -------- --- ------- -- ------- ---- -- ------<br>-- --- -------- -------- ---------- ---- ---- ---- ------<br>-- --------- -- ---- -- --- -- --- ------- -- - crime<br>---------- -- -- -- ---- ----- -- ------ -- --- ------<br>-------,290229,290220,289555.9,289556,289556.74,290229.86,,37,crime
screen,html.Screen,2_3_1_0_1_38,2022-02-01T14:52:11.848Z,,,,,,,,,,,,,,,,,48,,,,,,,,,,,,,,553.140000000014,,response,,,,10,A,,,,,,Space,keypress(Space),,,,silence,,,,-- -- --- ------ ------- --------- ----------- --------<br>--------- -------- --- ------- -- ------- ---- -- ------<br>-- --- -------- -------- ---------- ---- ---- ---- ------<br>-- --------- -- ---- -- --- -- --- ------- -- - -----<br>punishable -- -- -- ---- ----- -- ------ -- --- ------<br>-------,290788,290783,290229.48,290229,290229.86,290788.58,,38,punishable
screen,html.Screen,2_3_1_0_1_39,2022-02-01T14:52:12.070Z,,,,,,,,,,,,,,,,,48,,,,,,,,,,,,,,213.4199999999837,,response,,,,10,A,,,,,,Space,keypress(Space),,,,silence,,,,-- -- --- ------ ------- --------- ----------- --------<br>--------- -------- --- ------- -- ------- ---- -- ------<br>-- --- -------- -------- ---------- ---- ---- ---- ------<br>-- --------- -- ---- -- --- -- --- ------- -- - -----<br>---------- by -- -- ---- ----- -- ------ -- --- ------<br>-------,291009,291002,290788,290788,290788.58,291010.2,,39,by
screen,html.Screen,2_3_1_0_1_40,2022-02-01T14:52:12.574Z,,,,,,,,,,,,,,,,,48,,,,,,,,,,,,,,491.79999999998836,,response,,,,10,A,,,,,,Space,keypress(Space),,,,silence,,,,-- -- --- ------ ------- --------- ----------- --------<br>--------- -------- --- ------- -- ------- ---- -- ------<br>-- --- -------- -------- ---------- ---- ---- ---- ------<br>-- --------- -- ---- -- --- -- --- ------- -- - -----<br>---------- -- up -- ---- ----- -- ------ -- --- ------<br>-------,291514,291502,291009.62,291009,291010.2,291514.56,,40,up
screen,html.Screen,2_3_1_0_1_41,2022-02-01T14:52:12.929Z,,,,,,,,,,,,,,,,,48,,,,,,,,,,,,,,347.4400000000023,,response,,,,10,A,,,,,,Space,keypress(Space),,,,silence,,,,-- -- --- ------ ------- --------- ----------- --------<br>--------- -------- --- ------- -- ------- ---- -- ------<br>-- --- -------- -------- ---------- ---- ---- ---- ------<br>-- --------- -- ---- -- --- -- --- ------- -- - -----<br>---------- -- -- to ---- ----- -- ------ -- --- ------<br>-------,291869,291862,291514.08,291514,291514.56,291869.94,,41,to
screen,html.Screen,2_3_1_0_1_42,2022-02-01T14:52:13.398Z,,,,,,,,,,,,,,,,,48,,,,,,,,,,,,,,459.0599999999977,,response,,,,10,A,,,,,,Space,keypress(Space),,,,silence,,,,-- -- --- ------ ------- --------- ----------- --------<br>--------- -------- --- ------- -- ------- ---- -- ------<br>-- --- -------- -------- ---------- ---- ---- ---- ------<br>-- --------- -- ---- -- --- -- --- ------- -- - -----<br>---------- -- -- -- five ----- -- ------ -- --- ------<br>-------,292338,292329,291869.38,291869,291869.94,292338.88,,42,five
screen,html.Screen,2_3_1_0_1_43,2022-02-01T14:52:13.666Z,,,,,,,,,,,,,,,,,48,,,,,,,,,,,,,,256.11999999999534,,response,,,,10,A,,,,,,Space,keypress(Space),,,,silence,,,,-- -- --- ------ ------- --------- ----------- --------<br>--------- -------- --- ------- -- ------- ---- -- ------<br>-- --- -------- -------- ---------- ---- ---- ---- ------<br>-- --------- -- ---- -- --- -- --- ------- -- - -----<br>---------- -- -- -- ---- years -- ------ -- --- ------<br>-------,292605,292595,292338.34,292339,292338.88,292606.24,,43,years
screen,html.Screen,2_3_1_0_1_44,2022-02-01T14:52:14.332Z,,,,,,,,,,,,,,,,,48,,,,,,,,,,,,,,660.7600000000093,,response,,,,10,A,,,,,,Space,keypress(Space),,,,silence,,,,-- -- --- ------ ------- --------- ----------- --------<br>--------- -------- --- ------- -- ------- ---- -- ------<br>-- --- -------- -------- ---------- ---- ---- ---- ------<br>-- --------- -- ---- -- --- -- --- ------- -- - -----<br>---------- -- -- -- ---- ----- in ------ -- --- ------<br>-------,293271,293267,292605.74,292606,292606.24,293271.9,,44,in
screen,html.Screen,2_3_1_0_1_45,2022-02-01T14:52:14.580Z,,,,,,,,,,,,,,,,,48,,,,,,,,,,,,,,229.09999999997672,,response,,,,10,A,,,,,,Space,keypress(Space),,,,silence,,,,-- -- --- ------ ------- --------- ----------- --------<br>--------- -------- --- ------- -- ------- ---- -- ------<br>-- --- -------- -------- ---------- ---- ---- ---- ------<br>-- --------- -- ---- -- --- -- --- ------- -- - -----<br>---------- -- -- -- ---- ----- -- prison -- --- ------<br>-------,293520,293501,293271.34,293272,293271.9,293520.68,,45,prison
screen,html.Screen,2_3_1_0_1_46,2022-02-01T14:52:15.040Z,,,,,,,,,,,,,,,,,48,,,,,,,,,,,,,,449.320000000007,,response,,,,10,A,,,,,,Space,keypress(Space),,,,silence,,,,-- -- --- ------ ------- --------- ----------- --------<br>--------- -------- --- ------- -- ------- ---- -- ------<br>-- --- -------- -------- ---------- ---- ---- ---- ------<br>-- --------- -- ---- -- --- -- --- ------- -- - -----<br>---------- -- -- -- ---- ----- -- ------ in --- ------<br>-------,293980,293970,293520.1,293520,293520.68,293980.7,,46,in
screen,html.Screen,2_3_1_0_1_47,2022-02-01T14:52:15.288Z,,,,,,,,,,,,,,,,,48,,,,,,,,,,,,,,239.29999999998836,,response,,,,10,A,,,,,,Space,keypress(Space),,,,silence,,,,-- -- --- ------ ------- --------- ----------- --------<br>--------- -------- --- ------- -- ------- ---- -- ------<br>-- --- -------- -------- ---------- ---- ---- ---- ------<br>-- --------- -- ---- -- --- -- --- ------- -- - -----<br>---------- -- -- -- ---- ----- -- ------ -- the ------<br>-------,294227,294220,293980.18,293980,293980.7,294228.28,,47,the
screen,html.Screen,2_3_1_0_1_48,2022-02-01T14:52:15.801Z,,,,,,,,,,,,,,,,,48,,,,,,,,,,,,,,507.71999999997206,,response,,,,10,A,,,,,,Space,keypress(Space),,,,silence,,,,-- -- --- ------ ------- --------- ----------- --------<br>--------- -------- --- ------- -- ------- ---- -- ------<br>-- --- -------- -------- ---------- ---- ---- ---- ------<br>-- --------- -- ---- -- --- -- --- ------- -- - -----<br>---------- -- -- -- ---- ----- -- ------ -- --- United<br>-------,294741,294736,294227.84,294227,294228.28,294742.1,,48,United
screen,html.Screen,2_3_1_0_1_49,2022-02-01T14:52:16.374Z,,,,,,,,,,,,,,,,,48,,,,,,,,,,,,,,556.9000000000233,,response,,,,10,A,,,,,,Space,keypress(Space),,,,silence,,,,-- -- --- ------ ------- --------- ----------- --------<br>--------- -------- --- ------- -- ------- ---- -- ------<br>-- --- -------- -------- ---------- ---- ---- ---- ------<br>-- --------- -- ---- -- --- -- --- ------- -- - -----<br>---------- -- -- -- ---- ----- -- ------ -- --- ------<br>States.,295315,295299,294741.6,294742,294742.1,295315.4,,49,States.
Item 10,flow.Loop,2_3_1_0_1,2022-02-01T14:52:16.375Z,,,,,,,,,,,,,,,,,,,,,,,,,,,,,,,21316.380000000005,,completion,,,,,,,,,,,,,,,,,,,,,295315,295299,273965.94,273968,273982.62,295315.4,,,
Question 1,html.Screen,2_3_1_0_2,2022-02-01T14:52:21.408Z,,,,,,,,,,,,,,,,,,,,,,,,,,,,true,TRUE,,5029.599999999977,,response,,,,10,A,,,,,,TRUE,click #choice-1,,,,silence,,,,,300348,300345,295314.82,295315,295315.4,300347.34,,,
Question 2,html.Screen,2_3_1_0_3,2022-02-01T14:52:26.573Z,,,,,,,,,,,,,,,,,,,,,,,,,,,,true,TRUE,,5154.659999999974,,response,,,,10,A,,,,,,TRUE,click #choice-1,,,,silence,,,,,305513,305502,300347.34,300348,300347.34,305527.92,,,
Item 10,flow.Sequence,2_3_1_0,2022-02-01T14:52:26.573Z,,,,,,,,,,,,,,,,,,,,,,,,,,,,,,,38522.09999999998,,completion,,,,,,,,,,,,,,,,,,,,,305513,305502,266963.24,266965,266979.9,305527.92,,,
Holding screen,html.Screen,2_3_1_1_0,2022-02-01T14:52:33.576Z,,,,,,,,,,,,,,,,,,,,,,,,,,,,,,,7002.760000000009,,timeout,,,,,,,,,,,,,,,,,,,,,312515,312514,305511.44,305513,305527.92,312530.68,,,
screen,html.Screen,2_3_1_1_1_0,2022-02-01T14:52:34.764Z,,,,,,,,,,,,,,,,,11,,,,,,,,,,,,,,1159.320000000007,,response,,,,4,A,,,,,,Space,keypress(Space),,,,silence,,,,Known -- ---- --- -- --- -------- ------------ ---------- --<br>- ------- ------ --------- -- ------------ -- --- ---- -----<br>------ ---- ---- ------ ------ ------- --- ----- ---------<br>---- --- -------- -------- --- --- -- ------- --- --- -----<br>-- --- ------ ------- --- --- -------- ---- --------- --<br>---------- -- -------- ----------------,313704,313690,312514,312516,312530.68,313704.58,,0,Known
screen,html.Screen,2_3_1_1_1_1,2022-02-01T14:52:35.186Z,,,,,,,,,,,,,,,,,11,,,,,,,,,,,,,,406.4199999999837,,response,,,,4,A,,,,,,Space,keypress(Space),,,,silence,,,,----- as ---- --- -- --- -------- ------------ ---------- --<br>- ------- ------ --------- -- ------------ -- --- ---- -----<br>------ ---- ---- ------ ------ ------- --- ----- ---------<br>---- --- -------- -------- --- --- -- ------- --- --- -----<br>-- --- ------ ------- --- --- -------- ---- --------- --<br>---------- -- -------- ----------------,314127,314111,313704.16,313704,313704.58,314126.98,,1,as
screen,html.Screen,2_3_1_1_1_2,2022-02-01T14:52:35.608Z,,,,,,,,,,,,,,,,,11,,,,,,,,,,,,,,406.0200000000186,,response,,,,4,A,,,,,,Space,keypress(Space),,,,silence,,,,----- -- Rapa --- -- --- -------- ------------ ---------- --<br>- ------- ------ --------- -- ------------ -- --- ---- -----<br>------ ---- ---- ------ ------ ------- --- ----- ---------<br>---- --- -------- -------- --- --- -- ------- --- --- -----<br>-- --- ------ ------- --- --- -------- ---- --------- --<br>---------- -- -------- ----------------,314548,314533,314126.48,314127,314126.98,314548.52,,2,Rapa
screen,html.Screen,2_3_1_1_1_3,2022-02-01T14:52:36.159Z,,,,,,,,,,,,,,,,,11,,,,,,,,,,,,,,531.4799999999814,,response,,,,4,A,,,,,,Space,keypress(Space),,,,silence,,,,----- -- ---- Nui -- --- -------- ------------ ---------- --<br>- ------- ------ --------- -- ------------ -- --- ---- -----<br>------ ---- ---- ------ ------ ------- --- ----- ---------<br>---- --- -------- -------- --- --- -- ------- --- --- -----<br>-- --- ------ ------- --- --- -------- ---- --------- --<br>---------- -- -------- ----------------,315099,315080,314548.02,314548,314548.52,315099.48,,3,Nui
